,timestamp,accel_x,accel_y,accel_z,gyro_x,gyro_y,gyro_z,ind
0,1696003472527,-0.092285156,-1.0005493,0.10736084,0.625,0.109375,0.875,0
1,1696003472567,-0.09399414,-1.0112915,0.12030029,-0.703125,0.453125,0.53125,1
2,1696003472607,-0.09301758,-1.0007935,0.10272217,-1.875,1.046875,0.203125,2
3,1696003472647,-0.09741211,-0.9976196,0.1317749,-2.796875,1.203125,-0.015625,3
4,1696003472687,-0.099609375,-0.9968872,0.12030029,-3.09375,1.265625,0.109375,4
5,1696003472727,-0.09472656,-1.0169067,0.12225342,-6.375,4.09375,-0.515625,5
6,1696003472767,-0.09326172,-1.0059204,0.1539917,-8.703125,3.734375,0.375,6
7,1696003472807,-0.11621094,-0.9680786,0.09661865,-6.953125,3.0625,-0.6875,7
8,1696003472847,-0.10205078,-0.987854,0.1762085,-3.71875,-0.234375,-0.59375,8
9,1696003472887,-0.09887695,-0.99664307,0.13372803,-2.640625,-0.234375,0.0625,9
10,1696003472927,-0.10205078,-0.986145,0.14666748,-2.3125,-0.8125,0.3125,10
11,1696003472967,-0.103271484,-0.9805298,0.1473999,-0.734375,-2.03125,0.3125,11
12,1696003473007,-0.107910156,-0.9859009,0.13739014,0.53125,-3.09375,0.5,12
13,1696003473047,-0.10644531,-0.9902954,0.14520264,2.109375,-3.671875,0.515625,13
14,1696003473087,-0.09277344,-0.9871216,0.13519287,2.859375,-2.921875,0.328125,14
15,1696003473127,-0.11303711,-0.98443604,0.13079834,5.84375,-4.65625,0.890625,15
16,1696003473167,-0.10546875,-0.9817505,0.13031006,7.921875,-6.5,1.90625,16
17,1696003473207,-0.099365234,-1.0025024,0.11981201,6.796875,-5.25,2.609375,17
18,1696003473247,-0.10253906,-1.0186157,0.14300537,3.71875,-1.640625,2.375,18
19,1696003473287,-0.11303711,-1.0025024,0.11199951,1.234375,-0.171875,1.203125,19
20,1696003473327,-0.10595703,-0.99298096,0.113708496,0.953125,-0.46875,0.515625,20
21,1696003473367,-0.09887695,-0.99468994,0.12542725,1.3125,-0.5625,0.625,21
22,1696003473407,-0.10498047,-0.9961548,0.11956787,0.265625,-0.21875,0.78125,22
23,1696003473447,-0.103271484,-0.99224854,0.11859131,0.6875,-0.3125,0.5625,23
24,1696003473487,-0.095458984,-0.9873657,0.11663818,1.1875,-0.484375,0.921875,24
25,1696003473527,-0.10253906,-0.99542236,0.11175537,0.140625,0.640625,0.625,25
26,1696003473567,-0.09765625,-0.99786377,0.12298584,0.375,-0.359375,1.09375,26
27,1696003473607,-0.10424805,-0.9907837,0.10321045,-0.671875,1.46875,0.328125,27
28,1696003473647,-0.10668945,-1.0003052,0.12567139,0.28125,0.28125,0.671875,28
29,1696003473687,-0.107910156,-1.0056763,0.121276855,0.328125,0.3125,0.640625,29
30,1696003473727,-0.10888672,-0.9932251,0.11053467,-0.25,1.4375,0.609375,30
31,1696003473767,-0.104003906,-0.98687744,0.109802246,0.109375,0.28125,0.6875,31
32,1696003473807,-0.10546875,-0.98809814,0.10394287,0.53125,0.234375,0.765625,32
33,1696003473847,-0.1015625,-0.9976196,0.11395264,1.015625,0.109375,0.921875,33
34,1696003473887,-0.103027344,-0.9968872,0.113464355,2.6875,-1.734375,1.5,34
35,1696003473927,-0.104003906,-0.99176025,0.109802246,2.8125,-0.390625,2.09375,35
36,1696003473967,-0.10864258,-1.0149536,0.11175537,1.453125,-1.21875,2.015625,36
37,1696003474007,-0.10180664,-0.9924927,0.109313965,0.78125,-0.421875,1.265625,37
38,1696003474047,-0.099609375,-1.0059204,0.097595215,0.546875,-0.546875,0.9375,38
39,1696003474087,-0.09643555,-0.99713135,0.11175537,0.859375,-0.53125,0.765625,39
40,1696003474127,-0.10229492,-1.0005493,0.10272217,1.28125,0.078125,1.3125,40
41,1696003474167,-0.09765625,-0.989563,0.109558105,1.359375,0.28125,1.546875,41
42,1696003474207,-0.09423828,-0.99713135,0.09246826,1.90625,0.21875,1.328125,42
43,1696003474247,-0.09741211,-0.99346924,0.09564209,2.4375,-0.515625,1.46875,43
44,1696003474287,-0.095703125,-0.9985962,0.10467529,2.21875,-0.703125,1.609375,44
45,1696003474327,-0.09277344,-1.0083618,0.09979248,1.09375,-0.578125,1.078125,45
46,1696003474367,-0.08935547,-0.99664307,0.09246826,1.109375,-0.609375,1.640625,46
47,1696003474407,-0.09350586,-1.0076294,0.09979248,0.859375,-0.375,1.46875,47
48,1696003474447,-0.09472656,-0.9932251,0.086364746,0.140625,-0.1875,0.71875,48
49,1696003474487,-0.09399414,-1.0012817,0.090026855,0.234375,0.125,0.8125,49
50,1696003474527,-0.09350586,-1.0005493,0.08441162,-0.859375,0.15625,0.796875,50
51,1696003474567,-0.09887695,-0.99176025,0.11248779,0.796875,-0.09375,1.046875,51
52,1696003474607,-0.09082031,-1.0029907,0.074645996,-0.421875,1.0,0.890625,52
53,1696003474647,-0.096191406,-0.9920044,0.08807373,0.6875,0.875,0.6875,53
54,1696003474687,-0.08984375,-1.0046997,0.11175537,1.078125,-0.53125,1.28125,54
55,1696003474727,-0.09448242,-0.9866333,0.08416748,1.03125,0.265625,1.328125,55
56,1696003474767,-0.08984375,-0.99786377,0.090026855,0.40625,0.296875,1.359375,56
57,1696003474807,-0.09790039,-0.99468994,0.090026855,0.046875,-0.15625,1.0625,57
58,1696003474847,-0.091796875,-0.98760986,0.08685303,1.140625,-0.234375,1.859375,58
59,1696003474887,-0.09375,-1.0078735,0.09295654,1.484375,-0.453125,2.453125,59
60,1696003474927,-0.087402344,-0.99176025,0.082458496,1.640625,0.203125,1.96875,60
61,1696003474967,-0.088134766,-0.9981079,0.09613037,1.65625,-0.28125,1.890625,61
62,1696003475007,-0.07836914,-0.98809814,0.08319092,1.375,-0.390625,2.5625,62
63,1696003475047,-0.07397461,-1.0003052,0.08856201,1.546875,-0.125,2.28125,63
64,1696003475087,-0.08154297,-0.9981079,0.08514404,1.03125,0.296875,2.140625,64
65,1696003475127,-0.06958008,-0.9985962,0.07562256,0.671875,0.34375,1.546875,65
66,1696003475167,-0.07421875,-0.9993286,0.082458496,0.59375,0.140625,1.25,66
67,1696003475207,-0.075683594,-0.9998169,0.07659912,0.25,-0.046875,1.21875,67
68,1696003475247,-0.07885742,-0.9981079,0.078308105,0.53125,-0.171875,1.1875,68
69,1696003475287,-0.072509766,-1.0020142,0.08001709,0.40625,-0.078125,0.5,69
70,1696003475327,-0.07324219,-0.99420166,0.07733154,0.484375,0.140625,0.625,70
71,1696003475367,-0.07714844,-0.9841919,0.074645996,0.984375,-0.28125,1.421875,71
72,1696003475407,-0.06591797,-1.0066528,0.070251465,0.5625,-0.421875,1.125,72
73,1696003475447,-0.075927734,-1.0025024,0.066345215,1.1875,-0.09375,1.34375,73
74,1696003475487,-0.07836914,-1.0064087,0.08880615,1.359375,-0.828125,1.625,74
75,1696003475527,-0.07397461,-1.006897,0.07122803,-0.09375,-0.15625,1.203125,75
76,1696003475567,-0.07348633,-0.9949341,0.08270264,1.328125,-0.6875,0.96875,76
77,1696003475607,-0.06567383,-1.0010376,0.0524292,-0.3125,0.578125,0.6875,77
78,1696003475647,-0.07763672,-0.9968872,0.070007324,0.734375,0.53125,0.46875,78
79,1696003475687,-0.07519531,-1.0022583,0.08441162,1.15625,-0.53125,0.953125,79
80,1696003475727,-0.07470703,-0.9981079,0.07537842,0.484375,-0.09375,0.671875,80
81,1696003475767,-0.07128906,-0.9927368,0.07147217,0.078125,0.0625,0.578125,81
82,1696003475807,-0.075683594,-0.99786377,0.070007324,-0.015625,0.21875,0.109375,82
83,1696003475847,-0.079833984,-1.0029907,0.08416748,0.03125,0.5625,-0.140625,83
84,1696003475887,-0.0769043,-1.013977,0.0848999,-1.296875,2.15625,-0.015625,84
85,1696003475927,-0.07080078,-1.0215454,0.109313965,-5.578125,4.671875,-2.21875,85
86,1696003475967,-0.09008789,-1.0166626,0.1149292,-9.859375,5.203125,-4.71875,86
87,1696003476007,-0.1081543,-0.9805298,0.1005249,-10.0625,2.171875,-6.078125,87
88,1696003476047,-0.09423828,-0.9920044,0.11444092,-8.15625,0.890625,-4.34375,88
89,1696003476087,-0.092041016,-0.9981079,0.12860107,-6.296875,-0.453125,-0.28125,89
90,1696003476127,-0.099853516,-0.9963989,0.12786865,-3.9375,-0.375,-0.546875,90
91,1696003476167,-0.10473633,-0.98028564,0.13226318,-2.734375,-1.765625,-0.203125,91
92,1696003476207,-0.09375,-0.9783325,0.12908936,-0.34375,-2.796875,0.53125,92
93,1696003476247,-0.11206055,-0.9854126,0.117126465,2.140625,-3.046875,0.96875,93
94,1696003476287,-0.10620117,-0.98272705,0.11785889,4.171875,-3.515625,1.1875,94
95,1696003476327,-0.10839844,-0.9924927,0.10784912,7.703125,-5.640625,2.328125,95
96,1696003476367,-0.111572266,-1.0110474,0.14398193,7.328125,-4.625,2.578125,96
97,1696003476407,-0.10546875,-1.0120239,0.1305542,3.21875,-1.421875,1.796875,97
98,1696003476447,-0.10620117,-0.9937134,0.12542725,1.046875,-0.703125,1.15625,98
99,1696003476487,-0.09350586,-0.9976196,0.08758545,-0.328125,0.4375,0.453125,99
100,1696003476527,-0.11401367,-1.0042114,0.12347412,0.078125,-0.9375,0.875,100
101,1696003476567,-0.09350586,-1.0022583,0.08929443,-1.15625,1.265625,0.15625,101
102,1696003476607,-0.10595703,-0.991272,0.11468506,0.171875,0.375,0.4375,102
103,1696003476647,-0.09643555,-0.99346924,0.11834717,0.3125,-0.71875,1.125,103
104,1696003476687,-0.114746094,-0.99005127,0.1071167,0.484375,1.140625,0.625,104
105,1696003476727,-0.1003418,-0.9981079,0.1083374,0.125,0.9375,0.328125,105
106,1696003476767,-0.11035156,-1.0037231,0.10247803,-1.140625,-0.375,0.34375,106
107,1696003476807,-0.103027344,-1.0122681,0.11151123,-0.65625,-0.59375,0.6875,107
108,1696003476847,-0.103027344,-1.0046997,0.117614746,0.234375,-0.921875,1.0625,108
109,1696003476887,-0.11328125,-0.989563,0.11419678,1.0,-0.40625,1.109375,109
110,1696003476927,-0.11254883,-0.9824829,0.11199951,1.015625,0.15625,0.84375,110
111,1696003476967,-0.114990234,-0.99053955,0.11029053,1.703125,-0.484375,0.96875,111
112,1696003477007,-0.11206055,-0.991272,0.113220215,3.03125,-0.84375,1.390625,112
113,1696003477047,-0.09643555,-1.0076294,0.11541748,1.890625,-0.453125,1.71875,113
114,1696003477087,-0.09643555,-1.0054321,0.11395264,1.515625,0.125,1.921875,114
115,1696003477127,-0.091796875,-0.9939575,0.105163574,1.734375,0.046875,1.71875,115
116,1696003477167,-0.091796875,-0.9951782,0.105407715,1.796875,0.140625,1.65625,116
117,1696003477207,-0.09301758,-0.98809814,0.09710693,1.546875,-0.859375,2.234375,117
118,1696003477247,-0.109375,-0.9949341,0.10443115,1.078125,-1.3125,2.34375,118
119,1696003477287,-0.091552734,-0.99713135,0.085876465,0.921875,-0.5625,1.921875,119
120,1696003477327,-0.09472656,-1.003479,0.0993042,2.015625,-0.765625,1.953125,120
121,1696003477367,-0.10229492,-1.0007935,0.09954834,0.984375,-1.03125,2.546875,121
122,1696003477407,-0.09033203,-0.9841919,0.10247803,2.734375,0.15625,2.078125,122
123,1696003477447,-0.083984375,-0.9981079,0.08465576,1.859375,0.359375,1.5625,123
124,1696003477487,-0.0847168,-0.9937134,0.08001709,1.453125,0.890625,0.90625,124
125,1696003477527,-0.087402344,-0.9990845,0.093444824,2.140625,0.046875,1.515625,125
126,1696003477567,-0.08569336,-1.00177,0.08660889,1.421875,-0.03125,1.421875,126
127,1696003477607,-0.07714844,-0.99053955,0.08026123,1.328125,0.015625,1.5,127
128,1696003477647,-0.088134766,-0.99835205,0.08831787,1.28125,-0.234375,1.53125,128
129,1696003477687,-0.07861328,-1.000061,0.08319092,0.78125,-0.71875,1.046875,129
130,1696003477727,-0.091796875,-1.0022583,0.09173584,1.0,-0.921875,1.5625,130
131,1696003477767,-0.087646484,-1.0029907,0.082458496,0.65625,-0.484375,1.34375,131
132,1696003477807,-0.08276367,-0.99298096,0.07904053,1.421875,-0.59375,1.6875,132
133,1696003477847,-0.087646484,-1.000061,0.090270996,1.03125,-0.421875,1.6875,133
134,1696003477887,-0.08300781,-0.9944458,0.07122803,0.9375,0.03125,1.4375,134
135,1696003477927,-0.07495117,-1.0012817,0.0758667,0.6875,0.203125,0.921875,135
136,1696003477967,-0.06298828,-1.0003052,0.06561279,0.3125,0.171875,0.953125,136
137,1696003478007,-0.068115234,-0.9973755,0.066589355,0.15625,0.09375,0.90625,137
138,1696003478047,-0.07373047,-0.9981079,0.07318115,0.265625,-0.671875,1.28125,138
139,1696003478087,-0.063964844,-0.9990845,0.06854248,0.421875,-0.453125,1.203125,139
140,1696003478127,-0.07299805,-0.9956665,0.08074951,1.0,-0.5,1.234375,140
141,1696003478167,-0.084472656,-1.0007935,0.085876465,0.953125,-0.171875,1.140625,141
142,1696003478207,-0.083740234,-0.99298096,0.09564209,0.9375,-0.234375,1.0,142
143,1696003478247,-0.08129883,-1.0122681,0.07952881,1.078125,-0.734375,1.296875,143
144,1696003478287,-0.06347656,-0.9841919,0.07318115,1.640625,0.203125,0.90625,144
145,1696003478327,-0.068359375,-0.98760986,0.070495605,0.4375,-0.046875,1.1875,145
146,1696003478367,-0.06542969,-0.99176025,0.054382324,0.0,0.921875,0.234375,146
147,1696003478407,-0.075927734,-1.00177,0.0770874,0.09375,0.140625,0.984375,147
148,1696003478447,-0.071777344,-1.0120239,0.07513428,-0.578125,0.25,0.875,148
149,1696003478487,-0.059326172,-0.987854,0.07659912,-0.390625,0.578125,0.90625,149
150,1696003478527,-0.078125,-0.98809814,0.08734131,1.21875,0.09375,1.640625,150
151,1696003478567,-0.0871582,-0.9981079,0.08807373,1.515625,-0.578125,1.609375,151
152,1696003478607,-0.08251953,-1.0164185,0.082214355,1.40625,-0.984375,1.6875,152
153,1696003478647,-0.07446289,-1.0137329,0.078552246,0.703125,-0.140625,1.03125,153
154,1696003478687,-0.072021484,-0.9927368,0.070007324,0.40625,-0.078125,1.125,154
155,1696003478727,-0.06640625,-0.991272,0.066833496,0.15625,-0.65625,1.296875,155
156,1696003478767,-0.06542969,-0.99664307,0.081726074,0.75,-0.609375,1.078125,156
157,1696003478807,-0.060791016,-0.9976196,0.059265137,0.875,-0.125,1.671875,157
158,1696003478847,-0.064453125,-1.0010376,0.06707764,0.859375,0.203125,1.078125,158
159,1696003478887,-0.064453125,-0.9998169,0.07366943,1.21875,0.359375,0.828125,159
160,1696003478927,-0.0637207,-1.0005493,0.07220459,1.03125,0.375,0.65625,160
161,1696003478967,-0.060791016,-1.0042114,0.06878662,0.421875,0.390625,0.484375,161
162,1696003479007,-0.06518555,-1.0056763,0.08148193,-0.640625,2.6875,-0.484375,162
163,1696003479047,-0.067871094,-1.0132446,0.085632324,-2.84375,3.75,-1.375,163
164,1696003479087,-0.08911133,-1.0117798,0.10296631,-4.984375,3.640625,-3.9375,164
165,1696003479127,-0.08618164,-1.0010376,0.07366943,-8.671875,3.921875,-5.140625,165
166,1696003479167,-0.09008789,-0.9871216,0.09906006,-8.46875,2.25,-3.4375,166
167,1696003479207,-0.07763672,-1.0029907,0.109558105,-9.703125,2.328125,-0.953125,167
168,1696003479247,-0.10595703,-1.0147095,0.15325928,-6.71875,3.34375,-1.296875,168
169,1696003479287,-0.09643555,-0.9812622,0.12371826,-5.78125,1.203125,-0.453125,169
170,1696003479327,-0.10424805,-0.97491455,0.12957764,-4.09375,-0.171875,-0.1875,170
171,1696003479367,-0.10229492,-0.98272705,0.13250732,-1.90625,-0.75,0.203125,171
172,1696003479407,-0.103759766,-0.98931885,0.12860107,-1.125,-2.953125,0.53125,172
173,1696003479447,-0.1003418,-0.9758911,0.13128662,1.859375,-4.171875,0.9375,173
174,1696003479487,-0.09765625,-0.97784424,0.116882324,3.859375,-4.484375,0.953125,174
175,1696003479527,-0.09448242,-0.973938,0.12445068,6.015625,-5.421875,1.125,175
176,1696003479567,-0.099853516,-1.0108032,0.12762451,7.28125,-6.21875,1.96875,176
177,1696003479607,-0.091308594,-1.0122681,0.13446045,4.1875,-3.171875,1.84375,177
178,1696003479647,-0.09448242,-1.0071411,0.1305542,1.25,-0.8125,1.625,178
179,1696003479687,-0.1027832,-1.0044556,0.11126709,0.59375,-0.75,0.8125,179
180,1696003479727,-0.10205078,-0.9961548,0.13372803,0.828125,-0.6875,0.828125,180
181,1696003479767,-0.10107422,-1.0010376,0.113464355,0.3125,-0.40625,0.78125,181
182,1696003479807,-0.095947266,-0.98760986,0.13323975,0.578125,-0.09375,1.015625,182
183,1696003479847,-0.09399414,-1.0061646,0.10296631,0.671875,-0.5,1.34375,183
184,1696003479887,-0.08959961,-0.9949341,0.1317749,0.015625,0.109375,0.484375,184
185,1696003479927,-0.096191406,-0.99005127,0.10882568,-0.046875,-0.125,0.75,185
186,1696003479967,-0.104003906,-0.98565674,0.10369873,-0.03125,1.890625,0.0625,186
187,1696003480007,-0.1027832,-1.00177,0.13275146,0.15625,0.59375,0.71875,187
188,1696003480047,-0.100097656,-0.9937134,0.109069824,-0.25,0.203125,0.65625,188
189,1696003480087,-0.09838867,-0.99176025,0.117614746,0.71875,0.171875,1.015625,189
190,1696003480127,-0.10058594,-0.9968872,0.11639404,1.28125,0.0,0.65625,190
191,1696003480167,-0.09716797,-0.99176025,0.11834717,1.34375,-0.453125,0.96875,191
192,1696003480207,-0.103515625,-0.98760986,0.11102295,2.328125,-1.0625,1.203125,192
193,1696003480247,-0.10180664,-1.0095825,0.11273193,1.421875,-0.078125,1.234375,193
194,1696003480287,-0.09033203,-0.9973755,0.117614746,0.8125,-0.15625,1.53125,194
195,1696003480327,-0.09106445,-0.9859009,0.11199951,0.453125,-0.40625,1.390625,195
196,1696003480367,-0.09887695,-1.0003052,0.1071167,0.78125,-0.296875,1.296875,196
197,1696003480407,-0.09716797,-0.9981079,0.11566162,1.03125,-0.359375,1.328125,197
198,1696003480447,-0.09448242,-0.99713135,0.09539795,0.78125,-0.203125,1.375,198
199,1696003480487,-0.092041016,-0.99053955,0.105407715,1.21875,-0.265625,1.4375,199
200,1696003480527,-0.09716797,-1.0025024,0.10345459,1.84375,-0.546875,1.484375,200
201,1696003480567,-0.09277344,-0.99835205,0.11468506,2.125,-0.421875,1.5625,201
202,1696003480607,-0.0925293,-0.9927368,0.1005249,2.96875,-1.40625,1.953125,202
203,1696003480647,-0.088378906,-0.99298096,0.10784912,1.46875,-0.078125,0.5625,203
204,1696003480687,-0.09057617,-0.99224854,0.09564209,1.28125,-0.6875,1.40625,204
205,1696003480727,-0.08325195,-0.99786377,0.090270996,0.578125,1.21875,0.703125,205
206,1696003480767,-0.09082031,-0.99298096,0.109069824,1.609375,0.015625,1.125,206
207,1696003480807,-0.09008789,-1.0012817,0.101745605,1.1875,-0.453125,1.078125,207
208,1696003480847,-0.084472656,-0.9956665,0.10101318,1.25,-0.515625,1.046875,208
209,1696003480887,-0.076171875,-0.99835205,0.09100342,0.9375,-1.234375,1.71875,209
210,1696003480927,-0.083740234,-0.99957275,0.09857178,1.28125,-0.765625,1.578125,210
211,1696003480967,-0.092285156,-0.99884033,0.09466553,1.09375,-0.78125,1.546875,211
212,1696003481007,-0.09301758,-1.0007935,0.10223389,0.125,-0.09375,0.875,212
213,1696003481047,-0.08569336,-0.9915161,0.093688965,0.859375,-0.015625,1.125,213
214,1696003481087,-0.08862305,-1.0061646,0.08929443,0.328125,-0.8125,1.578125,214
215,1696003481127,-0.08276367,-0.9898071,0.09075928,0.234375,-0.109375,1.296875,215
216,1696003481167,-0.078125,-1.0007935,0.08734131,0.234375,-0.125,1.09375,216
217,1696003481207,-0.07128906,-1.0012817,0.08734131,0.46875,0.15625,0.78125,217
218,1696003481247,-0.083984375,-1.003479,0.09686279,0.453125,0.0,0.828125,218
219,1696003481287,-0.08496094,-0.99420166,0.09710693,0.140625,-0.0625,0.765625,219
220,1696003481327,-0.08178711,-0.99786377,0.08392334,0.0625,-0.1875,0.8125,220
221,1696003481367,-0.092285156,-1.0042114,0.089782715,0.828125,-0.234375,0.984375,221
222,1696003481407,-0.0859375,-1.0093384,0.09442139,-0.046875,-0.171875,0.921875,222
223,1696003481447,-0.08300781,-0.9871216,0.09686279,1.78125,-0.59375,1.421875,223
224,1696003481487,-0.07397461,-0.9973755,0.07196045,0.53125,0.265625,1.125,224
225,1696003481527,-0.079589844,-0.9956665,0.07879639,0.921875,0.9375,0.359375,225
226,1696003481567,-0.08154297,-0.99346924,0.09490967,2.21875,-0.390625,2.3125,226
227,1696003481607,-0.08129883,-1.0112915,0.09124756,1.890625,-0.3125,2.0625,227
228,1696003481647,-0.07543945,-0.991272,0.08514404,0.875,-0.015625,1.90625,228
229,1696003481687,-0.079589844,-1.0037231,0.0770874,0.703125,-0.375,1.265625,229
230,1696003481727,-0.08300781,-0.99542236,0.082214355,1.078125,-0.3125,1.46875,230
231,1696003481767,-0.07470703,-0.9949341,0.08831787,0.8125,-0.453125,1.171875,231
232,1696003481807,-0.076416016,-0.99468994,0.078063965,0.953125,0.0625,1.09375,232
233,1696003481847,-0.072753906,-0.9873657,0.078552246,1.21875,0.125,0.921875,233
234,1696003481887,-0.07080078,-1.0098267,0.07196045,0.625,-0.578125,0.9375,234
235,1696003481927,-0.072753906,-1.0020142,0.07635498,0.078125,-0.34375,0.40625,235
236,1696003481967,-0.07299805,-1.0083618,0.082458496,-0.265625,-0.21875,0.5,236
237,1696003482007,-0.07836914,-0.99224854,0.08123779,0.40625,0.34375,0.5625,237
238,1696003482047,-0.07373047,-0.98883057,0.08123779,0.40625,1.125,0.40625,238
239,1696003482087,-0.07373047,-0.9939575,0.082214355,0.109375,1.59375,-0.109375,239
240,1696003482127,-0.076660156,-1.0022583,0.07879639,-0.875,3.6875,-0.90625,240
241,1696003482167,-0.08154297,-1.0112915,0.09490967,-3.484375,4.5,-2.21875,241
242,1696003482207,-0.092285156,-1.0088501,0.12005615,-3.8125,2.375,-2.0,242
243,1696003482247,-0.079833984,-1.0059204,0.10687256,-7.0625,3.40625,-2.53125,243
244,1696003482287,-0.09277344,-1.0176392,0.12445068,-9.453125,1.78125,-2.921875,244
245,1696003482327,-0.08935547,-0.98028564,0.13128662,-9.875,2.65625,-2.390625,245
246,1696003482367,-0.13354492,-1.0039673,0.14788818,-6.421875,2.390625,-2.203125,246
247,1696003482407,-0.08129883,-0.9710083,0.13006592,-6.296875,0.65625,-0.6875,247
248,1696003482447,-0.11279297,-0.9949341,0.13323975,-2.6875,-0.703125,-0.515625,248
249,1696003482487,-0.09667969,-0.9741821,0.14349365,-1.40625,-2.15625,0.578125,249
250,1696003482527,-0.107421875,-0.9717407,0.14691162,1.03125,-3.3125,1.359375,250
251,1696003482567,-0.10620117,-0.9866333,0.12640381,2.90625,-4.890625,1.5625,251
252,1696003482607,-0.10986328,-0.9741821,0.13104248,5.140625,-4.8125,1.015625,252
253,1696003482647,-0.109375,-0.98687744,0.1293335,7.078125,-6.28125,0.921875,253
254,1696003482687,-0.107666016,-1.0054321,0.13861084,7.4375,-6.078125,1.75,254
255,1696003482727,-0.09814453,-1.017395,0.13861084,4.765625,-2.09375,2.3125,255
256,1696003482767,-0.10522461,-1.003479,0.12567139,1.921875,-0.484375,2.484375,256
257,1696003482807,-0.09741211,-0.99053955,0.098083496,1.125,0.21875,1.46875,257
258,1696003482847,-0.10986328,-0.9949341,0.12347412,1.171875,-0.21875,1.1875,258
259,1696003482887,-0.09887695,-1.0015259,0.11248779,0.125,0.171875,0.953125,259
260,1696003482927,-0.100097656,-0.9976196,0.112976074,0.046875,0.0625,0.875,260
261,1696003482967,-0.1003418,-1.0005493,0.11248779,0.53125,-0.5,1.125,261
262,1696003483007,-0.09082031,-0.9939575,0.12005615,-0.046875,0.234375,0.203125,262
263,1696003483047,-0.10131836,-1.0039673,0.11663818,-0.640625,-0.484375,1.015625,263
264,1696003483087,-0.09863281,-0.9920044,0.10614014,0.109375,1.5,0.015625,264
265,1696003483127,-0.11010742,-0.9973755,0.13250732,0.78125,0.796875,0.734375,265
266,1696003483167,-0.099853516,-1.0012817,0.109802246,0.21875,0.65625,0.515625,266
267,1696003483207,-0.095214844,-0.98638916,0.10736084,0.78125,1.21875,0.625,267
268,1696003483247,-0.107177734,-1.0022583,0.11151123,0.96875,-0.078125,0.671875,268
269,1696003483287,-0.10913086,-0.99884033,0.120788574,1.9375,-0.328125,1.140625,269
270,1696003483327,-0.09741211,-1.0042114,0.11956787,1.453125,-0.671875,1.15625,270
271,1696003483367,-0.10229492,-1.0015259,0.11102295,1.1875,-1.03125,1.25,271
272,1696003483407,-0.099853516,-0.99884033,0.11444092,0.9375,-0.15625,0.78125,272
273,1696003483447,-0.10546875,-1.0032349,0.105407715,0.5625,-0.390625,0.875,273
274,1696003483487,-0.09716797,-0.9998169,0.105895996,0.796875,-0.234375,0.890625,274
275,1696003483527,-0.09838867,-0.9951782,0.109313965,0.765625,-0.515625,0.859375,275
276,1696003483567,-0.0949707,-0.99835205,0.11029053,1.515625,-0.453125,0.875,276
277,1696003483607,-0.10546875,-1.0010376,0.117370605,1.53125,-0.375,1.25,277
278,1696003483647,-0.09106445,-0.9883423,0.11541748,1.265625,-0.4375,1.140625,278
279,1696003483687,-0.10205078,-1.003479,0.101989746,1.0,-0.875,1.0625,279
280,1696003483727,-0.09423828,-0.9961548,0.1083374,0.59375,-0.390625,0.75,280
281,1696003483767,-0.09667969,-0.99420166,0.11419678,0.46875,-0.328125,1.0625,281
282,1696003483807,-0.08642578,-0.9976196,0.08807373,-0.453125,1.3125,0.3125,282
283,1696003483847,-0.10205078,-1.0025024,0.105407715,0.15625,-0.703125,0.90625,283
284,1696003483887,-0.091308594,-0.9902954,0.09100342,-0.84375,0.765625,0.171875,284
285,1696003483927,-0.10131836,-0.99591064,0.11883545,0.875,0.40625,0.625,285
286,1696003483967,-0.099609375,-0.99786377,0.11077881,0.609375,-0.578125,0.734375,286
287,1696003484007,-0.09423828,-0.99176025,0.11224365,0.3125,0.78125,0.625,287
288,1696003484047,-0.09643555,-0.986145,0.10247803,0.234375,-0.265625,0.765625,288
289,1696003484087,-0.09472656,-0.986145,0.09661865,0.421875,-0.375,0.890625,289
290,1696003484127,-0.099365234,-0.9993286,0.10443115,1.03125,-0.640625,1.1875,290
291,1696003484167,-0.1015625,-0.9981079,0.10003662,-0.03125,0.0,0.8125,291
292,1696003484207,-0.09448242,-1.0020142,0.10394287,0.125,-0.578125,1.03125,292
293,1696003484247,-0.09008789,-0.99176025,0.10784912,0.90625,-0.671875,1.21875,293
294,1696003484287,-0.107421875,-0.9961548,0.10662842,0.3125,-0.5,1.109375,294
295,1696003484327,-0.09765625,-1.0010376,0.11273193,0.046875,-0.03125,0.9375,295
296,1696003484367,-0.10058594,-0.98931885,0.10467529,-0.125,0.1875,1.0,296
297,1696003484407,-0.095458984,-0.9898071,0.09881592,0.875,-0.15625,1.296875,297
298,1696003484447,-0.083740234,-0.99835205,0.10028076,1.390625,0.203125,1.234375,298
299,1696003484487,-0.087890625,-0.986145,0.089782715,1.625,-0.109375,1.515625,299
300,1696003484527,-0.08569336,-1.0044556,0.081726074,1.375,-0.8125,1.3125,300
301,1696003484567,-0.08154297,-0.99664307,0.10247803,1.765625,-1.0625,1.40625,301
302,1696003484607,-0.08520508,-1.0039673,0.08782959,2.21875,-1.140625,1.71875,302
303,1696003484647,-0.09692383,-1.003479,0.113708496,2.09375,-2.109375,1.703125,303
304,1696003484687,-0.10522461,-1.0061646,0.08270264,-0.15625,-1.453125,1.8125,304
305,1696003484727,-0.10864258,-0.9907837,0.109802246,1.734375,-0.9375,0.828125,305
306,1696003484767,-0.09887695,-1.003479,0.08514404,0.328125,-0.015625,1.34375,306
307,1696003484807,-0.09765625,-0.9898071,0.082458496,0.78125,0.859375,0.90625,307
308,1696003484847,-0.08691406,-0.9883423,0.10418701,1.578125,0.09375,1.90625,308
309,1696003484887,-0.083740234,-0.99542236,0.08856201,1.25,1.34375,1.1875,309
310,1696003484927,-0.07446289,-0.99591064,0.08538818,0.140625,1.15625,0.53125,310
311,1696003484967,-0.08325195,-1.0061646,0.081726074,-0.609375,0.484375,0.203125,311
312,1696003485007,-0.07324219,-1.0042114,0.093933105,0.046875,0.765625,0.421875,312
313,1696003485047,-0.08886719,-1.0005493,0.101257324,0.53125,0.96875,0.53125,313
314,1696003485087,-0.10083008,-1.0100708,0.1329956,-2.4375,2.625,-0.53125,314
315,1696003485127,-0.09375,-1.0046997,0.14227295,-9.09375,5.609375,-1.90625,315
316,1696003485167,-0.12719727,-1.0029907,0.098083496,-9.921875,5.328125,-2.703125,316
317,1696003485207,-0.12084961,-0.9776001,0.14129639,-9.296875,1.78125,-2.5,317
318,1696003485247,-0.09423828,-1.0183716,0.14202881,-6.71875,1.46875,-0.890625,318
319,1696003485287,-0.095458984,-0.9907837,0.13983154,-3.65625,1.75,-0.078125,319
320,1696003485327,-0.1027832,-0.9944458,0.15106201,-3.953125,0.234375,0.390625,320
321,1696003485367,-0.10180664,-0.97857666,0.14471436,-2.5,-0.71875,0.59375,321
322,1696003485407,-0.096191406,-0.9819946,0.14764404,-0.8125,-0.921875,0.71875,322
323,1696003485447,-0.103271484,-0.9956665,0.15032959,-1.09375,-2.125,0.6875,323
324,1696003485487,-0.10986328,-0.991272,0.1515503,0.140625,-2.90625,0.828125,324
325,1696003485527,-0.1081543,-0.9771118,0.13275146,2.921875,-4.359375,1.125,325
326,1696003485567,-0.103271484,-0.9768677,0.13983154,5.484375,-5.671875,1.265625,326
327,1696003485607,-0.114746094,-1.0044556,0.124694824,7.546875,-8.078125,2.078125,327
328,1696003485647,-0.11645508,-0.99835205,0.19769287,7.546875,-5.59375,1.75,328
329,1696003485687,-0.10839844,-1.0098267,0.13885498,1.21875,-1.15625,1.6875,329
330,1696003485727,-0.12036133,-0.9961548,0.12982178,0.296875,0.890625,0.390625,330
331,1696003485767,-0.1159668,-1.0105591,0.15032959,1.671875,0.140625,0.796875,331
332,1696003485807,-0.09814453,-0.9873657,0.12420654,1.359375,1.640625,0.796875,332
333,1696003485847,-0.1003418,-0.9963989,0.12957764,0.453125,0.75,0.90625,333
334,1696003485887,-0.09277344,-0.9976196,0.12884521,-0.375,-0.09375,0.546875,334
335,1696003485927,-0.09838867,-1.0007935,0.14569092,0.21875,-0.1875,1.140625,335
336,1696003485967,-0.10546875,-1.0010376,0.12322998,0.046875,0.046875,1.3125,336
337,1696003486007,-0.1003418,-0.99542236,0.12689209,-1.03125,0.3125,0.75,337
338,1696003486047,-0.114990234,-0.9920044,0.14202881,-0.46875,-0.125,0.953125,338
339,1696003486087,-0.111328125,-0.9920044,0.13568115,-0.125,-0.234375,0.609375,339
340,1696003486127,-0.110839844,-0.9800415,0.14520264,1.078125,0.0,0.859375,340
341,1696003486167,-0.10205078,-0.9968872,0.1395874,0.875,0.21875,0.75,341
342,1696003486207,-0.103759766,-0.9907837,0.12689209,1.421875,0.53125,0.5,342
343,1696003486247,-0.10473633,-1.0042114,0.13885498,0.890625,0.375,0.8125,343
344,1696003486287,-0.09472656,-1.0059204,0.13421631,1.015625,-0.6875,1.015625,344
345,1696003486327,-0.10131836,-0.99884033,0.12567139,1.421875,-0.8125,1.03125,345
346,1696003486367,-0.103515625,-0.9993286,0.12005615,0.53125,-0.90625,1.015625,346
347,1696003486407,-0.103027344,-1.0010376,0.13421631,0.390625,-1.078125,0.6875,347
348,1696003486447,-0.107421875,-0.9963989,0.12176514,-0.3125,-0.609375,0.9375,348
349,1696003486487,-0.10522461,-0.98687744,0.12542725,1.71875,-0.8125,1.125,349
350,1696003486527,-0.10498047,-0.99420166,0.10247803,0.265625,0.65625,0.796875,350
351,1696003486567,-0.111328125,-1.000061,0.124694824,1.34375,1.0,0.828125,351
352,1696003486607,-0.103515625,-1.0020142,0.1305542,1.140625,0.34375,1.0625,352
353,1696003486647,-0.1015625,-0.99664307,0.11883545,0.28125,0.59375,0.65625,353
354,1696003486687,-0.09741211,-0.9973755,0.11981201,0.921875,-0.609375,1.0625,354
355,1696003486727,-0.103759766,-1.0025024,0.117126465,0.453125,-0.328125,0.984375,355
356,1696003486767,-0.104003906,-0.99786377,0.13665771,1.484375,-0.078125,0.640625,356
357,1696003486807,-0.103027344,-0.9949341,0.124694824,0.65625,-0.265625,0.828125,357
358,1696003486847,-0.10449219,-1.0078735,0.121032715,0.03125,-0.109375,0.75,358
359,1696003486887,-0.10913086,-1.0054321,0.11566162,-1.21875,-0.25,1.609375,359
360,1696003486927,-0.110839844,-0.9727173,0.11053467,-0.421875,-0.375,1.671875,360
361,1696003486967,-0.10620117,-0.9768677,0.11419678,0.890625,-0.3125,1.640625,361
362,1696003487007,-0.09814453,-1.0044556,0.13031006,0.875,-0.53125,1.0625,362
363,1696003487047,-0.09643555,-0.99346924,0.12689209,0.53125,-1.234375,0.421875,363
364,1696003487087,-0.095214844,-1.0061646,0.13372803,1.078125,-0.984375,0.34375,364
365,1696003487127,-0.09350586,-0.9993286,0.13812256,0.984375,-0.65625,0.640625,365
366,1696003487167,-0.107177734,-0.9976196,0.13641357,0.546875,-0.40625,0.796875,366
367,1696003487207,-0.11328125,-0.9944458,0.137146,0.015625,0.03125,0.734375,367
368,1696003487247,-0.10595703,-0.98687744,0.12420654,-0.25,0.5625,0.734375,368
369,1696003487287,-0.10595703,-0.99298096,0.11907959,0.71875,0.609375,0.9375,369
370,1696003487327,-0.1159668,-0.9963989,0.11956787,1.546875,0.671875,1.25,370
371,1696003487367,-0.10668945,-0.9961548,0.14886475,1.921875,0.5625,0.265625,371
372,1696003487407,-0.092285156,-1.0122681,0.0914917,-0.46875,-0.15625,0.375,372
373,1696003487447,-0.09423828,-1.000061,0.11199951,0.71875,0.765625,-0.0625,373
374,1696003487487,-0.09887695,-1.0044556,0.13446045,0.84375,-1.140625,0.734375,374
375,1696003487527,-0.10449219,-0.98760986,0.11248779,1.328125,-1.75,0.90625,375
376,1696003487567,-0.11010742,-0.9920044,0.12298584,1.296875,-1.75,0.703125,376
377,1696003487607,-0.10473633,-0.99346924,0.1239624,0.828125,-0.828125,0.46875,377
378,1696003487647,-0.11035156,-0.99591064,0.12176514,1.734375,-0.5,0.84375,378
379,1696003487687,-0.114990234,-0.9981079,0.12640381,2.53125,-0.03125,1.09375,379
380,1696003487727,-0.09106445,-0.99786377,0.10687256,0.140625,0.4375,0.578125,380
381,1696003487767,-0.09472656,-0.99591064,0.109802246,0.140625,0.3125,0.921875,381
382,1696003487807,-0.10131836,-0.9973755,0.117370605,0.875,-0.5,1.109375,382
383,1696003487847,-0.10620117,-0.99298096,0.11810303,0.875,-0.296875,1.203125,383
384,1696003487887,-0.10986328,-0.99542236,0.11590576,-0.03125,-0.296875,0.90625,384
385,1696003487927,-0.111572266,-0.9902954,0.11859131,-0.078125,0.109375,0.484375,385
386,1696003487967,-0.114746094,-0.99591064,0.120788574,0.375,0.6875,0.65625,386
387,1696003488007,-0.1027832,-0.9981079,0.11004639,-0.078125,0.546875,0.875,387
388,1696003488047,-0.095458984,-0.989563,0.105407715,0.390625,1.578125,0.6875,388
389,1696003488087,-0.10083008,-0.9968872,0.1251831,-0.84375,2.109375,0.875,389
390,1696003488127,-0.09838867,-1.015686,0.11981201,-3.484375,2.421875,-0.09375,390
391,1696003488167,-0.08959961,-1.024231,0.12884521,-5.078125,3.90625,-0.578125,391
392,1696003488207,-0.110839844,-1.0003052,0.15252686,-3.640625,1.40625,0.09375,392
393,1696003488247,-0.11791992,-0.9885864,0.1486206,-4.96875,2.484375,0.3125,393
394,1696003488287,-0.119384766,-0.98638916,0.16448975,-4.015625,-0.890625,1.328125,394
395,1696003488327,-0.114746094,-1.0012817,0.14154053,-5.375,1.8125,0.0625,395
396,1696003488367,-0.123291016,-0.9854126,0.1749878,-2.328125,2.046875,0.1875,396
397,1696003488407,-0.099609375,-0.98809814,0.14691162,-1.421875,1.234375,0.734375,397
398,1696003488447,-0.10668945,-0.986145,0.15496826,-1.234375,1.1875,-0.109375,398
399,1696003488487,-0.103515625,-0.987854,0.14666748,-0.65625,-1.09375,0.265625,399
400,1696003488527,-0.09667969,-0.98638916,0.14642334,-0.34375,-3.390625,0.6875,400
401,1696003488567,-0.095214844,-1.0020142,0.15374756,1.75,-3.046875,1.0,401
402,1696003488607,-0.09863281,-0.9741821,0.14007568,3.640625,-3.484375,1.203125,402
403,1696003488647,-0.12915039,-0.9805298,0.14910889,5.640625,-5.953125,1.640625,403
404,1696003488687,-0.10913086,-1.0073853,0.15081787,4.328125,-4.1875,2.015625,404
405,1696003488727,-0.107421875,-0.9834595,0.14105225,2.96875,-1.328125,1.65625,405
406,1696003488767,-0.10888672,-0.9907837,0.13421631,3.09375,-0.703125,1.203125,406
407,1696003488807,-0.11279297,-0.9961548,0.14251709,1.9375,-0.96875,0.75,407
408,1696003488847,-0.11425781,-1.003479,0.1359253,0.296875,-0.796875,0.796875,408
409,1696003488887,-0.099853516,-1.0039673,0.14349365,0.203125,-0.25,1.078125,409
410,1696003488927,-0.103027344,-0.9993286,0.13153076,0.84375,0.390625,1.0,410
411,1696003488967,-0.10131836,-0.99053955,0.1408081,0.71875,0.140625,0.8125,411
412,1696003489007,-0.10229492,-0.9981079,0.12908936,0.390625,0.109375,0.59375,412
413,1696003489047,-0.0925293,-1.0027466,0.12860107,-1.234375,0.796875,0.4375,413
414,1696003489087,-0.107666016,-0.9902954,0.14031982,0.765625,-0.0625,0.6875,414
415,1696003489127,-0.11230469,-0.9873657,0.10247803,-0.515625,1.15625,0.25,415
416,1696003489167,-0.11376953,-0.9788208,0.14569092,1.609375,0.890625,0.9375,416
417,1696003489207,-0.12646484,-0.99420166,0.13568115,1.578125,0.65625,1.375,417
418,1696003489247,-0.095458984,-1.0022583,0.10809326,0.6875,0.140625,0.640625,418
419,1696003489287,-0.10058594,-1.0088501,0.13616943,2.109375,-0.109375,0.703125,419
420,1696003489327,-0.10180664,-1.0046997,0.124938965,0.921875,-0.515625,0.84375,420
421,1696003489367,-0.103271484,-0.9985962,0.12591553,0.671875,-1.25,0.71875,421
422,1696003489407,-0.099365234,-0.99224854,0.124938965,0.390625,-0.578125,0.484375,422
423,1696003489447,-0.11230469,-0.99346924,0.11883545,-0.078125,-0.734375,0.765625,423
424,1696003489487,-0.115478516,-0.9937134,0.121520996,0.421875,-1.25,0.734375,424
425,1696003489527,-0.107177734,-0.9915161,0.12957764,1.609375,-0.359375,1.03125,425
426,1696003489567,-0.104003906,-0.99468994,0.12835693,2.21875,-0.03125,1.0625,426
427,1696003489607,-0.119628906,-0.9963989,0.12591553,1.578125,-0.578125,1.21875,427
428,1696003489647,-0.10180664,-0.99664307,0.124938965,0.828125,-0.4375,0.921875,428
429,1696003489687,-0.10546875,-1.0025024,0.11541748,0.265625,-0.28125,0.828125,429
430,1696003489727,-0.09814453,-0.99713135,0.11566162,1.140625,-0.453125,0.921875,430
431,1696003489767,-0.10522461,-0.98931885,0.12884521,0.515625,-0.21875,0.671875,431
432,1696003489807,-0.10083008,-0.9902954,0.112976074,-0.4375,-0.640625,0.71875,432
433,1696003489847,-0.10961914,-0.9985962,0.1239624,0.25,-0.671875,0.890625,433
434,1696003489887,-0.10473633,-1.000061,0.109802246,-0.625,0.765625,0.625,434
435,1696003489927,-0.100097656,-0.9985962,0.12786865,0.703125,-0.328125,1.078125,435
436,1696003489967,-0.10473633,-0.9915161,0.09857178,-0.828125,1.0,0.375,436
437,1696003490007,-0.11376953,-0.9968872,0.12542725,0.296875,-0.0625,0.78125,437
438,1696003490047,-0.10498047,-0.9990845,0.12322998,0.421875,-0.140625,0.78125,438
439,1696003490087,-0.11035156,-0.9890747,0.117126465,0.59375,0.640625,0.5625,439
440,1696003490127,-0.10473633,-0.99468994,0.1161499,0.078125,0.515625,0.625,440
441,1696003490167,-0.10424805,-0.98443604,0.10223389,0.421875,-0.296875,0.5,441
442,1696003490207,-0.11035156,-0.9968872,0.11517334,0.96875,-0.953125,1.0625,442
443,1696003490247,-0.10498047,-1.0012817,0.12030029,0.828125,-0.65625,1.03125,443
444,1696003490287,-0.115478516,-0.9944458,0.120788574,0.375,0.234375,1.0,444
445,1696003490327,-0.111328125,-0.9998169,0.117614746,0.359375,0.171875,1.046875,445
446,1696003490367,-0.10522461,-0.9968872,0.12713623,0.640625,0.53125,1.4375,446
447,1696003490407,-0.11010742,-1.0005493,0.113220215,-0.125,0.3125,1.484375,447
448,1696003490447,-0.09838867,-0.986145,0.10321045,-0.015625,0.28125,1.078125,448
449,1696003490487,-0.0949707,-0.98516846,0.11175537,0.8125,-0.21875,0.90625,449
450,1696003490527,-0.100097656,-0.991272,0.11175537,1.625,-0.828125,0.578125,450
451,1696003490567,-0.095458984,-0.9932251,0.105651855,1.65625,-1.40625,0.421875,451
452,1696003490607,-0.09765625,-0.99884033,0.11810303,2.1875,-1.765625,0.40625,452
453,1696003490647,-0.10888672,-1.0007935,0.117126465,2.421875,-1.546875,1.140625,453
454,1696003490687,-0.11230469,-0.99786377,0.13006592,1.59375,-1.28125,1.53125,454
455,1696003490727,-0.099609375,-0.9976196,0.094177246,-0.296875,1.578125,0.71875,455
456,1696003490767,-0.11450195,-0.9883423,0.11151123,-0.109375,-0.265625,1.21875,456
457,1696003490807,-0.096191406,-0.9898071,0.08807373,-0.015625,1.359375,0.53125,457
458,1696003490847,-0.111083984,-1.0027466,0.11199951,1.125,0.90625,0.578125,458
459,1696003490887,-0.10473633,-1.0064087,0.10760498,0.8125,-0.0625,0.609375,459
460,1696003490927,-0.10620117,-0.99884033,0.10345459,0.46875,0.515625,0.453125,460
461,1696003490967,-0.103271484,-1.0007935,0.10345459,0.1875,-0.0625,0.734375,461
462,1696003491007,-0.10839844,-0.98883057,0.109558105,0.125,-0.203125,1.0,462
463,1696003491047,-0.1081543,-1.00177,0.11175537,-0.109375,0.046875,1.078125,463
464,1696003491087,-0.104003906,-0.99420166,0.105895996,-0.734375,0.671875,0.640625,464
465,1696003491127,-0.10473633,-1.0037231,0.109558105,-1.484375,2.09375,0.484375,465
466,1696003491167,-0.10498047,-1.0076294,0.13079834,-3.328125,3.890625,-0.03125,466
467,1696003491207,-0.10522461,-1.0132446,0.13641357,-5.953125,6.140625,-0.546875,467
468,1696003491247,-0.125,-0.99224854,0.14227295,-6.03125,2.796875,-0.390625,468
469,1696003491287,-0.119140625,-0.9859009,0.1359253,-5.65625,2.109375,-0.8125,469
470,1696003491327,-0.119140625,-0.99713135,0.13763428,-5.953125,1.40625,0.1875,470
471,1696003491367,-0.10839844,-0.98883057,0.14691162,-3.75,-0.203125,0.171875,471
472,1696003491407,-0.111083984,-0.99542236,0.14569092,-1.484375,-1.203125,0.84375,472
473,1696003491447,-0.10864258,-0.9883423,0.14544678,-0.953125,-0.625,0.53125,473
474,1696003491487,-0.10449219,-0.97613525,0.14031982,0.140625,-1.9375,0.8125,474
475,1696003491527,-0.11816406,-0.9883423,0.11151123,2.78125,-3.453125,1.34375,475
476,1696003491567,-0.10668945,-0.9661255,0.15814209,6.53125,-4.21875,1.015625,476
477,1696003491607,-0.11035156,-1.0027466,0.124938965,5.96875,-4.484375,1.1875,477
478,1696003491647,-0.11254883,-1.0037231,0.16595459,5.03125,-2.09375,1.03125,478
479,1696003491687,-0.111816406,-1.0061646,0.15472412,2.984375,-1.8125,1.515625,479
480,1696003491727,-0.111083984,-0.9890747,0.124938965,1.609375,-0.9375,1.234375,480
481,1696003491767,-0.11816406,-0.9990845,0.14178467,1.65625,-0.609375,1.125,481
482,1696003491807,-0.111816406,-1.005188,0.13372803,0.546875,-0.203125,0.984375,482
483,1696003491847,-0.103759766,-0.98931885,0.12908936,0.921875,-0.171875,0.875,483
484,1696003491887,-0.10083008,-0.99542236,0.12738037,0.953125,0.203125,1.21875,484
485,1696003491927,-0.103027344,-0.9944458,0.11859131,0.09375,0.734375,1.046875,485
486,1696003491967,-0.10083008,-0.9898071,0.11834717,0.1875,-0.015625,0.953125,486
487,1696003492007,-0.111328125,-1.0007935,0.12567139,0.109375,-0.03125,0.828125,487
488,1696003492047,-0.11425781,-0.99298096,0.12835693,-0.296875,0.421875,1.09375,488
489,1696003492087,-0.107910156,-0.99713135,0.121032715,-0.28125,0.15625,0.734375,489
490,1696003492127,-0.109375,-0.9968872,0.12347412,0.25,0.0,0.875,490
491,1696003492167,-0.1171875,-0.9859009,0.12762451,0.984375,-0.28125,0.78125,491
492,1696003492207,-0.107177734,-0.9949341,0.13616943,0.5,0.203125,0.875,492
493,1696003492247,-0.10449219,-0.9939575,0.11517334,0.5625,0.484375,0.859375,493
494,1696003492287,-0.10839844,-0.9998169,0.12762451,1.125,-0.015625,0.75,494
495,1696003492327,-0.10961914,-1.0154419,0.11273193,1.25,-1.34375,1.375,495
496,1696003492367,-0.09838867,-0.97491455,0.14593506,2.890625,-1.828125,1.171875,496
497,1696003492407,-0.10205078,-1.0100708,0.10394287,0.25,-0.171875,0.875,497
498,1696003492447,-0.10546875,-0.9944458,0.124694824,0.390625,0.78125,0.359375,498
499,1696003492487,-0.11035156,-0.9937134,0.13568115,0.78125,-0.59375,0.84375,499
500,1696003492527,-0.11206055,-0.9859009,0.11663818,0.359375,0.453125,0.71875,500
501,1696003492567,-0.10180664,-0.9866333,0.121032715,0.8125,0.390625,0.8125,501
502,1696003492607,-0.11401367,-0.99420166,0.113708496,1.4375,-0.59375,0.796875,502
503,1696003492647,-0.10424805,-0.9993286,0.12713623,1.78125,-0.5625,0.671875,503
504,1696003492687,-0.10522461,-1.0032349,0.11419678,1.046875,-0.921875,1.28125,504
505,1696003492727,-0.1081543,-0.99420166,0.11907959,0.546875,0.0625,0.6875,505
506,1696003492767,-0.10595703,-0.99591064,0.124938965,0.28125,-0.28125,0.84375,506
507,1696003492807,-0.107666016,-0.9961548,0.1161499,0.5,-0.625,0.71875,507
508,1696003492847,-0.10522461,-0.9915161,0.12225342,0.703125,-0.296875,0.921875,508
509,1696003492887,-0.107421875,-1.000061,0.11126709,0.609375,-0.546875,0.859375,509
510,1696003492927,-0.111083984,-0.99224854,0.11834717,0.546875,-0.53125,1.015625,510
511,1696003492967,-0.10961914,-0.9973755,0.113220215,0.875,-0.15625,1.0625,511
512,1696003493007,-0.10620117,-0.99957275,0.113464355,0.9375,-0.75,0.96875,512
513,1696003493047,-0.104003906,-0.9951782,0.11419678,1.03125,-0.4375,1.109375,513
514,1696003493087,-0.11230469,-1.0039673,0.1071167,0.6875,-0.15625,1.03125,514
515,1696003493127,-0.10620117,-0.9963989,0.11834717,0.859375,-0.5,0.9375,515
516,1696003493167,-0.107666016,-0.991272,0.112976074,1.8125,-1.015625,1.15625,516
517,1696003493207,-0.1027832,-0.9902954,0.11981201,1.140625,0.0625,0.53125,517
518,1696003493247,-0.10644531,-0.99786377,0.11444092,0.625,-1.21875,1.390625,518
519,1696003493287,-0.09399414,-0.99713135,0.09979248,0.453125,0.78125,0.34375,519
520,1696003493327,-0.10473633,-1.0083618,0.113708496,0.875,-0.0625,0.984375,520
521,1696003493367,-0.10595703,-0.9944458,0.10784912,0.34375,0.234375,0.671875,521
522,1696003493407,-0.104003906,-0.9937134,0.11126709,0.0,0.5,0.8125,522
523,1696003493447,-0.103515625,-0.9956665,0.112976074,0.015625,-0.234375,0.515625,523
524,1696003493487,-0.100097656,-0.99102783,0.10736084,0.875,-0.46875,0.84375,524
525,1696003493527,-0.11279297,-1.0108032,0.113220215,1.578125,-1.34375,1.453125,525
526,1696003493567,-0.095458984,-0.9990845,0.10491943,0.75,-0.28125,0.734375,526
527,1696003493607,-0.10864258,-0.99786377,0.1083374,0.296875,0.265625,0.84375,527
528,1696003493647,-0.103027344,-0.9924927,0.10736084,1.21875,-0.296875,1.234375,528
529,1696003493687,-0.10961914,-0.99224854,0.10247803,1.03125,-1.171875,1.1875,529
530,1696003493727,-0.1027832,-0.9939575,0.10369873,0.984375,-0.359375,1.0625,530
531,1696003493767,-0.10131836,-1.0003052,0.101989746,0.5,0.1875,1.0,531
532,1696003493807,-0.104003906,-0.9907837,0.1071167,0.609375,-0.25,1.0,532
533,1696003493847,-0.103027344,-0.9866333,0.109558105,0.921875,-0.484375,1.3125,533
534,1696003493887,-0.1081543,-0.99176025,0.101989746,1.03125,-0.171875,1.359375,534
535,1696003493927,-0.10546875,-1.0054321,0.109558105,0.875,-0.3125,1.09375,535
536,1696003493967,-0.10107422,-0.99298096,0.093444824,0.28125,0.09375,0.890625,536
537,1696003494007,-0.10864258,-1.0010376,0.11077881,0.265625,0.15625,0.765625,537
538,1696003494047,-0.10546875,-1.0046997,0.10321045,-0.390625,0.484375,0.9375,538
539,1696003494087,-0.10253906,-0.99468994,0.12420654,-0.453125,1.75,0.53125,539
540,1696003494127,-0.1003418,-1.0244751,0.1149292,-5.671875,5.140625,-0.203125,540
541,1696003494167,-0.10839844,-1.010315,0.1305542,-7.34375,6.90625,-1.59375,541
542,1696003494207,-0.12109375,-0.9829712,0.15423584,-5.0625,1.53125,0.375,542
543,1696003494247,-0.099853516,-0.98883057,0.12908936,-5.015625,1.90625,-0.46875,543
544,1696003494287,-0.111083984,-0.9795532,0.1317749,-2.953125,0.25,0.1875,544
545,1696003494327,-0.11206055,-0.9944458,0.13739014,-1.203125,-1.828125,0.4375,545
546,1696003494367,-0.11645508,-0.97735596,0.14129639,1.015625,-2.6875,0.765625,546
547,1696003494407,-0.10522461,-0.9812622,0.12371826,4.28125,-3.75,1.40625,547
548,1696003494447,-0.11206055,-0.97784424,0.11859131,6.125,-3.84375,1.109375,548
549,1696003494487,-0.10498047,-0.99542236,0.13104248,6.40625,-6.09375,1.796875,549
550,1696003494527,-0.09863281,-1.0203247,0.15106201,3.421875,-2.296875,1.390625,550
551,1696003494567,-0.1081543,-1.0032349,0.1149292,1.140625,-0.84375,1.5625,551
552,1696003494607,-0.11035156,-0.9949341,0.11956787,1.375,-0.796875,0.78125,552
553,1696003494647,-0.10839844,-0.99786377,0.12591553,1.15625,-0.703125,0.78125,553
554,1696003494687,-0.1081543,-0.9973755,0.12420654,0.671875,-0.3125,0.90625,554
555,1696003494727,-0.10180664,-0.9973755,0.11395264,0.734375,-0.0625,0.921875,555
556,1696003494767,-0.09741211,-0.9963989,0.121520996,0.234375,-0.046875,0.90625,556
557,1696003494807,-0.106933594,-0.98883057,0.10467529,0.0,0.328125,0.734375,557
558,1696003494847,-0.10986328,-0.9976196,0.11956787,0.0,-0.078125,0.578125,558
559,1696003494887,-0.10058594,-0.99835205,0.10272217,-0.796875,0.78125,0.59375,559
560,1696003494927,-0.107666016,-0.99957275,0.11907959,0.1875,-0.015625,1.015625,560
561,1696003494967,-0.103027344,-0.9932251,0.09613037,-0.84375,0.328125,0.4375,561
562,1696003495007,-0.107910156,-0.9939575,0.11517334,0.21875,0.328125,0.3125,562
563,1696003495047,-0.103515625,-0.9961548,0.12298584,0.9375,-0.28125,0.734375,563
564,1696003495087,-0.10864258,-0.99664307,0.11590576,1.03125,0.015625,0.6875,564
565,1696003495127,-0.104003906,-0.9873657,0.120788574,0.515625,0.296875,0.734375,565
566,1696003495167,-0.10864258,-0.99591064,0.11224365,0.609375,-0.90625,0.96875,566
567,1696003495207,-0.10620117,-0.9993286,0.11785889,1.40625,-0.71875,1.09375,567
568,1696003495247,-0.103271484,-1.0005493,0.1149292,0.4375,-0.453125,1.046875,568
569,1696003495287,-0.10205078,-0.9973755,0.109069824,1.125,-0.203125,1.109375,569
570,1696003495327,-0.10449219,-0.9907837,0.10687256,1.515625,-0.921875,1.1875,570
571,1696003495367,-0.107177734,-0.99713135,0.113464355,1.25,-0.5625,0.984375,571
572,1696003495407,-0.10522461,-0.9885864,0.10662842,1.328125,-0.296875,1.140625,572
573,1696003495447,-0.10424805,-1.003479,0.11004639,1.421875,-0.625,1.375,573
574,1696003495487,-0.10986328,-0.9968872,0.113220215,0.953125,-0.375,1.09375,574
575,1696003495527,-0.103759766,-0.9951782,0.11029053,0.859375,-0.1875,1.28125,575
576,1696003495567,-0.10424805,-0.9968872,0.10272217,0.796875,0.09375,1.015625,576
577,1696003495607,-0.103759766,-0.99542236,0.10491943,0.453125,-0.28125,0.984375,577
578,1696003495647,-0.10595703,-1.0037231,0.112976074,0.40625,-0.46875,0.953125,578
579,1696003495687,-0.092041016,-1.0012817,0.10076904,0.328125,-0.125,0.78125,579
580,1696003495727,-0.107421875,-0.99957275,0.11029053,0.734375,-0.171875,0.96875,580
581,1696003495767,-0.10107422,-1.0078735,0.08880615,0.0625,-0.75,1.15625,581
582,1696003495807,-0.10595703,-0.9837036,0.1161499,2.4375,-0.921875,1.0625,582
583,1696003495847,-0.10205078,-0.99957275,0.09539795,0.640625,0.0625,0.90625,583
584,1696003495887,-0.10424805,-1.0010376,0.10076904,0.296875,0.875,0.34375,584
585,1696003495927,-0.099365234,-1.006897,0.1083374,1.90625,-0.796875,1.171875,585
586,1696003495967,-0.10107422,-0.9968872,0.10003662,1.5,-0.1875,0.96875,586
587,1696003496007,-0.10473633,-0.9944458,0.10028076,0.796875,-0.25,1.03125,587
588,1696003496047,-0.104003906,-0.9981079,0.08660889,1.0,-1.0625,0.953125,588
589,1696003496087,-0.09643555,-0.99542236,0.10076904,1.890625,-1.171875,1.375,589
590,1696003496127,-0.103027344,-0.99957275,0.10003662,1.15625,-0.84375,1.515625,590
591,1696003496167,-0.09741211,-0.9981079,0.08929443,0.5625,0.28125,0.703125,591
592,1696003496207,-0.09667969,-0.99346924,0.10418701,0.671875,0.0,1.09375,592
593,1696003496247,-0.10180664,-0.9985962,0.093444824,0.578125,-0.4375,1.078125,593
594,1696003496287,-0.10083008,-0.9951782,0.0927124,0.25,0.03125,1.171875,594
595,1696003496327,-0.092285156,-0.99298096,0.09613037,0.515625,-0.40625,1.0625,595
596,1696003496367,-0.099609375,-0.99420166,0.08685303,0.953125,-0.671875,1.5625,596
597,1696003496407,-0.09399414,-0.9920044,0.08392334,0.96875,-0.28125,1.40625,597
598,1696003496447,-0.09057617,-0.9963989,0.09466553,1.125,-0.59375,1.65625,598
599,1696003496487,-0.10522461,-0.99884033,0.085876465,1.328125,-0.59375,1.78125,599
600,1696003496527,-0.08935547,-1.0012817,0.08880615,1.15625,-0.6875,1.46875,600
601,1696003496567,-0.09643555,-0.99542236,0.08856201,0.8125,-0.078125,1.28125,601
602,1696003496607,-0.08984375,-0.9976196,0.08831787,0.34375,0.015625,0.984375,602
603,1696003496647,-0.09326172,-0.99346924,0.097595215,0.671875,-0.265625,1.140625,603
604,1696003496687,-0.08178711,-1.0015259,0.07098389,-0.453125,0.828125,1.015625,604
605,1696003496727,-0.09423828,-0.9976196,0.097839355,0.03125,-0.171875,1.28125,605
606,1696003496767,-0.08544922,-0.99468994,0.0680542,-0.453125,0.5,1.078125,606
607,1696003496807,-0.08959961,-0.9998169,0.0836792,0.75,0.25,0.9375,607
608,1696003496847,-0.088134766,-1.0025024,0.09686279,1.171875,-0.3125,1.21875,608
609,1696003496887,-0.09448242,-0.98883057,0.08929443,0.296875,0.21875,0.984375,609
610,1696003496927,-0.091796875,-0.99053955,0.081970215,0.015625,0.6875,0.765625,610
611,1696003496967,-0.08666992,-1.0005493,0.08685303,-0.203125,0.90625,0.453125,611
612,1696003497007,-0.088134766,-1.0054321,0.089538574,-0.28125,1.265625,0.421875,612
613,1696003497047,-0.08959961,-1.0012817,0.097595215,-1.765625,2.40625,0.0,613
614,1696003497087,-0.091308594,-1.0078735,0.10247803,-4.796875,5.0,-1.46875,614
615,1696003497127,-0.10620117,-1.0261841,0.14959717,-8.53125,5.5625,-2.46875,615
616,1696003497167,-0.10180664,-0.97979736,0.10101318,-8.765625,4.734375,-3.0,616
617,1696003497207,-0.09716797,-0.9807739,0.11590576,-6.828125,-0.984375,-1.484375,617
618,1696003497247,-0.11352539,-1.0071411,0.14227295,-3.84375,-0.46875,-0.015625,618
619,1696003497287,-0.111083984,-0.9841919,0.12713623,-2.359375,-0.359375,0.4375,619
620,1696003497327,-0.10644531,-0.9849243,0.11590576,-0.0625,-2.96875,0.84375,620
621,1696003497367,-0.100097656,-0.9692993,0.10638428,2.796875,-3.03125,1.203125,621
622,1696003497407,-0.107421875,-0.9800415,0.10467529,4.359375,-3.515625,1.75,622
623,1696003497447,-0.109375,-1.0010376,0.11932373,6.78125,-5.5,1.640625,623
624,1696003497487,-0.103515625,-1.0093384,0.12982178,5.03125,-3.671875,1.578125,624
625,1696003497527,-0.104003906,-1.0108032,0.1329956,2.09375,-0.9375,1.28125,625
626,1696003497567,-0.1015625,-1.0005493,0.09637451,-0.5,0.0625,0.90625,626
627,1696003497607,-0.114746094,-0.9829712,0.13885498,2.078125,-1.46875,0.921875,627
628,1696003497647,-0.09643555,-0.9985962,0.105651855,-0.5,-0.1875,0.828125,628
629,1696003497687,-0.103027344,-1.0015259,0.121276855,0.0,0.5,0.296875,629
630,1696003497727,-0.099609375,-0.9985962,0.13201904,0.890625,-0.375,0.859375,630
631,1696003497767,-0.10205078,-0.9944458,0.10369873,0.34375,0.609375,0.859375,631
632,1696003497807,-0.10083008,-0.989563,0.11468506,-0.078125,1.078125,0.953125,632
633,1696003497847,-0.10913086,-0.9961548,0.11151123,0.171875,0.359375,0.65625,633
634,1696003497887,-0.1027832,-0.9998169,0.11151123,0.8125,-0.21875,0.65625,634
635,1696003497927,-0.10253906,-0.991272,0.10223389,0.359375,-0.375,0.9375,635
636,1696003497967,-0.107421875,-1.0010376,0.10687256,0.46875,-0.078125,0.734375,636
637,1696003498007,-0.10913086,-0.9915161,0.112976074,0.921875,-0.40625,0.859375,637
638,1696003498047,-0.10839844,-0.98931885,0.1083374,2.296875,0.234375,1.71875,638
639,1696003498087,-0.095703125,-1.0100708,0.11053467,0.515625,-1.296875,0.890625,639
640,1696003498127,-0.10888672,-0.9890747,0.11468506,0.703125,-1.484375,1.046875,640
641,1696003498167,-0.10205078,-1.0022583,0.11077881,0.625,-0.328125,1.046875,641
642,1696003498207,-0.103759766,-0.99468994,0.105651855,0.828125,-0.328125,1.046875,642
643,1696003498247,-0.1027832,-0.99468994,0.10272217,1.125,-0.40625,1.109375,643
644,1696003498287,-0.09716797,-0.99664307,0.10638428,0.953125,-0.546875,0.96875,644
645,1696003498327,-0.10449219,-0.9907837,0.113220215,1.296875,-0.421875,1.109375,645
646,1696003498367,-0.10205078,-0.99835205,0.097595215,1.765625,-1.03125,1.515625,646
647,1696003498407,-0.10595703,-0.986145,0.117126465,2.171875,-1.40625,1.046875,647
648,1696003498447,-0.09838867,-0.99664307,0.10882568,1.203125,-1.328125,1.34375,648
649,1696003498487,-0.0925293,-1.0015259,0.08758545,0.546875,0.734375,0.28125,649
650,1696003498527,-0.09716797,-1.0061646,0.1161499,0.984375,-0.40625,1.171875,650
651,1696003498567,-0.107666016,-0.99835205,0.1071167,0.578125,-0.1875,0.921875,651
652,1696003498607,-0.095214844,-0.99176025,0.10272217,0.21875,0.375,0.78125,652
653,1696003498647,-0.09643555,-0.9932251,0.101501465,0.609375,0.125,1.0,653
654,1696003498687,-0.107421875,-0.99420166,0.1071167,0.796875,-0.5,1.015625,654
655,1696003498727,-0.1027832,-1.0022583,0.10394287,0.953125,-0.8125,1.375,655
656,1696003498767,-0.09765625,-0.9956665,0.09295654,0.640625,0.140625,0.796875,656
657,1696003498807,-0.10058594,-0.99224854,0.10272217,0.53125,-0.140625,1.171875,657
658,1696003498847,-0.10205078,-0.9993286,0.09979248,0.4375,-0.375,1.046875,658
659,1696003498887,-0.099365234,-1.0042114,0.09320068,0.5,-0.234375,0.921875,659
660,1696003498927,-0.10522461,-1.0054321,0.10247803,0.515625,-0.265625,1.15625,660
661,1696003498967,-0.09838867,-0.9981079,0.09246826,0.453125,-0.125,1.015625,661
662,1696003499007,-0.1003418,-1.0027466,0.1005249,0.921875,-0.265625,1.046875,662
663,1696003499047,-0.09472656,-0.9973755,0.09564209,0.59375,-0.484375,1.21875,663
664,1696003499087,-0.09790039,-0.99346924,0.09857178,0.46875,-0.5,1.28125,664
665,1696003499127,-0.091552734,-1.0005493,0.08929443,0.28125,-0.078125,0.859375,665
666,1696003499167,-0.09765625,-0.9902954,0.09539795,0.59375,-0.171875,1.03125,666
667,1696003499207,-0.09667969,-0.9990845,0.10321045,0.984375,-0.390625,1.15625,667
668,1696003499247,-0.09033203,-0.9998169,0.08929443,0.421875,0.515625,0.515625,668
669,1696003499287,-0.0949707,-1.0029907,0.1083374,0.4375,-0.875,1.28125,669
670,1696003499327,-0.0871582,-0.9968872,0.08026123,0.421875,0.6875,0.78125,670
671,1696003499367,-0.095214844,-0.9907837,0.101501465,1.8125,0.078125,1.390625,671
672,1696003499407,-0.092285156,-1.0032349,0.09588623,1.640625,-0.171875,1.6875,672
673,1696003499447,-0.092041016,-0.9932251,0.08929443,1.203125,-0.34375,1.1875,673
674,1696003499487,-0.09326172,-0.9951782,0.09320068,0.8125,-0.15625,1.3125,674
675,1696003499527,-0.09008789,-1.0012817,0.086364746,0.578125,-0.21875,1.0,675
676,1696003499567,-0.091796875,-1.0049438,0.09100342,0.640625,-0.46875,1.40625,676
677,1696003499607,-0.09008789,-1.0039673,0.07733154,0.46875,-0.078125,1.09375,677
678,1696003499647,-0.092041016,-0.9932251,0.097351074,0.53125,-0.171875,0.953125,678
679,1696003499687,-0.09741211,-1.003479,0.08831787,0.359375,-0.421875,0.96875,679
680,1696003499727,-0.08496094,-1.000061,0.090026855,0.59375,-0.46875,1.265625,680
681,1696003499767,-0.09057617,-1.0076294,0.08343506,0.53125,-0.171875,1.21875,681
682,1696003499807,-0.09277344,-0.9968872,0.07904053,0.53125,0.125,1.3125,682
683,1696003499847,-0.07739258,-1.0032349,0.08392334,0.484375,0.34375,0.96875,683
684,1696003499887,-0.08154297,-0.9976196,0.08050537,0.640625,0.5,0.90625,684
685,1696003499927,-0.08618164,-0.99591064,0.09075928,0.28125,0.109375,0.90625,685
686,1696003499967,-0.07885742,-0.99835205,0.08392334,-0.390625,1.09375,0.59375,686
687,1696003500007,-0.08666992,-1.0108032,0.105163574,-1.453125,2.625,0.203125,687
688,1696003500047,-0.08618164,-1.0210571,0.11102295,-5.03125,5.171875,-0.5,688
689,1696003500087,-0.10131836,-1.0098267,0.12908936,-6.140625,5.015625,-2.25,689
690,1696003500127,-0.09472656,-0.9834595,0.10614014,-9.1875,1.84375,-1.84375,690
691,1696003500167,-0.11279297,-0.986145,0.12567139,-6.421875,1.71875,-2.40625,691
692,1696003500207,-0.103759766,-0.9873657,0.1383667,-4.34375,-1.125,-0.015625,692
693,1696003500247,-0.10864258,-0.9795532,0.11907959,-0.0625,-2.453125,0.59375,693
694,1696003500287,-0.096191406,-0.960022,0.1161499,3.390625,-3.5625,1.5,694
695,1696003500327,-0.095947266,-0.97784424,0.10345459,5.09375,-4.453125,1.484375,695
696,1696003500367,-0.10522461,-0.9939575,0.10687256,8.046875,-6.1875,1.90625,696
697,1696003500407,-0.10253906,-1.0151978,0.13909912,5.71875,-3.53125,1.96875,697
698,1696003500447,-0.09643555,-1.0042114,0.11273193,1.8125,-0.25,1.40625,698
699,1696003500487,-0.099121094,-0.9968872,0.10369873,0.40625,-0.359375,0.921875,699
700,1696003500527,-0.10864258,-0.9961548,0.10369873,1.109375,-0.390625,0.921875,700
701,1696003500567,-0.099609375,-1.006897,0.11956787,0.65625,-0.125,0.90625,701
702,1696003500607,-0.096191406,-0.99664307,0.101989746,0.28125,-0.046875,1.078125,702
703,1696003500647,-0.09082031,-0.9924927,0.09661865,0.703125,-0.0625,1.1875,703
704,1696003500687,-0.09106445,-0.9944458,0.10736084,0.046875,0.046875,1.140625,704
705,1696003500727,-0.09643555,-0.9981079,0.101501465,0.21875,0.09375,0.78125,705
706,1696003500767,-0.107910156,-0.9956665,0.10223389,0.71875,-0.0625,0.875,706
707,1696003500807,-0.09008789,-1.005188,0.09661865,0.078125,0.6875,0.53125,707
708,1696003500847,-0.10131836,-0.99346924,0.10394287,0.53125,0.03125,0.734375,708
709,1696003500887,-0.10180664,-0.9963989,0.08734131,-0.65625,0.109375,0.640625,709
710,1696003500927,-0.1003418,-0.99346924,0.10443115,0.3125,0.046875,0.328125,710
711,1696003500967,-0.103027344,-1.0049438,0.113220215,1.734375,-1.375,0.984375,711
712,1696003501007,-0.10668945,-0.9963989,0.10369873,1.671875,-0.640625,1.21875,712
713,1696003501047,-0.10205078,-1.0003052,0.09490967,1.03125,-0.28125,1.40625,713
714,1696003501087,-0.10839844,-0.99884033,0.09661865,0.71875,-0.421875,0.9375,714
715,1696003501127,-0.10058594,-1.0015259,0.10687256,0.703125,-0.546875,1.0625,715
716,1696003501167,-0.09350586,-0.9937134,0.0993042,0.734375,-0.25,0.96875,716
717,1696003501207,-0.088134766,-0.99884033,0.105407715,0.90625,-0.171875,1.078125,717
718,1696003501247,-0.09790039,-0.9961548,0.09637451,1.140625,-0.3125,1.296875,718
719,1696003501287,-0.09667969,-0.99713135,0.09564209,1.15625,-0.875,1.34375,719
720,1696003501327,-0.1015625,-0.9927368,0.09832764,1.265625,-0.859375,1.515625,720
721,1696003501367,-0.09643555,-0.99542236,0.09686279,0.59375,-0.765625,1.3125,721
722,1696003501407,-0.09838867,-0.99957275,0.09832764,0.890625,-0.578125,1.640625,722
723,1696003501447,-0.0949707,-1.0049438,0.09124756,0.921875,-0.09375,1.125,723
724,1696003501487,-0.09375,-0.9927368,0.08294678,0.78125,0.3125,1.125,724
725,1696003501527,-0.09790039,-0.9927368,0.09222412,1.03125,-0.515625,1.09375,725
726,1696003501567,-0.08496094,-0.9898071,0.08514404,0.21875,0.921875,0.796875,726
727,1696003501607,-0.0949707,-0.9956665,0.089538574,0.640625,-0.203125,1.453125,727
728,1696003501647,-0.08862305,-0.9981079,0.07244873,-0.59375,0.21875,1.015625,728
729,1696003501687,-0.095947266,-0.9949341,0.09124756,0.78125,0.234375,0.734375,729
730,1696003501727,-0.088378906,-1.00177,0.09906006,0.828125,-1.171875,1.421875,730
731,1696003501767,-0.088134766,-0.99420166,0.08905029,0.65625,-0.15625,1.078125,731
732,1696003501807,-0.09082031,-0.99713135,0.093688965,0.046875,-0.671875,1.40625,732
733,1696003501847,-0.09643555,-0.9976196,0.08514404,0.09375,-0.375,1.328125,733
734,1696003501887,-0.08520508,-1.0098267,0.08807373,0.765625,-0.21875,1.28125,734
735,1696003501927,-0.08154297,-0.9985962,0.09197998,0.5,0.234375,0.828125,735
736,1696003501967,-0.079833984,-0.9907837,0.08685303,0.296875,0.0625,0.734375,736
737,1696003502007,-0.08251953,-1.0003052,0.09173584,0.53125,-0.390625,0.8125,737
738,1696003502047,-0.08959961,-1.0037231,0.08880615,0.421875,-0.09375,0.84375,738
739,1696003502087,-0.08178711,-1.0025024,0.09222412,0.359375,-0.40625,0.8125,739
740,1696003502127,-0.08178711,-0.99835205,0.08099365,0.890625,-0.921875,1.46875,740
741,1696003502167,-0.08251953,-0.9927368,0.08099365,0.5,-0.484375,1.109375,741
742,1696003502207,-0.08520508,-0.9951782,0.08709717,0.921875,0.03125,1.21875,742
743,1696003502247,-0.08911133,-1.0032349,0.08660889,1.265625,-0.34375,1.5625,743
744,1696003502287,-0.08569336,-0.99591064,0.08758545,1.46875,-0.53125,1.546875,744
745,1696003502327,-0.06933594,-0.9949341,0.08538818,1.015625,0.375,0.890625,745
746,1696003502367,-0.088378906,-0.9998169,0.086120605,1.1875,-0.5,1.703125,746
747,1696003502407,-0.07055664,-0.9998169,0.06536865,0.375,0.453125,0.71875,747
748,1696003502447,-0.079833984,-1.0039673,0.10028076,1.125,-0.625,1.125,748
749,1696003502487,-0.080078125,-0.99884033,0.08538818,0.984375,-0.328125,1.28125,749
750,1696003502527,-0.07080078,-0.9920044,0.07952881,0.484375,0.0,1.03125,750
751,1696003502567,-0.07373047,-1.0027466,0.07928467,0.3125,0.203125,0.578125,751
752,1696003502607,-0.08520508,-0.9937134,0.086120605,0.453125,0.1875,0.4375,752
753,1696003502647,-0.0769043,-1.0007935,0.07513428,0.453125,-0.171875,0.96875,753
754,1696003502687,-0.07861328,-0.9976196,0.07952881,0.15625,0.734375,0.40625,754
755,1696003502727,-0.07373047,-1.0073853,0.10272217,-1.234375,2.28125,0.03125,755
756,1696003502767,-0.08251953,-1.015686,0.11029053,-4.015625,5.046875,-1.078125,756
757,1696003502807,-0.08911133,-1.0361938,0.105407715,-5.828125,5.203125,-2.296875,757
758,1696003502847,-0.08911133,-0.99664307,0.10687256,-7.421875,3.59375,-4.1875,758
759,1696003502887,-0.10546875,-0.97003174,0.117614746,-7.234375,1.46875,-2.671875,759
