# Sensor type: Respeck
# Activity type: Sitting
# Activity subtype: Eating
# Subject id: s1938615
# Notes: 
timestamp,accel_x,accel_y,accel_z,gyro_x,gyro_y,gyro_z
1696003518218,-0.075927734,-1.0071411,0.085632324,-1.625,-0.625,0.0
1696003518256,-0.07397461,-0.99786377,0.08856201,-1.796875,-1.125,0.046875
1696003518278,-0.06762695,-0.99298096,0.08856201,-1.46875,0.421875,0.40625
1696003518339,-0.07495117,-1.0044556,0.08880615,-1.078125,0.296875,0.796875
1696003518369,-0.07299805,-0.9902954,0.089538574,-0.703125,-0.453125,0.734375
1696003518397,-0.0715332,-0.99713135,0.08319092,-0.546875,0.515625,0.921875
1696003518427,-0.072753906,-1.00177,0.089782715,-0.203125,-0.265625,0.9375
1696003518502,-0.07299805,-0.9937134,0.09442139,1.40625,-1.390625,1.1875
1696003518517,-0.06982422,-0.99542236,0.089538574,0.671875,-1.140625,1.140625
1696003518547,-0.075683594,-1.006897,0.08734131,-0.078125,-1.015625,0.6875
1696003518607,-0.072021484,-0.9932251,0.07879639,0.125,-0.140625,0.640625
1696003518637,-0.080566406,-0.9932251,0.09954834,1.375,-0.59375,0.890625
1696003518667,-0.06933594,-0.99884033,0.06439209,-0.828125,0.125,0.0625
1696003518729,-0.080078125,-1.0049438,0.11224365,0.5625,0.71875,0.125
1696003518759,-0.07373047,-1.0044556,0.10443115,0.203125,0.28125,0.796875
1696003518787,-0.07495117,-0.98321533,0.085876465,-0.5625,1.234375,0.109375
1696003518847,-0.07519531,-0.9993286,0.0927124,-0.75,0.609375,0.265625
1696003518878,-0.072265625,-0.99053955,0.10028076,0.015625,0.125,0.515625
1696003518908,-0.08203125,-1.0059204,0.09173584,-0.015625,-1.140625,1.015625
1696003518952,-0.0793457,-0.99005127,0.08758545,-0.578125,-1.015625,0.65625
1696003518997,-0.07910156,-0.99298096,0.09295654,0.53125,-0.59375,0.828125
1696003519027,-0.07788086,-1.0007935,0.08856201,0.828125,-1.40625,1.1875
1696003519057,-0.07006836,-0.99102783,0.09320068,1.734375,-2.171875,1.125
1696003519118,-0.076171875,-1.0130005,0.09173584,1.484375,-1.5625,1.1875
1696003519147,-0.067871094,-0.99542236,0.09710693,1.28125,-0.953125,0.859375
1696003519177,-0.080322266,-0.9968872,0.08807373,1.515625,-0.796875,1.296875
1696003519240,-0.071777344,-1.0054321,0.08514404,2.328125,-0.6875,1.625
1696003519267,-0.07495117,-1.0176392,0.07366943,1.0,0.46875,2.125
1696003519297,-0.06665039,-0.9837036,0.09320068,2.9375,0.828125,1.296875
1696003519357,-0.06958008,-1.005188,0.074401855,0.203125,0.515625,1.21875
1696003519387,-0.06542969,-0.9944458,0.081970215,0.796875,1.078125,-0.09375
1696003519417,-0.0847168,-1.0073853,0.101257324,0.84375,-0.25,0.984375
1696003519477,-0.06958008,-1.0054321,0.08001709,-0.078125,-0.03125,0.53125
1696003519507,-0.06762695,-0.991272,0.08685303,-0.546875,0.546875,0.6875
1696003519537,-0.08325195,-1.0083618,0.08538818,-0.5625,-0.140625,0.53125
1696003519567,-0.06225586,-0.9812622,0.07537842,0.109375,-0.484375,0.6875
1696003519627,-0.07006836,-1.0112915,0.07977295,-0.140625,-0.171875,0.59375
1696003519659,-0.06616211,-0.99053955,0.08343506,0.484375,0.390625,0.9375
1696003519687,-0.08569336,-1.0059204,0.09320068,0.484375,-0.3125,0.921875
1696003519747,-0.06640625,-0.9927368,0.08270264,0.421875,-0.453125,0.96875
1696003519777,-0.07543945,-0.9976196,0.08734131,0.578125,-0.03125,0.6875
1696003519809,-0.072753906,-1.0022583,0.09173584,-0.15625,-0.046875,0.84375
1696003519867,-0.07348633,-1.003479,0.08929443,-0.28125,0.125,0.65625
1696003519897,-0.08081055,-1.0076294,0.0848999,0.375,-0.25,1.09375
1696003519929,-0.075683594,-0.99884033,0.07537842,1.578125,-0.15625,1.828125
1696003519987,-0.06640625,-0.9956665,0.06951904,1.0,0.875,1.6875
1696003520017,-0.07299805,-0.9932251,0.09173584,1.578125,-0.46875,1.9375
1696003520047,-0.064697266,-0.9968872,0.059265137,-0.109375,0.96875,1.171875
1696003520137,-0.06933594,-1.0071411,0.0836792,0.65625,0.453125,0.59375
1696003520141,-0.057617188,-1.0039673,0.08416748,0.40625,-0.421875,1.03125
1696003520167,-0.07055664,-0.9819946,0.073913574,0.53125,0.625,1.125
1696003520197,-0.06225586,-0.99786377,0.081726074,0.25,-0.25,1.0625
1696003520257,-0.06542969,-0.9956665,0.07684326,0.515625,0.15625,1.0625
1696003520287,-0.06616211,-1.0025024,0.07977295,0.796875,-0.5,1.5625
1696003520319,-0.063964844,-1.006897,0.0836792,-0.296875,-0.125,0.75
1696003520377,-0.06542969,-0.9939575,0.093444824,0.078125,0.59375,0.671875
1696003520407,-0.072753906,-1.0032349,0.078063965,-0.125,-0.0625,1.21875
1696003520437,-0.068115234,-0.99542236,0.08441162,-0.140625,0.1875,0.84375
1696003520498,-0.0637207,-0.9985962,0.08392334,-0.4375,0.625,0.625
1696003520529,-0.068359375,-1.0005493,0.081726074,-0.609375,0.421875,1.0
1696003520557,-0.060791016,-0.9998169,0.082214355,-0.46875,0.375,1.03125
1696003520617,-0.0637207,-0.9973755,0.09637451,0.0625,-0.4375,1.0
1696003520648,-0.06518555,-1.0088501,0.07635498,-0.59375,-0.09375,1.3125
1696003520677,-0.06689453,-0.98565674,0.09710693,1.046875,-0.875,0.96875
1696003520706,-0.061035156,-1.0027466,0.066101074,-0.28125,0.21875,0.625
1696003520767,-0.07128906,-0.9963989,0.09442139,0.609375,0.515625,0.59375
1696003520797,-0.072021484,-1.0027466,0.097595215,1.125,-0.6875,0.90625
1696003520827,-0.067871094,-0.99102783,0.07684326,0.71875,0.15625,1.296875
1696003520888,-0.061279297,-1.0010376,0.08319092,0.453125,-0.109375,0.546875
1696003520918,-0.07519531,-1.0020142,0.07952881,0.203125,-0.203125,0.5625
1696003520947,-0.067871094,-1.0083618,0.0848999,0.265625,-0.84375,0.96875
1696003521007,-0.06201172,-0.99835205,0.08465576,0.015625,-0.375,0.90625
1696003521067,-0.06518555,-0.9944458,0.082214355,0.359375,0.421875,1.25
1696003521070,-0.05908203,-1.0007935,0.090270996,0.28125,-0.484375,0.609375
1696003521127,-0.06689453,-1.0071411,0.08856201,0.25,-0.0625,0.78125
1696003521157,-0.0625,-1.0073853,0.08392334,0.0625,-0.125,0.78125
1696003521187,-0.072753906,-1.0027466,0.08538818,0.15625,-0.40625,0.734375
1696003521307,-0.057373047,-1.0044556,0.081726074,0.015625,0.125,0.765625
1696003521311,-0.0690918,-0.9924927,0.082214355,-0.40625,0.109375,0.921875
1696003521318,-0.06665039,-0.99468994,0.09490967,-0.078125,0.109375,0.875
1696003521338,-0.056640625,-1.0081177,0.07513428,-1.515625,1.609375,0.3125
1696003521398,-0.05908203,-1.0025024,0.10614014,-2.28125,0.3125,0.859375
1696003521427,-0.07080078,-1.0039673,0.08123779,-3.140625,1.765625,0.71875
1696003521457,-0.064697266,-1.0039673,0.11956787,-2.421875,0.8125,0.203125
1696003521517,-0.061279297,-0.9924927,0.09173584,-1.25,0.765625,0.546875
1696003521548,-0.07104492,-0.9841919,0.1083374,-0.765625,0.203125,0.515625
1696003521579,-0.072509766,-0.99298096,0.09979248,-1.03125,0.203125,0.46875
1696003521637,-0.07104492,-0.9944458,0.11785889,-0.984375,-0.53125,0.125
1696003521697,-0.06665039,-0.9939575,0.10736084,-0.359375,-0.828125,0.765625
1696003521701,-0.07495117,-1.0003052,0.109558105,-0.421875,-0.21875,0.484375
1696003521743,-0.06738281,-0.9885864,0.109558105,0.5625,-0.71875,0.5625
1696003521788,-0.06347656,-0.9915161,0.1083374,1.171875,-1.375,0.953125
1696003521862,-0.068847656,-0.99786377,0.10784912,1.3125,-1.0625,0.984375
1696003521866,-0.07397461,-1.003479,0.10638428,0.859375,-0.65625,0.671875
1696003521909,-0.06616211,-1.0037231,0.11102295,1.234375,-0.375,0.875
1696003521937,-0.05859375,-0.9944458,0.10003662,1.109375,-0.390625,1.0625
1696003521967,-0.07128906,-1.0125122,0.11053467,0.71875,-0.265625,0.46875
1696003522027,-0.06713867,-0.9846802,0.10736084,0.734375,-0.28125,0.96875
1696003522057,-0.060546875,-1.0095825,0.08660889,0.078125,0.953125,0.375
1696003522087,-0.06518555,-0.9968872,0.113708496,0.015625,-0.5625,1.078125
1696003522147,-0.067871094,-0.99591064,0.089782715,-0.953125,0.96875,0.1875
1696003522177,-0.06982422,-1.0037231,0.12713623,0.328125,-0.203125,0.484375
1696003522207,-0.06933594,-0.9944458,0.101501465,0.796875,0.0625,0.96875
1696003522268,-0.07104492,-0.9885864,0.10687256,1.953125,0.25,1.0
1696003522297,-0.064941406,-1.00177,0.101989746,0.421875,-0.21875,0.78125
1696003522327,-0.06762695,-0.9949341,0.10345459,0.578125,0.078125,0.90625
1696003522387,-0.0703125,-1.0081177,0.105163574,0.609375,-0.53125,1.34375
1696003522417,-0.076171875,-1.00177,0.10223389,0.109375,0.265625,0.75
1696003522449,-0.064697266,-0.99224854,0.11175537,0.03125,-0.125,0.796875
1696003522478,-0.080322266,-1.0117798,0.1071167,-0.09375,-0.015625,1.3125
1696003522567,-0.06323242,-0.9841919,0.101989746,0.09375,-0.046875,1.265625
1696003522572,-0.067871094,-1.0078735,0.10443115,0.484375,-0.53125,1.1875
1696003522598,-0.06933594,-0.9985962,0.101257324,1.171875,-0.3125,1.75
1696003522657,-0.06542969,-0.9990845,0.097839355,1.171875,-0.46875,1.296875
1696003522702,-0.0625,-0.9951782,0.10443115,1.671875,-0.921875,1.453125
1696003522747,-0.07055664,-0.989563,0.08709717,1.609375,-0.828125,1.4375
1696003522777,-0.055908203,-1.0005493,0.08856201,2.140625,-1.34375,1.21875
1696003522808,-0.06567383,-0.99224854,0.10296631,3.34375,-1.734375,1.390625
1696003522837,-0.047607422,-1.0064087,0.09246826,2.390625,1.0,1.0625
1696003522927,-0.060058594,-1.0037231,0.09588623,0.15625,0.6875,1.71875
1696003522930,-0.05908203,-1.00177,0.08441162,-0.96875,2.859375,0.375
1696003522957,-0.05102539,-0.9907837,0.09100342,1.078125,0.375,1.171875
1696003522987,-0.057373047,-0.9976196,0.0758667,2.21875,0.96875,1.328125
1696003523047,-0.048828125,-0.98883057,0.08685303,1.359375,-0.9375,1.328125
1696003523078,-0.05883789,-1.0032349,0.06512451,1.453125,-2.203125,0.875
1696003523107,-0.057861328,-0.9944458,0.09564209,1.140625,-2.734375,0.0
1696003523167,-0.06665039,-1.0054321,0.0993042,-0.03125,-1.984375,0.0625
1696003523197,-0.06201172,-1.0007935,0.09564209,-1.484375,-1.390625,-0.75
1696003523227,-0.055908203,-0.98931885,0.10296631,-1.625,-0.75,-1.3125
1696003523287,-0.078125,-1.0037231,0.10882568,-2.09375,-1.5,-0.015625
1696003523320,-0.064697266,-1.0022583,0.101257324,-1.9375,-1.453125,-0.90625
1696003523347,-0.076171875,-0.9951782,0.09124756,-0.40625,-1.046875,0.0
1696003523407,-0.08105469,-1.0054321,0.10223389,0.765625,-1.90625,0.359375
1696003523437,-0.07128906,-0.99053955,0.10418701,1.265625,-3.1875,0.671875
1696003523467,-0.072021484,-0.9981079,0.08001709,1.609375,-2.421875,1.5
1696003523499,-0.059814453,-1.0022583,0.0770874,2.125,-1.0,0.875
1696003523543,-0.06762695,-1.0095825,0.09881592,2.171875,-0.90625,1.296875
1696003523587,-0.059814453,-1.0042114,0.07342529,-0.1875,1.90625,0.171875
1696003523623,-0.067871094,-1.000061,0.0848999,-0.234375,0.546875,0.828125
1696003523677,-0.06713867,-0.99224854,0.06390381,0.15625,1.53125,0.234375
1696003523707,-0.06518555,-0.9902954,0.10028076,1.65625,-0.265625,0.546875
1696003523737,-0.07470703,-1.0073853,0.085876465,2.0625,-0.78125,1.140625
1696003523828,-0.06542969,-0.9885864,0.09124756,2.4375,1.21875,0.6875
1696003523832,-0.07519531,-0.99346924,0.08465576,1.671875,1.171875,1.0625
1696003523857,-0.072021484,-1.0005493,0.07757568,2.171875,0.96875,1.5
1696003523917,-0.072753906,-1.000061,0.09100342,1.71875,0.78125,1.71875
1696003523947,-0.068359375,-1.0027466,0.07659912,0.53125,0.734375,0.703125
1696003523979,-0.07080078,-0.9951782,0.08050537,0.4375,0.59375,0.765625
1696003524037,-0.0703125,-0.9956665,0.08343506,0.40625,0.015625,1.046875
1696003524067,-0.06738281,-0.99102783,0.08660889,0.015625,-0.046875,0.546875
1696003524097,-0.07055664,-1.0010376,0.08416748,-0.984375,0.375,0.34375
1696003524128,-0.06958008,-0.99713135,0.093933105,-0.96875,-0.03125,0.296875
1696003524187,-0.07446289,-1.0105591,0.10491943,-1.96875,0.6875,0.171875
1696003524217,-0.07104492,-0.9990845,0.105407715,-3.546875,0.625,-0.5
1696003524247,-0.08081055,-1.0127563,0.09197998,-5.875,0.609375,-0.734375
1696003524307,-0.08178711,-0.99224854,0.11224365,-2.703125,-0.046875,-0.90625
1696003524337,-0.07788086,-0.9932251,0.11639404,-5.0625,-0.15625,0.109375
1696003524369,-0.079589844,-1.019104,0.12200928,-4.328125,2.3125,-0.390625
1696003524427,-0.07055664,-0.9837036,0.12298584,-3.65625,0.140625,-0.140625
1696003524457,-0.08227539,-0.9944458,0.12347412,-2.734375,1.109375,-0.65625
1696003524487,-0.06567383,-0.972229,0.12615967,-2.796875,-0.5625,0.921875
1696003524547,-0.092285156,-1.0071411,0.12738037,-1.609375,-0.40625,0.3125
1696003524577,-0.092041016,-0.99786377,0.1305542,-1.5,-2.140625,0.515625
1696003524608,-0.07128906,-0.98321533,0.12567139,-1.109375,-1.9375,-0.265625
1696003524637,-0.09326172,-0.9776001,0.137146,0.296875,-1.609375,0.34375
1696003524698,-0.08642578,-0.99468994,0.1251831,-0.296875,-2.984375,0.078125
1696003524727,-0.08129883,-0.9920044,0.116882324,1.0,-2.140625,0.484375
1696003524757,-0.09350586,-0.9924927,0.11981201,1.6875,-1.34375,1.203125
1696003524818,-0.08154297,-1.0037231,0.1395874,1.0625,-1.46875,0.234375
1696003524847,-0.09692383,-1.0022583,0.13861084,1.046875,-0.515625,1.140625
1696003524878,-0.08666992,-0.99224854,0.11468506,2.265625,-1.453125,0.984375
1696003524937,-0.080078125,-1.0083618,0.10467529,2.1875,-2.25,0.8125
1696003524967,-0.09692383,-0.98150635,0.13787842,5.09375,-3.71875,0.65625
1696003524997,-0.08081055,-1.0078735,0.11541748,2.984375,0.625,0.890625
1696003525057,-0.083984375,-0.98883057,0.12762451,4.53125,0.984375,1.21875
1696003525118,-0.09008789,-1.0210571,0.124694824,5.453125,0.84375,3.21875
1696003525121,-0.09472656,-0.9956665,0.11834717,3.265625,1.9375,2.609375
1696003525147,-0.07739258,-0.99005127,0.105895996,2.03125,0.671875,1.65625
1696003525192,-0.091552734,-0.9963989,0.10687256,3.171875,-0.046875,1.90625
1696003525252,-0.08325195,-1.0066528,0.11175537,2.0,-0.625,1.28125
1696003525268,-0.07788086,-1.0117798,0.08856201,0.796875,0.421875,1.359375
1696003525327,-0.07421875,-0.99053955,0.0914917,1.203125,0.0625,0.59375
1696003525359,-0.080322266,-0.99176025,0.08734131,0.65625,-0.671875,0.96875
1696003525387,-0.07714844,-0.99005127,0.09613037,2.328125,-0.9375,1.640625
1696003525447,-0.087402344,-1.0159302,0.08343506,1.734375,-0.734375,1.5
1696003525477,-0.08276367,-1.0088501,0.10028076,1.3125,-0.046875,1.375
1696003525507,-0.079833984,-1.000061,0.090026855,0.9375,-0.25,0.984375
1696003525568,-0.06982422,-0.99005127,0.08514404,1.3125,-0.796875,1.21875
1696003525598,-0.07543945,-0.9902954,0.08416748,1.640625,-2.65625,1.09375
1696003525627,-0.06347656,-1.0037231,0.066101074,0.40625,0.640625,0.765625
1696003525688,-0.06713867,-1.0005493,0.08270264,0.96875,-1.453125,1.640625
1696003525717,-0.060058594,-1.0037231,0.05657959,0.21875,0.53125,1.3125
1696003525748,-0.07543945,-0.9937134,0.08319092,1.65625,-2.234375,0.703125
1696003525779,-0.06616211,-1.0049438,0.09075928,2.421875,-0.3125,1.6875
1696003525837,-0.07348633,-0.9981079,0.08782959,2.921875,1.390625,2.53125
1696003525868,-0.06665039,-0.9885864,0.0770874,1.859375,1.46875,2.125
1696003525897,-0.0690918,-0.9985962,0.0692749,1.890625,0.734375,1.546875
1696003525958,-0.064697266,-1.0046997,0.07098389,2.4375,0.9375,2.0625
1696003525987,-0.061767578,-0.9993286,0.07513428,1.5,0.9375,0.953125
1696003526017,-0.064453125,-1.0015259,0.066589355,0.90625,0.453125,0.984375
1696003526081,-0.05102539,-0.99591064,0.06488037,0.84375,-0.5,1.28125
1696003526109,-0.059326172,-1.0007935,0.0524292,0.71875,-1.171875,0.828125
1696003526137,-0.06689453,-1.0037231,0.066101074,0.734375,-0.53125,0.984375
1696003526197,-0.06201172,-0.9973755,0.06048584,0.5625,-0.296875,1.46875
1696003526227,-0.048583984,-0.9915161,0.06536865,0.8125,-1.125,0.703125
1696003526273,-0.061035156,-1.000061,0.036315918,0.078125,-2.703125,0.765625
1696003526288,-0.05029297,-0.9973755,0.059509277,1.46875,-1.3125,0.890625
1696003526425,-0.0690918,-1.005188,0.06903076,2.171875,-2.5625,2.015625
1696003526430,-0.060546875,-1.0093384,0.06439209,1.0625,-1.953125,1.546875
1696003526436,-0.053466797,-0.98638916,0.04901123,2.015625,-1.546875,2.703125
1696003526468,-0.05102539,-1.0083618,0.06829834,1.8125,0.5,1.671875
1696003526497,-0.060791016,-0.9939575,0.06707764,1.921875,0.390625,2.53125
1696003526527,-0.05102539,-1.0020142,0.05657959,0.796875,0.71875,1.5
1696003526587,-0.047851562,-0.9924927,0.049987793,0.609375,1.125,1.515625
1696003526620,-0.049072266,-1.0007935,0.043884277,0.109375,0.8125,1.03125
1696003526647,-0.059326172,-1.0081177,0.051696777,0.25,0.96875,1.0
1696003526707,-0.038085938,-0.9937134,0.046813965,0.046875,0.5625,1.265625
1696003526767,-0.05859375,-1.0044556,0.06097412,0.09375,0.8125,0.921875
1696003526771,-0.039794922,-1.0071411,0.06878662,0.3125,3.078125,0.90625
1696003526829,-0.055419922,-0.9973755,0.05657959,0.125,1.453125,0.828125
1696003526857,-0.04321289,-0.99664307,0.06121826,0.21875,0.140625,1.125
1696003526887,-0.04711914,-1.0120239,0.06097412,-1.5625,1.15625,0.359375
1696003526918,-0.049804688,-1.0044556,0.06121826,-2.46875,1.21875,0.640625
1696003526977,-0.033691406,-0.9993286,0.055847168,-2.53125,1.203125,1.125
1696003527007,-0.046142578,-0.9963989,0.051208496,-0.9375,1.328125,2.375
1696003527037,-0.052246094,-0.9915161,0.07904053,-0.484375,-0.8125,0.828125
1696003527097,-0.056884766,-0.9937134,0.05218506,-2.03125,1.21875,1.25
1696003527129,-0.057617188,-1.0078735,0.07269287,-0.75,0.234375,2.359375
1696003527158,-0.052490234,-0.9937134,0.047790527,-1.75,-0.53125,0.671875
1696003527217,-0.045898438,-1.0005493,0.07952881,-1.515625,-0.40625,-0.390625
1696003527248,-0.032714844,-1.015686,0.055603027,-2.546875,-2.8125,-1.703125
1696003527277,-0.05419922,-0.9898071,0.06854248,-3.390625,-4.84375,-5.703125
1696003527352,-0.072265625,-1.0081177,0.08782959,-6.140625,-3.484375,-7.46875
1696003527357,-0.045166016,-0.97540283,0.06390381,-0.796875,-1.359375,0.21875
1696003527397,-0.07763672,-1.0115356,0.09075928,1.0625,-2.328125,1.46875
1696003527428,-0.068603516,-0.9890747,0.09710693,0.828125,-0.921875,0.875
1696003527487,-0.07885742,-0.9949341,0.101745605,0.703125,-0.484375,1.546875
1696003527518,-0.0690918,-0.9937134,0.09197998,0.578125,0.234375,1.59375
1696003527547,-0.07495117,-1.0081177,0.09979248,0.03125,-0.234375,0.84375
1696003527608,-0.068847656,-1.0039673,0.09588623,-0.0625,1.34375,1.140625
1696003527668,-0.06762695,-1.0029907,0.09197998,0.8125,0.78125,1.640625
1696003527672,-0.0715332,-0.9973755,0.08465576,0.5625,0.765625,1.3125
1696003527728,-0.059814453,-0.99298096,0.08392334,0.65625,0.4375,1.4375
1696003527758,-0.068847656,-0.9939575,0.09588623,1.4375,-0.75,1.21875
1696003527787,-0.044433594,-1.0037231,0.0836792,0.265625,0.328125,0.125
1696003527849,-0.06323242,-1.0007935,0.09661865,0.109375,-1.171875,0.953125
1696003527878,-0.07006836,-1.0022583,0.077819824,-0.6875,0.984375,0.484375
1696003527907,-0.060058594,-0.9998169,0.10467529,0.734375,-0.25,0.78125
1696003527967,-0.06201172,-0.9990845,0.08050537,0.546875,0.03125,1.140625
1696003527997,-0.06298828,-0.9907837,0.08856201,0.984375,0.265625,1.0625
1696003528028,-0.06640625,-0.9976196,0.093933105,0.6875,0.25,0.625
1696003528058,-0.06347656,-1.003479,0.10003662,0.84375,0.21875,1.5
1696003528163,-0.061523438,-1.0003052,0.08514404,0.53125,-0.171875,1.1875
1696003528167,-0.060302734,-1.0010376,0.085876465,0.640625,0.609375,0.890625
1696003528178,-0.06713867,-1.0003052,0.08831787,0.625,-0.671875,0.96875
1696003528237,-0.06518555,-0.9976196,0.0927124,0.140625,-0.140625,0.71875
1696003528268,-0.059814453,-0.9949341,0.09173584,-0.09375,-0.25,0.78125
1696003528297,-0.064453125,-0.9961548,0.09051514,-0.46875,0.140625,0.6875
1696003528358,-0.064453125,-1.0049438,0.093444824,-0.28125,0.078125,1.0625
1696003528387,-0.07080078,-0.9859009,0.0836792,0.15625,0.015625,1.03125
1696003528417,-0.064941406,-0.9981079,0.09246826,0.375,-0.046875,1.171875
1696003528477,-0.07055664,-0.98809814,0.081726074,1.734375,-1.28125,1.609375
1696003528507,-0.057373047,-1.0005493,0.07489014,1.59375,-0.78125,1.4375
1696003528537,-0.06201172,-1.0125122,0.05657959,4.390625,-1.75,3.625
1696003528569,-0.055419922,-1.0054321,0.06463623,7.0,1.375,2.6875
1696003528627,-0.05419922,-0.9973755,0.08099365,7.3125,0.8125,5.40625
1696003528657,-0.044433594,-0.9939575,0.06536865,4.25,-0.03125,4.921875
1696003528687,-0.026611328,-0.98638916,0.066833496,3.65625,0.359375,4.359375
1696003528747,-0.039794922,-0.9981079,0.06463623,2.0,0.328125,2.96875
1696003528777,-0.032226562,-1.0039673,0.06463623,1.421875,-0.078125,2.71875
1696003528807,-0.017822266,-0.9968872,0.057556152,-0.8125,-1.484375,1.5
1696003528867,-0.03857422,-0.9981079,0.043640137,0.6875,0.390625,1.515625
1696003528898,-0.033447266,-0.9963989,0.059509277,1.03125,-1.390625,1.484375
1696003528958,-0.022216797,-1.005188,0.047302246,0.765625,-1.34375,1.1875
1696003528987,-0.04248047,-0.99591064,0.046325684,1.03125,-1.5,0.953125
1696003529017,-0.03125,-1.0083618,0.04559326,0.796875,-0.828125,0.796875
1696003529049,-0.02758789,-1.0081177,0.051940918,0.203125,0.09375,1.125
1696003529077,-0.016601562,-0.99713135,0.05731201,-0.578125,0.890625,1.03125
1696003529152,-0.02758789,-0.9944458,0.043395996,-0.921875,0.8125,0.078125
1696003529167,-0.038085938,-0.9990845,0.05218506,-0.921875,-0.03125,-0.28125
1696003529198,-0.01928711,-1.006897,0.03338623,-1.734375,1.53125,0.5625
1696003529257,-0.044921875,-1.0025024,0.07684326,-0.71875,-0.125,1.078125
1696003529288,-0.017333984,-0.99176025,0.042175293,-1.25,1.828125,0.15625
1696003529317,-0.041259766,-0.99835205,0.0692749,-0.25,0.578125,0.375
1696003529378,-0.032226562,-0.9937134,0.050476074,-0.0625,-0.046875,0.296875
1696003529410,-0.025634766,-0.9932251,0.054138184,0.0625,-0.15625,-0.5
1696003529437,-0.038330078,-1.00177,0.04925537,0.203125,-1.28125,0.265625
1696003529497,-0.029296875,-0.9981079,0.05657959,1.078125,-2.015625,0.34375
1696003529527,-0.036865234,-1.003479,0.057800293,1.3125,-2.984375,0.78125
1696003529560,-0.033203125,-0.99884033,0.04901123,1.125,-1.875,0.703125
1696003529618,-0.036621094,-1.0037231,0.06121826,0.6875,-1.9375,0.34375
1696003529648,-0.036865234,-0.99884033,0.05218506,-0.25,-1.71875,0.328125
1696003529677,-0.03100586,-0.99420166,0.048034668,-0.15625,-0.203125,0.484375
1696003529708,-0.04345703,-1.0022583,0.04949951,0.265625,-0.359375,0.46875
1696003529798,-0.033691406,-0.9973755,0.05291748,0.625,-0.203125,0.21875
1696003529802,-0.045898438,-0.9985962,0.05731201,0.46875,0.5,0.5625
1696003529827,-0.040527344,-1.0027466,0.05267334,0.109375,0.8125,0.421875
1696003529888,-0.0390625,-0.99591064,0.062927246,0.484375,0.890625,0.578125
1696003529917,-0.029785156,-1.0120239,0.04559326,-0.0625,2.8125,0.109375
1696003529950,-0.05029297,-1.0029907,0.06903076,0.09375,1.046875,0.28125
1696003530007,-0.027832031,-1.000061,0.034118652,-0.796875,2.71875,-0.09375
1696003530037,-0.044921875,-1.0117798,0.054138184,-0.140625,2.28125,-0.671875
1696003530067,-0.043701172,-0.9993286,0.07122803,0.203125,1.015625,-0.265625
1696003530129,-0.04711914,-0.99835205,0.07757568,-0.640625,1.765625,-0.4375
1696003530157,-0.049072266,-1.0003052,0.074157715,-1.78125,0.921875,0.015625
1696003530187,-0.057617188,-0.9890747,0.08099365,-3.015625,-0.578125,-1.203125
1696003530246,-0.06591797,-1.0159302,0.09564209,-5.25,-2.875,-3.453125
1696003530278,-0.07519531,-0.99713135,0.074157715,-5.875,-1.84375,-5.640625
1696003530307,-0.047851562,-0.98760986,0.09100342,-6.296875,-1.40625,-1.484375
1696003530337,-0.08666992,-0.9973755,0.08416748,-2.984375,-2.109375,-2.1875
1696003530397,-0.06347656,-0.9871216,0.090270996,-3.484375,-2.28125,-2.390625
1696003530428,-0.064453125,-0.9846802,0.0914917,-2.71875,-2.09375,-1.265625
1696003530457,-0.08691406,-0.9951782,0.097839355,-1.59375,-1.3125,0.015625
1696003530519,-0.07495117,-0.9961548,0.09613037,-0.828125,-1.234375,-0.09375
1696003530547,-0.07861328,-0.975647,0.09979248,1.5625,-2.5,-0.078125
1696003530579,-0.06665039,-1.00177,0.08343506,1.0625,-0.515625,1.125
1696003530638,-0.08984375,-0.9981079,0.1227417,2.828125,-0.875,1.125
1696003530669,-0.0793457,-1.0100708,0.08099365,0.203125,1.3125,0.640625
1696003530713,-0.09375,-1.003479,0.11907959,0.71875,1.03125,0.421875
1696003530787,-0.07788086,-0.99835205,0.113708496,1.03125,0.0625,0.84375
1696003530791,-0.08325195,-0.99957275,0.09466553,0.40625,0.109375,0.453125
1696003530817,-0.08666992,-0.9915161,0.109069824,0.8125,0.078125,0.84375
1696003530848,-0.088378906,-0.9924927,0.10369873,1.1875,-0.6875,0.34375
1696003530908,-0.087402344,-1.0110474,0.09710693,0.953125,-0.875,1.03125
1696003530937,-0.08178711,-0.9968872,0.09906006,0.234375,0.109375,0.90625
1696003530967,-0.09326172,-0.99664307,0.10076904,0.203125,-0.21875,1.203125
1696003531029,-0.079589844,-0.99713135,0.086120605,0.0,-0.53125,0.984375
1696003531058,-0.07763672,-1.0027466,0.10003662,0.515625,-0.203125,0.375
1696003531087,-0.09472656,-1.00177,0.101745605,0.828125,-0.546875,1.046875
1696003531148,-0.07885742,-0.9961548,0.09490967,0.1875,-0.84375,0.796875
1696003531177,-0.0847168,-0.99224854,0.10028076,0.375,-0.609375,0.734375
1696003531207,-0.087646484,-1.0003052,0.10736084,0.234375,0.078125,1.265625
1696003531268,-0.080078125,-0.9907837,0.10736084,1.1875,-0.265625,1.984375
1696003531298,-0.06958008,-1.005188,0.09466553,0.609375,1.0,0.8125
1696003531330,-0.07763672,-0.9939575,0.113464355,0.328125,-0.34375,1.375
1696003531358,-0.068359375,-0.99224854,0.086120605,-0.046875,1.546875,0.6875
1696003531417,-0.076660156,-0.9968872,0.1149292,0.890625,-0.1875,1.046875
1696003531450,-0.0769043,-1.0061646,0.10418701,0.421875,0.4375,1.4375
1696003531508,-0.07446289,-0.9846802,0.0914917,0.296875,0.828125,1.203125
1696003531582,-0.07836914,-0.99884033,0.10345459,-0.046875,-0.484375,0.875
1696003531588,-0.07104492,-0.9993286,0.10296631,0.71875,0.484375,0.9375
1696003531597,-0.07397461,-1.0071411,0.10247803,-0.046875,-0.234375,0.890625
1696003531657,-0.080322266,-0.99420166,0.10858154,0.796875,0.84375,1.25
1696003531688,-0.078125,-1.0025024,0.10272217,0.59375,-0.140625,1.15625
1696003531717,-0.075683594,-0.9961548,0.105163574,0.0625,0.25,1.078125
1696003531777,-0.07470703,-0.9949341,0.09613037,0.3125,0.328125,1.21875
1696003531807,-0.068359375,-1.0015259,0.0927124,0.328125,-0.15625,0.625
1696003531840,-0.07910156,-1.003479,0.09197998,0.875,-0.140625,1.296875
1696003531898,-0.06738281,-0.98931885,0.09222412,0.90625,-0.625,1.109375
1696003531927,-0.07397461,-1.0022583,0.09173584,0.9375,-0.921875,0.625
1696003531957,-0.079589844,-1.0003052,0.10223389,0.96875,-0.8125,0.984375
1696003531987,-0.091552734,-1.0130005,0.08294678,0.84375,-0.671875,1.65625
1696003532048,-0.08251953,-0.9990845,0.117614746,1.96875,-0.609375,1.53125
1696003532079,-0.076660156,-0.9973755,0.078552246,0.515625,1.015625,1.4375
1696003532107,-0.07543945,-0.99957275,0.09979248,1.65625,1.34375,0.921875
1696003532168,-0.06591797,-1.0003052,0.09588623,2.328125,-0.03125,1.15625
1696003532197,-0.06518555,-0.99664307,0.081726074,1.578125,0.671875,0.859375
1696003532229,-0.063964844,-0.9951782,0.09661865,1.5,-0.046875,1.03125
1696003532287,-0.072753906,-1.0115356,0.08538818,0.3125,-0.015625,0.859375
1696003532317,-0.0637207,-1.00177,0.08050537,0.578125,-0.734375,0.6875
1696003532347,-0.059326172,-0.9927368,0.086120605,0.703125,-0.75,0.890625
1696003532409,-0.072265625,-1.0020142,0.09637451,0.421875,0.21875,1.109375
1696003532437,-0.06933594,-0.99957275,0.08929443,0.546875,-0.203125,1.390625
1696003532467,-0.068359375,-0.9924927,0.085632324,1.0625,0.015625,1.0625
1696003532527,-0.07373047,-1.0073853,0.089538574,0.734375,0.34375,1.328125
1696003532587,-0.068847656,-0.9949341,0.078063965,0.796875,0.53125,0.859375
1696003532590,-0.06518555,-0.9990845,0.08709717,1.03125,-0.28125,1.03125
1696003532618,-0.061523438,-0.99835205,0.0770874,0.96875,-0.515625,1.203125
1696003532677,-0.067871094,-0.99957275,0.074401855,0.703125,-0.15625,0.984375
1696003532709,-0.068359375,-1.00177,0.089782715,0.59375,-0.453125,0.96875
1696003532737,-0.06518555,-0.9924927,0.08758545,0.71875,-0.578125,1.03125
1696003532798,-0.06616211,-0.9985962,0.07757568,0.265625,0.6875,0.515625
1696003532827,-0.057617188,-1.000061,0.09197998,0.015625,-0.359375,1.15625
1696003532857,-0.064453125,-1.0027466,0.06707764,0.25,0.9375,0.328125
1696003532918,-0.064208984,-1.0046997,0.09222412,0.625,-0.21875,1.03125
1696003532948,-0.06958008,-0.99591064,0.078308105,0.578125,0.046875,1.109375
1696003532977,-0.064453125,-0.9873657,0.07611084,0.578125,0.375,1.15625
1696003533007,-0.06762695,-1.0029907,0.07147217,0.40625,-0.25,1.265625
1696003533067,-0.060302734,-0.9985962,0.08001709,0.6875,-0.28125,0.96875
1696003533098,-0.068847656,-1.0059204,0.08074951,0.921875,-0.875,1.21875
1696003533128,-0.06542969,-1.000061,0.078063965,0.21875,-0.140625,0.875
1696003533187,-0.067871094,-0.9963989,0.09197998,0.40625,-0.1875,1.328125
1696003533217,-0.059814453,-1.0010376,0.08319092,0.171875,-0.40625,1.34375
1696003533247,-0.061523438,-1.0020142,0.0914917,0.546875,0.28125,0.96875
1696003533296,-0.056152344,-0.9981079,0.08856201,0.71875,0.5,0.75
1696003533338,-0.06323242,-0.99468994,0.08026123,0.78125,-0.625,1.140625
1696003533367,-0.064453125,-1.0037231,0.070739746,0.453125,-0.78125,1.015625
1696003533428,-0.060302734,-0.99420166,0.07952881,0.765625,-0.671875,0.828125
1696003533458,-0.07104492,-1.0020142,0.06341553,0.359375,0.109375,1.203125
1696003533487,-0.060058594,-0.99298096,0.07879639,0.53125,-0.84375,0.96875
1696003533547,-0.0690918,-0.991272,0.081726074,1.71875,-0.765625,1.640625
1696003533578,-0.05126953,-0.9885864,0.07122803,1.109375,-0.1875,1.1875
1696003533607,-0.05493164,-1.0090942,0.070495605,0.65625,-0.515625,1.140625
1696003533638,-0.061523438,-0.9981079,0.07611084,0.828125,0.796875,0.734375
1696003533727,-0.0625,-1.003479,0.08416748,0.8125,-0.5625,0.921875
1696003533731,-0.052978516,-1.0025024,0.07220459,0.609375,0.1875,1.171875
1696003533760,-0.05908203,-0.9927368,0.07293701,0.78125,0.28125,1.21875
1696003533822,-0.059570312,-1.006897,0.08026123,0.265625,-0.390625,1.03125
1696003533848,-0.055419922,-0.99346924,0.078063965,0.546875,-0.234375,0.890625
1696003533877,-0.05908203,-0.9976196,0.07098389,0.625,-0.546875,0.9375
1696003533967,-0.06225586,-0.9963989,0.07611084,0.0625,0.0625,0.46875
1696003533971,-0.060058594,-0.99664307,0.07489014,0.25,-0.578125,0.59375
1696003533998,-0.05834961,-1.003479,0.07733154,0.046875,-0.625,0.71875
1696003534088,-0.061767578,-0.9993286,0.07147217,0.265625,-0.25,0.859375
1696003534091,-0.05908203,-1.0012817,0.07952881,0.234375,0.015625,0.65625
1696003534117,-0.05444336,-1.0020142,0.08074951,-0.25,0.203125,0.671875
1696003534148,-0.055908203,-1.0005493,0.078308105,-0.609375,1.28125,1.109375
1696003534207,-0.064453125,-1.0073853,0.08709717,-1.34375,1.578125,1.0625
1696003534238,-0.03564453,-1.0049438,0.078308105,-1.515625,2.5,0.875
1696003534267,-0.052490234,-1.0054321,0.11541748,-0.71875,2.640625,2.03125
1696003534327,-0.09350586,-0.9885864,0.045837402,-0.90625,-0.875,2.5
1696003534360,-0.060546875,-0.9902954,0.08343506,1.515625,-1.25,1.484375
1696003534387,-0.05126953,-0.9854126,0.07171631,0.1875,0.96875,1.6875
1696003534447,-0.061767578,-0.9944458,0.07220459,0.0,0.0625,0.984375
1696003534478,-0.05102539,-1.003479,0.07562256,0.515625,-1.171875,0.625
1696003534508,-0.049804688,-1.0039673,0.06903076,0.3125,0.28125,0.53125
1696003534597,-0.051513672,-0.9951782,0.07952881,0.484375,-0.65625,1.328125
1696003534601,-0.060302734,-1.0020142,0.07562256,0.90625,-1.109375,0.8125
1696003534627,-0.045654297,-1.0029907,0.082458496,0.6875,-0.90625,1.0
1696003534688,-0.049560547,-1.0020142,0.09515381,0.375,-1.046875,1.421875
1696003534717,-0.043945312,-0.9998169,0.0836792,0.078125,-0.25,0.921875
1696003534747,-0.052734375,-1.0015259,0.08880615,0.28125,-0.3125,1.03125
1696003534777,-0.0546875,-0.9993286,0.090026855,0.34375,-0.34375,0.921875
1696003534838,-0.05493164,-0.9927368,0.078552246,0.765625,0.140625,1.265625
1696003534870,-0.052246094,-1.0003052,0.07733154,0.640625,0.40625,0.984375
1696003534897,-0.05126953,-0.99468994,0.070495605,0.59375,0.203125,1.15625
1696003534958,-0.044433594,-0.99591064,0.07977295,0.734375,-0.25,1.0
1696003534987,-0.05029297,-1.0056763,0.07537842,0.4375,-0.265625,0.9375
1696003535018,-0.04736328,-0.99420166,0.08734131,0.375,-0.53125,0.671875
1696003535078,-0.053710938,-0.9976196,0.08099365,0.84375,-0.8125,0.90625
1696003535107,-0.038330078,-1.0007935,0.08026123,0.9375,0.90625,0.0
1696003535137,-0.0625,-0.99468994,0.08856201,0.03125,-0.890625,1.578125
1696003535198,-0.046875,-1.0090942,0.07342529,-0.109375,1.0,-0.015625
1696003535229,-0.0637207,-0.99835205,0.09588623,0.78125,0.125,1.125
1696003535258,-0.050048828,-1.0095825,0.074401855,0.078125,-0.171875,0.890625
1696003535287,-0.049072266,-0.989563,0.08001709,0.171875,0.4375,1.21875
1696003535347,-0.051757812,-0.99786377,0.0758667,-0.34375,-0.375,1.078125
1696003535378,-0.041503906,-0.99542236,0.07220459,0.640625,-0.171875,1.328125
1696003535411,-0.051513672,-1.0056763,0.08050537,1.53125,-1.328125,1.78125
1696003535467,-0.04736328,-0.99884033,0.07757568,0.609375,-0.328125,1.015625
1696003535500,-0.043945312,-0.99713135,0.08270264,0.859375,-0.34375,0.84375
1696003535527,-0.052734375,-1.0005493,0.078063965,0.703125,-0.6875,1.203125
1696003535588,-0.040039062,-1.003479,0.07513428,0.453125,-0.25,0.828125
1696003535617,-0.04248047,-0.98760986,0.07489014,0.765625,-0.296875,1.0625
1696003535647,-0.047607422,-0.9976196,0.07684326,0.765625,-0.328125,1.21875
1696003535738,-0.051757812,-1.0037231,0.07244873,0.6875,-0.046875,1.03125
1696003535742,-0.040527344,-0.99591064,0.08392334,0.921875,-0.46875,1.03125
1696003535768,-0.05029297,-1.005188,0.07684326,0.8125,-0.53125,0.90625
1696003535858,-0.047851562,-0.9961548,0.07562256,0.984375,-0.921875,0.71875
1696003535861,-0.048828125,-0.99224854,0.07904053,1.4375,-0.671875,1.28125
1696003535888,-0.033935547,-1.0083618,0.06072998,0.703125,1.0625,0.515625
1696003535917,-0.04272461,-0.99591064,0.086120605,0.125,0.640625,0.90625
1696003535977,-0.029052734,-1.0154419,0.08392334,-3.75,3.25,-0.328125
1696003536007,-0.046875,-0.99542236,0.06512451,-1.234375,4.15625,0.671875
1696003536037,-0.05517578,-1.0159302,0.078308105,-0.5,1.5625,0.4375
1696003536097,-0.04711914,-0.99420166,0.08929443,-1.109375,2.515625,0.3125
1696003536127,-0.064208984,-0.98760986,0.066589355,-1.3125,1.875,1.0625
1696003536157,-0.03881836,-0.9907837,0.06854248,-0.09375,0.28125,0.9375
1696003536217,-0.05078125,-0.9968872,0.07147217,1.484375,-1.515625,1.71875
1696003536247,-0.040283203,-1.0015259,0.08392334,1.265625,-0.875,0.890625
1696003536278,-0.040771484,-1.0025024,0.093688965,1.171875,-1.046875,1.171875
1696003536338,-0.038330078,-0.99835205,0.09588623,-1.40625,0.34375,0.46875
1696003536367,-0.05419922,-0.99957275,0.09295654,-2.390625,-0.03125,0.359375
1696003536397,-0.037841797,-0.9998169,0.09173584,-1.875,-0.125,0.203125
1696003536428,-0.048583984,-0.9998169,0.08441162,-0.640625,-0.890625,-0.203125
1696003536487,-0.04736328,-0.98321533,0.09051514,1.984375,-3.25,1.390625
1696003536517,-0.056640625,-0.9849243,0.07318115,4.625,-5.09375,0.9375
1696003536547,-0.041992188,-0.9961548,0.07977295,6.140625,-5.46875,1.9375
1696003536593,-0.047607422,-1.0012817,0.08465576,4.640625,-4.46875,1.890625
1696003536667,-0.03149414,-0.9998169,0.050720215,2.296875,-2.09375,1.03125
1696003536673,-0.051513672,-1.0037231,0.06756592,1.515625,-3.640625,1.359375
1696003536713,-0.022460938,-0.9924927,0.04510498,-0.4375,0.609375,-0.09375
1696003536758,-0.05029297,-1.0095825,0.0680542,0.625,-0.265625,0.578125
1696003536788,-0.045410156,-1.0022583,0.073913574,0.6875,-0.59375,0.4375
1696003536847,-0.03930664,-0.99591064,0.062683105,0.75,0.59375,0.53125
1696003536877,-0.040283203,-1.0037231,0.070495605,0.796875,0.953125,0.703125
1696003536908,-0.041503906,-0.99835205,0.06072998,0.328125,1.0625,0.28125
1696003536938,-0.047851562,-1.0100708,0.06976318,0.4375,0.359375,0.84375
1696003536998,-0.043701172,-1.0012817,0.074157715,0.21875,1.671875,0.40625
1696003537027,-0.048583984,-0.9920044,0.06488037,-0.140625,1.796875,0.328125
1696003537057,-0.05102539,-1.0005493,0.07269287,0.21875,0.171875,0.421875
1696003537117,-0.052001953,-0.9985962,0.06781006,0.96875,0.359375,1.375
1696003537148,-0.047851562,-1.0093384,0.06390381,0.390625,-0.203125,0.5625
1696003537177,-0.05102539,-1.0073853,0.062194824,0.546875,0.609375,1.265625
1696003537237,-0.041015625,-0.9973755,0.074401855,0.46875,1.25,1.359375
1696003537268,-0.051757812,-0.99346924,0.058776855,0.3125,1.15625,1.265625
1696003537297,-0.043701172,-1.006897,0.06781006,0.890625,-0.3125,0.921875
1696003537358,-0.046875,-1.0078735,0.05682373,-0.65625,1.828125,0.953125
1696003537387,-0.05810547,-1.0025024,0.089782715,-0.8125,0.3125,1.390625
1696003537417,-0.026611328,-1.0142212,0.048034668,-3.1875,2.28125,-0.609375
1696003537477,-0.044921875,-1.0027466,0.074157715,-4.515625,-0.21875,-2.78125
1696003537510,-0.06713867,-1.0010376,0.089782715,-7.46875,-2.25,-7.125
1696003537537,-0.07788086,-0.99468994,0.09320068,-8.203125,1.3125,-8.0
1696003537627,-0.08154297,-0.99053955,0.09832764,-8.1875,1.703125,-7.125
1696003537630,-0.076171875,-0.99713135,0.11907959,-5.3125,1.375,-5.359375
1696003537658,-0.099365234,-1.003479,0.1329956,-2.609375,-0.40625,-1.78125
1696003537687,-0.08520508,-1.0059204,0.117614746,-4.4375,1.234375,-0.8125
1696003537748,-0.08959961,-0.975647,0.13104248,-1.9375,1.625,-0.921875
1696003537777,-0.096191406,-0.9837036,0.12860107,-2.25,-0.625,0.1875
1696003537807,-0.087646484,-0.9729614,0.11590576,-1.140625,-1.203125,-0.15625
1696003537867,-0.11987305,-1.019104,0.14251709,0.03125,-3.296875,0.46875
1696003537927,-0.099609375,-0.9824829,0.1305542,0.1875,-1.703125,0.796875
1696003537931,-0.1015625,-1.00177,0.14178467,-0.28125,-1.03125,0.71875
1696003537987,-0.099609375,-0.98760986,0.1359253,0.109375,-0.4375,0.6875
1696003538018,-0.10668945,-0.9998169,0.12738037,0.203125,-2.296875,1.40625
1696003538047,-0.09741211,-0.99468994,0.15814209,0.484375,-0.921875,0.234375
1696003538077,-0.099853516,-0.98516846,0.1395874,0.90625,-2.609375,1.421875
1696003538137,-0.1105957,-1.0020142,0.121276855,1.359375,-0.296875,0.46875
1696003538167,-0.09765625,-0.989563,0.1515503,2.28125,-0.046875,0.921875
1696003538198,-0.11035156,-0.99957275,0.14129639,1.796875,-0.5,1.765625
1696003538258,-0.10498047,-0.975647,0.12884521,2.171875,-0.296875,2.328125
1696003538287,-0.10498047,-1.0110474,0.11541748,1.375,-0.9375,1.40625
1696003538318,-0.111572266,-1.0093384,0.12420654,1.5,-1.34375,1.75
1696003538378,-0.079833984,-1.0044556,0.12054443,0.59375,-1.125,1.1875
1696003538408,-0.09008789,-0.9807739,0.10223389,1.421875,-0.796875,1.375
1696003538437,-0.10205078,-0.97979736,0.121276855,2.46875,-1.28125,2.59375
1696003538498,-0.100097656,-1.0108032,0.13470459,2.3125,-0.375,2.046875
1696003538528,-0.09790039,-1.005188,0.12908936,0.9375,0.3125,1.5
1696003538557,-0.083740234,-1.0120239,0.13421631,-1.53125,0.84375,1.0625
1696003538648,-0.092041016,-0.99542236,0.11785889,-0.0625,1.296875,0.453125
1696003538652,-0.09326172,-0.9885864,0.120788574,0.296875,-0.265625,1.03125
1696003538678,-0.087402344,-0.98150635,0.11834717,1.734375,-1.21875,1.5
1696003538709,-0.07885742,-1.0076294,0.09954834,1.21875,0.75,0.90625
1696003538767,-0.08544922,-1.0078735,0.120788574,-0.125,-0.9375,1.359375
1696003538797,-0.088134766,-0.9924927,0.0927124,-0.875,0.859375,0.453125
1696003538829,-0.09399414,-1.0003052,0.13763428,0.78125,-0.140625,0.640625
1696003538887,-0.088378906,-0.9949341,0.11077881,0.0,0.203125,0.96875
1696003538918,-0.09375,-0.98809814,0.11419678,1.140625,0.609375,0.921875
1696003538947,-0.0871582,-0.9981079,0.120788574,0.359375,0.015625,1.328125
1696003539007,-0.08691406,-0.98883057,0.12054443,1.125,0.1875,1.5625
1696003539039,-0.076416016,-0.9981079,0.101501465,1.28125,-1.515625,2.640625
1696003539068,-0.084472656,-0.99957275,0.11175537,1.734375,-0.625,1.9375
1696003539127,-0.092041016,-0.9968872,0.12005615,1.96875,-0.890625,2.234375
1696003539188,-0.08935547,-0.99176025,0.10784912,1.96875,-0.859375,2.53125
1696003539192,-0.080566406,-1.0010376,0.109069824,2.265625,-0.09375,2.203125
1696003539217,-0.07421875,-1.0007935,0.10467529,1.515625,0.21875,2.0625
1696003539278,-0.08520508,-1.0022583,0.1005249,1.421875,0.046875,2.046875
1696003539307,-0.06982422,-0.99835205,0.10247803,1.296875,0.515625,1.421875
1696003539337,-0.06958008,-0.98931885,0.09246826,1.25,-0.15625,1.71875
1696003539398,-0.06713867,-1.00177,0.09466553,1.328125,-0.453125,1.75
1696003539428,-0.07324219,-1.0095825,0.09661865,0.71875,-0.171875,1.75
1696003539458,-0.07470703,-0.9951782,0.097595215,2.015625,-0.5625,2.015625
1696003539522,-0.071777344,-1.0046997,0.074401855,0.484375,-0.125,1.328125
1696003539547,-0.07299805,-1.0061646,0.105163574,0.875,0.1875,0.890625
1696003539579,-0.06665039,-1.00177,0.0927124,1.109375,0.078125,1.234375
1696003539637,-0.056884766,-0.9898071,0.08709717,1.921875,0.203125,0.765625
1696003539667,-0.067871094,-1.0005493,0.09295654,1.875,-0.28125,1.125
1696003539697,-0.06567383,-1.0037231,0.08514404,0.984375,-0.359375,1.15625
1696003539759,-0.07324219,-1.0100708,0.08709717,1.140625,-1.171875,1.71875
1696003539788,-0.06567383,-0.9998169,0.08734131,1.15625,-0.65625,1.78125
1696003539818,-0.06958008,-0.99102783,0.07928467,1.515625,-0.125,1.578125
1696003539847,-0.063964844,-0.9939575,0.081970215,1.390625,-0.984375,1.3125
1696003539909,-0.061767578,-0.99786377,0.08270264,1.90625,-1.0,1.65625
1696003539937,-0.052734375,-1.006897,0.08050537,1.515625,-0.59375,1.75
1696003539997,-0.05834961,-0.99664307,0.07147217,1.859375,-0.171875,1.640625
1696003540027,-0.056396484,-0.99542236,0.07562256,1.875,-0.390625,1.609375
1696003540057,-0.055908203,-1.0010376,0.074401855,1.234375,0.21875,1.640625
1696003540087,-0.053710938,-0.9937134,0.06414795,1.4375,0.5,1.578125
1696003540147,-0.05419922,-0.9973755,0.070739746,1.203125,-0.421875,1.265625
1696003540238,-0.04711914,-1.013977,0.059509277,0.046875,1.21875,0.4375
1696003540241,-0.048583984,-0.9932251,0.07904053,0.53125,0.0625,0.5
1696003540284,-0.052734375,-0.9993286,0.062194824,-0.578125,1.328125,0.171875
1696003540287,-0.059326172,-0.99957275,0.07659912,0.546875,1.15625,0.578125
1696003540328,-0.06665039,-1.010315,0.0770874,0.6875,-0.15625,1.375
1696003540357,-0.06274414,-1.0020142,0.06878662,0.21875,0.84375,1.09375
1696003540417,-0.060791016,-0.9981079,0.06951904,-0.21875,0.90625,1.0
1696003540478,-0.05908203,-0.99053955,0.06439209,-0.046875,-0.15625,0.78125
1696003540483,-0.060302734,-1.003479,0.06976318,0.609375,-0.6875,0.890625
1696003540539,-0.048095703,-0.9990845,0.066589355,0.53125,-0.09375,0.6875
1696003540567,-0.048339844,-1.0022583,0.07562256,0.609375,-0.578125,0.78125
1696003540597,-0.057373047,-0.99884033,0.074157715,0.484375,-0.5,0.96875
1696003540658,-0.0625,-0.99713135,0.066101074,1.125,0.078125,1.59375
1696003540687,-0.068359375,-1.0032349,0.078552246,0.46875,-0.015625,1.328125
1696003540717,-0.059326172,-0.9998169,0.062438965,0.6875,0.28125,1.234375
1696003540778,-0.05444336,-1.0010376,0.06414795,0.828125,0.109375,1.375
1696003540809,-0.05419922,-0.9944458,0.066101074,0.9375,-0.15625,1.125
1696003540837,-0.052246094,-0.99346924,0.051696777,0.078125,0.234375,1.28125
1696003540898,-0.048828125,-0.9932251,0.061950684,0.3125,-0.609375,0.609375
1696003540927,-0.059814453,-1.0090942,0.066101074,-0.140625,-0.390625,0.40625
1696003540973,-0.045654297,-0.9963989,0.08319092,1.03125,-0.71875,1.015625
1696003540989,-0.048095703,-1.0117798,0.058044434,-0.40625,0.296875,1.15625
1696003541048,-0.056152344,-0.9920044,0.06048584,-0.453125,0.6875,0.140625
1696003541077,-0.05419922,-1.0046997,0.07879639,0.046875,0.21875,0.984375
1696003541107,-0.05859375,-1.0012817,0.07122803,-0.046875,1.078125,0.921875
1696003541167,-0.056640625,-1.0012817,0.074401855,-0.703125,0.921875,0.59375
1696003541197,-0.049316406,-0.9968872,0.06072998,-0.734375,0.5,-0.203125
1696003541257,-0.06518555,-1.0025024,0.078308105,-0.9375,-0.125,-0.484375
1696003541287,-0.040039062,-0.9990845,0.0680542,-1.25,0.234375,0.375
1696003541318,-0.055664062,-1.0025024,0.07635498,-0.921875,0.21875,0.96875
1696003541349,-0.047607422,-1.0003052,0.078552246,-0.921875,0.703125,0.90625
1696003541437,-0.05859375,-0.99786377,0.07147217,-0.640625,1.09375,1.328125
1696003541442,-0.06518555,-0.99298096,0.081970215,0.125,-0.578125,1.65625
1696003541467,-0.057861328,-0.9968872,0.081726074,-0.25,-0.015625,1.046875
1696003541497,-0.06298828,-0.9956665,0.07293701,-0.03125,0.03125,1.078125
1696003541559,-0.052490234,-1.0007935,0.07879639,-0.09375,-0.796875,0.46875
1696003541587,-0.048095703,-1.0005493,0.0758667,-0.453125,-0.4375,0.40625
1696003541617,-0.051757812,-0.9932251,0.093444824,-0.90625,-0.46875,0.15625
1696003541677,-0.055419922,-0.99786377,0.09197998,0.046875,-0.34375,1.375
1696003541708,-0.03881836,-1.0012817,0.0770874,-0.28125,0.828125,0.53125
1696003541767,-0.05908203,-1.000061,0.09173584,-0.578125,-0.515625,1.03125
1696003541812,-0.0546875,-0.99713135,0.081970215,-0.796875,0.65625,0.375
1696003541816,-0.053222656,-0.9963989,0.09686279,-0.53125,-0.03125,0.65625
1696003541859,-0.057861328,-1.005188,0.09588623,-0.453125,-0.234375,0.5
1696003541933,-0.05444336,-0.99053955,0.09124756,-0.46875,0.515625,0.828125
1696003541937,-0.05444336,-1.0027466,0.090270996,-0.546875,-0.46875,0.546875
1696003541980,-0.052246094,-1.0010376,0.10443115,0.0,-0.265625,0.59375
1696003542007,-0.046142578,-0.9937134,0.09564209,-0.703125,-0.703125,0.53125
1696003542067,-0.057373047,-1.0095825,0.09295654,-0.890625,-0.515625,0.65625
1696003542097,-0.05834961,-0.9883423,0.109802246,-0.34375,-1.28125,0.78125
1696003542127,-0.05444336,-0.9985962,0.09320068,-0.046875,-1.65625,0.71875
1696003542187,-0.05053711,-0.99835205,0.09466553,0.078125,-1.515625,0.578125
1696003542219,-0.053466797,-0.9968872,0.09246826,0.46875,-0.8125,1.0625
1696003542278,-0.056152344,-1.0029907,0.097351074,0.203125,-1.0625,0.90625
1696003542307,-0.05834961,-0.99542236,0.093688965,0.71875,-0.34375,0.890625
1696003542337,-0.05078125,-1.0003052,0.094177246,0.875,-0.359375,0.828125
1696003542368,-0.05859375,-0.9883423,0.10345459,0.8125,-0.6875,0.90625
1696003542427,-0.04638672,-0.9998169,0.08343506,0.265625,1.03125,0.28125
1696003542458,-0.05908203,-1.00177,0.10028076,0.046875,-0.265625,0.578125
1696003542487,-0.049072266,-1.0007935,0.089782715,-0.515625,0.359375,0.4375
1696003542547,-0.06274414,-1.0025024,0.117126465,0.328125,-0.078125,0.4375
1696003542577,-0.052978516,-0.991272,0.09710693,0.53125,0.03125,0.671875
1696003542607,-0.06567383,-0.9944458,0.085876465,0.90625,0.375,0.875
1696003542637,-0.05493164,-0.9944458,0.09881592,1.046875,-0.28125,0.984375
1696003542682,-0.056152344,-1.0042114,0.10809326,0.96875,-0.15625,0.953125
1696003542727,-0.052734375,-1.0037231,0.086364746,1.171875,-0.265625,1.359375
1696003542758,-0.057373047,-1.003479,0.09173584,0.578125,0.09375,0.9375
1696003542848,-0.05883789,-0.9890747,0.090270996,0.765625,-0.015625,1.25
1696003542852,-0.059326172,-1.0054321,0.0914917,0.515625,-0.375,1.171875
1696003542877,-0.052978516,-0.9973755,0.09051514,0.671875,-0.609375,1.109375
1696003542937,-0.05102539,-1.0100708,0.09490967,0.59375,-0.484375,0.859375
1696003542967,-0.0625,-0.9927368,0.086364746,0.78125,-0.765625,1.140625
1696003543028,-0.052978516,-0.9939575,0.09564209,1.34375,-0.390625,1.109375
1696003543057,-0.05029297,-0.9951782,0.09222412,1.375,-0.203125,1.109375
1696003543089,-0.052734375,-1.0005493,0.07928467,0.9375,-0.53125,1.046875
1696003543117,-0.05102539,-1.0039673,0.07733154,1.78125,-0.984375,1.0
1696003543147,-0.056396484,-0.99053955,0.10369873,2.203125,-0.8125,1.15625
1696003543208,-0.049804688,-1.0025024,0.08270264,0.953125,-0.625,1.03125
1696003543237,-0.049560547,-0.9939575,0.07904053,1.03125,0.234375,0.265625
1696003543268,-0.05859375,-1.00177,0.09588623,1.296875,-1.1875,0.984375
1696003543328,-0.052246094,-1.0027466,0.07366943,1.671875,-0.625,0.84375
1696003543357,-0.055664062,-0.9993286,0.09051514,1.265625,-0.328125,1.15625
1696003543389,-0.057373047,-1.0003052,0.08026123,0.71875,-0.25,1.015625
1696003543450,-0.053710938,-0.99884033,0.0848999,1.25,0.6875,1.40625
1696003543477,-0.050048828,-0.9956665,0.0770874,0.875,0.421875,1.234375
1696003543507,-0.04736328,-1.0059204,0.07537842,0.703125,0.53125,0.71875
1696003543585,-0.047607422,-0.99298096,0.0758667,1.0625,-0.203125,1.234375
1696003543588,-0.052490234,-1.0005493,0.070739746,1.0,-0.734375,1.109375
1696003543629,-0.05053711,-0.99053955,0.08148193,1.109375,-0.734375,0.984375
1696003543657,-0.051757812,-1.00177,0.07684326,1.09375,-0.390625,1.203125
1696003543718,-0.052246094,-0.99835205,0.07269287,0.75,-0.5,1.5
1696003543747,-0.045166016,-0.99713135,0.081726074,0.71875,-0.5,1.578125
1696003543778,-0.051757812,-1.0066528,0.07269287,0.421875,0.1875,1.203125
1696003543838,-0.044677734,-0.9866333,0.08319092,0.78125,0.109375,1.03125
1696003543867,-0.05517578,-0.9939575,0.070007324,1.125,0.0625,1.703125
1696003543897,-0.025390625,-1.0078735,0.055603027,0.40625,0.921875,0.484375
1696003543957,-0.049316406,-0.99346924,0.078308105,1.109375,-0.578125,1.40625
1696003543988,-0.03515625,-1.0020142,0.053894043,0.375,0.1875,0.53125
1696003544017,-0.043945312,-0.9985962,0.06951904,1.15625,-0.765625,1.140625
1696003544078,-0.05126953,-1.0042114,0.06536865,1.234375,-0.96875,1.3125
1696003544108,-0.052246094,-1.0020142,0.06732178,1.296875,-0.109375,0.90625
1696003544138,-0.05126953,-0.99053955,0.070739746,0.421875,-0.1875,0.90625
1696003544197,-0.05126953,-0.99713135,0.061950684,0.484375,-0.453125,0.796875
1696003544227,-0.05126953,-1.0066528,0.05609131,1.0625,-1.0625,1.296875
1696003544259,-0.023925781,-0.9973755,0.06365967,0.609375,0.171875,0.59375
1696003544321,-0.056152344,-0.9956665,0.081726074,1.015625,-0.96875,1.484375
1696003544347,-0.04272461,-1.0064087,0.06365967,0.328125,-0.734375,1.53125
1696003544377,-0.041992188,-0.9976196,0.057556152,0.640625,-0.578125,1.03125
1696003544407,-0.03540039,-1.005188,0.06097412,-0.171875,-0.40625,0.9375
1696003544500,-0.039794922,-0.9915161,0.06512451,0.515625,-0.28125,1.0
1696003544504,-0.045898438,-1.0076294,0.0602417,0.359375,-0.390625,1.21875
1696003544528,-0.030273438,-0.99468994,0.061950684,0.515625,-0.21875,1.234375
1696003544572,-0.048583984,-1.0093384,0.07269287,0.1875,0.375,1.21875
1696003544617,-0.038330078,-0.9849243,0.06585693,-0.234375,0.515625,0.4375
1696003544648,-0.049560547,-0.98931885,0.062194824,0.78125,0.15625,1.265625
1696003544707,-0.030273438,-1.0125122,0.06048584,-0.015625,0.90625,0.984375
1696003544739,-0.04321289,-0.9990845,0.08074951,0.53125,-0.796875,1.640625
1696003544767,-0.029541016,-0.99884033,0.04534912,0.765625,-0.15625,1.328125
1696003544797,-0.042236328,-1.0061646,0.06341553,1.40625,-0.015625,1.359375
1696003544858,-0.03564453,-1.0003052,0.066101074,1.375,-0.75,1.40625
1696003544888,-0.041015625,-0.99542236,0.054626465,0.71875,-0.09375,0.859375
1696003544917,-0.032470703,-1.0037231,0.054626465,0.4375,-0.375,0.75
1696003544978,-0.03125,-1.0012817,0.05316162,0.609375,-0.59375,0.390625
1696003545009,-0.038330078,-1.0027466,0.059020996,1.0625,-0.59375,1.015625
1696003545038,-0.033447266,-1.0025024,0.04486084,0.328125,-0.71875,0.640625
1696003545097,-0.032958984,-0.9956665,0.06121826,0.171875,0.0,0.40625
1696003545127,-0.035888672,-1.0095825,0.059265137,-0.21875,0.453125,0.578125
1696003545157,-0.029052734,-1.0039673,0.05657959,-0.640625,1.515625,-0.171875
1696003545218,-0.046875,-1.0203247,0.06488037,-1.375,1.96875,-1.703125
1696003545247,-0.0390625,-1.0105591,0.08709717,-2.4375,2.78125,-3.953125
1696003545277,-0.06665039,-0.9961548,0.082458496,-3.515625,1.734375,-4.453125
1696003545338,-0.038330078,-0.9961548,0.07757568,-4.625,1.421875,-2.609375
1696003545368,-0.0715332,-1.0071411,0.09515381,-3.8125,-0.1875,-1.1875
1696003545427,-0.06738281,-1.0154419,0.105163574,-6.171875,0.75,-0.9375
1696003545431,-0.06542969,-0.9951782,0.12298584,-7.28125,0.984375,-0.34375
1696003545488,-0.08569336,-0.9702759,0.06365967,-4.59375,-1.96875,-0.6875
1696003545517,-0.076660156,-0.9976196,0.12445068,-3.46875,-0.546875,-0.921875
1696003545547,-0.08154297,-1.0049438,0.1293335,-2.390625,-0.75,-0.890625
1696003545607,-0.06518555,-1.0027466,0.12225342,-3.953125,0.078125,-0.734375
1696003545637,-0.07299805,-0.9841919,0.12005615,-2.765625,-0.75,-1.03125
1696003545667,-0.080566406,-0.9915161,0.13323975,-3.3125,-1.578125,-1.328125
1696003545728,-0.08862305,-1.0037231,0.12542725,-2.625,-1.59375,-1.6875
1696003545758,-0.075927734,-0.99053955,0.12762451,-3.359375,-1.09375,-0.28125
1696003545802,-0.09033203,-0.9951782,0.1449585,-0.578125,-1.375,-0.1875
1696003545847,-0.08642578,-0.9812622,0.13201904,-0.078125,-2.515625,0.46875
1696003545907,-0.084472656,-0.989563,0.12689209,0.546875,-2.171875,0.75
1696003545912,-0.08862305,-0.98931885,0.13372803,1.53125,-1.203125,0.9375
1696003545938,-0.084228516,-1.0122681,0.14886475,0.453125,-0.578125,0.59375
1696003545998,-0.0847168,-0.9885864,0.13104248,1.0625,-0.15625,1.015625
1696003546027,-0.076660156,-0.9976196,0.13641357,1.625,-0.8125,0.9375
1696003546058,-0.0859375,-0.99468994,0.12542725,1.0625,0.25,1.1875
1696003546117,-0.0925293,-0.9898071,0.1437378,2.296875,-1.296875,1.34375
1696003546147,-0.08154297,-1.0049438,0.11224365,0.234375,-0.421875,1.234375
1696003546177,-0.08691406,-1.0020142,0.14715576,1.375,0.546875,0.859375
1696003546237,-0.09277344,-1.0049438,0.14520264,1.40625,-0.0625,1.375
1696003546267,-0.08178711,-0.986145,0.12322998,0.734375,0.734375,1.0
1696003546297,-0.08984375,-1.0039673,0.12982178,0.8125,0.3125,0.921875
1696003546358,-0.09033203,-0.98687744,0.13031006,1.25,-0.1875,1.34375
1696003546387,-0.083740234,-1.0005493,0.11956787,1.421875,-0.515625,1.34375
1696003546417,-0.08105469,-0.99884033,0.12567139,1.421875,-0.265625,1.5
1696003546477,-0.08154297,-0.99346924,0.12030029,1.65625,0.453125,1.6875
1696003546508,-0.0769043,-0.9961548,0.11541748,0.859375,-0.484375,1.4375
1696003546538,-0.07910156,-0.9961548,0.12664795,1.453125,-0.234375,1.171875
1696003546568,-0.08105469,-1.0003052,0.1161499,0.984375,-0.453125,1.375
1696003546627,-0.07763672,-1.0020142,0.12762451,0.796875,-0.59375,0.84375
1696003546657,-0.079833984,-0.9951782,0.12371826,0.546875,-0.609375,0.921875
1696003546687,-0.07836914,-0.99713135,0.113708496,0.875,-0.859375,1.734375
1696003546733,-0.07080078,-1.0015259,0.11175537,-0.328125,0.75,1.65625
1696003546777,-0.079833984,-0.9927368,0.12005615,1.5,-0.046875,1.625
1696003546807,-0.076660156,-1.0044556,0.09515381,-0.375,0.46875,0.953125
1696003546868,-0.07714844,-0.9985962,0.12200928,1.046875,0.796875,0.59375
1696003546897,-0.06933594,-0.9993286,0.11395264,0.84375,-0.75,1.4375
1696003546928,-0.07446289,-0.9981079,0.10736084,1.15625,-0.09375,1.0625
1696003546987,-0.072021484,-0.9937134,0.11566162,1.265625,-0.0625,1.125
1696003547018,-0.0793457,-0.99786377,0.11785889,0.734375,-0.390625,1.078125
1696003547063,-0.080078125,-0.99884033,0.10760498,1.21875,-0.71875,1.21875
1696003547077,-0.0690918,-0.9998169,0.12225342,1.25,0.21875,1.0625
1696003547198,-0.079589844,-0.99664307,0.1071167,0.78125,0.1875,1.140625
1696003547202,-0.06982422,-1.0042114,0.10345459,0.71875,-0.609375,1.125
1696003547206,-0.078125,-0.9963989,0.11077881,1.3125,-0.125,1.375
1696003547257,-0.076660156,-1.0025024,0.1071167,0.828125,-0.421875,1.21875
1696003547289,-0.071777344,-0.9976196,0.10784912,0.90625,-0.734375,0.984375
1696003547317,-0.072753906,-1.0003052,0.10491943,0.84375,0.125,1.03125
1696003547377,-0.06567383,-0.9932251,0.09661865,1.328125,-0.53125,0.921875
1696003547407,-0.072753906,-0.9932251,0.11004639,1.6875,-1.421875,1.0
1696003547437,-0.060302734,-1.0081177,0.09197998,0.78125,0.21875,0.859375
1696003547497,-0.06933594,-1.0039673,0.10394287,0.515625,-0.625,0.890625
1696003547527,-0.06347656,-1.000061,0.09100342,-0.8125,0.671875,0.828125
1696003547557,-0.072265625,-0.9902954,0.09857178,0.5625,0.09375,1.03125
1696003547589,-0.06201172,-1.0046997,0.101501465,0.40625,-0.53125,1.078125
1696003547650,-0.059814453,-0.98760986,0.093688965,0.6875,0.984375,0.75
1696003547677,-0.07421875,-0.99591064,0.10101318,1.375,-0.671875,0.90625
1696003547707,-0.07324219,-1.0003052,0.098083496,1.453125,-0.703125,0.953125
1696003547767,-0.07006836,-1.0059204,0.098083496,1.53125,-0.609375,1.453125
1696003547798,-0.06958008,-1.0059204,0.09295654,0.875,0.28125,0.796875
1696003547829,-0.06665039,-1.0003052,0.09051514,0.921875,-0.078125,1.203125
1696003547917,-0.07348633,-1.0010376,0.090270996,1.28125,-0.375,1.65625
1696003547921,-0.06689453,-1.0007935,0.08880615,0.640625,-0.359375,1.15625
1696003547962,-0.06713867,-0.9981079,0.08880615,0.53125,-0.140625,1.09375
1696003548008,-0.06542969,-0.9961548,0.08856201,0.71875,-0.28125,0.984375
1696003548038,-0.061767578,-0.99542236,0.09222412,1.28125,-0.296875,1.015625
1696003548068,-0.060791016,-0.99713135,0.085632324,1.265625,-0.53125,0.703125
1696003548157,-0.068359375,-0.9981079,0.09442139,1.53125,-0.546875,0.984375
1696003548160,-0.061523438,-1.015686,0.08685303,0.53125,-0.328125,0.96875
1696003548188,-0.06738281,-0.99346924,0.10223389,2.453125,-0.609375,1.015625
1696003548264,-0.07885742,-0.9985962,0.07757568,0.71875,0.25,1.625
1696003548267,-0.05908203,-0.99786377,0.074645996,1.234375,1.09375,1.15625
1696003548309,-0.06713867,-1.0059204,0.090270996,1.625,-0.46875,1.78125
1696003548339,-0.06958008,-0.99468994,0.078308105,1.296875,0.03125,1.578125
1696003548398,-0.056640625,-0.9976196,0.074401855,0.671875,0.375,0.875
1696003548428,-0.05810547,-0.9985962,0.07220459,0.953125,-0.4375,1.1875
1696003548458,-0.063964844,-0.99957275,0.07928467,1.34375,-0.703125,1.546875
1696003548518,-0.052246094,-1.0059204,0.08001709,1.0,-0.546875,1.375
1696003548547,-0.06665039,-1.0015259,0.082214355,1.046875,0.015625,1.328125
1696003548577,-0.055908203,-1.005188,0.089538574,0.625,-0.203125,1.78125
1696003548638,-0.05859375,-0.99005127,0.0758667,0.8125,-0.015625,1.703125
1696003548667,-0.07543945,-1.0027466,0.08270264,1.0,0.03125,1.5
1696003548697,-0.053710938,-1.0020142,0.07562256,0.21875,-0.015625,1.453125
1696003548727,-0.055419922,-0.99835205,0.074645996,1.21875,0.125,1.53125
1696003548787,-0.05859375,-0.9951782,0.07171631,0.375,-0.4375,1.28125
1696003548817,-0.045410156,-1.0049438,0.0602417,0.453125,0.1875,0.984375
1696003548848,-0.05883789,-0.9985962,0.07513428,0.65625,-0.484375,1.234375
1696003548907,-0.046875,-1.003479,0.07171631,0.640625,-1.140625,1.28125
1696003548938,-0.045410156,-0.9829712,0.082214355,1.15625,-0.640625,0.671875
1696003548967,-0.04638672,-1.00177,0.07147217,0.0,-0.734375,1.71875
1696003549027,-0.047607422,-0.9949341,0.07269287,0.203125,0.40625,0.5625
1696003549059,-0.048339844,-1.0110474,0.08734131,1.015625,-0.5625,1.234375
1696003549087,-0.05126953,-0.99468994,0.06976318,0.703125,0.015625,1.203125
1696003549148,-0.05078125,-0.99957275,0.074401855,0.71875,0.46875,1.375
1696003549178,-0.046875,-0.99664307,0.06414795,0.4375,0.078125,1.359375
1696003549238,-0.045410156,-1.00177,0.05999756,0.828125,0.046875,0.953125
1696003549297,-0.04248047,-0.99835205,0.07366943,0.59375,-0.421875,1.109375
1696003549303,-0.04272461,-0.9924927,0.06585693,0.5625,0.015625,1.109375
1696003549328,-0.053222656,-0.9927368,0.07171631,0.75,-0.609375,0.890625
1696003549357,-0.04638672,-1.0059204,0.06951904,0.78125,-0.359375,1.15625
1696003549447,-0.041015625,-0.99664307,0.06854248,0.390625,-0.328125,0.859375
1696003549451,-0.04296875,-0.9963989,0.07269287,0.359375,-0.25,0.859375
1696003549477,-0.044433594,-0.9985962,0.07220459,0.578125,0.0,1.0625
1696003549538,-0.046142578,-1.0029907,0.07196045,0.703125,-0.03125,0.90625
1696003549567,-0.037597656,-0.99786377,0.0692749,0.75,0.421875,0.984375
1696003549597,-0.045898438,-0.9932251,0.062927246,0.265625,-0.5,0.921875
1696003549659,-0.041992188,-0.99713135,0.07269287,1.0625,-0.46875,0.984375
1696003549687,-0.036376953,-1.0042114,0.061462402,0.359375,0.484375,0.71875
1696003549718,-0.04248047,-0.9993286,0.070007324,0.375,-0.703125,1.0625
1696003549777,-0.04272461,-0.9920044,0.057556152,-0.03125,0.4375,0.234375
1696003549807,-0.045166016,-1.0022583,0.06585693,0.328125,-0.265625,0.921875
1696003549837,-0.045654297,-1.0076294,0.078308105,0.578125,-0.484375,0.890625
1696003549867,-0.040527344,-0.989563,0.0680542,0.390625,0.21875,0.953125
1696003549942,-0.041748047,-0.9968872,0.06463623,0.328125,-0.203125,1.015625
1696003549958,-0.044189453,-0.9885864,0.058532715,0.8125,0.03125,0.828125
1696003549987,-0.03564453,-1.003479,0.059753418,0.828125,-0.125,0.921875
1696003550047,-0.045898438,-1.0005493,0.058776855,0.4375,0.09375,0.921875
1696003550078,-0.039794922,-0.9985962,0.06976318,0.40625,-0.40625,0.953125
1696003550107,-0.044921875,-1.0003052,0.07098389,0.609375,-0.28125,1.03125
1696003550167,-0.042236328,-0.9998169,0.066833496,0.484375,-0.4375,0.96875
1696003550198,-0.052978516,-0.99591064,0.06512451,0.40625,-0.484375,1.078125
1696003550227,-0.04272461,-0.9981079,0.06439209,0.640625,-0.140625,0.84375
1696003550288,-0.04638672,-0.9990845,0.06390381,0.6875,-0.5,1.0
1696003550318,-0.040527344,-1.0007935,0.057800293,0.234375,0.21875,1.015625
1696003550347,-0.041748047,-0.99420166,0.061462402,0.203125,0.015625,0.484375
1696003550407,-0.045654297,-0.99420166,0.066345215,0.734375,0.0,0.9375
1696003550437,-0.03125,-1.0083618,0.059509277,0.25,0.78125,0.46875
1696003550468,-0.036865234,-1.0012817,0.07537842,0.515625,-0.203125,0.53125
1696003550497,-0.032714844,-0.9998169,0.05609131,-0.484375,0.421875,0.6875
1696003550558,-0.040283203,-0.99957275,0.06414795,0.390625,-0.265625,0.390625
1696003550587,-0.04736328,-1.0010376,0.066345215,0.328125,-0.671875,0.78125
1696003550617,-0.04321289,-0.99713135,0.06341553,0.203125,0.203125,0.59375
1696003550709,-0.052001953,-0.9956665,0.066345215,0.078125,-0.21875,0.71875
1696003550713,-0.05078125,-0.9998169,0.06829834,0.296875,-0.578125,0.84375
1696003550738,-0.044677734,-1.0015259,0.06341553,0.328125,-0.375,0.859375
1696003550783,-0.043701172,-1.0025024,0.05999756,0.359375,0.015625,0.515625
1696003550827,-0.048583984,-0.98883057,0.070495605,0.15625,-0.125,0.5
1696003550873,-0.044433594,-1.0049438,0.06365967,0.515625,-0.3125,1.015625
1696003550917,-0.045654297,-0.9985962,0.05633545,0.921875,-0.390625,0.96875
1696003550947,-0.044921875,-1.0061646,0.06341553,1.0,-0.53125,0.609375
1696003550979,-0.045898438,-0.99468994,0.06781006,0.640625,-0.34375,0.953125
1696003551007,-0.047607422,-1.0003052,0.06561279,0.40625,-0.515625,0.921875
1696003551067,-0.04321289,-0.9968872,0.05682373,0.609375,-0.421875,0.828125
1696003551097,-0.041503906,-1.00177,0.059265137,0.328125,-0.1875,0.90625
1696003551128,-0.045898438,-0.99884033,0.06097412,0.15625,-0.34375,0.578125
1696003551187,-0.047607422,-1.0037231,0.05657959,-0.546875,0.171875,0.671875
1696003551217,-0.053466797,-0.9907837,0.07196045,0.515625,-0.296875,1.25
1696003551247,-0.027832031,-1.0005493,0.048034668,-0.609375,0.3125,0.421875
1696003551307,-0.045410156,-1.0125122,0.06781006,-0.46875,1.0,-0.140625
1696003551339,-0.043945312,-1.0022583,0.066833496,-0.140625,0.015625,-0.296875
1696003551367,-0.05029297,-1.0088501,0.06951904,-1.4375,0.828125,-1.65625
1696003551427,-0.060302734,-0.9968872,0.08050537,-2.203125,1.390625,-2.15625
1696003551461,-0.05517578,-0.9834595,0.06561279,-2.59375,-1.0,0.125
1696003551487,-0.07788086,-0.9973755,0.06488037,-0.234375,-1.234375,1.828125
1696003551518,-0.051757812,-1.0037231,0.07513428,1.03125,-1.015625,1.09375
1696003551577,-0.055419922,-0.99053955,0.06414795,1.046875,-0.4375,1.5
1696003551608,-0.053222656,-0.99713135,0.066345215,0.546875,-0.609375,1.078125
1696003551638,-0.052978516,-0.99542236,0.06512451,1.359375,-1.078125,1.484375
1696003551699,-0.045166016,-1.0029907,0.062194824,0.875,-0.890625,1.265625
1696003551727,-0.04321289,-1.0022583,0.0680542,1.171875,-1.0625,1.09375
1696003551758,-0.048583984,-1.0007935,0.06976318,1.15625,-1.28125,1.390625
1696003551833,-0.048583984,-1.0003052,0.06512451,1.359375,-0.90625,1.4375
1696003551837,-0.04663086,-1.0073853,0.066589355,1.0625,-1.109375,1.359375
1696003551878,-0.059814453,-1.0046997,0.06976318,0.65625,-1.203125,1.34375
1696003551937,-0.036376953,-1.0039673,0.055603027,0.234375,0.921875,1.359375
1696003551998,-0.053466797,-0.9924927,0.07635498,1.359375,-1.34375,1.625
1696003552002,-0.040283203,-0.9963989,0.035339355,0.0,0.765625,2.359375
1696003552057,-0.037841797,-0.9898071,0.06390381,1.796875,0.453125,2.046875
1696003552088,-0.053955078,-1.0003052,0.062438965,2.15625,0.078125,2.75
1696003552117,-0.030517578,-0.99176025,0.06878662,1.140625,0.78125,2.453125
1696003552147,-0.03173828,-1.0120239,0.06756592,0.890625,0.4375,1.828125
1696003552208,-0.034423828,-1.000061,0.06365967,0.484375,-0.234375,1.734375
1696003552238,-0.033935547,-1.0134888,0.06732178,0.09375,-0.171875,0.9375
1696003552268,-0.024169922,-1.0044556,0.06536865,-0.796875,0.640625,0.25
1696003552328,-0.0390625,-0.99224854,0.055358887,-1.328125,0.46875,0.609375
1696003552357,-0.017089844,-0.99176025,0.04486084,-0.3125,0.046875,0.46875
1696003552387,-0.056396484,-0.9985962,0.062683105,0.15625,-0.203125,0.25
1696003552447,-0.024902344,-1.0039673,0.05316162,0.0,-0.375,0.234375
1696003552477,-0.027832031,-1.0044556,0.055358887,0.15625,-0.296875,-0.0625
1696003552523,-0.033203125,-0.9854126,0.058288574,0.15625,-0.609375,-0.125
1696003552568,-0.033447266,-1.0007935,0.066101074,0.359375,-0.625,0.09375
1696003552597,-0.04296875,-0.9924927,0.06121826,0.65625,-0.9375,0.21875
1696003552627,-0.050048828,-1.0122681,0.07293701,1.0625,-1.734375,0.5
1696003552659,-0.030761719,-1.0012817,0.07244873,0.828125,-0.578125,-0.40625
1696003552718,-0.045166016,-0.9968872,0.06561279,0.796875,-1.34375,0.9375
