# Sensor type: Respeck
# Activity type: Descending stairs
# Activity subtype: Normal
# Subject id: s1938615
# Notes: 
timestamp,accel_x,accel_y,accel_z,gyro_x,gyro_y,gyro_z
1696085493187,-0.07055664,-0.9871216,0.29412842,0.828125,-2.25,1.78125
1696085493231,-0.075927734,-1.0149536,0.29071045,1.5,-1.328125,2.734375
1696085493274,-0.06958008,-0.95562744,0.2975464,2.296875,-2.921875,2.515625
1696085493305,-0.06738281,-1.0042114,0.27093506,-2.578125,-3.203125,1.28125
1696085493366,-0.068847656,-0.97052,0.31951904,1.5,-2.140625,2.46875
1696085493386,-0.06591797,-0.97662354,0.2838745,0.90625,-1.5625,2.640625
1696085493424,-0.055908203,-0.97442627,0.2855835,-0.390625,-2.9375,2.3125
1696085493469,-0.05419922,-0.9807739,0.29022217,0.734375,-2.171875,2.375
1696085493500,-0.061035156,-0.97784424,0.28900146,1.03125,-2.234375,2.796875
1696085493546,-0.06567383,-0.97662354,0.30047607,1.03125,-1.703125,2.21875
1696085493604,-0.0703125,-0.9741821,0.28875732,0.75,-1.078125,2.265625
1696085493619,-0.079589844,-0.9729614,0.30169678,0.578125,-0.46875,1.828125
1696085493665,-0.08105469,-0.9834595,0.2958374,0.75,0.15625,1.8125
1696085493694,-0.099365234,-0.972229,0.291687,-0.21875,0.984375,1.09375
1696085493740,-0.11328125,-0.98760986,0.2929077,-2.390625,1.84375,-0.84375
1696085493784,-0.10473633,-1.013977,0.27020264,-3.625,3.84375,-0.640625
1696085493814,-0.068359375,-0.9312134,0.2616577,-0.703125,1.0625,-0.34375
1696085493859,-0.088134766,-0.9649048,0.22943115,-3.359375,-0.6875,-1.25
1696085493905,-0.032958984,-0.9368286,0.2765503,0.5625,-3.71875,1.484375
1696085493934,-0.042236328,-0.95806885,0.24725342,-1.53125,-4.09375,2.015625
1696085493979,-0.06665039,-1.0093384,0.31365967,-3.734375,-5.359375,0.609375
1696085494010,-0.05102539,-0.9714966,0.34661865,-3.015625,-4.234375,2.578125
1696085494055,-0.024902344,-1.015686,0.3776245,-3.421875,-7.109375,2.34375
1696085494102,-0.06762695,-1.0449829,0.43426514,-3.953125,-5.796875,-0.0625
1696085494129,-0.09838867,-1.0144653,0.41522217,-5.765625,-3.671875,-1.9375
1696085494174,-0.03100586,-0.960022,0.36834717,-4.796875,-5.09375,1.203125
1696085494204,-0.05444336,-0.8833618,0.4052124,-1.734375,-4.921875,3.03125
1696085494251,-0.060058594,-0.91412354,0.37542725,-4.390625,-5.4375,1.6875
1696085494294,-0.044189453,-0.911438,0.37005615,-4.65625,-4.609375,-0.265625
1696085494324,-0.10180664,-0.927063,0.39569092,-1.65625,-0.484375,-2.125
1696085494369,-0.09008789,-0.8386841,0.34979248,-1.90625,1.8125,-3.625
1696085494415,-0.048095703,-0.8386841,0.35125732,-3.0625,2.109375,-5.453125
1696085494444,-0.08081055,-0.8062134,0.44818115,1.53125,5.859375,-4.4375
1696085494490,-0.07495117,-0.8526001,0.39227295,-3.046875,5.40625,-5.546875
1696085494520,-0.072021484,-0.8792114,0.46209717,-0.28125,4.46875,-4.96875
1696085494565,-0.08325195,-0.835022,0.4545288,-4.859375,0.421875,-2.359375
1696085494656,-0.0546875,-0.90582275,0.3661499,-5.15625,0.265625,-0.96875
1696085494661,-0.0637207,-0.8467407,0.43060303,5.390625,-1.015625,-2.125
1696085494684,-0.10913086,-0.8267212,0.46087646,5.53125,1.578125,-1.390625
1696085494730,-0.008300781,-0.73321533,0.37982178,4.625,3.234375,1.984375
1696085494761,0.031982422,-0.77056885,0.41278076,4.734375,-2.828125,2.453125
1696085494804,-0.09863281,-0.90704346,0.3829956,0.859375,-5.640625,3.203125
1696085494834,-0.111816406,-1.0269165,0.15667725,2.046875,-11.515625,6.453125
1696085494880,-0.023925781,-1.5733032,0.2321167,-3.625,-21.96875,4.140625
1696085494924,-0.27563477,-1.3391724,0.30413818,10.9375,3.03125,2.15625
1696085494955,-0.140625,-0.9907837,0.6322632,2.375,1.296875,6.34375
1696085495000,-0.29174805,-1.1099243,0.3048706,-6.0,-0.0625,0.25
1696085495029,-0.0769043,-1.0291138,0.19720459,3.203125,-2.125,3.765625
1696085495074,-0.16210938,-1.1519165,0.34320068,2.796875,-12.375,1.78125
1696085495121,-0.25024414,-0.99713135,0.29852295,7.9375,-1.8125,6.140625
1696085495149,-0.11352539,-0.897522,0.33050537,-1.671875,2.0625,1.671875
1696085495194,-0.14892578,-0.88848877,0.29266357,-2.5,1.421875,3.34375
1696085495239,-0.17944336,-0.84503174,0.26922607,-0.71875,2.109375,1.734375
1696085495273,-0.15429688,-0.81378174,0.2868042,-0.25,6.046875,0.015625
1696085495315,-0.14379883,-0.7661743,0.3397827,-0.546875,7.9375,1.96875
1696085495344,-0.16772461,-0.7744751,0.29486084,-5.625,1.421875,0.21875
1696085495389,-0.12915039,-0.74005127,0.16937256,-3.03125,4.0,2.0
1696085495435,-0.20361328,-0.7427368,0.28607178,-1.5,9.328125,-3.625
1696085495464,-0.22363281,-0.8555298,0.36029053,-9.703125,10.921875,-10.34375
1696085495509,-0.12963867,-0.8882446,0.23236084,-6.703125,9.296875,-6.71875
1696085495554,-0.0024414062,-1.1550903,0.31463623,-4.3125,17.015625,-14.21875
1696085495584,0.18310547,-1.4927368,0.5392456,-7.5625,-0.515625,-1.9375
1696085495629,-0.19213867,-1.1809692,0.59124756,8.703125,13.28125,6.9375
1696085495704,-0.06616211,-1.4238892,0.40252686,-5.765625,-3.203125,-8.09375
1696085495708,-0.2006836,-1.1990356,0.50042725,13.28125,19.765625,1.484375
1696085495749,-0.13964844,-0.8543091,0.3234253,6.890625,16.421875,0.71875
1696085495778,-0.0017089844,-0.86798096,0.36566162,11.109375,9.0625,3.59375
1696085495824,-0.05834961,-0.9170532,0.35882568,10.515625,13.4375,4.90625
1696085495869,0.02709961,-0.88165283,0.31658936,6.515625,15.59375,3.4375
1696085495930,-0.04321289,-0.87506104,0.3456421,8.0,12.4375,3.421875
1696085495944,0.064941406,-0.9067993,0.38397217,2.21875,9.78125,2.265625
1696085495975,0.028320312,-0.93829346,0.3053589,1.03125,6.546875,3.609375
1696085496020,0.039794922,-0.89141846,0.36224365,2.5,3.65625,1.78125
1696085496064,-0.06738281,-0.89385986,0.35565186,4.203125,5.765625,-0.9375
1696085496094,-0.033203125,-0.8130493,0.32440186,2.671875,8.546875,-2.5
1696085496139,-0.048339844,-0.78619385,0.32611084,2.671875,11.0625,-4.453125
1696085496170,0.015625,-0.78985596,0.32440186,3.78125,6.546875,-2.78125
1696085496214,0.010498047,-0.8237915,0.34051514,1.84375,4.015625,-2.15625
1696085496259,0.07006836,-0.91290283,0.3209839,-2.25,-3.484375,1.265625
1696085496290,0.119628906,-0.9265747,0.35101318,-3.953125,-11.28125,5.3125
1696085496335,-0.0029296875,-0.8953247,0.32855225,-6.671875,-10.703125,4.21875
1696085496379,-0.0075683594,-0.989563,0.3024292,-16.609375,-18.4375,0.53125
1696085496410,-0.052978516,-1.135315,0.28094482,-14.34375,-20.859375,1.71875
1696085496454,-0.3005371,-1.1878052,0.4064331,-0.28125,-11.296875,-4.6875
1696085496484,-0.3203125,-1.2036743,0.3756714,-5.96875,-1.171875,-11.671875
1696085496530,-0.010009766,-1.3342896,0.36712646,-14.03125,-11.5,-3.546875
1696085496574,-0.17480469,-1.1260376,0.45477295,4.90625,-8.15625,3.0625
1696085496604,-0.099853516,-0.9360962,0.44036865,4.46875,-0.875,7.421875
1696085496649,-0.09106445,-1.0061646,0.4208374,-4.84375,-5.21875,5.65625
1696085496696,-0.083984375,-0.8921509,0.27923584,-1.453125,-11.75,9.21875
1696085496724,-0.123046875,-0.83428955,0.27679443,4.953125,-8.484375,8.5
1696085496769,-0.14233398,-0.83721924,0.32904053,0.46875,-11.0625,6.65625
1696085496799,-0.15771484,-0.7905884,0.3468628,-2.59375,-8.953125,5.203125
1696085496844,-0.16967773,-0.7192993,0.28729248,-0.328125,-5.8125,5.8125
1696085496890,-0.09692383,-0.7564087,0.30999756,1.40625,-4.390625,4.421875
1696085496919,-0.15478516,-0.78302,0.3727417,0.6875,-5.484375,4.828125
1696085496965,-0.21777344,-0.8218384,0.3829956,-3.703125,-0.625,3.40625
1696085496994,-0.2722168,-0.90826416,0.49822998,-6.65625,6.828125,-3.8125
1696085497039,-0.19018555,-0.88604736,0.46697998,-15.40625,11.171875,-8.515625
1696085497085,0.09887695,-0.9807739,0.32196045,-18.25,12.640625,-5.484375
1696085497115,0.16992188,-1.2337036,0.50531006,8.203125,3.890625,-3.859375
1696085497159,-0.06225586,-1.2771606,0.6359253,-2.359375,10.5,-1.828125
1696085497205,0.012207031,-1.4033813,0.55389404,-7.78125,6.71875,-5.328125
1696085497234,0.107421875,-1.2346802,0.5609741,7.921875,4.96875,0.328125
1696085497280,-0.06713867,-0.8308716,0.53704834,4.9375,9.921875,2.828125
1696085497309,0.0146484375,-0.8406372,0.418396,6.296875,9.171875,2.40625
1696085497355,-0.041748047,-0.7761841,0.40594482,9.09375,7.90625,0.609375
1696085497401,0.020507812,-0.7866821,0.31732178,4.375,5.40625,-1.859375
1696085497435,0.010009766,-0.7979126,0.37249756,4.328125,3.3125,-3.203125
1696085497474,0.018798828,-0.8049927,0.41278076,4.6875,2.484375,-1.609375
1696085497519,-0.009277344,-0.7793579,0.4664917,3.046875,2.53125,-1.59375
1696085497550,-0.029785156,-0.7739868,0.33050537,0.9375,3.15625,-2.125
1696085497595,0.036132812,-0.8118286,0.3444214,0.921875,-1.90625,0.046875
1696085497624,-0.034179688,-0.8230591,0.49212646,3.34375,-1.234375,-0.71875
1696085497669,0.060302734,-0.92266846,0.4940796,-3.09375,-10.765625,1.75
1696085497714,-0.020751953,-0.85943604,0.50213623,-2.015625,-6.6875,3.78125
1696085497745,0.072753906,-0.90997314,0.260437,-2.984375,-16.734375,4.9375
1696085497790,0.0043945312,-0.9085083,0.30975342,7.40625,-18.65625,6.359375
1696085497820,-0.16113281,-1.0584106,0.28900146,11.28125,-20.828125,1.203125
1696085497864,-0.24902344,-1.3088989,0.35369873,14.875,-13.5,-1.09375
1696085497911,-0.15478516,-1.5144653,0.36883545,8.15625,-18.34375,5.921875
1696085497940,-0.22827148,-1.2752075,0.39715576,14.859375,-6.953125,2.671875
1696085497984,-0.076416016,-1.0828247,0.40057373,8.0,-1.703125,5.375
1696085498029,-0.1887207,-0.97442627,0.3258667,-0.3125,-3.828125,1.453125
1696085498061,-0.09057617,-0.9121704,0.22991943,6.703125,-8.125,7.0
1696085498105,-0.08569336,-0.80010986,0.26507568,6.15625,-9.546875,4.34375
1696085498136,-0.0703125,-0.8699341,0.25091553,-2.734375,-12.671875,6.765625
1696085498180,-0.18237305,-0.7444458,0.34100342,1.125,-6.28125,8.046875
1696085498224,-0.13500977,-0.78375244,0.2506714,-2.546875,-3.140625,4.28125
1696085498254,-0.1237793,-0.8735962,0.25628662,-5.3125,-5.796875,4.234375
1696085498299,-0.17993164,-0.8687134,0.30413818,-0.046875,-5.078125,4.640625
1696085498345,-0.19824219,-0.7781372,0.33831787,1.359375,4.375,5.953125
1696085498374,-0.16796875,-0.80963135,0.32781982,-10.8125,6.390625,-0.734375
1696085498420,-0.10888672,-0.7756958,0.2682495,-9.125,8.375,-1.265625
1696085498496,-0.13598633,-0.87506104,0.25164795,-7.5,7.453125,-5.328125
1696085498499,0.07348633,-1.171936,0.34320068,-1.34375,5.359375,-7.8125
1696085498539,0.23339844,-1.6004028,0.4459839,3.046875,3.796875,-2.46875
1696085498571,-0.11279297,-1.2249146,0.5487671,-3.578125,15.3125,-5.265625
1696085498615,-0.026123047,-1.4595337,0.4772339,-4.703125,3.265625,-12.703125
1696085498659,0.11621094,-1.1477661,0.39422607,1.921875,8.703125,3.03125
1696085498693,-0.07739258,-0.83428955,0.38739014,5.0,5.71875,5.53125
1696085498735,-0.04638672,-0.79278564,0.35491943,7.6875,1.25,0.21875
1696085498764,-0.03149414,-0.91534424,0.338562,6.03125,3.0,-0.21875
1696085498809,0.018066406,-0.8201294,0.30438232,5.546875,7.09375,1.5
1696085498855,-0.024902344,-0.81573486,0.29901123,3.859375,6.953125,-2.890625
1696085498884,0.032226562,-0.87335205,0.37957764,1.78125,6.96875,-3.15625
1696085498929,-0.07543945,-0.770813,0.37176514,-1.734375,8.546875,-2.59375
1696085498960,-0.044921875,-0.79766846,0.36712646,-6.421875,5.90625,-5.9375
1696085499005,-0.06298828,-0.7571411,0.4052124,-5.03125,3.46875,-7.40625
1696085499050,-0.06298828,-0.7527466,0.35003662,-4.328125,4.40625,-3.890625
1696085499079,0.048583984,-0.87872314,0.40203857,-5.921875,-2.59375,-2.75
1696085499126,-0.031982422,-0.819397,0.4093628,-6.21875,-4.21875,0.328125
1696085499170,-0.0075683594,-0.8904419,0.28411865,-8.328125,-9.59375,2.453125
1696085499199,-0.004638672,-0.9841919,0.23895264,-1.171875,-16.921875,8.65625
1696085499245,-0.15527344,-1.1646118,0.3986206,20.609375,-9.15625,7.65625
1696085499275,-0.4802246,-1.5176392,0.2616577,10.640625,-7.546875,-8.28125
1696085499321,0.061279297,-1.5061646,0.4743042,4.171875,-12.703125,-0.6875
1696085499365,-0.19067383,-1.0371704,0.4159546,10.390625,-5.796875,8.0625
1696085499394,-0.22387695,-1.092102,0.40545654,-4.203125,-2.515625,1.71875
1696085499440,-0.115234375,-0.96051025,0.28363037,-9.390625,-5.21875,6.359375
1696085499515,-0.11401367,-0.8948364,0.1593628,-5.328125,-8.390625,7.546875
1696085499520,-0.123046875,-0.9365845,0.27996826,-4.984375,-6.484375,6.359375
1696085499559,-0.16088867,-0.8855591,0.3703003,-4.703125,-8.65625,8.671875
1696085499590,-0.20605469,-0.7620239,0.36517334,-5.4375,-2.65625,7.375
1696085499635,-0.13964844,-0.7608032,0.3397827,-6.09375,-0.890625,3.890625
1696085499680,-0.1352539,-0.7415161,0.34783936,-2.90625,-0.484375,3.59375
1696085499709,-0.17138672,-0.72857666,0.34075928,-3.734375,-0.1875,1.28125
1696085499771,-0.17797852,-0.7268677,0.32635498,-0.875,1.0625,-0.34375
1696085499784,-0.1381836,-0.644104,0.35394287,-1.78125,4.953125,-4.625
1696085499830,-0.14257812,-0.7449341,0.2345581,-8.484375,11.6875,-7.75
1696085499875,0.15209961,-1.2615356,0.41204834,-7.765625,6.890625,-10.828125
1696085499904,0.07055664,-1.7632446,0.70428467,1.46875,-3.15625,0.3125
1696085499950,-0.060058594,-1.1948853,0.67840576,0.71875,16.1875,-2.828125
1696085499995,-0.06323242,-1.4185181,0.5619507,-2.734375,4.8125,-9.6875
1696085500025,-0.001953125,-1.0745239,0.57366943,13.0625,-0.546875,1.21875
1696085500070,-0.034423828,-0.8530884,0.47869873,10.09375,6.015625,5.921875
1696085500099,-0.034179688,-0.80548096,0.35369873,10.15625,3.4375,2.5625
1696085500144,-0.018310547,-0.74664307,0.2970581,9.5625,8.234375,0.65625
1696085500193,-0.010253906,-0.736145,0.22991943,7.859375,6.21875,-0.671875
1696085500222,0.021240234,-0.7913208,0.32855225,5.078125,5.59375,-1.453125
1696085500264,0.009277344,-0.80718994,0.34857178,1.265625,5.0,-1.1875
1696085500340,0.10180664,-0.8569946,0.34588623,-0.46875,-4.59375,1.3125
1696085500344,-0.09082031,-0.7642212,0.37225342,-0.921875,1.859375,1.171875
1696085500386,-0.045410156,-0.7686157,0.4142456,-5.15625,2.03125,-2.9375
1696085500415,-0.026123047,-0.7576294,0.41741943,-5.0,-1.96875,0.859375
1696085500459,-0.010986328,-0.83306885,0.3847046,-8.6875,-0.671875,0.5625
1696085500504,-0.025878906,-0.93048096,0.24066162,-9.28125,-9.46875,4.0
1696085500535,-0.013671875,-1.364563,0.2526245,-3.046875,-26.453125,9.515625
1696085500579,-0.4567871,-1.6531372,0.38763428,16.03125,-5.09375,2.890625
1696085500610,-0.118896484,-1.3757935,0.65838623,-6.765625,-0.6875,-0.34375
1696085500654,-0.15307617,-1.2664185,0.5285034,-8.109375,-6.375,7.5
1696085500700,-0.13061523,-0.9927368,0.25213623,4.609375,-3.359375,5.453125
1696085500730,-0.10229492,-0.88604736,0.32073975,4.875,-7.15625,6.21875
1696085500774,-0.08300781,-0.8171997,0.2267456,1.375,-10.65625,7.90625
1696085500819,-0.119628906,-0.7815552,0.2597046,1.3125,-11.578125,6.921875
1696085500849,-0.1003418,-0.82696533,0.26727295,-3.125,-5.984375,6.140625
1696085500896,-0.103759766,-0.8381958,0.22845459,-2.96875,-8.109375,6.9375
1696085500925,-0.1574707,-0.85943604,0.35516357,0.40625,-5.390625,5.8125
1696085500969,-0.06274414,-0.7876587,0.35882568,0.078125,-5.703125,8.03125
1696085501046,-0.07495117,-0.7542114,0.36590576,-0.953125,-5.265625,9.15625
1696085501050,-0.19506836,-0.6694946,0.32733154,2.140625,-2.59375,7.65625
1696085501091,-0.17382812,-0.83795166,0.40179443,-2.390625,-0.671875,0.328125
1696085501135,-0.1665039,-0.7932739,0.25115967,-3.75,-2.5,-0.578125
1696085501164,0.009033203,-0.9644165,0.2772827,3.125,-4.75,-4.25
1696085501209,0.064208984,-1.2637329,0.44500732,5.765625,-4.09375,-6.109375
1696085501240,0.018066406,-1.5505981,0.5482788,-2.078125,3.75,-5.71875
1696085501285,-0.05444336,-1.2793579,0.4953003,-0.53125,15.515625,-7.859375
1696085501330,0.030273438,-1.2920532,0.42059326,0.171875,8.75,-8.46875
1696085501359,-0.0021972656,-1.0855103,0.44866943,7.46875,9.203125,-0.5
1696085501404,-0.022216797,-0.8897095,0.3180542,6.265625,11.71875,4.25
1696085501450,0.084472656,-0.88165283,0.26263428,12.078125,7.109375,5.5625
1696085501480,0.045166016,-0.8977661,0.27850342,6.78125,5.390625,4.53125
1696085501525,0.014404297,-0.9644165,0.3847046,8.4375,8.546875,2.9375
1696085501554,-0.025146484,-0.9783325,0.34222412,3.5625,5.828125,0.90625
1696085501599,0.0637207,-0.93585205,0.3925171,5.859375,6.359375,3.34375
1696085501645,-0.05126953,-0.91534424,0.33953857,3.09375,-0.796875,1.609375
1696085501674,0.03125,-1.0056763,0.35760498,4.03125,-0.234375,1.703125
1696085501720,-0.09667969,-0.92510986,0.37054443,3.28125,5.109375,-1.1875
1696085501750,-0.06640625,-0.92266846,0.387146,1.609375,7.828125,-5.09375
1696085501795,-0.091796875,-0.892395,0.3649292,0.359375,11.859375,-6.78125
1696085501843,-0.03515625,-0.8740845,0.40838623,-1.203125,14.078125,-7.359375
1696085501869,-0.07128906,-0.7871704,0.38641357,-1.109375,18.1875,-7.859375
1696085501914,-0.020751953,-0.77423096,0.32806396,-6.0,16.453125,-8.9375
1696085501961,-0.03100586,-0.7649536,0.34222412,-2.734375,13.40625,-8.125
1696085501991,0.0078125,-0.8609009,0.3637085,-1.21875,11.34375,-5.65625
1696085502035,0.013183594,-0.8579712,0.4640503,-3.390625,9.65625,-3.109375
1696085502068,0.04296875,-0.9060669,0.40008545,-11.6875,6.140625,-0.4375
1696085502111,-0.010009766,-0.8731079,0.4100952,-12.453125,-2.34375,-2.984375
1696085502154,-0.024902344,-1.0371704,0.20843506,-15.9375,-6.109375,-3.4375
1696085502184,0.025634766,-1.0640259,0.24969482,-11.328125,-16.03125,3.609375
1696085502231,-0.119628906,-1.1262817,0.34906006,0.375,-15.046875,2.1875
1696085502274,-0.36108398,-1.430481,0.4298706,8.859375,-17.96875,-6.796875
1696085502334,-0.21313477,-1.4712524,0.55755615,-0.0625,-20.125,-6.015625
1696085502349,-0.0690918,-1.0357056,0.56292725,2.515625,-8.53125,5.5
1696085502379,-0.23608398,-0.9673462,0.49017334,-6.703125,-9.890625,-0.515625
1696085502425,-0.11425781,-0.84625244,0.28729248,-1.484375,-11.640625,5.921875
1696085502471,-0.13354492,-0.74298096,0.25482178,6.65625,-13.21875,9.03125
1696085502500,-0.16479492,-0.8623657,0.23480225,4.765625,-14.671875,7.40625
1696085502544,-0.19506836,-0.9558716,0.31976318,3.890625,-13.015625,6.03125
1696085502575,-0.19140625,-1.008606,0.33416748,-0.5625,-4.84375,3.453125
1696085502620,-0.16430664,-0.928772,0.31781006,-0.546875,-2.859375,5.75
1696085502666,-0.15161133,-0.85357666,0.4039917,1.734375,-5.3125,8.515625
1696085502695,-0.16552734,-0.8562622,0.32440186,-0.296875,-7.390625,9.859375
1696085502740,-0.14257812,-0.8442993,0.35736084,-2.59375,-7.09375,10.65625
1696085502786,-0.14746094,-0.72442627,0.3847046,0.171875,-6.015625,10.609375
1696085502814,-0.19042969,-0.75006104,0.4220581,-1.03125,-1.890625,7.765625
1696085502860,-0.25830078,-0.7258911,0.36834717,-4.59375,3.828125,2.28125
1696085502889,-0.19970703,-0.7461548,0.3102417,-1.40625,6.875,-0.96875
1696085502934,-0.1706543,-0.84991455,0.32269287,0.96875,4.96875,-3.9375
1696085502980,-0.09008789,-0.82110596,0.25408936,-3.109375,4.78125,-2.859375
1696085503011,0.037841797,-1.0523071,0.29681396,5.984375,3.984375,-1.625
1696085503054,0.18188477,-1.5913696,0.5841675,6.984375,7.84375,2.578125
1696085503100,-0.14331055,-1.5239868,0.5363159,5.078125,20.96875,1.0
1696085503129,0.028808594,-1.1797485,0.42352295,10.328125,24.90625,-4.4375
1696085503175,0.106933594,-1.0491333,0.465271,16.453125,14.078125,3.796875
1696085503250,0.095214844,-1.1262817,0.4472046,8.78125,9.96875,8.34375
1696085503253,0.0068359375,-0.8843384,0.33343506,10.3125,12.765625,9.5
1696085503295,0.063964844,-0.84381104,0.27435303,6.0625,14.90625,0.34375
1696085503324,-0.01977539,-0.89385986,0.2838745,5.78125,11.90625,-1.1875
1696085503370,0.08081055,-0.8948364,0.30560303,1.3125,7.4375,-1.578125
1696085503415,0.020019531,-0.8648071,0.33587646,2.359375,4.578125,-0.328125
1696085503444,-0.0041503906,-0.8345337,0.31195068,-2.15625,4.734375,-4.765625
1696085503490,-0.010009766,-0.84747314,0.3624878,-4.421875,7.421875,-7.375
1696085503520,-0.057373047,-0.87628174,0.43475342,-7.09375,9.21875,-9.1875
1696085503565,-0.13500977,-0.7017212,0.37860107,-10.140625,16.0625,-10.140625
1696085503610,0.036865234,-0.6382446,0.24212646,-6.4375,13.34375,-9.296875
1696085503639,0.10595703,-0.7192993,0.32635498,-3.453125,4.90625,-7.65625
1696085503684,0.057861328,-0.80426025,0.39398193,-1.84375,-2.9375,-4.0
1696085503717,0.08300781,-0.7883911,0.37957764,-4.75,-3.421875,-0.921875
1696085503760,0.09790039,-1.0786743,0.24481201,-18.765625,-29.703125,-2.5
1696085503804,0.0036621094,-1.4307251,0.43328857,-2.703125,-48.21875,3.84375
1696085503835,-0.81225586,-2.0,0.16107178,26.03125,-27.03125,-2.875
1696085503879,0.033935547,-1.3247681,0.3143921,2.21875,-2.5,-2.265625
1696085503925,0.01928711,-1.0215454,0.63812256,23.75,-1.59375,20.140625
1696085503955,-0.61621094,-0.9963989,0.28900146,4.265625,12.015625,-7.203125
1696085504000,0.107421875,-0.772522,0.0065307617,10.46875,8.578125,7.953125
1696085504030,-0.15649414,-0.802063,0.19866943,13.6875,-2.09375,0.234375
1696085504078,-0.1171875,-1.1192017,0.23236084,1.984375,-4.3125,3.171875
1696085504119,-0.13110352,-0.9907837,0.24920654,-3.453125,-1.734375,4.125
1696085504149,-0.32788086,-0.9795532,0.33221436,-2.71875,6.234375,-3.4375
1696085504195,-0.28930664,-0.9072876,0.27459717,-7.453125,14.515625,-8.265625
1696085504242,-0.19116211,-0.94732666,0.24603271,-11.203125,12.6875,-3.890625
1696085504269,-0.17138672,-1.031311,0.3373413,-14.203125,16.078125,-4.671875
1696085504315,-0.040771484,-1.0281372,0.40203857,-11.734375,19.046875,-2.75
1696085504345,0.0234375,-1.0488892,0.3571167,-11.453125,20.578125,-2.84375
1696085504390,-0.119628906,-0.84869385,0.33831787,-1.875,25.453125,-0.390625
1696085504436,-0.0063476562,-0.90045166,0.17474365,-1.5625,21.671875,-3.9375
1696085504464,0.010498047,-0.9729614,0.37860107,-0.796875,18.609375,-1.625
1696085504509,-0.030273438,-0.9783325,0.43572998,0.453125,14.453125,-0.375
1696085504543,-0.025390625,-0.96710205,0.40594482,-0.265625,13.8125,-0.1875
1696085504586,0.0021972656,-0.9463501,0.39520264,-0.515625,12.5625,-1.578125
1696085504630,-0.04248047,-0.9378052,0.33685303,-0.46875,9.234375,-2.140625
1696085504660,-0.026367188,-0.96099854,0.34368896,-1.765625,6.34375,-2.078125
1696085504704,-0.030761719,-0.95928955,0.37200928,-1.375,5.328125,-1.65625
1696085504750,-0.049560547,-0.9475708,0.3776245,1.59375,5.25,-1.0
1696085504780,-0.03515625,-0.95562744,0.34881592,0.390625,3.734375,-0.90625
1696085504825,-0.02368164,-0.9487915,0.3764038,1.15625,2.890625,-0.28125
1696085504884,-0.0031738281,-0.9819946,0.32757568,-2.9375,2.984375,0.0625
1696085504899,-0.030273438,-0.97125244,0.35321045,-1.046875,-3.390625,0.921875
1696085504945,-0.06274414,-0.972229,0.42791748,1.46875,-2.78125,2.046875
1696085504974,-0.068359375,-0.97003174,0.39837646,4.4375,-2.984375,2.8125
1696085505020,-0.052246094,-0.9326782,0.36297607,3.875,-0.296875,2.46875
1696085505064,-0.06347656,-0.95025635,0.37298584,3.78125,-0.953125,1.875
1696085505095,-0.083740234,-0.95977783,0.39471436,3.21875,-1.046875,1.265625
1696085505140,-0.06591797,-0.9768677,0.3768921,0.328125,-0.8125,1.453125
1696085505170,-0.06347656,-0.96173096,0.39544678,2.390625,0.328125,1.125
1696085505214,-0.0625,-0.95196533,0.3690796,2.421875,-0.921875,1.53125
1696085505260,-0.05883789,-0.9470825,0.3571167,0.703125,-1.484375,0.796875
1696085505290,-0.072509766,-0.96759033,0.3673706,0.859375,-1.375,1.3125
1696085505334,-0.0703125,-0.9678345,0.3690796,1.703125,-0.6875,1.1875
1696085505365,-0.07739258,-0.9512329,0.37249756,0.734375,-0.21875,0.953125
1696085505410,-0.076416016,-0.9849243,0.3048706,0.71875,-0.046875,1.890625
1696085505456,-0.06518555,-0.9558716,0.34124756,2.21875,-0.640625,1.578125
1696085505484,-0.07739258,-0.96881104,0.36761475,-1.0,1.9375,0.421875
1696085505529,-0.064697266,-0.9590454,0.4022827,1.09375,1.171875,1.09375
1696085505574,-0.04711914,-0.9536743,0.34100342,-0.828125,1.34375,0.75
1696085505605,-0.045654297,-0.95098877,0.37298584,1.625,0.25,1.625
1696085505650,-0.07543945,-0.95269775,0.39154053,2.296875,0.375,1.15625
1696085505680,-0.068115234,-0.9602661,0.3583374,-0.875,-0.25,1.109375
1696085505724,-0.09106445,-0.96881104,0.35638428,0.53125,0.8125,0.953125
1696085505770,-0.08520508,-0.9661255,0.36102295,2.21875,0.34375,0.875
1696085505800,-0.092285156,-0.96343994,0.3475952,1.21875,1.21875,0.90625
1696085505845,-0.07446289,-0.9558716,0.36517334,1.546875,2.21875,0.671875
1696085505890,-0.0793457,-0.9668579,0.35687256,1.265625,2.40625,0.65625
1696085505919,-0.09033203,-0.97052,0.35565186,-0.21875,2.890625,0.53125
1696085505965,-0.114990234,-0.95391846,0.39691162,5.28125,2.796875,0.78125
1696085505995,-0.09423828,-0.91729736,0.40985107,3.96875,2.46875,-0.890625
1696085506040,-0.092041016,-0.9846802,0.31878662,-2.6875,4.140625,-1.828125
1696085506085,-0.119384766,-0.9517212,0.40911865,1.28125,6.0,-1.578125
1696085506114,-0.12158203,-0.97247314,0.3522339,0.90625,7.25,-1.515625
1696085506176,-0.1003418,-0.95318604,0.35369873,-0.078125,7.390625,-2.453125
1696085506204,-0.1315918,-0.9661255,0.3991089,-0.09375,8.03125,-2.890625
1696085506234,-0.15844727,-0.9780884,0.36053467,-3.703125,8.1875,-4.703125
1696085506281,-0.13720703,-0.9373169,0.3222046,0.46875,10.5625,-5.625
1696085506309,-0.1184082,-0.92681885,0.35076904,4.671875,10.1875,-5.578125
1696085506355,-0.09472656,-0.944397,0.33319092,5.4375,14.0625,-5.84375
1696085506399,-0.029296875,-0.9307251,0.29925537,7.65625,15.8125,-5.875
1696085506430,0.051757812,-0.91412354,0.35272217,13.0,14.125,-1.078125
1696085506475,-0.0034179688,-0.99420166,0.4533081,9.828125,15.75,0.046875
1696085506505,-0.11791992,-1.0349731,0.47039795,-2.171875,19.390625,-4.515625
1696085506549,-0.12548828,-1.0418091,0.3895874,0.75,24.734375,-6.0
1696085506595,-0.10571289,-0.9224243,0.41766357,8.3125,25.78125,-5.859375
1696085506624,-0.12158203,-0.958313,0.3546753,2.09375,27.46875,-8.328125
1696085506670,-0.06762695,-0.95440674,0.38568115,5.6875,27.609375,-6.859375
1696085506716,-0.08227539,-0.9644165,0.37054443,6.171875,28.359375,-6.375
1696085506744,-0.10644531,-0.91656494,0.38616943,7.84375,30.609375,-5.71875
1696085506789,-0.125,-0.9092407,0.34173584,7.796875,30.859375,-6.6875
1696085506819,-0.09326172,-0.9102173,0.3209839,9.609375,29.65625,-7.125
1696085506865,-0.083740234,-0.9224243,0.34466553,9.8125,28.609375,-8.6875
1696085506910,-0.115722656,-0.93951416,0.34979248,7.296875,27.171875,-8.703125
1696085506940,-0.12207031,-0.94122314,0.3932495,3.625,29.3125,-10.359375
1696085506984,-0.16381836,-0.9951782,0.43792725,-3.71875,29.234375,-13.75
1696085507031,-0.13696289,-1.1030884,0.39666748,-9.1875,20.90625,-15.3125
1696085507060,-0.16796875,-1.2073364,0.30511475,-3.578125,10.53125,-12.203125
1696085507104,-0.21435547,-1.0037231,0.24310303,7.796875,22.765625,-6.984375
1696085507135,-0.22363281,-0.7866821,0.2579956,11.28125,40.515625,-5.296875
1696085507181,-0.18334961,-0.92266846,0.113464355,-3.125,37.359375,-11.359375
1696085507225,-0.072021484,-1.171936,0.1083374,-4.515625,32.796875,-10.59375
1696085507254,-0.15600586,-1.0298462,0.27044678,6.625,30.671875,-6.484375
1696085507300,-0.20019531,-0.9536743,0.3131714,5.84375,37.796875,-6.421875
1696085507329,-0.22753906,-0.88604736,0.25579834,5.21875,38.890625,-5.0625
1696085507375,-0.19580078,-0.8533325,0.15985107,7.140625,33.515625,-3.765625
1696085507450,-0.2055664,-0.9299927,0.1906128,6.953125,24.53125,-3.125
1696085507454,-0.23608398,-0.944397,0.25628662,9.296875,22.953125,-0.4375
1696085507495,-0.22827148,-0.96099854,0.2748413,6.3125,22.859375,0.625
1696085507540,-0.2290039,-0.9077759,0.26312256,3.953125,20.75,2.5625
1696085507570,-0.20507812,-0.93951416,0.24822998,0.21875,17.5625,3.546875
1696085507614,-0.20825195,-0.9590454,0.26434326,-1.46875,14.21875,4.546875
1696085507645,-0.21020508,-1.00177,0.3295288,-1.984375,16.09375,5.0
1696085507690,-0.22705078,-1.0278931,0.34320068,-6.9375,15.9375,5.0625
1696085507737,-0.2019043,-1.0371704,0.4154663,-13.484375,6.453125,5.21875
1696085507766,-0.20654297,-1.1775513,0.4039917,-22.90625,4.125,1.15625
1696085507809,-0.2578125,-1.2156372,0.402771,-12.65625,20.15625,-6.84375
1696085507884,-0.12817383,-0.94073486,0.22747803,-17.578125,25.53125,-8.203125
1696085507887,0.118896484,-0.8826294,0.14886475,-10.921875,14.578125,-8.34375
1696085507929,0.05810547,-0.8189087,0.3065796,11.3125,18.140625,-2.0
1696085507960,-0.123291016,-1.0725708,0.37249756,-3.328125,23.125,-7.578125
1696085508004,-0.140625,-1.008606,0.33221436,-6.359375,31.25,-14.5625
1696085508049,-0.12426758,-0.96417236,0.3805542,0.53125,38.984375,-15.140625
1696085508080,-0.08862305,-0.88531494,0.39764404,5.421875,41.765625,-14.546875
1696085508124,-0.0859375,-0.8855591,0.3925171,2.109375,43.578125,-13.140625
1696085508155,-0.033935547,-0.8855591,0.30877686,3.390625,45.359375,-12.0625
1696085508199,-0.057128906,-0.8948364,0.32806396,7.375,45.125,-12.375
1696085508245,-0.05883789,-0.8953247,0.37127686,7.71875,42.359375,-11.328125
1696085508276,-0.063964844,-0.87457275,0.33709717,10.109375,40.28125,-10.671875
1696085508319,-0.064208984,-0.9043579,0.3649292,15.53125,37.203125,-12.546875
1696085508365,-0.041992188,-0.90411377,0.432312,11.546875,38.3125,-15.34375
1696085508394,-0.06347656,-0.94976807,0.35784912,6.34375,39.375,-14.609375
1696085508440,-0.08496094,-0.92144775,0.5101929,8.84375,43.203125,-13.671875
1696085508469,-0.16894531,-0.9993286,0.5023804,-0.796875,48.640625,-16.703125
1696085508514,-0.043701172,-1.1465454,0.3727417,-7.8125,39.75,-17.265625
1696085508559,-0.0949707,-1.239563,0.30950928,3.140625,26.046875,-12.859375
1696085508589,-0.23291016,-1.0386353,0.23309326,20.734375,41.703125,-8.921875
1696085508635,-0.19311523,-0.8076782,0.23504639,5.171875,55.78125,-8.234375
1696085508679,-0.07324219,-1.036438,0.082458496,-9.046875,38.5625,-10.71875
1696085508725,-0.041503906,-1.0864868,0.11004639,13.6875,29.984375,-4.546875
1696085508754,-0.1459961,-1.0142212,0.25701904,13.65625,29.5,-4.3125
1696085508785,-0.2409668,-0.98028564,0.2741089,4.890625,34.6875,-6.0625
1696085508829,-0.1184082,-0.9102173,0.13104248,3.28125,32.046875,-6.59375
1696085508874,-0.11767578,-0.93341064,0.085632324,4.65625,16.6875,-7.84375
1696085508904,-0.21240234,-0.9924927,0.113464355,2.4375,16.625,-7.578125
1696085508950,-0.22192383,-0.94781494,0.15008545,-1.5625,16.5625,-5.9375
1696085508995,-0.18286133,-1.0952759,0.20941162,-8.6875,14.234375,-10.1875
1696085509024,0.03100586,-1.0674438,0.39227295,-2.953125,12.140625,-1.34375
1696085509070,-0.0056152344,-0.9026489,0.36297607,-4.546875,14.984375,1.703125
1696085509100,-0.015136719,-0.90093994,0.1876831,-8.96875,-0.984375,-0.703125
1696085509146,-0.053955078,-1.0476685,0.27508545,0.203125,-6.546875,-0.140625
1696085509190,-0.10498047,-0.9741821,0.31121826,3.03125,-1.125,1.5
1696085509219,-0.09814453,-0.9439087,0.35198975,-1.421875,-2.828125,-1.390625
1696085509269,-0.10424805,-0.9248657,0.3209839,-6.40625,-2.265625,-5.515625
1696085509296,-0.076660156,-0.9456177,0.31951904,-5.53125,-1.09375,-5.5
1696085509340,-0.12817383,-0.96221924,0.3595581,-1.34375,-3.15625,-2.390625
1696085509385,-0.14916992,-0.96051025,0.37078857,2.53125,-2.09375,-0.71875
1696085509415,-0.14672852,-0.9771118,0.35321045,3.34375,-1.765625,1.0
1696085509460,-0.1394043,-0.94732666,0.36151123,2.625,-2.515625,0.6875
1696085509504,-0.1381836,-0.98638916,0.32244873,-0.859375,0.421875,0.96875
1696085509534,-0.14013672,-0.9500122,0.34466553,2.921875,-2.609375,1.203125
1696085509580,-0.14257812,-0.96881104,0.32147217,0.671875,-1.71875,0.125
1696085509625,-0.12475586,-0.9768677,0.35272217,3.46875,-1.40625,0.609375
1696085509654,-0.11425781,-0.9487915,0.33221436,2.484375,0.03125,1.34375
1696085509699,-0.12451172,-0.9585571,0.34344482,2.296875,-1.78125,1.1875
1696085509729,-0.13354492,-0.9710083,0.3612671,2.25,-0.875,2.109375
1696085509774,-0.11230469,-0.9602661,0.3463745,0.40625,-0.984375,2.09375
1696085509820,-0.12670898,-0.97198486,0.35198975,0.203125,-1.78125,1.640625
1696085509853,-0.12426758,-0.9690552,0.36224365,0.0,-2.125,1.9375
1696085509894,-0.12207031,-0.9507446,0.34075928,1.515625,-1.734375,2.0
1696085509925,-0.122558594,-0.9661255,0.3463745,0.84375,-1.265625,1.453125
1696085510016,-0.119628906,-0.96343994,0.35125732,0.65625,-0.984375,1.859375
1696085510021,-0.10913086,-0.96661377,0.34710693,1.03125,-0.15625,1.234375
1696085510045,-0.1159668,-0.95758057,0.33416748,0.65625,-0.6875,1.015625
1696085510090,-0.12109375,-0.989563,0.34832764,0.359375,0.640625,0.515625
1696085510120,-0.1171875,-0.93878174,0.36419678,1.8125,0.0625,0.609375
1696085510165,-0.12670898,-0.9805298,0.33587646,-4.0,1.453125,-0.515625
1696085510210,-0.111816406,-0.9661255,0.37176514,-1.484375,1.171875,-0.09375
1696085510241,-0.11328125,-0.9585571,0.35809326,-2.078125,4.03125,-0.328125
1696085510284,-0.11352539,-0.94195557,0.3517456,-2.625,1.34375,-1.125
1696085510330,-0.12573242,-0.9570923,0.36395264,-1.828125,-0.296875,-1.171875
1696085510360,-0.11621094,-0.958313,0.3703003,-1.859375,0.375,-0.796875
1696085510421,-0.13916016,-0.9507446,0.3739624,-1.34375,0.09375,-0.578125
1696085510440,-0.13012695,-0.9468384,0.37860107,-0.609375,1.5625,-1.09375
1696085510490,-0.14038086,-0.95098877,0.36224365,-0.296875,1.84375,-0.625
1696085510524,-0.12841797,-0.95684814,0.3673706,0.09375,1.8125,-1.078125
1696085510560,-0.15039062,-0.9541626,0.37445068,1.140625,0.78125,-0.578125
1696085510606,-0.13452148,-0.9524536,0.37738037,0.921875,0.078125,-0.296875
1696085510652,-0.1352539,-0.96173096,0.36224365,-0.515625,0.375,-0.328125
1696085510675,-0.14404297,-0.9277954,0.4118042,2.359375,-0.9375,0.515625
1696085510721,-0.11694336,-0.9402466,0.3859253,-2.40625,0.453125,-0.21875
1696085510794,-0.1171875,-0.96221924,0.3373413,-3.1875,-0.515625,0.015625
1696085510799,-0.15014648,-0.9463501,0.4225464,-0.828125,1.453125,0.375
1696085510840,-0.13842773,-0.95269775,0.3776245,0.0625,-0.5,1.234375
1696085510869,-0.123291016,-0.9468384,0.37542725,-0.84375,0.0625,0.765625
1696085510914,-0.14526367,-0.95880127,0.39642334,-0.234375,-0.40625,1.109375
1696085510964,-0.13964844,-0.9429321,0.38494873,-0.703125,-0.46875,1.828125
1696085510990,-0.13354492,-0.9414673,0.38934326,-1.890625,0.109375,1.515625
1696085511034,-0.12133789,-0.9414673,0.40179443,-0.171875,-0.375,1.703125
1696085511064,-0.12768555,-0.94781494,0.38812256,0.03125,-1.015625,1.8125
1696085511109,-0.1262207,-0.9487915,0.3859253,-1.234375,-0.859375,1.453125
1696085511155,-0.1171875,-0.93829346,0.3932495,-0.328125,-1.21875,1.25
1696085511184,-0.12231445,-0.9429321,0.39398193,0.765625,-1.875,1.109375
1696085511230,-0.11816406,-0.95196533,0.38861084,-0.046875,-1.34375,0.75
1696085511290,-0.12573242,-0.9151001,0.43841553,3.421875,-1.21875,0.609375
1696085511304,-0.11254883,-0.91973877,0.43328857,-0.203125,-0.1875,-0.34375
1696085511353,-0.107910156,-0.95318604,0.338562,-1.953125,0.296875,-0.46875
1696085511379,-0.123046875,-0.9380493,0.4364624,2.21875,1.96875,-0.265625
1696085511424,-0.12768555,-0.9348755,0.3612671,2.796875,0.484375,0.125
1696085511470,-0.12939453,-0.92633057,0.39813232,7.0,2.15625,-0.140625
1696085511499,-0.15283203,-0.91290283,0.36419678,9.84375,4.359375,-0.34375
1696085511545,-0.15185547,-0.9175415,0.32318115,10.328125,5.28125,-0.703125
1696085511574,-0.16186523,-0.94659424,0.33880615,10.796875,7.296875,-1.734375
1696085511619,-0.18847656,-1.0007935,0.35198975,12.0625,7.765625,-1.6875
1696085511664,-0.17944336,-0.9680786,0.34344482,10.40625,8.1875,-0.96875
1696085511694,-0.16894531,-0.9697876,0.3163452,8.046875,6.46875,-0.125
1696085511739,-0.19091797,-1.0015259,0.35687256,7.03125,2.984375,0.46875
1696085511785,-0.21362305,-0.9639282,0.35565186,6.34375,3.453125,0.4375
1696085511814,-0.21411133,-0.94244385,0.3036499,5.8125,4.1875,-0.390625
1696085511860,-0.22021484,-0.9417114,0.33416748,10.34375,3.4375,0.09375
1696085511890,-0.21069336,-0.9155884,0.38641357,7.921875,1.921875,-0.984375
1696085511934,-0.19482422,-0.96954346,0.2855835,-0.265625,2.265625,-0.125
1696085511980,-0.19506836,-0.9631958,0.36468506,1.8125,0.828125,1.75
1696085512009,-0.20043945,-0.96051025,0.309021,-0.703125,0.640625,2.5
1696085512054,-0.19384766,-0.960022,0.33587646,-4.359375,0.0625,2.890625
1696085512085,-0.20263672,-0.97735596,0.35760498,-6.96875,-3.8125,4.015625
1696085512129,-0.20922852,-1.0593872,0.3222046,-9.265625,-3.96875,3.40625
1696085512174,-0.095458984,-1.0454712,0.28607178,-7.8125,-7.296875,4.171875
1696085512205,-0.06201172,-0.9751587,0.24066162,-4.109375,-16.8125,11.28125
1696085512253,-0.12670898,-1.0108032,0.24041748,-2.03125,-24.625,11.046875
1696085512294,-0.07104492,-0.9385376,0.22576904,0.578125,-21.421875,11.921875
1696085512324,0.03173828,-0.7920532,0.28948975,8.5625,-13.703125,16.515625
1696085512373,-0.08544922,-0.9343872,0.36566162,4.09375,-10.953125,10.796875
1696085512400,-0.118652344,-1.1409302,0.36175537,-2.890625,-8.984375,1.96875
1696085512444,-0.044189453,-1.0830688,0.3685913,3.28125,-2.484375,1.859375
1696085512491,-0.03564453,-0.9619751,0.39276123,3.375,-1.421875,1.96875
1696085512531,-0.024414062,-0.9038696,0.35101318,-0.1875,-4.1875,5.1875
1696085512564,-0.049560547,-0.8401489,0.40350342,1.984375,-2.96875,4.5625
1696085512611,-0.032958984,-0.84503174,0.31756592,0.78125,-0.046875,2.703125
1696085512640,-0.017089844,-0.78375244,0.31658936,0.015625,7.296875,-1.9375
1696085512684,-0.010009766,-0.78204346,0.35150146,-4.4375,5.4375,-3.703125
1696085512715,-0.049072266,-0.72198486,0.38983154,-4.640625,5.828125,-4.859375
1696085512766,-0.013916016,-0.7473755,0.36053467,-4.0,1.09375,-4.796875
1696085512805,0.03100586,-0.76519775,0.30682373,-7.015625,-7.078125,-4.5625
1696085512835,-0.08520508,-0.7354126,0.38201904,-3.046875,0.625,-5.59375
1696085512879,-0.050048828,-0.67437744,0.25994873,-5.0,3.0,-7.65625
1696085512909,-0.006591797,-0.9241333,0.26434326,-11.375,-9.1875,-7.53125
1696085512954,-0.11352539,-1.3875122,0.10418701,4.8125,-20.3125,1.984375
1696085512999,-0.12207031,-1.437561,0.14447021,20.328125,-3.953125,9.109375
1696085513029,-0.12451172,-1.3325806,0.4413452,2.90625,-23.125,7.0625
1696085513074,-0.33032227,-1.5803833,0.43011475,8.21875,-14.4375,1.21875
1696085513135,-0.25268555,-1.180481,0.4533081,11.234375,8.21875,5.34375
1696085513151,-0.20043945,-0.9429321,0.35150146,-4.984375,-1.796875,-2.578125
1696085513195,-0.17578125,-0.9558716,0.28070068,-3.453125,-5.71875,6.75
1696085513225,-0.14819336,-0.7542114,0.12298584,-1.21875,0.015625,6.578125
1696085513272,-0.087646484,-0.8875122,0.17596436,-8.515625,-7.46875,1.671875
1696085513324,-0.13476562,-0.89434814,0.28338623,-5.609375,-5.84375,4.140625
1696085513345,-0.14501953,-0.89068604,0.35516357,-9.546875,-3.03125,5.453125
1696085513389,-0.114746094,-0.84820557,0.30047607,-10.96875,-2.28125,9.125
1696085513437,-0.16796875,-0.7810669,0.34710693,-7.484375,-4.265625,9.53125
1696085513465,-0.21313477,-0.6958618,0.31610107,-6.625,-5.953125,8.40625
1696085513510,-0.1237793,-0.70806885,0.307312,-7.75,-1.921875,6.421875
1696085513539,-0.14135742,-0.6680298,0.33294678,-6.421875,1.703125,4.984375
1696085513584,-0.18188477,-0.68829346,0.30291748,-2.59375,6.59375,2.921875
1696085513629,0.029541016,-0.69317627,0.2177124,-8.859375,-7.671875,6.640625
1696085513659,0.095947266,-1.1062622,0.3768921,6.3125,-9.484375,5.40625
1696085513705,0.31811523,-2.0,0.73114014,-9.5,-20.5,-0.96875
1696085513749,-0.10107422,-1.4138794,0.51971436,-1.078125,19.1875,2.609375
1696085513779,-0.03857422,-1.2297974,0.52996826,-7.640625,6.21875,-11.71875
1696085513855,-0.109375,-0.8916626,0.50213623,5.1875,8.09375,-1.25
1696085513860,-0.05444336,-0.80670166,0.44696045,1.984375,9.625,-2.53125
1696085513899,-0.0107421875,-0.8167114,0.33441162,2.390625,9.703125,-1.6875
1696085513944,-0.016845703,-0.6646118,0.28753662,5.609375,12.984375,-6.28125
1696085513974,0.044677734,-0.77667236,0.30218506,4.578125,9.5,-10.40625
1696085514019,0.08325195,-0.81134033,0.42425537,-1.109375,0.09375,-9.703125
1696085514050,-0.075927734,-0.6502075,0.41204834,2.640625,-0.34375,-2.265625
1696085514094,-0.048095703,-0.6970825,0.3517456,-1.796875,-1.8125,-3.4375
1696085514139,-0.068115234,-0.72906494,0.37860107,0.875,-3.0625,-5.09375
1696085514169,-0.12158203,-0.80426025,0.51605225,-3.421875,-2.28125,-6.375
1696085514214,-0.103515625,-0.9492798,0.4142456,-10.140625,-5.984375,-7.90625
1696085514259,-0.09008789,-1.0757446,0.2670288,-1.8125,-9.796875,-2.15625
1696085514290,0.04296875,-1.3201294,0.09661865,-2.515625,-14.890625,7.09375
1696085514333,-0.29174805,-1.303772,0.40716553,10.171875,-7.75,6.03125
1696085514365,-0.38354492,-1.3931274,0.6264038,-4.6875,-1.625,-0.328125
1696085514413,-0.24365234,-1.4124146,0.45257568,-9.859375,-8.4375,4.46875
1696085514454,-0.16186523,-1.0059204,0.29730225,5.859375,2.640625,6.59375
1696085514484,-0.14111328,-0.88604736,0.3883667,4.59375,-4.375,8.1875
1696085514530,-0.12670898,-0.8245239,0.26922607,2.96875,-9.515625,10.21875
1696085514575,-0.099609375,-0.75177,0.17962646,4.5,-13.234375,10.546875
1696085514604,-0.16308594,-0.79351807,0.2687378,1.6875,-11.6875,7.953125
1696085514650,-0.21069336,-0.819397,0.3685913,-1.71875,-6.15625,7.25
1696085514681,-0.14355469,-0.7710571,0.2567749,-2.703125,-6.59375,9.5625
1696085514724,-0.12084961,-0.74224854,0.28875732,2.34375,-6.0625,7.703125
1696085514769,-0.23706055,-0.82037354,0.40667725,1.3125,-1.125,5.125
1696085514800,-0.15966797,-0.71832275,0.20672607,-1.046875,-2.84375,5.234375
1696085514844,-0.123291016,-0.677063,0.22821045,6.390625,-3.609375,1.4375
1696085514881,-0.13208008,-0.86260986,0.25628662,4.171875,1.03125,-0.328125
1696085514922,-0.01586914,-1.1904907,0.45135498,7.046875,2.21875,-3.328125
1696085514964,0.19799805,-1.9507446,0.46136475,9.953125,5.984375,4.484375
1696085514994,0.2109375,-1.7026978,0.69818115,0.03125,16.515625,0.953125
1696085515039,-0.33544922,-1.1841431,0.5009155,-5.96875,26.71875,-15.28125
1696085515085,0.059570312,-0.83795166,0.40863037,5.96875,17.171875,-2.40625
1696085515130,-0.03100586,-0.80596924,0.41278076,8.234375,11.953125,3.765625
1696085515159,0.08911133,-0.7752075,0.2897339,6.203125,10.21875,3.703125
1696085515189,0.034179688,-0.8796997,0.30096436,2.375,8.0,-4.765625
1696085515236,0.04272461,-0.94610596,0.34222412,4.28125,5.484375,-3.90625
1696085515279,-0.059814453,-0.87091064,0.3595581,5.203125,8.671875,-2.1875
1696085515309,-0.057128906,-0.7971802,0.34735107,-2.546875,8.421875,-7.84375
1696085515354,-0.052734375,-0.78448486,0.36639404,2.390625,11.65625,-6.59375
1696085515431,-0.046875,-0.76446533,0.31756592,1.125,12.203125,-5.3125
1696085515434,-0.005126953,-0.7522583,0.32904053,0.46875,9.15625,-4.890625
1696085515475,0.049072266,-0.80133057,0.22406006,-0.171875,1.0,-0.59375
1696085515504,0.072509766,-0.97662354,0.4772339,-0.734375,-4.34375,-2.59375
1696085515549,-0.041748047,-0.92803955,0.4257202,-6.515625,-5.09375,3.109375
1696085515595,0.052246094,-0.9998169,0.42352295,-9.25,-11.296875,1.9375
1696085515625,-0.09741211,-1.1577759,0.1954956,-9.671875,-13.921875,2.875
1696085515669,-0.080078125,-1.2258911,0.35516357,1.59375,-5.703125,4.796875
1696085515699,-0.26953125,-1.1651001,0.4364624,4.03125,5.703125,5.09375
1696085515744,-0.07885742,-1.2119751,0.41937256,-10.484375,-5.265625,2.5
1696085515791,-0.14526367,-1.4658813,0.4039917,-8.28125,-19.03125,4.265625
1696085515819,-0.21801758,-1.0430298,0.30462646,5.796875,1.28125,4.15625
1696085515864,-0.10668945,-0.90460205,0.4159546,1.9375,0.8125,3.6875
1696085515909,-0.12475586,-0.8989868,0.32244873,-3.0625,-1.984375,3.859375
1696085515939,-0.12011719,-0.7949829,0.2321167,3.53125,-3.90625,3.78125
1696085515985,-0.1159668,-0.87750244,0.25897217,1.9375,-6.328125,1.96875
1696085516014,-0.12841797,-0.86187744,0.38153076,-3.15625,-8.515625,2.46875
1696085516059,-0.23120117,-0.7920532,0.3776245,-8.578125,-4.53125,1.53125
1696085516104,-0.16137695,-0.76885986,0.2929077,-10.28125,-4.703125,0.15625
1696085516135,-0.032226562,-0.7451782,0.31854248,-2.515625,-7.171875,3.28125
1696085516179,-0.103515625,-0.6482544,0.3378296,4.03125,-4.65625,6.28125
1696085516225,-0.16772461,-0.7727661,0.33050537,-2.296875,-4.34375,-1.015625
1696085516254,-0.1899414,-0.7576294,0.3685913,-7.125,-6.625,-3.59375
1696085516300,-0.18481445,-0.7803345,0.38519287,-3.46875,-5.609375,-7.796875
1696085516330,-0.10546875,-0.9627075,0.30511475,-7.046875,2.09375,-9.96875
1696085516405,0.045654297,-1.3198853,0.527771,-1.796875,-1.984375,-4.25
1696085516434,-0.05078125,-1.4458618,0.5819702,3.53125,-1.984375,2.40625
1696085516454,-0.14257812,-1.4763794,0.729187,-5.5,8.53125,-7.796875
1696085516496,-0.13500977,-1.3775024,0.6610718,1.828125,11.421875,-7.96875
1696085516554,-0.040527344,-0.9517212,0.5961304,3.828125,12.125,-0.875
1696085516569,-0.14086914,-0.861145,0.46258545,4.140625,11.046875,0.046875
1696085516615,-0.11425781,-0.8225708,0.36566162,6.09375,13.75,-1.734375
1696085516644,-0.08276367,-0.7788696,0.33392334,7.59375,18.09375,-3.53125
1696085516689,-0.055419922,-0.74713135,0.3078003,3.953125,18.21875,-4.96875
1696085516734,-0.026611328,-0.72540283,0.34368896,2.75,18.125,-5.375
1696085516764,-0.037841797,-0.7024536,0.42962646,1.609375,16.796875,-5.0
1696085516810,-0.087890625,-0.7373657,0.4537964,-0.578125,16.6875,-5.125
1696085516840,-0.029296875,-0.73101807,0.33294678,0.515625,11.09375,-1.46875
1696085516884,0.021240234,-0.80670166,0.35809326,5.21875,7.0625,0.46875
1696085516929,0.03857422,-0.8245239,0.36346436,3.15625,-0.140625,0.328125
1696085516959,-0.028808594,-0.67144775,0.39276123,0.078125,-0.875,0.46875
1696085517004,-0.08984375,-0.84552,0.3739624,1.640625,-6.90625,-2.3125
1696085517049,-0.13452148,-1.2927856,0.2423706,-0.078125,-25.984375,-3.09375
1696085517079,-0.3317871,-1.5933228,0.25897217,14.5625,-8.1875,6.171875
1696085517124,-0.21044922,-1.456604,0.5922241,5.390625,-5.671875,-1.078125
1696085517154,-0.2241211,-1.3276978,0.4940796,-0.53125,-6.0625,7.953125
1696085517200,-0.09692383,-1.1018677,0.33221436,6.484375,-6.828125,9.703125
1696085517244,-0.17285156,-1.0061646,0.29803467,8.140625,-4.625,8.390625
1696085517274,-0.1015625,-0.878479,0.2880249,7.1875,-9.796875,10.671875
1696085517319,-0.035888672,-0.87677,0.27215576,7.25,-16.734375,15.296875
1696085517365,-0.12426758,-0.7932739,0.27020264,6.734375,-16.546875,15.765625
1696085517394,-0.12695312,-0.9500122,0.2374878,-0.84375,-21.96875,11.625
1696085517440,-0.21020508,-0.8699341,0.34954834,3.59375,-12.078125,10.75
1696085517469,-0.3388672,-0.70562744,0.3678589,-6.328125,0.125,5.921875
1696085517514,-0.05029297,-0.6956177,0.24139404,-14.203125,0.046875,5.40625
1696085517559,-0.05859375,-0.69903564,0.22894287,-6.65625,-0.28125,6.53125
1696085517590,-0.18969727,-0.77130127,0.3143921,-4.484375,-1.421875,1.46875
1696085517634,-0.15551758,-0.77349854,0.2838745,-8.15625,-1.5,-3.53125
1696085517696,-0.05126953,-0.73394775,0.26678467,-0.5,-1.203125,-1.296875
1696085517710,0.0031738281,-0.9981079,0.34490967,-0.015625,-4.484375,-5.234375
1696085517755,0.052490234,-1.86969,0.47821045,-2.40625,-15.75,-10.984375
1696085517784,0.27856445,-1.7139282,0.45599365,1.46875,17.265625,4.34375
1696085517829,-0.1953125,-1.1504517,0.63323975,-2.125,26.390625,-4.484375
1696085517876,-0.013183594,-0.98883057,0.55999756,-0.640625,4.671875,-6.125
1696085517904,0.0053710938,-0.9734497,0.48284912,8.296875,6.453125,2.71875
1696085517949,0.052246094,-0.85943604,0.39593506,8.296875,9.0625,12.234375
1696085517980,0.0087890625,-0.7781372,0.34295654,8.953125,13.96875,3.0
1696085518025,-0.012207031,-0.8423462,0.24749756,6.71875,4.203125,-3.796875
1696085518070,0.0034179688,-0.91070557,0.3307495,6.984375,5.015625,-2.078125
1696085518099,-0.0107421875,-0.8591919,0.31536865,7.359375,5.1875,0.21875
1696085518144,0.022460938,-0.81134033,0.34735107,4.171875,3.265625,-3.203125
1696085518189,-0.05493164,-0.8442993,0.40740967,3.453125,4.546875,-6.5
1696085518223,-0.099609375,-0.7756958,0.3475952,-4.953125,10.828125,-9.703125
1696085518265,-0.07373047,-0.7493286,0.33929443,-7.484375,13.21875,-12.328125
1696085518294,-0.059326172,-0.7473755,0.30169678,-5.671875,7.0,-8.703125
1696085518339,0.060302734,-0.94415283,0.42230225,-5.09375,-4.640625,-4.9375
1696085518384,-0.022705078,-0.88897705,0.47528076,-7.546875,-6.15625,1.390625
1696085518415,0.06542969,-0.9644165,0.28216553,-16.765625,-9.9375,5.203125
1696085518459,0.0026855469,-1.0952759,0.26849365,-10.546875,-24.1875,8.703125
1696085518507,-0.16821289,-1.1272583,0.4069214,0.0,-17.265625,6.1875
1696085518534,-0.46289062,-1.1768188,0.40203857,2.78125,5.765625,-4.671875
1696085518581,0.019042969,-1.4265747,0.43597412,-9.640625,-12.1875,1.296875
1696085518610,-0.2265625,-1.18219,0.53948975,9.40625,-6.484375,4.0
1696085518655,-0.11279297,-0.9702759,0.43548584,1.125,3.40625,5.359375
1696085518700,-0.08325195,-1.0125122,0.38494873,-5.109375,-8.15625,3.96875
1696085518729,-0.10449219,-0.88287354,0.27044678,1.359375,-12.90625,8.109375
1696085518789,-0.13330078,-0.84820557,0.2736206,1.296875,-11.125,8.859375
1696085518804,-0.14208984,-0.8518677,0.3300171,-4.140625,-10.34375,5.328125
1696085518849,-0.16894531,-0.84332275,0.33270264,-9.03125,-4.515625,2.875
1696085518894,-0.18774414,-0.77471924,0.3048706,-9.046875,-0.5,1.953125
1696085518924,-0.11010742,-0.7503052,0.401062,-6.84375,-0.75,1.0
1696085518970,-0.15527344,-0.7000122,0.41937256,-2.765625,-1.046875,2.34375
1696085519015,-0.22680664,-0.6795044,0.36566162,-3.90625,-2.265625,0.5625
1696085519044,-0.1508789,-0.6880493,0.33807373,-0.65625,-3.171875,-1.640625
1696085519090,-0.10107422,-0.66192627,0.29534912,2.015625,-7.734375,-2.5625
1696085519120,-0.1237793,-0.7932739,0.2831421,5.015625,-14.125,-4.625
1696085519165,0.0063476562,-1.2669067,0.48016357,8.4375,-14.09375,-6.0
1696085519209,-0.18017578,-1.8338013,0.8109741,3.203125,-4.28125,0.328125
1696085519239,0.1484375,-1.732727,0.62908936,-1.640625,7.015625,-0.046875
1696085519284,-0.13452148,-1.0283813,0.53045654,4.109375,12.25,-6.9375
1696085519329,0.05859375,-0.96051025,0.53533936,5.078125,0.359375,2.8125
1696085519360,-0.25219727,-0.7107544,0.47943115,5.65625,6.6875,4.015625
1696085519404,-0.036132812,-0.76763916,0.36932373,7.125,13.796875,6.375
1696085519450,-0.088378906,-0.7107544,0.26116943,9.234375,17.71875,0.859375
1696085519481,-0.014404297,-0.70635986,0.2921753,7.171875,16.234375,-5.703125
1696085519524,-0.040039062,-0.84259033,0.33221436,2.234375,14.4375,-3.359375
1696085519554,0.0061035156,-0.80548096,0.41497803,6.203125,10.203125,0.421875
1696085519600,0.0087890625,-0.756897,0.32440186,5.078125,7.84375,1.375
1696085519631,0.046142578,-0.82769775,0.41912842,2.46875,2.703125,2.296875
1696085519674,-0.15283203,-0.83380127,0.51605225,-0.40625,1.734375,-1.21875
1696085519719,-0.021240234,-0.8484497,0.3883667,-2.15625,3.96875,-1.109375
1696085519749,-2.4414062E-4,-0.82403564,0.3378296,-2.984375,1.515625,1.015625
1696085519795,0.08178711,-1.0049438,0.1395874,5.609375,-5.1875,8.953125
1696085519840,0.091552734,-1.2266235,0.17645264,14.609375,-18.859375,15.890625
1696085519869,-0.23413086,-1.453186,0.3595581,22.078125,-9.34375,6.5625
1696085519914,-0.24731445,-1.6030884,0.5541382,4.15625,-8.671875,0.703125
1696085519944,-0.09692383,-1.409729,0.3834839,2.640625,-3.75,6.453125
1696085519990,-0.071777344,-1.1409302,0.2687378,4.546875,-5.5,3.3125
1696085520035,-0.125,-0.98687744,0.2609253,5.359375,-7.3125,7.359375
1696085520064,-0.107910156,-0.8069458,0.15350342,4.78125,-7.859375,9.5625
1696085520109,-0.012939453,-0.72076416,0.16278076,4.828125,-18.3125,10.0625
1696085520184,-0.14624023,-0.755188,0.20941162,2.828125,-15.03125,6.90625
1696085520188,-0.18969727,-0.8057251,0.25164795,-0.34375,-11.21875,3.625
1696085520245,-0.12207031,-0.8284302,0.20599365,-1.875,-3.796875,2.4375
1696085520259,-0.046142578,-0.84942627,0.2802124,-3.046875,-2.109375,2.109375
1696085520304,-0.13647461,-0.7715454,0.34368896,-2.6875,-0.71875,0.828125
1696085520350,-0.14038086,-0.861145,0.38128662,-10.171875,7.34375,-2.953125
1696085520379,-0.20410156,-0.73883057,0.31658936,-0.6875,12.75,-2.984375
1696085520424,-0.29711914,-0.7268677,0.28656006,-2.421875,17.46875,-10.34375
1696085520456,-0.2019043,-0.69366455,0.16082764,-14.609375,18.609375,-17.0625
1696085520501,0.026855469,-1.2080688,0.31536865,-11.8125,19.8125,-14.71875
1696085520547,0.044921875,-1.956604,0.6469116,-13.609375,12.09375,-5.203125
1696085520574,0.05517578,-1.3215942,0.36712646,-6.203125,27.46875,-4.609375
1696085520620,-0.08862305,-1.4241333,0.5392456,-2.453125,33.609375,-8.796875
1696085520665,0.004638672,-1.0759888,0.4623413,1.59375,33.890625,-2.75
1696085520696,0.014892578,-0.86187744,0.39520264,2.015625,30.21875,2.46875
1696085520740,-0.057617188,-0.7503052,0.4022827,2.09375,28.59375,0.9375
1696085520772,-0.09716797,-0.74176025,0.31170654,0.4375,35.5,-5.890625
1696085520814,-0.04296875,-0.7271118,0.32318115,4.125,37.1875,-6.5
1696085520862,-0.075927734,-0.72125244,0.28216553,3.234375,34.59375,-7.953125
1696085520889,0.04248047,-0.7383423,0.22503662,6.375,25.3125,-7.171875
1696085520934,0.122558594,-0.76812744,0.24359131,13.515625,15.0625,-0.734375
1696085520981,0.016113281,-0.8069458,0.42596436,11.71875,15.96875,0.15625
1696085521009,-0.059326172,-0.79644775,0.4093628,2.078125,20.34375,-5.78125
1696085521056,-0.08618164,-0.8674927,0.432312,-4.1875,22.484375,-9.609375
1696085521084,0.07299805,-0.99224854,0.32635498,-12.671875,11.921875,-12.453125
1696085521129,0.024902344,-1.3308716,0.1671753,-8.421875,-4.765625,-8.390625
1696085521175,-0.23486328,-1.4331665,0.41619873,4.625,-0.625,-9.9375
1696085521204,0.059814453,-1.2739868,0.25457764,17.5,5.3125,-2.140625
1696085521250,-0.014892578,-1.3963013,0.6251831,14.515625,-3.53125,-2.03125
1696085521295,-0.36767578,-1.1948853,0.38372803,8.171875,17.078125,-5.40625
1696085521324,-0.039794922,-0.98931885,0.38494873,1.40625,23.5625,-7.53125
1696085521384,-0.08642578,-0.9241333,0.21331787,3.09375,19.828125,-1.484375
1696085521400,-0.0146484375,-0.8262329,0.1618042,8.5625,9.28125,1.03125
1696085521445,-0.13110352,-0.9002075,0.14398193,11.703125,7.640625,-0.09375
1696085521535,-0.09472656,-0.8862915,0.19818115,8.1875,5.234375,0.859375
1696085521539,-0.122558594,-0.9714966,0.2243042,4.171875,0.078125,0.171875
1696085521566,-0.18334961,-0.90948486,0.17596436,1.734375,-3.859375,1.5
1696085521610,-0.087402344,-1.0491333,0.13885498,-11.078125,-12.5,-1.796875
1696085521655,0.16601562,-1.263977,0.2831421,-17.515625,-24.578125,2.609375
1696085521684,0.059326172,-1.1362915,0.42938232,14.6875,0.515625,16.328125
1696085521714,0.19677734,-0.68585205,0.10101318,-6.328125,-20.078125,10.78125
1696085521759,0.046875,-1.0647583,0.23260498,2.65625,-12.265625,2.265625
1696085521804,0.14819336,-0.91534424,0.09564209,1.078125,-23.921875,5.578125
1696085521834,0.22558594,-0.9692993,0.08905029,1.34375,-25.40625,7.765625
1696085521879,-0.0036621094,-1.0657349,0.3546753,-3.875,-17.578125,1.125
1696085521910,-0.14282227,-0.9319458,0.447937,-8.625,1.0625,-3.765625
1696085521955,-0.051757812,-0.9697876,0.22039795,-11.71875,-8.8125,-3.390625
1696085522000,-0.1418457,-0.96661377,0.27313232,1.78125,-7.53125,-1.96875
1696085522031,-0.08618164,-0.97784424,0.26019287,3.984375,-5.765625,-1.015625
1696085522075,-0.09667969,-0.97247314,0.32196045,3.046875,-5.34375,0.09375
1696085522119,-0.084228516,-0.9692993,0.3204956,2.796875,-4.734375,0.390625
1696085522149,-0.109375,-0.9849243,0.307312,3.6875,-2.484375,0.328125
1696085522194,-0.12890625,-0.989563,0.2909546,3.25,0.21875,0.890625
1696085522224,-0.10131836,-0.9668579,0.28289795,3.6875,2.171875,-0.1875
1696085522269,-0.060302734,-0.9780884,0.27508545,2.203125,-0.4375,0.546875
1696085522314,-0.071777344,-1.0005493,0.25750732,1.578125,-1.3125,2.046875
1696085522344,-0.07470703,-0.97320557,0.2850952,2.625,-1.0625,2.765625
1696085522389,-0.091796875,-0.98638916,0.28729248,1.53125,1.109375,0.859375
1696085522420,-0.05834961,-0.9817505,0.277771,2.265625,1.921875,1.1875
1696085522465,-0.07324219,-0.9680786,0.277771,2.28125,0.8125,0.84375
1696085522510,-0.08276367,-0.96759033,0.3012085,2.53125,1.453125,0.296875
1696085522539,-0.049316406,-0.95880127,0.28363037,1.09375,2.609375,-0.046875
1696085522629,-0.0546875,-0.9890747,0.24407959,-0.0625,1.75,0.453125
1696085522633,-0.068115234,-0.96539307,0.28460693,1.8125,1.578125,0.859375
1696085522660,-0.07104492,-1.0005493,0.27850342,1.953125,2.09375,0.796875
1696085522704,-0.049316406,-0.9729614,0.2711792,0.390625,1.515625,0.5625
1696085522734,-0.064453125,-0.98638916,0.27630615,1.125,0.90625,1.0625
1696085522811,-0.0637207,-0.9890747,0.2670288,1.28125,0.8125,1.21875
1696085522825,-0.059814453,-0.97979736,0.26531982,1.359375,1.078125,1.1875
1696085522855,-0.07495117,-0.9768677,0.27874756,1.234375,0.34375,1.171875
1696085522900,-0.052978516,-0.98101807,0.27191162,0.59375,0.0625,1.046875
1696085522945,-0.061523438,-0.9841919,0.27093506,1.0625,-0.1875,1.015625
1696085522975,-0.06665039,-0.97784424,0.27752686,1.046875,0.46875,0.71875
1696085523020,-0.07495117,-0.986145,0.2897339,0.421875,0.71875,0.84375
1696085523049,-0.080078125,-0.9788208,0.2838745,-0.96875,2.4375,0.390625
1696085523094,-0.07397461,-0.9763794,0.30438232,-2.78125,2.1875,-0.0625
1696085523141,-0.11230469,-0.99786377,0.30267334,-3.65625,2.671875,0.59375
1696085523169,-0.07788086,-0.9619751,0.2633667,-5.46875,3.46875,-0.109375
1696085523214,-0.088378906,-0.99102783,0.27313232,-6.0,0.109375,-0.828125
1696085523260,-0.091796875,-0.9727173,0.29412842,-6.015625,1.359375,0.1875
1696085523306,-0.07788086,-0.99224854,0.30340576,-4.0625,1.8125,0.8125
1696085523334,-0.08618164,-0.96343994,0.3053589,-5.078125,2.5,-0.28125
1696085523365,-0.1105957,-0.96173096,0.32366943,-5.609375,2.828125,-1.59375
1696085523410,-0.12548828,-0.9805298,0.34490967,-5.171875,4.375,-1.875
1696085523454,-0.12524414,-0.9463501,0.34539795,-4.203125,7.109375,-1.375
1696085523485,-0.1730957,-0.9480591,0.34735107,-3.859375,9.140625,-1.375
1696085523529,-0.14501953,-0.96173096,0.3534546,-2.640625,10.3125,-1.515625
1696085523560,-0.12670898,-0.95880127,0.35858154,-2.34375,11.84375,-0.25
1696085523605,-0.099121094,-0.96881104,0.34466553,-2.796875,9.703125,-0.734375
1696085523650,-0.1274414,-0.9673462,0.3444214,-1.671875,11.046875,-1.0625
1696085523680,-0.10913086,-0.97076416,0.33026123,-0.359375,12.0625,-1.359375
1696085523724,-0.14697266,-0.98565674,0.3258667,-2.09375,12.4375,-2.28125
1696085523769,-0.16235352,-0.9915161,0.35321045,0.234375,17.078125,-1.171875
1696085523799,-0.14892578,-1.0115356,0.36102295,-3.71875,23.359375,-2.578125
1696085523845,-0.114746094,-0.8982544,0.32269287,-3.359375,24.828125,-0.359375
1696085523874,0.010986328,-0.8267212,0.39715576,5.390625,29.4375,0.359375
1696085523920,-7.324219E-4,-0.9807739,0.42523193,5.796875,28.359375,-0.140625
1696085523964,-0.032226562,-1.0344849,0.45843506,-1.453125,32.1875,-5.234375
1696085523995,-0.01586914,-0.9668579,0.40667725,-0.546875,35.046875,-6.0625
1696085524041,-0.029296875,-0.88482666,0.41815186,4.546875,34.5625,-4.765625
1696085524085,-0.026855469,-0.8699341,0.36053467,3.40625,33.28125,-4.15625
1696085524117,-0.016113281,-0.9187622,0.35858154,5.140625,32.234375,-4.609375
1696085524160,-0.023925781,-0.94195557,0.35906982,8.484375,33.421875,-5.453125
1696085524191,-0.037353516,-0.9541626,0.36639404,7.46875,35.921875,-7.0625
1696085524235,-0.041748047,-0.93218994,0.3522339,5.078125,35.796875,-9.421875
1696085524284,-0.016601562,-0.9319458,0.3270874,7.984375,32.828125,-8.21875
1696085524310,0.018554688,-0.9927368,0.34124756,5.96875,29.390625,-8.6875
1696085524356,-0.043701172,-0.9612427,0.36639404,5.625,30.953125,-9.3125
1696085524385,-0.02709961,-1.0027466,0.31292725,0.171875,33.640625,-12.859375
1696085524430,-0.06274414,-0.9578247,0.33416748,1.078125,30.453125,-14.21875
1696085524475,-0.09790039,-0.9529419,0.36419678,-1.328125,27.390625,-17.875
1696085524504,-0.026123047,-1.048645,0.37908936,-4.96875,14.984375,-17.34375
1696085524550,-0.076660156,-1.0894165,0.26849365,-1.046875,5.25,-13.28125
1696085524596,-0.17138672,-1.0610962,0.31414795,8.0,8.671875,-13.765625
1696085524624,-0.26342773,-0.9116821,0.27069092,11.46875,32.625,-11.9375
1696085524669,-0.076171875,-0.8467407,0.14324951,-6.96875,35.59375,-10.390625
1696085524700,-0.053710938,-1.1792603,0.1395874,-6.359375,25.1875,-13.015625
1696085524744,-0.16552734,-1.0535278,0.20306396,12.015625,23.4375,-7.796875
1696085524790,-0.1862793,-1.0088501,0.32781982,7.859375,27.953125,-5.8125
1696085524820,-0.2631836,-0.9536743,0.26361084,3.890625,30.921875,-7.8125
1696085524864,-0.17138672,-0.8977661,0.15594482,2.984375,27.84375,-4.734375
1696085524911,-0.21679688,-0.90826416,0.17352295,7.6875,25.53125,-3.421875
1696085524942,-0.22851562,-0.8792114,0.21063232,9.140625,25.25,-3.015625
1696085524984,-0.23999023,-0.9248657,0.25994873,9.1875,25.671875,-2.5
1696085525014,-0.24926758,-0.88360596,0.27044678,6.796875,24.09375,-2.25
1696085525060,-0.22631836,-0.9529419,0.18939209,0.265625,22.296875,-1.78125
1696085525105,-0.24707031,-0.9536743,0.28900146,3.9375,20.96875,-1.25
1696085525134,-0.21508789,-1.0244751,0.28289795,-0.125,20.859375,2.625
1696085525179,-0.1850586,-1.0481567,0.3348999,-6.4375,18.359375,4.515625
1696085525210,-0.15405273,-1.0274048,0.338562,-9.96875,6.5625,8.359375
1696085525255,-0.21069336,-1.2105103,0.37298584,-13.1875,3.921875,3.421875
1696085525300,-0.17675781,-1.217102,0.32269287,-4.921875,25.0,-2.84375
1696085525375,-0.043701172,-0.9324341,0.14715576,-8.96875,29.953125,-3.1875
1696085525379,0.14575195,-0.7810669,0.05291748,6.890625,11.46875,-0.25
1696085525421,-0.027832031,-1.0054321,0.30975342,10.453125,11.28125,-1.90625
1696085525450,-0.22192383,-1.187561,0.2579956,0.96875,29.40625,-5.0625
1696085525494,-0.04321289,-0.92071533,0.24725342,4.578125,40.515625,-6.15625
1696085525525,-0.103027344,-0.8921509,0.27288818,5.5,41.03125,-7.671875
1696085525570,-0.07006836,-0.9480591,0.27581787,2.5625,42.0,-9.109375
1696085525616,-0.030517578,-0.987854,0.24749756,2.640625,45.921875,-6.40625
1696085525704,-0.020507812,-0.9043579,0.2616577,6.625,45.21875,-7.0625
1696085525710,-0.06640625,-0.9636841,0.23944092,2.109375,44.765625,-9.453125
1696085525734,0.011962891,-0.95025635,0.25531006,3.96875,40.28125,-7.3125
1696085525764,0.030273438,-0.9644165,0.3024292,3.84375,38.046875,-8.0625
1696085525810,7.324219E-4,-0.9758911,0.30804443,2.59375,36.171875,-7.140625
1696085525840,-0.0073242188,-0.95196533,0.34857178,0.34375,38.71875,-9.453125
1696085525885,-0.040527344,-0.9849243,0.3690796,-5.53125,38.359375,-14.234375
1696085525931,-0.11035156,-1.0916138,0.31536865,-14.65625,31.296875,-20.28125
1696085525960,-0.26660156,-1.0200806,0.24456787,-4.390625,31.46875,-20.609375
1696085526005,-0.1640625,-0.9661255,0.12371826,0.15625,39.96875,-12.625
1696085526050,-0.060546875,-1.0532837,0.21478271,3.375,34.703125,-9.890625
1696085526079,-0.115478516,-1.0020142,0.21356201,10.1875,35.5625,-3.921875
1696085526126,-0.14819336,-0.9780884,0.19818115,6.015625,27.359375,-5.71875
1696085526154,-0.14770508,-1.0237427,0.1930542,3.5625,21.125,-5.671875
1696085526199,-0.11254883,-1.0015259,0.21551514,4.6875,15.546875,-3.9375
1696085526245,-0.16210938,-0.9192505,0.2033081,6.125,12.4375,-2.3125
1696085526274,-0.15966797,-0.940979,0.18865967,-0.375,11.953125,-3.796875
1696085526320,-0.15014648,-1.0220337,0.1239624,-7.140625,3.34375,-4.203125
1696085526349,-0.12133789,-1.0320435,0.29852295,-4.234375,2.546875,-3.375
1696085526395,-0.056152344,-0.9932251,0.32977295,-6.21875,1.265625,0.234375
1696085526440,-0.10498047,-0.91070557,0.27020264,-3.0625,5.8125,0.078125
1696085526469,-0.11425781,-0.93536377,0.24139404,-2.15625,1.515625,-1.171875
1696085526514,-0.10913086,-0.9859009,0.2850952,3.28125,-1.078125,0.96875
1696085526559,-0.08276367,-0.9932251,0.28900146,2.21875,-2.984375,2.515625
1696085526589,-0.12158203,-0.96759033,0.32000732,2.828125,-2.625,2.1875
1696085526652,-0.11816406,-0.9651489,0.3348999,2.875,-1.96875,2.09375
1696085526664,-0.11303711,-0.98272705,0.31243896,1.28125,-1.78125,1.625
1696085526710,-0.10180664,-0.97784424,0.29412842,0.484375,-1.65625,1.53125
1696085526755,-0.08618164,-0.9673462,0.30975342,1.359375,-2.921875,1.796875
1696085526784,-0.09790039,-0.97442627,0.29803467,0.96875,-2.375,1.28125
1696085526830,-0.114746094,-0.9673462,0.3270874,0.5,-1.75,0.765625
1696085526905,-0.11279297,-0.9902954,0.24945068,-2.0625,0.828125,0.296875
1696085526911,-0.103271484,-0.97979736,0.26019287,-0.21875,-1.84375,0.421875
1696085526950,-0.118652344,-0.98443604,0.31195068,-1.34375,-0.28125,0.03125
1696085526980,-0.104003906,-0.97784424,0.34124756,0.0,-0.6875,0.359375
1696085527025,-0.09863281,-0.9524536,0.3053589,-1.671875,0.703125,0.34375
1696085527070,-0.11425781,-0.97857666,0.324646,0.625,-0.171875,0.375
1696085527100,-0.10205078,-0.9656372,0.33416748,0.671875,-1.0,0.578125
1696085527146,-0.1027832,-0.9668579,0.31610107,1.53125,-0.65625,1.265625
1696085527176,-0.12231445,-0.9639282,0.3131714,0.515625,-0.71875,1.0625
1696085527221,-0.114990234,-0.9649048,0.32366943,1.6875,-1.0,1.09375
1696085527265,-0.115478516,-0.97076416,0.324646,1.3125,-0.796875,1.03125
1696085527295,-0.095703125,-0.9702759,0.30999756,0.75,-1.046875,1.0
1696085527340,-0.118652344,-0.9668579,0.3192749,1.875,-1.1875,1.21875
1696085527385,-0.115478516,-0.9729614,0.3241577,1.28125,-0.296875,0.546875
1696085527414,-0.11791992,-0.96588135,0.3283081,0.640625,0.0,0.25
1696085527461,-0.114746094,-0.9976196,0.27020264,1.0,0.375,0.484375
1696085527490,-0.11279297,-0.9458618,0.34661865,3.734375,-0.71875,0.515625
1696085527536,-0.123046875,-0.98443604,0.29779053,-2.4375,0.65625,-1.15625
1696085527580,-0.11621094,-0.9661255,0.37005615,1.765625,0.265625,-0.53125
1696085527610,-0.11254883,-0.9602661,0.3007202,-0.53125,1.65625,-0.3125
1696085527654,-0.11767578,-0.9661255,0.3131714,1.359375,0.6875,-0.03125
1696085527730,-0.11669922,-0.97003174,0.31658936,1.765625,-0.140625,0.296875
1696085527734,-0.115234375,-0.96417236,0.3168335,1.90625,-0.546875,0.78125
1696085527774,-0.115722656,-0.97198486,0.30291748,0.625,-0.28125,0.390625
1696085527804,-0.1159668,-0.97540283,0.324646,2.15625,-0.1875,0.46875
1696085527850,-0.12524414,-0.973938,0.3151245,2.046875,-0.890625,1.1875
1696085527925,-0.111083984,-0.9702759,0.30926514,0.75,-0.921875,1.21875
1696085527928,-0.12207031,-0.9763794,0.3222046,1.171875,-0.75,1.09375
1696085527969,-0.11645508,-0.96759033,0.31536865,1.625,-0.84375,1.46875
1696085527999,-0.1171875,-0.9727173,0.30560303,1.40625,-0.59375,1.25
1696085528046,-0.118896484,-0.9656372,0.31048584,0.859375,-0.671875,0.984375
1696085528090,-0.12695312,-0.9644165,0.34881592,3.71875,-0.921875,1.46875
1696085528123,-0.10888672,-0.9365845,0.3727417,2.75,-1.203125,0.1875
1696085528164,-0.111328125,-0.9944458,0.27508545,-2.515625,-0.4375,0.078125
1696085528211,-0.1184082,-0.96343994,0.3439331,0.078125,0.0,0.25
1696085528239,-0.12036133,-0.9746704,0.3143921,0.75,0.03125,0.984375
1696085528285,-0.10961914,-0.9624634,0.3024292,-0.015625,0.015625,0.25
1696085528315,-0.125,-0.98101807,0.30462646,1.515625,-0.25,0.4375
1696085528361,-0.11425781,-0.96661377,0.32562256,2.140625,-0.28125,0.453125
1696085528405,-0.10522461,-0.9627075,0.29901123,1.640625,-0.578125,0.421875
1696085528435,-0.11791992,-0.97442627,0.30584717,2.140625,-0.5,0.546875
1696085528479,-0.111572266,-0.97198486,0.30950928,2.65625,-0.671875,1.09375
1696085528539,-0.10571289,-0.9714966,0.30047607,1.9375,-1.296875,0.984375
1696085528554,-0.111816406,-0.9663696,0.30462646,2.03125,-1.40625,0.765625
1696085528600,-0.12084961,-0.97735596,0.31463623,1.4375,-0.859375,0.796875
1696085528630,-0.10888672,-0.9690552,0.31341553,1.015625,-0.921875,0.90625
1696085528676,-0.1015625,-0.9663696,0.31219482,0.953125,-1.546875,0.75
1696085528722,-0.10961914,-0.97320557,0.3048706,0.96875,-1.046875,0.5
1696085528751,-0.11230469,-0.9636841,0.3102417,1.484375,-1.015625,0.390625
1696085528794,-0.10888672,-0.9932251,0.28118896,0.40625,0.765625,0.46875
1696085528839,-0.118896484,-0.9397583,0.31903076,3.359375,-1.421875,0.859375
1696085528869,-0.12060547,-0.9771118,0.28704834,-1.328125,-0.609375,-1.03125
1696085528914,-0.11645508,-0.9685669,0.32196045,3.3125,0.203125,-0.25
1696085528944,-0.12109375,-0.95806885,0.2838745,2.453125,2.359375,-0.40625
1696085528990,-0.14355469,-0.923645,0.2819214,4.984375,2.578125,-0.828125
1696085529034,-0.20458984,-0.9351196,0.29486084,6.265625,5.78125,-1.71875
1696085529064,-0.24023438,-0.93878174,0.27264404,4.171875,6.921875,-2.71875
1696085529110,-0.18164062,-1.0317993,0.25872803,4.4375,5.296875,-3.703125
1696085529139,-0.17333984,-1.0535278,0.30023193,6.90625,3.375,-1.84375
1696085529216,-0.17333984,-0.98321533,0.32147217,8.125,1.46875,0.421875
1696085529230,-0.21044922,-0.9390259,0.28631592,7.25,2.59375,0.875
1696085529261,-0.21704102,-0.9216919,0.24139404,7.703125,1.03125,0.03125
1696085529305,-0.21899414,-0.95928955,0.25286865,7.578125,-1.484375,1.015625
1696085529350,-0.21972656,-0.9614868,0.2662964,5.203125,-2.59375,1.875
1696085529380,-0.19116211,-0.9885864,0.24920654,1.484375,-3.015625,3.25
1696085529426,-0.19726562,-1.0005493,0.2543335,-0.375,-3.796875,5.78125
1696085529455,-0.18359375,-0.98687744,0.26361084,-3.4375,-5.34375,7.625
1696085529499,-0.18432617,-0.9692993,0.2514038,-7.921875,-7.296875,8.0
1696085529544,-0.21655273,-1.0188599,0.26409912,-13.453125,-10.46875,6.9375
1696085529574,-0.1796875,-1.1455688,0.27435303,-16.875,-2.125,0.46875
1696085529620,-0.1772461,-1.0488892,0.19696045,-15.28125,-6.78125,5.375
1696085529665,-0.015625,-0.99957275,0.22381592,-16.171875,-13.859375,6.625
1696085529694,-0.080322266,-0.8479614,0.3348999,-0.390625,-14.28125,10.28125
1696085529739,-0.08520508,-0.7932739,0.24017334,-5.703125,-8.90625,6.03125
1696085529770,-0.040527344,-0.9990845,0.40496826,-4.46875,-3.8125,1.703125
1696085529815,-0.19116211,-1.1174927,0.32977295,-7.78125,-0.171875,-4.640625
1696085529859,0.0546875,-0.9907837,0.35784912,1.671875,-1.078125,-2.25
1696085529889,-0.076660156,-0.92144775,0.387146,4.640625,1.015625,1.1875
1696085529934,-0.06689453,-0.8267212,0.385437,1.5625,1.484375,1.5
1696085529965,-0.06323242,-0.7683716,0.3078003,0.421875,5.421875,1.828125
1696085530010,-0.040283203,-0.68048096,0.28900146,2.21875,13.90625,-0.90625
1696085530055,-0.07128906,-0.6140747,0.324646,1.78125,17.03125,-3.65625
1696085530084,-0.06542969,-0.69610596,0.28851318,-3.921875,17.15625,-6.8125
1696085530130,-0.0026855469,-0.7727661,0.26776123,-3.640625,4.546875,-3.609375
1696085530174,0.030761719,-0.85894775,0.3168335,0.84375,-0.328125,0.921875
1696085530205,0.03100586,-0.9763794,0.4352417,-2.234375,-2.296875,-1.640625
1696085530250,-0.14160156,-0.9336548,0.34881592,-7.765625,3.40625,-3.046875
1696085530279,-0.01953125,-1.1411743,0.097595215,-15.09375,-8.40625,-1.984375
1696085530325,-0.06982422,-1.4717407,0.19281006,11.21875,-11.484375,6.125
1696085530370,-0.30981445,-1.4070435,0.41912842,15.15625,1.515625,4.921875
1696085530399,-0.24511719,-1.5598755,0.5475464,-4.015625,-5.46875,-1.75
1696085530444,-0.26098633,-1.0322876,0.33294678,2.625,18.0,2.65625
1696085530490,-0.18164062,-0.9714966,0.34344482,-4.125,7.609375,-1.171875
1696085530526,-0.11791992,-0.9043579,0.27508545,-2.765625,-2.296875,5.125
1696085530564,-0.14208984,-0.784729,0.2538452,0.890625,-6.765625,7.515625
1696085530594,-0.14819336,-0.83306885,0.25091553,-6.328125,-6.6875,5.625
1696085530639,-0.14208984,-0.79107666,0.30218506,-2.515625,-8.671875,6.109375
1696085530687,-0.18969727,-0.7974243,0.32977295,-4.34375,-2.34375,2.71875
1696085530714,-0.19458008,-0.7144165,0.32537842,-3.3125,3.421875,1.53125
1696085530761,-0.1303711,-0.6712036,0.28118896,-2.15625,2.46875,2.4375
1696085530804,-0.13256836,-0.69976807,0.22259521,1.546875,-6.25,4.546875
1696085530835,-0.19921875,-0.7959595,0.26531982,3.15625,-7.90625,0.703125
1696085530880,-0.20996094,-0.7268677,0.24212646,0.8125,-11.078125,0.015625
1696085530910,-0.048339844,-1.0491333,0.28875732,-1.28125,-6.703125,-3.140625
1696085530954,0.1418457,-1.5264282,0.47991943,3.125,-11.3125,-2.296875
1696085531000,-0.0847168,-1.7144165,0.62054443,-7.453125,5.3125,-1.328125
1696085531030,-0.10229492,-1.4609985,0.53582764,-0.546875,13.890625,-6.96875
1696085531074,0.10839844,-1.2388306,0.41766357,5.984375,1.859375,3.53125
1696085531104,0.024658203,-0.909729,0.49017334,14.25,2.6875,11.65625
1696085531149,-0.14550781,-0.675354,0.3859253,11.09375,8.125,9.171875
1696085531195,-0.08227539,-0.6553345,0.20159912,3.15625,8.8125,4.0
1696085531224,0.09399414,-0.72979736,0.277771,-0.546875,12.328125,-1.234375
1696085531270,0.011474609,-0.677063,0.29510498,-0.125,11.359375,-0.875
1696085531315,0.061279297,-0.75177,0.30145264,-1.40625,6.53125,1.015625
1696085531344,-0.060058594,-0.770813,0.3451538,4.140625,7.578125,-0.125
1696085531390,-0.095703125,-0.66485596,0.32659912,0.40625,10.375,-5.140625
1696085531421,-0.047607422,-0.77130127,0.39349365,-1.84375,7.390625,-8.078125
1696085531464,-0.083740234,-0.84747314,0.35443115,-7.859375,7.421875,-10.3125
1696085531510,0.10058594,-0.9834595,0.20672607,-13.0625,-6.90625,-5.078125
1696085531541,0.04272461,-1.2620239,0.17327881,-2.9375,-27.796875,5.203125
1696085531584,-0.26953125,-1.5945435,0.22283936,27.90625,-12.28125,-1.40625
1696085531629,-0.20874023,-1.5464478,0.57318115,3.59375,-6.390625,-2.84375
1696085531659,-0.2607422,-1.6113892,0.635437,-10.3125,1.390625,-1.390625
1696085531705,-0.23217773,-1.140686,0.35565186,-9.9375,13.125,1.203125
1696085531765,-0.12524414,-0.87677,0.3312378,-3.75,0.5,1.640625
1696085531780,-0.07861328,-0.8557739,0.27166748,-3.484375,-10.703125,10.328125
1696085531825,-0.06323242,-0.6987915,0.18475342,2.734375,-15.265625,15.203125
1696085531854,-0.1262207,-0.7490845,0.13787842,1.359375,-16.03125,9.640625
1696085531900,-0.09033203,-0.7493286,0.28338623,2.453125,-12.3125,13.65625
1696085531930,-0.1862793,-0.76226807,0.28070068,2.171875,-3.484375,9.0625
1696085531974,-0.05834961,-0.70928955,0.27703857,1.28125,-1.1875,7.84375
1696085532026,-0.12524414,-0.66851807,0.2868042,2.15625,-4.3125,5.65625
1696085532049,-0.19360352,-0.7859497,0.35906982,-1.3125,-4.90625,0.390625
1696085532095,-0.20019531,-0.8052368,0.32489014,-5.65625,-1.671875,-1.546875
1696085532140,-0.04663086,-0.8518677,0.29681396,-7.84375,-2.53125,-0.625
1696085532169,0.05419922,-1.2214966,0.4154663,-2.671875,-4.125,-4.953125
1696085532214,0.13085938,-1.7705688,0.60980225,-0.984375,0.21875,-2.359375
1696085532247,-0.06738281,-1.5044556,0.50042725,-13.140625,10.640625,-5.515625
1696085532289,0.041015625,-1.2305298,0.46307373,2.765625,5.09375,-4.75
1696085532335,0.02368164,-0.94781494,0.50701904,7.796875,4.359375,5.8125
1696085532364,-0.12817383,-0.85113525,0.4142456,4.625,2.859375,1.421875
1696085532410,0.03125,-0.94317627,0.38616943,5.21875,5.328125,1.203125
1696085532454,-0.0703125,-0.7991333,0.29266357,3.328125,13.546875,2.046875
1696085532485,-0.03491211,-0.7185669,0.26190186,-1.65625,15.265625,-4.15625
1696085532529,-0.017578125,-0.83599854,0.3456421,-4.046875,11.78125,-9.921875
1696085532560,0.01586914,-0.82037354,0.36419678,-1.5,8.890625,-7.296875
1696085532606,0.059814453,-0.7505493,0.42474365,-1.171875,1.390625,-2.046875
1696085532650,-0.08520508,-0.7493286,0.46795654,-5.125,2.265625,-4.390625
1696085532679,-0.018554688,-0.7197876,0.3817749,-4.40625,-1.390625,-3.796875
1696085532724,0.0034179688,-0.6868286,0.3607788,-1.03125,-5.328125,-0.5625
1696085532756,0.033203125,-0.78448486,0.36956787,1.59375,-2.96875,3.0
1696085532800,-0.03149414,-0.9788208,0.3439331,-3.375,-9.671875,2.4375
1696085532844,-0.034179688,-1.2402954,0.14691162,-5.671875,-16.609375,5.828125
1696085532874,-0.19360352,-1.256897,0.27630615,8.8125,-7.140625,5.84375
1696085532920,-0.32910156,-1.562561,0.5297241,7.96875,-4.296875,-4.796875
1696085532967,-0.1159668,-1.4627075,0.47869873,6.484375,-17.453125,3.078125
1696085532994,-0.19042969,-1.0874634,0.46258545,12.734375,-3.84375,4.546875
1696085533054,-0.22143555,-0.9968872,0.4257202,2.671875,-1.5625,5.625
1696085533070,-0.12573242,-0.87579346,0.26654053,1.90625,-8.078125,5.984375
1696085533115,-0.17626953,-0.8184204,0.21038818,6.484375,-9.21875,7.25
1696085533160,-0.13500977,-0.8689575,0.25042725,0.140625,-10.921875,6.21875
1696085533189,-0.17089844,-0.9006958,0.30389404,1.140625,-9.6875,6.328125
1696085533235,-0.13574219,-0.87872314,0.29437256,-0.875,-5.8125,8.203125
1696085533281,-0.076660156,-0.84820557,0.3024292,-2.734375,-4.625,8.609375
1696085533311,-0.09082031,-0.7202759,0.31976318,-0.4375,-3.640625,10.25
1696085533355,-0.15917969,-0.6929321,0.30633545,-2.703125,-4.25,5.453125
1696085533384,-0.171875,-0.7022095,0.322937,-2.28125,-3.984375,-1.5
1696085533429,-0.15649414,-0.7451782,0.20843506,0.546875,-9.15625,-2.90625
1696085533475,-0.05444336,-0.6968384,0.28289795,2.796875,-16.15625,-4.03125
1696085533504,-0.19067383,-0.9783325,0.25286865,2.328125,-3.53125,-10.625
1696085533549,-0.049560547,-1.5276489,0.44207764,-2.890625,5.46875,-13.109375
1696085533594,0.040283203,-1.5984497,0.5463257,-1.484375,4.28125,0.578125
1696085533624,-0.0847168,-1.5549927,0.59124756,-10.9375,11.578125,-11.46875
1696085533669,-0.06298828,-1.2332153,0.4706421,12.734375,14.0,-5.53125
1696085533700,-0.0859375,-0.80181885,0.43841553,9.296875,16.53125,5.5
1696085533744,-0.119628906,-0.6338501,0.2838745,9.5625,10.515625,5.546875
1696085533789,-0.052978516,-0.87994385,0.28948975,6.953125,11.46875,-0.265625
1696085533821,2.4414062E-4,-0.862854,0.26361084,4.421875,14.28125,0.984375
1696085533864,0.033447266,-0.8364868,0.3156128,1.625,16.375,-0.296875
1696085533894,-0.033935547,-0.87164307,0.4118042,0.265625,15.828125,-4.90625
1696085533939,-0.08276367,-0.7229614,0.39544678,0.484375,14.40625,-1.390625
1696085533984,0.021972656,-0.65948486,0.3204956,-1.71875,8.015625,-0.984375
1696085534014,0.008544922,-0.7815552,0.31048584,1.21875,0.671875,0.6875
1696085534060,-0.041992188,-0.84503174,0.34173584,-0.234375,-2.75,-2.234375
1696085534105,-0.064697266,-0.8657837,0.41619873,-5.15625,-10.171875,-4.4375
1696085534134,-0.07470703,-0.93829346,0.3637085,-11.5,-9.03125,-7.75
1696085534179,-0.048339844,-0.97540283,0.19818115,-6.265625,-16.59375,-2.90625
1696085534209,-0.09863281,-1.2268677,0.22259521,-3.609375,-20.84375,4.109375
1696085534254,-0.44213867,-1.4976196,0.3085327,12.671875,-12.09375,-2.28125
1696085534331,-0.21166992,-1.644104,0.5182495,-8.984375,-9.25,-5.921875
1696085534334,-0.1887207,-1.2644653,0.4623413,1.09375,2.953125,5.84375
1696085534375,-0.14770508,-0.9541626,0.41644287,0.25,-0.265625,5.28125
1696085534420,-0.15307617,-0.90802,0.30682373,-0.703125,-7.59375,5.65625
1696085534449,-0.12670898,-0.8394165,0.23284912,3.546875,-13.0625,11.5
1696085534494,-0.15454102,-0.76275635,0.23895264,4.65625,-11.46875,13.375
1696085534526,-0.099365234,-0.83258057,0.23529053,-1.4375,-15.0625,10.953125
1696085534569,-0.16992188,-0.8255005,0.2814331,0.28125,-8.921875,9.875
1696085534614,-0.26538086,-0.7571411,0.33514404,-1.390625,3.828125,4.453125
1696085534644,-0.18041992,-0.6499634,0.26531982,-8.59375,8.671875,1.1875
1696085534689,-0.08496094,-0.64312744,0.24847412,-7.5,8.0,2.34375
1696085534722,-0.26660156,-0.6680298,0.3366089,-7.90625,5.640625,-2.8125
1696085534765,-0.20117188,-0.72613525,0.30706787,-14.71875,5.25,-6.625
1696085534809,0.041259766,-1.0686646,0.41253662,-8.796875,-1.90625,-6.046875
1696085534843,0.107177734,-1.7800903,0.43377686,3.96875,-4.140625,-1.703125
1696085534884,-0.22143555,-1.5386353,0.6798706,-4.046875,19.25,-3.015625
1696085534929,-0.12792969,-1.3994751,0.5109253,-9.703125,17.515625,-14.765625
1696085534959,0.07104492,-1.2310181,0.5126343,6.078125,16.703125,-2.34375
1696085535004,-0.02758789,-0.83599854,0.50946045,4.125,20.0625,4.359375
1696085535035,-0.044921875,-0.645813,0.3397827,6.203125,19.546875,3.46875
1696085535079,-0.064208984,-0.817688,0.34051514,6.734375,16.046875,-2.671875
1696085535124,0.020263672,-0.8518677,0.3270874,4.0,17.53125,-2.71875
1696085535155,0.0146484375,-0.8530884,0.3427124,3.125,16.65625,-2.953125
1696085535200,0.036132812,-0.80914307,0.432312,5.890625,13.1875,-3.125
1696085535276,-0.06933594,-0.75372314,0.3756714,2.96875,12.671875,-2.203125
1696085535280,0.0146484375,-0.725647,0.33319092,5.703125,10.328125,-2.359375
1696085535320,0.009765625,-0.70806885,0.309021,8.828125,6.34375,1.390625
1696085535350,0.009277344,-0.7817993,0.3397827,8.203125,1.359375,1.921875
1696085535396,-0.040039062,-0.95513916,0.3944702,-0.796875,0.421875,-2.046875
1696085535440,-0.038085938,-0.88653564,0.46331787,-2.28125,-1.1875,-3.0625
1696085535469,0.1015625,-0.9963989,0.2970581,-10.234375,-11.109375,-0.453125
1696085535515,-0.0034179688,-0.99884033,0.2929077,-10.296875,-17.890625,0.984375
1696085535544,-0.041259766,-1.0376587,0.28485107,-8.03125,-12.734375,0.984375
1696085535605,-0.32055664,-1.1729126,0.37469482,10.078125,-6.34375,-4.4375
1696085535636,-0.28076172,-1.3892212,0.55633545,-3.625,-8.25,-12.0
1696085535665,-0.099609375,-1.3814087,0.6154175,-6.796875,-12.4375,-3.390625
1696085535710,-0.1899414,-1.08844,0.4989624,2.203125,-3.078125,0.3125
1696085535756,-0.1665039,-1.0430298,0.49725342,-3.734375,-8.21875,-1.578125
1696085535784,-0.12890625,-0.94244385,0.37371826,-0.609375,-17.078125,5.609375
1696085535829,-0.17260742,-0.8279419,0.2868042,4.484375,-14.375,7.234375
1696085535860,-0.16625977,-0.8118286,0.26531982,4.34375,-13.046875,5.890625
1696085535904,-0.1772461,-0.77789307,0.34490967,3.9375,-12.53125,6.234375
1696085535950,-0.20117188,-0.7883911,0.45355225,-1.65625,-6.71875,4.984375
1696085535980,-0.14770508,-0.82281494,0.2477417,-11.640625,-7.765625,4.53125
1696085536024,-0.061035156,-0.7715454,0.34173584,-4.609375,-13.4375,7.453125
1696085536069,-0.20263672,-0.75982666,0.37982178,-1.125,-12.4375,9.171875
1696085536102,-0.19360352,-0.6790161,0.34613037,-4.421875,-6.84375,6.640625
1696085536145,-0.15234375,-0.6392212,0.29852295,-0.578125,-5.765625,6.21875
1696085536174,-0.12426758,-0.7774048,0.22381592,4.828125,-6.5,3.890625
1696085536219,-0.059326172,-1.100647,0.43450928,9.0,-11.65625,0.515625
1696085536265,0.041992188,-1.524231,0.5914917,1.375,-17.171875,8.15625
1696085536294,-0.15039062,-1.3198853,0.618103,0.65625,-1.53125,3.5625
1696085536340,-0.04663086,-1.62677,0.52557373,-0.828125,1.34375,-5.5625
1696085536387,-0.040039062,-1.0632935,0.51678467,2.609375,3.203125,3.265625
1696085536423,-0.083984375,-0.8538208,0.4401245,8.765625,3.40625,7.75
1696085536459,-0.14013672,-0.847229,0.38323975,10.546875,-1.171875,0.71875
1696085536489,-0.026367188,-0.89434814,0.34222412,6.5,2.34375,3.890625
1696085536534,-0.04345703,-0.74176025,0.3287964,5.328125,6.9375,3.484375
1696085536580,-0.08544922,-0.66656494,0.3451538,7.6875,9.828125,-3.53125
1696085536610,0.03149414,-0.8093872,0.3295288,-1.515625,10.109375,-6.0
1696085536654,-0.0063476562,-0.76934814,0.37298584,0.796875,4.65625,-0.28125
1696085536684,-0.0053710938,-0.7810669,0.35321045,-0.21875,3.1875,-0.3125
1696085536732,-0.029052734,-0.80841064,0.4298706,-2.453125,-0.21875,-2.28125
1696085536774,-0.107666016,-0.8362427,0.496521,-3.796875,-0.625,-3.0
1696085536805,-0.15844727,-0.7810669,0.3517456,-3.296875,4.328125,-4.296875
1696085536896,-0.013183594,-0.8567505,0.124694824,-1.890625,-1.65625,-2.171875
1696085536900,0.095703125,-1.0657349,0.059265137,6.75,-15.046875,8.703125
1696085536924,-0.05517578,-1.2827759,0.21868896,20.875,-26.90625,13.75
1696085536969,-0.5073242,-1.7058716,0.5150757,12.953125,-21.6875,0.015625
1696085537000,-0.2644043,-1.6558228,0.3649292,-2.28125,-2.6875,-4.703125
1696085537044,-0.10620117,-1.2788696,0.3781128,6.390625,3.796875,5.78125
1696085537090,-0.18359375,-1.0164185,0.37713623,1.453125,0.515625,3.28125
1696085537119,-0.19799805,-0.8530884,0.30462646,0.28125,-1.09375,11.734375
1696085537164,-0.16333008,-0.64678955,0.1552124,1.953125,-2.609375,6.203125
1696085537210,-0.11425781,-0.8543091,0.2230835,2.5625,-6.984375,4.546875
1696085537239,-0.12426758,-0.88116455,0.23529053,-2.171875,-4.515625,7.84375
1696085537284,-0.19140625,-0.9192505,0.3048706,-2.78125,4.40625,4.59375
1696085537316,-0.15576172,-0.9649048,0.3102417,-6.984375,12.8125,1.421875
1696085537360,-0.12060547,-0.90045166,0.3348999,-14.21875,11.40625,3.0625
1696085537404,-0.0871582,-0.8262329,0.33563232,-12.734375,11.15625,5.4375
1696085537435,-0.115234375,-0.71099854,0.38006592,-9.578125,11.203125,6.265625
1696085537481,-0.17089844,-0.6436157,0.31658936,-5.328125,8.859375,3.515625
1696085537510,-0.17041016,-0.65997314,0.32977295,-5.09375,11.203125,-4.078125
1696085537568,-0.08642578,-0.66363525,0.23187256,-0.65625,8.625,-4.265625
1696085537599,-0.099609375,-0.72369385,0.20770264,3.234375,11.578125,-7.828125
1696085537629,0.075927734,-1.1885376,0.34051514,2.078125,9.609375,-11.03125
1696085537678,0.20605469,-2.0,0.62371826,-2.890625,10.671875,-6.8125
1696085537720,-0.10107422,-1.3865356,0.5331421,-10.90625,28.859375,-11.328125
1696085537749,0.037841797,-1.4785767,0.53900146,-5.6875,17.53125,-16.03125
1696085537795,-0.040283203,-1.0723267,0.5170288,0.578125,19.28125,-9.171875
1696085537826,-0.17089844,-0.78375244,0.45111084,5.109375,29.125,-6.25
1696085537869,-0.07080078,-0.66070557,0.30706787,2.34375,26.25,-8.4375
1696085537915,0.0024414062,-0.7390747,0.2687378,8.21875,27.21875,-7.953125
1696085537944,0.017333984,-0.75567627,0.23065186,6.640625,23.25,-9.515625
1696085537989,0.053710938,-0.89727783,0.22772217,8.140625,15.296875,-7.765625
1696085538035,-0.005126953,-0.84576416,0.31951904,8.75,14.625,-6.171875
1696085538064,-0.02368164,-0.7481079,0.3571167,7.234375,12.078125,-4.546875
1696085538109,-0.033203125,-0.8562622,0.3961792,3.265625,7.265625,-6.296875
1696085538170,-0.091552734,-0.88848877,0.46746826,0.3125,4.65625,-8.28125
1696085538185,-0.072021484,-0.8430786,0.44354248,-3.078125,4.375,-6.640625
1696085538230,-0.056640625,-0.8323364,0.41522217,-5.03125,-0.25,-6.46875
1696085538259,0.018554688,-0.8401489,0.40374756,-2.9375,-5.015625,-1.796875
1696085538304,0.016845703,-0.94537354,0.32904053,-6.515625,-19.203125,0.984375
1696085538350,-0.0053710938,-1.107727,0.18719482,-2.3125,-33.921875,9.125
1696085538381,-0.20629883,-1.3579712,0.33050537,5.890625,-32.296875,5.921875
1696085538425,-0.5551758,-1.8482056,0.49871826,-6.875,-27.78125,-6.28125
1696085538454,-0.18041992,-1.3330688,0.30096436,-3.71875,-9.78125,0.8125
1696085538500,-0.19067383,-0.88287354,0.55145264,11.8125,-2.203125,7.3125
1696085538546,-0.35668945,-0.99005127,0.31292725,-0.921875,3.046875,-0.0625
1696085538575,-0.021484375,-0.80792236,0.090026855,4.25,-3.25,5.109375
1696085538619,-0.04711914,-0.8027954,0.16864014,13.328125,-11.90625,6.890625
1696085538650,-0.114990234,-0.9522095,0.26190186,7.21875,-19.40625,8.484375
1696085538695,-0.17944336,-0.89630127,0.19696045,1.765625,-14.53125,8.21875
1696085538741,-0.24902344,-1.0095825,0.2987671,-2.515625,-7.84375,0.9375
1696085538773,-0.4128418,-0.9517212,0.27313232,-1.53125,4.0,-6.140625
1696085538815,-0.078125,-1.0254517,0.25726318,-4.375,6.0,-5.015625
1696085538859,0.10107422,-1.1397095,0.4389038,-2.296875,-3.96875,4.96875
1696085538890,-0.18481445,-0.9534302,0.35369873,5.21875,7.8125,9.828125
1696085538936,-0.087402344,-0.93927,0.20843506,1.171875,1.984375,3.28125
1696085538965,-0.08886719,-0.9573364,0.26678467,14.15625,1.484375,6.125
1696085539009,-0.15258789,-0.97003174,0.40570068,8.859375,4.65625,2.875
1696085539054,-0.14819336,-0.954895,0.27874756,-0.640625,9.625,0.578125
1696085539085,-0.055908203,-0.987854,0.2868042,2.84375,7.140625,-0.34375
1696085539130,-0.09472656,-1.0071411,0.2748413,6.75,8.78125,1.421875
1696085539204,-0.09082031,-0.9639282,0.30950928,5.25,7.796875,2.375
1696085539211,-0.114990234,-0.98638916,0.30975342,2.796875,7.671875,0.96875
1696085539250,-0.09643555,-0.9841919,0.2748413,1.5625,7.234375,0.140625
1696085539279,-0.080322266,-0.98394775,0.2694702,2.09375,6.3125,-0.15625
1696085539325,-0.0949707,-0.97613525,0.2753296,2.703125,5.140625,0.71875
1696085539371,-0.092041016,-0.987854,0.28460693,1.5625,3.828125,0.234375
1696085539399,-0.09399414,-0.9783325,0.26849365,0.3125,3.03125,0.296875
1696085539445,-0.07739258,-0.98638916,0.27459717,1.5,1.421875,0.8125
1696085539476,-0.0847168,-0.9805298,0.27313232,1.8125,0.65625,0.859375
1696085539519,-0.1015625,-0.98394775,0.27215576,0.796875,0.546875,1.078125
1696085539565,-0.10449219,-0.97979736,0.28240967,0.25,-0.078125,1.03125
1696085539596,-0.072753906,-0.9961548,0.23040771,-2.484375,0.671875,0.265625
1696085539641,-0.1027832,-0.9702759,0.293396,2.171875,-1.703125,1.265625
1696085539687,-0.11694336,-0.98321533,0.27337646,-0.875,0.015625,-0.21875
1696085539714,-0.100097656,-0.98101807,0.28167725,1.234375,-0.25,0.71875
1696085539760,-0.09448242,-0.97906494,0.2748413,-0.28125,0.390625,0.03125
1696085539790,-0.11230469,-0.9751587,0.2843628,-0.203125,0.71875,-0.21875
1696085539835,-0.10595703,-0.98321533,0.293396,-1.4375,1.25,0.109375
1696085539881,-0.10620117,-0.9846802,0.28167725,-1.734375,2.5,0.15625
1696085539910,-0.10839844,-0.9673462,0.27630615,-3.015625,1.078125,-0.859375
1696085539955,-0.09692383,-0.97784424,0.30389404,-2.6875,1.109375,-1.328125
1696085540030,-0.111083984,-0.97784424,0.30633545,-2.9375,1.40625,-0.578125
1696085540033,-0.12133789,-0.9636841,0.29144287,-3.796875,0.90625,-0.890625
1696085540074,-0.11254883,-0.9734497,0.30975342,-2.234375,0.484375,-0.390625
1696085540104,-0.10986328,-0.96588135,0.31756592,-0.609375,0.671875,0.125
1696085540149,-0.12011719,-0.9727173,0.3012085,-2.015625,0.65625,-0.09375
1696085540195,-0.12060547,-0.97125244,0.3270874,-1.59375,0.0625,0.03125
1696085540224,-0.122558594,-0.9976196,0.28607178,-4.359375,3.1875,-0.171875
1696085540271,-0.118896484,-0.9578247,0.32757568,-1.25,-0.6875,1.03125
1696085540300,-0.13208008,-0.9697876,0.30560303,-4.0,0.296875,-0.609375
1696085540345,-0.12109375,-0.97735596,0.3649292,0.1875,0.15625,0.46875
1696085540390,-0.11303711,-0.95562744,0.32440186,-2.71875,0.921875,0.015625
1696085540419,-0.12719727,-0.96173096,0.34295654,-0.796875,0.375,-0.1875
1696085540465,-0.12060547,-0.9697876,0.34783936,-0.484375,-0.328125,0.171875
1696085540509,-0.12817383,-0.9673462,0.33709717,-1.0,-0.140625,0.65625
1696085540540,-0.12695312,-0.9570923,0.33880615,-0.84375,0.671875,0.234375
1696085540585,-0.12866211,-0.9561157,0.3480835,1.265625,0.546875,0.46875
1696085540615,-0.11669922,-0.96343994,0.3348999,0.71875,0.078125,0.75
1696085540660,-0.115234375,-0.9602661,0.3348999,0.296875,0.5,0.53125
1696085540736,-0.13134766,-0.9607544,0.3451538,1.828125,0.5,1.03125
1696085540740,-0.1303711,-0.96221924,0.3456421,2.0625,1.71875,1.078125
1696085540783,-0.13720703,-0.9614868,0.33563232,2.234375,3.015625,0.796875
1696085540826,-0.15112305,-0.95562744,0.3612671,6.703125,5.125,1.03125
1696085540854,-0.1694336,-0.9138794,0.41278076,7.9375,8.46875,-1.140625
1696085540899,-0.19384766,-0.9612427,0.29437256,2.640625,12.96875,-2.78125
1696085540929,-0.19921875,-0.93218994,0.35882568,7.3125,15.1875,-4.1875
1696085540975,-0.15893555,-0.96588135,0.27679443,7.8125,13.921875,-3.453125
1696085541022,-0.19262695,-0.9624634,0.3439331,7.578125,13.5625,-4.0625
1696085541050,-0.19555664,-0.9656372,0.3217163,6.765625,14.734375,-2.90625
1696085541094,-0.20410156,-0.9741821,0.30755615,6.296875,15.453125,-3.109375
1696085541139,-0.21069336,-0.9483032,0.28338623,5.703125,19.875,-3.015625
1696085541171,-0.22973633,-0.95977783,0.29241943,5.65625,20.375,-3.03125
1696085541215,-0.24194336,-0.9678345,0.2897339,4.734375,22.265625,-2.234375
1696085541244,-0.2421875,-0.9524536,0.2711792,3.640625,24.46875,-2.15625
1696085541290,-0.24414062,-0.95880127,0.27996826,2.6875,25.25,-1.78125
1696085541334,-0.27368164,-0.956604,0.28167725,1.953125,27.046875,-1.640625
1696085541365,-0.24243164,-0.96221924,0.26605225,-0.171875,27.953125,-1.90625
1696085541410,-0.2529297,-0.9417114,0.33172607,2.21875,26.65625,-0.546875
1696085541439,-0.26049805,-0.90997314,0.37176514,0.671875,27.96875,-1.75
1696085541484,-0.27197266,-0.9788208,0.27923584,-5.53125,28.453125,-2.765625
1696085541532,-0.24194336,-1.0747681,0.37078857,-9.03125,24.265625,-4.59375
1696085541559,-0.23461914,-1.2090454,0.36151123,-7.546875,24.375,-5.28125
1696085541604,-0.23071289,-0.991272,0.2814331,-0.375,41.640625,-7.171875
1696085541650,-0.12841797,-0.8945923,0.15081787,-2.765625,31.296875,-7.5625
1696085541679,-0.0075683594,-0.86431885,0.24749756,3.96875,29.125,-6.8125
1696085541725,0.092285156,-0.9151001,0.2711792,6.53125,29.0,-1.46875
1696085541755,0.048828125,-1.0462036,0.31292725,4.703125,34.125,-3.65625
1696085541800,-0.17163086,-1.0454712,0.2909546,3.171875,37.953125,-9.46875
1696085541844,-0.08569336,-1.02594,0.27825928,7.65625,42.15625,-12.6875
1696085541875,-0.036132812,-0.8670044,0.3114624,10.984375,46.421875,-6.53125
1696085541919,-0.07763672,-0.9180298,0.30877686,7.15625,42.328125,-6.78125
1696085541965,-0.029296875,-0.92803955,0.26483154,5.953125,41.1875,-6.578125
1696085542009,0.0075683594,-0.94537354,0.2975464,9.15625,38.921875,-5.765625
1696085542045,-0.029541016,-0.9859009,0.324646,4.53125,36.703125,-6.046875
1696085542068,-0.10229492,-0.8855591,0.29901123,7.734375,33.59375,-3.515625
1696085542115,-0.08154297,-0.89263916,0.28411865,4.671875,32.171875,-8.421875
1696085542159,-0.010009766,-0.98809814,0.27825928,4.984375,23.875,-4.703125
1696085542190,0.084472656,-0.9771118,0.2633667,6.640625,20.625,4.046875
1696085542234,-0.13623047,-0.9937134,0.46038818,6.609375,30.96875,-7.0
1696085542265,-0.31298828,-1.1235962,0.42132568,-8.71875,38.03125,-19.171875
1696085542310,-0.075683594,-1.1851196,0.22698975,-11.375,23.671875,-17.640625
1696085542354,-0.08520508,-1.130188,0.1984253,7.4375,21.046875,-7.765625
1696085542385,-0.2927246,-0.9612427,0.246521,14.015625,46.859375,-5.09375
1696085542429,-0.2529297,-0.8479614,0.007751465,-4.0,46.609375,-9.640625
1696085542474,0.10058594,-1.1384888,0.023132324,-0.375,28.171875,-6.09375
1696085542504,-0.16015625,-0.9751587,0.19940186,16.15625,30.21875,-2.625
1696085542549,-0.33569336,-1.0213013,0.24041748,3.5,39.484375,-7.875
1696085542582,-0.26098633,-0.9273071,0.1642456,2.515625,47.65625,-7.546875
1696085542624,-0.1665039,-0.9151001,0.059509277,1.734375,44.578125,-5.0625
1696085542670,-0.16455078,-0.8796997,0.11126709,7.125,33.21875,-5.375
1696085542699,-0.21777344,-0.9273071,0.13763428,2.265625,27.46875,-4.515625
1696085542745,-0.19750977,-0.913147,0.23797607,2.78125,22.203125,-1.25
1696085542792,-0.17089844,-0.95806885,0.16107178,-5.65625,11.71875,1.34375
1696085542819,-0.2006836,-0.99346924,0.25946045,-5.59375,11.015625,1.5625
1696085542865,-0.23510742,-1.0239868,0.28582764,-9.828125,17.03125,3.125
1696085542894,-0.20385742,-1.0713501,0.35369873,-18.296875,16.765625,3.046875
1696085542940,-0.017333984,-1.4224243,0.48382568,-26.421875,10.625,-0.21875
1696085542985,-0.1352539,-1.0825806,0.2994995,-4.765625,26.5,2.03125
1696085543014,0.026367188,-0.8748169,0.19281006,-15.0,15.015625,1.625
1696085543059,0.05517578,-0.69659424,0.168396,9.796875,12.421875,7.234375
1696085543105,0.03540039,-0.9487915,0.28631592,4.234375,11.25,-0.078125
1696085543134,-0.0637207,-1.0320435,0.2723999,-5.453125,18.859375,-3.625
1696085543180,-0.012939453,-1.0491333,0.32269287,-2.796875,25.59375,-5.953125
1696085543210,0.014404297,-0.9819946,0.32635498,4.5,29.40625,-3.90625
1696085543285,0.041259766,-0.9314575,0.37420654,2.078125,27.28125,-4.75
1696085543299,0.047607422,-0.92315674,0.3007202,-1.3125,29.234375,-5.25
1696085543330,0.05883789,-0.92559814,0.37420654,1.765625,29.59375,-6.40625
1696085543375,0.025878906,-0.90948486,0.30413818,-0.78125,31.171875,-8.765625
1696085543405,0.05419922,-0.9500122,0.29388428,1.40625,29.640625,-11.109375
1696085543450,0.064697266,-0.9636841,0.35369873,1.453125,28.359375,-11.578125
1696085543495,0.07006836,-0.9338989,0.3751831,1.71875,30.78125,-11.171875
1696085543524,0.052001953,-0.95928955,0.37322998,-2.65625,29.8125,-12.421875
1696085543569,-0.055419922,-1.041565,0.33587646,-4.703125,26.5625,-14.390625
1696085543614,-0.1105957,-1.0747681,0.32781982,-6.96875,23.484375,-17.03125
1696085543645,0.0043945312,-0.9390259,0.18841553,3.96875,25.921875,-7.828125
1696085543690,0.03540039,-0.97906494,0.28216553,4.96875,12.90625,-1.65625
1696085543719,-0.11450195,-1.013977,0.2567749,0.59375,10.890625,-4.828125
1696085543764,-0.19799805,-0.940979,0.27679443,2.25,16.640625,-7.84375
1696085543810,-0.14990234,-0.9590454,0.21551514,-4.15625,16.6875,-10.265625
1696085543839,-0.13793945,-0.9573364,0.23895264,-0.359375,10.609375,-8.96875
1696085543884,-0.12768555,-1.006897,0.28167725,-4.328125,10.421875,-9.390625
1696085543930,-0.095703125,-0.98028564,0.3949585,-0.5,11.078125,-5.90625
1696085543960,-0.07446289,-0.9690552,0.35784912,-2.609375,13.140625,-4.546875
1696085544004,-0.06933594,-0.96221924,0.3295288,1.15625,6.765625,-2.921875
1696085544035,-0.07373047,-0.9421997,0.3632202,5.09375,2.9375,-1.109375
1696085544080,-0.09887695,-0.9534302,0.3517456,5.296875,1.3125,-0.515625
1696085544125,-0.095214844,-0.9578247,0.33514404,3.734375,0.265625,-1.421875
1696085544155,-0.100097656,-0.9656372,0.36029053,4.328125,-0.4375,-2.125
1696085544200,-0.091308594,-0.97662354,0.3390503,2.875,-1.53125,-1.203125
1696085544231,-0.091308594,-0.96881104,0.32977295,2.90625,-2.84375,-0.578125
1696085544274,-0.13305664,-0.95098877,0.340271,4.515625,-2.59375,0.359375
1696085544320,-0.111816406,-0.9812622,0.3468628,3.46875,-0.546875,0.21875
1696085544350,-0.103515625,-0.94415283,0.36517334,5.546875,-1.546875,1.1875
1696085544395,-0.07763672,-0.9483032,0.36834717,3.421875,-1.875,0.546875
1696085544440,-0.10058594,-0.9807739,0.31488037,2.0,-3.203125,1.828125
1696085544469,-0.1015625,-0.9627075,0.34295654,1.671875,-2.796875,1.03125
1696085544515,-0.1159668,-0.9758911,0.34075928,3.53125,-2.4375,1.46875
1696085544575,-0.106933594,-0.96539307,0.32537842,1.15625,-2.171875,1.109375
1696085544593,-0.122558594,-0.975647,0.31707764,1.5625,-2.28125,1.015625
1696085544634,-0.12109375,-0.9717407,0.32977295,1.6875,-1.859375,0.984375
1696085544665,-0.10449219,-0.9639282,0.31976318,1.59375,-1.890625,1.328125
1696085544709,-0.11352539,-0.96661377,0.31610107,0.546875,-2.046875,0.90625
1696085544770,-0.10839844,-0.97735596,0.32440186,1.0625,-1.65625,0.9375
1696085544785,-0.110839844,-0.97052,0.3204956,1.578125,-0.921875,1.359375
1696085544830,-0.10424805,-0.958313,0.3102417,0.921875,-0.9375,0.703125
1696085544861,-0.11230469,-0.96832275,0.32635498,1.71875,-0.984375,1.046875
1696085544905,-0.11035156,-0.97320557,0.3114624,0.90625,-0.234375,0.734375
1696085544950,-0.10839844,-0.96173096,0.31488037,1.1875,-0.4375,0.640625
1696085544979,-0.09765625,-0.9963989,0.26922607,-2.0,1.140625,0.953125
1696085545025,-0.11352539,-0.95928955,0.32122803,3.53125,-0.953125,1.859375
1696085545054,-0.10498047,-0.97540283,0.28631592,-1.125,-0.125,0.046875
1696085545100,-0.10473633,-0.97662354,0.32489014,2.3125,-0.78125,0.75
1696085545145,-0.10449219,-0.9619751,0.30438232,0.671875,0.421875,0.484375
1696085545176,-0.11035156,-0.9795532,0.30511475,0.453125,-0.375,-0.046875
1696085545219,-0.10522461,-0.9819946,0.3168335,0.34375,-0.03125,0.4375
1696085545265,-0.10546875,-0.96832275,0.31341553,1.125,0.5625,0.515625
1696085545294,-0.12011719,-0.9734497,0.30169678,0.5625,-0.203125,0.3125
1696085545339,-0.11376953,-0.9680786,0.31976318,0.890625,0.4375,-0.328125
1696085545370,-0.122558594,-0.9771118,0.307312,0.734375,0.65625,0.03125
1696085545420,-0.11645508,-0.97320557,0.30828857,0.921875,0.71875,-0.40625
1696085545460,-0.123291016,-0.9673462,0.30999756,1.34375,0.875,-0.875
1696085545490,-0.11230469,-0.97125244,0.30999756,1.1875,0.875,-1.046875
1696085545535,-0.10644531,-0.97491455,0.3151245,0.171875,1.875,-0.953125
1696085545579,-0.10913086,-0.96710205,0.30096436,-0.8125,1.484375,-1.09375
1696085545609,-0.11767578,-0.9578247,0.34588623,0.8125,1.34375,-1.265625
1696085545655,-0.088378906,-0.9512329,0.31756592,-2.828125,2.71875,-2.5
1696085545684,-0.11352539,-0.98101807,0.2897339,-3.78125,0.28125,-1.59375
1696085545732,-0.11816406,-0.95196533,0.3390503,-2.484375,-0.140625,-1.953125
1696085545775,-0.13476562,-0.9776001,0.33050537,0.109375,0.65625,-1.375
1696085545805,-0.107177734,-0.94732666,0.30584717,-1.953125,0.765625,-1.8125
1696085545850,-0.14257812,-0.9624634,0.32757568,-0.203125,0.546875,-1.4375
1696085545895,-0.12963867,-0.97613525,0.34197998,0.796875,0.765625,-1.359375
1696085545924,-0.12451172,-0.9590454,0.3234253,0.109375,0.59375,-0.84375
1696085545969,-0.13598633,-0.96051025,0.32855225,0.984375,0.484375,-0.71875
1696085546000,-0.13769531,-0.9595337,0.33050537,1.453125,0.3125,-0.625
1696085546044,-0.13793945,-0.96881104,0.32244873,0.65625,0.4375,-0.671875
1696085546090,-0.14086914,-0.95928955,0.32366943,0.75,0.28125,-0.46875
1696085546119,-0.13598633,-0.96051025,0.32122803,1.484375,-0.234375,-0.03125
1696085546164,-0.15283203,-0.9602661,0.32537842,1.984375,-0.0625,-0.171875
1696085546195,-0.14282227,-0.9619751,0.31829834,1.671875,-0.5,0.0625
1696085546241,-0.14746094,-0.9751587,0.31195068,0.875,-1.5,-0.484375
1696085546284,-0.16870117,-0.9558716,0.35931396,4.71875,-1.140625,-0.0625
1696085546314,-0.15283203,-0.9468384,0.38616943,1.859375,-0.765625,-0.9375
1696085546359,-0.17456055,-0.9590454,0.2736206,-1.609375,-0.515625,-0.65625
1696085546405,-0.19165039,-0.9578247,0.36444092,1.546875,1.328125,-0.578125
1696085546435,-0.19580078,-0.9590454,0.30975342,1.8125,2.21875,-0.03125
1696085546480,-0.17822266,-0.95147705,0.3156128,2.21875,3.046875,-0.3125
1696085546509,-0.2006836,-0.9758911,0.32000732,2.453125,2.53125,-0.21875
1696085546554,-0.19995117,-0.9529419,0.32806396,3.8125,2.046875,0.671875
1696085546600,-0.22753906,-0.9512329,0.32733154,2.78125,3.421875,-0.203125
1696085546629,-0.23535156,-0.94854736,0.32928467,2.375,3.640625,0.078125
1696085546674,-0.23583984,-0.94659424,0.33343506,3.875,2.21875,-0.484375
1696085546720,-0.22680664,-0.95806885,0.33685303,4.234375,2.828125,0.125
1696085546749,-0.21875,-0.94317627,0.31243896,4.0,2.828125,0.859375
1696085546795,-0.21020508,-0.94659424,0.3156128,4.078125,1.21875,1.578125
1696085546826,-0.23046875,-0.9483032,0.31536865,4.4375,1.96875,1.953125
1696085546869,-0.2097168,-0.9534302,0.30316162,2.171875,0.828125,2.953125
1696085546914,-0.21069336,-0.9817505,0.2736206,0.46875,0.03125,4.78125
1696085546944,-0.20825195,-0.95513916,0.3307495,1.84375,-1.265625,5.203125
1696085546990,-0.21508789,-0.98150635,0.29730225,-6.75,-0.328125,4.671875
1696085547019,-0.19702148,-0.9692993,0.3920288,-6.125,-3.390625,6.25
1696085547065,-0.1809082,-1.0005493,0.3163452,-11.96875,-5.9375,6.96875
1696085547125,-0.1616211,-1.0325317,0.36956787,-7.609375,-5.53125,7.015625
1696085547140,-0.10253906,-0.9963989,0.27166748,-7.125,-8.8125,9.96875
1696085547185,-0.092041016,-1.019104,0.28363037,-4.921875,-14.328125,11.265625
1696085547230,-0.15844727,-0.92266846,0.31781006,1.625,-7.40625,10.203125
1696085547259,-0.034423828,-0.7686157,0.3007202,6.796875,-1.90625,10.078125
1696085547305,-0.05419922,-0.9326782,0.35736084,5.1875,-1.015625,4.859375
1696085547335,-0.07080078,-1.1433716,0.38909912,-1.8125,-0.765625,0.109375
1696085547379,0.010253906,-1.0198364,0.3287964,0.75,-1.546875,1.09375
1696085547424,-0.024169922,-0.9771118,0.4237671,3.6875,-0.34375,3.203125
1696085547456,-0.034423828,-0.8989868,0.42303467,0.609375,-0.578125,3.828125
1696085547500,-0.033935547,-0.8008423,0.41937256,2.140625,-0.46875,4.546875
1696085547575,-0.024414062,-0.7686157,0.33319092,0.265625,4.859375,1.71875
1696085547579,-0.029296875,-0.73883057,0.24261475,0.46875,5.078125,-1.421875
1696085547619,-0.08227539,-0.67755127,0.3287964,-0.859375,7.140625,-8.75
1696085547650,-0.01953125,-0.7312622,0.36175537,-5.890625,3.828125,-9.0625
1696085547695,-0.0061035156,-0.76763916,0.41986084,-6.5,4.75,-5.5
1696085547740,-0.032714844,-0.7473755,0.37591553,-8.296875,2.328125,-2.6875
1696085547769,-0.028564453,-0.78082275,0.36029053,-9.0625,-1.171875,-4.046875
1696085547815,-0.021484375,-1.0564575,0.25482178,-8.5625,-10.921875,-1.96875
1696085547844,0.0063476562,-1.258606,0.20159912,1.640625,-19.390625,7.0
1696085547889,-0.2902832,-1.4446411,0.27557373,16.65625,-2.453125,6.21875
1696085547934,-0.20141602,-1.3423462,0.54071045,3.46875,0.0625,1.890625
1696085547965,-0.12451172,-1.6699829,0.57733154,-14.640625,-14.203125,2.34375
1696085548010,-0.3540039,-1.0691528,0.23699951,2.1875,5.390625,1.28125
1696085548055,-0.10620117,-0.8557739,0.3949585,1.59375,-0.53125,3.546875
1696085548084,-0.20800781,-0.79278564,0.28851318,-3.4375,-7.578125,6.40625
1696085548130,-0.08520508,-0.70025635,0.08441162,1.84375,-13.546875,9.59375
1696085548161,-0.109375,-0.74053955,0.13494873,3.390625,-18.5625,6.40625
1696085548206,-0.16503906,-0.7781372,0.2682495,1.078125,-12.078125,7.5
1696085548250,-0.1574707,-0.7449341,0.3217163,-0.921875,-5.0625,7.578125
1696085548280,-0.13989258,-0.6958618,0.28070068,-2.28125,0.890625,5.703125
1696085548325,-0.15673828,-0.6921997,0.27630615,-0.265625,0.328125,3.53125
1696085548416,-0.2512207,-0.8674927,0.340271,-6.609375,-4.875,-3.4375
1696085548421,-0.20727539,-0.8467407,0.31585693,-6.921875,-1.28125,-0.609375
1696085548449,0.00390625,-0.6939087,0.24212646,-3.0,-2.765625,6.546875
1696085548475,0.009521484,-1.2705688,0.62835693,-0.625,-1.140625,-5.953125
1696085548520,-0.17578125,-2.0,0.635437,-7.796875,10.484375,-2.71875
1696085548565,0.25976562,-1.2913208,0.4821167,-6.0625,28.390625,0.09375
1696085548595,0.017333984,-1.4190063,0.56781006,2.96875,8.328125,-4.3125
1696085548654,0.060546875,-1.0752563,0.55804443,8.375,8.9375,10.3125
1696085548686,-0.03930664,-0.7793579,0.45257568,10.515625,17.609375,9.75
1696085548715,-0.05102539,-0.60162354,0.32000732,6.90625,18.875,2.3125
1696085548760,0.021484375,-0.74957275,0.1984253,6.828125,19.25,-3.078125
1696085548789,0.06616211,-0.7803345,0.25579834,4.125,19.3125,-2.890625
1696085548834,9.765625E-4,-0.7637329,0.27142334,-1.59375,17.5625,-1.984375
1696085548882,0.05444336,-0.9854126,0.4100952,-6.015625,8.828125,-4.953125
1696085548910,-0.005126953,-0.9924927,0.40985107,-3.765625,10.5,-7.453125
1696085548954,0.0034179688,-0.86920166,0.4376831,-6.078125,13.8125,-8.953125
1696085548985,-0.041748047,-0.7962036,0.46307373,-4.828125,9.40625,-7.828125
1696085549030,0.011962891,-0.788147,0.3925171,-4.546875,0.328125,-6.0
1696085549075,0.055664062,-0.7998657,0.39178467,-2.953125,-4.328125,-2.390625
1696085549105,0.095703125,-0.8335571,0.401062,-7.484375,-12.96875,1.6875
1696085549150,0.03515625,-0.8242798,0.46966553,-7.6875,-9.59375,2.234375
1696085549195,0.040527344,-1.0061646,0.3065796,-10.375,-14.953125,3.3125
1696085549224,-0.037597656,-1.1355591,0.34613037,-3.109375,-20.84375,4.953125
1696085549270,-0.23730469,-1.0962524,0.32904053,10.140625,-4.96875,3.078125
1696085549300,-0.25561523,-1.3184204,0.51898193,2.984375,-8.1875,-3.671875
1696085549345,-0.19482422,-1.7232056,0.62957764,-4.40625,-16.6875,-3.0
1696085549390,-0.05517578,-0.9846802,0.46502686,14.28125,0.453125,4.265625
1696085549420,-0.13769531,-0.975647,0.543396,-1.90625,-3.9375,2.828125
1696085549464,-0.13012695,-0.803772,0.41253662,-2.484375,-6.6875,8.828125
1696085549509,-0.068847656,-0.7373657,0.21551514,1.796875,-17.125,9.109375
1696085549539,-0.20263672,-0.8340454,0.2711792,5.015625,-15.296875,9.4375
1696085549585,-0.16479492,-0.86920166,0.36273193,2.359375,-12.59375,8.578125
1696085549616,-0.17602539,-0.8362427,0.42669678,2.0625,1.78125,6.71875
1696085549691,-0.056152344,-0.86724854,0.32147217,-6.640625,3.203125,6.03125
1696085549705,0.03125,-0.6831665,0.3295288,2.171875,-4.90625,14.09375
1696085549735,-0.1418457,-0.6807251,0.3961792,2.359375,-6.265625,12.453125
1696085549781,-0.18408203,-0.7390747,0.40374756,-6.34375,-6.015625,5.4375
1696085549809,-0.20214844,-0.66363525,0.3468628,0.296875,-2.078125,2.25
1696085549855,-0.1862793,-0.75250244,0.37176514,-2.203125,1.46875,-6.90625
1696085549900,-0.10571289,-0.894104,0.38226318,5.5,5.8125,-11.75
1696085549930,0.057617188,-1.3132935,0.24847412,13.703125,2.828125,-10.5625
1696085549975,0.29833984,-1.7954712,0.5704956,1.21875,-1.21875,-1.90625
1696085550020,0.011474609,-1.5964966,0.6415405,-6.5625,8.734375,-6.765625
1696085550049,-0.012939453,-1.2893677,0.6107788,4.640625,4.28125,-0.40625
1696085550096,-0.12597656,-0.8718872,0.5397339,1.84375,11.484375,3.21875
1696085550125,-0.06567383,-0.7334595,0.40667725,10.453125,14.28125,4.390625
1696085550169,-0.017089844,-0.75006104,0.28826904,15.4375,11.109375,4.34375
1696085550215,0.037597656,-0.78204346,0.2892456,12.59375,14.046875,2.265625
1696085550244,0.008056641,-0.82647705,0.31903076,16.40625,12.84375,1.515625
1696085550289,-0.02368164,-0.94317627,0.36810303,17.3125,12.03125,4.03125
1696085550334,0.021972656,-0.7896118,0.28753662,19.03125,10.0,3.6875
1696085550364,0.01928711,-0.8428345,0.25482178,23.359375,-0.625,9.453125
1696085550409,0.115478516,-0.70098877,0.24554443,19.0625,5.921875,2.25
1696085550440,0.09033203,-0.78912354,0.21356201,14.5625,6.609375,-0.28125
1696085550485,0.049316406,-0.8792114,0.22503662,4.71875,0.421875,-8.59375
1696085550532,0.10473633,-0.89312744,0.23260498,-5.25,4.1875,-9.953125
1696085550560,0.016113281,-0.897522,0.23382568,-11.21875,-1.65625,-9.234375
1696085550605,0.06933594,-0.99835205,0.14471436,-12.625,-9.25,-10.078125
1696085550650,0.080566406,-1.1448364,0.024108887,-5.15625,-20.078125,-0.46875
1696085550679,-0.10864258,-1.2686157,0.16229248,5.90625,-14.90625,5.234375
1696085550724,-0.30517578,-1.2642212,0.38568115,3.03125,-10.046875,-1.5625
1696085550754,-0.15234375,-1.5344849,0.2909546,-13.609375,-12.859375,-9.859375
1696085550800,-0.10668945,-1.2922974,0.14886475,0.78125,-0.953125,2.71875
1696085550845,-0.13500977,-1.0425415,0.3222046,-2.140625,1.59375,-0.375
1696085550891,-0.14135742,-1.0144653,0.2501831,-5.203125,-5.84375,2.46875
1696085550919,-0.068847656,-0.8718872,0.16082764,-0.390625,-8.328125,7.09375
1696085550965,-0.15185547,-0.8284302,0.17645264,2.953125,-8.234375,7.234375
1696085550994,-0.06274414,-0.835022,0.18817139,-1.390625,-11.375,8.015625
1696085551040,-0.119140625,-0.8106079,0.28070068,-2.265625,-6.859375,7.9375
1696085551070,-0.21435547,-0.829895,0.2723999,-7.140625,-0.3125,4.421875
1696085551114,-0.052978516,-0.7971802,0.2189331,-7.953125,2.015625,2.859375
1696085551160,-0.03466797,-0.70147705,0.2682495,0.140625,-5.09375,5.890625
1696085551189,-0.14404297,-0.79351807,0.24627686,-7.859375,-3.828125,2.578125
1696085551234,-0.15820312,-0.7271118,0.2748413,-4.6875,-4.0625,0.859375
1696085551265,-0.12988281,-0.75494385,0.24359131,-6.96875,-3.453125,-2.65625
1696085551311,-0.079833984,-0.9343872,0.30999756,-6.453125,0.25,-6.46875
1696085551357,0.020019531,-1.4590454,0.39227295,-7.734375,-2.875,-9.1875
1696085551384,0.06591797,-1.7415161,0.5687866,-8.640625,9.5,-1.875
1696085551429,0.005126953,-1.380188,0.5331421,-13.953125,11.984375,-7.21875
1696085551506,0.028320312,-1.3921509,0.5453491,-2.71875,4.15625,-4.34375
1696085551509,-0.06225586,-0.9282837,0.47235107,2.0625,13.34375,0.546875
1696085551550,-0.095214844,-0.64312744,0.33929443,2.84375,15.9375,-0.984375
1696085551579,0.009765625,-0.72320557,0.29779053,2.484375,11.28125,-3.71875
1696085551624,0.05419922,-0.8501587,0.3283081,5.75,8.625,-0.71875
1696085551671,0.0034179688,-0.77178955,0.26556396,5.234375,10.171875,1.171875
1696085551700,0.042236328,-0.7617798,0.3366089,2.484375,10.1875,-2.953125
1696085551744,-0.03881836,-0.7061157,0.34613037,0.53125,9.0,-0.296875
1696085551774,-0.008056641,-0.70928955,0.3842163,3.65625,8.515625,0.109375
1696085551819,-0.0031738281,-0.7102661,0.30511475,-3.28125,5.9375,-3.390625
1696085551865,-0.051757812,-0.7805786,0.40740967,-2.625,12.921875,-4.1875
1696085551894,-0.011474609,-0.87164307,0.27069092,-8.0625,11.296875,-1.484375
1696085551939,0.10229492,-0.9614868,0.2538452,-4.03125,-2.0625,-0.65625
1696085551985,0.06713867,-1.1526489,0.13104248,4.640625,-12.1875,8.09375
1696085552015,-0.06616211,-1.4277954,0.38372803,22.453125,-12.25,3.484375
1696085552060,-0.28393555,-1.5308228,0.6676636,0.203125,-0.109375,4.609375
1696085552089,-0.057617188,-1.5559692,0.5687866,-26.3125,-14.015625,3.390625
1696085552135,-0.16308594,-1.2984009,0.26141357,5.046875,-8.6875,5.5625
1696085552181,-0.1459961,-1.0459595,0.41156006,-0.265625,4.6875,4.984375
1696085552255,-0.0073242188,-0.8875122,0.33953857,-6.40625,-6.640625,7.609375
1696085552260,0.011474609,-0.7649536,0.16229248,-0.25,-17.015625,11.53125
1696085552329,-0.09277344,-0.74053955,0.2477417,2.65625,-14.203125,8.46875
1696085552333,-0.15893555,-0.81427,0.3463745,-0.03125,-11.40625,4.34375
1696085552374,-0.09472656,-0.78204346,0.3788452,2.03125,-9.0,3.53125
1696085552404,-0.08569336,-0.8303833,0.27679443,-2.046875,-6.0,2.90625
1696085552449,-0.12402344,-0.77130127,0.40667725,0.3125,-3.359375,3.796875
1696085552494,-0.15136719,-0.72662354,0.31414795,3.40625,-2.546875,2.28125
1696085552525,-0.140625,-0.7227173,0.33465576,4.421875,2.0,3.53125
1696085552570,-0.12475586,-0.6939087,0.24554443,7.59375,-0.84375,1.3125
1696085552600,-0.05126953,-0.7293091,0.23309326,11.8125,-1.09375,-0.015625
1696085552645,-0.017578125,-0.83477783,0.23602295,6.828125,-6.359375,-3.0
1696085552691,-0.022460938,-1.154602,0.31707764,7.65625,1.65625,-10.671875
1696085552719,0.1237793,-1.7044067,0.5036011,-0.453125,4.1875,-5.515625
1696085552765,0.17578125,-1.545227,0.41693115,-1.640625,9.90625,-1.75
1696085552810,7.324219E-4,-1.3914185,0.44525146,5.21875,7.6875,-5.78125
1696085552840,0.039794922,-1.0737915,0.46502686,2.609375,4.3125,3.703125
1696085552885,-0.05444336,-0.9077759,0.36053467,5.640625,5.125,1.0
1696085552914,0.022705078,-0.8726196,0.2789917,6.390625,1.15625,0.828125
1696085552975,0.037353516,-0.84259033,0.2819214,7.8125,2.984375,2.109375
1696085553017,0.032714844,-0.80963135,0.31219482,6.09375,2.0625,-1.34375
1696085553034,0.042236328,-0.8887329,0.3085327,-1.8125,1.5,-6.765625
1696085553086,-0.02709961,-0.8201294,0.35882568,0.5625,3.71875,-3.046875
1696085553126,-9.765625E-4,-0.77960205,0.33343506,0.828125,1.71875,-3.6875
1696085553154,-0.033203125,-0.81427,0.3114624,0.46875,2.328125,-4.34375
1696085553199,-0.055664062,-0.84747314,0.32757568,0.828125,1.984375,-3.6875
1696085553230,-0.068603516,-0.87823486,0.3847046,-2.53125,3.1875,-6.65625
1696085553275,-0.03515625,-0.8123169,0.30755615,-2.09375,2.515625,-3.296875
1696085553319,0.06982422,-0.87579346,0.37445068,-4.375,-4.921875,-0.28125
1696085553349,0.041503906,-0.90411377,0.36834717,0.640625,-11.0,5.203125
1696085553395,0.059814453,-1.0515747,0.22161865,2.34375,-23.203125,7.515625
1696085553443,-0.04321289,-0.92852783,0.10809326,9.015625,-19.15625,9.625
1696085553470,-0.16235352,-1.0801392,0.15545654,9.6875,-23.828125,3.78125
1696085553530,-0.3569336,-1.5498657,0.24359131,6.34375,-28.921875,-4.640625
1696085553545,-0.016357422,-1.4031372,0.30755615,6.953125,-13.484375,6.875
1696085553590,-0.22460938,-1.2471313,0.47406006,2.0625,-7.796875,5.515625
1696085553635,-0.15991211,-1.1838989,0.26971436,-7.25,-8.25,5.8125
1696085553664,-0.052001953,-1.0054321,0.17474365,-1.21875,-8.078125,10.40625
1696085553711,-0.2548828,-0.92633057,0.23504639,-0.828125,-8.484375,9.140625
1696085553740,-0.17211914,-0.8792114,0.19451904,-8.671875,-4.84375,5.53125
1696085553799,-0.076171875,-0.8826294,0.1984253,-7.765625,-7.671875,6.625
1696085553830,-0.16992188,-0.8323364,0.23577881,-4.984375,-1.515625,4.78125
1696085553859,-0.13232422,-0.8088989,0.22528076,-9.0625,2.21875,-0.015625
1696085553904,-0.087402344,-0.7710571,0.24310303,-6.5625,0.203125,1.40625
1696085553951,-0.092041016,-0.7608032,0.31072998,-3.953125,-1.046875,3.03125
1696085553980,-0.07910156,-0.65093994,0.22113037,-1.09375,-2.625,5.953125
1696085554024,-0.076171875,-0.5796509,0.18304443,2.40625,-6.578125,2.296875
1696085554070,-0.063964844,-0.59210205,0.20892334,-1.859375,-9.046875,-3.953125
1696085554099,-0.07470703,-0.7925415,0.13031006,-3.328125,-11.265625,-3.015625
1696085554145,0.059570312,-1.4024048,0.41204834,1.34375,-7.71875,-7.203125
1696085554175,-0.16479492,-1.8533325,0.50775146,5.234375,5.359375,2.859375
1696085554220,0.19921875,-1.7644653,0.54974365,-13.78125,5.40625,-4.46875
1696085554264,-0.14794922,-1.4160767,0.5844116,3.40625,13.90625,-6.40625
1696085554295,-0.17016602,-1.0505981,0.4772339,3.0625,17.171875,-6.765625
1696085554339,-0.056884766,-0.8435669,0.33465576,5.59375,12.296875,0.328125
1696085554373,0.07055664,-0.8098755,0.2958374,10.78125,8.078125,7.03125
1696085554414,0.030517578,-0.75445557,0.23651123,4.546875,10.9375,3.546875
1696085554460,0.055908203,-0.86065674,0.3307495,1.078125,4.875,1.734375
1696085554493,-0.001953125,-0.89678955,0.31097412,-2.484375,4.546875,1.859375
1696085554534,-0.0146484375,-0.8814087,0.43377686,-4.515625,7.578125,-3.671875
1696085554564,-0.08154297,-0.80474854,0.39056396,-6.578125,6.046875,-6.8125
1696085554609,0.0029296875,-0.8088989,0.3986206,-0.6875,3.265625,-5.25
1696085554657,-0.063964844,-0.80010986,0.39349365,-1.203125,3.609375,-4.40625
1696085554684,-0.08276367,-0.7385864,0.32781982,-0.6875,5.21875,-4.4375
1696085554729,-0.0546875,-0.72491455,0.28118896,3.453125,4.515625,-3.25
1696085554805,0.067871094,-0.8555298,0.29901123,2.0,-3.640625,-0.546875
1696085554808,0.061279297,-0.95391846,0.42718506,-3.09375,-12.015625,1.765625
1696085554850,-0.0234375,-0.94976807,0.47210693,-6.171875,-10.984375,4.96875
1696085554880,-0.05444336,-0.9883423,0.25091553,-10.25,-12.765625,2.03125
1696085554925,-0.008544922,-1.0640259,0.11541748,-0.546875,-21.59375,4.75
1696085554971,-0.23168945,-1.1817017,0.26678467,18.125,-13.390625,8.203125
1696085554999,-0.2253418,-1.3035278,0.4225464,5.296875,-18.015625,3.40625
1696085555044,-0.16235352,-1.555481,0.40716553,-3.1875,-17.15625,0.359375
1696085555089,-0.13476562,-1.1184692,0.2699585,14.484375,-0.828125,5.5625
1696085555119,-0.19897461,-1.1091919,0.38104248,5.6875,-2.171875,0.765625
1696085555165,-0.13867188,-0.98883057,0.30682373,-0.65625,-2.453125,5.734375
1696085555195,-0.08642578,-0.8442993,0.19866943,4.15625,-6.25,6.40625
1696085555240,-0.13183594,-0.89508057,0.21917725,3.78125,-8.421875,6.171875
1696085555284,-0.10083008,-0.8723755,0.22747803,-0.109375,-7.265625,5.859375
1696085555314,-0.15795898,-0.84625244,0.2592163,0.015625,-3.359375,5.296875
1696085555359,-0.15185547,-0.8706665,0.27557373,-2.046875,0.46875,3.234375
1696085555405,-0.106933594,-0.8340454,0.2597046,-3.34375,1.109375,4.25
1696085555435,-0.10131836,-0.7683716,0.25579834,-1.359375,-0.125,5.75
1696085555479,-0.18432617,-0.75909424,0.28631592,-1.46875,1.9375,3.171875
1696085555510,-0.20458984,-0.80841064,0.27435303,-4.5,4.5,-1.953125
1696085555554,-0.1027832,-0.7732544,0.24066162,-4.15625,4.3125,-1.25
1696085555599,-0.08105469,-0.76275635,0.2345581,-3.453125,7.765625,-2.28125
1696085555629,4.8828125E-4,-1.0276489,0.26385498,-3.953125,5.046875,-7.28125
1696085555674,0.1237793,-1.6504517,0.49627686,-4.390625,13.890625,-7.375
1696085555705,0.018554688,-1.479065,0.5507202,-5.15625,24.9375,-6.171875
1696085555750,-0.064208984,-1.5064087,0.59417725,-8.3125,15.9375,-12.984375
1696085555794,-0.010986328,-1.2329712,0.5128784,3.25,21.9375,-1.921875
1696085555824,-0.17236328,-0.71295166,0.41644287,7.0,28.078125,-1.109375
1696085555870,-0.0793457,-0.58721924,0.24749756,6.96875,21.515625,-0.96875
1696085555914,0.053955078,-0.78131104,0.22479248,9.71875,22.796875,-2.296875
1696085555944,0.02368164,-0.77545166,0.23040771,6.625,25.234375,-2.625
1696085555990,0.04663086,-0.93951416,0.34490967,6.0625,23.28125,-5.921875
1696085556020,-0.049804688,-0.9956665,0.2868042,5.25,22.828125,-5.40625
1696085556095,0.011962891,-0.7896118,0.28094482,3.078125,24.265625,-7.015625
1696085556109,0.013183594,-0.83062744,0.338562,3.296875,17.625,-7.34375
1696085556141,-0.055908203,-0.8328247,0.3859253,1.5,13.796875,-8.359375
1696085556184,-0.037841797,-0.8242798,0.34466553,1.5,19.6875,-8.90625
1696085556230,0.03930664,-0.9234009,0.3847046,-6.125,10.90625,-11.84375
1696085556259,0.024169922,-0.92803955,0.46795654,-10.171875,6.25,-13.03125
1696085556304,-0.009765625,-0.8665161,0.25579834,-8.484375,8.125,-8.09375
1696085556334,0.061767578,-0.95684814,0.27459717,-16.078125,-8.25,-5.5
1696085556379,-0.11328125,-1.1802368,0.16497803,-10.328125,-20.28125,-2.640625
1696085556425,-0.12768555,-1.2329712,0.21087646,4.453125,-18.421875,0.390625
1696085556454,-0.49267578,-1.7642212,0.39544678,-1.015625,-23.859375,-6.28125
1696085556499,-0.2878418,-1.3684692,0.27020264,5.515625,-7.359375,-2.21875
1696085556530,-0.13183594,-0.7576294,0.48260498,13.234375,1.03125,11.203125
1696085556576,-0.3803711,-0.9209595,0.32806396,5.296875,8.453125,2.078125
1696085556620,-0.10058594,-0.80352783,0.06781006,3.859375,1.15625,8.515625
1696085556649,-0.10986328,-0.90997314,0.10882568,12.984375,-8.984375,5.359375
1696085556694,-0.15942383,-1.019104,0.16131592,4.875,-10.53125,6.09375
1696085556739,-0.13671875,-1.0740356,0.27288818,-6.296875,-8.5,6.390625
1696085556771,-0.22851562,-0.97491455,0.21331787,-14.984375,0.25,9.5625
1696085556815,-0.34936523,-0.73883057,0.3493042,-10.453125,9.484375,2.84375
1696085556844,-0.055664062,-1.2651978,0.3505249,-19.328125,-4.828125,-2.921875
