# Sensor type: Respeck
# Activity type: Sitting
# Activity subtype: Singing
# Subject id: s2497005
# Notes: 
timestamp,accel_x,accel_y,accel_z,gyro_x,gyro_y,gyro_z
1695640139812,0.09692383,0.9647827,0.2814331,-0.8125,1.078125,-2.21875
1695640139850,0.09008789,0.96868896,0.26263428,-1.109375,1.28125,-2.09375
1695640139894,0.08227539,0.9755249,0.27044678,-0.4375,0.78125,-1.78125
1695640139931,0.099121094,0.97332764,0.2736206,-0.203125,0.984375,-2.03125
1695640139971,0.10107422,0.97698975,0.25750732,-0.53125,1.328125,-1.78125
1695640140011,0.0925293,0.97454834,0.27801514,0.703125,0.125,-1.96875
1695640140053,0.10839844,0.9696655,0.27801514,1.28125,0.53125,-1.859375
1695640140093,0.11010742,0.9694214,0.276062,0.015625,1.171875,-1.828125
1695640140131,0.11279297,0.9725952,0.277771,1.046875,0.0,-1.375
1695640140172,0.11987305,0.9760132,0.28045654,1.484375,-0.0625,-1.40625
1695640140213,0.10888672,0.97991943,0.2850952,3.515625,-0.90625,-1.953125
1695640140250,0.11425781,0.97210693,0.28118896,4.9375,-0.921875,-2.390625
1695640140293,0.11816406,0.97454834,0.28582764,4.1875,0.0625,-3.125
1695640140336,0.12109375,0.9743042,0.2982788,4.203125,-0.140625,-2.890625
1695640140372,0.1159668,0.9723511,0.2814331,4.28125,-0.484375,-3.640625
1695640140413,0.115722656,0.9623413,0.30145264,3.5,0.25,-2.53125
1695640140451,0.12963867,0.9508667,0.30804443,1.15625,1.453125,-1.421875
1695640140492,0.13549805,0.9574585,0.29852295,-0.921875,0.109375,0.359375
1695640140537,0.13769531,0.9682007,0.28118896,0.453125,-0.546875,0.453125
1695640140571,0.12646484,0.9645386,0.3143921,-1.953125,-0.8125,-1.390625
1695640140611,0.17895508,0.96624756,0.31854248,-2.546875,-1.1875,-0.296875
1695640140654,0.13720703,0.9598999,0.2929077,-1.59375,-1.984375,-0.09375
1695640140695,0.125,0.9682007,0.30023193,-1.359375,-1.90625,0.171875
1695640140731,0.103271484,0.94866943,0.2662964,-2.171875,-0.296875,0.296875
1695640140773,0.09033203,0.94085693,0.2748413,-5.328125,-1.234375,1.890625
1695640140811,0.088378906,0.9718628,0.26409912,1.734375,1.390625,2.140625
1695640140858,0.115478516,0.9533081,0.2741089,4.5625,0.578125,0.296875
1695640140891,0.14257812,0.97991943,0.29119873,5.0625,3.21875,0.765625
1695640140932,0.13232422,0.9738159,0.29315186,4.234375,-0.140625,-1.140625
1695640140971,0.125,0.96307373,0.2946167,1.984375,0.484375,-0.09375
1695640141012,0.13842773,0.96990967,0.31732178,1.84375,0.5,-0.21875
1695640141053,0.1352539,0.9525757,0.32366943,0.8125,2.21875,-0.3125
1695640141092,0.114990234,0.9555054,0.30584717,2.3125,1.109375,-0.5
1695640141133,0.125,0.94329834,0.31903076,3.6875,1.3125,-0.9375
1695640141176,0.122802734,0.9242554,0.34539795,-2.578125,2.15625,0.125
1695640141216,0.11376953,0.9767456,0.3217163,-1.25,1.609375,0.796875
1695640141252,0.12475586,0.95770264,0.33831787,-1.609375,-0.9375,-0.296875
1695640141293,0.13964844,0.9591675,0.30950928,2.578125,-1.09375,1.1875
1695640141334,0.14086914,0.9684448,0.32000732,2.34375,-3.421875,1.03125
1695640141374,0.14868164,0.9555054,0.27825928,5.296875,-1.46875,-0.015625
1695640141412,0.11425781,0.949646,0.2831421,-6.109375,-3.484375,-0.90625
1695640141452,0.114990234,0.9425659,0.3139038,-8.328125,-3.546875,-0.75
1695640141492,0.100097656,0.9813843,0.3078003,-8.9375,-1.65625,-0.03125
1695640141532,0.10473633,0.9725952,0.3102417,-1.1875,0.046875,-0.546875
1695640141573,0.111083984,0.9760132,0.29193115,1.609375,0.671875,0.453125
1695640141613,0.12866211,0.95526123,0.2892456,3.25,-0.0625,0.171875
1695640141659,0.16381836,0.95526123,0.2748413,0.65625,2.078125,-0.265625
1695640141691,0.11303711,0.9657593,0.24041748,-6.75,1.859375,-0.71875
1695640141733,0.11816406,0.9762573,0.28997803,-5.359375,-0.78125,-0.390625
1695640141778,0.13061523,1.0043335,0.2855835,-2.0625,1.328125,-0.328125
1695640141812,0.1262207,0.9623413,0.27313232,0.421875,1.015625,-1.109375
1695640141831,0.122558594,0.93914795,0.27288818,-1.140625,1.328125,0.015625
1695640141871,0.13842773,0.97161865,0.2868042,-0.9375,1.453125,1.203125
1695640141911,0.11816406,0.98065186,0.2616577,-1.84375,1.15625,-0.515625
1695640141953,0.12915039,0.9672241,0.2555542,-0.75,0.671875,-0.46875
1695640141992,0.11328125,0.99017334,0.25457764,-1.1875,0.453125,0.390625
1695640142032,0.11352539,0.9750366,0.25653076,-0.828125,-0.078125,0.046875
1695640142072,0.12182617,0.9762573,0.25531006,-0.15625,0.546875,0.359375
1695640142113,0.1171875,0.9760132,0.25872803,-0.984375,0.078125,1.359375
1695640142153,0.1340332,0.9738159,0.25213623,-0.71875,0.03125,1.140625
1695640142193,0.13110352,0.97869873,0.24920654,-1.171875,0.3125,1.625
1695640142232,0.12207031,0.9891968,0.2501831,-0.875,0.203125,1.921875
1695640142274,0.1159668,0.98114014,0.24456787,-0.125,0.71875,0.484375
1695640142312,0.099121094,0.9606323,0.2518921,0.125,1.5,-0.59375
1695640142355,0.1081543,0.98431396,0.25579834,0.875,1.296875,0.078125
1695640142393,0.12841797,0.96258545,0.2506714,0.953125,1.546875,0.359375
1695640142433,0.12036133,0.98895264,0.24066162,0.3125,2.890625,1.546875
1695640142473,0.10253906,0.9743042,0.23626709,-1.546875,1.765625,0.046875
1695640142515,0.12915039,0.96917725,0.27313232,1.875,0.4375,0.421875
1695640142553,0.13305664,0.9816284,0.24603271,2.109375,0.75,1.515625
1695640142591,0.107177734,0.9750366,0.25164795,-0.78125,-0.625,1.328125
1695640142633,0.118896484,0.9816284,0.25823975,1.296875,-0.109375,1.25
1695640142672,0.11279297,0.9833374,0.2609253,1.171875,-0.171875,0.640625
1695640142711,0.088134766,0.97161865,0.24407959,0.828125,0.234375,0.28125
1695640142752,0.10180664,0.9762573,0.27996826,2.453125,0.375,1.015625
1695640142793,0.10961914,0.9850464,0.25628662,3.171875,0.5625,2.078125
1695640142832,0.109375,0.97283936,0.2514038,1.984375,-0.28125,2.125
1695640142873,0.10229492,0.9772339,0.25042725,1.28125,-0.15625,1.78125
1695640142911,0.09790039,0.9723511,0.26800537,1.125,0.390625,0.265625
1695640142952,0.08691406,0.9804077,0.2609253,1.984375,0.546875,-0.328125
1695640142992,0.09326172,0.9574585,0.28216553,1.125,0.421875,0.28125
1695640143033,0.095458984,0.97528076,0.28070068,1.1875,0.921875,1.984375
1695640143073,0.09838867,0.9750366,0.28411865,0.03125,0.03125,2.171875
1695640143113,0.10424805,0.9723511,0.28240967,-0.140625,0.03125,2.078125
1695640143154,0.091552734,0.9767456,0.2555542,0.1875,-0.921875,1.796875
1695640143192,0.09448242,0.97210693,0.26483154,0.703125,0.0625,0.484375
1695640143234,0.100097656,0.97283936,0.27996826,0.359375,0.953125,1.359375
1695640143272,0.084228516,0.96624756,0.2675171,0.03125,-0.375,1.515625
1695640143312,0.0690918,0.98968506,0.28997803,-1.1875,0.1875,1.4375
1695640143352,0.088134766,0.982605,0.27801514,0.609375,-1.078125,1.859375
1695640143393,0.068603516,0.97088623,0.26409912,0.421875,-0.265625,1.4375
1695640143433,0.06689453,0.9713745,0.2675171,0.90625,-0.53125,1.234375
1695640143474,0.0769043,0.97991943,0.27996826,0.984375,0.359375,1.40625
1695640143512,0.07055664,0.9743042,0.27093506,1.5625,-0.0625,0.8125
1695640143553,0.0637207,0.9735718,0.27752686,-0.734375,0.171875,1.140625
1695640143592,0.07397461,0.9857788,0.2831421,0.03125,0.046875,1.375
1695640143633,0.07324219,0.9804077,0.27191162,0.40625,0.171875,0.28125
1695640143672,0.06225586,0.9743042,0.26361084,-2.078125,0.109375,0.53125
1695640143712,0.067871094,0.9711304,0.27557373,-1.25,0.84375,0.765625
1695640143754,0.055908203,0.98114014,0.26409912,-3.578125,2.390625,0.109375
1695640143792,0.07446289,0.97772217,0.2694702,-1.6875,1.078125,-0.234375
1695640143835,0.076660156,0.9738159,0.2736206,-2.84375,0.203125,0.328125
1695640143872,0.05029297,0.982605,0.24481201,-0.34375,0.140625,0.046875
1695640143914,0.075683594,0.99139404,0.2543335,-0.125,0.75,-0.28125
1695640143951,0.084472656,0.98431396,0.2592163,-0.75,-1.21875,-0.328125
1695640143991,0.0690918,0.9779663,0.24066162,0.46875,-1.265625,-0.296875
1695640144032,0.056152344,0.97772217,0.26263428,0.28125,-1.109375,0.1875
1695640144072,0.06982422,0.9750366,0.24456787,-0.046875,-0.734375,-0.203125
1695640144113,0.06591797,0.99139404,0.25628662,-1.875,-0.125,-1.046875
1695640144154,0.05834961,0.98651123,0.24432373,-1.25,-0.140625,-1.109375
1695640144192,0.061767578,0.977478,0.24847412,-1.296875,0.03125,-0.828125
1695640144234,0.049804688,0.99139404,0.24945068,-0.40625,-0.015625,-0.875
1695640144272,0.064208984,0.9750366,0.25823975,-1.765625,0.484375,-0.625
1695640144312,0.046875,0.97039795,0.24407959,-3.609375,1.0625,-0.515625
1695640144351,0.06323242,0.9838257,0.24578857,-2.9375,1.40625,-1.46875
1695640144433,0.084472656,0.9850464,0.23553467,-3.4375,1.390625,-1.359375
1695640144440,0.09350586,0.98480225,0.2333374,-3.453125,0.4375,-1.125
1695640144452,0.08227539,0.9887085,0.2267456,-4.984375,-0.046875,-0.75
1695640144493,0.068359375,0.994812,0.21624756,-6.59375,-0.359375,-1.109375
1695640144531,0.08691406,0.977478,0.21478271,-4.3125,-0.125,-1.859375
1695640144572,0.09399414,0.9906616,0.18841553,-3.5,0.1875,-2.09375
1695640144613,0.087890625,1.0048218,0.20062256,-1.546875,0.296875,-1.65625
1695640144655,0.09741211,0.9957886,0.19403076,-2.03125,-0.109375,-1.90625
1695640144694,0.10839844,1.0011597,0.19110107,-2.0,-0.1875,-1.984375
1695640144733,0.095214844,0.996521,0.17913818,-2.90625,-1.078125,-1.6875
1695640144772,0.0949707,0.98773193,0.17474365,-2.921875,-1.34375,-1.921875
1695640144814,0.09692383,0.99823,0.18206787,-1.5625,-1.25,-1.25
1695640144854,0.09448242,1.001648,0.17401123,-2.046875,-0.890625,-0.734375
1695640144899,0.09838867,0.99871826,0.1786499,-0.625,-1.1875,-1.125
1695640144932,0.11230469,0.9960327,0.16644287,-0.953125,-0.359375,-0.8125
1695640144973,0.10864258,0.9977417,0.16375732,-1.65625,-1.046875,-0.125
1695640145013,0.099121094,0.9970093,0.17010498,-0.453125,-0.984375,-0.578125
1695640145053,0.111083984,0.99554443,0.16009521,-0.625,-0.6875,-0.296875
1695640145092,0.09448242,0.98895264,0.16644287,-1.375,-1.015625,-0.421875
1695640145132,0.10498047,0.9970093,0.16595459,-2.359375,-0.28125,-0.1875
1695640145172,0.09692383,0.99798584,0.16229248,-2.140625,-0.15625,0.09375
1695640145212,0.09643555,1.001648,0.16986084,-0.6875,-0.4375,0.328125
1695640145252,0.103515625,0.9945679,0.1696167,-0.75,-0.453125,1.546875
1695640145292,0.08984375,1.0055542,0.12738037,2.640625,-0.1875,1.3125
1695640145335,0.07763672,1.0048218,0.15179443,1.359375,1.5625,0.1875
1695640145371,0.11328125,1.0038452,0.15667725,0.59375,1.578125,1.28125
1695640145415,0.11303711,0.9879761,0.1461792,-1.0,0.78125,1.359375
1695640145473,0.09106445,0.99871826,0.14935303,0.15625,0.859375,0.671875
1695640145491,0.09399414,1.0033569,0.1642456,-0.90625,0.640625,0.765625
1695640145535,0.09448242,1.001648,0.15863037,0.3125,0.75,0.328125
1695640145572,0.095214844,0.99823,0.15960693,2.203125,1.0,0.171875
1695640145617,0.08178711,0.99627686,0.16229248,0.25,-0.5,0.421875
1695640145651,0.09326172,0.9887085,0.1642456,-0.296875,-0.046875,0.265625
1695640145693,0.09423828,0.99798584,0.16082764,0.734375,-0.109375,1.46875
1695640145732,0.080566406,0.9996948,0.15667725,-0.4375,-0.859375,1.65625
1695640145771,0.08154297,0.9940796,0.16107178,-0.078125,-0.515625,1.375
1695640145812,0.08276367,1.0050659,0.16082764,-0.375,-0.234375,1.484375
1695640145852,0.07714844,0.99920654,0.15350342,-0.234375,0.328125,0.875
1695640145891,0.07470703,1.0014038,0.15814209,-0.421875,0.453125,1.0625
1695640145931,0.08276367,0.9996948,0.14544678,-0.703125,0.59375,0.78125
1695640145975,0.083740234,1.0021362,0.14715576,-0.359375,0.609375,0.796875
1695640146013,0.083740234,0.9935913,0.15594482,0.125,0.125,-0.265625
1695640146054,0.08227539,1.0018921,0.15423584,0.703125,-0.03125,0.015625
1695640146092,0.080322266,0.99554443,0.15887451,-0.046875,-0.21875,0.296875
1695640146132,0.06982422,0.9957886,0.1593628,0.578125,-0.6875,0.25
1695640146172,0.07421875,1.0079956,0.15179443,0.859375,-0.203125,-0.390625
1695640146211,0.071777344,1.0026245,0.16571045,-0.296875,-0.875,-0.125
1695640146252,0.083740234,0.99627686,0.15789795,-0.09375,-0.640625,0.40625
1695640146292,0.072265625,0.99432373,0.1593628,-0.0625,-0.875,0.859375
1695640146332,0.07324219,1.0060425,0.14544678,-0.28125,-0.328125,1.1875
1695640146371,0.07055664,1.0072632,0.14984131,-1.40625,-0.703125,1.328125
1695640146414,0.06933594,1.0075073,0.14959717,-0.53125,-0.109375,0.9375
1695640146451,0.07055664,0.9994507,0.14178467,-0.4375,0.3125,0.9375
1695640146492,0.06518555,0.99993896,0.13494873,-0.578125,1.09375,0.5625
1695640146532,0.064208984,1.0023804,0.14447021,-0.4375,1.53125,0.09375
1695640146576,0.068603516,1.0075073,0.1449585,1.25,1.703125,0.125
1695640146618,0.068847656,1.0133667,0.14544678,0.453125,1.0625,0.984375
1695640146653,0.075927734,1.0072632,0.14324951,1.3125,0.59375,0.40625
1695640146691,0.07495117,0.9862671,0.14813232,2.046875,0.375,-0.3125
1695640146731,0.06518555,1.0065308,0.14910889,1.609375,-0.046875,0.5
1695640146772,0.06713867,1.0033569,0.15228271,0.78125,0.390625,1.125
1695640146811,0.048828125,0.99627686,0.1564331,1.046875,-0.171875,1.546875
1695640146852,0.056640625,0.9996948,0.15570068,1.109375,0.5625,1.125
1695640146892,0.064208984,1.0082397,0.15594482,1.109375,0.4375,1.296875
1695640146932,0.049804688,1.001648,0.1593628,1.296875,1.03125,1.015625
1695640146973,0.057861328,1.0028687,0.15716553,2.109375,1.125,0.921875
1695640147013,0.055908203,1.0109253,0.15863037,2.46875,1.015625,0.8125
1695640147052,0.07421875,1.0001831,0.16571045,2.265625,0.59375,1.140625
1695640147093,0.064453125,1.0011597,0.15032959,0.828125,-0.03125,1.796875
1695640147112,0.05126953,1.0048218,0.16668701,1.28125,-0.515625,1.5625
1695640147153,0.049316406,1.0018921,0.15472412,2.078125,0.171875,0.390625
1695640147192,0.041503906,0.99627686,0.16790771,0.796875,-0.65625,0.140625
1695640147233,0.041748047,1.0023804,0.17547607,1.515625,-0.53125,0.4375
1695640147272,0.033691406,0.9960327,0.18621826,2.765625,-0.328125,0.125
1695640147312,0.043701172,0.99383545,0.17327881,2.828125,0.578125,0.03125
1695640147353,0.048339844,0.9989624,0.1918335,2.46875,0.375,-0.203125
1695640147394,0.064208984,0.99627686,0.19403076,4.796875,-0.8125,0.46875
1695640147432,0.09057617,0.99261475,0.21185303,7.359375,-7.0625,2.75
1695640147472,0.052246094,0.9850464,0.19403076,6.546875,-5.859375,2.828125
1695640147519,0.034179688,1.026062,0.2501831,6.625,-4.8125,4.46875
1695640147552,0.030273438,1.0055542,0.2321167,11.5625,-6.046875,1.15625
1695640147598,0.0234375,1.0109253,0.23236084,9.203125,-2.203125,-3.328125
1695640147631,0.020507812,0.9874878,0.2501831,5.296875,-2.546875,-2.90625
1695640147671,0.028564453,0.9828491,0.2514038,6.328125,1.0,-5.625
1695640147713,0.03515625,0.95526123,0.24578857,1.765625,3.671875,-6.515625
1695640147753,0.04296875,0.96429443,0.26409912,-1.203125,0.765625,-0.125
1695640147792,-0.01953125,0.92889404,0.22088623,-4.46875,-2.53125,4.25
1695640147832,0.04321289,1.0097046,0.2387085,0.453125,1.90625,2.328125
1695640147873,0.047607422,1.0160522,0.25750732,-2.921875,0.421875,-0.28125
1695640147913,0.01977539,0.94647217,0.25164795,0.421875,0.71875,-0.0625
1695640147954,0.045166016,0.9852905,0.23895264,0.28125,0.96875,0.21875
1695640147994,0.021972656,0.99334717,0.2526245,-0.53125,1.09375,-0.515625
1695640148033,0.023925781,0.98895264,0.2399292,-1.8125,1.15625,-0.796875
1695640148072,0.043945312,0.99139404,0.24407959,-2.421875,1.40625,-0.5625
1695640148112,0.036132812,0.97650146,0.22918701,-2.4375,0.859375,-0.375
1695640148154,0.04345703,0.98651123,0.23236084,-1.75,0.734375,-0.953125
1695640148192,0.050048828,0.9935913,0.23773193,-1.125,1.359375,-1.96875
1695640148235,0.047607422,0.9867554,0.23236084,-1.40625,0.828125,-1.5625
1695640148272,0.05859375,0.9904175,0.22454834,-1.140625,0.53125,-1.15625
1695640148312,0.06347656,0.996521,0.22406006,-2.421875,1.09375,-1.25
1695640148353,0.05883789,0.9874878,0.22625732,-2.015625,0.15625,-1.3125
1695640148392,0.06713867,0.9867554,0.21038818,-1.890625,0.125,-0.765625
1695640148431,0.05419922,0.9957886,0.20916748,-2.109375,0.765625,-0.953125
1695640148471,0.052490234,0.9906616,0.21575928,-2.640625,0.671875,-1.453125
1695640148513,0.059326172,0.99871826,0.21136475,-1.296875,0.65625,-0.390625
1695640148551,0.047607422,0.982605,0.21551514,-1.6875,0.25,-1.234375
1695640148593,0.059570312,1.007019,0.20404053,0.140625,0.84375,-1.140625
1695640148632,0.068847656,0.98895264,0.1918335,-0.671875,0.703125,-1.453125
1695640148679,0.07714844,0.993103,0.19793701,-1.375,0.609375,-1.109375
1695640148714,0.068847656,0.9972534,0.20062256,-0.5625,-2.265625,-0.375
1695640148752,0.099121094,1.0219116,0.21697998,-2.34375,-1.375,1.765625
1695640148792,0.06298828,1.012146,0.20794678,3.859375,-2.0,-0.046875
1695640148834,0.071777344,0.98846436,0.20135498,6.40625,0.171875,-1.84375
1695640148871,0.07006836,0.9833374,0.21282959,4.8125,0.265625,-1.234375
1695640148914,0.06958008,0.98773193,0.20526123,4.578125,0.03125,-1.546875
1695640148952,0.05444336,0.98724365,0.20355225,2.0625,1.1875,-3.09375
1695640148994,0.057128906,0.9647827,0.21844482,0.96875,2.578125,-1.984375
1695640149032,0.068847656,0.9957886,0.2230835,2.0,1.1875,0.09375
1695640149072,0.07421875,0.9718628,0.230896,0.734375,0.890625,1.625
1695640149113,0.08178711,0.99627686,0.22821045,2.875,2.359375,1.46875
1695640149152,0.072509766,0.99090576,0.23382568,4.359375,0.90625,-0.328125
1695640149194,0.08203125,0.9730835,0.2333374,1.859375,0.390625,0.609375
1695640149232,0.06933594,0.9916382,0.22796631,2.125,0.421875,-0.40625
1695640149273,0.07788086,1.0011597,0.24578857,3.46875,1.203125,0.078125
1695640149313,0.071777344,0.9755249,0.2514038,0.890625,0.9375,0.546875
1695640149353,0.06274414,0.97406006,0.23114014,2.234375,1.15625,-0.296875
1695640149393,0.07470703,0.97991943,0.24969482,3.140625,-0.015625,-0.40625
1695640149433,0.068847656,0.9633179,0.2518921,2.453125,0.125,-0.609375
1695640149472,0.08081055,0.97576904,0.25701904,1.046875,-0.109375,0.3125
1695640149511,0.07714844,0.979187,0.26507568,0.453125,0.171875,0.46875
1695640149552,0.07104492,0.9879761,0.25823975,0.265625,-0.140625,-0.046875
1695640149594,0.07104492,0.977478,0.26239014,-1.65625,-0.21875,-0.25
1695640149631,0.064453125,0.9677124,0.25653076,-0.609375,-0.3125,-1.15625
1695640149712,0.072265625,0.9762573,0.25775146,-3.3125,-0.1875,0.640625
1695640149718,0.055664062,0.9916382,0.25531006,-3.0625,-0.359375,0.984375
1695640149732,0.071777344,0.9857788,0.23822021,-1.734375,-0.3125,0.765625
1695640149772,0.0715332,0.9874878,0.22698975,-1.34375,-0.1875,-0.359375
1695640149812,0.07006836,0.97772217,0.23968506,-2.03125,-0.125,0.171875
1695640149852,0.08081055,0.9887085,0.22039795,-0.34375,0.90625,-0.265625
1695640149892,0.08227539,0.97698975,0.22894287,-1.625,0.984375,-0.6875
1695640149932,0.08276367,0.9904175,0.2411499,-3.796875,-0.28125,0.109375
1695640149972,0.083984375,1.0028687,0.2267456,-2.75,-1.25,-0.203125
1695640150013,0.06640625,0.9779663,0.22161865,-1.421875,-0.34375,-0.03125
1695640150054,0.05859375,0.9887085,0.22161865,-0.765625,0.203125,0.46875
1695640150092,0.06518555,0.993103,0.22259521,0.328125,-0.15625,0.4375
1695640150132,0.0703125,0.9918823,0.20697021,-0.4375,0.125,0.09375
1695640150178,0.06665039,0.98602295,0.20111084,-0.9375,0.453125,0.140625
1695640150211,0.068603516,0.99334717,0.20281982,-1.84375,0.796875,1.4375
1695640150253,0.059326172,0.98431396,0.20574951,-2.0,0.53125,4.0
1695640150291,0.06567383,1.0175171,0.21356201,-3.046875,1.421875,3.09375
1695640150332,0.08325195,0.9970093,0.20257568,-3.09375,1.5,1.703125
1695640150373,0.07397461,0.9845581,0.20233154,-0.8125,1.484375,1.4375
1695640150416,0.055419922,0.99749756,0.18743896,-0.875,1.203125,0.609375
1695640150459,0.06982422,0.9904175,0.20281982,0.21875,1.140625,-0.109375
1695640150492,0.057373047,1.0062866,0.18109131,2.03125,0.796875,-1.234375
1695640150535,0.04638672,0.9957886,0.1930542,1.140625,0.09375,-1.234375
1695640150572,0.053955078,0.9972534,0.19793701,1.46875,-0.171875,0.171875
1695640150612,0.04272461,0.99749756,0.19891357,1.953125,-0.046875,0.125
1695640150655,0.049804688,0.9796753,0.19500732,1.515625,0.734375,-0.0625
1695640150694,0.04736328,0.9696655,0.19158936,-0.421875,-0.515625,1.546875
1695640150732,0.05493164,0.9867554,0.21917725,-4.15625,0.0,2.375
1695640150771,0.0715332,1.0187378,0.22039795,-2.640625,0.109375,1.046875
1695640150813,0.051757812,0.9918823,0.2098999,-1.375,0.078125,0.078125
1695640150870,0.055664062,0.99432373,0.19720459,-0.0625,1.1875,0.3125
1695640150891,0.050048828,1.0028687,0.20428467,-0.203125,0.59375,-0.109375
1695640150930,0.055419922,0.9940796,0.1906128,-1.140625,1.0625,-0.53125
1695640150976,0.03881836,0.9945679,0.17254639,-2.453125,0.890625,-0.546875
1695640151011,0.03100586,0.9928589,0.17913818,-3.296875,1.625,-1.234375
1695640151052,0.072265625,1.0004272,0.18450928,-2.46875,1.1875,-0.03125
1695640151093,0.05883789,0.9945679,0.17132568,-1.21875,0.484375,-0.546875
1695640151135,0.06665039,0.99090576,0.17791748,-1.28125,0.78125,0.171875
1695640151172,0.06640625,1.0072632,0.16595459,-0.359375,0.1875,0.03125
1695640151213,0.07080078,0.99676514,0.1798706,-0.8125,-0.265625,-0.546875
1695640151258,0.064697266,1.0021362,0.1774292,-1.859375,-0.75,0.1875
1695640151293,0.05053711,0.994812,0.17474365,-1.171875,-1.40625,-0.15625
1695640151334,0.037841797,0.99505615,0.1618042,-0.265625,-0.921875,0.03125
1695640151375,0.024169922,1.0018921,0.16229248,-1.609375,-1.1875,0.0625
1695640151412,0.03930664,1.0067749,0.1696167,-0.6875,-0.640625,-0.21875
1695640151451,0.049316406,1.0026245,0.15692139,-0.65625,0.546875,-0.828125
1695640151497,0.06982422,1.0018921,0.16131592,-1.8125,-0.0625,-0.265625
1695640151532,0.06518555,1.0048218,0.15350342,-0.328125,-0.34375,-0.421875
1695640151571,0.05908203,1.0119019,0.16082764,1.359375,0.140625,-0.84375
1695640151615,0.06274414,0.9945679,0.15716553,-0.546875,-0.90625,-0.5625
1695640151651,0.052978516,0.9882202,0.15081787,-0.203125,-0.234375,-0.671875
1695640151692,0.052246094,0.9989624,0.14910889,-0.359375,-0.125,-0.171875
1695640151737,0.04711914,0.98895264,0.14154053,-3.03125,-1.5,2.6875
1695640151772,0.047607422,1.0119019,0.14666748,-0.953125,-1.71875,2.859375
1695640151813,0.04711914,1.020935,0.15838623,0.171875,-1.8125,1.71875
1695640151851,0.04248047,0.9928589,0.15057373,1.5625,-0.453125,0.828125
1695640151893,0.034179688,0.99993896,0.15350342,0.9375,-0.625,0.046875
1695640151932,0.06274414,1.0109253,0.15667725,1.109375,0.671875,0.40625
1695640151972,0.053955078,1.0199585,0.16082764,0.359375,0.59375,-0.34375
1695640152013,0.07421875,1.0084839,0.15252686,2.46875,-1.65625,-0.296875
1695640152051,0.038330078,0.99676514,0.1281128,-0.0625,-0.6875,-0.359375
1695640152098,0.030029297,1.0023804,0.16766357,2.109375,-1.015625,-0.65625
1695640152134,0.044433594,0.9989624,0.15374756,2.125,1.046875,-0.890625
1695640152173,0.03955078,0.996521,0.14813232,4.015625,0.515625,-0.609375
1695640152213,0.053710938,1.0043335,0.16571045,2.1875,0.9375,-0.3125
1695640152254,0.063964844,1.0050659,0.17010498,2.546875,0.296875,-0.140625
1695640152294,0.05102539,1.0062866,0.16790771,2.5625,-0.578125,0.078125
1695640152335,0.05078125,1.0045776,0.18157959,3.9375,-0.796875,0.3125
1695640152352,0.03540039,0.98773193,0.17132568,3.21875,-0.3125,0.078125
1695640152392,0.048095703,0.982605,0.18035889,4.21875,0.703125,-0.359375
1695640152432,0.053710938,0.9977417,0.19940186,2.484375,0.875,-0.34375
1695640152472,0.05102539,1.0004272,0.2020874,1.40625,0.421875,0.171875
1695640152511,0.0546875,1.0084839,0.21258545,0.5,0.0625,0.015625
1695640152553,0.04736328,0.9953003,0.19647217,1.1875,0.25,0.0
1695640152593,0.041992188,0.98553467,0.18792725,2.296875,-0.515625,-0.75
1695640152632,0.053710938,0.9850464,0.18792725,1.921875,0.296875,-0.390625
1695640152672,0.049560547,0.99090576,0.19866943,0.015625,0.171875,0.078125
1695640152712,0.05859375,0.98968506,0.20013428,-0.71875,-0.328125,-0.1875
1695640152753,0.052490234,0.9940796,0.19720459,-2.296875,-0.875,-0.75
1695640152794,0.06591797,0.9928589,0.2008667,-3.796875,-1.6875,-0.703125
1695640152833,0.040771484,0.98968506,0.19476318,-3.359375,-1.359375,-1.515625
1695640152873,0.043945312,0.99676514,0.20184326,-1.125,-0.6875,-2.0625
1695640152912,0.037841797,0.99017334,0.1864624,-0.671875,0.078125,-1.953125
1695640152952,0.04736328,0.9977417,0.18011475,-0.609375,0.234375,-2.015625
1695640152994,0.052734375,0.9994507,0.18035889,-0.328125,-0.28125,-1.25
1695640153033,0.06591797,0.9957886,0.15618896,-1.53125,0.34375,-1.34375
1695640153075,0.057128906,0.9970093,0.168396,-3.75,-0.921875,-1.546875
1695640153113,0.07788086,1.001648,0.16571045,-2.984375,-0.234375,-1.21875
1695640153152,0.07299805,1.0028687,0.15618896,-2.296875,0.1875,-1.640625
1695640153192,0.07324219,0.99871826,0.15545654,-3.21875,0.671875,-1.015625
1695640153231,0.0769043,1.0001831,0.15814209,-1.296875,0.75,-1.09375
1695640153275,0.076171875,1.0036011,0.15252686,-0.78125,0.78125,-0.71875
1695640153312,0.067871094,1.0075073,0.15106201,0.8125,0.171875,-1.59375
1695640153351,0.078125,0.99871826,0.1461792,1.65625,0.71875,-1.25
1695640153392,0.072509766,0.99920654,0.15789795,0.875,0.1875,-1.375
1695640153431,0.07519531,0.99334717,0.16278076,2.34375,-0.546875,-1.171875
1695640153472,0.07446289,1.0011597,0.15228271,2.171875,-1.484375,-0.203125
1695640153511,0.09326172,0.9850464,0.1762085,-3.125,-1.34375,1.71875
1695640153555,0.09863281,1.0231323,0.17156982,-2.796875,-2.09375,4.328125
1695640153592,0.072021484,1.010437,0.1630249,-4.0,-1.65625,3.171875
1695640153632,0.061279297,0.9960327,0.14007568,-2.453125,-0.375,3.015625
1695640153673,0.061035156,1.0089722,0.13275146,0.59375,-0.21875,1.953125
1695640153713,0.036376953,0.98602295,0.12225342,-0.34375,1.609375,-0.796875
1695640153756,0.049316406,0.9970093,0.13519287,1.125,1.34375,-0.265625
1695640153792,0.037109375,0.9845581,0.13934326,3.203125,0.890625,-0.15625
1695640153833,0.05883789,1.0079956,0.1461792,3.390625,2.59375,1.375
1695640153873,0.06689453,1.0075073,0.1564331,5.875,2.84375,1.578125
1695640153913,0.060302734,0.9953003,0.17010498,4.421875,1.453125,-0.0625
1695640153953,0.05859375,0.9874878,0.16790771,2.28125,0.40625,0.328125
1695640153993,0.060058594,1.0089722,0.17718506,2.6875,0.09375,-0.171875
1695640154032,0.061035156,1.0140991,0.17327881,4.234375,1.359375,-0.265625
1695640154074,0.049804688,0.993103,0.17547607,3.84375,1.671875,0.046875
1695640154112,0.05419922,0.99432373,0.19085693,4.3125,1.40625,0.046875
1695640154153,0.053710938,0.98895264,0.184021,3.515625,0.484375,0.21875
1695640154194,0.052246094,0.9813843,0.1864624,2.21875,0.265625,0.0
1695640154233,0.05517578,0.99627686,0.19329834,1.78125,0.15625,0.078125
1695640154272,0.06542969,1.0001831,0.20526123,1.375,-0.015625,-0.34375
1695640154312,0.057373047,0.99334717,0.2008667,1.59375,-0.546875,-0.8125
1695640154351,0.057128906,0.9916382,0.21795654,0.234375,-0.1875,-0.6875
1695640154392,0.05444336,0.98724365,0.215271,1.4375,-0.171875,-0.375
1695640154432,0.04345703,0.99090576,0.21307373,1.375,0.375,-0.796875
1695640154474,0.04736328,0.9874878,0.19647217,0.015625,0.140625,-1.078125
1695640154511,0.053710938,0.9862671,0.19744873,-0.1875,0.484375,-1.21875
1695640154553,0.06274414,0.99261475,0.20159912,-2.375,0.265625,-0.890625
1695640154593,0.07495117,0.99383545,0.20037842,-1.40625,-0.640625,-1.375
1695640154632,0.07348633,0.98846436,0.19989014,-1.484375,-1.546875,-1.28125
1695640154672,0.04663086,0.9911499,0.17962646,-2.109375,-0.921875,-2.359375
1695640154715,0.07788086,0.99017334,0.19378662,3.953125,-0.359375,-1.96875
1695640154753,0.06591797,0.99505615,0.20233154,0.984375,0.90625,-1.390625
1695640154793,0.08666992,0.996521,0.2033081,-0.53125,0.6875,-1.140625
1695640154838,0.09277344,0.98480225,0.18963623,-0.5625,-0.296875,-0.796875
1695640154873,0.084472656,0.98480225,0.1954956,-0.75,-0.21875,-1.65625
1695640154951,0.0715332,0.99334717,0.19354248,-1.90625,-0.1875,-1.578125
1695640154957,0.06738281,0.99139404,0.18914795,-0.4375,-0.03125,-1.265625
1695640154977,0.06323242,0.996521,0.19329834,-0.75,0.640625,-0.875
1695640155014,0.08935547,1.0001831,0.18377686,0.421875,0.828125,0.359375
1695640155052,0.07910156,0.9984741,0.18328857,0.046875,0.53125,0.171875
1695640155099,0.09399414,1.0043335,0.17913818,3.15625,0.796875,-0.640625
1695640155131,0.1015625,0.9762573,0.18597412,1.65625,0.59375,-1.4375
1695640155174,0.099121094,0.98773193,0.18817139,-0.984375,0.6875,0.28125
1695640155212,0.09082031,1.0084839,0.1918335,0.046875,1.203125,0.5625
1695640155272,0.1003418,0.98724365,0.19720459,0.359375,1.125,-0.296875
1695640155296,0.087890625,0.99871826,0.18182373,0.015625,1.40625,-0.0625
1695640155336,0.08959961,1.0023804,0.19989014,1.109375,-1.375,0.203125
1695640155374,0.09448242,0.99017334,0.18572998,-2.1875,-0.171875,0.5
1695640155411,0.07885742,0.9891968,0.199646,0.9375,-0.71875,0.765625
1695640155451,0.088378906,0.99090576,0.1984253,2.375,-1.296875,1.546875
1695640155493,0.064453125,0.9852905,0.18548584,2.8125,-0.421875,0.328125
1695640155534,0.07910156,0.9879761,0.20843506,0.03125,-0.015625,0.859375
1695640155571,0.08105469,0.99334717,0.19134521,0.4375,0.515625,1.0625
1695640155611,0.06713867,0.9940796,0.19696045,1.1875,-0.03125,-0.109375
1695640155652,0.08178711,0.9904175,0.1906128,2.234375,-0.078125,-0.234375
1695640155696,0.068115234,0.9857788,0.18988037,0.0625,0.28125,-0.09375
1695640155732,0.080078125,0.9996948,0.21038818,2.078125,0.515625,0.1875
1695640155772,0.0703125,0.9994507,0.19500732,3.0,-0.078125,0.421875
1695640155815,0.08178711,0.98480225,0.20916748,0.96875,0.03125,0.578125
1695640155852,0.08959961,0.9862671,0.2111206,0.96875,-0.65625,0.46875
1695640155893,0.0690918,0.9796753,0.19476318,-0.296875,-1.25,-0.84375
1695640155932,0.071777344,0.9867554,0.22454834,-1.53125,-0.359375,-0.671875
1695640155975,0.06323242,1.0006714,0.21234131,0.3125,-0.5625,-0.6875
1695640156012,0.072265625,0.99383545,0.21990967,0.25,-0.09375,0.25
1695640156057,0.071777344,0.9918823,0.21038818,-1.3125,0.484375,0.375
1695640156092,0.07470703,0.99090576,0.20770264,-0.828125,-0.46875,0.046875
1695640156133,0.080322266,0.98553467,0.20257568,-1.578125,-0.71875,-0.390625
1695640156178,0.07397461,0.9879761,0.19793701,-2.234375,-0.921875,-0.703125
1695640156212,0.07348633,0.99554443,0.19866943,-1.78125,-0.875,-0.46875
1695640156252,0.07495117,0.99017334,0.19915771,-1.0,-0.21875,-0.8125
1695640156298,0.064941406,0.99505615,0.19696045,-0.46875,-0.515625,-0.75
1695640156333,0.087890625,0.99261475,0.18426514,-0.921875,0.15625,-0.078125
1695640156371,0.07788086,0.98114014,0.18182373,-2.15625,-0.03125,-1.0
1695640156420,0.091796875,0.99505615,0.19158936,-2.1875,0.203125,0.09375
1695640156453,0.08276367,0.9918823,0.18084717,-1.203125,-0.296875,-0.078125
1695640156493,0.06542969,0.9857788,0.17791748,-1.765625,0.015625,-0.921875
1695640156534,0.087402344,1.0060425,0.1828003,-1.375,0.390625,0.21875
1695640156573,0.068359375,1.0023804,0.16937256,-1.140625,0.03125,-0.171875
1695640156612,0.08642578,0.99139404,0.17718506,-1.703125,0.640625,0.453125
1695640156656,0.07397461,0.99993896,0.15594482,1.125,0.6875,0.390625
1695640156693,0.08203125,1.0001831,0.17181396,-0.109375,1.140625,0.671875
1695640156734,0.08569336,1.0018921,0.16644287,-0.390625,1.0625,0.984375
1695640156772,0.09472656,0.9977417,0.17132568,1.125,0.5,0.640625
1695640156811,0.080322266,0.9904175,0.152771,0.9375,0.578125,0.1875
1695640156854,0.064208984,0.99383545,0.16815186,-0.625,0.8125,0.71875
1695640156893,0.075683594,1.0001831,0.17279053,0.34375,1.171875,0.421875
1695640156935,0.07446289,0.99798584,0.1774292,1.234375,1.03125,0.84375
1695640156975,0.076660156,0.99334717,0.17572021,1.671875,0.703125,1.171875
1695640157016,0.076660156,0.9960327,0.18377686,1.15625,0.78125,1.421875
1695640157053,0.075927734,1.0023804,0.18060303,1.3125,0.359375,1.359375
1695640157092,0.068847656,1.0004272,0.18109131,1.53125,0.359375,0.828125
1695640157136,0.068115234,0.9953003,0.18231201,1.25,0.0625,0.6875
1695640157171,0.06274414,0.99920654,0.18719482,1.15625,-0.140625,0.875
1695640157212,0.06542969,0.9928589,0.1906128,1.234375,0.015625,1.5
1695640157251,0.04638672,0.9945679,0.17938232,1.046875,-0.09375,0.21875
1695640157292,0.06323242,0.9852905,0.19573975,0.71875,0.296875,0.515625
1695640157331,0.05834961,0.99261475,0.18182373,0.703125,-0.109375,0.296875
1695640157380,0.061767578,0.9862671,0.18914795,-0.796875,-0.015625,0.65625
1695640157412,0.055664062,0.99993896,0.18914795,-1.359375,0.140625,0.625
1695640157452,0.05859375,0.9972534,0.19281006,-1.140625,-0.5,-0.0625
1695640157495,0.053710938,0.99261475,0.18450928,-1.203125,-0.5,0.15625
1695640157533,0.064697266,1.0001831,0.18817139,-1.484375,-0.140625,0.578125
1695640157612,0.04248047,0.993103,0.17254639,-1.203125,-0.625,-0.078125
1695640157619,0.061035156,0.9972534,0.17132568,-1.84375,0.5625,0.21875
1695640157632,0.05102539,1.0048218,0.17132568,-1.875,-0.375,0.109375
1695640157673,0.06225586,0.99505615,0.16131592,-2.046875,-0.375,-0.328125
1695640157711,0.05810547,0.9911499,0.16595459,-1.828125,-0.09375,-0.5625
1695640157752,0.053710938,0.99871826,0.16156006,-1.71875,-0.15625,-0.21875
1695640157832,0.06323242,1.0045776,0.15325928,-1.234375,0.203125,-0.625
1695640157841,0.06591797,1.0021362,0.16156006,-1.375,0.515625,-1.203125
1695640157872,0.06518555,0.9970093,0.152771,-1.84375,0.609375,-0.3125
1695640157912,0.06640625,0.9977417,0.1473999,-1.1875,0.578125,-0.890625
1695640157952,0.064453125,1.0062866,0.15252686,-1.890625,0.6875,-0.625
1695640157992,0.05810547,0.9977417,0.13372803,-0.265625,-0.09375,-1.109375
1695640158032,0.064697266,0.9957886,0.15301514,-0.40625,0.5625,-0.875
1695640158073,0.06616211,1.0055542,0.14642334,-1.65625,0.25,0.109375
1695640158113,0.06713867,1.0158081,0.14202881,-0.65625,-0.5,0.421875
1695640158153,0.07397461,1.0065308,0.13446045,1.8125,0.21875,0.390625
1695640158190,0.06762695,0.9899292,0.14544678,0.265625,0.15625,0.3125
1695640158232,0.060058594,0.9996948,0.14422607,1.453125,0.25,-0.015625
1695640158272,0.06958008,1.0114136,0.14520264,0.5625,1.125,-0.171875
1695640158311,0.064453125,1.007019,0.1564331,-0.21875,1.078125,0.359375
1695640158351,0.064697266,1.0060425,0.14227295,-0.15625,1.359375,0.78125
1695640158392,0.048583984,1.0111694,0.15570068,0.890625,1.390625,0.75
1695640158434,0.063964844,1.0062866,0.15301514,1.625,1.21875,1.296875
1695640158472,0.07128906,0.9891968,0.14886475,2.21875,0.953125,1.328125
1695640158512,0.05859375,0.994812,0.13641357,0.59375,-0.375,1.4375
1695640158552,0.06225586,1.0109253,0.15179443,-0.453125,0.328125,0.84375
1695640158592,0.05444336,0.9996948,0.1564331,0.4375,-0.359375,0.40625
1695640158631,0.041503906,1.0004272,0.1552124,0.609375,0.125,1.140625
1695640158672,0.038330078,0.9972534,0.15301514,1.625,0.328125,0.484375
1695640158712,0.0625,1.0045776,0.16375732,2.421875,0.765625,0.90625
1695640158752,0.051513672,1.0084839,0.15960693,0.828125,0.21875,1.265625
1695640158792,0.041015625,0.99554443,0.1552124,-0.125,-0.65625,0.28125
1695640158835,0.049072266,1.0011597,0.15692139,-0.078125,0.109375,0.515625
1695640158872,0.041015625,1.0021362,0.14984131,-0.546875,-0.28125,0.421875
1695640158912,0.036865234,0.98724365,0.1552124,0.171875,-0.15625,0.578125
1695640158953,0.04638672,0.9972534,0.15618896,1.734375,0.75,0.28125
1695640158991,0.04736328,1.0065308,0.15496826,0.90625,-0.046875,0.265625
1695640159035,0.04736328,1.0004272,0.15716553,0.3125,-0.421875,0.046875
1695640159072,0.039794922,0.9928589,0.1564331,-0.625,-0.296875,-0.125
1695640159112,0.03955078,1.0006714,0.16107178,-1.03125,-0.453125,0.125
1695640159154,0.033203125,0.9960327,0.16131592,-2.1875,-0.96875,-0.171875
1695640159192,0.03881836,0.99627686,0.16131592,-2.078125,-0.609375,0.28125
1695640159232,0.03466797,1.0092163,0.15594482,-1.484375,-0.5625,0.328125
1695640159272,0.053466797,1.0094604,0.15228271,-1.375,-0.46875,0.625
1695640159311,0.041015625,1.001648,0.13348389,0.28125,0.296875,-0.109375
1695640159353,0.057373047,1.0033569,0.13690186,-0.828125,0.265625,-0.234375
1695640159393,0.056152344,1.0167847,0.14007568,-1.1875,0.109375,-0.453125
1695640159432,0.04321289,1.0109253,0.14056396,-0.65625,-0.046875,-1.296875
1695640159473,0.07885742,1.0101929,0.1317749,0.90625,1.5,-0.53125
1695640159511,0.044921875,1.0028687,0.12445068,2.265625,0.09375,-1.875
1695640159554,0.04345703,0.9984741,0.14154053,0.953125,0.09375,-2.03125
1695640159593,0.05834961,0.9984741,0.14105225,1.34375,-0.0625,-2.015625
1695640159635,0.031982422,0.99993896,0.14984131,0.8125,-0.390625,-2.4375
1695640159672,0.040039062,1.0057983,0.15447998,2.078125,0.109375,-1.53125
1695640159733,0.053466797,1.0014038,0.16033936,2.3125,0.25,-1.28125
1695640159752,0.06958008,0.9960327,0.14300537,0.9375,0.375,-0.8125
1695640159792,0.0625,0.9996948,0.14056396,-1.9375,-0.046875,-0.625
1695640159833,0.0546875,1.0079956,0.14715576,-2.78125,-0.234375,-1.328125
1695640159872,0.09033203,1.0043335,0.14300537,-2.71875,0.5625,-0.5
1695640159915,0.053710938,1.0065308,0.14105225,-1.359375,0.171875,-0.421875
1695640159952,0.049560547,1.0011597,0.14959717,-0.453125,0.328125,-0.84375
1695640159995,0.061279297,1.0036011,0.13397217,0.1875,1.125,-1.375
1695640160035,0.076171875,0.99871826,0.1359253,-0.859375,1.421875,-0.859375
1695640160072,0.0769043,1.0109253,0.13641357,-0.09375,0.828125,-0.140625
1695640160112,0.079833984,1.0101929,0.13128662,1.046875,0.625,0.09375
1695640160153,0.06762695,1.0092163,0.12884521,-0.71875,-0.515625,0.1875
1695640160232,0.08276367,1.0021362,0.14056396,1.28125,-1.078125,-0.140625
1695640160237,0.0769043,1.0077515,0.13861084,2.5625,-0.734375,-0.546875
1695640160251,0.072265625,1.0089722,0.14569092,5.203125,-1.8125,-0.8125
1695640160292,0.08691406,1.0018921,0.16571045,6.515625,-1.84375,0.75
1695640160332,0.07446289,1.0131226,0.16766357,7.953125,-0.953125,0.90625
1695640160378,0.052490234,0.9953003,0.17059326,5.828125,-1.578125,-0.640625
1695640160413,0.08129883,0.99261475,0.16619873,4.890625,-0.5625,-0.203125
1695640160454,0.072509766,0.9989624,0.1918335,6.484375,-0.84375,-2.0
1695640160497,0.05859375,0.9960327,0.19451904,3.484375,0.390625,-1.40625
1695640160533,0.056884766,0.9772339,0.19281006,3.296875,0.53125,-0.828125
1695640160572,0.047607422,0.97088623,0.19110107,-1.0625,0.734375,1.890625
1695640160611,0.057373047,0.9989624,0.17034912,0.4375,0.28125,0.75
1695640160654,0.0637207,0.9796753,0.19085693,-3.6875,0.890625,-0.90625
1695640160694,0.079589844,0.996521,0.18719482,-1.71875,0.71875,0.515625
1695640160737,0.068603516,0.99432373,0.18841553,-1.890625,0.203125,-0.25
1695640160772,0.067871094,1.0031128,0.19134521,0.5625,0.21875,-0.3125
1695640160814,0.07104492,0.99554443,0.18133545,0.03125,0.53125,-0.046875
1695640160855,0.068847656,1.0116577,0.18011475,0.578125,0.375,0.125
1695640160893,0.07470703,0.9977417,0.1708374,0.421875,0.875,-0.421875
1695640160934,0.0690918,0.99261475,0.16766357,-0.015625,0.9375,-0.3125
1695640160973,0.071777344,0.99871826,0.17547607,-0.125,0.90625,-0.328125
1695640161012,0.07006836,0.98773193,0.17645264,-1.09375,1.109375,-0.890625
1695640161053,0.07397461,0.99676514,0.17938232,0.015625,0.984375,-0.671875
1695640161097,0.0769043,0.99505615,0.18426514,0.375,1.171875,-0.296875
1695640161132,0.08325195,1.001648,0.18304443,0.75,1.03125,0.3125
1695640161172,0.076416016,0.9953003,0.18328857,0.359375,0.59375,-0.515625
1695640161217,0.08251953,0.99920654,0.18817139,-0.25,0.609375,0.203125
1695640161252,0.072021484,0.99432373,0.18548584,-0.296875,0.21875,-0.546875
1695640161294,0.07446289,0.99676514,0.1852417,1.078125,0.421875,-0.515625
1695640161338,0.07543945,1.0045776,0.18109131,-0.203125,0.65625,0.015625
1695640161372,0.08105469,1.0011597,0.18719482,0.125,-0.03125,-0.546875
1695640161413,0.083740234,0.9945679,0.17840576,2.140625,-0.515625,-0.109375
1695640161452,0.079589844,0.99749756,0.18328857,2.25,-0.984375,-0.046875
1695640161492,0.08300781,0.99139404,0.19378662,3.375,-1.78125,-0.203125
1695640161534,0.08862305,0.993103,0.21014404,2.328125,-3.34375,-0.21875
1695640161576,0.08984375,1.0292358,0.21087646,2.09375,-2.90625,0.90625
1695640161613,0.06689453,1.0084839,0.1864624,4.171875,-2.734375,-0.78125
1695640161653,0.07543945,0.96429443,0.19500732,4.125,-1.984375,-1.359375
1695640161692,0.07080078,0.99993896,0.21234131,5.484375,-0.578125,-1.5625
1695640161732,0.080322266,0.9801636,0.19158936,2.03125,0.015625,-2.484375
1695640161772,0.06591797,0.9723511,0.21063232,0.765625,1.234375,-2.109375
1695640161814,0.080322266,0.9869995,0.20550537,-0.203125,-0.109375,-0.140625
1695640161855,0.075683594,0.9711304,0.20770264,-3.078125,0.0625,1.078125
1695640161892,0.07495117,0.99212646,0.20233154,-1.359375,-0.265625,0.03125
1695640161937,0.072265625,1.0021362,0.2062378,-0.125,0.875,0.078125
1695640161972,0.072021484,0.9833374,0.2098999,-1.03125,1.140625,-0.09375
1695640162012,0.09057617,0.98895264,0.20501709,-0.90625,1.0625,0.0625
1695640162051,0.079589844,1.0057983,0.2074585,0.0625,0.6875,0.109375
1695640162092,0.09301758,0.9923706,0.20355225,-0.171875,0.484375,0.203125
1695640162134,0.075683594,0.9894409,0.18988037,0.8125,0.453125,-0.4375
1695640162176,0.078125,0.98309326,0.2020874,-0.78125,0.953125,-0.375
1695640162213,0.083740234,0.99749756,0.19940186,0.265625,1.03125,-0.1875
1695640162253,0.08227539,0.9874878,0.20281982,1.046875,0.578125,-0.140625
1695640162291,0.0871582,0.994812,0.20013428,1.46875,0.71875,0.375
1695640162333,0.08691406,0.9918823,0.20916748,1.34375,0.8125,0.34375
1695640162372,0.08105469,0.99505615,0.20452881,1.3125,0.875,-0.109375
1695640162412,0.08227539,0.98895264,0.19647217,1.1875,0.65625,-0.8125
1695640162452,0.08178711,0.9813843,0.2086792,1.078125,0.65625,-1.0
1695640162492,0.087646484,1.0018921,0.21624756,0.59375,2.875,-0.5625
1695640162537,0.072265625,0.9882202,0.20916748,-2.28125,4.046875,-3.109375
1695640162572,0.10058594,0.9816284,0.20697021,-1.359375,1.71875,-1.21875
1695640162613,0.10473633,0.993103,0.21063232,-0.703125,1.0625,0.140625
1695640162665,0.095214844,0.98651123,0.20941162,0.515625,0.75,0.1875
1695640162695,0.09887695,0.994812,0.19598389,1.859375,0.515625,0.265625
1695640162733,0.087890625,0.9923706,0.20721436,-0.484375,0.0,0.796875
1695640162776,0.091796875,0.9891968,0.21209717,-0.421875,0.53125,0.484375
1695640162814,0.087890625,0.9977417,0.20526123,1.015625,0.09375,0.71875
1695640162852,0.08666992,0.9821167,0.21014404,-0.375,-0.15625,0.71875
1695640162872,0.08569336,0.9918823,0.21014404,1.203125,-0.421875,0.640625
1695640162912,0.08129883,0.98846436,0.21380615,0.296875,-0.453125,0.4375
1695640162951,0.08105469,0.9894409,0.2033081,0.484375,-0.359375,0.21875
1695640162991,0.07470703,0.99432373,0.21087646,1.09375,-0.03125,-0.296875
1695640163031,0.07788086,0.99139404,0.21136475,0.5625,0.0625,-0.609375
1695640163072,0.10058594,0.9887085,0.21551514,0.375,0.375,-0.75
1695640163113,0.08105469,0.9923706,0.2062378,-0.015625,-0.03125,-0.984375
1695640163152,0.08911133,0.98065186,0.21429443,0.625,0.09375,-1.421875
1695640163193,0.0949707,0.9850464,0.20672607,-1.296875,0.28125,-0.328125
1695640163232,0.08325195,0.9887085,0.21624756,-0.125,-1.125,-0.15625
1695640163273,0.106933594,0.97869873,0.21087646,-0.109375,-1.640625,-0.453125
1695640163313,0.08666992,0.9852905,0.19769287,-1.21875,-2.328125,-0.609375
1695640163354,0.06738281,0.9928589,0.20672607,-2.375,-2.375,-0.640625
1695640163393,0.08129883,0.98309326,0.2177124,-0.65625,-0.515625,-1.0
1695640163434,0.075683594,0.994812,0.21258545,0.421875,-1.125,-0.234375
1695640163471,0.09814453,0.9972534,0.2062378,0.828125,-0.453125,0.28125
1695640163512,0.10058594,0.9957886,0.19403076,0.03125,0.46875,-0.75
1695640163552,0.10986328,1.001648,0.20306396,-1.453125,-0.25,-0.84375
1695640163597,0.0859375,1.0033569,0.17718506,-1.234375,0.734375,-1.125
1695640163632,0.08984375,0.99139404,0.19281006,-2.125,0.3125,-1.484375
1695640163672,0.109375,0.97650146,0.18597412,-2.078125,0.828125,-0.71875
1695640163713,0.09863281,0.9972534,0.1696167,-1.59375,0.71875,-1.125
1695640163753,0.09399414,1.0014038,0.1798706,-2.375,1.125,-1.515625
1695640163794,0.111328125,0.99505615,0.17767334,-0.203125,0.359375,-1.109375
1695640163832,0.10546875,0.9940796,0.18182373,0.9375,1.5,-1.265625
1695640163872,0.10498047,0.99823,0.18841553,-0.015625,0.3125,-0.609375
1695640163913,0.09765625,0.98553467,0.18450928,0.5,-0.140625,-0.90625
1695640163951,0.11206055,0.98309326,0.18426514,0.53125,0.21875,-0.515625
1695640163992,0.11401367,0.98651123,0.19085693,-0.609375,-0.046875,0.328125
1695640164034,0.09277344,1.0033569,0.18548584,-0.078125,0.34375,0.671875
1695640164092,0.11352539,0.9911499,0.18548584,1.171875,0.578125,0.4375
1695640164111,0.10961914,0.99676514,0.18963623,0.265625,-0.265625,0.46875
1695640164152,0.107421875,0.9923706,0.18231201,-0.296875,-0.09375,0.21875
1695640164193,0.09692383,0.98895264,0.18548584,0.46875,0.171875,0.09375
1695640164234,0.10229492,0.9989624,0.18109131,-0.734375,-0.046875,0.921875
1695640164272,0.095947266,0.99554443,0.18109131,-0.078125,0.25,0.109375
1695640164313,0.10253906,0.9940796,0.17425537,-0.84375,0.078125,0.765625
1695640164352,0.09741211,0.9899292,0.18475342,-1.03125,-0.015625,0.59375
1695640164391,0.10131836,0.99212646,0.18377686,0.71875,0.03125,0.4375
1695640164432,0.103027344,0.9989624,0.18231201,-1.578125,-0.0625,1.234375
1695640164472,0.103271484,0.99505615,0.17596436,0.671875,-0.203125,0.890625
1695640164513,0.100097656,0.9891968,0.18328857,-0.28125,0.140625,0.484375
1695640164552,0.09643555,0.99627686,0.17889404,-0.046875,0.03125,0.6875
1695640164592,0.099365234,0.9977417,0.18304443,0.125,-0.34375,0.65625
1695640164632,0.09057617,0.99432373,0.17938232,0.3125,-0.015625,0.453125
1695640164672,0.08178711,0.9904175,0.17425537,-0.453125,-0.328125,0.6875
1695640164713,0.088134766,0.9984741,0.18377686,-0.140625,-0.328125,0.84375
1695640164753,0.0949707,0.9989624,0.17034912,0.453125,-0.03125,0.625
1695640164796,0.09106445,0.99505615,0.17303467,-0.796875,-0.34375,0.734375
1695640164831,0.095214844,0.99334717,0.17132568,-0.484375,-0.109375,0.859375
1695640164873,0.08959961,0.9972534,0.1774292,0.078125,-0.40625,0.625
1695640164914,0.084228516,0.9994507,0.17596436,-0.46875,-0.3125,0.34375
1695640164951,0.08178711,1.0028687,0.17718506,-0.046875,-0.09375,0.0625
1695640164993,0.083496094,0.9977417,0.17523193,-0.3125,-0.296875,-0.125
1695640165033,0.0793457,0.9899292,0.17913818,0.078125,-0.40625,0.140625
1695640165073,0.08691406,0.9977417,0.17181396,0.203125,0.171875,0.0
1695640165112,0.08251953,0.99993896,0.168396,-0.0625,-0.28125,-0.390625
1695640165152,0.079589844,0.99627686,0.1696167,-0.03125,-0.28125,-0.15625
1695640165193,0.07836914,0.99383545,0.16522217,-0.28125,0.296875,-0.671875
1695640165232,0.080322266,0.9994507,0.17376709,0.3125,0.015625,-0.609375
1695640165272,0.091552734,0.9972534,0.16766357,-0.515625,-0.421875,-0.015625
1695640165313,0.087402344,0.993103,0.16864014,0.5,-0.078125,-0.171875
1695640165352,0.08618164,0.99920654,0.17303467,0.453125,-0.046875,0.046875
1695640165392,0.0949707,1.0048218,0.16815186,0.1875,-0.21875,0.0625
1695640165473,0.095458984,0.99676514,0.1671753,-0.03125,0.203125,-0.359375
1695640165483,0.08154297,1.0006714,0.16864014,-0.578125,-0.0625,-0.296875
1695640165491,0.08154297,0.99334717,0.16644287,-0.078125,0.015625,-0.015625
1695640165538,0.08618164,0.9957886,0.16644287,1.046875,0.359375,0.046875
1695640165571,0.08129883,0.99383545,0.16619873,0.5,0.1875,0.6875
1695640165613,0.0925293,1.0014038,0.1642456,1.484375,0.703125,0.953125
1695640165658,0.09448242,1.0057983,0.16009521,0.75,0.5625,0.90625
1695640165694,0.083740234,1.0001831,0.1762085,0.4375,0.796875,0.953125
1695640165732,0.08276367,1.0023804,0.16375732,1.59375,0.9375,1.015625
1695640165773,0.080566406,0.9970093,0.168396,0.984375,0.5,1.09375
1695640165812,0.08105469,1.0033569,0.1564331,0.765625,0.765625,1.34375
1695640165856,0.076416016,1.001648,0.17376709,1.421875,0.515625,0.1875
1695640165891,0.076171875,0.99749756,0.17181396,0.25,0.53125,1.046875
1695640165931,0.068603516,0.9862671,0.16790771,1.125,-0.0625,0.34375
1695640165972,0.079589844,0.99212646,0.17596436,2.09375,0.15625,0.171875
1695640166013,0.07324219,0.9887085,0.18133545,1.609375,-0.6875,0.4375
1695640166053,0.07055664,1.0018921,0.18255615,1.859375,-0.390625,0.171875
1695640166093,0.075683594,1.0018921,0.1918335,2.578125,0.015625,0.0625
1695640166136,0.07104492,0.994812,0.18695068,0.59375,-0.171875,0.46875
1695640166172,0.06958008,0.9960327,0.18548584,1.109375,-0.1875,0.1875
1695640166214,0.071777344,0.9918823,0.18939209,0.65625,0.125,-0.328125
1695640166252,0.0637207,0.9984741,0.1864624,-0.4375,-0.03125,-0.265625
1695640166291,0.05859375,0.9918823,0.17718506,-0.546875,0.734375,-0.375
1695640166334,0.061035156,1.0057983,0.18865967,-0.671875,0.75,-0.296875
1695640166373,0.080078125,0.99261475,0.19232178,-0.46875,0.015625,-0.421875
1695640166411,0.08666992,0.9977417,0.1762085,0.15625,0.515625,0.25
1695640166454,0.07910156,1.0116577,0.19329834,0.265625,0.515625,0.8125
1695640166495,0.0715332,0.9945679,0.18035889,1.5625,-1.234375,0.03125
1695640166532,0.09765625,1.0067749,0.19573975,4.078125,-1.46875,1.234375
1695640166573,0.08227539,0.99432373,0.21746826,1.78125,-2.984375,0.90625
1695640166617,0.07495117,1.0094604,0.18670654,3.359375,-1.453125,0.6875
1695640166652,0.060302734,1.0006714,0.21258545,0.125,-2.515625,0.25
1695640166692,0.07421875,0.993103,0.17449951,2.984375,-1.421875,0.25
1695640166731,0.052246094,0.9743042,0.17474365,1.125,0.25,-1.109375
1695640166772,0.06347656,0.98358154,0.18475342,0.625,0.84375,0.609375
1695640166812,0.061035156,0.9747925,0.20013428,-2.25,0.578125,2.046875
1695640166851,0.049072266,0.99505615,0.16009521,-0.015625,0.875,0.578125
1695640166892,0.06225586,0.9828491,0.199646,-1.328125,2.125,-1.171875
1695640166935,0.09033203,1.0045776,0.2008667,2.640625,3.09375,1.0625
1695640166980,0.057373047,0.9894409,0.19818115,2.8125,1.140625,-0.46875
1695640167011,0.053955078,1.0026245,0.19793701,3.203125,0.90625,-0.203125
1695640167051,0.06958008,1.0021362,0.20672607,2.125,0.46875,-0.65625
1695640167096,0.06567383,0.9989624,0.19818115,1.40625,0.78125,-0.21875
1695640167132,0.06201172,0.9838257,0.2062378,2.734375,0.515625,-1.140625
1695640167172,0.06591797,0.98309326,0.21917725,1.640625,1.390625,-0.609375
1695640167215,0.06298828,0.993103,0.21429443,1.171875,1.0,-0.71875
1695640167252,0.07446289,0.9828491,0.21722412,1.296875,0.625,-0.765625
1695640167293,0.071777344,0.9916382,0.215271,0.953125,0.078125,-0.5
1695640167339,0.083984375,0.9928589,0.22747803,1.453125,0.578125,0.03125
1695640167374,0.0637207,0.99432373,0.21697998,-0.328125,0.078125,0.515625
1695640167413,0.080566406,0.9850464,0.22698975,0.703125,-0.15625,-0.234375
1695640167452,0.07080078,0.9984741,0.22991943,-0.46875,-0.390625,-0.140625
1695640167492,0.064941406,0.98431396,0.21502686,-0.6875,-0.375,-0.25
1695640167533,0.06640625,0.980896,0.21575928,0.59375,-0.1875,-0.375
1695640167575,0.064697266,0.9984741,0.22357178,-0.375,-0.203125,-0.234375
1695640167612,0.06933594,0.97821045,0.22650146,-0.984375,-0.171875,-0.28125
1695640167653,0.06274414,0.9957886,0.21795654,-0.34375,-0.59375,-0.65625
1695640167698,0.076660156,0.98553467,0.22503662,-1.1875,0.03125,0.3125
1695640167736,0.059326172,0.9779663,0.19744873,0.203125,-0.640625,-1.234375
1695640167773,0.08520508,0.99334717,0.2140503,0.359375,0.890625,-1.109375
1695640167816,0.072265625,0.98968506,0.21209717,-2.21875,0.328125,-0.578125
1695640167852,0.08666992,0.98724365,0.2062378,-1.015625,0.171875,-0.5625
1695640167893,0.07080078,0.9894409,0.20672607,-0.375,-0.140625,-0.53125
1695640167941,0.08569336,0.9660034,0.20941162,-3.09375,-0.296875,0.53125
1695640167972,0.07495117,0.99139404,0.18792725,-0.546875,-0.109375,0.265625
1695640168012,0.06713867,0.9996948,0.20599365,-0.484375,0.171875,-0.6875
1695640168054,0.07861328,0.99749756,0.20233154,0.421875,-0.046875,0.109375
1695640168132,0.0637207,0.9735718,0.19012451,0.921875,0.015625,-1.203125
1695640168139,0.08959961,1.0031128,0.19500732,1.609375,0.265625,0.046875
1695640168152,0.07080078,0.9838257,0.20135498,0.578125,0.28125,-0.78125
1695640168192,0.09448242,0.9845581,0.19696045,2.015625,1.484375,0.5
1695640168232,0.08251953,1.0131226,0.20770264,1.78125,0.578125,1.4375
1695640168274,0.08520508,0.9813843,0.2008667,0.578125,0.625,0.796875
1695640168312,0.07299805,1.0011597,0.17791748,-0.1875,1.546875,-0.03125
1695640168353,0.08618164,0.9772339,0.20941162,-0.328125,1.234375,-1.09375
1695640168392,0.07714844,1.0026245,0.20599365,0.515625,1.71875,0.203125
1695640168432,0.07495117,0.9918823,0.2140503,1.015625,1.375,-0.40625
1695640168472,0.08520508,0.98968506,0.21307373,2.15625,0.9375,0.6875
1695640168512,0.0703125,0.97283936,0.20794678,1.28125,0.234375,0.484375
1695640168552,0.08666992,0.99798584,0.20672607,2.890625,0.65625,1.046875
1695640168592,0.068359375,0.9862671,0.21209717,1.34375,0.65625,-0.078125
1695640168634,0.07324219,0.98236084,0.20965576,1.09375,0.546875,0.640625
1695640168673,0.071777344,0.9894409,0.22015381,0.390625,0.75,0.515625
1695640168712,0.07421875,0.99090576,0.2111206,0.375,0.0625,0.96875
1695640168752,0.068847656,0.99017334,0.22113037,0.1875,0.203125,0.546875
1695640168791,0.07006836,0.98968506,0.2111206,0.140625,0.390625,0.234375
1695640168831,0.06225586,0.9970093,0.21063232,-0.53125,0.25,0.25
1695640168876,0.068115234,0.9918823,0.21380615,-0.25,-0.21875,0.078125
1695640168913,0.06201172,0.994812,0.21331787,-0.953125,0.625,0.015625
1695640168953,0.064453125,0.98895264,0.20599365,-0.5625,0.265625,-1.21875
1695640168992,0.064208984,0.9923706,0.20770264,-2.65625,1.25,-2.921875
1695640169032,0.096191406,0.99798584,0.21795654,-2.984375,0.28125,-1.53125
1695640169074,0.07006836,0.980896,0.19891357,-2.046875,-0.109375,-1.0625
1695640169112,0.08276367,0.98553467,0.19940186,-1.453125,0.140625,-0.625
1695640169156,0.075927734,0.9940796,0.19622803,-1.84375,0.0625,-0.734375
1695640169193,0.075683594,0.99554443,0.18963623,-1.734375,-0.40625,-0.453125
1695640169232,0.072021484,0.9923706,0.19207764,-1.84375,-0.59375,-0.578125
1695640169273,0.06713867,0.99749756,0.18621826,-1.875,-0.375,-0.1875
1695640169312,0.08300781,0.99017334,0.19085693,-1.328125,-1.0,-0.234375
1695640169353,0.087890625,0.99823,0.18328857,-1.15625,-0.46875,-0.09375
1695640169394,0.07421875,0.9894409,0.17401123,-0.484375,-0.890625,-0.734375
1695640169433,0.09399414,1.0033569,0.17596436,-1.109375,-0.34375,-0.359375
1695640169471,0.08935547,1.0057983,0.17401123,-2.078125,-0.796875,-0.109375
1695640169512,0.084472656,0.99627686,0.16253662,-1.34375,-0.53125,-0.40625
1695640169557,0.0847168,0.9972534,0.16473389,-1.96875,-0.5625,0.1875
1695640169594,0.07763672,0.9852905,0.1564331,-1.3125,-0.375,-0.859375
1695640169632,0.079833984,1.0014038,0.1618042,-3.296875,-0.5625,0.0625
1695640169671,0.09008789,0.9953003,0.14935303,-1.765625,0.03125,-0.28125
1695640169712,0.08544922,0.99334717,0.16156006,-0.984375,-0.171875,0.015625
1695640169752,0.09106445,1.0036011,0.1564331,-0.5625,0.21875,1.15625
1695640169793,0.08496094,1.0072632,0.14715576,0.75,0.234375,0.1875
1695640169834,0.09082031,1.0033569,0.15252686,-0.09375,0.1875,1.140625
1695640169872,0.09375,0.99871826,0.14813232,-1.421875,-0.265625,2.015625
1695640169912,0.072021484,1.00531,0.15496826,-0.34375,-0.015625,1.78125
1695640169957,0.072021484,1.0033569,0.15814209,-1.1875,-0.34375,1.296875
1695640169992,0.07348633,0.9953003,0.14813232,-0.140625,-0.140625,1.046875
1695640170034,0.06738281,0.99798584,0.14593506,0.40625,0.296875,0.921875
1695640170072,0.052490234,1.0131226,0.14837646,1.0625,0.015625,0.984375
1695640170112,0.068603516,1.0009155,0.15374756,1.5625,0.375,1.234375
1695640170152,0.072021484,1.0038452,0.14276123,2.5625,0.28125,1.0625
1695640170193,0.05883789,1.0092163,0.15765381,2.265625,-0.28125,0.984375
1695640170232,0.06738281,1.0038452,0.15008545,3.59375,0.53125,0.21875
1695640170276,0.068603516,1.0004272,0.16156006,1.578125,0.265625,0.453125
1695640170312,0.06518555,0.996521,0.16522217,0.1875,0.53125,0.46875
1695640170353,0.05102539,1.0006714,0.1696167,-0.03125,0.859375,0.0
1695640170392,0.056152344,1.0004272,0.18328857,-0.453125,-0.0625,0.71875
1695640170431,0.057617188,1.013855,0.17425537,0.296875,-0.734375,1.078125
1695640170472,0.04736328,0.99871826,0.17327881,1.171875,-0.71875,0.46875
1695640170512,0.05908203,0.9891968,0.16229248,1.78125,-0.703125,0.71875
1695640170556,0.056152344,1.0036011,0.16473389,-0.234375,-0.6875,1.265625
1695640170591,0.041992188,1.00531,0.16009521,-0.71875,-0.53125,0.4375
1695640170633,0.060791016,0.9972534,0.16278076,-0.828125,-0.53125,0.109375
1695640170675,0.055664062,0.9899292,0.16595459,-4.0625,-0.15625,0.6875
1695640170711,0.051757812,1.0136108,0.16156006,-0.15625,0.0625,-0.171875
1695640170752,0.05444336,0.9887085,0.15911865,-1.328125,-0.03125,-0.609375
1695640170771,0.05493164,1.0050659,0.16107178,-0.921875,0.453125,-0.703125
1695640170812,0.05493164,1.0011597,0.15814209,-1.265625,-0.390625,-1.109375
1695640170852,0.05053711,1.0119019,0.14886475,-0.546875,-0.453125,-1.03125
1695640170894,0.055908203,0.993103,0.15716553,-0.328125,-0.203125,-1.59375
1695640170935,0.06518555,1.0067749,0.15716553,-1.3125,-0.3125,-0.390625
1695640170973,0.063964844,1.001648,0.14276123,-1.59375,-0.71875,-1.34375
1695640171011,0.0637207,1.0004272,0.15716553,-1.671875,-0.9375,-1.125
1695640171057,0.076171875,1.0001831,0.14154053,-1.75,-0.421875,-1.015625
1695640171093,0.060058594,0.99920654,0.13983154,-1.46875,-0.90625,-1.84375
1695640171133,0.07714844,1.0111694,0.12835693,0.1875,0.046875,-1.015625
1695640171172,0.06689453,1.0038452,0.13031006,-0.546875,-0.671875,-1.8125
1695640171215,0.060302734,1.0079956,0.13861084,-0.3125,-0.9375,-2.125
1695640171253,0.076171875,0.9984741,0.14324951,-0.421875,-0.046875,-1.796875
1695640171297,0.07470703,0.9940796,0.13909912,0.671875,-0.046875,-1.640625
1695640171333,0.08203125,1.001648,0.13397217,0.515625,0.328125,-0.5
1695640171373,0.07446289,1.0075073,0.14691162,0.09375,0.34375,-0.5
1695640171419,0.0925293,1.010437,0.12371826,-0.671875,1.90625,0.421875
1695640171453,0.08325195,1.0128784,0.121032715,-0.671875,1.265625,-1.015625
1695640171492,0.10107422,1.012146,0.12884521,-1.0,0.53125,-0.59375
1695640171536,0.092041016,0.99139404,0.12615967,-0.09375,-0.265625,-0.828125
1695640171574,0.084228516,0.9953003,0.12371826,-0.8125,-0.71875,0.5
1695640171612,0.07006836,1.0143433,0.13006592,-0.953125,-0.15625,0.4375
1695640171655,0.07836914,1.0060425,0.124938965,0.75,0.71875,-0.4375
1695640171691,0.084228516,1.0031128,0.13250732,1.671875,0.5,0.15625
1695640171733,0.088378906,1.0065308,0.1281128,1.90625,0.765625,0.140625
1695640171782,0.0859375,1.0031128,0.12615967,3.015625,0.84375,-0.765625
1695640171812,0.072753906,1.0092163,0.13006592,2.703125,0.03125,-0.984375
1695640171854,0.07910156,0.99920654,0.13690186,1.921875,-0.203125,-0.484375
1695640171897,0.08300781,0.99554443,0.14398193,2.453125,0.1875,0.25
1695640171932,0.09033203,1.0094604,0.14276123,1.9375,-0.1875,0.515625
1695640171973,0.09033203,0.99798584,0.14178467,1.8125,-0.40625,0.5
1695640172011,0.07910156,0.994812,0.14300537,1.40625,-1.203125,-0.671875
1695640172057,0.072021484,0.9923706,0.15203857,0.296875,0.28125,-0.625
1695640172092,0.08129883,1.0099487,0.15081787,0.640625,-0.234375,0.3125
1695640172132,0.08325195,1.0026245,0.1593628,1.09375,-0.765625,-0.03125
1695640172172,0.07397461,0.99139404,0.14984131,-0.4375,0.046875,-0.125
1695640172212,0.080566406,0.99749756,0.16351318,1.0625,-0.046875,0.25
1695640172253,0.08691406,0.99920654,0.16644287,0.125,-1.4375,0.125
1695640172291,0.07910156,0.9928589,0.15765381,1.1875,-2.375,-0.6875
1695640172335,0.07910156,0.99676514,0.15130615,0.171875,-1.390625,-0.421875
1695640172377,0.080566406,0.98651123,0.16033936,-2.0,-1.78125,0.90625
1695640172411,0.063964844,1.0006714,0.14471436,-0.96875,-1.453125,-0.015625
1695640172453,0.0847168,1.0009155,0.15814209,-0.171875,-0.578125,-0.609375
1695640172491,0.083740234,1.0001831,0.14178467,-0.828125,-0.015625,-0.546875
1695640172532,0.08105469,1.0050659,0.14471436,0.015625,-0.140625,-1.203125
1695640172572,0.06689453,1.0140991,0.1251831,0.25,0.859375,-2.640625
1695640172612,0.060302734,0.99993896,0.14813232,-3.328125,2.140625,-3.765625
1695640172654,0.10473633,0.9879761,0.13079834,-4.1875,3.03125,-1.984375
1695640172692,0.095703125,0.9911499,0.13543701,-4.015625,2.234375,-0.8125
1695640172738,0.12158203,1.0026245,0.12591553,-2.4375,1.84375,-0.171875
1695640172772,0.1105957,1.0158081,0.12689209,-0.4375,1.09375,-0.28125
1695640172813,0.11035156,0.9918823,0.12347412,0.0,1.203125,-1.484375
1695640172852,0.109375,0.99139404,0.1227417,1.53125,1.71875,-1.25
1695640172892,0.08862305,1.0119019,0.1251831,-0.8125,-0.375,-0.3125
1695640172933,0.110839844,0.993103,0.117614746,0.515625,0.140625,-0.046875
1695640172976,0.1003418,0.99871826,0.1083374,-0.046875,-0.609375,0.1875
1695640173012,0.09106445,1.0075073,0.13079834,-0.078125,-1.03125,-0.296875
1695640173052,0.104003906,1.0038452,0.12860107,1.0,-1.28125,0.75
1695640173095,0.092041016,1.0043335,0.13323975,1.28125,-2.140625,0.578125
1695640173135,0.103271484,0.9940796,0.13128662,0.5625,-1.734375,0.53125
1695640173172,0.103759766,0.9984741,0.13397217,0.890625,-1.8125,1.21875
1695640173213,0.099853516,1.0018921,0.13494873,-0.21875,-1.78125,0.921875
1695640173254,0.09106445,1.0089722,0.12738037,0.359375,-1.140625,0.4375
1695640173292,0.09838867,1.0111694,0.1359253,0.1875,-0.8125,1.015625
1695640173331,0.09448242,0.9953003,0.13397217,0.125,-0.640625,1.328125
1695640173374,0.08227539,0.9989624,0.124938965,-0.203125,-0.34375,1.796875
