# Sensor type: Respeck
# Activity type: Sitting
# Activity subtype: Hyperventilating
# Subject id: s1908968
# Notes: 
timestamp,accel_x,accel_y,accel_z,gyro_x,gyro_y,gyro_z
1695572589948,-0.3256836,-0.8164673,0.46429443,-0.046875,-0.53125,-0.140625
1695572589992,-0.34814453,-0.861145,0.5036011,1.546875,-0.921875,0.75
1695572590022,-0.31811523,-0.8352661,0.44281006,-2.140625,-1.796875,-0.640625
1695572590066,-0.33276367,-0.8508911,0.48162842,1.09375,-0.765625,0.046875
1695572590111,-0.34545898,-0.8545532,0.48382568,0.578125,-0.8125,1.203125
1695572590143,-0.33740234,-0.8413696,0.4640503,-0.671875,-1.109375,-0.46875
1695572590187,-0.3269043,-0.84454346,0.480896,0.6875,-0.921875,0.046875
1695572590233,-0.34033203,-0.8381958,0.46966553,-0.390625,-0.8125,0.34375
1695572590262,-0.34423828,-0.84942627,0.48358154,-0.328125,-0.890625,-0.0625
1695572590307,-0.33666992,-0.84332275,0.46990967,0.28125,-1.359375,0.25
1695572590338,-0.32470703,-0.83966064,0.46575928,0.09375,-0.984375,0.203125
1695572590411,-0.3293457,-0.85406494,0.47357178,0.0625,-1.59375,0.15625
1695572590427,-0.33251953,-0.84210205,0.47113037,-0.109375,-1.375,0.234375
1695572590456,-0.3322754,-0.84747314,0.4706421,-0.53125,-1.359375,0.109375
1695572590516,-0.32714844,-0.8682251,0.46380615,-1.234375,-0.796875,-0.296875
1695572590577,-0.3310547,-0.8272095,0.46844482,3.703125,-1.28125,-0.0625
1695572590581,-0.33740234,-0.88604736,0.52557373,5.96875,9.515625,4.84375
1695572590624,-0.28735352,-0.8411255,0.40447998,1.46875,8.578125,4.390625
1695572590653,-0.3227539,-0.85894775,0.5192261,14.078125,5.90625,6.46875
1695572590698,-0.35327148,-0.8916626,0.50213623,7.921875,8.078125,8.3125
1695572590744,-0.31225586,-0.8543091,0.41375732,7.390625,-2.09375,2.390625
1695572590773,-0.18676758,-0.8665161,0.43988037,2.8125,-1.296875,5.28125
1695572590819,-0.27148438,-0.8291626,0.35003662,-2.703125,2.484375,0.53125
1695572590852,-0.29614258,-0.86602783,0.42816162,-4.984375,-12.71875,-5.625
1695572590892,-0.2783203,-0.94000244,0.51776123,-6.1875,-5.609375,-2.5625
1695572590954,-0.31762695,-0.85650635,0.41644287,-3.890625,0.34375,0.296875
1695572590968,-0.3005371,-0.8574829,0.4406128,-1.46875,-4.765625,-3.453125
1695572591012,-0.30004883,-0.8977661,0.49456787,0.859375,-0.75,-1.4375
1695572591059,-0.3232422,-0.87506104,0.4689331,2.578125,3.0,0.859375
1695572591089,-0.3059082,-0.8892212,0.48358154,0.375,3.265625,1.625
1695572591164,-0.2998047,-0.8694458,0.44110107,-3.671875,-3.453125,0.296875
1695572591170,-0.28198242,-0.84625244,0.4286499,-5.125,-5.328125,-2.75
1695572591243,-0.30517578,-0.8826294,0.4706421,0.0,-0.671875,-0.3125
1695572591256,-0.34057617,-0.8694458,0.47454834,5.234375,4.46875,6.84375
1695572591283,-0.28295898,-0.8374634,0.4088745,2.859375,-0.796875,1.984375
1695572591333,-0.2512207,-0.84210205,0.42913818,1.34375,-3.34375,-1.65625
1695572591358,-0.2536621,-0.84820557,0.42425537,-6.078125,-6.75,-2.65625
1695572591403,-0.28881836,-0.86968994,0.50653076,-3.59375,-10.203125,-4.296875
1695572591447,-0.3215332,-0.8850708,0.49261475,-6.609375,-6.140625,-3.546875
1695572591477,-0.29516602,-0.866272,0.43304443,-4.046875,-11.671875,-6.015625
1695572591523,-0.30444336,-0.8665161,0.45794678,0.53125,-6.828125,-3.90625
1695572591573,-0.3701172,-0.8591919,0.44329834,-0.015625,-2.84375,-0.84375
1695572591601,-0.38061523,-0.86016846,0.44696045,-0.390625,-0.796875,-1.90625
1695572591642,-0.35351562,-0.86602783,0.4303589,-2.859375,-0.5,-2.203125
1695572591673,-0.34106445,-0.8286743,0.4616089,1.09375,-1.5,-1.890625
1695572591718,-0.35131836,-0.861145,0.4550171,-2.0,-0.578125,-1.15625
1695572591766,-0.33935547,-0.8616333,0.4713745,-3.203125,-4.703125,-2.59375
1695572591793,-0.36865234,-0.8587036,0.48944092,2.078125,-2.890625,0.671875
1695572591869,-0.3671875,-0.8484497,0.4611206,-0.0625,1.171875,1.46875
1695572591885,-0.38134766,-0.86724854,0.4940796,2.921875,3.578125,2.921875
1695572591914,-0.3786621,-0.881897,0.45648193,1.71875,6.375,4.109375
1695572591956,-0.34057617,-0.8652954,0.45037842,6.046875,5.078125,1.1875
1695572591987,-0.3310547,-0.8755493,0.46502686,6.546875,8.078125,4.234375
1695572592032,-0.30737305,-0.8477173,0.44207764,8.53125,8.921875,5.875
1695572592076,-0.29589844,-0.84625244,0.4418335,2.703125,1.234375,3.734375
1695572592108,-0.28100586,-0.83135986,0.42547607,-0.75,-2.9375,1.359375
1695572592152,-0.2578125,-0.82281494,0.40863037,-5.015625,-4.859375,0.421875
1695572592186,-0.26391602,-0.8179321,0.39031982,-9.9375,-9.265625,-1.859375
1695572592244,-0.33081055,-0.87286377,0.47113037,-7.8125,-13.578125,-3.59375
1695572592272,-0.37231445,-0.8953247,0.4874878,-11.53125,-6.578125,-3.0625
1695572592303,-0.3076172,-0.84332275,0.4520874,-3.796875,-4.1875,-5.0625
1695572592347,-0.34814453,-0.89141846,0.51361084,4.171875,0.28125,1.703125
1695572592393,-0.35473633,-0.8526001,0.47650146,4.34375,1.171875,3.0625
1695572592422,-0.31982422,-0.83135986,0.44622803,-1.125,-0.84375,-0.453125
1695572592467,-0.31811523,-0.84381104,0.4550171,-2.703125,-0.09375,-0.4375
1695572592497,-0.34570312,-0.8569946,0.47235107,-2.046875,-1.625,-1.890625
1695572592544,-0.35498047,-0.87945557,0.48651123,-0.765625,-1.046875,-0.484375
1695572592617,-0.3527832,-0.85772705,0.4923706,2.484375,-0.484375,0.953125
1695572592620,-0.33398438,-0.850647,0.47869873,4.421875,1.328125,1.40625
1695572592692,-0.33007812,-0.85943604,0.46746826,4.515625,4.75,2.546875
1695572592696,-0.32788086,-0.87384033,0.4911499,6.59375,8.609375,4.15625
1695572592737,-0.32006836,-0.8701782,0.39593506,1.3125,7.390625,3.328125
1695572592783,-0.296875,-0.87164307,0.48675537,9.15625,1.890625,1.8125
1695572592813,-0.2944336,-0.8623657,0.44500732,4.765625,6.296875,4.453125
1695572592859,-0.26513672,-0.8320923,0.4015503,1.765625,-1.90625,0.125
1695572592902,-0.28051758,-0.8411255,0.44940186,1.828125,-2.71875,0.90625
1695572592931,-0.2709961,-0.8381958,0.39471436,-7.125,-8.65625,-0.78125
1695572592981,-0.2993164,-0.85284424,0.44329834,-10.125,-17.265625,-5.015625
1695572593008,-0.34301758,-0.8909302,0.48065186,-10.359375,-11.046875,-4.078125
1695572593053,-0.29663086,-0.8843384,0.44085693,-3.546875,-1.578125,-2.703125
1695572593097,-0.31518555,-0.86431885,0.47161865,2.359375,-0.75,-1.421875
1695572593131,-0.34960938,-0.86724854,0.47601318,2.234375,2.171875,1.296875
1695572593172,-0.34155273,-0.8323364,0.4545288,1.125,0.265625,0.078125
1695572593217,-0.33154297,-0.86383057,0.46697998,0.234375,0.8125,-0.75
1695572593247,-0.33447266,-0.87750244,0.48065186,3.46875,1.5625,0.421875
1695572593324,-0.3425293,-0.89508057,0.43084717,0.125,2.625,0.9375
1695572593330,-0.31396484,-0.8584595,0.47625732,4.5,0.40625,0.015625
1695572593397,-0.33764648,-0.8635864,0.44744873,4.578125,6.46875,3.203125
1695572593415,-0.28881836,-0.90509033,0.46868896,5.828125,3.015625,-3.375
1695572593443,-0.30786133,-0.85357666,0.45526123,7.390625,0.65625,2.625
1695572593503,-0.30126953,-0.85113525,0.4052124,-2.796875,-0.546875,1.671875
1695572593517,-0.30859375,-0.8533325,0.43084717,-1.84375,-4.84375,-0.21875
1695572593565,-0.31640625,-0.86431885,0.4401245,-2.1875,-4.890625,0.890625
1695572593607,-0.29541016,-0.8477173,0.41644287,-3.75,-6.046875,0.109375
1695572593638,-0.30249023,-0.8377075,0.39178467,-6.609375,-8.9375,-1.34375
1695572593683,-0.32055664,-0.88165283,0.4767456,-3.453125,-7.859375,-1.890625
1695572593730,-0.3317871,-0.88653564,0.45941162,-2.1875,-1.046875,0.6875
1695572593759,-0.32983398,-0.8731079,0.4393921,-3.390625,-1.859375,-0.65625
1695572593806,-0.32983398,-0.84332275,0.44989014,-1.890625,-2.21875,-1.25
1695572593834,-0.32495117,-0.8694458,0.45672607,-2.296875,-1.4375,0.0
1695572593879,-0.34521484,-0.8621216,0.49700928,0.6875,-0.53125,1.078125
1695572593923,-0.32788086,-0.850647,0.447937,-1.078125,0.6875,-0.09375
1695572593953,-0.3310547,-0.8484497,0.46014404,-0.59375,1.1875,-0.296875
1695572594029,-0.34350586,-0.88067627,0.49139404,3.640625,0.671875,1.953125
1695572594032,-0.3466797,-0.8735962,0.47113037,0.875,1.203125,1.46875
1695572594104,-0.33154297,-0.8591919,0.49163818,0.4375,2.546875,0.703125
1695572594118,-0.33032227,-0.8452759,0.432312,-6.4375,3.921875,-0.0625
1695572594151,-0.30395508,-0.82769775,0.45770264,3.765625,-4.71875,-1.4375
1695572594195,-0.29663086,-0.8616333,0.47381592,1.359375,-0.828125,1.75
1695572594240,-0.30493164,-0.85113525,0.44232178,3.0,-0.359375,2.125
1695572594268,-0.30786133,-0.8543091,0.45355225,1.171875,-1.484375,0.703125
1695572594314,-0.30444336,-0.83428955,0.43597412,-1.8125,-1.4375,-0.46875
1695572594346,-0.3161621,-0.8401489,0.45428467,-0.765625,-5.546875,-1.375
1695572594392,-0.33642578,-0.8440552,0.46453857,-5.34375,-6.765625,-0.78125
1695572594434,-0.32885742,-0.8447876,0.4779663,-4.390625,-6.03125,-1.5
1695572594463,-0.3112793,-0.85723877,0.44403076,-4.71875,-2.671875,-1.640625
1695572594510,-0.33422852,-0.86553955,0.49700928,2.40625,0.09375,1.203125
1695572594554,-0.34521484,-0.84088135,0.46868896,-0.078125,-0.59375,0.796875
1695572594583,-0.32666016,-0.85357666,0.47772217,-2.421875,-1.90625,-1.234375
1695572594629,-0.3227539,-0.8557739,0.48284912,-0.4375,0.71875,-0.21875
1695572594664,-0.34057617,-0.8555298,0.46746826,-0.65625,0.171875,-0.59375
1695572594734,-0.34326172,-0.86920166,0.5031128,3.15625,-0.125,0.171875
1695572594749,-0.35424805,-0.86065674,0.47161865,1.703125,1.859375,1.546875
1695572594782,-0.32836914,-0.84820557,0.4767456,2.40625,1.015625,-0.3125
1695572594853,-0.32128906,-0.8555298,0.47772217,2.328125,4.546875,1.765625
1695572594858,-0.30786133,-0.8526001,0.42718506,0.53125,-0.546875,1.3125
1695572594899,-0.4086914,-0.9019165,0.46453857,-2.9375,-3.796875,1.921875
1695572594943,-0.2770996,-0.8562622,0.47650146,6.796875,9.53125,-1.265625
1695572594973,-0.28027344,-0.82818604,0.47894287,-9.546875,3.53125,1.34375
1695572595020,-0.26391602,-0.78131104,0.39544678,2.0,-3.59375,1.59375
1695572595067,-0.29418945,-0.8179321,0.4701538,3.109375,-2.921875,1.640625
1695572595093,-0.3474121,-0.84820557,0.47357178,-0.890625,-3.8125,-1.875
1695572595137,-0.33666992,-0.86920166,0.4784546,3.734375,-4.140625,-2.578125
1695572595213,-0.30810547,-0.8633423,0.46966553,-0.578125,-0.078125,1.234375
1695572595217,-0.3034668,-0.84161377,0.4335327,0.53125,-1.8125,-0.34375
1695572595257,-0.30932617,-0.8748169,0.47650146,0.9375,0.5,1.15625
1695572595289,-0.33813477,-0.8701782,0.47161865,1.59375,0.984375,2.046875
1695572595335,-0.33642578,-0.8657837,0.46258545,0.703125,0.15625,0.484375
1695572595365,-0.3095703,-0.84625244,0.45477295,-0.375,-1.25,0.15625
1695572595439,-0.3347168,-0.86798096,0.47576904,1.015625,-1.296875,0.421875
1695572595453,-0.31835938,-0.8731079,0.4718628,0.953125,-0.53125,-0.1875
1695572595483,-0.33569336,-0.89019775,0.50531006,5.78125,2.875,2.65625
1695572595560,-0.30151367,-0.85943604,0.43182373,0.0625,3.375,1.578125
1695572595573,-0.29370117,-0.8604126,0.4701538,8.359375,7.265625,1.15625
1695572595603,-0.29516602,-0.89849854,0.46136475,9.75,15.15625,6.90625
1695572595652,-0.26611328,-0.86016846,0.4130249,12.515625,10.40625,6.140625
1695572595679,-0.27905273,-0.87945557,0.46844482,8.4375,5.546875,4.421875
1695572595723,-0.26660156,-0.87091064,0.4022827,1.234375,1.34375,1.65625
1695572595769,-0.24267578,-0.8858032,0.44036865,0.0625,-4.3125,-1.140625
1695572595799,-0.24487305,-0.87872314,0.4100952,-2.34375,-4.46875,0.75
1695572595843,-0.25610352,-0.8777466,0.41278076,-4.296875,-8.203125,-1.125
1695572595890,-0.2668457,-0.8772583,0.42791748,-6.703125,-7.25,-1.96875
1695572595918,-0.26757812,-0.87335205,0.43475342,-4.390625,-4.609375,-1.671875
1695572595963,-0.2824707,-0.88067627,0.4364624,-1.0,-5.859375,-0.5
1695572595995,-0.28198242,-0.85113525,0.43206787,-2.84375,-6.296875,-0.921875
1695572596053,-0.29956055,-0.89068604,0.4352417,-0.53125,-3.84375,0.171875
1695572596083,-0.24902344,-0.88482666,0.42694092,-2.71875,-2.125,-0.890625
1695572596113,-0.30444336,-0.8652954,0.4472046,-1.140625,-3.1875,-0.984375
1695572596160,-0.30273438,-0.8821411,0.465271,-1.953125,-2.890625,0.09375
1695572596187,-0.28759766,-0.881897,0.44769287,-2.078125,-2.125,-0.859375
1695572596263,-0.28759766,-0.878479,0.46185303,0.328125,0.9375,-0.65625
1695572596279,-0.30786133,-0.8850708,0.4430542,1.265625,2.140625,-0.234375
1695572596308,-0.31835938,-0.9092407,0.47821045,5.59375,4.890625,1.921875
1695572596383,-0.30395508,-0.8765259,0.4237671,2.65625,8.84375,1.671875
1695572596398,-0.26098633,-0.8543091,0.43695068,9.84375,6.8125,1.03125
1695572596430,-0.24926758,-0.8765259,0.45550537,8.359375,6.453125,3.859375
1695572596474,-0.2763672,-0.8623657,0.41497803,3.421875,1.28125,3.953125
1695572596503,-0.2709961,-0.8596802,0.43914795,1.859375,-5.125,1.0625
1695572596548,-0.2487793,-0.88360596,0.4225464,-3.4375,-5.4375,-0.140625
1695572596593,-0.26293945,-0.9089966,0.43792725,-4.34375,-6.890625,0.609375
1695572596624,-0.24609375,-0.86798096,0.39837646,-9.203125,-9.6875,-2.109375
1695572596671,-0.26293945,-0.88360596,0.42132568,-2.109375,-5.109375,-2.4375
1695572596702,-0.28051758,-0.91656494,0.44744873,-0.609375,0.09375,1.1875
1695572596744,-0.29003906,-0.87994385,0.44256592,-1.984375,-2.265625,-0.484375
1695572596788,-0.28588867,-0.85894775,0.43597412,-2.1875,-4.84375,-1.640625
1695572596819,-0.2980957,-0.86676025,0.4616089,-2.109375,-4.4375,-1.125
1695572596894,-0.28710938,-0.895813,0.4550171,-2.765625,-1.890625,-0.25
1695572596912,-0.27856445,-0.880188,0.4381714,-2.046875,-1.65625,-0.09375
1695572596939,-0.28442383,-0.8843384,0.4484253,-0.03125,-0.890625,-0.078125
1695572597016,-0.28320312,-0.8850708,0.44207764,0.65625,1.03125,0.28125
1695572597022,-0.29833984,-0.8826294,0.45111084,2.40625,0.671875,0.625
1695572597059,-0.28588867,-0.8789673,0.44891357,2.078125,2.734375,0.828125
1695572597103,-0.28881836,-0.90704346,0.4598999,3.796875,5.53125,1.71875
1695572597133,-0.26220703,-0.85406494,0.46038818,1.546875,-0.109375,0.046875
1695572597181,-0.2866211,-0.8845825,0.44085693,-3.28125,-2.140625,0.859375
1695572597223,-0.27392578,-0.8399048,0.4105835,-5.25,-8.953125,-2.390625
1695572597254,-0.27246094,-0.8526001,0.4418335,-2.75,-7.15625,-1.84375
1695572597299,-0.27490234,-0.87384033,0.45599365,-3.765625,-4.4375,0.296875
1695572597331,-0.29663086,-0.84991455,0.4467163,-2.8125,-6.34375,-1.515625
1695572597373,-0.29223633,-0.86260986,0.46258545,-1.03125,-4.09375,-1.03125
1695572597421,-0.2956543,-0.87335205,0.4689331,-0.078125,-0.734375,0.484375
1695572597450,-0.29370117,-0.8699341,0.43255615,1.625,-1.375,0.859375
1695572597493,-0.28808594,-0.8789673,0.44232178,2.953125,-0.515625,1.640625
1695572597524,-0.29882812,-0.8579712,0.43914795,1.703125,1.171875,0.703125
1695572597572,-0.30273438,-0.8648071,0.4418335,-1.125,-1.3125,0.046875
1695572597647,-0.29077148,-0.8804321,0.45916748,-1.09375,-2.0,-0.75
1695572597654,-0.29760742,-0.88848877,0.4442749,-0.453125,0.734375,0.078125
1695572597721,-0.29785156,-0.86187744,0.4557495,1.390625,-0.765625,0.1875
1695572597732,-0.29711914,-0.86383057,0.4574585,-0.9375,-1.203125,-0.578125
1695572597763,-0.31347656,-0.88946533,0.45819092,1.15625,0.125,1.21875
1695572597812,-0.27294922,-0.8633423,0.42596436,-1.78125,-0.984375,-0.90625
1695572597837,-0.28173828,-0.8753052,0.46380615,2.15625,1.34375,-0.015625
1695572597884,-0.33398438,-0.90093994,0.5231323,0.890625,0.96875,1.9375
1695572597934,-0.30859375,-0.862854,0.4640503,-9.953125,-1.890625,-1.28125
1695572597960,-0.27001953,-0.8147583,0.41204834,-5.015625,-13.03125,-6.578125
1695572598004,-0.28808594,-0.86602783,0.49139404,3.140625,-2.34375,0.59375
1695572598034,-0.2644043,-0.86553955,0.41107178,0.921875,4.765625,5.765625
1695572598080,-0.31347656,-0.8538208,0.44818115,3.421875,-2.171875,1.1875
1695572598124,-0.29174805,-0.85772705,0.4623413,2.234375,0.4375,0.015625
1695572598157,-0.29858398,-0.84503174,0.4508667,3.03125,1.5,2.109375
1695572598198,-0.2927246,-0.878479,0.46014404,0.703125,-0.46875,1.78125
1695572598244,-0.2824707,-0.88604736,0.4406128,-1.046875,-2.328125,-0.5
1695572598275,-0.28637695,-0.88482666,0.4520874,-0.6875,-0.65625,0.328125
1695572598321,-0.2919922,-0.8999634,0.43060303,-2.828125,-0.21875,0.140625
1695572598349,-0.29858398,-0.86724854,0.4911499,0.984375,-3.96875,-1.234375
1695572598424,-0.29370117,-0.87628174,0.41351318,-5.640625,-2.109375,-0.796875
1695572598441,-0.29785156,-0.8694458,0.47894287,-1.15625,-3.53125,-1.671875
1695572598469,-0.30444336,-0.8831177,0.46380615,1.015625,0.015625,1.046875
1695572598544,-0.3071289,-0.8657837,0.44989014,-0.703125,-0.828125,-0.578125
1695572598560,-0.2788086,-0.8648071,0.45281982,0.0,-0.53125,-0.84375
1695572598592,-0.31811523,-0.89141846,0.50408936,1.890625,2.59375,1.09375
1695572598634,-0.32348633,-0.8699341,0.45941162,-2.109375,1.328125,0.25
1695572598665,-0.29174805,-0.8623657,0.47747803,-0.71875,-0.4375,-1.875
1695572598709,-0.2783203,-0.8460083,0.44525146,0.234375,0.15625,-0.71875
1695572598753,-0.26660156,-0.84161377,0.47235107,4.328125,-1.75,0.875
1695572598782,-0.31030273,-0.894104,0.4784546,4.21875,2.390625,3.78125
1695572598828,-0.2866211,-0.8670044,0.4303589,1.84375,2.484375,3.859375
1695572598861,-0.2919922,-0.86676025,0.4467163,2.28125,0.125,1.71875
1695572598905,-0.28198242,-0.8706665,0.41815186,-2.09375,-3.453125,-0.046875
1695572598949,-0.265625,-0.85821533,0.41864014,-2.296875,-5.125,-1.0625
1695572598980,-0.30517578,-0.8892212,0.46331787,-1.46875,-4.53125,0.53125
1695572599023,-0.28735352,-0.86431885,0.41815186,-5.4375,-4.140625,-1.671875
1695572599074,-0.28857422,-0.8796997,0.46722412,1.25,-1.90625,-2.5
1695572599099,-0.2932129,-0.87701416,0.46453857,2.5,1.421875,2.171875
1695572599174,-0.2861328,-0.87164307,0.4557495,-1.359375,-0.796875,-0.796875
1695572599180,-0.29516602,-0.8731079,0.44818115,-1.0,-1.359375,-1.125
1695572599248,-0.28564453,-0.8792114,0.46844482,0.859375,0.28125,0.078125
1695572599262,-0.30541992,-0.8777466,0.4574585,-1.4375,-0.9375,-0.265625
1695572599292,-0.31933594,-0.85943604,0.44866943,-1.171875,-2.390625,-1.15625
1695572599338,-0.29125977,-0.86553955,0.4689331,-0.625,-1.15625,-1.140625
1695572599374,-0.2849121,-0.86553955,0.46136475,0.4375,-1.203125,-1.5
1695572599414,-0.30273438,-0.8718872,0.47821045,0.0,-1.296875,-0.625
1695572599459,-0.30126953,-0.8555298,0.44940186,-0.59375,-1.125,-0.75
1695572599490,-0.3203125,-0.881897,0.46600342,-0.78125,-0.453125,-1.015625
1695572599533,-0.32470703,-0.8777466,0.4940796,-1.828125,1.5,-1.5625
1695572599579,-0.30541992,-0.8106079,0.40667725,-3.015625,-4.796875,-1.140625
1695572599612,-0.2878418,-0.8765259,0.4833374,2.421875,-2.828125,2.46875
1695572599656,-0.27270508,-0.82891846,0.40081787,-1.828125,-0.890625,0.390625
1695572599682,-0.32299805,-0.89190674,0.4784546,1.6875,-1.09375,-0.34375
1695572599732,-0.31445312,-0.8687134,0.44451904,0.203125,0.40625,1.5
1695572599774,-0.29760742,-0.84747314,0.4537964,1.421875,0.65625,0.40625
1695572599805,-0.28637695,-0.864563,0.46697998,0.671875,-2.0,0.796875
1695572599851,-0.31982422,-0.8726196,0.4689331,-1.46875,-0.5625,0.5625
1695572599925,-0.3071289,-0.866272,0.4574585,-3.125,-2.125,0.015625
1695572599931,-0.29663086,-0.86065674,0.45526123,-2.90625,-1.484375,-0.328125
1695572599999,-0.30737305,-0.8562622,0.47283936,-1.5625,-1.46875,-0.921875
1695572600004,-0.30371094,-0.8545532,0.47479248,-1.75,-1.484375,-0.0625
1695572600059,-0.3059082,-0.8533325,0.48236084,-0.34375,-3.28125,-0.40625
1695572600091,-0.31591797,-0.861145,0.49017334,-0.171875,-3.765625,0.1875
1695572600118,-0.32299805,-0.86602783,0.47113037,-1.65625,-2.53125,1.8125
1695572600163,-0.31420898,-0.83477783,0.46868896,-0.703125,-3.0,-0.046875
1695572600193,-0.3166504,-0.8362427,0.46917725,-1.625,-0.90625,-1.296875
1695572600246,-0.3269043,-0.87213135,0.5092163,3.953125,-1.703125,-0.6875
1695572600283,-0.30688477,-0.8574829,0.42913818,-2.9375,0.203125,-0.5625
1695572600313,-0.30126953,-0.8569946,0.48162842,4.671875,0.453125,-0.53125
1695572600360,-0.3161621,-0.8689575,0.4911499,9.015625,5.84375,5.078125
1695572600405,-0.30419922,-0.87628174,0.4550171,5.90625,7.15625,4.421875
1695572600436,-0.2998047,-0.8452759,0.45037842,4.640625,0.40625,1.328125
1695572600482,-0.28271484,-0.87701416,0.44989014,0.515625,-0.734375,1.359375
1695572600555,-0.27612305,-0.84869385,0.44403076,-3.546875,-2.671875,0.609375
1695572600561,-0.32104492,-0.86260986,0.45428467,-3.953125,-5.296875,-1.828125
1695572600630,-0.3076172,-0.87579346,0.44622803,-0.296875,-5.125,-1.359375
1695572600633,-0.24121094,-0.8381958,0.4406128,-2.09375,-2.703125,-1.625
1695572600703,-0.29223633,-0.8609009,0.43841553,-5.015625,-2.953125,-2.4375
1695572600708,-0.31054688,-0.861145,0.48358154,-1.875,-2.640625,-0.84375
1695572600781,-0.32495117,-0.8657837,0.47650146,-1.890625,0.0,0.0
1695572600793,-0.32177734,-0.8413696,0.4694214,-0.796875,-2.625,-1.4375
1695572600823,-0.3034668,-0.8587036,0.4491577,-4.015625,-3.03125,-1.8125
1695572600868,-0.33740234,-0.88116455,0.5145874,3.75,-0.796875,0.265625
1695572600915,-0.31298828,-0.88531494,0.45794678,4.46875,4.78125,2.828125
1695572600943,-0.30737305,-0.87579346,0.49456787,10.28125,7.8125,3.96875
1695572600989,-0.30786133,-0.86968994,0.45819092,7.953125,6.984375,5.6875
1695572601020,-0.27734375,-0.85357666,0.4533081,8.421875,3.09375,4.21875
1695572601063,-0.26733398,-0.9038696,0.41888428,6.890625,4.15625,6.875
1695572601109,-0.25830078,-0.880188,0.40545654,3.03125,2.328125,5.109375
1695572601139,-0.24853516,-0.8257446,0.38494873,-2.546875,-1.90625,-1.0
1695572601183,-0.2475586,-0.87750244,0.4352417,-6.734375,-8.03125,-3.5
1695572601230,-0.2644043,-0.8882446,0.46746826,-5.0,-5.515625,-0.375
1695572601257,-0.29125977,-0.87628174,0.43670654,-7.609375,-4.734375,-2.5
1695572601333,-0.26635742,-0.864563,0.45648193,-0.734375,-2.71875,-1.796875
1695572601341,-0.28344727,-0.911438,0.4677124,-0.703125,-0.03125,2.390625
1695572601411,-0.29907227,-0.892395,0.45404053,2.328125,2.28125,2.28125
1695572601423,-0.28979492,-0.90460205,0.43084717,1.9375,2.0625,1.921875
1695572601453,-0.26000977,-0.8604126,0.5109253,8.84375,-4.109375,2.0625
1695572601499,-0.25732422,-0.89508057,0.4076538,-7.25,1.6875,1.65625
1695572601530,-0.26538086,-0.8687134,0.4147339,2.9375,-0.390625,-1.703125
1695572601573,-0.24731445,-0.90631104,0.47283936,6.546875,4.5,3.859375
1695572601618,-0.2680664,-0.8718872,0.40423584,0.25,1.375,1.890625
1695572601652,-0.22802734,-0.86309814,0.4328003,1.125,-1.15625,-2.0
1695572601693,-0.23901367,-0.8574829,0.43377686,1.125,1.265625,0.71875
1695572601737,-0.24389648,-0.87164307,0.43548584,1.3125,-0.546875,1.53125
1695572601772,-0.2680664,-0.8718872,0.43206787,-1.8125,-1.65625,1.4375
1695572601815,-0.2763672,-0.8899536,0.45672607,-1.03125,-3.1875,0.453125
1695572601844,-0.2631836,-0.87042236,0.4664917,-3.359375,-4.546875,-0.59375
1695572601890,-0.2565918,-0.9209595,0.4088745,-8.453125,-7.5,-3.5625
1695572601935,-0.27075195,-0.8345337,0.4328003,-19.4375,-9.96875,-11.765625
1695572601964,-0.31347656,-0.8508911,0.5092163,0.46875,-6.75,-5.390625
1695572602010,-0.2697754,-0.98443604,0.48138428,1.46875,5.453125,3.078125
1695572602040,-0.33569336,-0.862854,0.5055542,3.796875,-1.34375,-0.09375
1695572602114,-0.30151367,-0.8311157,0.40667725,0.53125,-1.4375,-0.71875
1695572602130,-0.23535156,-0.85357666,0.4352417,2.515625,-0.90625,0.203125
1695572602158,-0.30517578,-0.89190674,0.48944092,3.078125,-0.09375,2.640625
1695572602233,-0.30249023,-0.8765259,0.434021,-1.53125,-0.171875,-0.015625
1695572602250,-0.25952148,-0.82037354,0.4196167,-6.53125,-4.34375,-2.25
1695572602281,-0.29711914,-0.81573486,0.44769287,-10.078125,-11.140625,-6.40625
1695572602326,-0.31958008,-0.8657837,0.51116943,-10.109375,-7.203125,-4.765625
1695572602353,-0.3305664,-0.8447876,0.4874878,-12.328125,-7.859375,-4.40625
1695572602397,-0.32836914,-0.84503174,0.50823975,-5.328125,-5.046875,-2.6875
1695572602459,-0.33203125,-0.8706665,0.51434326,1.09375,-1.09375,-0.171875
1695572602472,-0.3269043,-0.86065674,0.49871826,8.265625,2.515625,2.546875
1695572602517,-0.34765625,-0.88238525,0.5097046,15.109375,7.828125,5.78125
1695572602563,-0.30688477,-0.88726807,0.4862671,11.203125,13.5,5.953125
1695572602597,-0.28149414,-0.82476807,0.41912842,0.328125,2.09375,2.703125
1695572602647,-0.39770508,-0.8267212,0.46746826,2.140625,-11.484375,-0.046875
1695572602669,-0.16674805,-0.8413696,0.38079834,-17.40625,-3.6875,-5.640625
1695572602713,-0.24951172,-0.8386841,0.48895264,-3.84375,-10.296875,-5.234375
1695572602788,-0.36572266,-0.8689575,0.50335693,-9.640625,-6.140625,-0.578125
1695572602792,-0.37109375,-0.847229,0.52337646,-12.859375,-9.625,-5.46875
1695572602864,-0.3178711,-0.8323364,0.5194702,-7.015625,-4.359375,-3.34375
1695572602873,-0.3256836,-0.8206177,0.48724365,0.34375,-1.796875,-0.25
1695572602939,-0.36132812,-0.8286743,0.50701904,1.484375,-2.21875,-0.34375
1695572602953,-0.32226562,-0.8335571,0.5031128,2.84375,-0.859375,-0.21875
1695572602983,-0.3347168,-0.864563,0.5355835,5.796875,1.75,3.140625
1695572603028,-0.35961914,-0.8406372,0.48675537,5.265625,2.296875,3.234375
1695572603073,-0.3347168,-0.8640747,0.5309448,8.109375,6.625,3.421875
1695572603102,-0.32421875,-0.81988525,0.42034912,-0.796875,4.59375,1.6875
1695572603148,-0.29541016,-0.8513794,0.49432373,6.109375,-0.453125,0.28125
1695572603223,-0.30078125,-0.8711548,0.46258545,0.5,4.625,2.03125
1695572603226,-0.31640625,-0.82891846,0.48260498,6.53125,-1.046875,1.796875
1695572603269,-0.31201172,-0.85284424,0.46746826,-1.875,-0.046875,0.734375
1695572603301,-0.29174805,-0.8245239,0.45428467,-1.078125,-5.578125,-2.234375
1695572603344,-0.2998047,-0.8640747,0.50531006,1.9375,-1.015625,0.890625
1695572603373,-0.3190918,-0.84991455,0.46136475,0.203125,-1.484375,1.71875
1695572603418,-0.3010254,-0.8430786,0.4718628,-0.171875,-3.3125,0.0625
1695572603497,-0.30664062,-0.8452759,0.46087646,-0.953125,-3.421875,0.3125
1695572603502,-0.30444336,-0.8677368,0.47503662,-2.625,-5.359375,0.28125
1695572603567,-0.32177734,-0.85772705,0.49261475,-1.28125,-4.21875,0.015625
1695572603582,-0.34570312,-0.89923096,0.48406982,-2.875,-0.890625,1.125
1695572603613,-0.33154297,-0.8345337,0.42889404,-4.40625,-5.46875,-1.234375
1695572603657,-0.28515625,-0.84161377,0.49041748,-2.1875,-2.125,-2.921875
1695572603689,-0.2939453,-0.84869385,0.4743042,-1.734375,0.171875,0.0625
1695572603748,-0.34814453,-0.8501587,0.49945068,-1.21875,-0.421875,-0.34375
1695572603783,-0.33984375,-0.8543091,0.4862671,-1.515625,-0.84375,-1.34375
1695572603809,-0.31762695,-0.83795166,0.52215576,2.484375,-1.28125,-0.40625
1695572603852,-0.3305664,-0.84552,0.4689331,-0.96875,1.5625,0.5625
1695572603900,-0.33740234,-0.8491821,0.5062866,3.765625,0.890625,0.765625
1695572603932,-0.3244629,-0.85284424,0.49578857,3.015625,4.4375,2.046875
1695572603973,-0.31689453,-0.8484497,0.47039795,-1.09375,2.015625,-0.1875
1695572604004,-0.2956543,-0.83135986,0.44866943,-1.296875,0.9375,-0.671875
1695572604052,-0.31689453,-0.8621216,0.50701904,2.1875,0.296875,-0.03125
1695572604094,-0.32983398,-0.8413696,0.4713745,1.265625,1.0625,1.578125
1695572604123,-0.30249023,-0.8242798,0.47528076,1.984375,-0.890625,1.1875
1695572604170,-0.29492188,-0.8460083,0.47698975,1.984375,-0.5,1.9375
1695572604198,-0.31469727,-0.8418579,0.47479248,3.234375,-1.53125,2.421875
1695572604275,-0.29760742,-0.8591919,0.46697998,1.828125,-3.09375,2.3125
1695572604290,-0.2944336,-0.85235596,0.4694214,1.109375,-2.59375,1.484375
1695572604321,-0.3149414,-0.85894775,0.47479248,-0.8125,-4.65625,-0.03125
1695572604392,-0.32226562,-0.8635864,0.4454956,-5.875,-4.703125,-0.4375
1695572604409,-0.30200195,-0.861145,0.496521,-2.5,-5.1875,-1.96875
1695572604437,-0.28979492,-0.85162354,0.45404053,-4.15625,-2.0,-1.625
1695572604483,-0.32226562,-0.8484497,0.4940796,-0.21875,-1.140625,0.09375
1695572604513,-0.33520508,-0.8533325,0.494812,-0.359375,-1.1875,1.125
1695572604561,-0.31396484,-0.8442993,0.48065186,-0.71875,-1.84375,-1.4375
1695572604605,-0.3076172,-0.83917236,0.48553467,-0.71875,-0.171875,0.09375
1695572604632,-0.31884766,-0.84503174,0.48431396,-0.296875,-0.015625,-0.15625
1695572604679,-0.33520508,-0.8670044,0.5145874,1.640625,-0.46875,0.4375
1695572604709,-0.32592773,-0.8518677,0.49432373,2.40625,0.625,1.453125
1695572604752,-0.30615234,-0.8311157,0.4694214,1.09375,1.296875,-0.15625
1695572604800,-0.3010254,-0.8689575,0.47747803,1.796875,3.546875,1.015625
1695572604832,-0.3112793,-0.86505127,0.4862671,5.09375,4.65625,3.125
1695572604873,-0.29711914,-0.8701782,0.47235107,5.71875,8.4375,4.375
1695572604921,-0.28735352,-0.85162354,0.45135498,7.453125,7.203125,3.671875
1695572604950,-0.2763672,-0.8447876,0.4730835,9.609375,5.1875,4.21875
1695572605022,-0.27905273,-0.89263916,0.45013428,3.46875,3.5625,4.53125
1695572605025,-0.24658203,-0.8442993,0.42547607,-0.265625,-4.265625,-0.359375
1695572605104,-0.26293945,-0.8731079,0.45550537,1.609375,-5.03125,-0.46875
1695572605123,-0.2631836,-0.87457275,0.44476318,-2.375,-5.796875,0.109375
1695572605141,-0.26391602,-0.85357666,0.44110107,-4.453125,-8.53125,-1.84375
1695572605186,-0.28979492,-0.8723755,0.45965576,-2.609375,-5.71875,-1.328125
1695572605231,-0.29492188,-0.8862915,0.44476318,-1.328125,-0.765625,0.609375
1695572605262,-0.33325195,-0.87579346,0.4537964,5.65625,3.15625,3.421875
1695572605308,-0.22387695,-0.89263916,0.4557495,9.078125,10.96875,5.375
1695572605339,-0.24804688,-0.87091064,0.43695068,1.078125,6.265625,7.34375
1695572605382,-0.2866211,-0.87701416,0.41448975,0.140625,-2.65625,0.875
1695572605427,-0.24121094,-0.9138794,0.4796753,-1.171875,-1.640625,-0.859375
1695572605457,-0.25048828,-0.89971924,0.44769287,-2.8125,-0.375,-0.953125
1695572605502,-0.25683594,-0.89263916,0.4472046,-3.625,-3.265625,-2.34375
1695572605533,-0.25097656,-0.8521118,0.47821045,-1.734375,-5.75,-2.75
1695572605581,-0.29785156,-0.8911743,0.4718628,-6.5,-3.671875,-2.421875
1695572605623,-0.28930664,-0.8447876,0.4401245,-9.03125,-6.546875,-6.796875
1695572605654,-0.2763672,-0.8591919,0.49993896,3.375,-0.90625,-4.6875
1695572605731,-0.25561523,-0.91851807,0.5050659,5.609375,12.59375,4.765625
1695572605742,-0.27416992,-0.85894775,0.45159912,6.46875,6.78125,4.734375
1695572605772,-0.2836914,-0.85650635,0.4640503,5.125,3.90625,1.703125
1695572605847,-0.2644043,-0.85723877,0.44647217,2.09375,0.359375,0.1875
1695572605851,-0.24682617,-0.8718872,0.45526123,1.953125,-1.25,0.171875
1695572605893,-0.25561523,-0.8743286,0.45648193,0.71875,-3.234375,0.375
1695572605939,-0.2619629,-0.87042236,0.44232178,-0.8125,-5.453125,-0.9375
1695572605969,-0.26367188,-0.8899536,0.45159912,-0.6875,-6.484375,-0.78125
1695572606016,-0.25756836,-0.8609009,0.42401123,-5.546875,-6.515625,-2.03125
1695572606043,-0.2734375,-0.8640747,0.44989014,-6.375,-9.0,-5.375
1695572606089,-0.29345703,-0.90875244,0.41693115,-9.890625,-4.421875,-3.1875
1695572606134,-0.27270508,-0.8735962,0.46868896,-3.109375,-7.765625,-2.90625
1695572606163,-0.3076172,-0.8687134,0.47113037,-6.421875,-3.34375,-2.546875
1695572606208,-0.3425293,-0.87213135,0.5145874,-2.21875,-1.28125,-1.796875
1695572606255,-0.31469727,-0.8587036,0.5031128,-1.0,-0.328125,0.40625
1695572606284,-0.29882812,-0.82598877,0.4730835,-2.65625,-0.1875,-0.59375
1695572606331,-0.29907227,-0.8484497,0.47821045,-1.140625,-0.875,-0.125
1695572606358,-0.3022461,-0.8652954,0.48895264,-0.796875,-1.5625,-0.03125
1695572606402,-0.3227539,-0.86553955,0.49725342,1.625,-0.09375,0.40625
1695572606479,-0.32177734,-0.8687134,0.49066162,0.078125,2.609375,0.90625
1695572606484,-0.29858398,-0.83184814,0.48675537,0.96875,1.359375,0.1875
1695572606553,-0.2993164,-0.85479736,0.49725342,1.59375,2.1875,1.53125
1695572606572,-0.3005371,-0.84039307,0.47576904,1.546875,0.25,1.203125
1695572606599,-0.28295898,-0.8518677,0.4804077,0.828125,0.640625,0.046875
1695572606642,-0.28759766,-0.866272,0.4677124,2.03125,0.078125,0.875
1695572606673,-0.28808594,-0.8394165,0.47039795,1.828125,2.078125,0.78125
1695572606719,-0.29882812,-0.87579346,0.4821167,2.703125,1.265625,1.78125
1695572606762,-0.27978516,-0.82647705,0.45404053,0.796875,-2.703125,-0.65625
1695572606794,-0.30297852,-0.8609009,0.48406982,3.234375,-1.546875,0.59375
1695572606838,-0.2861328,-0.8623657,0.4689331,1.625,-2.546875,1.59375
1695572606867,-0.2770996,-0.8574829,0.45159912,0.3125,-4.859375,0.015625
1695572606911,-0.28222656,-0.85235596,0.45843506,0.234375,-4.5625,0.21875
1695572606957,-0.29541016,-0.8621216,0.44866943,-0.953125,-5.328125,-0.578125
1695572606997,-0.29516602,-0.87677,0.4611206,-2.390625,-4.46875,-0.203125
1695572607033,-0.30688477,-0.8584595,0.4647827,-0.515625,-4.1875,-1.15625
1695572607108,-0.31323242,-0.8706665,0.47625732,-0.328125,-1.171875,-1.09375
1695572607113,-0.3125,-0.8579712,0.4706421,-0.171875,0.59375,0.515625
1695572607183,-0.30395508,-0.8284302,0.41497803,-2.96875,-3.171875,-0.484375
1695572607187,-0.28710938,-0.8596802,0.4821167,0.75,-4.453125,-0.90625
1695572607259,-0.31274414,-0.9180298,0.4743042,-1.953125,0.765625,1.625
1695572607273,-0.31762695,-0.8599243,0.49383545,2.265625,-2.640625,0.4375
1695572607303,-0.31445312,-0.85894775,0.45941162,-1.9375,-1.140625,0.578125
1695572607349,-0.29833984,-0.8621216,0.46136475,-1.46875,-1.984375,-0.640625
1695572607382,-0.31933594,-0.89141846,0.5165405,3.21875,1.265625,1.34375
1695572607422,-0.30688477,-0.8809204,0.47210693,-1.171875,3.734375,1.84375
1695572607469,-0.28979492,-0.8364868,0.4171753,-1.65625,-2.25,-0.71875
1695572607501,-0.30322266,-0.8596802,0.48187256,1.546875,-1.140625,0.5
1695572607545,-0.3017578,-0.86260986,0.45648193,1.703125,-1.0,1.828125
1695572607603,-0.29907227,-0.87286377,0.46990967,4.375,-0.171875,1.609375
1695572607620,-0.29345703,-0.86138916,0.46185303,2.046875,1.171875,1.609375
1695572607662,-0.28198242,-0.831604,0.42816162,-1.046875,-0.890625,-0.40625
1695572607693,-0.28027344,-0.86846924,0.47650146,-0.65625,-3.0,-0.671875
1695572607739,-0.29418945,-0.8665161,0.45428467,-2.640625,-3.09375,-0.015625
1695572607783,-0.3034668,-0.85650635,0.46795654,-2.4375,-4.84375,-2.0
1695572607813,-0.29101562,-0.8328247,0.47406006,-2.984375,-4.09375,-2.015625
1695572607860,-0.32080078,-0.8652954,0.49578857,-1.625,-2.203125,0.078125
1695572607934,-0.30395508,-0.84161377,0.45184326,-4.734375,-3.625,-1.828125
1695572607938,-0.32055664,-0.84942627,0.47113037,-0.984375,-2.59375,-1.65625
1695572608011,-0.3137207,-0.8513794,0.49090576,-0.328125,-1.6875,0.15625
1695572608017,-0.31958008,-0.85235596,0.46844482,-0.765625,-2.84375,-0.8125
1695572608053,-0.31347656,-0.84991455,0.4953003,1.53125,-2.546875,-0.171875
1695572608101,-0.3232422,-0.8596802,0.46966553,-0.296875,-0.34375,0.28125
1695572608128,-0.3137207,-0.87213135,0.48260498,1.453125,0.65625,0.25
1695572608173,-0.31860352,-0.85772705,0.48406982,3.15625,2.203125,1.03125
1695572608221,-0.28808594,-0.8689575,0.449646,1.453125,3.34375,0.328125
1695572608249,-0.30419922,-0.8591919,0.49383545,2.640625,2.9375,0.375
1695572608292,-0.30688477,-0.8345337,0.48431396,0.5,2.546875,-0.296875
1695572608322,-0.32617188,-0.8477173,0.47601318,1.078125,3.53125,1.4375
1695572608370,-0.31176758,-0.85357666,0.43182373,-1.0,-2.53125,1.09375
1695572608413,-0.30200195,-0.85040283,0.48406982,3.046875,-5.390625,0.859375
1695572608445,-0.29541016,-0.87042236,0.42791748,-3.5625,-2.609375,0.609375
1695572608491,-0.29833984,-0.8526001,0.46966553,-0.546875,-4.3125,-1.4375
1695572608518,-0.31054688,-0.86505127,0.48016357,0.375,-3.03125,0.78125
1695572608565,-0.3100586,-0.8557739,0.46185303,-2.046875,-4.890625,-0.28125
1695572608638,-0.31591797,-0.85284424,0.46820068,-3.96875,-5.8125,-2.1875
1695572608642,-0.32128906,-0.8574829,0.45648193,-4.765625,-5.296875,-2.296875
1695572608714,-0.32055664,-0.8550415,0.46697998,-3.625,-4.859375,-2.625
1695572608719,-0.31396484,-0.8621216,0.4935913,0.0,-2.828125,-1.21875
1695572608787,-0.33618164,-0.8513794,0.4767456,0.8125,3.265625,1.359375
1695572608803,-0.3293457,-0.8411255,0.46453857,0.625,-0.21875,0.515625
1695572608834,-0.31982422,-0.83917236,0.4725952,0.328125,-0.875,-0.15625
1695572608879,-0.32373047,-0.8579712,0.4640503,-0.5,-1.4375,0.09375
1695572608923,-0.33398438,-0.862854,0.5038452,2.65625,-0.78125,0.109375
1695572608955,-0.31884766,-0.83599854,0.480896,0.609375,1.75,0.984375
1695572608998,-0.34423828,-0.86724854,0.5145874,3.171875,4.25,2.78125
1695572609033,-0.31298828,-0.83258057,0.45013428,-3.34375,2.328125,0.640625
1695572609073,-0.3154297,-0.8413696,0.48114014,2.203125,-0.53125,0.203125
1695572609118,-0.30029297,-0.8670044,0.47821045,0.375,0.65625,1.703125
1695572609149,-0.3022461,-0.8447876,0.45599365,1.59375,0.375,1.265625
1695572609193,-0.31274414,-0.8545532,0.48309326,2.984375,-0.578125,1.453125
1695572609238,-0.3100586,-0.8635864,0.47479248,1.53125,0.09375,1.078125
1695572609270,-0.30273438,-0.8569946,0.4718628,0.8125,0.234375,1.1875
1695572609345,-0.30371094,-0.84503174,0.45648193,-0.28125,-2.59375,0.15625
1695572609349,-0.29492188,-0.8508911,0.46624756,-0.65625,-3.171875,-0.421875
1695572609419,-0.30126953,-0.8596802,0.4550171,-0.78125,-2.078125,0.109375
1695572609433,-0.30078125,-0.86016846,0.4537964,0.25,-2.96875,-0.109375
1695572609464,-0.30200195,-0.8635864,0.4725952,0.140625,-1.421875,0.578125
1695572609508,-0.30249023,-0.84625244,0.45111084,-1.484375,-0.734375,-0.515625
1695572609539,-0.32080078,-0.86431885,0.4940796,1.140625,-2.078125,0.078125
1695572609583,-0.30493164,-0.85284424,0.45013428,-3.296875,-1.390625,-0.59375
1695572609631,-0.3083496,-0.86309814,0.4784546,-1.546875,-1.25,-1.5
1695572609658,-0.3178711,-0.84869385,0.4796753,-0.140625,0.25,0.234375
1695572609703,-0.31298828,-0.85284424,0.46746826,-0.625,-1.796875,-0.890625
1695572609749,-0.30273438,-0.8513794,0.47625732,-1.046875,-1.140625,-0.28125
1695572609778,-0.31958008,-0.866272,0.4718628,-0.6875,-0.890625,-0.203125
1695572609823,-0.3256836,-0.8623657,0.48797607,0.046875,-1.546875,-0.171875
1695572609853,-0.32006836,-0.8518677,0.48309326,-0.625,-0.34375,0.03125
1695572609901,-0.31835938,-0.84991455,0.4821167,-0.203125,-1.203125,-0.109375
1695572609943,-0.31567383,-0.85284424,0.48773193,-0.21875,0.453125,0.671875
1695572609972,-0.31298828,-0.8557739,0.4725952,0.328125,-1.046875,0.703125
1695572610020,-0.2980957,-0.8430786,0.47161865,0.0,-0.1875,0.375
1695572610052,-0.31713867,-0.8723755,0.4545288,-0.375,1.109375,1.3125
1695572610124,-0.3095703,-0.84503174,0.49505615,4.609375,-2.1875,1.078125
1695572610140,-0.30322266,-0.85284424,0.43695068,-1.6875,0.796875,1.28125
1695572610175,-0.3010254,-0.84503174,0.46990967,1.5,-3.953125,-0.84375
1695572610248,-0.30688477,-0.87042236,0.479187,2.359375,-1.171875,1.625
1695572610259,-0.3046875,-0.85284424,0.45355225,-0.21875,-1.828125,0.15625
1695572610290,-0.29882812,-0.85040283,0.45184326,-1.28125,-4.390625,-1.28125
1695572610332,-0.32348633,-0.8706665,0.47357178,-0.5,-3.375,-0.265625
1695572610364,-0.3203125,-0.8755493,0.46795654,-1.09375,-1.4375,0.046875
1695572610410,-0.3071289,-0.85821533,0.4598999,-1.484375,-1.765625,-0.859375
1695572610455,-0.3088379,-0.84698486,0.46600342,-1.0,-1.65625,-0.5625
1695572610488,-0.32641602,-0.85650635,0.47601318,-0.75,-1.140625,-0.015625
1695572610527,-0.32055664,-0.85650635,0.4664917,-0.859375,-1.34375,-0.296875
1695572610573,-0.3244629,-0.8555298,0.47357178,-0.3125,-1.453125,-0.375
1695572610604,-0.32788086,-0.86798096,0.4755249,1.265625,-0.078125,-0.125
1695572610652,-0.3137207,-0.8364868,0.47357178,-0.234375,-1.25,-0.578125
1695572610679,-0.34326172,-0.87628174,0.5075073,2.3125,1.84375,1.921875
1695572610723,-0.3071289,-0.83721924,0.46063232,-0.734375,0.015625,-0.015625
1695572610797,-0.3232422,-0.86798096,0.4989624,1.859375,3.984375,1.015625
1695572610803,-0.31225586,-0.85650635,0.47454834,0.828125,3.984375,1.5625
1695572610873,-0.29638672,-0.8413696,0.4472046,5.015625,0.578125,1.5625
1695572610878,-0.29638672,-0.85406494,0.46185303,5.53125,2.453125,3.28125
1695572610918,-0.3059082,-0.84332275,0.44232178,3.3125,-0.546875,2.4375
1695572610963,-0.29711914,-0.8718872,0.47113037,1.59375,-3.4375,0.890625
1695572610994,-0.28100586,-0.861145,0.4430542,-0.234375,-3.15625,0.671875
1695572611039,-0.2927246,-0.85943604,0.4442749,-0.828125,-3.9375,0.375
1695572611083,-0.3017578,-0.8579712,0.45184326,-1.84375,-5.515625,-0.421875
1695572611115,-0.29345703,-0.86968994,0.4520874,-3.890625,-3.84375,-1.578125
1695572611159,-0.29589844,-0.8731079,0.46917725,0.140625,-2.78125,-0.28125
1695572611234,-0.29956055,-0.850647,0.44476318,-1.859375,-0.21875,-0.203125
1695572611243,-0.32617188,-0.861145,0.4911499,0.609375,-0.9375,-0.609375
1695572611279,-0.30004883,-0.8550415,0.43060303,-4.015625,-1.65625,-0.9375
1695572611311,-0.31323242,-0.8621216,0.4730835,0.59375,-1.265625,-1.109375
1695572611353,-0.32299805,-0.8694458,0.47088623,0.703125,0.234375,0.5
1695572611385,-0.31030273,-0.86016846,0.4701538,1.140625,-0.265625,-0.625
1695572611442,-0.32055664,-0.8682251,0.47821045,0.625,3.703125,1.90625
1695572611472,-0.2998047,-0.8616333,0.46331787,0.703125,3.265625,0.390625
1695572611502,-0.30004883,-0.8574829,0.48284912,3.0,4.546875,0.875
1695572611583,-0.30566406,-0.8530884,0.4406128,2.140625,2.875,2.296875
1695572611596,-0.30151367,-0.85772705,0.46185303,3.140625,-0.984375,1.640625
1695572611622,-0.3059082,-0.86138916,0.45355225,1.84375,-1.71875,1.953125
1695572611700,-0.2902832,-0.8599243,0.44573975,1.203125,-3.5625,1.125
1695572611707,-0.28466797,-0.8604126,0.45037842,0.46875,-5.15625,0.6875
1695572611744,-0.28173828,-0.8591919,0.44256592,-2.25,-3.625,0.140625
1695572611791,-0.2939453,-0.8699341,0.463562,0.03125,-5.34375,-0.203125
1695572611819,-0.28442383,-0.8699341,0.43914795,-4.390625,-4.0,-0.90625
1695572611864,-0.29956055,-0.86846924,0.45037842,-2.875,-3.484375,-2.15625
1695572611913,-0.31762695,-0.8755493,0.4689331,-0.09375,-1.9375,-0.171875
1695572611942,-0.31445312,-0.8706665,0.46502686,-1.625,-1.8125,-0.5625
1695572611983,-0.30786133,-0.85284424,0.46307373,-1.4375,-1.390625,-0.703125
1695572612014,-0.31054688,-0.8682251,0.4454956,-0.859375,-1.078125,-0.203125
1695572612059,-0.31176758,-0.86260986,0.46990967,0.0,-1.546875,-0.46875
1695572612103,-0.31054688,-0.866272,0.45111084,-1.328125,-0.0625,-0.078125
1695572612134,-0.31225586,-0.88165283,0.4935913,3.046875,1.140625,0.546875
1695572612182,-0.31176758,-0.881897,0.49066162,2.578125,3.65625,2.1875
1695572612209,-0.30615234,-0.8567505,0.45892334,1.53125,3.75,1.484375
1695572612283,-0.30297852,-0.8557739,0.45916748,1.203125,2.625,1.109375
1695572612301,-0.28857422,-0.87750244,0.4286499,-0.3125,1.609375,1.53125
1695572612329,-0.27954102,-0.84454346,0.479187,4.359375,-1.59375,1.125
1695572612403,-0.29174805,-0.8855591,0.4303589,-1.625,1.421875,2.0625
1695572612421,-0.28344727,-0.85040283,0.4569702,1.421875,-3.765625,-0.390625
1695572612448,-0.28637695,-0.87628174,0.4664917,1.6875,-2.734375,1.625
1695572612494,-0.2836914,-0.86505127,0.43963623,-2.34375,-4.5,-0.140625
1695572612570,-0.2836914,-0.8633423,0.44696045,-2.578125,-4.984375,-1.328125
1695572612575,-0.29248047,-0.8855591,0.46185303,-1.4375,-2.859375,-0.546875
1695572612614,-0.30151367,-0.8579712,0.45306396,-2.78125,-4.0625,-1.1875
1695572612643,-0.29785156,-0.87628174,0.45428467,-3.3125,-3.765625,-1.875
1695572612706,-0.30249023,-0.85528564,0.4647827,-1.796875,-1.78125,-0.875
1695572612720,-0.30444336,-0.86846924,0.46453857,-1.546875,-2.0,-0.859375
1695572612763,-0.3100586,-0.86553955,0.47210693,-0.90625,-1.53125,-0.546875
1695572612810,-0.30444336,-0.8623657,0.46429443,-1.03125,-0.953125,-0.421875
1695572612839,-0.3166504,-0.8711548,0.47235107,0.390625,0.234375,0.0
1695572612883,-0.30615234,-0.8464966,0.47576904,0.65625,0.328125,-0.0625
1695572612930,-0.33862305,-0.9031372,0.5126343,0.203125,4.65625,2.359375
1695572612959,-0.2878418,-0.8272095,0.42962646,-6.0625,-2.1875,-1.90625
1695572613033,-0.3071289,-0.8440552,0.48968506,-0.484375,-3.515625,-0.828125
1695572613038,-0.31201172,-0.84454346,0.4459839,-0.5,-3.671875,1.390625
1695572613110,-0.30444336,-0.8496704,0.4725952,1.34375,-2.921875,0.21875
1695572613123,-0.3154297,-0.86016846,0.48651123,1.546875,-0.625,0.6875
1695572613153,-0.30737305,-0.8599243,0.46575928,0.96875,-0.46875,1.015625
1695572613198,-0.29736328,-0.8567505,0.46600342,0.484375,-0.890625,0.625
1695572613243,-0.29907227,-0.85162354,0.45355225,0.546875,-1.53125,0.5625
1695572613273,-0.31030273,-0.8599243,0.4701538,-0.609375,-1.546875,-0.09375
1695572613318,-0.30419922,-0.8513794,0.4533081,-1.578125,-2.453125,-0.859375
1695572613351,-0.2980957,-0.8604126,0.46331787,0.234375,-2.234375,-0.1875
1695572613395,-0.3112793,-0.8369751,0.46624756,1.234375,-3.328125,-0.015625
1695572613439,-0.31103516,-0.8399048,0.4545288,-2.1875,-4.90625,-1.640625
1695572613469,-0.32617188,-0.8694458,0.49798584,0.578125,-2.875,-0.96875
1695572613515,-0.30664062,-0.8633423,0.4467163,-3.234375,-0.96875,-0.859375
1695572613544,-0.3269043,-0.84454346,0.47821045,0.359375,0.125,0.21875
1695572613588,-0.3173828,-0.86260986,0.48162842,3.359375,0.203125,1.8125
1695572613632,-0.32177734,-0.86065674,0.4677124,0.5,0.90625,0.71875
1695572613663,-0.3088379,-0.8435669,0.46990967,0.046875,-0.109375,-0.375
1695572613741,-0.32421875,-0.8648071,0.48382568,1.21875,1.59375,0.765625
1695572613754,-0.33520508,-0.86676025,0.4845581,0.953125,1.53125,1.046875
1695572613784,-0.31323242,-0.85650635,0.47747803,0.375,2.078125,0.53125
1695572613860,-0.2932129,-0.8435669,0.45892334,-0.6875,-0.1875,0.109375
1695572613881,-0.30932617,-0.8530884,0.46063232,-1.015625,-1.3125,0.5
1695572613903,-0.29907227,-0.85821533,0.46331787,-0.65625,-3.125,-0.125
1695572613977,-0.2993164,-0.8479614,0.46917725,1.0625,-2.9375,0.46875
1695572613980,-0.3088379,-0.8394165,0.4484253,0.765625,-1.359375,1.015625
1695572614023,-0.32006836,-0.8635864,0.49627686,1.78125,-2.625,0.6875
1695572614053,-0.29370117,-0.848938,0.42230225,-4.125,-4.4375,-1.296875
1695572614099,-0.3046875,-0.85943604,0.48382568,-0.765625,-3.4375,-1.375
1695572614142,-0.32080078,-0.8723755,0.47747803,-0.234375,-0.75,0.59375
1695572614172,-0.3095703,-0.85406494,0.47088623,-0.8125,-1.796875,-0.8125
1695572614218,-0.3071289,-0.84552,0.47283936,-0.984375,-1.46875,-0.3125
1695572614262,-0.32080078,-0.8513794,0.46697998,-0.828125,-0.59375,-0.328125
1695572614292,-0.32202148,-0.8718872,0.48724365,-0.234375,0.015625,-0.140625
1695572614338,-0.3178711,-0.8401489,0.4869995,1.125,0.359375,0.078125
1695572614368,-0.33007812,-0.86431885,0.4850464,1.125,1.6875,1.390625
1695572614412,-0.3095703,-0.8538208,0.48358154,0.1875,0.28125,0.515625
1695572614457,-0.30981445,-0.8587036,0.47894287,-2.390625,0.359375,0.25
1695572614487,-0.3095703,-0.8274536,0.4545288,-3.65625,-2.703125,-0.96875
1695572614562,-0.31469727,-0.86798096,0.4725952,-1.328125,-1.046875,0.046875
1695572614579,-0.29492188,-0.83843994,0.49554443,3.234375,-2.234375,0.703125
1695572614610,-0.31347656,-0.8635864,0.45135498,-0.140625,1.65625,2.59375
1695572614653,-0.29418945,-0.83380127,0.46502686,2.046875,-3.0,-0.453125
1695572614683,-0.31274414,-0.8682251,0.49139404,3.28125,0.28125,1.90625
1695572614732,-0.2980957,-0.8460083,0.44329834,-0.359375,-0.875,0.6875
1695572614773,-0.28735352,-0.8562622,0.46185303,0.40625,-2.453125,-0.546875
1695572614803,-0.3125,-0.86553955,0.46966553,0.296875,-2.1875,0.765625
1695572614847,-0.31420898,-0.85772705,0.46868896,-2.515625,-3.59375,-0.703125
1695572614877,-0.30932617,-0.8657837,0.46063232,-1.890625,-3.15625,-1.4375
1695572614923,-0.30541992,-0.84747314,0.4706421,0.03125,-1.34375,-0.421875
1695572614967,-0.32104492,-0.84991455,0.4821167,-0.0625,-0.40625,0.203125
1695572614997,-0.31176758,-0.8562622,0.47332764,-0.140625,-0.640625,-0.09375
1695572615043,-0.31518555,-0.8596802,0.47576904,-0.84375,-1.234375,-0.6875
1695572615087,-0.31982422,-0.866272,0.494812,0.59375,-0.40625,-0.015625
1695572615118,-0.33203125,-0.8882446,0.48944092,-1.59375,1.234375,0.9375
1695572615193,-0.31591797,-0.8352661,0.48236084,-1.53125,-1.796875,-0.625
1695572615197,-0.30419922,-0.8440552,0.44696045,-3.390625,0.0625,-0.46875
1695572615268,-0.29907227,-0.83673096,0.46868896,0.578125,-1.875,-0.203125
1695572615282,-0.32617188,-0.8699341,0.47821045,3.078125,-0.96875,2.53125
1695572615317,-0.3125,-0.8550415,0.47479248,2.171875,-1.265625,0.75
1695572615358,-0.29882812,-0.8389282,0.46038818,1.921875,-0.34375,0.890625
1695572615389,-0.29638672,-0.8596802,0.45550537,1.28125,-0.640625,0.484375
1695572615431,-0.30322266,-0.86138916,0.4706421,0.21875,-2.375,0.109375
1695572615477,-0.31054688,-0.8533325,0.47357178,-1.890625,-1.984375,-0.53125
1695572615511,-0.31689453,-0.84088135,0.47991943,-1.859375,-2.609375,-1.125
1695572615553,-0.3227539,-0.8633423,0.47650146,-1.046875,-1.953125,-0.796875
1695572615601,-0.30517578,-0.85406494,0.4755249,-0.625,-1.625,-0.296875
1695572615633,-0.31469727,-0.8557739,0.4689331,-0.78125,-1.15625,-0.28125
1695572615676,-0.31323242,-0.8518677,0.4796753,0.90625,-0.28125,-0.296875
1695572615701,-0.33032227,-0.87677,0.47943115,-0.609375,0.921875,0.625
1695572615747,-0.32177734,-0.8464966,0.50994873,0.4375,-1.625,-0.609375
1695572615795,-0.3317871,-0.8621216,0.45721436,-4.8125,3.1875,0.46875
1695572615821,-0.29907227,-0.82696533,0.46697998,-0.546875,-4.15625,-2.125
1695572615896,-0.31958008,-0.85650635,0.49700928,2.859375,0.875,2.265625
1695572615913,-0.3125,-0.8467407,0.4533081,1.640625,-1.421875,1.203125
1695572615942,-0.30664062,-0.8435669,0.47210693,3.046875,-0.34375,0.90625
1695572616016,-0.31469727,-0.8543091,0.47235107,3.625,-0.875,1.625
1695572616017,-0.2915039,-0.8545532,0.44891357,0.03125,-2.296875,0.484375
1695572616062,-0.3083496,-0.8621216,0.47039795,-0.140625,-1.8125,-0.703125
1695572616107,-0.3173828,-0.8599243,0.4689331,-0.21875,-1.28125,0.0625
1695572616136,-0.31420898,-0.85821533,0.4725952,-1.140625,-1.796875,-0.515625
1695572616181,-0.30981445,-0.86065674,0.4623413,-1.453125,-2.609375,-0.90625
1695572616211,-0.31201172,-0.8538208,0.47698975,-0.828125,-1.59375,-0.21875
1695572616259,-0.3154297,-0.85772705,0.465271,-0.46875,-0.625,-0.203125
1695572616302,-0.32080078,-0.8530884,0.4804077,1.640625,0.15625,-0.015625
1695572616331,-0.31860352,-0.8320923,0.4833374,0.015625,0.234375,0.21875
1695572616378,-0.33569336,-0.862854,0.4857788,0.40625,-0.46875,0.609375
1695572616421,-0.3088379,-0.8543091,0.4725952,-2.4375,-1.828125,-0.8125
1695572616451,-0.31860352,-0.85943604,0.48895264,1.25,0.03125,0.296875
1695572616496,-0.32128906,-0.86065674,0.4935913,-0.84375,1.78125,1.484375
1695572616532,-0.3046875,-0.8399048,0.4401245,-2.03125,-1.84375,-0.3125
1695572616603,-0.3088379,-0.8394165,0.49578857,1.546875,-1.28125,-0.015625
1695572616621,-0.31298828,-0.85406494,0.4569702,1.296875,-0.5,1.546875
1695572616650,-0.2993164,-0.85357666,0.46795654,2.171875,-1.625,1.46875
1695572616723,-0.30517578,-0.8513794,0.47357178,2.5625,-0.75,0.8125
1695572616727,-0.30322266,-0.85357666,0.4562378,0.84375,0.359375,1.0625
1695572616767,-0.29345703,-0.8550415,0.45794678,0.78125,-2.25,-0.046875
1695572616813,-0.30615234,-0.862854,0.46868896,0.671875,-1.453125,0.28125
1695572616843,-0.31152344,-0.8604126,0.46258545,-2.0625,-3.0,-0.375
1695572616886,-0.31176758,-0.8501587,0.4677124,-2.765625,-4.203125,-1.5
1695572616932,-0.30932617,-0.8518677,0.45306396,-3.453125,-3.171875,-1.5625
1695572616962,-0.32495117,-0.86187744,0.5048218,1.765625,-1.890625,-0.03125
1695572617006,-0.30615234,-0.85723877,0.4406128,-3.75,-0.96875,-0.890625
1695572617036,-0.3161621,-0.85723877,0.4796753,-0.625,-2.3125,-1.5625
1695572617082,-0.3305664,-0.85943604,0.49188232,0.703125,-0.59375,0.875
1695572617131,-0.32177734,-0.8508911,0.47576904,-0.234375,-0.234375,-0.21875
1695572617157,-0.3154297,-0.8670044,0.480896,-0.4375,0.921875,0.203125
1695572617202,-0.34179688,-0.86676025,0.49432373,0.5625,0.8125,0.859375
1695572617246,-0.31933594,-0.85528564,0.48406982,-0.953125,0.640625,-0.109375
1695572617277,-0.31591797,-0.83135986,0.4545288,-1.03125,0.328125,0.234375
1695572617351,-0.30541992,-0.8399048,0.4743042,0.84375,-2.015625,0.734375
1695572617354,-0.31030273,-0.85479736,0.46820068,0.84375,-1.0625,1.125
1695572617427,-0.30566406,-0.8533325,0.46697998,2.421875,-1.03125,1.125
1695572617442,-0.3100586,-0.84820557,0.4640503,2.6875,-0.75,1.21875
1695572617472,-0.29907227,-0.84503174,0.44989014,1.90625,-1.625,1.21875
1695572617517,-0.28442383,-0.862854,0.4303589,-1.25,-1.453125,0.1875
1695572617547,-0.3095703,-0.861145,0.4862671,1.84375,-3.15625,-0.03125
1695572617592,-0.31323242,-0.86187744,0.4459839,-3.90625,-2.3125,-0.5
1695572617637,-0.3046875,-0.85528564,0.47991943,-2.3125,-4.140625,-2.578125
1695572617668,-0.32641602,-0.8740845,0.49041748,-0.296875,-1.84375,-0.046875
1695572617712,-0.3100586,-0.8555298,0.46600342,-0.96875,-1.15625,-0.109375
1695572617758,-0.3149414,-0.8587036,0.4647827,-1.8125,-0.203125,-0.84375
1695572617789,-0.32421875,-0.8604126,0.47113037,-0.34375,-0.53125,-0.609375
1695572617832,-0.32373047,-0.85894775,0.48382568,-0.828125,-0.078125,0.03125
1695572617863,-0.32543945,-0.85284424,0.49310303,0.46875,-0.625,0.078125
1695572617908,-0.33569336,-0.861145,0.49993896,0.5625,2.0625,1.1875
1695572617953,-0.31518555,-0.848938,0.479187,-0.90625,0.96875,0.296875
1695572617982,-0.3046875,-0.83917236,0.4616089,-0.4375,-1.203125,-0.03125
1695572618027,-0.3100586,-0.84942627,0.47161865,1.765625,-0.125,1.09375
1695572618057,-0.30908203,-0.8587036,0.46868896,2.28125,0.828125,1.71875
1695572618132,-0.30566406,-0.8677368,0.45233154,1.03125,0.328125,0.984375
1695572618150,-0.29882812,-0.83966064,0.48260498,4.578125,-1.859375,1.015625
1695572618177,-0.30981445,-0.86383057,0.4459839,1.078125,0.484375,2.1875
1695572618237,-0.2878418,-0.85406494,0.43963623,0.046875,-2.453125,-0.46875
1695572618267,-0.30078125,-0.87335205,0.480896,2.71875,0.921875,0.5625
1695572618297,-0.3112793,-0.85284424,0.4550171,0.328125,0.203125,0.734375
1695572618342,-0.296875,-0.8574829,0.4677124,-1.203125,-2.96875,-0.4375
1695572618373,-0.31469727,-0.84552,0.45648193,-3.015625,-5.65625,-1.203125
1695572618416,-0.31030273,-0.8657837,0.4796753,-3.0625,-5.65625,-1.8125
1695572618461,-0.30810547,-0.8694458,0.46624756,-3.015625,-1.53125,-0.796875
1695572618493,-0.30419922,-0.84698486,0.46624756,-0.609375,-1.359375,-0.5
1695572618538,-0.31567383,-0.84942627,0.4767456,-0.75,0.1875,0.015625
1695572618582,-0.30786133,-0.85528564,0.4706421,-0.96875,-0.734375,-0.5
1695572618615,-0.32495117,-0.8682251,0.5036011,0.921875,0.453125,0.40625
1695572618657,-0.33154297,-0.85723877,0.48431396,0.734375,1.125,1.265625
1695572618687,-0.31201172,-0.8491821,0.4833374,1.28125,1.46875,0.453125
1695572618733,-0.29345703,-0.82037354,0.45135498,-1.1875,0.203125,0.0
1695572618776,-0.3112793,-0.8652954,0.48114014,1.640625,0.390625,1.640625
1695572618806,-0.2956543,-0.85821533,0.46600342,0.25,-2.703125,-0.1875
1695572618881,-0.3190918,-0.8670044,0.48529053,2.53125,0.046875,1.390625
1695572618882,-0.29760742,-0.84869385,0.45111084,-0.875,-2.125,0.578125
1695572618956,-0.29174805,-0.83795166,0.45281982,0.203125,-3.640625,-0.40625
1695572618971,-0.28735352,-0.8413696,0.45721436,1.140625,-2.890625,0.28125
1695572619001,-0.30444336,-0.86309814,0.4520874,-0.390625,-1.578125,-0.4375
1695572619047,-0.31762695,-0.8838501,0.49066162,0.609375,-1.796875,-0.625
1695572619106,-0.31860352,-0.8477173,0.4664917,-0.84375,-1.21875,-0.03125
1695572619122,-0.31640625,-0.84454346,0.4557495,-0.96875,-3.140625,-1.1875
1695572619166,-0.3088379,-0.87042236,0.4713745,-1.578125,-1.84375,-0.75
1695572619241,-0.30908203,-0.8604126,0.46966553,-1.40625,-1.546875,-0.484375
1695572619243,-0.31640625,-0.8682251,0.4701538,-1.0,-1.015625,-0.546875
1695572619286,-0.31274414,-0.8621216,0.4467163,-1.484375,0.578125,-0.1875
1695572619318,-0.3076172,-0.83306885,0.47650146,0.734375,-2.53125,-0.9375
1695572619363,-0.3334961,-0.8731079,0.47747803,-0.4375,1.84375,0.6875
1695572619393,-0.32177734,-0.8616333,0.49334717,-0.046875,0.421875,-0.4375
1695572619437,-0.34228516,-0.8838501,0.5194702,3.234375,3.6875,2.484375
1695572619513,-0.3178711,-0.835022,0.47625732,-0.53125,2.71875,1.328125
1695572619519,-0.29101562,-0.8250122,0.4454956,-0.1875,-1.4375,-0.265625
1695572619590,-0.30395508,-0.8491821,0.48138428,3.265625,-0.953125,1.71875
1695572619602,-0.3022461,-0.86724854,0.47576904,2.015625,-0.9375,1.515625
1695572619632,-0.30615234,-0.8657837,0.46917725,1.15625,-0.671875,0.9375
1695572619677,-0.29907227,-0.83184814,0.45184326,0.828125,-3.015625,0.328125
1695572619710,-0.29003906,-0.8467407,0.45794678,1.546875,-2.828125,0.546875
1695572619752,-0.29345703,-0.86431885,0.45477295,-0.234375,-1.328125,0.203125
1695572619798,-0.30932617,-0.86309814,0.4611206,-0.5,-2.28125,-0.546875
1695572619828,-0.3203125,-0.8557739,0.46820068,-1.34375,-3.484375,-0.46875
1695572619871,-0.30615234,-0.84503174,0.45184326,-4.21875,-4.4375,-1.640625
1695572619917,-0.3071289,-0.86676025,0.50335693,0.0625,-2.703125,-1.09375
1695572619948,-0.2998047,-0.8677368,0.4352417,-3.09375,-0.046875,-0.328125
1695572619992,-0.31835938,-0.85528564,0.48382568,0.34375,-0.296875,-0.953125
1695572620022,-0.32421875,-0.85162354,0.480896,1.34375,1.765625,1.0
1695572620068,-0.30810547,-0.8657837,0.48260498,2.453125,2.203125,1.09375
1695572620112,-0.31811523,-0.86602783,0.4869995,1.1875,2.296875,1.46875
1695572620143,-0.33081055,-0.8609009,0.46697998,0.125,4.53125,1.484375
1695572620189,-0.30126953,-0.8550415,0.47406006,0.875,0.921875,0.34375
1695572620217,-0.30126953,-0.84503174,0.46673584,1.578125,0.59375,1.59375
1695572620292,-0.28515625,-0.85406494,0.45306396,2.40625,0.1875,2.03125
1695572620309,-0.28930664,-0.8652954,0.4586792,2.25,-1.171875,1.40625
1695572620336,-0.29370117,-0.8633423,0.4467163,1.75,-2.03125,0.984375
1695572620414,-0.2836914,-0.8596802,0.45062256,0.359375,-3.21875,0.40625
1695572620429,-0.28857422,-0.89312744,0.44110107,-2.203125,-0.90625,-0.0625
1695572620457,-0.28515625,-0.86187744,0.46600342,0.78125,-2.703125,-0.875
1695572620501,-0.29711914,-0.8753052,0.45037842,-1.8125,-1.703125,0.546875
1695572620549,-0.29174805,-0.85479736,0.4406128,-3.921875,-5.015625,-2.03125
1695572620579,-0.30786133,-0.86065674,0.4725952,-2.4375,-5.640625,-1.703125
1695572620622,-0.3046875,-0.87335205,0.46990967,-3.421875,-4.03125,-1.34375
1695572620652,-0.29858398,-0.86383057,0.46380615,-2.859375,-1.4375,-1.125
1695572620699,-0.31152344,-0.8513794,0.46331787,-0.984375,-2.171875,-1.109375
1695572620729,-0.32055664,-0.85894775,0.47528076,-1.765625,-3.171875,-1.21875
1695572620773,-0.32055664,-0.84869385,0.48553467,-1.84375,-1.921875,-1.0
1695572620816,-0.31030273,-0.8543091,0.49090576,0.046875,0.03125,-0.140625
1695572620847,-0.3293457,-0.86846924,0.48797607,1.265625,1.640625,0.90625
1695572620893,-0.32714844,-0.8579712,0.50115967,2.78125,-0.125,1.015625
1695572620937,-0.32202148,-0.8623657,0.4869995,-0.78125,2.875,1.640625
1695572620971,-0.31567383,-0.8245239,0.4730835,1.4375,-1.125,0.546875
1695572621042,-0.28344727,-0.8357544,0.45281982,-1.96875,1.265625,0.09375
1695572621047,-0.3178711,-0.8621216,0.4928589,3.96875,-1.25,1.6875
1695572621117,-0.28564453,-0.8389282,0.43914795,-0.890625,-2.484375,0.390625
1695572621133,-0.31933594,-0.8755493,0.5060425,2.875,0.421875,0.625
1695572621163,-0.29663086,-0.847229,0.44329834,1.46875,-2.640625,1.203125
1695572621207,-0.29223633,-0.8533325,0.46185303,2.40625,-3.21875,0.140625
1695572621254,-0.2993164,-0.8557739,0.46429443,0.765625,-0.984375,0.828125
1695572621282,-0.30493164,-0.8557739,0.45599365,-1.03125,-1.109375,-0.078125
1695572621328,-0.3010254,-0.8596802,0.47210693,-0.015625,-2.65625,-0.671875
1695572621358,-0.30444336,-0.84747314,0.45281982,-1.515625,-2.65625,-0.5
1695572621403,-0.30273438,-0.86553955,0.4730835,-1.265625,-1.3125,-0.59375
1695572621450,-0.3137207,-0.8718872,0.4623413,-2.21875,-2.265625,-0.765625
1695572621478,-0.30932617,-0.8496704,0.4586792,-2.921875,-2.765625,-1.3125
1695572621523,-0.31274414,-0.84503174,0.4887085,-1.21875,-3.15625,-1.296875
1695572621554,-0.31567383,-0.8569946,0.45306396,-3.59375,-0.265625,-0.265625
1695572621597,-0.31469727,-0.8464966,0.4989624,2.265625,-1.59375,-0.21875
1695572621660,-0.32470703,-0.8731079,0.4730835,-2.15625,1.421875,0.078125
1695572621672,-0.33642578,-0.8633423,0.5182495,1.5,0.65625,0.21875
1695572621749,-0.3479004,-0.8677368,0.49749756,2.1875,2.53125,2.96875
1695572621763,-0.30004883,-0.82769775,0.45819092,-1.09375,-0.671875,0.03125
1695572621792,-0.2915039,-0.84161377,0.4623413,-0.265625,0.765625,0.4375
1695572621868,-0.296875,-0.8574829,0.4647827,1.4375,-0.28125,1.78125
1695572621872,-0.31103516,-0.8706665,0.48846436,1.90625,-0.921875,1.5
1695572621912,-0.3022461,-0.8418579,0.4677124,1.484375,-1.328125,0.609375
1695572621957,-0.2915039,-0.8411255,0.46209717,1.15625,-2.53125,0.75
1695572621989,-0.29052734,-0.8533325,0.46697998,1.015625,-3.125,0.421875
1695572622032,-0.28173828,-0.8574829,0.4557495,-0.140625,-1.390625,0.125
1695572622064,-0.2944336,-0.8579712,0.46624756,0.65625,-0.5,-0.375
1695572622107,-0.3100586,-0.86920166,0.46551514,1.328125,0.03125,0.515625
1695572622152,-0.30004883,-0.8401489,0.4623413,-1.125,-3.8125,-1.40625
1695572622183,-0.32788086,-0.8652954,0.47943115,-2.5,-3.859375,-1.09375
1695572622229,-0.2866211,-0.85040283,0.44622803,-5.4375,-5.1875,-3.171875
1695572622273,-0.3215332,-0.87042236,0.5001831,-0.53125,-1.125,-1.09375
1695572622302,-0.3244629,-0.8596802,0.47747803,-0.109375,-0.28125,0.5
1695572622349,-0.3100586,-0.84039307,0.47283936,-0.640625,-0.09375,-0.578125
1695572622382,-0.3149414,-0.8435669,0.48260498,0.609375,-0.109375,-0.234375
1695572622454,-0.33325195,-0.85943604,0.47381592,0.28125,0.625,0.5
1695572622468,-0.32958984,-0.86968994,0.49749756,1.546875,0.390625,0.984375
1695572622500,-0.3347168,-0.8623657,0.48797607,-0.265625,1.390625,1.390625
1695572622574,-0.31079102,-0.8394165,0.47381592,-1.734375,-0.140625,-0.09375
1695572622589,-0.30273438,-0.83258057,0.46087646,-0.515625,-2.890625,0.03125
1695572622618,-0.28857422,-0.8579712,0.46844482,1.3125,-2.765625,1.125
1695572622662,-0.29785156,-0.85479736,0.465271,2.453125,-2.078125,1.359375
1695572622692,-0.30322266,-0.8477173,0.4611206,1.984375,-0.4375,0.625
1695572622739,-0.31396484,-0.8484497,0.48382568,2.65625,-0.046875,0.796875
1695572622782,-0.3005371,-0.8440552,0.43133545,-2.1875,-2.96875,-0.828125
1695572622813,-0.31713867,-0.86431885,0.47772217,-1.421875,-3.6875,-1.59375
1695572622857,-0.33374023,-0.86920166,0.48187256,-1.984375,-4.015625,-0.640625
1695572622889,-0.32836914,-0.84942627,0.48382568,-2.5,-3.90625,-1.4375
1695572622948,-0.2939453,-0.861145,0.44281006,1.703125,-1.484375,-0.1875
1695572622980,-0.31274414,-0.86505127,0.47454834,2.703125,1.828125,1.390625
1695572623007,-0.33129883,-0.86798096,0.4694214,-0.234375,1.5,0.9375
1695572623052,-0.32250977,-0.8442993,0.46746826,-0.421875,-1.0,-0.671875
1695572623101,-0.3161621,-0.8496704,0.47406006,-0.390625,-0.296875,0.109375
1695572623128,-0.32983398,-0.8657837,0.50164795,0.984375,0.609375,0.6875
1695572623203,-0.32788086,-0.8609009,0.48431396,-0.484375,0.796875,1.078125
1695572623209,-0.3076172,-0.8452759,0.46624756,-1.140625,-0.375,-0.375
1695572623277,-0.30419922,-0.84161377,0.48773193,0.625,1.015625,1.21875
1695572623292,-0.30249023,-0.82818604,0.43988037,-1.796875,-1.046875,0.703125
1695572623322,-0.31958008,-0.86309814,0.5018921,2.59375,-3.125,0.9375
1695572623370,-0.2927246,-0.83013916,0.4298706,-1.859375,-4.140625,-0.484375
1695572623397,-0.30615234,-0.8674927,0.47943115,2.125,-2.1875,-0.140625
1695572623442,-0.3112793,-0.85650635,0.45843506,-0.875,-2.234375,0.21875
1695572623488,-0.31298828,-0.8442993,0.47601318,0.078125,-3.578125,-0.734375
1695572623518,-0.31860352,-0.8442993,0.48016357,-1.578125,-1.8125,-0.546875
1695572623562,-0.3293457,-0.85772705,0.4694214,-2.03125,-1.828125,-1.09375
1695572623610,-0.31323242,-0.85723877,0.47650146,-1.484375,-2.296875,-1.0
1695572623639,-0.3305664,-0.8460083,0.47454834,-1.140625,-0.796875,-0.125
1695572623683,-0.32885742,-0.85357666,0.48236084,0.5,-0.40625,0.15625
1695572623713,-0.3239746,-0.8533325,0.49578857,2.203125,1.1875,0.828125
1695572623759,-0.33569336,-0.8579712,0.47210693,1.8125,2.109375,2.078125
1695572623802,-0.3227539,-0.861145,0.49456787,1.3125,1.53125,1.09375
1695572623833,-0.3239746,-0.83551025,0.46746826,0.046875,0.671875,1.09375
1695572623912,-0.3059082,-0.8311157,0.44769287,-2.234375,-1.71875,0.0
1695572623922,-0.31860352,-0.86431885,0.51556396,2.515625,-1.234375,1.0625
1695572623952,-0.30200195,-0.84161377,0.42913818,-3.59375,-2.171875,0.0
1695572624031,-0.30664062,-0.8508911,0.5018921,2.53125,-0.671875,0.046875
1695572624034,-0.30395508,-0.85235596,0.46990967,2.25,-0.859375,2.359375
1695572624072,-0.3017578,-0.8508911,0.45770264,1.40625,-0.53125,0.34375
1695572624118,-0.30688477,-0.85357666,0.46844482,0.0,-1.96875,-0.390625
1695572624151,-0.30810547,-0.8479614,0.45794678,-0.53125,-1.84375,-0.421875
1695572624222,-0.31054688,-0.8579712,0.47772217,-0.265625,-2.75,-0.328125
1695572624230,-0.31298828,-0.8518677,0.46429443,-0.984375,-3.0625,-0.25
1695572624267,-0.31396484,-0.8584595,0.4701538,-1.59375,-3.234375,-1.109375
1695572624313,-0.3161621,-0.8530884,0.46697998,-1.65625,-2.328125,-0.90625
1695572624343,-0.31225586,-0.86138916,0.47381592,-0.640625,-1.875,-0.625
1695572624387,-0.32006836,-0.8596802,0.4779663,-0.203125,-0.9375,0.453125
1695572624432,-0.32617188,-0.850647,0.47332764,0.15625,-0.53125,0.15625
1695572624465,-0.31225586,-0.8635864,0.45013428,-2.0625,-0.78125,-0.140625
1695572624508,-0.32983398,-0.848938,0.50653076,2.4375,-1.359375,0.140625
1695572624536,-0.32080078,-0.8652954,0.45843506,-1.515625,1.015625,0.265625
1695572624582,-0.32421875,-0.8804321,0.51068115,2.03125,3.5625,1.546875
1695572624629,-0.3317871,-0.83428955,0.48358154,2.71875,1.421875,2.3125
1695572624657,-0.30615234,-0.84820557,0.4730835,-1.484375,0.75,0.484375
1695572624733,-0.29516602,-0.83673096,0.43060303,-2.296875,-2.75,-0.34375
1695572624736,-0.3088379,-0.8726196,0.49334717,1.375,-2.5,0.484375
1695572624810,-0.29711914,-0.86676025,0.46014404,1.25,-2.078125,1.46875
1695572624823,-0.30371094,-0.848938,0.45892334,1.625,-1.578125,0.75
1695572624858,-0.29589844,-0.84332275,0.4647827,0.375,-2.234375,-0.4375
1695572624896,-0.3154297,-0.8526001,0.46917725,-0.328125,-3.3125,-0.578125
1695572624942,-0.31323242,-0.85821533,0.46990967,-2.59375,-4.203125,-1.65625
1695572624972,-0.31347656,-0.862854,0.46868896,-2.15625,-2.15625,-1.40625
1695572625020,-0.30932617,-0.86016846,0.47039795,-1.171875,-0.984375,-0.484375
1695572625049,-0.31469727,-0.86920166,0.44818115,-2.0,-0.1875,-0.453125
1695572625093,-0.3269043,-0.8357544,0.5026245,1.609375,-1.5625,-0.328125
1695572625140,-0.33398438,-0.861145,0.4557495,-2.234375,0.234375,0.203125
1695572625167,-0.30932617,-0.850647,0.4706421,-1.171875,-1.359375,-1.390625
1695572625212,-0.3413086,-0.8711548,0.5219116,4.15625,2.875,2.515625
1695572625259,-0.3305664,-0.85894775,0.48260498,-0.71875,3.09375,1.984375
1695572625286,-0.3010254,-0.8284302,0.4520874,-2.359375,0.6875,-0.5
1695572625332,-0.3088379,-0.8413696,0.49017334,2.25,-0.625,0.734375
1695572625362,-0.3137207,-0.8501587,0.4804077,1.1875,-0.734375,2.046875
1695572625436,-0.31225586,-0.85894775,0.47601318,0.84375,-0.78125,0.90625
1695572625451,-0.29907227,-0.84332275,0.46820068,1.40625,-1.453125,0.625
1695572625481,-0.29663086,-0.8452759,0.4569702,1.796875,-0.75,1.359375
1695572625556,-0.29760742,-0.8496704,0.46087646,2.125,-2.421875,0.9375
1695572625558,-0.30004883,-0.86260986,0.45941162,0.21875,-1.75,0.21875
1695572625601,-0.30541992,-0.8584595,0.4484253,0.046875,-2.4375,-0.375
1695572625646,-0.30859375,-0.880188,0.43914795,-3.09375,-2.84375,-0.453125
1695572625676,-0.31201172,-0.8533325,0.48773193,-0.21875,-5.0,-1.546875
1695572625721,-0.3161621,-0.8633423,0.4533081,-4.453125,-1.671875,-1.265625
1695572625767,-0.30151367,-0.8599243,0.46820068,-3.203125,-3.8125,-2.703125
1695572625796,-0.31982422,-0.8665161,0.4935913,0.671875,0.34375,0.28125
1695572625841,-0.32373047,-0.85943604,0.48236084,0.953125,1.140625,0.75
1695572625871,-0.30615234,-0.84942627,0.4718628,0.609375,1.53125,0.359375
1695572625916,-0.32617188,-0.85723877,0.49041748,2.734375,2.734375,1.296875
1695572625961,-0.33007812,-0.8648071,0.48919678,1.703125,2.296875,1.96875
1695572625992,-0.31958008,-0.8513794,0.47821045,-0.15625,1.078125,0.78125
1695572626037,-0.30517578,-0.8369751,0.46087646,0.65625,-1.90625,0.765625
1695572626066,-0.29248047,-0.8418579,0.4623413,1.5625,-2.09375,1.328125
1695572626141,-0.2836914,-0.85113525,0.4569702,2.375,-2.5625,1.5
1695572626156,-0.29541016,-0.8677368,0.46209717,1.390625,-2.46875,0.671875
1695572626187,-0.30444336,-0.83551025,0.4557495,-0.046875,-2.75,-0.6875
1695572626262,-0.31201172,-0.84552,0.46820068,-1.484375,-3.21875,-1.046875
1695572626277,-0.33398438,-0.8706665,0.49676514,-1.171875,-3.015625,0.25
1695572626307,-0.3010254,-0.850647,0.43499756,-5.796875,-4.375,-2.984375
1695572626352,-0.31396484,-0.85406494,0.47454834,-2.109375,-2.78125,-2.25
1695572626382,-0.31982422,-0.86383057,0.4821167,0.3125,-0.34375,0.625
1695572626428,-0.31713867,-0.8587036,0.4887085,-0.734375,0.09375,-0.171875
1695572626473,-0.31274414,-0.84454346,0.4677124,-0.625,0.296875,-0.359375
1695572626502,-0.32885742,-0.85821533,0.48431396,1.421875,1.125,0.640625
1695572626546,-0.32617188,-0.8796997,0.49578857,1.8125,2.28125,1.6875
1695572626594,-0.32470703,-0.8545532,0.4796753,0.359375,3.234375,1.375
1695572626621,-0.29663086,-0.8262329,0.46331787,0.515625,0.421875,0.453125
1695572626666,-0.2939453,-0.84332275,0.47161865,2.515625,0.1875,1.375
1695572626696,-0.29223633,-0.8596802,0.45599365,2.28125,-0.390625,2.03125
1695572626741,-0.30786133,-0.8569946,0.44989014,2.21875,-1.71875,1.421875
1695572626802,-0.3100586,-0.87750244,0.43621826,1.15625,-1.734375,1.265625
1695572626817,-0.27539062,-0.8352661,0.46575928,1.515625,-2.890625,-0.015625
1695572626895,-0.30371094,-0.87994385,0.45257568,-1.546875,-0.46875,0.3125
1695572626904,-0.29638672,-0.862854,0.46380615,-1.171875,-3.59375,-1.65625
1695572626967,-0.30810547,-0.85772705,0.47161865,-1.203125,-4.296875,-0.25
1695572626985,-0.31274414,-0.85894775,0.45892334,-3.546875,-4.3125,-1.5
1695572627012,-0.29711914,-0.86798096,0.46380615,-3.140625,-3.265625,-1.6875
1695572627057,-0.31274414,-0.8526001,0.47576904,-0.78125,-1.515625,-1.125
1695572627104,-0.32739258,-0.85040283,0.4767456,-0.78125,-0.671875,-0.53125
1695572627132,-0.33325195,-0.8477173,0.47039795,-1.046875,-0.96875,-0.546875
1695572627183,-0.31518555,-0.85479736,0.46673584,-0.09375,-0.359375,-0.328125
1695572627255,-0.32006836,-0.85821533,0.4977417,2.359375,0.78125,0.40625
1695572627259,-0.3400879,-0.8796997,0.50653076,1.53125,2.640625,2.046875
1695572627298,-0.30444336,-0.8374634,0.45013428,-1.734375,0.5,-0.046875
1695572627328,-0.3100586,-0.8418579,0.48065186,1.609375,0.078125,0.3125
1695572627373,-0.29638672,-0.85040283,0.44232178,0.53125,1.484375,2.390625
1695572627403,-0.3083496,-0.8609009,0.49505615,6.609375,-1.625,1.90625
1695572627448,-0.29956055,-0.86187744,0.43328857,-1.171875,0.4375,1.359375
1695572627494,-0.2980957,-0.8550415,0.46429443,2.046875,-2.40625,-0.125
1695572627521,-0.30200195,-0.8772583,0.4874878,1.5625,0.109375,2.15625
1695572627568,-0.2998047,-0.85601807,0.4418335,-0.75,-1.234375,-0.03125
1695572627642,-0.29223633,-0.86798096,0.4730835,-0.25,-1.859375,-0.1875
