,timestamp,accel_x,accel_y,accel_z,gyro_x,gyro_y,gyro_z
0,1697605965,-0.12402344,-0.9846802,0.086364746,-0.234375,0.5625,-0.78125
1,1697606005,-0.11401367,-0.98443604,0.081726074,0.109375,1.34375,-0.953125
2,1697606045,-0.11450195,-0.98101807,0.08050537,0.546875,1.5625,-0.796875
3,1697606085,-0.11035156,-0.98931885,0.074645996,-0.5,1.875,-1.046875
4,1697606125,-0.12060547,-0.98150635,0.08758545,0.375,1.609375,-0.234375
5,1697606165,-0.095947266,-0.986145,0.07171631,-0.890625,1.65625,-0.9375
6,1697606205,-0.11401367,-0.98101807,0.08709717,-1.609375,0.90625,-0.609375
7,1697606245,-0.11254883,-0.98321533,0.09100342,0.453125,0.78125,-0.4375
8,1697606285,-0.10595703,-0.97906494,0.07537842,-0.4375,1.375,0.125
9,1697606325,-0.11279297,-0.9854126,0.081970215,-0.171875,1.171875,-0.203125
10,1697606365,-0.115722656,-0.98443604,0.08270264,0.078125,1.265625,-0.203125
11,1697606405,-0.10986328,-0.9824829,0.09515381,0.25,1.71875,-0.078125
12,1697606445,-0.115234375,-0.97784424,0.08441162,-0.375,1.578125,-0.46875
13,1697606485,-0.123046875,-0.9768677,0.090270996,-0.296875,1.703125,-0.15625
14,1697606525,-0.10668945,-0.9932251,0.08416748,-0.203125,1.4375,-0.40625
15,1697606565,-0.10961914,-0.972229,0.089538574,0.171875,1.59375,-0.171875
16,1697606605,-0.11621094,-0.99224854,0.089782715,0.3125,1.4375,-0.171875
17,1697606645,-0.11303711,-0.9780884,0.08343506,0.046875,1.625,-0.4375
18,1697606685,-0.11450195,-0.9780884,0.089782715,-0.25,1.828125,-0.078125
19,1697606725,-0.1081543,-0.97491455,0.09442139,-0.03125,1.765625,-0.5
20,1697606765,-0.11303711,-0.97613525,0.09222412,0.125,1.40625,-0.578125
21,1697606805,-0.10913086,-0.9817505,0.090026855,0.125,1.609375,-0.6875
22,1697606845,-0.10449219,-0.97784424,0.09515381,-0.234375,1.21875,-0.78125
23,1697606885,-0.12060547,-0.98321533,0.093933105,-0.59375,1.234375,-0.328125
24,1697606925,-0.099609375,-0.9697876,0.10369873,0.0625,1.21875,-0.71875
25,1697606965,-0.118896484,-0.986145,0.09051514,0.3125,0.984375,0.03125
26,1697607005,-0.09838867,-0.9763794,0.08734131,-1.46875,1.40625,-1.015625
27,1697607045,-0.1159668,-0.989563,0.10223389,-0.890625,1.40625,-0.5625
28,1697607085,-0.10595703,-0.9776001,0.08782959,0.484375,1.15625,-0.96875
29,1697607125,-0.11352539,-0.9812622,0.09320068,-0.546875,1.890625,-0.421875
30,1697607165,-0.107421875,-0.99053955,0.10272217,-0.046875,1.546875,-0.78125
31,1697607205,-0.118652344,-0.9819946,0.09661865,-0.09375,1.953125,-0.28125
32,1697607245,-0.10253906,-0.9841919,0.09613037,0.28125,1.828125,-0.65625
33,1697607285,-0.1184082,-0.98272705,0.10028076,-0.40625,1.859375,-0.296875
34,1697607325,-0.111816406,-0.98931885,0.097351074,0.390625,1.296875,-0.34375
35,1697607365,-0.09741211,-0.973938,0.08856201,-0.234375,1.78125,-0.484375
36,1697607405,-0.107910156,-0.9859009,0.093688965,-0.078125,1.515625,-0.46875
37,1697607445,-0.10888672,-0.98565674,0.085632324,0.0625,1.390625,-0.1875
38,1697607485,-0.107177734,-0.97979736,0.093444824,0.328125,1.546875,-0.28125
39,1697607525,-0.10961914,-0.98150635,0.08685303,-0.09375,1.625,-0.40625
40,1697607565,-0.11450195,-0.9854126,0.0927124,0.0625,1.5625,-0.515625
41,1697607605,-0.10913086,-0.98321533,0.08538818,0.078125,1.484375,-0.359375
42,1697607645,-0.10571289,-0.9885864,0.08831787,0.046875,1.78125,-0.5
43,1697607685,-0.11035156,-0.98150635,0.08441162,-0.265625,1.59375,-0.296875
44,1697607725,-0.09838867,-0.9800415,0.086120605,-0.53125,1.53125,-0.9375
45,1697607765,-0.12036133,-0.9807739,0.101501465,0.9375,1.1875,0.09375
46,1697607805,-0.09863281,-0.98150635,0.081726074,-1.0,1.53125,-0.828125
47,1697607845,-0.11669922,-0.9771118,0.09661865,-0.953125,1.4375,-0.515625
48,1697607885,-0.10498047,-0.9873657,0.090270996,0.453125,0.9375,-0.75
49,1697607925,-0.10229492,-0.9780884,0.09124756,-0.9375,1.71875,-0.6875
50,1697607965,-0.10571289,-0.9873657,0.09515381,-0.234375,1.4375,-0.984375
51,1697608005,-0.11254883,-0.98443604,0.09515381,0.109375,1.625,-0.8125
52,1697608045,-0.10498047,-0.9854126,0.09661865,0.375,1.484375,-0.75
53,1697608085,-0.11206055,-0.98516846,0.093933105,-0.515625,1.4375,-0.65625
54,1697608125,-0.111328125,-0.9898071,0.0993042,0.234375,1.203125,-0.671875
55,1697608165,-0.10888672,-0.973938,0.08538818,0.0625,1.21875,-0.390625
56,1697608205,-0.10473633,-0.9885864,0.09051514,-0.3125,1.4375,-0.71875
57,1697608245,-0.1105957,-0.98760986,0.09515381,-0.15625,1.5625,-0.75
58,1697608285,-0.109375,-0.972229,0.089782715,-0.234375,1.46875,-0.625
59,1697608325,-0.11376953,-0.98150635,0.09661865,0.1875,1.46875,-0.609375
60,1697608365,-0.103759766,-0.9780884,0.09564209,-0.03125,1.390625,-0.65625
61,1697608405,-0.107177734,-0.9871216,0.093444824,0.1875,1.4375,-0.453125
62,1697608445,-0.1081543,-0.9812622,0.08782959,0.375,1.6875,-0.671875
63,1697608485,-0.11230469,-0.9758911,0.09979248,0.25,1.484375,-0.28125
64,1697608525,-0.107910156,-0.9981079,0.08050537,-0.25,1.796875,-0.8125
65,1697608565,-0.11450195,-0.9751587,0.09295654,1.0625,1.5,-0.109375
66,1697608605,-0.10473633,-0.9800415,0.07977295,-0.953125,1.6875,-0.515625
67,1697608645,-0.1159668,-0.97442627,0.089538574,-1.796875,1.421875,-0.75
68,1697608685,-0.11694336,-0.9920044,0.10882568,0.171875,1.734375,-0.75
69,1697608725,-0.10131836,-0.97662354,0.08929443,-0.640625,1.765625,-0.59375
70,1697608765,-0.11425781,-0.9812622,0.09613037,-0.15625,1.84375,-0.515625
71,1697608805,-0.111816406,-0.9817505,0.09320068,0.640625,1.46875,-0.421875
72,1697608845,-0.111816406,-0.9780884,0.09637451,0.421875,1.8125,-0.1875
73,1697608885,-0.11376953,-0.9846802,0.09906006,-0.09375,1.78125,-0.34375
74,1697608925,-0.10913086,-0.9849243,0.09881592,0.59375,2.125,-0.546875
75,1697608965,-0.10620117,-0.98394775,0.08734131,0.5625,1.953125,-0.1875
76,1697609005,-0.10644531,-0.98516846,0.09222412,0.6875,2.140625,-0.125
77,1697609045,-0.119140625,-0.9883423,0.08856201,0.25,2.203125,-0.34375
78,1697609085,-0.10571289,-0.99005127,0.089782715,-0.125,2.015625,-1.015625
79,1697609125,-0.095458984,-0.9729614,0.08685303,-0.109375,1.953125,-0.84375
80,1697609165,-0.114746094,-0.98028564,0.093933105,-0.390625,1.75,-0.640625
81,1697609205,-0.1081543,-0.9829712,0.09320068,0.15625,1.921875,-0.640625
82,1697609245,-0.111328125,-0.98394775,0.09490967,0.46875,1.828125,-0.3125
83,1697609285,-0.103271484,-0.9807739,0.08294678,0.015625,1.90625,-0.203125
84,1697609325,-0.114990234,-0.991272,0.093688965,-0.171875,2.015625,-0.203125
85,1697609365,-0.10107422,-0.97052,0.097351074,0.234375,2.1875,-0.71875
86,1697609405,-0.11376953,-0.9961548,0.090270996,1.46875,1.765625,0.234375
87,1697609445,-0.0949707,-0.9741821,0.08270264,-0.71875,2.375,-0.9375
88,1697609485,-0.10986328,-0.9859009,0.09954834,0.09375,2.046875,-0.65625
89,1697609525,-0.111572266,-0.98443604,0.08660889,0.5625,2.015625,-0.640625
90,1697609565,-0.09814453,-0.98028564,0.0758667,-0.375,2.53125,-0.71875
91,1697609605,-0.11010742,-0.9924927,0.093933105,0.09375,1.9375,-0.421875
92,1697609645,-0.11279297,-0.9805298,0.08905029,0.859375,1.578125,-0.078125
93,1697609685,-0.09887695,-0.9758911,0.08831787,0.703125,1.421875,-0.359375
94,1697609725,-0.1081543,-0.9758911,0.085876465,0.421875,1.8125,-0.0625
95,1697609765,-0.10498047,-0.98516846,0.08734131,0.65625,1.34375,-0.15625
96,1697609805,-0.10546875,-0.9846802,0.086120605,0.390625,1.15625,-0.28125
97,1697609845,-0.10253906,-0.9783325,0.082458496,0.109375,1.546875,-0.390625
98,1697609885,-0.11010742,-0.9873657,0.08074951,-0.5625,1.296875,-0.609375
99,1697609925,-0.10253906,-0.9783325,0.08148193,-0.828125,1.3125,-0.921875
100,1697609965,-0.11328125,-0.9817505,0.09222412,-0.65625,0.921875,-0.703125
101,1697610005,-0.11010742,-0.9885864,0.097839355,-0.5625,0.96875,-0.578125
102,1697610045,-0.10424805,-0.97784424,0.09295654,-0.703125,0.84375,-0.484375
103,1697610085,-0.11621094,-0.98883057,0.089538574,-0.53125,1.125,-0.65625
104,1697610125,-0.10839844,-0.97247314,0.101257324,-0.140625,1.203125,-0.40625
105,1697610165,-0.103515625,-0.987854,0.1005249,-0.28125,1.59375,-0.71875
106,1697610205,-0.10571289,-0.9795532,0.094177246,0.734375,1.421875,-0.5625
107,1697610245,-0.10449219,-0.99102783,0.0770874,-0.578125,1.578125,-0.546875
108,1697610285,-0.10253906,-0.97735596,0.081970215,-2.203125,1.453125,-1.171875
109,1697610325,-0.11303711,-0.9898071,0.10223389,-0.171875,1.34375,-0.75
110,1697610365,-0.099365234,-0.9793091,0.098083496,-0.21875,1.25,-0.828125
111,1697610405,-0.10571289,-0.9834595,0.09954834,-0.125,1.4375,-0.5625
112,1697610445,-0.104003906,-0.9829712,0.101745605,0.6875,1.359375,-0.671875
113,1697610485,-0.11254883,-0.98931885,0.09173584,0.53125,1.359375,-0.046875
114,1697610525,-0.09765625,-0.9805298,0.085876465,0.234375,1.203125,-1.015625
115,1697610565,-0.11352539,-0.98443604,0.09515381,0.015625,1.53125,-0.625
116,1697610605,-0.107666016,-0.99420166,0.09564209,0.796875,1.53125,-0.578125
117,1697610645,-0.099853516,-0.97198486,0.086364746,0.34375,1.453125,-0.84375
118,1697610685,-0.10864258,-0.9834595,0.093444824,0.453125,1.5,-0.703125
119,1697610725,-0.1003418,-0.98687744,0.089782715,0.796875,1.484375,-0.765625
120,1697610765,-0.1105957,-0.98321533,0.08758545,0.015625,1.46875,-0.5625
121,1697610805,-0.10083008,-0.98443604,0.08734131,0.328125,1.25,-0.5625
122,1697610845,-0.104003906,-0.986145,0.086364746,0.140625,1.3125,-0.484375
123,1697610885,-0.10864258,-0.98443604,0.09222412,0.046875,1.46875,-0.390625
124,1697610925,-0.11254883,-0.9807739,0.09100342,0.234375,1.375,-0.640625
125,1697610965,-0.11328125,-0.98101807,0.08685303,0.234375,1.546875,-0.609375
126,1697611005,-0.109375,-0.98565674,0.09246826,0.3125,1.5,-0.390625
127,1697611045,-0.09863281,-0.9883423,0.070495605,-0.546875,1.890625,-0.734375
128,1697611085,-0.12426758,-0.99176025,0.09661865,1.1875,1.5625,-0.0625
129,1697611125,-0.095947266,-0.97906494,0.07904053,-0.6875,1.671875,-0.828125
130,1697611165,-0.10644531,-0.97857666,0.07952881,-1.859375,1.234375,-0.75
131,1697611205,-0.10961914,-0.9841919,0.098083496,0.3125,1.21875,-0.78125
132,1697611245,-0.10180664,-0.97662354,0.08319092,-0.6875,1.71875,-0.65625
133,1697611285,-0.1159668,-0.9859009,0.085876465,-0.21875,1.734375,-0.71875
134,1697611325,-0.111572266,-0.97735596,0.09466553,0.171875,1.640625,-0.640625
135,1697611365,-0.104003906,-0.9741821,0.08270264,0.171875,1.859375,-0.234375
136,1697611405,-0.1105957,-0.9793091,0.07928467,-0.453125,1.328125,-0.5625
137,1697611445,-0.111083984,-0.98223877,0.09686279,0.90625,1.828125,-0.40625
138,1697611485,-0.107177734,-0.98809814,0.090270996,0.234375,1.5625,-0.34375
139,1697611525,-0.103759766,-0.98223877,0.085632324,0.015625,1.578125,-0.84375
140,1697611565,-0.11035156,-0.98687744,0.08685303,0.59375,1.75,-0.265625
141,1697611605,-0.09790039,-0.9829712,0.09197998,-0.0625,1.578125,-0.421875
142,1697611645,-0.11450195,-0.9837036,0.09588623,-0.28125,1.5625,-0.453125
143,1697611685,-0.10473633,-0.98101807,0.09686279,0.078125,1.578125,-0.625
144,1697611725,-0.107177734,-0.9859009,0.089782715,0.015625,1.359375,-0.359375
145,1697611765,-0.11425781,-0.9819946,0.08807373,-0.234375,1.421875,-0.34375
146,1697611805,-0.103027344,-0.98443604,0.08782959,0.03125,1.609375,-0.421875
147,1697611845,-0.110839844,-0.9817505,0.08465576,-0.015625,1.671875,-0.375
148,1697611885,-0.107666016,-0.98223877,0.08660889,-0.375,1.734375,-0.421875
149,1697611925,-0.1105957,-0.9937134,0.081970215,-0.421875,1.625,-0.40625
150,1697611965,-0.09033203,-0.96954346,0.09246826,-0.75,1.75,-1.125
151,1697612005,-0.11987305,-0.98809814,0.0914917,0.703125,1.5,0.234375
152,1697612045,-0.08935547,-0.98101807,0.08514404,-1.015625,1.65625,-1.1875
153,1697612085,-0.11254883,-0.9817505,0.09588623,-0.859375,1.515625,-0.46875
154,1697612125,-0.114746094,-0.9902954,0.093933105,0.328125,1.234375,-0.890625
155,1697612165,-0.104003906,-0.9734497,0.08782959,-1.0,1.96875,-0.765625
156,1697612205,-0.10107422,-0.989563,0.09100342,-0.3125,1.625,-0.875
157,1697612245,-0.11669922,-0.9837036,0.09857178,0.203125,1.484375,-0.328125
158,1697612285,-0.099365234,-0.98931885,0.097595215,0.53125,1.75,-0.734375
159,1697612325,-0.11010742,-0.97906494,0.090026855,-0.0625,1.390625,-0.75
160,1697612365,-0.11425781,-0.9939575,0.097839355,0.5,1.8125,-0.640625
161,1697612405,-0.095703125,-0.97662354,0.086120605,0.265625,1.578125,-0.4375
162,1697612445,-0.11328125,-0.9890747,0.08758545,0.546875,1.578125,-0.640625
163,1697612485,-0.1081543,-0.9837036,0.09466553,0.15625,1.703125,-0.46875
164,1697612525,-0.10131836,-0.9771118,0.08831787,-0.15625,1.515625,-0.359375
165,1697612565,-0.111328125,-0.9890747,0.09515381,-0.28125,1.484375,-0.46875
166,1697612605,-0.10229492,-0.9795532,0.0927124,0.0,1.625,-0.546875
167,1697612645,-0.107177734,-0.98687744,0.08392334,-0.265625,1.875,-0.4375
168,1697612685,-0.107177734,-0.9788208,0.09051514,-0.046875,1.546875,-0.484375
169,1697612725,-0.103027344,-0.9907837,0.08880615,-0.328125,2.0,-0.84375
170,1697612765,-0.107910156,-0.9824829,0.09100342,0.109375,1.5,-0.46875
171,1697612805,-0.11401367,-0.9915161,0.09222412,-0.171875,1.578125,-0.859375
172,1697612845,-0.11010742,-0.97735596,0.08880615,-0.5,1.640625,-0.6875
173,1697612885,-0.09838867,-0.96539307,0.10272217,-0.203125,1.640625,-0.890625
174,1697612925,-0.11450195,-0.9944458,0.08807373,0.375,1.28125,0.09375
175,1697612965,-0.09326172,-0.9768677,0.08294678,-1.140625,1.5625,-0.796875
176,1697613005,-0.10961914,-0.991272,0.10223389,-0.1875,1.53125,-0.46875
177,1697613045,-0.10839844,-0.9807739,0.09906006,0.703125,1.25,-0.796875
178,1697613085,-0.10205078,-0.9690552,0.08758545,-0.421875,1.859375,-0.65625
179,1697613125,-0.11279297,-0.9951782,0.09515381,0.3125,1.59375,-0.640625
180,1697613165,-0.109375,-0.9783325,0.09490967,0.28125,2.046875,-0.3125
181,1697613205,-0.099853516,-0.9776001,0.09442139,0.703125,1.296875,-0.421875
182,1697613245,-0.11352539,-0.98150635,0.08905029,0.125,1.609375,-0.375
183,1697613285,-0.11767578,-0.9885864,0.09222412,0.515625,1.53125,-0.140625
184,1697613325,-0.1081543,-0.97442627,0.08660889,-0.296875,1.703125,-0.4375
185,1697613365,-0.111572266,-0.986145,0.08807373,0.09375,1.625,-0.40625
186,1697613405,-0.10498047,-0.98565674,0.08465576,-0.484375,1.765625,-0.921875
187,1697613445,-0.10058594,-0.9824829,0.08758545,-0.515625,1.5625,-0.625
188,1697613485,-0.11010742,-0.98760986,0.09124756,-0.25,1.796875,-0.5625
189,1697613525,-0.099365234,-0.97491455,0.08880615,-0.078125,1.546875,-0.875
190,1697613565,-0.103515625,-0.9841919,0.09051514,-0.1875,1.484375,-0.609375
191,1697613605,-0.10864258,-0.9812622,0.093444824,-0.0625,1.453125,-0.671875
192,1697613645,-0.103515625,-0.9751587,0.08856201,0.078125,1.484375,-0.296875
193,1697613685,-0.10107422,-0.9819946,0.09564209,-0.0625,1.75,-0.59375
194,1697613725,-0.10864258,-0.9780884,0.09295654,-0.078125,1.5,-0.546875
195,1697613765,-0.095458984,-0.9932251,0.08782959,-0.09375,1.75,-0.90625
196,1697613805,-0.12841797,-0.98101807,0.101501465,1.375,1.75,-0.09375
197,1697613845,-0.09692383,-0.972229,0.07757568,-0.375,1.6875,-0.96875
198,1697613885,-0.12524414,-0.98809814,0.09613037,-1.390625,1.578125,-0.609375
199,1697613925,-0.11376953,-0.98760986,0.10858154,0.78125,1.890625,-0.859375
200,1697613965,-0.09814453,-0.9793091,0.08441162,-0.34375,1.65625,-0.53125
201,1697614005,-0.11206055,-0.9854126,0.09295654,-0.234375,1.984375,-0.546875
202,1697614045,-0.106933594,-0.98516846,0.101745605,0.359375,1.703125,-0.640625
203,1697614085,-0.10473633,-0.9859009,0.0914917,0.125,1.59375,-0.28125
204,1697614125,-0.10595703,-0.97369385,0.086364746,0.015625,1.4375,-0.5625
205,1697614165,-0.1159668,-0.98272705,0.09661865,0.203125,1.796875,-0.46875
206,1697614205,-0.10083008,-0.9834595,0.09222412,0.203125,1.484375,-0.609375
207,1697614245,-0.103759766,-0.97906494,0.093933105,0.15625,1.6875,-0.734375
208,1697614285,-0.111083984,-0.9859009,0.09320068,0.609375,1.71875,-0.59375
209,1697614325,-0.10473633,-0.98028564,0.08905029,-0.28125,1.8125,-0.65625
210,1697614365,-0.10888672,-0.98809814,0.09246826,-0.34375,1.53125,-0.46875
211,1697614405,-0.1015625,-0.98638916,0.09320068,-0.09375,1.671875,-0.859375
212,1697614445,-0.10229492,-0.97491455,0.08685303,-0.234375,1.484375,-0.390625
213,1697614485,-0.10864258,-0.9834595,0.09295654,-0.203125,1.484375,-0.8125
214,1697614525,-0.1159668,-0.9734497,0.09613037,0.15625,1.484375,-0.515625
215,1697614565,-0.10546875,-0.98687744,0.09320068,-0.15625,1.59375,-0.71875
216,1697614605,-0.10839844,-0.98760986,0.08758545,-0.078125,1.484375,-0.359375
217,1697614645,-0.099365234,-0.9758911,0.098083496,-0.78125,1.796875,-0.984375
218,1697614685,-0.11401367,-0.98809814,0.101745605,1.265625,1.671875,-0.078125
219,1697614725,-0.087646484,-0.97491455,0.086120605,-0.234375,1.671875,-0.8125
220,1697614765,-0.111083984,-0.9837036,0.09906006,-0.890625,1.453125,-0.4375
221,1697614805,-0.10961914,-0.98883057,0.09466553,0.609375,1.296875,-0.59375
222,1697614845,-0.09741211,-0.972229,0.08099365,-0.5625,1.625,-0.40625
223,1697614885,-0.11254883,-0.9932251,0.09490967,-0.125,1.484375,-0.625
224,1697614925,-0.10961914,-0.98150635,0.090270996,0.03125,1.53125,-0.5
225,1697614965,-0.100097656,-0.9902954,0.10003662,0.15625,1.6875,-0.78125
226,1697615005,-0.10913086,-0.98101807,0.08734131,-0.078125,1.65625,-0.6875
227,1697615045,-0.1081543,-0.9951782,0.10247803,0.6875,1.484375,-0.734375
228,1697615085,-0.104003906,-0.9697876,0.081726074,0.171875,1.578125,-0.5
229,1697615125,-0.10839844,-0.98565674,0.08807373,0.34375,1.703125,-0.59375
230,1697615165,-0.107177734,-0.99053955,0.09051514,0.0625,1.484375,-0.5625
231,1697615205,-0.103515625,-0.9849243,0.08905029,-0.1875,1.671875,-0.4375
232,1697615245,-0.104003906,-0.98223877,0.08050537,-0.125,1.53125,-0.40625
233,1697615285,-0.10107422,-0.9859009,0.093933105,-0.015625,1.453125,-0.34375
234,1697615325,-0.107910156,-0.975647,0.09173584,-0.15625,1.5625,-0.546875
235,1697615365,-0.10888672,-0.9873657,0.09075928,0.375,1.5,-0.3125
236,1697615405,-0.111816406,-0.9783325,0.09173584,0.34375,1.546875,-0.578125
237,1697615445,-0.10986328,-0.97442627,0.09295654,0.1875,1.640625,-0.609375
238,1697615485,-0.10522461,-0.9834595,0.097351074,0.234375,1.8125,-0.59375
239,1697615525,-0.115722656,-0.97857666,0.101745605,0.828125,1.625,-0.515625
240,1697615565,-0.10595703,-0.98931885,0.07952881,-0.46875,1.734375,-0.265625
241,1697615605,-0.099365234,-0.97198486,0.08929443,-1.75,1.453125,-1.09375
242,1697615645,-0.11816406,-0.99005127,0.10638428,-0.171875,1.6875,-0.515625
243,1697615685,-0.09838867,-0.9783325,0.093444824,0.0,1.4375,-0.734375
244,1697615725,-0.10571289,-0.97979736,0.09564209,-0.28125,1.875,-0.515625
245,1697615765,-0.11279297,-0.98760986,0.10296631,0.46875,1.4375,-0.546875
246,1697615805,-0.109375,-0.9717407,0.0836792,-0.25,2.015625,-0.375
247,1697615845,-0.103027344,-0.9871216,0.085876465,0.1875,1.421875,-0.65625
248,1697615885,-0.10571289,-0.97857666,0.0927124,0.453125,1.859375,-0.546875
249,1697615925,-0.10864258,-0.98565674,0.09442139,0.234375,1.375,-0.078125
250,1697615965,-0.095214844,-0.97784424,0.08441162,0.234375,1.5,-0.59375
251,1697616005,-0.107910156,-0.98809814,0.093688965,0.421875,1.46875,-0.578125
252,1697616045,-0.10986328,-0.9800415,0.090026855,0.109375,1.515625,-0.734375
253,1697616085,-0.10546875,-0.9824829,0.08807373,-0.234375,1.703125,-0.5
254,1697616125,-0.10546875,-0.9819946,0.081970215,-0.390625,1.609375,-0.625
255,1697616165,-0.1003418,-0.98394775,0.0927124,-0.09375,1.5625,-0.71875
256,1697616205,-0.1003418,-0.9768677,0.09320068,-0.09375,1.484375,-0.390625
257,1697616245,-0.10839844,-0.9854126,0.086120605,-0.09375,1.453125,-0.5
258,1697616285,-0.10839844,-0.98150635,0.08294678,0.484375,1.5625,-0.65625
259,1697616325,-0.111328125,-0.9841919,0.09124756,0.28125,1.625,-0.6875
260,1697616365,-0.10888672,-0.9751587,0.09246826,0.34375,1.671875,-0.65625
261,1697616405,-0.107177734,-0.9780884,0.097595215,0.640625,1.671875,-0.3125
262,1697616445,-0.106933594,-0.9873657,0.07513428,-0.265625,1.609375,-0.3125
263,1697616485,-0.10498047,-0.9780884,0.08831787,-1.0625,1.53125,-0.9375
264,1697616525,-0.11279297,-0.9927368,0.105407715,0.28125,1.765625,-0.828125
265,1697616565,-0.103027344,-0.9819946,0.08929443,-0.171875,1.40625,-0.75
266,1697616605,-0.10595703,-0.97906494,0.08319092,-0.046875,1.78125,-0.78125
267,1697616645,-0.111572266,-0.9866333,0.1005249,0.234375,1.203125,-0.59375
268,1697616685,-0.111328125,-0.9902954,0.09637451,-0.46875,1.84375,-0.140625
269,1697616725,-0.09814453,-0.9795532,0.08782959,-0.21875,1.46875,-0.765625
270,1697616765,-0.10668945,-0.97979736,0.09686279,0.3125,1.71875,-0.515625
271,1697616805,-0.111816406,-0.9949341,0.09320068,0.671875,1.53125,-0.234375
272,1697616845,-0.10546875,-0.9727173,0.08392334,0.03125,1.6875,-0.59375
273,1697616885,-0.107666016,-0.99005127,0.090270996,0.578125,1.75,-0.421875
274,1697616925,-0.10571289,-0.97613525,0.090270996,-0.21875,1.625,-0.515625
275,1697616965,-0.1159668,-0.9924927,0.08905029,-0.4375,1.5625,-0.65625
276,1697617005,-0.10571289,-0.9800415,0.09197998,-0.109375,1.828125,-0.625
277,1697617045,-0.10424805,-0.9771118,0.08929443,-0.234375,1.375,-0.4375
278,1697617085,-0.10888672,-0.98687744,0.09661865,0.0625,1.453125,-0.515625
279,1697617125,-0.107666016,-0.98931885,0.08856201,0.078125,1.5625,-0.234375
280,1697617165,-0.11401367,-0.99005127,0.09442139,0.328125,1.375,-0.375
281,1697617205,-0.10571289,-0.9805298,0.08880615,-0.234375,1.546875,-0.6875
282,1697617245,-0.12573242,-0.9866333,0.08758545,-0.484375,1.734375,-0.546875
283,1697617285,-0.09692383,-0.97198486,0.09979248,-0.296875,1.875,-1.171875
284,1697617325,-0.11303711,-0.99542236,0.09197998,0.390625,1.15625,-0.296875
285,1697617365,-0.09375,-0.9776001,0.09246826,-0.78125,1.65625,-1.0
286,1697617405,-0.11279297,-0.98687744,0.10247803,-0.5625,1.6875,-0.578125
287,1697617445,-0.107421875,-0.9829712,0.09075928,0.09375,1.171875,-0.84375
288,1697617485,-0.10449219,-0.9817505,0.081726074,-0.53125,1.828125,-0.59375
289,1697617525,-0.11401367,-0.98272705,0.08856201,-0.21875,1.59375,-0.59375
290,1697617565,-0.107421875,-0.9846802,0.09490967,-0.640625,1.734375,-0.4375
291,1697617605,-0.09790039,-0.98028564,0.09613037,0.390625,1.65625,-0.828125
292,1697617645,-0.10839844,-0.98028564,0.09588623,0.046875,1.484375,-0.421875
293,1697617685,-0.10913086,-0.98883057,0.09906006,0.71875,1.40625,-0.359375
294,1697617725,-0.10839844,-0.97735596,0.086364746,0.015625,1.765625,-0.34375
295,1697617765,-0.100097656,-0.9924927,0.08685303,0.40625,1.78125,-0.5
296,1697617805,-0.10449219,-0.97979736,0.093444824,0.171875,1.859375,-0.5
297,1697617845,-0.10888672,-0.98638916,0.09222412,-0.3125,1.6875,-0.34375
298,1697617885,-0.107666016,-0.986145,0.08660889,-0.25,1.546875,-0.625
299,1697617925,-0.103271484,-0.97662354,0.09197998,-0.09375,1.578125,-0.75
300,1697617965,-0.10595703,-0.9819946,0.093444824,-0.15625,1.625,-0.5
301,1697618005,-0.10595703,-0.9824829,0.093688965,-0.25,1.515625,-0.5625
302,1697618045,-0.10546875,-0.9780884,0.09295654,-0.046875,1.53125,-0.90625
303,1697618085,-0.10620117,-0.98443604,0.09710693,0.03125,1.390625,-0.625
304,1697618125,-0.110839844,-0.9829712,0.101989746,0.015625,1.515625,-0.390625
305,1697618165,-0.104003906,-0.9795532,0.09954834,-0.03125,1.8125,-0.734375
306,1697618205,-0.11694336,-0.97906494,0.09686279,0.90625,1.8125,-0.296875
307,1697618245,-0.09375,-0.991272,0.07635498,-0.109375,1.609375,-0.234375
308,1697618285,-0.09790039,-0.9841919,0.08807373,-1.546875,1.53125,-0.5625
309,1697618325,-0.111816406,-0.9866333,0.10443115,0.25,1.859375,-0.59375
310,1697618365,-0.107421875,-0.9871216,0.0848999,-0.140625,1.453125,-0.71875
311,1697618405,-0.1003418,-0.9871216,0.093688965,-0.3125,1.890625,-0.890625
312,1697618445,-0.11206055,-0.9783325,0.09661865,-0.1875,1.59375,-0.484375
313,1697618485,-0.103515625,-0.97662354,0.09442139,-0.5,1.828125,-0.1875
314,1697618525,-0.09423828,-0.986145,0.08270264,-0.03125,1.40625,-0.796875
315,1697618565,-0.114990234,-0.9829712,0.10028076,-0.0625,1.578125,-0.65625
316,1697618605,-0.10522461,-0.987854,0.093444824,0.125,1.34375,-0.34375
317,1697618645,-0.10253906,-0.97540283,0.08831787,-0.3125,1.65625,-0.6875
318,1697618685,-0.107421875,-0.99005127,0.09564209,0.15625,1.515625,-0.5625
319,1697618725,-0.1105957,-0.98223877,0.09320068,-0.078125,1.546875,-0.59375
320,1697618765,-0.106933594,-0.9846802,0.09466553,-0.453125,1.859375,-0.609375
321,1697618805,-0.10424805,-0.98638916,0.09246826,0.203125,1.8125,-0.453125
322,1697618845,-0.1027832,-0.9837036,0.089782715,0.859375,2.0,-0.421875
323,1697618885,-0.10522461,-0.9771118,0.094177246,0.53125,1.96875,-0.40625
324,1697618925,-0.103271484,-0.9837036,0.09295654,0.84375,1.953125,-0.265625
325,1697618965,-0.11206055,-0.98272705,0.09197998,0.828125,2.1875,-0.109375
326,1697619005,-0.10620117,-0.9829712,0.090270996,0.359375,2.453125,-0.421875
327,1697619045,-0.10571289,-0.9768677,0.09613037,0.578125,2.15625,-0.1875
328,1697619085,-0.10498047,-0.98321533,0.10467529,0.875,2.34375,-0.375
329,1697619125,-0.10546875,-0.98809814,0.08905029,0.71875,2.734375,-0.015625
330,1697619165,-0.09350586,-0.98883057,0.078552246,-0.4375,2.09375,-0.6875
331,1697619205,-0.10473633,-0.9837036,0.0914917,-1.203125,2.09375,-0.953125
332,1697619245,-0.11206055,-0.9795532,0.10345459,0.0625,2.15625,-0.296875
333,1697619285,-0.10131836,-0.98101807,0.082214355,-0.984375,1.3125,-0.5
334,1697619325,-0.107177734,-0.9849243,0.078308105,-1.0,1.359375,-0.390625
335,1697619365,-0.095214844,-0.9746704,0.09515381,-0.109375,1.0625,-0.328125
336,1697619405,-0.109375,-0.98516846,0.08148193,-0.6875,0.84375,0.03125
337,1697619445,-0.09716797,-0.9819946,0.08465576,-1.03125,0.875,-0.5625
338,1697619485,-0.11303711,-0.98931885,0.0914917,-0.953125,1.234375,-0.703125
339,1697619525,-0.10083008,-0.98028564,0.0927124,-0.03125,1.03125,-0.4375
340,1697619565,-0.09643555,-0.9771118,0.09710693,-0.015625,1.0,-0.671875
341,1697619605,-0.10595703,-0.99005127,0.09124756,0.109375,1.0625,-0.59375
342,1697619645,-0.099853516,-0.98150635,0.09881592,-0.171875,1.25,-0.671875
343,1697619685,-0.104003906,-0.986145,0.09710693,-0.140625,1.359375,-0.40625
344,1697619725,-0.09863281,-0.98443604,0.10003662,0.125,1.34375,-0.578125
345,1697619765,-0.10253906,-0.9817505,0.09100342,0.03125,1.453125,-0.671875
346,1697619805,-0.09692383,-0.9812622,0.0927124,-0.15625,1.4375,-0.890625
347,1697619845,-0.09741211,-0.9758911,0.09100342,0.234375,1.171875,-0.796875
348,1697619885,-0.09814453,-0.98150635,0.09857178,0.515625,1.15625,-0.671875
349,1697619925,-0.11425781,-0.98760986,0.097595215,0.5625,1.203125,-0.28125
350,1697619965,-0.10253906,-0.9837036,0.08782959,0.28125,1.75,-0.890625
351,1697620005,-0.10986328,-0.9763794,0.097595215,1.453125,1.703125,-0.015625
352,1697620045,-0.10180664,-0.9890747,0.08270264,-0.1875,1.78125,-0.546875
353,1697620085,-0.100097656,-0.9805298,0.082458496,-1.609375,1.40625,-1.03125
354,1697620125,-0.109375,-0.99102783,0.097839355,0.25,1.75,-1.078125
355,1697620165,-0.09716797,-0.98565674,0.093688965,0.453125,1.421875,-0.796875
356,1697620205,-0.103271484,-0.98516846,0.08709717,-0.328125,1.453125,-0.578125
357,1697620245,-0.11035156,-0.98272705,0.09222412,-0.40625,1.515625,-0.640625
358,1697620285,-0.10644531,-0.9751587,0.09075928,0.0625,1.71875,-0.109375
359,1697620325,-0.103271484,-0.9834595,0.09197998,-0.34375,1.296875,-0.65625
360,1697620365,-0.111328125,-0.9746704,0.09320068,0.015625,1.59375,-0.734375
361,1697620405,-0.111083984,-0.9883423,0.093688965,0.40625,1.609375,-0.375
362,1697620445,-0.095947266,-0.97125244,0.08660889,0.40625,1.78125,-0.671875
363,1697620485,-0.107177734,-0.9849243,0.09320068,0.25,1.75,-0.546875
364,1697620525,-0.10571289,-0.972229,0.08782959,0.28125,1.84375,-0.578125
365,1697620565,-0.1027832,-0.98516846,0.08880615,-0.21875,1.71875,-0.5625
366,1697620605,-0.107177734,-0.9841919,0.085876465,-0.03125,1.4375,-0.53125
367,1697620645,-0.10083008,-0.9788208,0.09442139,-0.171875,1.4375,-0.546875
368,1697620685,-0.10498047,-0.9771118,0.08514404,-0.15625,1.328125,-0.28125
369,1697620725,-0.1027832,-0.9793091,0.09295654,0.171875,1.375,-0.421875
370,1697620765,-0.10986328,-0.97979736,0.09613037,0.46875,1.796875,-0.671875
371,1697620805,-0.11035156,-0.9812622,0.093444824,0.421875,1.71875,-0.625
372,1697620845,-0.09667969,-0.98687744,0.09173584,0.09375,2.046875,-0.84375
373,1697620885,-0.10644531,-0.9800415,0.09661865,1.46875,1.78125,-0.28125
374,1697620925,-0.11010742,-0.9885864,0.073913574,-0.421875,1.875,-0.59375
375,1697620965,-0.09863281,-0.97662354,0.08148193,-1.640625,1.390625,-0.90625
376,1697621005,-0.111816406,-0.98883057,0.09686279,-0.375,1.765625,-0.75
377,1697621045,-0.103027344,-0.97735596,0.09124756,-0.34375,1.15625,-0.515625
378,1697621085,-0.10522461,-0.9866333,0.09637451,-0.03125,1.75,-0.75
379,1697621125,-0.1105957,-0.96881104,0.097595215,-0.09375,1.5,-0.625
380,1697621165,-0.10913086,-0.98028564,0.09466553,0.3125,1.890625,-0.15625
381,1697621205,-0.09423828,-0.9780884,0.0836792,0.125,1.53125,-0.703125
382,1697621245,-0.10961914,-0.9866333,0.09442139,0.078125,1.765625,-0.671875
383,1697621285,-0.10424805,-0.9849243,0.0927124,0.28125,1.59375,-0.28125
384,1697621325,-0.09692383,-0.97613525,0.085632324,-0.109375,1.625,-0.703125
385,1697621365,-0.10546875,-0.98565674,0.08734131,0.0625,1.375,-0.53125
386,1697621405,-0.103027344,-0.98516846,0.09197998,0.125,1.5625,-0.59375
387,1697621445,-0.10058594,-0.9854126,0.0836792,-0.296875,1.5,-0.546875
388,1697621485,-0.10522461,-0.9788208,0.09173584,-0.078125,1.59375,-0.53125
389,1697621525,-0.10644531,-0.98638916,0.094177246,-0.109375,1.5625,-0.375
390,1697621565,-0.10522461,-0.9846802,0.09637451,0.234375,1.65625,-0.578125
391,1697621605,-0.1027832,-0.9829712,0.09173584,0.421875,1.5,-0.59375
392,1697621645,-0.103515625,-0.9768677,0.08831787,0.359375,1.578125,-0.59375
393,1697621685,-0.10595703,-0.98321533,0.09075928,0.0625,1.84375,-0.375
394,1697621725,-0.09863281,-0.9819946,0.09515381,0.5,1.5,-0.46875
395,1697621765,-0.103759766,-0.99298096,0.0914917,0.1875,2.125,-0.609375
396,1697621805,-0.115234375,-0.98028564,0.101257324,1.21875,1.65625,0.09375
397,1697621845,-0.091308594,-0.9763794,0.07562256,-0.6875,1.765625,-0.421875
398,1697621885,-0.10473633,-0.97857666,0.082214355,-1.21875,1.28125,-0.703125
399,1697621925,-0.12133789,-0.9956665,0.10369873,0.078125,1.640625,-0.734375
400,1697621965,-0.095458984,-0.97662354,0.08392334,-0.296875,1.5625,-0.859375
401,1697622005,-0.115234375,-0.98223877,0.089538574,-0.390625,1.765625,-0.65625
402,1697622045,-0.1081543,-0.9807739,0.09710693,0.265625,1.375,-0.8125
403,1697622085,-0.110839844,-0.9758911,0.09197998,-0.15625,1.859375,-0.359375
404,1697622125,-0.10424805,-0.986145,0.08441162,-0.4375,1.3125,-0.8125
405,1697622165,-0.109375,-0.9883423,0.09906006,0.0,1.640625,-0.65625
406,1697622205,-0.1081543,-0.9898071,0.089782715,-0.0625,1.28125,-0.484375
407,1697622245,-0.099853516,-0.97491455,0.08807373,-0.390625,1.6875,-0.765625
408,1697622285,-0.10205078,-0.9795532,0.093444824,-0.1875,1.5625,-0.8125
409,1697622325,-0.10668945,-0.9841919,0.09466553,-0.390625,1.453125,-0.71875
410,1697622365,-0.107421875,-0.98321533,0.09832764,-0.265625,1.578125,-0.84375
411,1697622405,-0.10986328,-0.9837036,0.09515381,-0.25,1.640625,-0.703125
412,1697622445,-0.10424805,-0.9846802,0.097839355,-0.078125,1.484375,-0.640625
413,1697622485,-0.1003418,-0.97906494,0.09222412,-0.328125,1.453125,-0.4375
414,1697622525,-0.107910156,-0.9846802,0.101501465,0.078125,1.59375,-0.53125
415,1697622565,-0.11230469,-0.98321533,0.09686279,0.21875,1.625,-0.5625
416,1697622605,-0.111816406,-0.9866333,0.090026855,-0.09375,1.59375,-0.3125
417,1697622645,-0.10058594,-0.9788208,0.09075928,-0.21875,1.4375,-0.703125
418,1697622685,-0.111328125,-0.98272705,0.11053467,0.171875,1.78125,-0.609375
419,1697622725,-0.118896484,-0.97662354,0.10809326,0.453125,1.921875,-0.46875
420,1697622765,-0.103271484,-0.99591064,0.07635498,-0.234375,1.96875,-0.03125
421,1697622805,-0.09790039,-0.975647,0.08734131,-1.234375,1.53125,-0.9375
422,1697622845,-0.12524414,-0.9885864,0.11126709,-0.078125,2.078125,-0.578125
423,1697622885,-0.1081543,-0.9898071,0.093444824,0.203125,2.15625,-0.46875
424,1697622925,-0.092285156,-0.97442627,0.08050537,-0.65625,2.3125,-0.296875
425,1697622965,-0.107910156,-0.99053955,0.089538574,-0.078125,1.921875,-0.421875
426,1697623005,-0.10522461,-0.9805298,0.09857178,0.5,2.09375,-0.234375
427,1697623045,-0.09838867,-0.97369385,0.09588623,0.421875,2.171875,-0.546875
428,1697623085,-0.10546875,-0.986145,0.093933105,0.421875,2.03125,-0.125
429,1697623125,-0.103027344,-0.98223877,0.09320068,1.4375,1.90625,-0.359375
430,1697623165,-0.104003906,-0.972229,0.093933105,1.09375,1.921875,-0.140625
431,1697623205,-0.10229492,-0.9890747,0.0927124,0.578125,1.734375,-0.046875
432,1697623245,-0.10449219,-0.98321533,0.08782959,0.734375,1.859375,-0.25
433,1697623285,-0.10253906,-0.97735596,0.08685303,0.53125,2.203125,-0.25
434,1697623325,-0.10205078,-0.9866333,0.08831787,0.484375,2.265625,-0.265625
435,1697623365,-0.09692383,-0.9885864,0.081970215,0.546875,1.96875,-0.21875
436,1697623405,-0.091796875,-0.97662354,0.08538818,0.34375,1.859375,-0.40625
437,1697623445,-0.104003906,-0.9866333,0.090026855,0.28125,1.796875,-0.234375
438,1697623485,-0.10571289,-0.9788208,0.08001709,0.609375,1.5,-0.1875
439,1697623525,-0.09765625,-0.98760986,0.08099365,-0.46875,1.515625,-0.375
440,1697623565,-0.096191406,-0.9819946,0.07562256,-0.078125,0.875,-0.390625
441,1697623605,-0.099609375,-0.9939575,0.08343506,-0.9375,1.75,-0.625
442,1697623645,-0.10058594,-0.97491455,0.08441162,-0.1875,1.15625,-0.546875
443,1697623685,-0.095947266,-0.9885864,0.07293701,-1.40625,1.171875,-0.8125
444,1697623725,-0.1003418,-0.97979736,0.08856201,-2.109375,1.125,-1.078125
445,1697623765,-0.10668945,-0.9837036,0.09442139,-0.828125,1.109375,-0.828125
446,1697623805,-0.099609375,-0.98883057,0.08929443,-1.125,1.3125,-0.78125
447,1697623845,-0.09667969,-0.98223877,0.08929443,-0.71875,1.59375,-0.90625
448,1697623885,-0.10424805,-0.9866333,0.10687256,0.8125,1.046875,-1.125
449,1697623925,-0.10229492,-0.9841919,0.1005249,0.09375,1.0,-0.53125
450,1697623965,-0.10205078,-0.975647,0.09197998,-0.4375,1.375,-0.640625
451,1697624005,-0.10546875,-0.98321533,0.10223389,0.234375,1.578125,-0.453125
452,1697624045,-0.107421875,-0.9849243,0.09051514,0.1875,1.140625,-0.203125
453,1697624085,-0.095703125,-0.97784424,0.08929443,0.578125,1.375,-0.53125
454,1697624125,-0.100097656,-0.98150635,0.09710693,0.5,1.46875,-0.59375
455,1697624165,-0.10253906,-0.98150635,0.08807373,-0.234375,1.1875,-0.671875
456,1697624205,-0.10498047,-0.9859009,0.09197998,-0.375,1.515625,-0.46875
457,1697624245,-0.10229492,-0.9793091,0.093933105,-0.15625,1.390625,-0.671875
458,1697624285,-0.10180664,-0.99102783,0.0914917,-0.53125,1.59375,-0.8125
459,1697624325,-0.09033203,-0.97906494,0.09197998,-0.46875,1.265625,-0.78125
460,1697624365,-0.10546875,-0.9819946,0.090270996,0.015625,1.578125,-0.6875
461,1697624405,-0.107177734,-0.9829712,0.09246826,-0.109375,1.640625,-1.09375
462,1697624445,-0.10595703,-0.98687744,0.09588623,-0.46875,1.546875,-0.734375
463,1697624485,-0.09643555,-0.9678345,0.09832764,-0.203125,1.546875,-0.96875
464,1697624525,-0.10839844,-0.9927368,0.09246826,1.28125,1.390625,0.09375
465,1697624565,-0.0871582,-0.9788208,0.08294678,-0.953125,1.59375,-0.921875
466,1697624605,-0.104003906,-0.9866333,0.09539795,-0.890625,1.703125,-0.78125
467,1697624645,-0.10107422,-0.98443604,0.09686279,0.765625,1.3125,-0.75
468,1697624685,-0.10107422,-0.9734497,0.08392334,-0.140625,1.734375,-0.375
469,1697624725,-0.10668945,-0.9915161,0.093933105,0.328125,1.734375,-0.359375
470,1697624765,-0.103759766,-0.9824829,0.09124756,0.859375,1.75,-0.765625
471,1697624805,-0.10058594,-0.98565674,0.093933105,1.0,1.671875,-0.65625
472,1697624845,-0.10498047,-0.9788208,0.085632324,-0.546875,1.46875,-0.453125
473,1697624885,-0.10986328,-0.9902954,0.097839355,0.140625,1.46875,-0.515625
474,1697624925,-0.09863281,-0.9805298,0.0848999,0.5,2.03125,-0.734375
475,1697624965,-0.10131836,-0.97052,0.09100342,0.171875,1.375,-0.703125
476,1697625005,-0.10913086,-0.98883057,0.090270996,0.53125,1.34375,-0.34375
477,1697625045,-0.10668945,-0.9846802,0.08880615,-0.171875,1.78125,-0.46875
478,1697625085,-0.107177734,-0.99053955,0.09051514,-0.1875,1.90625,-0.3125
479,1697625125,-0.09375,-0.98883057,0.09613037,-0.046875,1.8125,-0.578125
480,1697625165,-0.09057617,-0.97491455,0.089538574,-0.59375,1.515625,-0.5625
481,1697625205,-0.11035156,-0.98931885,0.08856201,-0.609375,1.28125,-0.671875
482,1697625245,-0.10180664,-0.97735596,0.08831787,-0.328125,1.390625,-0.890625
483,1697625285,-0.11328125,-0.9854126,0.097595215,-0.59375,1.09375,-0.59375
484,1697625325,-0.09350586,-0.989563,0.09173584,-0.796875,1.53125,-1.171875
485,1697625365,-0.11791992,-0.9837036,0.101501465,0.859375,1.34375,-0.046875
486,1697625405,-0.09643555,-0.9849243,0.078063965,-0.59375,1.59375,-0.671875
487,1697625445,-0.10058594,-0.98272705,0.081970215,-2.1875,1.46875,-0.90625
488,1697625485,-0.114746094,-0.99176025,0.10809326,0.09375,1.578125,-0.796875
489,1697625525,-0.099609375,-0.9751587,0.093688965,-0.1875,1.71875,-1.0
490,1697625565,-0.109375,-0.9837036,0.09979248,-0.671875,2.21875,-0.71875
491,1697625605,-0.115478516,-0.97857666,0.10491943,-0.578125,1.625,-0.765625
492,1697625645,-0.111083984,-0.9837036,0.09490967,-0.1875,1.9375,-0.5
493,1697625685,-0.103027344,-0.9746704,0.09100342,-1.046875,2.390625,-0.703125
494,1697625725,-0.12158203,-0.98687744,0.117126465,0.015625,2.078125,-1.078125
495,1697625765,-0.107421875,-0.97052,0.097839355,-0.171875,2.015625,-0.609375
496,1697625805,-0.10180664,-0.9758911,0.1005249,0.0625,2.15625,-0.46875
497,1697625845,-0.114990234,-0.97857666,0.10491943,0.046875,2.3125,-0.53125
498,1697625885,-0.11303711,-0.9834595,0.09979248,-0.25,1.734375,-0.25
499,1697625925,-0.104003906,-0.9841919,0.09320068,0.125,1.984375,-0.28125
500,1697625965,-0.10083008,-0.9829712,0.09857178,0.640625,1.875,-0.015625
501,1697626005,-0.09863281,-0.98809814,0.09686279,-0.1875,1.671875,-0.15625
502,1697626045,-0.09643555,-0.98321533,0.097351074,-0.109375,1.46875,-0.390625
503,1697626085,-0.107421875,-0.9824829,0.101989746,0.046875,1.625,-0.1875
504,1697626125,-0.11010742,-0.9824829,0.097351074,-0.40625,1.875,-0.71875
505,1697626165,-0.1015625,-0.9824829,0.09857178,-0.40625,1.28125,-0.40625
506,1697626205,-0.10131836,-0.9927368,0.098083496,-0.421875,1.578125,-0.6875
507,1697626245,-0.11621094,-0.97442627,0.094177246,0.71875,1.546875,-0.078125
508,1697626285,-0.09814453,-0.98809814,0.09246826,-0.65625,1.828125,-0.71875
509,1697626325,-0.10522461,-0.9834595,0.1071167,-1.234375,1.53125,-0.625
510,1697626365,-0.10522461,-0.98516846,0.10443115,0.078125,1.484375,-0.6875
511,1697626405,-0.09082031,-0.96832275,0.09466553,-0.21875,1.078125,-0.71875
512,1697626445,-0.106933594,-0.9873657,0.09564209,-0.03125,1.1875,-0.34375
513,1697626485,-0.11743164,-0.9710083,0.10784912,0.453125,0.96875,-0.375
514,1697626525,-0.107910156,-0.98321533,0.10003662,0.09375,0.765625,-0.3125
515,1697626565,-0.11328125,-0.9795532,0.09588623,-0.25,0.6875,-0.328125
516,1697626605,-0.103759766,-0.9817505,0.101257324,-0.03125,1.359375,-0.703125
517,1697626645,-0.103759766,-0.98150635,0.10369873,-0.28125,1.390625,-0.328125
518,1697626685,-0.092041016,-0.98150635,0.10003662,0.125,1.421875,-0.9375
519,1697626725,-0.10644531,-0.98223877,0.10467529,0.796875,1.625,-0.234375
520,1697626765,-0.11206055,-0.9805298,0.10028076,-0.015625,1.5,-0.421875
521,1697626805,-0.104003906,-0.98223877,0.10076904,-0.578125,1.46875,-0.546875
522,1697626845,-0.10546875,-0.9788208,0.09539795,0.078125,1.515625,-0.34375
523,1697626885,-0.104003906,-0.989563,0.1005249,0.3125,1.53125,-0.1875
524,1697626925,-0.095214844,-0.9780884,0.098083496,-0.03125,1.5,-0.4375
525,1697626965,-0.100097656,-0.9824829,0.1005249,-0.3125,1.34375,-0.671875
526,1697627005,-0.1105957,-0.98150635,0.09686279,0.0625,1.46875,-0.734375
527,1697627045,-0.09887695,-0.98321533,0.09222412,0.109375,1.5,-0.453125
528,1697627085,-0.091552734,-0.97198486,0.10321045,-0.421875,1.53125,-0.96875
529,1697627125,-0.11743164,-0.9817505,0.105163574,1.171875,1.234375,0.046875
530,1697627165,-0.09375,-0.9834595,0.09613037,-0.140625,1.578125,-0.953125
531,1697627205,-0.10961914,-0.98516846,0.09954834,-0.890625,1.734375,-0.5625
532,1697627245,-0.103271484,-0.99005127,0.10467529,1.03125,1.4375,-0.6875
533,1697627285,-0.09838867,-0.9788208,0.0914917,0.546875,1.71875,-0.4375
534,1697627325,-0.103271484,-0.99542236,0.09295654,0.390625,1.578125,-0.671875
535,1697627365,-0.10839844,-0.98394775,0.09954834,0.765625,1.671875,-0.59375
536,1697627405,-0.10473633,-0.987854,0.09295654,0.9375,1.625,-0.34375
537,1697627445,-0.10913086,-0.98028564,0.089538574,-0.328125,1.390625,-0.5625
538,1697627485,-0.11303711,-0.98443604,0.10272217,0.890625,1.71875,-0.46875
539,1697627525,-0.09814453,-0.98565674,0.09173584,0.578125,1.890625,-0.328125
540,1697627565,-0.09863281,-0.9771118,0.08660889,0.328125,1.59375,-0.578125
541,1697627605,-0.10986328,-0.98760986,0.09661865,0.625,1.640625,-0.390625
542,1697627645,-0.099121094,-0.98760986,0.08734131,-0.1875,1.859375,-0.578125
543,1697627685,-0.10620117,-0.98516846,0.08905029,-0.015625,1.71875,-0.40625
544,1697627725,-0.10180664,-0.9829712,0.09124756,0.09375,1.671875,-0.28125
545,1697627765,-0.10571289,-0.9829712,0.09051514,-0.1875,1.65625,-0.5625
546,1697627805,-0.09887695,-0.98150635,0.093933105,-0.171875,1.34375,-0.6875
547,1697627845,-0.1015625,-0.9783325,0.097351074,0.109375,1.3125,-0.578125
548,1697627885,-0.10205078,-0.97906494,0.097839355,0.0625,1.34375,-0.59375
549,1697627925,-0.103515625,-0.98638916,0.09490967,-0.53125,1.34375,-0.671875
550,1697627965,-0.10839844,-0.98883057,0.089538574,-0.421875,1.234375,-0.34375
551,1697628005,-0.095214844,-0.9751587,0.09906006,-1.640625,1.734375,-1.40625
552,1697628045,-0.115722656,-0.9841919,0.1005249,0.6875,1.046875,-0.125
553,1697628085,-0.08935547,-0.98272705,0.08929443,-1.421875,1.5,-1.25
554,1697628125,-0.1105957,-0.9859009,0.09588623,-1.625,1.578125,-0.640625
555,1697628165,-0.11254883,-0.987854,0.101501465,0.203125,1.375,-0.78125
556,1697628205,-0.09838867,-0.9702759,0.09197998,-0.84375,2.28125,-0.640625
557,1697628245,-0.10498047,-0.9963989,0.09075928,-0.71875,2.140625,-0.765625
558,1697628285,-0.10253906,-0.9812622,0.10467529,0.203125,2.21875,-0.78125
559,1697628325,-0.103271484,-0.9819946,0.09857178,0.203125,1.984375,-0.171875
560,1697628365,-0.10205078,-0.9812622,0.08880615,-1.328125,1.78125,-0.859375
561,1697628405,-0.109375,-0.9834595,0.10687256,-0.65625,2.234375,-0.84375
562,1697628445,-0.1081543,-0.98565674,0.09661865,0.078125,2.046875,-0.46875
563,1697628485,-0.100097656,-0.9763794,0.097839355,-0.125,1.78125,-0.5625
564,1697628525,-0.10864258,-0.98883057,0.10614014,-0.03125,1.84375,-0.59375
565,1697628565,-0.10498047,-0.98101807,0.10345459,-0.234375,2.21875,-0.671875
566,1697628605,-0.10253906,-0.9795532,0.101989746,-0.703125,1.9375,-0.5625
567,1697628645,-0.103515625,-0.9841919,0.10858154,-0.21875,1.859375,-0.625
568,1697628685,-0.106933594,-0.97979736,0.10491943,-0.3125,1.703125,-0.5
569,1697628725,-0.10864258,-0.98223877,0.10345459,-0.34375,1.828125,-0.375
570,1697628765,-0.107421875,-0.97613525,0.101501465,-0.5625,1.671875,-0.46875
571,1697628805,-0.11035156,-0.9734497,0.10418701,-0.65625,1.890625,-0.359375
572,1697628845,-0.10888672,-0.97613525,0.10662842,-0.046875,2.0,-0.5
573,1697628885,-0.10180664,-0.98272705,0.0993042,-0.171875,1.6875,-0.703125
574,1697628925,-0.11450195,-0.986145,0.105163574,-0.71875,1.734375,-0.34375
575,1697628965,-0.09448242,-0.9680786,0.11248779,-1.09375,2.0,-0.8125
576,1697629005,-0.10986328,-0.98931885,0.11053467,-0.25,1.28125,-0.40625
577,1697629045,-0.087402344,-0.9783325,0.097595215,-0.921875,1.5625,-1.03125
578,1697629085,-0.107666016,-0.98101807,0.11175537,0.421875,1.59375,-0.078125
579,1697629125,-0.099121094,-0.9817505,0.10321045,0.40625,1.09375,-0.578125
580,1697629165,-0.107177734,-0.9717407,0.09857178,-0.328125,1.328125,-0.4375
581,1697629205,-0.095947266,-0.98443604,0.101257324,0.15625,0.953125,-0.578125
582,1697629245,-0.099609375,-0.9780884,0.10687256,0.40625,0.625,-0.59375
583,1697629285,-0.10058594,-0.9834595,0.11126709,0.421875,1.015625,-0.6875
584,1697629325,-0.10180664,-0.9812622,0.10760498,0.078125,0.890625,-0.8125
585,1697629365,-0.11425781,-0.9846802,0.10809326,0.453125,1.234375,-0.375
586,1697629405,-0.106933594,-0.97247314,0.113220215,0.15625,1.484375,-0.546875
587,1697629445,-0.107421875,-0.9771118,0.10882568,0.59375,1.390625,-0.140625
588,1697629485,-0.10229492,-0.9883423,0.09979248,0.828125,1.546875,-0.46875
589,1697629525,-0.103271484,-0.9763794,0.101257324,0.09375,1.46875,-0.46875
590,1697629565,-0.11035156,-0.9859009,0.10296631,0.0,1.484375,-0.171875
591,1697629605,-0.10180664,-0.9837036,0.10394287,0.859375,1.5,-0.34375
592,1697629645,-0.103759766,-0.9824829,0.101257324,0.609375,1.4375,-0.03125
593,1697629685,-0.103759766,-0.9805298,0.0993042,0.21875,1.6875,-0.09375
594,1697629725,-0.1027832,-0.98565674,0.097351074,0.203125,1.4375,-0.390625
595,1697629765,-0.103027344,-0.98150635,0.09881592,-0.03125,1.421875,-0.578125
596,1697629805,-0.10961914,-0.99053955,0.09637451,-0.1875,1.4375,-0.09375
597,1697629845,-0.09033203,-0.9714966,0.09637451,-1.25,1.53125,-1.3125
598,1697629885,-0.11035156,-0.9873657,0.11102295,0.71875,1.140625,-0.328125
599,1697629925,-0.099609375,-0.98321533,0.08831787,-1.046875,1.703125,-0.953125
600,1697629965,-0.104003906,-0.9788208,0.10491943,-0.703125,1.359375,-0.421875
601,1697630005,-0.10961914,-0.9898071,0.112976074,0.6875,1.46875,-0.640625
602,1697630045,-0.0925293,-0.9805298,0.09466553,0.203125,1.671875,-0.625
603,1697630085,-0.09667969,-0.9812622,0.1005249,-0.078125,1.390625,-0.5
604,1697630125,-0.10058594,-0.9793091,0.105407715,0.25,1.640625,-0.625
605,1697630165,-0.106933594,-0.9793091,0.0993042,1.03125,1.625,-0.015625
606,1697630205,-0.10205078,-0.98028564,0.09075928,-0.375,1.296875,-0.34375
607,1697630245,-0.10473633,-0.98394775,0.10687256,-0.078125,1.421875,-0.78125
608,1697630285,-0.1081543,-0.98223877,0.10369873,0.328125,1.453125,-0.359375
609,1697630325,-0.10083008,-0.9824829,0.09320068,0.75,1.5625,-0.625
610,1697630365,-0.1027832,-0.98883057,0.105651855,1.296875,1.71875,-0.65625
611,1697630405,-0.099609375,-0.98028564,0.09857178,0.625,1.703125,-0.734375
612,1697630445,-0.10083008,-0.98809814,0.09197998,-0.0625,1.96875,-0.359375
613,1697630485,-0.1003418,-0.9849243,0.0993042,0.8125,1.453125,-0.15625
614,1697630525,-0.10205078,-0.97784424,0.09613037,-0.328125,1.53125,-0.359375
615,1697630565,-0.087402344,-0.98321533,0.09124756,-0.3125,1.328125,-0.390625
616,1697630605,-0.09765625,-0.9817505,0.08734131,0.296875,1.3125,-0.40625
617,1697630645,-0.10473633,-0.9846802,0.09857178,0.328125,1.5625,-0.125
618,1697630685,-0.10131836,-0.9885864,0.09222412,0.15625,1.421875,-0.328125
619,1697630725,-0.087646484,-0.9859009,0.08807373,-1.0625,2.171875,-1.28125
620,1697630765,-0.1171875,-0.97540283,0.105651855,1.96875,1.34375,0.03125
621,1697630805,-0.09716797,-0.98321533,0.086364746,-0.34375,1.96875,-0.328125
622,1697630845,-0.09399414,-0.97906494,0.0848999,-1.609375,1.515625,-0.9375
623,1697630885,-0.10498047,-0.98809814,0.105407715,0.5625,1.53125,-0.796875
624,1697630925,-0.1015625,-0.9800415,0.08831787,0.1875,1.59375,-0.125
625,1697630965,-0.10107422,-0.98394775,0.09100342,-0.046875,1.765625,-0.578125
626,1697631005,-0.11401367,-0.9795532,0.101745605,0.375,1.734375,-0.609375
627,1697631045,-0.107177734,-0.9793091,0.09197998,0.5625,1.8125,0.03125
628,1697631085,-0.09643555,-0.98931885,0.08929443,0.140625,1.6875,-0.546875
629,1697631125,-0.10058594,-0.9800415,0.09881592,0.203125,2.015625,-0.71875
630,1697631165,-0.106933594,-0.9859009,0.09222412,0.296875,1.640625,-0.078125
631,1697631205,-0.096191406,-0.97857666,0.08734131,0.0625,1.53125,-0.5
632,1697631245,-0.103027344,-0.9849243,0.08758545,-0.390625,1.375,-0.640625
633,1697631285,-0.099365234,-0.9834595,0.086120605,-0.953125,1.421875,-0.84375
634,1697631325,-0.09301758,-0.9763794,0.08929443,-0.859375,1.203125,-0.890625
635,1697631365,-0.10546875,-0.98516846,0.09564209,-0.484375,1.234375,-0.640625
636,1697631405,-0.103515625,-0.9795532,0.097595215,-0.953125,1.375,-0.75
637,1697631445,-0.10180664,-0.9849243,0.09075928,-1.0625,1.40625,-0.875
638,1697631485,-0.10058594,-0.97906494,0.09588623,0.125,1.71875,-0.765625
639,1697631525,-0.1027832,-0.9890747,0.0993042,-0.1875,1.515625,-0.6875
640,1697631565,-0.10668945,-0.98101807,0.1005249,-0.203125,1.671875,-0.84375
641,1697631605,-0.095458984,-0.99346924,0.101257324,-0.34375,1.984375,-0.96875
642,1697631645,-0.103515625,-0.9702759,0.10809326,0.296875,2.09375,-0.71875
643,1697631685,-0.104003906,-0.987854,0.09246826,-0.484375,1.9375,-0.5625
644,1697631725,-0.099365234,-0.97857666,0.09954834,-1.703125,1.734375,-1.203125
645,1697631765,-0.11450195,-0.98028564,0.11785889,-0.25,2.3125,-0.78125
646,1697631805,-0.10424805,-0.9849243,0.10394287,-0.171875,2.078125,-0.875
647,1697631845,-0.104003906,-0.9793091,0.09881592,-0.984375,2.296875,-0.890625
648,1697631885,-0.11621094,-0.9883423,0.109313965,-0.046875,2.21875,-0.515625
649,1697631925,-0.10205078,-0.9854126,0.105407715,0.53125,2.15625,-0.46875
650,1697631965,-0.095458984,-0.97662354,0.098083496,-0.828125,1.546875,-0.9375
651,1697632005,-0.11450195,-0.98443604,0.10858154,-0.34375,1.953125,-0.40625
652,1697632045,-0.10083008,-0.9837036,0.10321045,-0.265625,1.796875,-0.546875
653,1697632085,-0.104003906,-0.9812622,0.097595215,-0.71875,1.734375,-0.765625
654,1697632125,-0.107910156,-0.97735596,0.10321045,-0.90625,1.75,-0.703125
655,1697632165,-0.107177734,-0.98394775,0.10467529,-0.25,1.953125,-0.546875
656,1697632205,-0.107421875,-0.9807739,0.11175537,-0.546875,2.0625,-0.46875
657,1697632245,-0.1015625,-0.9734497,0.105407715,-0.546875,1.625,-0.65625
658,1697632285,-0.10571289,-0.9871216,0.10736084,-0.546875,1.5625,-0.34375
659,1697632325,-0.10473633,-0.9837036,0.109558105,-0.140625,1.484375,-0.296875
660,1697632365,-0.10498047,-0.9819946,0.109802246,0.484375,1.515625,-0.3125
661,1697632405,-0.10449219,-0.98809814,0.105407715,0.453125,1.328125,-0.34375
662,1697632445,-0.104003906,-0.9812622,0.109069824,0.734375,1.234375,-0.203125
663,1697632485,-0.091308594,-0.99346924,0.10345459,0.140625,1.765625,-0.875
664,1697632525,-0.111328125,-0.97735596,0.11102295,1.03125,1.546875,0.0
665,1697632565,-0.1003418,-0.9890747,0.09466553,0.1875,1.625,-0.40625
666,1697632605,-0.10253906,-0.9819946,0.101257324,-0.71875,1.34375,-0.625
667,1697632645,-0.104003906,-0.9795532,0.1083374,0.03125,1.421875,-0.46875
668,1697632685,-0.09472656,-0.9824829,0.09906006,-0.84375,1.171875,-0.734375
669,1697632725,-0.103027344,-0.98321533,0.10784912,-0.234375,1.171875,-0.65625
670,1697632765,-0.10864258,-0.9846802,0.11981201,0.765625,1.0625,-0.484375
671,1697632805,-0.099365234,-0.9805298,0.1083374,0.25,1.28125,-0.09375
672,1697632845,-0.10620117,-0.98565674,0.10638428,-0.328125,0.953125,-0.296875
673,1697632885,-0.10864258,-0.99102783,0.10467529,0.15625,1.515625,-0.40625
674,1697632925,-0.10522461,-0.9788208,0.10491943,0.53125,1.59375,-0.328125
675,1697632965,-0.10058594,-0.9834595,0.105895996,0.328125,1.46875,-0.75
676,1697633005,-0.099365234,-0.9883423,0.109558105,-0.015625,1.59375,-0.609375
677,1697633045,-0.10107422,-0.9854126,0.10687256,-0.140625,1.875,-0.8125
678,1697633085,-0.10253906,-0.98394775,0.10491943,-0.21875,1.890625,-0.5625
679,1697633125,-0.099609375,-0.97784424,0.10223389,0.203125,1.515625,-0.546875
680,1697633165,-0.100097656,-0.98394775,0.101257324,0.09375,1.140625,-0.3125
681,1697633205,-0.1027832,-0.9849243,0.10345459,0.34375,1.484375,-0.171875
682,1697633245,-0.1003418,-0.9702759,0.10662842,-0.171875,1.109375,-0.359375
683,1697633285,-0.11645508,-0.9873657,0.11175537,0.203125,1.640625,-0.1875
684,1697633325,-0.09301758,-0.96588135,0.10491943,1.078125,1.328125,-0.671875
685,1697633365,-0.1081543,-0.99298096,0.097839355,0.65625,1.609375,0.171875
686,1697633405,-0.08569336,-0.9817505,0.09588623,-1.03125,1.703125,-1.1875
687,1697633445,-0.10961914,-0.986145,0.112976074,-0.5,1.625,-0.265625
688,1697633485,-0.09765625,-0.9871216,0.09954834,1.0,1.078125,-0.796875
689,1697633525,-0.0949707,-0.97784424,0.093688965,0.0,1.53125,-0.34375
690,1697633565,-0.10961914,-0.9915161,0.10321045,0.234375,1.359375,-0.203125
691,1697633605,-0.11376953,-0.98223877,0.09686279,0.421875,1.578125,-0.125
692,1697633645,-0.08666992,-0.98883057,0.10076904,-0.109375,1.6875,-0.875
693,1697633685,-0.096191406,-0.9678345,0.10076904,-0.375,1.296875,-0.421875
694,1697633725,-0.1105957,-0.99542236,0.10491943,0.203125,1.53125,-0.59375
695,1697633765,-0.09790039,-0.98028564,0.09588623,-0.0625,1.484375,-0.6875
696,1697633805,-0.1027832,-0.9829712,0.101257324,0.125,1.453125,-0.8125
697,1697633845,-0.107666016,-0.9829712,0.101989746,0.171875,1.578125,-0.53125
698,1697633885,-0.09643555,-0.9795532,0.09686279,-0.046875,1.78125,-0.671875
699,1697633925,-0.10449219,-0.9841919,0.09613037,-0.40625,1.515625,-0.484375
700,1697633965,-0.09301758,-0.9817505,0.10784912,0.46875,1.65625,-0.515625
701,1697634005,-0.09887695,-0.9807739,0.10076904,0.125,1.578125,-0.34375
702,1697634045,-0.10131836,-0.975647,0.10614014,0.03125,1.46875,-0.65625
703,1697634085,-0.09692383,-0.98443604,0.10003662,0.53125,1.78125,-0.625
704,1697634125,-0.106933594,-0.97735596,0.11004639,1.046875,1.4375,-0.125
705,1697634165,-0.107421875,-0.9873657,0.08929443,0.5,1.421875,-0.03125
706,1697634205,-0.09472656,-0.97857666,0.08856201,-0.84375,1.78125,-0.890625
707,1697634245,-0.111083984,-0.98687744,0.11419678,0.515625,2.09375,-0.78125
708,1697634285,-0.095703125,-0.9885864,0.101501465,0.5625,1.609375,-0.75
709,1697634325,-0.100097656,-0.986145,0.09881592,0.109375,1.96875,-0.6875
710,1697634365,-0.10522461,-0.98565674,0.101501465,0.15625,1.375,-0.765625
711,1697634405,-0.10205078,-0.9805298,0.10076904,0.1875,1.578125,-0.375
712,1697634445,-0.096191406,-0.9780884,0.0914917,-0.375,1.421875,-0.53125
713,1697634485,-0.10961914,-0.9758911,0.0993042,0.046875,1.296875,-0.3125
714,1697634525,-0.107666016,-0.9993286,0.097351074,0.21875,1.734375,-0.390625
715,1697634565,-0.099121094,-0.97198486,0.086120605,-0.234375,1.515625,-0.390625
716,1697634605,-0.10668945,-0.98931885,0.09832764,0.1875,1.71875,-0.484375
717,1697634645,-0.09643555,-0.9817505,0.09588623,-0.1875,1.703125,-0.765625
718,1697634685,-0.09399414,-0.9829712,0.10003662,-0.78125,1.484375,-0.765625
719,1697634725,-0.107177734,-0.9873657,0.0914917,-0.296875,1.328125,-0.625
720,1697634765,-0.099121094,-0.97979736,0.101257324,-0.5,1.421875,-0.5625
721,1697634805,-0.104003906,-0.9890747,0.09613037,-0.109375,1.609375,-0.59375
722,1697634845,-0.10473633,-0.9805298,0.097595215,0.109375,1.375,-0.46875
723,1697634885,-0.095214844,-0.9902954,0.09442139,-0.609375,1.9375,-0.96875
724,1697634925,-0.11767578,-0.98150635,0.112976074,1.46875,1.828125,-0.234375
725,1697634965,-0.10205078,-0.98272705,0.085632324,-0.546875,2.0,-0.8125
726,1697635005,-0.1027832,-0.9783325,0.09100342,-1.59375,1.828125,-0.796875
727,1697635045,-0.109375,-0.9871216,0.10418701,0.265625,2.09375,-0.859375
728,1697635085,-0.095214844,-0.9837036,0.09832764,0.078125,1.859375,-0.796875
729,1697635125,-0.10839844,-0.9883423,0.09588623,-0.3125,2.25,-0.609375
730,1697635165,-0.10205078,-0.98223877,0.10638428,1.109375,1.625,-0.953125
731,1697635205,-0.095703125,-0.97491455,0.09832764,0.25,1.59375,-0.359375
732,1697635245,-0.10864258,-0.97979736,0.09588623,-0.46875,1.34375,-0.171875
733,1697635285,-0.114990234,-0.9890747,0.105895996,0.375,2.234375,-0.40625
734,1697635325,-0.10473633,-0.9800415,0.1005249,0.1875,2.296875,-0.046875
735,1697635365,-0.088378906,-0.98272705,0.101501465,0.0,1.828125,-0.53125
736,1697635405,-0.09887695,-0.9834595,0.09710693,-0.328125,2.078125,-0.4375
737,1697635445,-0.103759766,-0.98443604,0.10247803,-0.125,1.59375,-0.578125
738,1697635485,-0.10083008,-0.98638916,0.10028076,-0.625,1.578125,-0.625
739,1697635525,-0.10083008,-0.986145,0.10076904,-0.234375,1.609375,-0.375
740,1697635565,-0.1003418,-0.9834595,0.09710693,-0.1875,1.328125,-0.234375
741,1697635605,-0.103271484,-0.98150635,0.09490967,0.109375,1.15625,-0.1875
742,1697635645,-0.100097656,-0.9746704,0.10101318,-0.140625,1.46875,-0.3125
743,1697635685,-0.09814453,-0.96832275,0.10321045,0.3125,1.4375,-0.5625
744,1697635725,-0.103759766,-0.9937134,0.094177246,0.140625,1.15625,-0.5
745,1697635765,-0.08984375,-0.973938,0.09490967,-1.171875,1.515625,-1.3125
746,1697635805,-0.1081543,-0.97442627,0.116882324,-0.046875,1.359375,-0.953125
747,1697635845,-0.10913086,-0.9907837,0.1005249,0.25,1.25,-0.9375
748,1697635885,-0.091796875,-0.98101807,0.09686279,-0.5,1.703125,-0.828125
749,1697635925,-0.103515625,-0.9800415,0.109313965,0.015625,1.15625,-0.75
750,1697635965,-0.11694336,-0.9890747,0.10369873,0.265625,1.390625,-0.125
751,1697636005,-0.092041016,-0.9800415,0.101745605,-0.03125,1.171875,-0.953125
752,1697636045,-0.10229492,-0.9793091,0.10223389,0.078125,1.4375,-0.71875
753,1697636085,-0.107910156,-0.97662354,0.10272217,0.265625,1.375,-0.28125
754,1697636125,-0.1015625,-0.97540283,0.098083496,0.265625,1.4375,-0.46875
755,1697636165,-0.10546875,-0.9854126,0.10028076,0.453125,1.75,-0.28125
756,1697636205,-0.1027832,-0.98028564,0.09490967,-0.078125,1.640625,-0.375
757,1697636245,-0.0949707,-0.99102783,0.09661865,-0.25,1.8125,-0.609375
758,1697636285,-0.099853516,-0.9841919,0.09857178,-0.484375,1.328125,-0.359375
759,1697636325,-0.10595703,-0.9866333,0.10443115,0.046875,1.546875,-0.40625
760,1697636365,-0.10571289,-0.9793091,0.093444824,-0.234375,1.515625,-0.46875
761,1697636405,-0.10229492,-0.98272705,0.097351074,-0.640625,1.421875,-0.453125
762,1697636445,-0.09887695,-0.97003174,0.10418701,-0.28125,1.703125,-0.640625
763,1697636485,-0.104003906,-0.98809814,0.098083496,1.015625,1.515625,-0.203125
764,1697636525,-0.083740234,-0.975647,0.09686279,-0.953125,1.796875,-1.15625
