,timestamp,accel_x,accel_y,accel_z,gyro_x,gyro_y,gyro_z,ind
0,1695377072679,-0.10083008,-0.9512329,0.32562256,0.46875,-1.78125,0.328125,31
1,1695377072719,-0.0871582,-0.95806885,0.29608154,-0.71875,-1.09375,-0.28125,32
2,1695377072759,-0.08935547,-0.93927,0.36468506,2.296875,-4.328125,-0.1875,33
3,1695377072799,-0.08691406,-0.9746704,0.3397827,-0.859375,-0.59375,-0.1875,34
4,1695377072839,-0.10424805,-0.9397583,0.34051514,0.28125,-1.75,0.46875,35
5,1695377072879,-0.09033203,-0.95025635,0.3439331,0.40625,-1.4375,0.296875,36
6,1695377072919,-0.09838867,-0.93878174,0.3319702,0.71875,-1.5,1.15625,37
7,1695377072959,-0.0859375,-0.9451294,0.34075928,0.71875,-1.734375,1.296875,38
8,1695377072999,-0.08154297,-0.94610596,0.33441162,-0.078125,-1.53125,1.765625,39
9,1695377073039,-0.08984375,-0.958313,0.33563232,-1.203125,-1.03125,0.65625,40
10,1695377073079,-0.064941406,-0.95635986,0.32122803,0.40625,-2.46875,-0.0625,41
11,1695377073119,-0.10424805,-0.93951416,0.34124756,-0.625,-0.0625,0.984375,42
12,1695377073159,-0.083496094,-0.94415283,0.32244873,0.890625,-0.78125,0.515625,43
13,1695377073199,-0.09814453,-0.94244385,0.34075928,-1.125,-0.953125,1.953125,44
14,1695377073239,-0.072509766,-0.9456177,0.3078003,-1.03125,-0.109375,-0.703125,45
15,1695377073279,-0.07006836,-0.9578247,0.3414917,-0.0625,-1.265625,0.6875,46
16,1695377073319,-0.09423828,-0.95928955,0.33416748,0.625,-0.75,1.515625,47
17,1695377073359,-0.07495117,-0.9312134,0.32025146,0.015625,-1.125,0.8125,48
18,1695377073399,-0.10522461,-0.9780884,0.3300171,-0.328125,-2.296875,0.296875,49
19,1695377073439,-0.052001953,-0.9234009,0.32659912,-3.109375,0.6875,-1.46875,50
20,1695377073479,-0.1081543,-0.9661255,0.33709717,-1.296875,0.15625,0.859375,51
21,1695377073519,-0.10083008,-0.9483032,0.31781006,-0.40625,-1.53125,-0.578125,52
22,1695377073559,-0.092285156,-0.9578247,0.33587646,0.21875,-0.28125,-1.03125,53
23,1695377073599,-0.06298828,-0.9619751,0.32366943,-0.296875,1.0625,0.46875,54
24,1695377073639,-0.095703125,-0.94537354,0.31732178,-0.546875,1.28125,1.109375,55
25,1695377073679,-0.087402344,-0.9536743,0.32855225,0.578125,0.6875,0.78125,56
26,1695377073719,-0.0637207,-0.94903564,0.3361206,-0.234375,0.484375,1.9375,57
27,1695377073759,-0.0703125,-0.94073486,0.3366089,-1.15625,-2.0,0.9375,58
28,1695377073799,-0.084228516,-0.98809814,0.32269287,-0.71875,-0.828125,0.609375,59
29,1695377073839,-0.037597656,-0.9224243,0.33050537,0.9375,-1.734375,0.765625,60
30,1695377073879,-0.07763672,-0.9746704,0.3287964,-0.921875,-1.328125,2.0,61
31,1695377073919,-0.09301758,-0.9331665,0.32904053,-0.875,-0.578125,0.515625,62
32,1695377073959,-0.07128906,-0.9702759,0.33172607,-1.84375,0.734375,0.90625,63
33,1695377073999,-0.08886719,-0.9614868,0.32757568,-1.140625,1.046875,0.671875,64
34,1695377074039,-0.07299805,-0.942688,0.33099365,-0.171875,1.0,1.515625,65
35,1695377074079,-0.053222656,-0.9463501,0.34222412,1.015625,-0.890625,0.703125,66
36,1695377074119,-0.04663086,-0.96221924,0.34906006,-0.859375,0.15625,-0.28125,67
37,1695377074159,-0.07519531,-0.9421997,0.31341553,-0.78125,-2.859375,0.375,68
38,1695377074199,-0.048339844,-0.94317627,0.31097412,0.671875,-3.359375,-1.5,69
39,1695377074239,-0.05493164,-0.9458618,0.31170654,2.09375,-3.609375,-1.15625,70
40,1695377074279,-0.08544922,-0.95513916,0.3444214,2.03125,-2.359375,0.34375,71
41,1695377074319,-0.052246094,-0.9500122,0.29193115,-0.1875,-0.796875,1.53125,72
42,1695377074359,-0.1184082,-1.0005493,0.3156128,5.765625,-4.21875,2.921875,73
43,1695377074399,-0.06665039,-0.9312134,0.28753662,3.015625,-0.203125,2.234375,74
44,1695377074439,-0.07470703,-0.9639282,0.3131714,1.171875,1.640625,-0.1875,75
45,1695377074479,-0.068359375,-0.94537354,0.3151245,1.15625,-0.515625,-0.21875,76
46,1695377074519,-0.0949707,-0.9841919,0.34661865,1.0625,-1.703125,0.390625,77
47,1695377074559,-0.06713867,-0.9697876,0.31219482,-1.3125,-1.078125,-0.0625,78
48,1695377074599,-0.04638672,-0.96051025,0.3060913,-1.359375,-1.390625,-1.578125,79
49,1695377074639,-0.053710938,-0.93634033,0.31243896,-0.59375,0.34375,-1.171875,80
50,1695377074679,-0.08105469,-0.9639282,0.31585693,-0.578125,-2.015625,2.078125,81
51,1695377074719,-0.06689453,-0.9483032,0.31365967,-0.953125,0.140625,0.515625,82
52,1695377074759,-0.056640625,-0.9734497,0.3163452,0.96875,-0.984375,0.578125,83
53,1695377074799,-0.068603516,-0.94903564,0.30413818,-0.453125,0.703125,-1.109375,84
54,1695377074839,-0.076171875,-0.96954346,0.29315186,-0.390625,-0.046875,0.359375,85
55,1695377074879,-0.057861328,-0.96051025,0.3053589,0.328125,0.359375,-0.03125,86
56,1695377074919,-0.08251953,-0.9612427,0.31903076,0.6875,0.25,-0.328125,87
57,1695377074959,-0.087402344,-0.9649048,0.30828857,-0.4375,1.375,0.75,88
58,1695377074999,-0.041503906,-0.9644165,0.28045654,-2.109375,0.296875,1.0,89
59,1695377075039,-0.05810547,-0.94659424,0.29388428,-1.203125,0.65625,0.484375,90
60,1695377075079,-0.041992188,-0.96099854,0.29119873,-0.0625,-0.484375,-0.25,91
61,1695377075119,-0.048583984,-0.95758057,0.31048584,1.265625,-0.25,-0.234375,92
62,1695377075159,-0.07910156,-0.9624634,0.31219482,1.453125,-2.8125,0.328125,93
63,1695377075199,-0.051757812,-0.9517212,0.2970581,0.375,-0.53125,-1.03125,94
64,1695377075239,-0.072509766,-0.972229,0.2982788,0.21875,-1.578125,0.15625,95
65,1695377075279,-0.057861328,-0.95147705,0.2909546,0.0,-1.046875,-0.25,96
66,1695377075319,-0.07006836,-0.96173096,0.2921753,-0.0625,-1.390625,0.609375,97
67,1695377075359,-0.076171875,-0.98101807,0.27557373,-1.21875,-0.875,-0.046875,98
68,1695377075399,-0.03149414,-0.95025635,0.2994995,-0.0625,-0.984375,0.625,99
69,1695377075439,-0.095703125,-0.97247314,0.2958374,-0.90625,0.171875,-0.203125,100
70,1695377075479,-0.057373047,-0.94537354,0.32073975,-0.375,0.453125,0.15625,101
71,1695377075519,-0.08227539,-0.9639282,0.29681396,-0.90625,-1.125,0.125,102
72,1695377075559,-0.022949219,-0.95025635,0.30023193,-1.296875,-0.34375,0.03125,103
73,1695377075599,-0.0715332,-0.9585571,0.31048584,0.15625,-1.09375,0.5625,104
74,1695377075639,-0.05883789,-0.9678345,0.29193115,-1.828125,-1.484375,0.75,105
75,1695377075679,-0.08203125,-0.9326782,0.30804443,-0.15625,-0.984375,0.875,106
76,1695377075719,-0.05493164,-0.9649048,0.3036499,-0.40625,0.65625,0.234375,107
77,1695377075759,-0.049804688,-0.9595337,0.2970581,-0.59375,0.21875,0.609375,108
78,1695377075799,-0.060546875,-0.9702759,0.30389404,-1.984375,-0.375,0.328125,109
79,1695377075839,-0.053710938,-0.96759033,0.29486084,-2.515625,-2.09375,0.3125,110
80,1695377075879,-0.044921875,-0.9585571,0.2843628,-1.53125,-1.875,-1.59375,111
81,1695377075919,-0.068359375,-0.9692993,0.3139038,-1.03125,-2.453125,-1.640625,112
82,1695377075959,-0.052490234,-0.95562744,0.30023193,-1.890625,-2.171875,-1.5,113
83,1695377075999,-0.06225586,-0.9522095,0.32562256,-0.6875,-3.078125,-0.6875,114
84,1695377076039,-0.07055664,-0.97662354,0.2975464,-2.015625,-3.15625,-0.3125,115
85,1695377076079,-0.067871094,-0.9260864,0.32196045,-0.734375,0.46875,-1.328125,116
86,1695377076119,-0.1003418,-0.99224854,0.32855225,-0.1875,-2.125,0.109375,117
87,1695377076159,-0.076171875,-0.9246216,0.322937,1.03125,-0.6875,0.078125,118
88,1695377076199,-0.14648438,-0.9690552,0.2597046,-6.25,6.3125,5.125,119
89,1695377076239,-0.007080078,-0.9483032,0.29681396,-1.703125,0.203125,3.78125,120
90,1695377076279,-0.037597656,-0.9780884,0.32659912,-0.4375,-1.34375,0.359375,121
91,1695377076319,-0.02709961,-0.9636841,0.3114624,1.84375,-2.34375,-2.3125,122
92,1695377076359,-0.04272461,-0.9456177,0.30462646,2.5625,-2.578125,-0.984375,123
93,1695377076399,-0.087402344,-0.9817505,0.32635498,1.5625,-1.796875,1.09375,124
94,1695377076439,-0.068847656,-0.9517212,0.31243896,1.078125,0.546875,0.296875,125
95,1695377076479,-0.06689453,-0.9541626,0.3024292,0.171875,-0.40625,0.078125,126
96,1695377076519,-0.0625,-0.9651489,0.2975464,0.859375,-0.390625,-0.828125,127
97,1695377076559,-0.08081055,-0.9639282,0.29412842,1.578125,-1.34375,-0.671875,128
98,1695377076599,-0.068359375,-0.9619751,0.28167725,1.25,-0.546875,-1.125,129
99,1695377076639,-0.072021484,-0.9729614,0.2929077,-0.328125,-0.21875,-1.84375,130
100,1695377076679,-0.07128906,-0.9524536,0.27069092,-0.8125,-0.375,-2.3125,131
101,1695377076719,-0.068359375,-0.97198486,0.31854248,-1.296875,-1.546875,-2.75,132
102,1695377076759,-0.09301758,-0.942688,0.30218506,-3.125,-0.484375,-4.84375,133
103,1695377076799,-0.08666992,-0.9507446,0.3192749,-5.796875,2.46875,-4.75,134
104,1695377076839,-0.10424805,-0.9624634,0.40472412,-0.625,-0.96875,-1.96875,135
105,1695377076879,-0.125,-1.008606,0.355896,-2.625,2.375,1.828125,136
106,1695377076919,-0.08886719,-0.94122314,0.2897339,-1.328125,0.359375,2.671875,137
107,1695377076959,-0.07397461,-0.94903564,0.29803467,-1.359375,1.078125,4.890625,138
108,1695377076999,-0.05102539,-0.93878174,0.26190186,3.328125,-3.015625,4.21875,139
109,1695377077039,-0.0146484375,-0.91070557,0.24139404,3.21875,-2.953125,2.078125,140
110,1695377077079,-0.0703125,-0.9529419,0.2670288,1.65625,-3.78125,-0.328125,141
111,1695377077119,-0.0546875,-0.95977783,0.29730225,1.46875,-4.765625,1.015625,142
112,1695377077159,-0.092285156,-0.9834595,0.31414795,-0.0625,-4.765625,0.8125,143
113,1695377077199,-0.075683594,-0.9558716,0.30999756,-0.828125,-1.5625,-0.90625,144
114,1695377077239,-0.08886719,-0.9805298,0.31756592,-1.4375,0.671875,-0.171875,145
115,1695377077279,-0.05102539,-0.95147705,0.28656006,-0.609375,-1.015625,0.546875,146
116,1695377077319,-0.07739258,-0.9590454,0.29193115,0.4375,-1.34375,0.9375,147
117,1695377077359,-0.06225586,-0.95147705,0.29803467,0.890625,-2.890625,-0.109375,148
118,1695377077399,-0.08618164,-0.9524536,0.29656982,1.21875,-3.109375,0.171875,149
119,1695377077439,-0.07104492,-0.96343994,0.30804443,0.6875,-1.328125,-1.171875,150
120,1695377077479,-0.08300781,-0.97125244,0.30218506,-0.46875,-1.125,-0.953125,151
121,1695377077519,-0.053466797,-0.95880127,0.30413818,-0.15625,0.875,-2.28125,152
122,1695377077559,-0.046142578,-0.956604,0.34173584,-0.109375,-0.296875,-0.328125,153
123,1695377077599,0.014160156,-0.99176025,0.37347412,1.828125,-7.125,1.046875,154
124,1695377077639,-0.1809082,-0.99102783,0.27630615,7.625,-10.84375,1.953125,155
125,1695377077679,-0.19799805,-0.9116821,0.22357178,2.71875,-3.96875,1.359375,156
126,1695377077719,-0.07299805,-0.9627075,0.2218628,0.203125,-1.53125,1.640625,157
127,1695377077759,-0.091308594,-0.94317627,0.23309326,-1.109375,1.0,2.296875,158
128,1695377077799,-0.05078125,-0.9846802,0.2538452,-1.75,1.3125,-0.921875,159
129,1695377077839,-0.030029297,-0.95025635,0.27459717,-0.890625,1.953125,0.015625,160
130,1695377077879,-0.07128906,-1.0049438,0.2741089,-1.921875,1.109375,-1.515625,161
131,1695377077919,-0.07470703,-0.9668579,0.29559326,-0.140625,-0.328125,0.1875,162
132,1695377077959,-0.110839844,-0.96539307,0.28704834,-2.34375,1.078125,0.421875,163
133,1695377077999,-0.07495117,-0.9631958,0.29510498,-1.296875,0.171875,0.21875,164
134,1695377078039,-0.08959961,-0.9746704,0.27947998,-2.671875,-0.09375,0.9375,165
135,1695377078079,-0.036132812,-0.9529419,0.2838745,0.421875,-1.640625,0.640625,166
136,1695377078119,-0.08203125,-0.9714966,0.27069092,-2.046875,-1.578125,0.109375,167
137,1695377078159,-0.08129883,-0.9673462,0.29559326,-0.140625,0.015625,0.21875,168
138,1695377078199,-0.080078125,-0.97076416,0.29071045,-0.703125,-0.234375,0.4375,169
139,1695377078239,-0.087646484,-0.96710205,0.28851318,-2.15625,-0.46875,0.1875,170
140,1695377078279,-0.06347656,-0.97906494,0.28338623,-2.59375,0.6875,-0.390625,171
141,1695377078319,-0.052978516,-0.9529419,0.26849365,-1.6875,0.40625,0.53125,172
142,1695377078359,-0.076660156,-0.954895,0.29974365,0.3125,-0.09375,0.5625,173
143,1695377078399,-0.08642578,-0.975647,0.3012085,0.5625,-0.59375,0.578125,174
144,1695377078439,-0.05419922,-0.9644165,0.28533936,-0.84375,-0.5,0.078125,175
145,1695377078479,-0.088134766,-0.9656372,0.30877686,-0.125,-0.203125,0.46875,176
146,1695377078519,-0.0703125,-0.96173096,0.29559326,-0.984375,0.40625,-0.578125,177
147,1695377078559,-0.049804688,-0.9590454,0.2814331,0.0625,-1.234375,0.65625,178
148,1695377078599,-0.06738281,-0.97052,0.2855835,0.515625,-0.421875,0.375,179
149,1695377078639,-0.06347656,-0.958313,0.28070068,-0.234375,-1.15625,0.359375,180
150,1695377078679,-0.087890625,-0.97198486,0.26531982,-1.875,-0.546875,-0.390625,181
151,1695377078719,-0.052246094,-0.95318604,0.29193115,0.796875,-0.765625,-1.390625,182
152,1695377078759,-0.071777344,-0.97247314,0.2694702,-1.0,-0.4375,-0.4375,183
153,1695377078799,-0.076416016,-0.96417236,0.29852295,0.21875,-0.5,-0.21875,184
154,1695377078839,-0.0859375,-0.9859009,0.28900146,-0.703125,-0.53125,-0.1875,185
155,1695377078879,-0.0703125,-0.9483032,0.29608154,0.03125,-0.75,0.453125,186
156,1695377078919,-0.088134766,-0.9949341,0.29364014,-1.921875,1.828125,-0.515625,187
157,1695377078959,-0.07714844,-0.94122314,0.3053589,-2.3125,1.859375,1.171875,188
158,1695377078999,-0.06542969,-0.9817505,0.3036499,-2.53125,0.8125,-0.21875,189
159,1695377079039,-0.07446289,-0.9578247,0.2838745,-1.265625,-0.65625,-0.015625,190
160,1695377079079,-0.06982422,-0.9434204,0.26385498,0.109375,-2.703125,0.390625,191
161,1695377079119,-0.072509766,-0.9429321,0.23602295,4.734375,-9.28125,-1.625,192
162,1695377079159,-0.09790039,-0.9849243,0.3143921,1.875,-5.328125,-1.421875,193
163,1695377079199,-0.06298828,-0.9331665,0.2772827,-0.171875,-2.53125,0.390625,194
164,1695377079239,-0.04736328,-0.94195557,0.3258667,-0.875,-0.4375,-1.640625,195
165,1695377079279,-0.07421875,-0.98687744,0.26971436,-0.0625,0.5625,-3.0,196
166,1695377079319,-0.056640625,-0.97784424,0.27508545,-0.4375,1.25,0.3125,197
167,1695377079359,-0.1730957,-0.9968872,0.27972412,-2.046875,2.5,3.484375,198
168,1695377079399,-0.06982422,-0.93951416,0.2772827,-0.125,2.140625,0.0625,199
169,1695377079439,-0.06616211,-0.9627075,0.309021,-0.140625,0.765625,-0.765625,200
170,1695377079479,-0.08300781,-0.9697876,0.30560303,-0.796875,-3.625,0.0,201
171,1695377079519,-0.048583984,-0.9385376,0.2892456,-2.53125,-3.03125,-2.5,202
172,1695377079559,-0.088378906,-0.9639282,0.29388428,-0.640625,-5.25,0.046875,203
173,1695377079599,-0.0793457,-0.9697876,0.262146,-1.703125,-5.75,1.15625,204
174,1695377079639,-0.06762695,-0.93707275,0.29071045,1.1875,-5.796875,0.171875,205
175,1695377079679,-0.10595703,-0.9795532,0.28240967,0.0,-5.4375,3.546875,206
176,1695377079719,-0.05810547,-0.9468384,0.30633545,-0.640625,-4.015625,2.71875,207
177,1695377079759,-0.061767578,-0.97857666,0.29071045,-2.453125,-1.484375,2.046875,208
178,1695377079799,-0.04711914,-0.97198486,0.29241943,-1.0,-0.953125,0.65625,209
179,1695377079839,-0.07348633,-0.9314575,0.30926514,0.1875,-0.1875,-0.15625,210
180,1695377079879,-0.100097656,-0.9939575,0.3036499,-0.078125,-0.890625,0.265625,211
181,1695377079919,-0.110839844,-0.954895,0.2958374,-0.125,-0.53125,-0.71875,212
182,1695377079959,-0.072265625,-0.9697876,0.2843628,-0.609375,-0.34375,-1.859375,213
183,1695377079999,-0.0769043,-0.9402466,0.2694702,0.09375,-0.03125,-0.671875,214
184,1695377080039,-0.08496094,-0.9612427,0.2904663,-0.203125,0.34375,0.15625,215
185,1695377080079,-0.057861328,-0.96661377,0.29681396,-1.171875,0.21875,-0.109375,216
186,1695377080119,-0.09057617,-0.97735596,0.28289795,-1.609375,0.390625,0.046875,217
187,1695377080159,-0.07128906,-0.9380493,0.29412842,0.265625,-0.375,0.40625,218
188,1695377080199,-0.0690918,-0.9529419,0.28118896,-1.234375,0.21875,-0.46875,219
189,1695377080239,-0.09692383,-0.97857666,0.31195068,0.09375,-0.203125,0.25,220
190,1695377080279,-0.080078125,-0.9458618,0.2929077,-0.25,0.09375,0.046875,221
191,1695377080319,-0.0703125,-0.96343994,0.28460693,-0.921875,-0.28125,0.390625,222
192,1695377080359,-0.08105469,-0.97003174,0.29022217,-0.8125,-0.046875,-0.03125,223
193,1695377080399,-0.08129883,-0.96221924,0.28900146,-0.640625,-0.640625,0.15625,224
194,1695377080439,-0.068847656,-0.954895,0.30047607,-0.578125,-0.359375,0.234375,225
195,1695377080479,-0.091308594,-0.97003174,0.307312,-0.5,-0.609375,-0.046875,226
196,1695377080519,-0.0769043,-0.95806885,0.2946167,-0.578125,-0.75,0.828125,227
197,1695377080559,-0.0715332,-0.94244385,0.29071045,-0.484375,-0.515625,-0.5625,228
198,1695377080599,-0.0847168,-0.9817505,0.30047607,-0.71875,0.0,1.3125,229
199,1695377080639,-0.06713867,-0.9475708,0.2982788,-0.640625,-0.359375,0.34375,230
200,1695377080679,-0.076660156,-0.9807739,0.30584717,-0.625,-0.46875,0.484375,231
201,1695377080719,-0.0769043,-0.9561157,0.2855835,-0.96875,-0.484375,0.28125,232
202,1695377080759,-0.07006836,-0.9627075,0.30047607,-0.234375,-0.4375,0.0,233
203,1695377080799,-0.078125,-0.9534302,0.29534912,-0.515625,-0.53125,0.53125,234
204,1695377080839,-0.07788086,-0.9656372,0.29852295,-0.546875,-0.796875,-0.3125,235
205,1695377080879,-0.06689453,-0.96295166,0.30316162,-0.546875,0.0625,-0.25,236
206,1695377080919,-0.083740234,-0.956604,0.28997803,-0.21875,-0.625,-0.046875,237
207,1695377080959,-0.068603516,-0.960022,0.307312,0.484375,-0.3125,0.25,238
208,1695377080999,-0.064453125,-0.96539307,0.2999878,-2.421875,1.546875,0.359375,239
209,1695377081039,-0.095703125,-0.9573364,0.2850952,-1.046875,-1.265625,0.5625,240
210,1695377081079,-0.07006836,-0.9639282,0.28656006,-1.0,-0.796875,-0.09375,241
211,1695377081119,-0.06933594,-0.9734497,0.29315186,-0.1875,-0.390625,0.21875,242
212,1695377081159,-0.072021484,-0.9558716,0.29437256,0.078125,-0.703125,0.484375,243
213,1695377081199,-0.072753906,-0.958313,0.2958374,-0.09375,-0.09375,-0.0625,244
214,1695377081239,-0.072265625,-0.95928955,0.29193115,-0.796875,-0.28125,0.1875,245
215,1695377081279,-0.064697266,-0.96759033,0.29681396,-0.953125,-0.640625,-0.09375,246
216,1695377081319,-0.068847656,-0.96343994,0.30560303,-0.9375,-0.5625,-0.296875,247
217,1695377081359,-0.07299805,-0.95391846,0.29852295,-0.703125,-0.75,-0.421875,248
218,1695377081399,-0.080322266,-0.9663696,0.30633545,-0.828125,-0.78125,-0.296875,249
219,1695377081439,-0.07739258,-0.9624634,0.31781006,-1.96875,0.0625,0.375,250
220,1695377081479,-0.076171875,-0.9668579,0.30023193,-3.109375,1.25,-0.859375,251
221,1695377081519,-0.053955078,-0.9692993,0.3283081,-2.8125,0.265625,-1.03125,252
222,1695377081559,-0.09472656,-0.9439087,0.28533936,-2.734375,-1.234375,-0.84375,253
223,1695377081599,-0.07519531,-0.9607544,0.30975342,-1.296875,-1.15625,-0.28125,254
224,1695377081639,-0.0715332,-0.9573364,0.30950928,0.34375,-2.984375,0.40625,255
225,1695377081679,-0.09863281,-0.9558716,0.32440186,0.765625,-3.5,1.03125,256
226,1695377081719,-0.119628906,-0.989563,0.33343506,3.03125,-2.421875,1.078125,257
227,1695377081759,-0.033447266,-0.9036255,0.23382568,1.890625,1.59375,2.546875,258
228,1695377081799,-0.048095703,-0.9585571,0.28216553,0.484375,-2.46875,1.46875,259
229,1695377081839,-0.037353516,-0.9636841,0.28338623,0.03125,-3.5625,-0.890625,260
230,1695377081879,-0.061523438,-0.96343994,0.26678467,-0.515625,-0.78125,-0.234375,261
231,1695377081919,-0.06762695,-0.973938,0.29559326,-0.1875,-0.953125,-0.359375,262
232,1695377081959,-0.0690918,-0.9673462,0.29022217,-0.75,-1.453125,-0.453125,263
233,1695377081999,-0.076171875,-0.95928955,0.29193115,-0.890625,-1.171875,-0.65625,264
234,1695377082039,-0.07910156,-0.960022,0.2850952,-1.1875,-1.625,0.0625,265
235,1695377082079,-0.0949707,-0.9668579,0.30804443,-0.625,-1.296875,-0.09375,266
236,1695377082119,-0.08251953,-0.9692993,0.30682373,0.359375,-1.25,0.21875,267
237,1695377082159,-0.08862305,-0.96051025,0.30828857,0.125,-1.484375,-0.1875,268
238,1695377082199,-0.068359375,-0.960022,0.29779053,-0.328125,-1.15625,-0.015625,269
239,1695377082239,-0.08251953,-0.94976807,0.293396,-0.78125,-0.765625,0.5625,270
240,1695377082279,-0.064941406,-0.96759033,0.28729248,-0.84375,-0.390625,0.65625,271
241,1695377082319,-0.06933594,-0.97491455,0.2958374,-0.625,-0.6875,0.171875,272
242,1695377082359,-0.07763672,-0.9651489,0.2904663,-0.21875,-0.78125,0.234375,273
243,1695377082399,-0.06640625,-0.95025635,0.2909546,-1.015625,-0.28125,-0.265625,274
244,1695377082439,-0.06542969,-0.96466064,0.2814331,-1.328125,-0.03125,0.046875,275
245,1695377082479,-0.08251953,-0.96661377,0.29852295,-0.65625,-0.671875,0.09375,276
246,1695377082519,-0.08154297,-0.95562744,0.29534912,0.75,0.0625,-0.046875,277
247,1695377082559,-0.07080078,-0.9507446,0.309021,0.171875,0.578125,0.484375,278
248,1695377082599,-0.095458984,-0.95635986,0.322937,-0.53125,-0.875,0.515625,279
249,1695377082639,-0.057128906,-0.9590454,0.27825928,-0.75,-1.078125,-0.96875,280
250,1695377082679,-0.091796875,-0.9536743,0.30804443,0.796875,-0.4375,-0.421875,281
251,1695377082719,-0.07836914,-0.97003174,0.3024292,-0.84375,-0.109375,0.25,282
252,1695377082759,-0.08642578,-0.9463501,0.2987671,-1.140625,-1.171875,-0.0625,283
253,1695377082799,-0.06616211,-0.96954346,0.28997803,-0.8125,-0.546875,0.28125,284
254,1695377082839,-0.08300781,-0.96173096,0.2994995,-0.703125,-1.328125,0.296875,285
255,1695377082879,-0.059326172,-0.9429321,0.2946167,-0.53125,-0.296875,0.203125,286
256,1695377082919,-0.087646484,-0.9590454,0.29925537,-0.59375,-0.84375,0.515625,287
257,1695377082959,-0.060058594,-0.9702759,0.30218506,-0.890625,-0.953125,0.09375,288
258,1695377082999,-0.08618164,-0.9517212,0.29241943,-0.546875,-0.828125,-0.125,289
259,1695377083039,-0.078125,-0.9649048,0.30218506,-0.5,-0.234375,0.28125,290
260,1695377083079,-0.075927734,-0.9590454,0.2921753,-0.015625,-0.515625,0.3125,291
261,1695377083119,-0.072265625,-0.9612427,0.30340576,-0.421875,-0.640625,0.234375,292
262,1695377083159,-0.08154297,-0.96173096,0.30828857,-0.8125,-0.375,0.484375,293
263,1695377083199,-0.071777344,-0.9541626,0.28704834,-1.0,-1.328125,0.53125,294
264,1695377083239,-0.063964844,-0.9710083,0.2929077,-0.984375,-0.578125,-0.5625,295
265,1695377083279,-0.076660156,-0.9602661,0.28778076,-1.390625,0.796875,0.328125,296
266,1695377083319,-0.08935547,-0.9595337,0.30316162,-1.09375,-0.53125,0.15625,297
267,1695377083359,-0.0715332,-0.96343994,0.2975464,-0.09375,-0.828125,0.296875,298
268,1695377083399,-0.07373047,-0.9434204,0.28656006,-0.140625,-1.140625,0.0625,299
269,1695377083439,-0.07788086,-0.9812622,0.31195068,0.046875,-2.109375,-0.359375,300
270,1695377083479,-0.07397461,-0.96221924,0.28875732,-0.484375,-0.90625,0.125,301
271,1695377083519,-0.06201172,-0.9553833,0.30096436,0.15625,-0.734375,0.21875,302
272,1695377083559,-0.07128906,-0.9697876,0.29486084,-0.71875,-0.390625,0.28125,303
273,1695377083599,-0.0793457,-0.9546509,0.29803467,-0.5,-0.578125,-0.03125,304
274,1695377083639,-0.091308594,-0.96051025,0.31072998,-0.3125,-0.875,-0.09375,305
275,1695377083679,-0.072753906,-0.96221924,0.29559326,-0.796875,-0.46875,-0.09375,306
276,1695377083719,-0.076416016,-0.9585571,0.30145264,-0.25,-0.453125,0.21875,307
277,1695377083759,-0.06982422,-0.9661255,0.2946167,-0.0625,-0.6875,0.15625,308
278,1695377083799,-0.06567383,-0.95880127,0.29437256,-0.4375,-0.25,0.484375,309
279,1695377083839,-0.08081055,-0.97369385,0.30096436,-1.015625,-0.5,0.734375,310
280,1695377083879,-0.072265625,-0.96759033,0.27630615,-1.140625,0.96875,1.96875,311
281,1695377083919,-0.06347656,-0.9446411,0.29071045,0.171875,0.53125,1.359375,312
282,1695377083959,-0.07348633,-0.96051025,0.31072998,0.15625,-0.21875,1.578125,313
283,1695377083999,-0.07128906,-0.9624634,0.3168335,-0.265625,0.046875,0.15625,314
284,1695377084039,-0.08105469,-0.9602661,0.3007202,-0.015625,-1.75,0.671875,315
285,1695377084079,-0.046142578,-0.95977783,0.28485107,-0.75,-0.84375,-0.78125,316
286,1695377084119,-0.057373047,-0.9585571,0.29632568,0.046875,-0.828125,-0.0625,317
287,1695377084159,-0.05444336,-0.9631958,0.2880249,-0.78125,-1.0,-0.546875,318
288,1695377084199,-0.07739258,-0.9717407,0.29779053,-0.59375,-1.53125,0.03125,319
289,1695377084239,-0.07861328,-0.9619751,0.28167725,-0.296875,-0.921875,0.0,320
290,1695377084279,-0.06982422,-0.973938,0.28900146,-0.171875,-1.28125,-0.15625,321
291,1695377084319,-0.08105469,-0.95391846,0.2868042,-0.4375,-0.875,0.171875,322
292,1695377084359,-0.057617188,-0.958313,0.28167725,-0.4375,-0.359375,0.015625,323
293,1695377084399,-0.061523438,-0.95806885,0.30291748,-0.484375,-0.84375,1.828125,324
294,1695377084439,-0.09106445,-0.9788208,0.30096436,-0.4375,-1.453125,0.78125,325
295,1695377084479,-0.056396484,-0.96417236,0.28289795,-0.78125,-1.328125,0.09375,326
296,1695377084519,-0.07006836,-0.9614868,0.29852295,-0.65625,-1.453125,-0.140625,327
297,1695377084559,-0.049072266,-0.9561157,0.29241943,-0.921875,-0.984375,-0.0625,328
298,1695377084599,-0.052490234,-0.9673462,0.29632568,-0.578125,-0.890625,0.15625,329
299,1695377084639,-0.05029297,-0.956604,0.2970581,-1.078125,-0.34375,0.34375,330
300,1695377084679,-0.07299805,-0.96051025,0.3007202,-1.484375,-1.546875,1.484375,331
301,1695377084719,-0.051757812,-0.960022,0.2789917,-2.15625,-1.578125,1.3125,332
302,1695377084759,-0.07519531,-0.96759033,0.29901123,-0.03125,-3.296875,2.1875,333
303,1695377084799,-0.06982422,-0.96832275,0.3139038,0.375,-1.859375,0.265625,334
304,1695377084839,-0.059814453,-0.9529419,0.2909546,0.84375,-1.5625,0.171875,335
305,1695377084879,-0.060058594,-0.95880127,0.2814331,0.171875,-1.25,-0.296875,336
306,1695377084919,-0.056884766,-0.94976807,0.30218506,0.109375,-0.484375,-0.234375,337
307,1695377084959,-0.06982422,-0.96417236,0.3139038,0.234375,-1.03125,0.21875,338
308,1695377084999,-0.04663086,-0.9541626,0.27801514,-1.15625,-0.484375,0.46875,339
309,1695377085039,-0.06958008,-0.9768677,0.29730225,-0.671875,-1.140625,-0.625,340
310,1695377085079,-0.061035156,-0.9651489,0.30950928,0.0,-0.984375,0.15625,341
311,1695377085119,-0.0793457,-0.97735596,0.2831421,-0.65625,-1.34375,-1.203125,342
312,1695377085159,-0.046875,-0.9505005,0.28900146,0.140625,-0.109375,0.484375,343
313,1695377085199,-0.07788086,-0.9805298,0.29510498,-0.5625,0.015625,-0.296875,344
314,1695377085239,-0.072021484,-0.9512329,0.29730225,-0.546875,-1.09375,0.25,345
315,1695377085279,-0.059814453,-0.98565674,0.29779053,-0.296875,-0.671875,-0.578125,346
316,1695377085319,-0.059326172,-0.9546509,0.29241943,-0.25,-0.40625,0.515625,347
317,1695377085359,-0.068115234,-0.95684814,0.29193115,-0.640625,0.15625,-0.25,348
318,1695377085399,-0.06518555,-0.954895,0.2843628,-0.6875,-0.5,0.8125,349
319,1695377085439,-0.06225586,-0.95513916,0.29681396,-0.734375,-0.015625,-0.171875,350
320,1695377085479,-0.05053711,-0.9763794,0.2892456,-0.921875,-0.015625,-0.078125,351
321,1695377085519,-0.067871094,-0.9663696,0.29925537,-0.5,-0.484375,-0.09375,352
322,1695377085559,-0.053222656,-0.96588135,0.2838745,-1.234375,0.203125,-0.28125,353
323,1695377085599,-0.0703125,-0.9602661,0.29656982,0.0,-0.265625,0.453125,354
324,1695377085639,-0.0703125,-0.96466064,0.29559326,0.0625,-1.03125,-0.0625,355
325,1695377085679,-0.050048828,-0.9627075,0.29803467,-1.046875,-1.34375,0.078125,356
326,1695377085719,-0.0703125,-0.95928955,0.29486084,-1.515625,-1.890625,0.171875,357
327,1695377085759,-0.06738281,-0.97320557,0.30682373,-2.09375,-0.75,-0.25,358
328,1695377085799,-0.04736328,-0.97052,0.31488037,-1.609375,-0.125,-0.0625,359
329,1695377085839,-0.08862305,-0.9421997,0.2748413,0.421875,-2.015625,-0.3125,360
330,1695377085879,-0.056640625,-0.9627075,0.29022217,-0.25,-0.40625,0.078125,361
331,1695377085919,-0.06591797,-0.96588135,0.2904663,0.078125,-1.125,0.578125,362
332,1695377085959,-0.06542969,-0.9663696,0.29486084,0.078125,-1.71875,0.34375,363
333,1695377085999,-0.039794922,-0.95880127,0.28533936,-0.84375,-1.65625,0.765625,364
334,1695377086039,-0.06762695,-0.9631958,0.2765503,0.609375,-1.984375,0.9375,365
335,1695377086079,-0.05834961,-0.96466064,0.29852295,0.234375,-1.09375,0.625,366
336,1695377086119,-0.08300781,-0.9729614,0.2982788,0.34375,-1.4375,0.15625,367
337,1695377086159,-0.06274414,-0.9553833,0.28533936,0.03125,-0.359375,0.09375,368
338,1695377086199,-0.0637207,-0.97784424,0.30291748,0.171875,-1.53125,-0.15625,369
339,1695377086239,-0.06518555,-0.9673462,0.293396,-1.109375,0.03125,-0.421875,370
340,1695377086279,-0.075927734,-0.9661255,0.2831421,-0.171875,-1.15625,-0.015625,371
341,1695377086319,-0.045898438,-0.9500122,0.28338623,-0.046875,0.125,0.21875,372
342,1695377086359,-0.0871582,-0.9873657,0.2958374,-0.234375,-0.40625,0.203125,373
343,1695377086399,-0.036132812,-0.97052,0.2946167,-0.046875,-1.09375,0.078125,374
344,1695377086439,-0.08959961,-0.95928955,0.28875732,-0.0625,-0.328125,-0.34375,375
345,1695377086479,-0.057128906,-0.94317627,0.28704834,-0.390625,-0.859375,0.390625,376
346,1695377086519,-0.057861328,-0.97735596,0.30340576,-0.875,-0.59375,-0.40625,377
347,1695377086559,-0.06640625,-0.9627075,0.29364014,-1.40625,-1.078125,0.984375,378
348,1695377086599,-0.068115234,-0.95025635,0.2909546,0.078125,-0.390625,-0.3125,379
349,1695377086639,-0.08300781,-0.97369385,0.29779053,0.578125,1.046875,0.484375,380
350,1695377086679,-0.060546875,-0.95562744,0.28240967,0.90625,1.078125,-2.8125,381
351,1695377086719,-0.049560547,-0.95513916,0.28631592,-0.109375,-0.109375,-0.53125,382
352,1695377086759,-0.06640625,-0.97320557,0.29388428,-0.265625,-1.03125,0.34375,383
353,1695377086799,-0.056396484,-0.97003174,0.29315186,-0.6875,-1.03125,-0.125,384
354,1695377086839,-0.064697266,-0.96661377,0.2904663,-0.328125,-1.765625,-0.421875,385
355,1695377086879,-0.06591797,-0.956604,0.28485107,-0.390625,-1.328125,0.546875,386
356,1695377086919,-0.059814453,-0.95758057,0.2909546,-0.828125,-1.1875,-0.1875,387
357,1695377086959,-0.072509766,-0.9824829,0.28826904,-0.625,-1.15625,-0.078125,388
358,1695377086999,-0.07006836,-0.9607544,0.26898193,-0.4375,-0.890625,0.09375,389
359,1695377087039,-0.09375,-0.97003174,0.27752686,-0.5,-0.65625,-0.09375,390
360,1695377087079,-0.05102539,-0.9624634,0.2958374,-0.59375,0.34375,-0.4375,391
361,1695377087119,-0.0690918,-0.96710205,0.28045654,-1.421875,-0.015625,-0.140625,392
362,1695377087159,-0.068847656,-0.9619751,0.29364014,-0.484375,-0.15625,-0.6875,393
363,1695377087199,-0.06225586,-0.9546509,0.30145264,0.765625,-0.375,0.375,394
364,1695377087239,-0.072021484,-0.96832275,0.28826904,-0.546875,-0.203125,0.453125,395
365,1695377087279,-0.063964844,-0.9590454,0.2843628,-0.421875,-0.09375,0.375,396
366,1695377087319,-0.07055664,-0.96417236,0.2946167,0.203125,-0.78125,0.421875,397
367,1695377087359,-0.06982422,-0.960022,0.28851318,-0.609375,-0.203125,0.765625,398
368,1695377087399,-0.06567383,-0.9614868,0.28997803,-0.5,0.171875,0.328125,399
369,1695377087439,-0.084228516,-0.972229,0.29803467,-0.484375,-0.109375,-0.0625,400
370,1695377087479,-0.052734375,-0.9651489,0.2819214,-0.828125,0.5625,-0.578125,401
371,1695377087519,-0.06591797,-0.9678345,0.29364014,0.046875,-0.484375,-0.375,402
372,1695377087559,-0.060302734,-0.9680786,0.28729248,-0.03125,-0.453125,-0.9375,403
373,1695377087599,-0.07861328,-0.95806885,0.28875732,-0.46875,-0.484375,-0.28125,404
374,1695377087639,-0.06225586,-0.9573364,0.28656006,-0.9375,-0.6875,0.21875,405
375,1695377087679,-0.080322266,-0.95880127,0.27923584,-1.0625,-1.875,0.0625,406
376,1695377087719,-0.08691406,-0.97003174,0.29193115,-1.640625,-1.84375,-0.390625,407
377,1695377087759,-0.057861328,-0.9651489,0.26556396,-1.875,-1.5,0.25,408
378,1695377087799,-0.05859375,-0.94537354,0.28997803,-0.890625,0.0,-0.59375,409
379,1695377087839,-0.09838867,-1.000061,0.2904663,-0.453125,-1.359375,0.484375,410
380,1695377087879,-0.040527344,-0.9336548,0.2814331,-0.0625,-0.421875,0.375,411
381,1695377087919,-0.07421875,-0.9783325,0.2994995,0.15625,0.140625,0.0625,412
382,1695377087959,-0.071777344,-0.96099854,0.28656006,-0.796875,-0.09375,0.46875,413
383,1695377087999,-0.0637207,-0.96588135,0.29119873,-0.375,-0.359375,-0.1875,414
384,1695377088039,-0.06958008,-0.9678345,0.3065796,-0.078125,-0.265625,0.0625,415
385,1695377088079,-0.064208984,-0.9573364,0.28485107,-0.53125,-0.171875,-0.078125,416
386,1695377088119,-0.08105469,-0.9692993,0.2868042,-0.828125,-0.890625,0.125,417
387,1695377088159,-0.057373047,-0.95977783,0.2904663,-0.125,-1.09375,-0.46875,418
388,1695377088199,-0.0871582,-0.9697876,0.28607178,-0.4375,-0.890625,-0.09375,419
389,1695377088239,-0.060302734,-0.96173096,0.28070068,0.046875,0.171875,-0.21875,420
390,1695377088279,-0.07885742,-0.9902954,0.2880249,2.78125,0.453125,0.96875,421
391,1695377088319,-0.04638672,-0.9553833,0.28656006,1.71875,0.484375,-0.125,422
392,1695377088359,-0.072509766,-0.9673462,0.29656982,0.90625,-2.15625,0.046875,423
393,1695377088399,-0.08178711,-0.95025635,0.27386475,-0.09375,-2.234375,-0.4375,424
394,1695377088439,-0.0859375,-0.987854,0.2802124,-0.4375,-1.78125,0.546875,425
395,1695377088479,-0.07104492,-0.9644165,0.27825928,0.015625,-1.8125,0.46875,426
396,1695377088519,-0.07055664,-0.95928955,0.26531982,-1.453125,-1.296875,0.546875,427
397,1695377088559,-0.07519531,-0.96051025,0.28118896,-0.46875,-1.21875,0.265625,428
398,1695377088599,-0.07348633,-0.97979736,0.30194092,-0.515625,-1.40625,-0.09375,429
399,1695377088639,-0.06591797,-0.96051025,0.293396,0.046875,-2.0625,-0.328125,430
400,1695377088679,-0.052978516,-0.956604,0.277771,-0.28125,0.328125,-0.484375,431
401,1695377088719,-0.072509766,-0.96539307,0.28118896,0.46875,-0.8125,0.53125,432
402,1695377088759,-0.068115234,-0.95806885,0.2880249,-0.078125,-2.140625,1.140625,433
403,1695377088799,-0.06640625,-0.9710083,0.28118896,-0.8125,-1.75,0.109375,434
404,1695377088839,-0.079589844,-0.9690552,0.27581787,-0.46875,-1.296875,0.390625,435
405,1695377088879,-0.075927734,-0.97369385,0.2682495,-0.78125,-0.484375,-0.1875,436
406,1695377088919,-0.061523438,-0.96417236,0.28411865,-0.40625,-0.609375,0.09375,437
407,1695377088959,-0.0690918,-0.9614868,0.28216553,-1.4375,-1.1875,-0.390625,438
408,1695377088999,-0.091552734,-0.9649048,0.29071045,-0.453125,-1.34375,0.15625,439
409,1695377089039,-0.046142578,-0.95562744,0.2772827,-0.734375,0.15625,0.15625,440
410,1695377089079,-0.09887695,-0.99468994,0.2929077,-0.609375,-1.59375,0.5,441
411,1695377089119,-0.057373047,-0.95684814,0.27459717,-0.40625,0.0,0.21875,442
412,1695377089159,-0.06323242,-0.9644165,0.277771,-0.078125,-0.90625,0.078125,443
413,1695377089199,-0.05444336,-0.96759033,0.2699585,-0.078125,0.625,0.3125,444
414,1695377089239,-0.068847656,-0.9373169,0.27874756,0.84375,1.4375,0.5625,445
415,1695377089279,-0.06347656,-0.98394775,0.31097412,2.5,-0.625,0.203125,446
416,1695377089319,-0.10180664,-0.987854,0.27459717,-0.78125,-0.21875,2.046875,447
417,1695377089359,-0.07324219,-0.94659424,0.25628662,-0.65625,-1.609375,-0.09375,448
418,1695377089399,-0.05883789,-0.9729614,0.2789917,0.09375,-0.828125,-1.09375,449
419,1695377089439,-0.053222656,-0.97052,0.27288818,-0.8125,-0.203125,-0.4375,450
420,1695377089479,-0.052734375,-0.9578247,0.2711792,-1.171875,-0.921875,-0.578125,451
421,1695377089519,-0.07104492,-0.97076416,0.2682495,-0.765625,-2.21875,-0.703125,452
422,1695377089559,-0.048095703,-0.960022,0.27850342,-0.03125,-0.984375,-0.875,453
423,1695377089599,-0.09350586,-0.9807739,0.29119873,0.125,-1.734375,0.4375,454
424,1695377089639,-0.08227539,-0.95440674,0.26605225,-0.328125,-0.703125,0.796875,455
425,1695377089679,-0.068603516,-0.96832275,0.27386475,0.796875,-0.828125,-0.25,456
426,1695377089719,-0.052734375,-0.9702759,0.25897217,0.265625,-0.6875,-0.328125,457
427,1695377089759,-0.061279297,-0.9685669,0.26898193,-0.078125,-0.234375,-0.1875,458
428,1695377089799,-0.083984375,-0.99176025,0.30169678,-0.703125,0.296875,-0.84375,459
429,1695377089839,-0.08984375,-0.9883423,0.27044678,0.515625,1.421875,-3.8125,460
430,1695377089879,-0.08935547,-0.9595337,0.2765503,1.859375,0.203125,-6.265625,461
431,1695377089919,-0.07080078,-0.9187622,0.25579834,-0.53125,0.046875,-0.46875,462
432,1695377089959,-0.07861328,-1.0010376,0.29193115,-0.5625,-6.375,-1.046875,463
433,1695377089999,-0.099609375,-0.98223877,0.29730225,-0.40625,-3.171875,-1.09375,464
434,1695377090039,-0.031982422,-0.913147,0.23944092,-2.40625,-2.4375,5.203125,465
435,1695377090079,-0.11743164,-1.0193481,0.2765503,-1.78125,-2.796875,5.0625,466
436,1695377090119,-0.08203125,-0.9351196,0.25335693,0.140625,-0.65625,0.28125,467
437,1695377090159,-0.08911133,-0.954895,0.26361084,2.171875,-0.875,2.0625,468
438,1695377090199,-0.072509766,-0.9854126,0.25750732,-0.1875,1.46875,0.1875,469
439,1695377090239,-0.04321289,-0.97003174,0.25579834,-0.671875,0.203125,1.21875,470
440,1695377090279,-0.08276367,-0.98565674,0.28118896,-1.015625,0.484375,0.484375,471
441,1695377090319,-0.072509766,-0.9639282,0.25750732,-0.984375,0.53125,-0.125,472
442,1695377090359,-0.07885742,-0.9668579,0.27020264,-1.53125,0.203125,-0.125,473
443,1695377090399,-0.08520508,-0.9668579,0.276062,-1.109375,-0.71875,0.421875,474
444,1695377090439,-0.048095703,-0.94537354,0.2687378,-1.28125,0.015625,0.859375,475
445,1695377090479,-0.068359375,-0.9727173,0.27142334,-0.453125,-1.109375,1.59375,476
446,1695377090519,-0.068847656,-0.9644165,0.26849365,-0.015625,-0.640625,0.203125,477
447,1695377090559,-0.05517578,-0.9729614,0.2802124,0.6875,-1.328125,0.8125,478
448,1695377090599,-0.060058594,-0.96539307,0.26605225,-0.9375,-0.828125,-1.875,479
449,1695377090639,-0.05517578,-0.95025635,0.27508545,0.78125,-1.21875,-2.0625,480
450,1695377090679,-0.063964844,-0.9685669,0.26263428,-0.28125,-1.6875,-3.265625,481
451,1695377090719,-0.10839844,-0.96881104,0.27093506,-0.03125,-0.796875,-0.90625,482
452,1695377090759,-0.09692383,-0.9973755,0.26483154,-0.546875,0.390625,0.265625,483
453,1695377090799,-0.0859375,-0.9561157,0.2218628,-2.265625,1.890625,0.484375,484
454,1695377090839,-0.099853516,-0.9932251,0.25286865,-0.390625,0.15625,0.734375,485
455,1695377090879,-0.08520508,-0.9963989,0.23577881,-1.703125,0.34375,0.53125,486
456,1695377090919,-0.051513672,-0.956604,0.24481201,-1.734375,-0.640625,3.046875,487
457,1695377090959,-0.0769043,-0.975647,0.2489624,-2.75,-0.53125,-0.546875,488
458,1695377090999,-0.021240234,-0.89385986,0.29534912,1.1875,-2.34375,-1.671875,489
459,1695377091039,-0.1081543,-1.0117798,0.340271,2.03125,-2.734375,-3.125,490
460,1695377091079,-0.046142578,-0.97662354,0.28070068,-0.03125,0.25,0.71875,491
461,1695377091119,-0.09057617,-0.9854126,0.27801514,-1.328125,-0.171875,4.28125,492
462,1695377091159,-0.0769043,-0.97613525,0.25823975,-4.046875,0.0625,2.25,493
463,1695377091199,-0.08496094,-0.94854736,0.23895264,-3.5625,0.25,2.78125,494
464,1695377091239,-0.05078125,-0.95269775,0.26239014,-2.21875,2.515625,0.59375,495
465,1695377091279,-0.08618164,-0.99664307,0.28070068,-1.59375,-0.25,1.3125,496
466,1695377091319,-0.049560547,-0.96295166,0.28240967,-1.65625,-0.234375,-0.40625,497
467,1695377091359,-0.07324219,-0.9668579,0.30169678,-1.203125,-1.140625,-0.34375,498
468,1695377091399,-0.04638672,-0.9463501,0.29071045,-1.21875,0.171875,0.46875,499
469,1695377091439,-0.06323242,-0.96221924,0.30975342,-0.578125,-0.890625,1.203125,500
470,1695377091479,-0.048095703,-0.9714966,0.28900146,-0.0625,0.171875,0.34375,501
471,1695377091519,-0.05102539,-0.9661255,0.28240967,0.90625,-0.78125,-0.8125,502
472,1695377091559,-0.072265625,-0.97320557,0.2616577,2.234375,-0.6875,-3.78125,503
473,1695377091599,-0.06542969,-0.9668579,0.27679443,2.03125,0.453125,-4.921875,504
474,1695377091639,-0.048828125,-0.9500122,0.2802124,2.359375,-2.828125,0.953125,505
475,1695377091679,-0.10473633,-0.99346924,0.2723999,2.75,-1.484375,-0.734375,506
476,1695377091719,-0.059814453,-0.9612427,0.29022217,2.5625,-3.453125,0.546875,507
477,1695377091759,-0.087890625,-0.99713135,0.28753662,1.484375,-3.921875,0.796875,508
478,1695377091799,-0.07714844,-0.9492798,0.25115967,1.09375,-5.109375,0.375,509
479,1695377091839,-0.040527344,-0.96759033,0.2506714,-1.03125,-5.65625,1.1875,510
480,1695377091879,-0.07910156,-0.9734497,0.2802124,-3.734375,-3.046875,2.421875,511
481,1695377091919,-0.07885742,-0.96221924,0.2387085,-2.328125,-1.046875,0.6875,512
482,1695377091959,-0.07446289,-0.96539307,0.24700928,-2.421875,-0.328125,2.0625,513
483,1695377091999,-0.0793457,-0.96051025,0.2526245,-0.796875,-0.0625,0.546875,514
484,1695377092039,-0.060302734,-0.9702759,0.26068115,-0.828125,-0.296875,0.21875,515
485,1695377092079,-0.06982422,-0.96221924,0.2819214,-0.828125,-0.71875,0.296875,516
486,1695377092119,-0.07080078,-0.97198486,0.28411865,-0.71875,-0.453125,0.09375,517
487,1695377092159,-0.06591797,-0.9644165,0.28216553,-0.890625,-0.625,0.34375,518
488,1695377092199,-0.059814453,-0.9661255,0.27801514,-0.734375,-0.578125,0.0625,519
489,1695377092239,-0.079833984,-0.9651489,0.26239014,-2.09375,-2.03125,0.484375,520
490,1695377092279,-0.03955078,-0.9690552,0.26385498,-1.4375,-1.046875,0.328125,521
491,1695377092319,-0.06518555,-0.9763794,0.25946045,-1.828125,-0.5625,-0.03125,522
492,1695377092359,-0.068115234,-0.96295166,0.26605225,-0.453125,-0.5,0.125,523
493,1695377092399,-0.06323242,-0.97540283,0.27288818,0.078125,-0.109375,-0.203125,524
494,1695377092439,-0.061035156,-0.9656372,0.27313232,-1.1875,-0.5,0.328125,525
495,1695377092479,-0.068847656,-0.95440674,0.27459717,-0.578125,-0.40625,-0.546875,526
496,1695377092519,-0.061767578,-0.973938,0.27850342,-0.953125,-0.25,0.046875,527
497,1695377092559,-0.072509766,-0.9763794,0.2765503,-0.78125,-0.71875,-0.078125,528
498,1695377092599,-0.07446289,-0.96295166,0.27972412,-0.078125,-1.03125,-0.265625,529
499,1695377092639,-0.06958008,-0.9741821,0.2765503,0.25,-1.046875,-0.375,530
500,1695377092679,-0.06591797,-0.9553833,0.27801514,-0.328125,-0.796875,-0.15625,531
501,1695377092719,-0.06616211,-0.97979736,0.25457764,-1.484375,-0.984375,-0.03125,532
502,1695377092759,-0.05078125,-0.9558716,0.2802124,-0.59375,-0.78125,1.03125,533
503,1695377092799,-0.09472656,-0.99664307,0.2682495,-1.328125,-0.125,-0.296875,534
504,1695377092839,-0.057861328,-0.9434204,0.2831421,0.015625,-0.765625,0.625,535
505,1695377092879,-0.0715332,-0.991272,0.27801514,-0.46875,-0.859375,-0.625,536
506,1695377092919,-0.040771484,-0.95806885,0.27874756,-0.546875,-0.34375,0.1875,537
507,1695377092959,-0.08935547,-0.9680786,0.27508545,-0.171875,-0.59375,-0.21875,538
508,1695377092999,-0.072509766,-0.96710205,0.2765503,-0.546875,-0.609375,0.3125,539
509,1695377093039,-0.0715332,-0.9685669,0.27508545,-0.453125,-0.515625,-0.046875,540
510,1695377093079,-0.076660156,-0.9663696,0.27557373,-0.75,-0.515625,-0.359375,541
511,1695377093119,-0.07910156,-0.9612427,0.29144287,0.46875,-1.65625,0.0,542
512,1695377093159,-0.053466797,-0.97442627,0.2802124,-3.09375,1.53125,-0.9375,543
513,1695377093199,-0.08129883,-0.99224854,0.31195068,-1.828125,0.015625,-0.46875,544
514,1695377093239,-0.06201172,-0.9421997,0.24481201,-0.359375,-0.578125,1.25,545
515,1695377093279,-0.07373047,-0.95318604,0.28167725,1.53125,-2.765625,0.5,546
516,1695377093319,-0.05444336,-0.975647,0.2711792,0.125,-2.53125,0.640625,547
517,1695377093359,-0.08227539,-0.9475708,0.27850342,0.125,-2.3125,0.296875,548
518,1695377093399,-0.055419922,-0.96954346,0.24969482,-2.265625,-2.125,-0.796875,549
519,1695377093439,-0.08300781,-0.9678345,0.29071045,-1.296875,-2.421875,-0.453125,550
520,1695377093479,-0.06689453,-0.9612427,0.27215576,-0.5,-1.765625,-0.109375,551
521,1695377093519,-0.06542969,-0.98150635,0.26898193,-0.828125,-0.71875,0.078125,552
522,1695377093559,-0.075683594,-0.9595337,0.26678467,0.15625,-0.921875,0.390625,553
523,1695377093599,-0.07324219,-0.97125244,0.2711792,-0.84375,-0.46875,0.078125,554
524,1695377093639,-0.07324219,-0.96759033,0.2838745,-0.109375,-0.359375,0.390625,555
525,1695377093679,-0.095214844,-0.9841919,0.28045654,-1.15625,0.59375,0.421875,556
526,1695377093719,-0.04736328,-0.93585205,0.26776123,-0.28125,0.984375,0.265625,557
527,1695377093759,-0.06689453,-0.97320557,0.26849365,-0.765625,-0.4375,0.828125,558
528,1695377093799,-0.052001953,-0.9570923,0.2699585,-0.703125,-0.296875,0.359375,559
529,1695377093839,-0.06225586,-0.96295166,0.28118896,-0.4375,-0.40625,0.015625,560
530,1695377093879,-0.07519531,-0.958313,0.28045654,-0.75,-0.453125,0.25,561
531,1695377093919,-0.06713867,-0.94366455,0.27459717,-0.296875,-0.390625,-0.453125,562
532,1695377093959,-0.061523438,-0.9729614,0.26434326,-0.625,-0.640625,-0.125,563
533,1695377093999,-0.071777344,-0.9614868,0.2958374,-0.453125,-0.921875,-0.453125,564
534,1695377094039,-0.07128906,-0.972229,0.2675171,-1.4375,-0.3125,-1.140625,565
535,1695377094079,-0.07739258,-0.960022,0.293396,0.265625,-1.390625,0.078125,566
536,1695377094119,-0.0703125,-0.9678345,0.26898193,-1.046875,-0.75,-0.234375,567
537,1695377094159,-0.06982422,-0.9553833,0.29437256,-0.03125,-1.359375,0.046875,568
538,1695377094199,-0.059570312,-0.97369385,0.2789917,-1.234375,-0.140625,0.46875,569
539,1695377094239,-0.07446289,-0.96295166,0.2772827,-0.96875,-1.203125,0.515625,570
540,1695377094279,-0.0625,-0.96417236,0.2748413,-0.5625,0.5625,0.78125,571
541,1695377094319,-0.07543945,-0.9578247,0.2772827,0.421875,-0.71875,1.71875,572
542,1695377094359,-0.079833984,-0.97247314,0.28631592,0.28125,-1.46875,0.296875,573
543,1695377094399,-0.043701172,-0.94976807,0.26922607,-0.984375,0.015625,-0.34375,574
544,1695377094439,-0.067871094,-0.99224854,0.28363037,-0.53125,-0.796875,-0.171875,575
545,1695377094479,-0.05859375,-0.9585571,0.28118896,-0.703125,-0.765625,0.078125,576
546,1695377094519,-0.059570312,-0.97052,0.28118896,-0.078125,-0.875,-0.15625,577
547,1695377094559,-0.071777344,-0.9673462,0.27752686,0.390625,-0.171875,0.203125,578
548,1695377094599,-0.06542969,-0.9578247,0.27166748,-0.0625,-0.4375,-0.171875,579
549,1695377094639,-0.07763672,-0.9841919,0.2789917,0.078125,-1.09375,0.046875,580
550,1695377094679,-0.063964844,-0.96417236,0.27508545,0.125,-1.046875,-0.25,581
551,1695377094719,-0.068359375,-0.9636841,0.27801514,-0.671875,-0.84375,0.078125,582
552,1695377094759,-0.07543945,-0.9685669,0.27044678,-0.265625,-0.859375,0.59375,583
553,1695377094799,-0.068847656,-0.97784424,0.27142334,-0.640625,-0.96875,0.421875,584
554,1695377094839,-0.030517578,-0.9619751,0.2772827,-0.03125,-0.640625,0.09375,585
555,1695377094879,-0.08325195,-0.97003174,0.2658081,-1.21875,-0.40625,0.109375,586
556,1695377094919,-0.056640625,-0.9649048,0.26849365,-0.125,-0.6875,0.078125,587
557,1695377094959,-0.068359375,-0.9685669,0.27703857,-0.015625,-0.609375,-0.125,588
558,1695377094999,-0.06274414,-0.9656372,0.2831421,-0.734375,-0.546875,-0.03125,589
559,1695377095039,-0.08496094,-0.9661255,0.27825928,-1.5625,0.421875,0.109375,590
560,1695377095079,-0.08496094,-0.97003174,0.27679443,-2.25,1.375,1.53125,591
561,1695377095119,-0.06542969,-0.94366455,0.26483154,-0.46875,-1.203125,0.71875,592
562,1695377095159,-0.06323242,-0.97125244,0.29730225,-0.8125,-0.875,0.28125,593
563,1695377095199,-0.03540039,-0.9649048,0.27923584,-0.28125,-0.71875,-0.21875,594
564,1695377095239,-0.064453125,-0.96954346,0.277771,0.03125,-1.34375,0.0,595
565,1695377095279,-0.03930664,-0.9517212,0.26849365,-0.734375,-0.890625,-0.46875,596
566,1695377095319,-0.06591797,-0.9685669,0.28216553,-0.734375,-1.984375,0.984375,597
567,1695377095359,-0.05419922,-0.9631958,0.26849365,-1.34375,-1.078125,-0.015625,598
568,1695377095399,-0.0793457,-0.98150635,0.28118896,-0.390625,-1.9375,0.140625,599
569,1695377095439,-0.07739258,-0.9631958,0.27850342,-0.125,-0.78125,-0.390625,600
570,1695377095479,-0.072265625,-0.9602661,0.27752686,0.34375,-1.15625,0.0625,601
571,1695377095519,-0.07128906,-0.96051025,0.27923584,-0.03125,-0.234375,-0.546875,602
572,1695377095559,-0.07006836,-0.97442627,0.27166748,-0.5625,-0.921875,0.0,603
573,1695377095599,-0.06713867,-0.96881104,0.28411865,-0.234375,-0.171875,-0.078125,604
574,1695377095639,-0.06958008,-0.9602661,0.28045654,-0.390625,-0.90625,0.28125,605
575,1695377095679,-0.072265625,-0.96759033,0.2765503,-0.375,0.0,0.21875,606
576,1695377095719,-0.068359375,-0.97003174,0.26239014,-0.71875,-0.328125,0.171875,607
577,1695377095759,-0.057128906,-0.9692993,0.27874756,-0.109375,-0.578125,0.515625,608
578,1695377095799,-0.068603516,-0.97247314,0.2567749,-2.609375,-1.265625,0.03125,609
579,1695377095839,-0.056152344,-0.96881104,0.28363037,-1.46875,-1.390625,0.015625,610
580,1695377095879,-0.064453125,-0.95758057,0.28411865,-0.265625,-0.4375,0.296875,611
581,1695377095919,-0.09716797,-0.9644165,0.27215576,1.734375,0.1875,-0.390625,612
582,1695377095959,-0.041015625,-0.96221924,0.2826538,0.8125,-1.03125,0.109375,613
583,1695377095999,-0.064453125,-0.9678345,0.27166748,-0.5,-1.765625,1.125,614
584,1695377096039,-0.061035156,-0.96466064,0.27044678,-0.109375,-1.59375,0.828125,615
585,1695377096079,-0.07836914,-0.97857666,0.27142334,0.3125,-1.59375,1.140625,616
586,1695377096119,-0.06518555,-0.9627075,0.27801514,0.0,1.0,0.75,617
587,1695377096159,-0.053222656,-0.9619751,0.27191162,-0.78125,-0.96875,0.390625,618
588,1695377096199,-0.0637207,-0.9614868,0.26483154,-0.84375,-0.46875,0.75,619
589,1695377096239,-0.046875,-0.9678345,0.26507568,-1.21875,0.21875,0.625,620
590,1695377096279,-0.056640625,-0.96661377,0.28411865,-0.625,0.40625,0.21875,621
591,1695377096319,-0.0715332,-0.9729614,0.28631592,-0.53125,-0.53125,0.5,622
592,1695377096359,-0.052246094,-0.9663696,0.27972412,-1.09375,-0.53125,-0.234375,623
593,1695377096399,-0.06347656,-0.95147705,0.28851318,-1.078125,-0.359375,-0.140625,624
594,1695377096439,-0.067871094,-0.96881104,0.27386475,-0.015625,-1.171875,-0.484375,625
595,1695377096479,-0.060058594,-0.9680786,0.27557373,-0.265625,-1.609375,0.125,626
596,1695377096519,-0.036621094,-0.97198486,0.2814331,-0.21875,-1.125,-0.484375,627
597,1695377096559,-0.06542969,-0.96417236,0.27142334,-0.75,-0.890625,-0.203125,628
598,1695377096599,-0.052001953,-0.9536743,0.26849365,-0.15625,-0.640625,0.28125,629
599,1695377096639,-0.07373047,-0.9795532,0.30096436,-0.71875,-0.578125,-0.3125,630
600,1695377096679,-0.06225586,-0.9668579,0.29388428,-0.1875,-1.84375,-0.078125,631
601,1695377096719,-0.064208984,-0.9768677,0.2670288,1.140625,-0.46875,0.234375,632
602,1695377096759,-0.049804688,-0.95758057,0.26531982,2.34375,-0.75,0.046875,633
603,1695377096799,-0.0690918,-0.9800415,0.27020264,-0.671875,-1.890625,0.71875,634
604,1695377096839,-0.06689453,-0.95196533,0.26654053,1.171875,-3.078125,1.5,635
605,1695377096879,-0.07885742,-0.94537354,0.25701904,-1.96875,-1.28125,0.015625,636
606,1695377096919,-0.041992188,-0.9668579,0.2819214,-1.171875,-2.546875,-0.015625,637
607,1695377096959,-0.05493164,-0.98101807,0.28607178,-1.546875,-1.0,0.140625,638
608,1695377096999,-0.030273438,-0.95025635,0.28729248,-0.25,0.3125,1.46875,639
609,1695377097039,-0.10668945,-0.9819946,0.30560303,1.546875,-1.0,1.578125,640
610,1695377097079,-0.052734375,-0.97003174,0.28460693,1.0625,0.453125,1.046875,641
611,1695377097119,-0.059814453,-0.9651489,0.2538452,1.28125,-0.78125,-0.125,642
612,1695377097159,-0.041259766,-0.98638916,0.25091553,0.90625,-1.484375,-1.21875,643
613,1695377097199,-0.060058594,-0.98321533,0.2531128,0.828125,-1.578125,-1.734375,644
614,1695377097239,-0.00390625,-0.99176025,0.24481201,-2.59375,0.40625,-2.109375,645
615,1695377097279,-0.03100586,-0.9561157,0.2453003,-1.953125,-0.984375,-1.25,646
616,1695377097319,-0.055419922,-0.954895,0.26727295,-2.390625,-1.1875,-1.703125,647
617,1695377097359,-0.10864258,-0.97906494,0.27264404,-2.796875,-1.40625,-1.203125,648
618,1695377097399,-0.0859375,-0.96881104,0.28656006,-0.6875,-1.421875,-0.046875,649
619,1695377097439,-0.10131836,-0.9837036,0.2880249,0.0625,-1.171875,0.3125,650
620,1695377097479,-0.045166016,-0.9529419,0.276062,-0.375,-1.0,0.5625,651
621,1695377097519,-0.072753906,-0.9631958,0.2538452,-0.484375,-1.171875,0.90625,652
622,1695377097559,-0.052490234,-0.97491455,0.27337646,0.328125,-0.6875,0.828125,653
623,1695377097599,-0.06298828,-0.9817505,0.27996826,0.71875,0.59375,0.328125,654
624,1695377097639,-0.03881836,-0.9624634,0.262146,-0.46875,1.609375,0.671875,655
625,1695377097679,-0.041259766,-0.9541626,0.26116943,-1.296875,0.46875,-0.625,656
626,1695377097719,-0.05810547,-0.9649048,0.26385498,-1.03125,0.234375,-0.25,657
627,1695377097759,-0.072021484,-0.98394775,0.26385498,-1.328125,0.703125,-0.6875,658
628,1695377097799,-0.06567383,-0.97076416,0.27020264,-0.59375,0.015625,-1.40625,659
629,1695377097839,-0.072021484,-0.9639282,0.26190186,-0.140625,1.8125,-1.90625,660
630,1695377097879,-0.05493164,-0.9771118,0.27850342,1.546875,1.109375,-0.71875,661
631,1695377097919,-0.0690918,-0.95318604,0.2748413,1.421875,-0.546875,-0.609375,662
632,1695377097959,-0.0637207,-0.97735596,0.27166748,0.90625,-0.15625,-0.390625,663
633,1695377097999,-0.06958008,-0.96173096,0.27435303,0.859375,-2.84375,-0.09375,664
634,1695377098039,-0.0715332,-0.97198486,0.26409912,-0.03125,-1.84375,0.640625,665
635,1695377098079,-0.053466797,-0.9768677,0.2597046,-0.5625,-1.4375,0.40625,666
636,1695377098119,-0.06958008,-0.9500122,0.24822998,-1.046875,-4.328125,1.484375,667
637,1695377098159,-0.049560547,-0.9746704,0.23065186,-1.5,-3.375,1.0,668
638,1695377098199,-0.06591797,-0.9841919,0.2616577,-0.96875,-2.59375,1.09375,669
639,1695377098239,-0.07446289,-0.9590454,0.24212646,-0.96875,-0.34375,2.3125,670
640,1695377098279,-0.05102539,-0.9976196,0.2789917,-1.328125,-0.15625,1.5,671
641,1695377098319,-0.049316406,-0.9776001,0.2633667,-0.796875,-0.265625,1.5625,672
642,1695377098359,-0.049804688,-0.94537354,0.25897217,-1.046875,-0.25,1.359375,673
643,1695377098399,-0.05859375,-0.9788208,0.27923584,-1.53125,0.625,1.546875,674
644,1695377098439,-0.046875,-0.99005127,0.27679443,-2.15625,1.875,1.46875,675
645,1695377098479,-0.05834961,-1.0327759,0.24578857,-6.453125,2.046875,4.375,676
646,1695377098519,-0.03466797,-0.8948364,0.17327881,-3.90625,-2.46875,1.734375,677
647,1695377098559,-0.08276367,-0.94854736,0.2958374,-1.265625,-3.78125,0.328125,678
648,1695377098599,-0.044921875,-0.9763794,0.32611084,-1.015625,-2.5625,-1.296875,679
649,1695377098639,-0.020507812,-0.9656372,0.37542725,0.0625,-4.59375,-1.390625,680
650,1695377098679,0.0,-0.95928955,0.32781982,-0.609375,-1.796875,-0.640625,681
651,1695377098719,-0.0234375,-0.960022,0.31951904,-0.375,-2.203125,2.359375,682
652,1695377098759,-0.022949219,-0.9685669,0.29071045,-1.8125,-0.015625,3.046875,683
653,1695377098799,-0.05078125,-0.9783325,0.27581787,-1.296875,-1.765625,1.46875,684
654,1695377098839,-0.052490234,-0.93536377,0.25164795,-0.25,-2.453125,-0.390625,685
655,1695377098879,-0.05102539,-0.958313,0.2399292,0.109375,-2.765625,-0.640625,686
656,1695377098919,-0.11645508,-0.9944458,0.27215576,0.0,-2.15625,-1.3125,687
657,1695377098959,-0.06542969,-1.0059204,0.29193115,-1.90625,-0.4375,-3.0,688
658,1695377098999,-0.046875,-0.94073486,0.27288818,-2.234375,1.984375,-2.109375,689
659,1695377099039,-0.064453125,-0.96661377,0.31854248,-0.078125,0.328125,-1.234375,690
660,1695377099079,-0.03540039,-0.94610596,0.27703857,-0.484375,2.296875,-0.34375,691
661,1695377099119,-0.041503906,-0.9619751,0.2868042,-0.1875,0.734375,1.21875,692
662,1695377099159,-0.045898438,-0.97540283,0.2897339,-0.53125,1.46875,0.515625,693
663,1695377099199,-0.052246094,-0.97662354,0.2723999,0.328125,0.71875,-0.359375,694
664,1695377099239,-0.06689453,-0.9937134,0.2748413,1.046875,0.59375,-1.84375,695
665,1695377099279,-0.0625,-0.973938,0.28778076,1.390625,-0.71875,-3.53125,696
666,1695377099319,-0.052734375,-0.9463501,0.29632568,2.3125,-1.578125,-1.265625,697
667,1695377099359,-0.083984375,-0.9817505,0.31658936,-0.71875,-2.6875,-0.984375,698
668,1695377099399,-0.024414062,-0.99346924,0.26287842,-4.125,-0.609375,-0.421875,699
669,1695377099439,-0.11035156,-0.95806885,0.29071045,-0.46875,-3.0625,0.390625,700
670,1695377099479,-0.033691406,-0.9417114,0.26727295,-1.15625,-2.21875,1.015625,701
671,1695377099519,-0.09887695,-0.97198486,0.30926514,-2.046875,-2.96875,2.390625,702
672,1695377099559,-0.064941406,-0.96759033,0.2994995,-0.59375,-0.578125,1.015625,703
673,1695377099599,-0.04638672,-0.95513916,0.25579834,0.796875,-2.78125,1.453125,704
674,1695377099639,-0.0234375,-0.95513916,0.28045654,0.609375,0.359375,0.78125,705
675,1695377099679,-0.047607422,-0.96759033,0.26507568,-1.046875,-0.1875,0.34375,706
676,1695377099719,-0.03881836,-0.97735596,0.2736206,-0.390625,0.078125,0.53125,707
677,1695377099759,-0.07861328,-0.98931885,0.293396,0.0625,-0.25,0.40625,708
678,1695377099799,-0.043701172,-0.9714966,0.27679443,-0.828125,0.09375,0.6875,709
679,1695377099839,-0.056152344,-0.95928955,0.27337646,0.484375,-1.65625,-1.34375,710
680,1695377099879,-0.040527344,-0.96417236,0.28167725,0.171875,-1.4375,-1.125,711
681,1695377099919,-0.043701172,-0.9612427,0.2838745,-0.234375,-1.59375,-0.71875,712
682,1695377099959,-0.04663086,-0.96295166,0.2789917,0.171875,-1.203125,-0.1875,713
683,1695377099999,-0.06958008,-0.98809814,0.31536865,0.609375,-2.296875,-0.453125,714
684,1695377100039,-0.06323242,-0.96661377,0.28240967,-0.84375,0.0625,-0.28125,715
685,1695377100079,-0.072753906,-0.9692993,0.2897339,-0.125,-1.046875,-0.46875,716
686,1695377100119,-0.05883789,-0.9602661,0.26263428,-0.546875,-0.828125,0.265625,717
687,1695377100159,-0.03857422,-0.9746704,0.26531982,-2.5,-2.40625,-1.15625,718
688,1695377100199,-0.06762695,-0.95147705,0.29022217,-0.1875,-0.25,-2.453125,719
689,1695377100239,-0.083496094,-0.98638916,0.3012085,0.703125,1.15625,-0.890625,720
690,1695377100279,-0.056396484,-0.9644165,0.28289795,1.21875,1.765625,0.515625,721
691,1695377100319,-0.060791016,-0.96343994,0.27947998,1.15625,2.453125,-1.390625,722
692,1695377100359,-0.07788086,-0.9644165,0.27630615,3.140625,-0.5625,-1.734375,723
693,1695377100399,-0.08618164,-0.94610596,0.26556396,1.609375,-2.03125,-1.59375,724
694,1695377100439,-0.05834961,-0.987854,0.24188232,-0.296875,-1.46875,-1.578125,725
695,1695377100479,-0.059814453,-0.97906494,0.28753662,-2.3125,-2.6875,-1.890625,726
696,1695377100519,-0.10107422,-0.96051025,0.3209839,-5.546875,-0.40625,-1.484375,727
697,1695377100559,-0.088134766,-0.99346924,0.27703857,-5.84375,1.234375,-0.6875,728
698,1695377100599,-0.10473633,-0.95758057,0.29608154,-3.640625,-0.640625,-0.640625,729
699,1695377100639,-0.056396484,-0.9627075,0.29559326,-0.78125,-2.125,0.0625,730
700,1695377100679,-0.049804688,-0.94073486,0.27972412,1.109375,-3.390625,1.9375,731
701,1695377100719,-0.072509766,-0.9434204,0.27166748,-0.265625,-1.53125,0.984375,732
702,1695377100759,-0.048339844,-0.94122314,0.27679443,0.984375,-2.734375,2.484375,733
703,1695377100799,-0.09399414,-1.00177,0.2999878,-0.1875,-3.0,0.078125,734
704,1695377100839,-0.07446289,-0.95806885,0.27142334,0.03125,-1.296875,0.265625,735
705,1695377100879,-0.083740234,-0.96343994,0.28729248,0.40625,-1.359375,0.453125,736
706,1695377100919,-0.0715332,-0.97491455,0.27996826,0.328125,-1.1875,0.546875,737
707,1695377100959,-0.0847168,-0.96173096,0.2831421,0.421875,-0.359375,0.28125,738
708,1695377100999,-0.091796875,-0.98028564,0.293396,0.171875,-0.734375,0.59375,739
709,1695377101039,-0.072021484,-0.95025635,0.28485107,-0.34375,-0.296875,0.25,740
710,1695377101079,-0.08203125,-0.96954346,0.29144287,-0.5,-1.109375,0.375,741
711,1695377101119,-0.068359375,-0.9680786,0.27313232,-0.59375,-1.296875,1.0625,742
712,1695377101159,-0.07788086,-0.9751587,0.2826538,-0.265625,-0.75,0.84375,743
713,1695377101199,-0.06347656,-0.96466064,0.26849365,-0.78125,-0.203125,0.171875,744
714,1695377101239,-0.07788086,-0.9758911,0.26239014,-0.953125,-0.265625,0.09375,745
715,1695377101279,-0.05810547,-0.9483032,0.27752686,0.953125,-1.328125,-0.125,746
716,1695377101319,-0.0625,-0.97540283,0.27191162,-1.203125,0.015625,0.21875,747
717,1695377101359,-0.06982422,-0.9673462,0.27703857,-0.734375,-0.296875,0.25,748
718,1695377101399,-0.07397461,-0.9661255,0.29803467,-0.84375,-1.140625,-0.296875,749
719,1695377101439,-0.07763672,-0.9873657,0.2687378,-1.453125,-1.84375,0.171875,750
720,1695377101479,-0.0690918,-0.9487915,0.30145264,-0.1875,-0.515625,-0.015625,751
721,1695377101519,-0.076171875,-1.0171509,0.31219482,-4.671875,4.71875,-0.609375,752
722,1695377101559,-0.06323242,-0.940979,0.3065796,-4.609375,4.453125,-0.234375,753
723,1695377101599,-0.096191406,-0.96759033,0.27191162,-0.625,0.484375,-0.6875,754
724,1695377101639,-0.044921875,-0.9343872,0.28607178,1.828125,-3.09375,0.0625,755
725,1695377101679,-0.0847168,-0.9697876,0.27972412,0.15625,-2.796875,0.125,756
726,1695377101719,-0.060546875,-0.93756104,0.277771,-0.421875,-2.40625,-0.078125,757
727,1695377101759,-0.088378906,-0.9741821,0.2831421,0.578125,-3.484375,0.03125,758
728,1695377101799,-0.06298828,-0.96295166,0.27923584,0.90625,-1.796875,0.53125,759
729,1695377101839,-0.071777344,-0.9741821,0.29119873,0.859375,-1.859375,0.3125,760
730,1695377101879,-0.055419922,-0.96417236,0.27679443,0.578125,-1.65625,1.109375,761
731,1695377101919,-0.07128906,-0.9612427,0.2748413,-0.796875,-0.625,0.71875,762
732,1695377101959,-0.078125,-0.98028564,0.3024292,-0.640625,-0.390625,0.53125,763
733,1695377101999,-0.076660156,-0.96417236,0.2819214,-0.6875,-0.984375,0.75,764
734,1695377102039,-0.06616211,-0.972229,0.28485107,-0.859375,-1.53125,-0.453125,765
735,1695377102079,-0.07128906,-0.9717407,0.28826904,-1.796875,0.796875,-0.421875,766
736,1695377102119,-0.09277344,-0.9661255,0.28851318,0.265625,-1.796875,0.140625,767
737,1695377102159,-0.044433594,-0.95928955,0.27508545,-0.609375,-0.4375,-0.21875,768
738,1695377102199,-0.07397461,-0.97003174,0.2909546,0.125,-0.640625,0.125,769
739,1695377102239,-0.080566406,-0.9702759,0.29022217,-0.390625,-0.890625,-0.25,770
740,1695377102279,-0.071777344,-0.95147705,0.2765503,-0.609375,-0.875,-0.3125,771
741,1695377102319,-0.063964844,-0.95806885,0.27850342,-0.484375,-0.375,0.265625,772
742,1695377102359,-0.076171875,-0.9741821,0.2982788,0.15625,-0.546875,0.234375,773
743,1695377102399,-0.07788086,-0.973938,0.30413818,-2.03125,1.421875,0.625,774
744,1695377102439,-0.030029297,-0.9429321,0.31243896,-4.0,3.3125,0.15625,775
745,1695377102479,-0.067871094,-0.96832275,0.26678467,-4.59375,-1.328125,-1.75,776
746,1695377102519,-0.09741211,-0.9624634,0.30145264,1.640625,-5.109375,-0.421875,777
747,1695377102559,-0.08959961,-0.9793091,0.29437256,0.53125,-2.15625,1.0,778
748,1695377102599,-0.068359375,-0.9277954,0.26287842,0.203125,-2.859375,0.296875,779
749,1695377102639,-0.067871094,-0.9939575,0.31072998,0.4375,-2.484375,0.359375,780
750,1695377102679,-0.06958008,-0.95440674,0.2826538,1.53125,-1.796875,1.296875,781
751,1695377102719,-0.068847656,-0.9607544,0.27850342,0.296875,-0.953125,0.09375,782
752,1695377102759,-0.068603516,-0.958313,0.28460693,0.03125,-1.296875,0.1875,783
753,1695377102799,-0.06640625,-0.9673462,0.29071045,0.265625,-1.109375,0.109375,784
