,timestamp,accel_x,accel_y,accel_z,gyro_x,gyro_y,gyro_z,mag_x,mag_y,mag_z,ind
0,1696000054176,-1.0791016,0.34960938,0.00390625,-3.375,16.8125,13.53125,0.0,0.0,0.0,0
1,1696000054216,-0.984375,0.46972656,-0.0087890625,3.5625,6.5,-0.34375,0.0,0.0,0.0,1
2,1696000054256,-0.9033203,0.4453125,-0.030273438,-1.96875,-1.4375,-3.6875,0.0,0.0,0.0,2
3,1696000054296,-0.85058594,0.43066406,-0.044921875,-3.1875,0.71875,-5.9375,0.0,0.0,0.0,3
4,1696000054336,-0.80371094,0.45117188,-0.051757812,1.75,0.71875,-13.34375,0.0,0.0,0.0,4
5,1696000054376,-0.77441406,0.44335938,-0.040039062,-7.21875,2.53125,-17.59375,0.0,0.0,0.0,5
6,1696000054416,-0.78125,0.41210938,-0.0859375,-10.9375,2.34375,-19.625,0.0,0.0,0.0,6
7,1696000054456,-0.8457031,0.41210938,-0.076171875,-4.46875,-0.15625,-22.5,0.0,0.0,0.0,7
8,1696000054496,-0.9169922,0.41308594,0.0029296875,-4.96875,4.75,-24.875,-108.125,30.8125,-65.625,8
9,1696000054536,-0.88671875,0.28125,-0.026367188,-12.53125,4.3125,-28.65625,0.0,0.0,0.0,9
10,1696000054576,-0.9560547,0.20605469,0.06933594,-3.5,3.21875,-33.84375,0.0,0.0,0.0,10
11,1696000054616,-1.7900391,0.051757812,0.022460938,10.53125,5.96875,-5.65625,0.0,0.0,0.0,11
12,1696000054656,-0.9550781,0.15625,0.2861328,0.46875,-15.21875,-0.5,0.0,0.0,0.0,12
13,1696000054696,-0.6982422,0.056640625,0.05859375,-13.8125,12.65625,-9.5625,0.0,0.0,0.0,13
14,1696000054736,-1.0341797,0.08886719,-0.06347656,-12.90625,26.03125,10.90625,0.0,0.0,0.0,14
15,1696000054776,-1.0507812,0.12890625,0.07519531,-12.28125,7.65625,11.5,0.0,0.0,0.0,15
16,1696000054816,-0.94921875,-0.022460938,0.17089844,-20.78125,3.5,2.21875,0.0,0.0,0.0,16
17,1696000054856,-1.0625,-0.099609375,0.13769531,9.875,1.0625,6.625,0.0,0.0,0.0,17
18,1696000054896,-1.3349609,-0.013671875,0.14355469,44.90625,-4.25,9.8125,0.0,0.0,0.0,18
19,1696000054936,-1.5439453,0.07519531,-0.0107421875,43.1875,-18.40625,0.46875,0.0,0.0,0.0,19
20,1696000054976,-1.7910156,0.103515625,-0.080078125,68.75,-25.0625,-0.8125,0.0,0.0,0.0,20
21,1696000055016,-1.1054688,0.38085938,-0.064453125,91.78125,-61.96875,-0.8125,-108.3125,27.625,-67.25,21
22,1696000055056,-0.8027344,0.44335938,0.036132812,70.65625,-71.875,7.59375,0.0,0.0,0.0,22
23,1696000055096,-0.88183594,0.24316406,0.12695312,44.96875,-61.65625,-1.96875,0.0,0.0,0.0,23
24,1696000055136,-0.8496094,0.13085938,-0.01953125,53.875,-40.0,3.4375,0.0,0.0,0.0,24
25,1696000055176,-0.5253906,0.29492188,-0.029296875,63.5625,-18.46875,20.3125,0.0,0.0,0.0,25
26,1696000055216,-0.44140625,0.42382812,0.05078125,38.25,-16.25,28.96875,0.0,0.0,0.0,26
27,1696000055256,-0.5390625,0.29003906,0.21679688,7.0,-0.40625,19.03125,0.0,0.0,0.0,27
28,1696000055296,-0.9921875,0.2685547,0.21875,-13.34375,-3.5,13.28125,0.0,0.0,0.0,28
29,1696000055336,-0.93847656,0.19921875,0.18652344,0.15625,15.40625,10.28125,0.0,0.0,0.0,29
30,1696000055376,-1.0390625,0.033203125,0.48535156,-7.84375,1.625,-1.375,0.0,0.0,0.0,30
31,1696000055416,-1.1679688,0.40039062,-0.051757812,10.84375,-49.34375,-34.8125,0.0,0.0,0.0,31
32,1696000055456,-1.8974609,0.7832031,0.2626953,25.59375,-61.0625,-6.875,0.0,0.0,0.0,32
33,1696000055496,-0.9160156,0.5214844,-0.08300781,-79.125,102.34375,3.34375,-108.625,32.125,-61.375,33
34,1696000055536,-0.78222656,0.34570312,-0.028320312,-22.96875,-2.84375,-7.46875,0.0,0.0,0.0,34
35,1696000055576,-0.9013672,0.2685547,-0.041015625,-28.15625,2.1875,4.625,0.0,0.0,0.0,35
36,1696000055616,-0.84375,0.4091797,0.048828125,-41.21875,22.4375,1.125,0.0,0.0,0.0,36
37,1696000055656,-0.8105469,0.18457031,0.08300781,-82.0625,43.1875,-10.9375,0.0,0.0,0.0,37
38,1696000055696,-0.55078125,-0.11230469,-0.076171875,-69.3125,25.5,-9.625,0.0,0.0,0.0,38
39,1696000055736,-0.74902344,0.0087890625,0.0126953125,-12.59375,56.875,2.21875,0.0,0.0,0.0,39
40,1696000055776,-0.9560547,0.19824219,0.09667969,8.9375,44.21875,4.71875,0.0,0.0,0.0,40
41,1696000055816,-0.9970703,0.19140625,0.072265625,-1.84375,22.5625,-1.25,0.0,0.0,0.0,41
42,1696000055856,-1.1865234,0.19433594,0.21777344,1.4375,22.25,4.71875,0.0,0.0,0.0,42
43,1696000055896,-1.3046875,0.123046875,0.17089844,-11.25,2.53125,0.34375,0.0,0.0,0.0,43
44,1696000055936,-1.3300781,0.15429688,-0.08496094,2.71875,-24.4375,-11.6875,0.0,0.0,0.0,44
45,1696000055976,-1.2363281,0.3466797,-0.13867188,17.96875,-44.46875,-7.53125,0.0,0.0,0.0,45
46,1696000056016,-0.953125,0.5097656,-0.022460938,28.84375,-35.125,-11.9375,-110.6875,30.8125,-61.125,46
47,1696000056056,-1.0,0.45996094,0.041015625,5.40625,-42.125,1.4375,0.0,0.0,0.0,47
48,1696000056096,-1.0166016,0.23632812,0.06542969,20.53125,-32.375,1.5,0.0,0.0,0.0,48
49,1696000056136,-0.9765625,0.19238281,0.07421875,39.875,-22.71875,7.96875,0.0,0.0,0.0,49
50,1696000056176,-0.6074219,0.30664062,0.020507812,41.71875,-18.21875,15.125,0.0,0.0,0.0,50
51,1696000056216,-0.546875,0.359375,0.09375,35.6875,-10.09375,28.65625,0.0,0.0,0.0,51
52,1696000056256,-0.6904297,0.35546875,0.171875,21.46875,0.875,28.46875,0.0,0.0,0.0,52
53,1696000056296,-0.7480469,0.25976562,0.16503906,14.75,2.59375,19.4375,0.0,0.0,0.0,53
54,1696000056336,-0.97558594,0.24707031,0.2109375,10.09375,18.84375,8.75,0.0,0.0,0.0,54
55,1696000056376,-1.1279297,0.11816406,0.39941406,8.8125,10.09375,-1.6875,0.0,0.0,0.0,55
56,1696000056416,-1.1171875,0.375,-0.33496094,17.1875,-45.6875,-35.3125,0.0,0.0,0.0,56
57,1696000056456,-1.7265625,0.83691406,0.091796875,35.625,-76.0,-25.28125,0.0,0.0,0.0,57
58,1696000056496,-0.88183594,0.61328125,-0.06347656,-64.3125,82.375,-4.84375,-113.125,32.4375,-55.875,58
59,1696000056536,-0.9511719,0.39453125,-0.06738281,-20.34375,-0.15625,-14.25,0.0,0.0,0.0,59
60,1696000056576,-0.92285156,0.2763672,-0.041015625,-27.84375,12.0625,-0.75,0.0,0.0,0.0,60
61,1696000056616,-0.8408203,0.4169922,0.08203125,-40.5,35.9375,-7.96875,0.0,0.0,0.0,61
62,1696000056656,-0.75878906,0.19824219,0.09375,-85.21875,48.5,-19.6875,0.0,0.0,0.0,62
63,1696000056696,-0.44140625,-0.041992188,-0.08203125,-84.125,27.9375,-19.0,0.0,0.0,0.0,63
64,1696000056736,-0.73339844,0.041015625,-0.087890625,-24.75,46.4375,0.09375,0.0,0.0,0.0,64
65,1696000056776,-0.96777344,0.26464844,0.048828125,4.25,40.125,9.25,0.0,0.0,0.0,65
66,1696000056816,-1.1083984,0.13574219,0.17285156,-19.1875,16.875,-4.375,0.0,0.0,0.0,66
67,1696000056856,-1.1884766,0.061523438,0.12597656,-9.4375,28.125,-6.0,0.0,0.0,0.0,67
68,1696000056896,-1.3378906,0.12402344,0.14453125,6.8125,12.59375,5.84375,0.0,0.0,0.0,68
69,1696000056936,-1.3427734,0.3310547,0.12695312,-1.0625,-7.46875,8.625,0.0,0.0,0.0,69
70,1696000056976,-1.25,0.21582031,-0.06738281,4.3125,-12.0,-1.375,0.0,0.0,0.0,70
71,1696000057016,-1.0585938,0.4267578,-0.17382812,33.3125,-36.21875,-1.90625,-114.875,27.3125,-61.875,71
72,1696000057056,-1.0234375,0.48535156,-0.015625,30.90625,-44.53125,3.03125,0.0,0.0,0.0,72
73,1696000057096,-0.9248047,0.3955078,0.017578125,10.53125,-47.4375,3.5,0.0,0.0,0.0,73
74,1696000057136,-0.8925781,0.23925781,-0.02734375,35.75,-25.40625,0.28125,0.0,0.0,0.0,74
75,1696000057176,-0.85253906,0.20800781,0.04296875,40.0,-13.21875,10.28125,0.0,0.0,0.0,75
76,1696000057216,-0.6220703,0.42382812,0.06347656,34.59375,6.3125,17.6875,0.0,0.0,0.0,76
77,1696000057256,-0.69628906,0.40039062,0.14257812,-0.09375,-10.78125,20.78125,0.0,0.0,0.0,77
78,1696000057296,-0.79003906,0.2578125,0.119140625,-16.375,-2.40625,13.78125,0.0,0.0,0.0,78
79,1696000057336,-0.81347656,0.16992188,0.11621094,-5.40625,8.28125,17.625,0.0,0.0,0.0,79
80,1696000057376,-0.8125,0.17871094,0.25683594,-0.625,5.21875,13.15625,0.0,0.0,0.0,80
81,1696000057416,-0.94433594,0.16699219,0.38378906,-12.84375,-18.03125,-1.3125,0.0,0.0,0.0,81
82,1696000057456,-1.0751953,0.42089844,0.3154297,3.28125,-79.4375,-24.1875,0.0,0.0,0.0,82
83,1696000057496,-1.5712891,0.4013672,0.2734375,6.0625,-17.3125,12.65625,-114.875,27.625,-54.8125,83
84,1696000057536,-1.1513672,0.46972656,0.10058594,-22.65625,24.75,-8.75,0.0,0.0,0.0,84
85,1696000057576,-1.0390625,0.30273438,-0.11621094,-2.34375,27.875,-6.5,0.0,0.0,0.0,85
86,1696000057616,-1.0332031,0.3828125,-0.18945312,16.34375,16.5,-0.21875,0.0,0.0,0.0,86
87,1696000057656,-0.9316406,0.3828125,0.060546875,0.15625,30.25,-3.75,0.0,0.0,0.0,87
88,1696000057696,-0.70996094,0.25,0.07910156,-33.78125,31.46875,-19.1875,0.0,0.0,0.0,88
89,1696000057736,-0.59277344,0.10546875,-0.01171875,-46.78125,26.46875,-22.71875,0.0,0.0,0.0,89
90,1696000057776,-0.5996094,0.0234375,-0.07421875,-27.90625,49.28125,-1.375,0.0,0.0,0.0,90
91,1696000057816,-0.7763672,0.09277344,0.037109375,5.71875,38.4375,1.9375,0.0,0.0,0.0,91
92,1696000057856,-0.94921875,0.1640625,0.13964844,2.59375,16.15625,4.3125,0.0,0.0,0.0,92
93,1696000057896,-1.0371094,0.09277344,0.09863281,-11.875,16.09375,6.9375,0.0,0.0,0.0,93
94,1696000057936,-0.97265625,0.072265625,0.10644531,6.25,8.6875,7.84375,0.0,0.0,0.0,94
95,1696000057976,-1.0625,0.11816406,0.12695312,10.96875,1.6875,-0.15625,0.0,0.0,0.0,95
96,1696000058016,-1.171875,0.14648438,0.040039062,15.84375,8.21875,6.8125,-114.4375,27.0625,-60.625,96
97,1696000058056,-1.3369141,0.39746094,0.037109375,7.84375,10.21875,18.53125,0.0,0.0,0.0,97
98,1696000058096,-1.5605469,0.17578125,-0.020507812,-11.8125,0.53125,5.53125,0.0,0.0,0.0,98
99,1696000058136,-1.2939453,0.22265625,-0.171875,34.40625,-14.75,-9.84375,0.0,0.0,0.0,99
100,1696000058176,-0.99316406,0.4609375,-0.12890625,59.78125,-32.0625,-4.40625,0.0,0.0,0.0,100
101,1696000058216,-0.8701172,0.62890625,0.03125,27.625,-68.8125,5.59375,0.0,0.0,0.0,101
102,1696000058256,-0.8066406,0.2939453,0.08300781,6.1875,-41.59375,-6.8125,0.0,0.0,0.0,102
103,1696000058296,-0.82910156,0.15136719,-0.059570312,10.03125,-30.59375,-1.8125,0.0,0.0,0.0,103
104,1696000058336,-0.6191406,0.2919922,-0.038085938,40.3125,3.21875,31.09375,0.0,0.0,0.0,104
105,1696000058376,-0.55859375,0.45996094,0.22167969,15.34375,-4.0,35.96875,0.0,0.0,0.0,105
106,1696000058416,-0.81933594,0.39257812,0.23339844,-25.78125,2.53125,24.5625,0.0,0.0,0.0,106
107,1696000058456,-0.9589844,0.20019531,0.13964844,-26.625,9.75,13.03125,0.0,0.0,0.0,107
108,1696000058496,-1.0751953,0.016601562,0.30078125,-7.96875,5.46875,2.59375,-115.625,31.25,-57.6875,108
109,1696000058536,-0.98535156,0.16503906,0.5029297,10.84375,-44.28125,-16.25,0.0,0.0,0.0,109
110,1696000058576,-1.2275391,0.6347656,0.20703125,24.09375,-83.34375,-40.1875,0.0,0.0,0.0,110
111,1696000058616,-1.1542969,0.5498047,0.059570312,-3.875,48.125,2.0625,0.0,0.0,0.0,111
112,1696000058656,-0.7011719,0.328125,-0.026367188,-32.0,21.59375,-11.375,0.0,0.0,0.0,112
113,1696000058696,-0.82421875,0.24902344,-0.059570312,-16.03125,-0.15625,-13.46875,0.0,0.0,0.0,113
114,1696000058736,-0.9423828,0.22558594,-0.0107421875,-10.15625,-0.75,-4.0625,0.0,0.0,0.0,114
115,1696000058776,-0.9658203,0.32714844,0.115234375,-27.3125,30.0,-8.28125,0.0,0.0,0.0,115
116,1696000058816,-0.7207031,0.1328125,0.09863281,-43.78125,24.15625,-17.375,0.0,0.0,0.0,116
117,1696000058856,-0.671875,0.038085938,0.09082031,-38.90625,31.96875,-5.65625,0.0,0.0,0.0,117
118,1696000058896,-0.8652344,0.049804688,0.040039062,-12.0625,45.5,5.78125,0.0,0.0,0.0,118
119,1696000058936,-0.90527344,0.0625,0.1171875,-0.625,32.09375,1.5,0.0,0.0,0.0,119
120,1696000058976,-1.0205078,0.1328125,0.09082031,10.59375,29.6875,6.1875,0.0,0.0,0.0,120
121,1696000059016,-1.1953125,0.25195312,0.051757812,3.75,23.78125,18.34375,-116.375,29.125,-60.1875,121
122,1696000059056,-1.390625,0.14160156,0.125,-20.28125,18.03125,14.1875,0.0,0.0,0.0,122
123,1696000059096,-1.4306641,-0.0087890625,-0.15039062,-8.5,-5.03125,-4.65625,0.0,0.0,0.0,123
124,1696000059136,-1.1416016,0.34277344,-0.13378906,29.15625,-23.875,-17.1875,0.0,0.0,0.0,124
125,1696000059176,-0.9765625,0.5986328,0.033203125,38.96875,-42.9375,-8.375,0.0,0.0,0.0,125
126,1696000059216,-0.89746094,0.4814453,0.041015625,-6.5,-45.0625,3.5625,0.0,0.0,0.0,126
127,1696000059256,-0.7783203,0.1875,-0.00390625,27.25,-0.21875,-8.03125,0.0,0.0,0.0,127
128,1696000059296,-1.0634766,0.12988281,-0.040039062,33.1875,-46.15625,-5.71875,0.0,0.0,0.0,128
129,1696000059336,-0.6816406,0.27539062,0.029296875,60.8125,-21.375,12.59375,0.0,0.0,0.0,129
130,1696000059376,-0.6171875,0.40234375,0.056640625,42.9375,-10.09375,19.375,0.0,0.0,0.0,130
131,1696000059416,-0.5390625,0.38476562,0.10839844,13.15625,-20.84375,26.34375,0.0,0.0,0.0,131
132,1696000059456,-0.76171875,0.2783203,0.14550781,8.21875,-3.125,23.71875,0.0,0.0,0.0,132
133,1696000059496,-0.9003906,0.20410156,0.27246094,6.125,7.375,13.15625,-116.375,28.375,-53.75,133
134,1696000059536,-1.0927734,0.030273438,0.4267578,-1.84375,-3.5,-4.25,0.0,0.0,0.0,134
135,1696000059576,-1.1464844,0.6064453,-0.5410156,8.46875,-51.0625,-39.21875,0.0,0.0,0.0,135
136,1696000059616,-1.7578125,0.859375,0.10644531,38.3125,-29.6875,-0.625,0.0,0.0,0.0,136
137,1696000059656,-0.9169922,0.55078125,0.036132812,-43.96875,57.78125,-0.5625,0.0,0.0,0.0,137
138,1696000059696,-0.8535156,0.32226562,-0.09863281,-21.75,13.09375,-13.75,0.0,0.0,0.0,138
139,1696000059736,-0.9326172,0.25683594,-0.08203125,-13.15625,6.09375,2.96875,0.0,0.0,0.0,139
140,1696000059776,-0.8964844,0.42382812,0.12988281,-28.78125,26.65625,0.46875,0.0,0.0,0.0,140
141,1696000059816,-0.80078125,0.25,0.095703125,-81.75,34.875,-15.46875,0.0,0.0,0.0,141
142,1696000059856,-0.6074219,-0.029296875,0.009765625,-71.3125,24.03125,-16.4375,0.0,0.0,0.0,142
143,1696000059896,-0.703125,0.037109375,-0.0107421875,-26.40625,65.53125,10.65625,0.0,0.0,0.0,143
144,1696000059936,-0.984375,0.13671875,0.16308594,7.84375,46.0,5.96875,0.0,0.0,0.0,144
145,1696000059976,-1.0292969,0.20800781,0.14550781,-9.5,32.1875,1.8125,0.0,0.0,0.0,145
146,1696000060016,-1.1679688,0.21875,0.16699219,-20.21875,30.90625,2.15625,-115.5,22.6875,-56.75,146
147,1696000060056,-1.34375,0.14257812,0.04296875,-14.0625,12.125,7.90625,0.0,0.0,0.0,147
148,1696000060096,-1.5664062,0.24414062,-0.07128906,-10.59375,-23.40625,15.46875,0.0,0.0,0.0,148
149,1696000060136,-1.1816406,0.2265625,-0.068359375,5.65625,-31.40625,-3.3125,0.0,0.0,0.0,149
150,1696000060176,-1.1289062,0.23925781,-0.22265625,23.40625,-29.875,-18.40625,0.0,0.0,0.0,150
151,1696000060216,-0.8339844,0.33691406,0.013671875,27.8125,-54.46875,-4.65625,0.0,0.0,0.0,151
152,1696000060256,-0.90527344,0.24609375,0.0625,35.75,-35.90625,-1.25,0.0,0.0,0.0,152
153,1696000060296,-1.0214844,0.28808594,0.08984375,40.75,-35.1875,3.75,0.0,0.0,0.0,153
154,1696000060336,-0.84375,0.35546875,0.07421875,28.53125,-33.53125,6.6875,0.0,0.0,0.0,154
155,1696000060376,-0.60546875,0.29101562,0.111328125,16.875,-24.6875,14.4375,0.0,0.0,0.0,155
156,1696000060416,-0.5908203,0.29101562,0.09863281,4.5625,-13.28125,22.5625,0.0,0.0,0.0,156
157,1696000060456,-0.72558594,0.22363281,0.23242188,10.34375,-0.40625,16.09375,0.0,0.0,0.0,157
158,1696000060496,-0.8330078,0.22460938,0.22363281,16.8125,5.53125,14.5625,-111.875,22.6875,-50.75,158
159,1696000060536,-0.9511719,0.11816406,0.3671875,8.21875,12.59375,6.6875,0.0,0.0,0.0,159
160,1696000060576,-0.9921875,0.23242188,0.16113281,2.34375,-15.21875,-24.3125,0.0,0.0,0.0,160
161,1696000060616,-1.5332031,1.015625,-0.068359375,20.59375,-91.34375,-23.78125,0.0,0.0,0.0,161
162,1696000060656,-1.109375,0.5078125,0.04296875,-69.78125,77.84375,-0.75,0.0,0.0,0.0,162
163,1696000060696,-0.8574219,0.3359375,0.022460938,-20.15625,12.59375,-15.40625,0.0,0.0,0.0,163
164,1696000060736,-1.0253906,0.25,0.0009765625,-9.5,10.90625,4.0625,0.0,0.0,0.0,164
165,1696000060776,-1.0634766,0.40234375,0.072265625,-2.21875,33.84375,-1.375,0.0,0.0,0.0,165
166,1696000060816,-0.89746094,0.31835938,0.22070312,-45.375,26.15625,-10.9375,0.0,0.0,0.0,166
167,1696000060856,-0.60253906,0.21582031,0.017578125,-73.21875,24.4375,-22.71875,0.0,0.0,0.0,167
168,1696000060896,-0.68359375,-0.095703125,-0.056640625,-54.46875,43.0,1.4375,0.0,0.0,0.0,168
169,1696000060936,-0.78808594,0.103515625,-0.036132812,-3.3125,52.78125,5.71875,0.0,0.0,0.0,169
170,1696000060976,-0.7890625,0.24707031,0.12597656,5.28125,17.625,-5.75,0.0,0.0,0.0,170
171,1696000061016,-0.9394531,0.12695312,0.048828125,-4.46875,28.40625,-2.71875,-111.3125,17.75,-50.0,171
172,1696000061056,-1.2324219,0.1796875,0.13671875,-0.5625,33.375,17.5,0.0,0.0,0.0,172
173,1696000061096,-1.3515625,0.1640625,0.18945312,-12.1875,4.375,17.0625,0.0,0.0,0.0,173
174,1696000061136,-1.3154297,0.43652344,-0.020507812,-19.4375,-8.5625,6.0625,0.0,0.0,0.0,174
175,1696000061176,-1.34375,0.080078125,-0.14648438,19.5,1.125,6.1875,0.0,0.0,0.0,175
176,1696000061216,-1.0898438,0.52441406,-0.12597656,51.5625,-25.53125,-0.875,0.0,0.0,0.0,176
177,1696000061256,-0.8515625,0.46191406,0.018554688,18.90625,-33.53125,1.0625,0.0,0.0,0.0,177
178,1696000061296,-0.7548828,0.28320312,0.013671875,-2.40625,-38.1875,-0.5,0.0,0.0,0.0,178
179,1696000061336,-0.97753906,0.15820312,0.09375,16.625,-31.40625,-3.625,0.0,0.0,0.0,179
180,1696000061376,-0.93066406,0.19042969,0.040039062,48.25,-25.59375,9.4375,0.0,0.0,0.0,180
181,1696000061416,-0.71972656,0.32226562,0.14746094,38.0625,-9.71875,27.125,0.0,0.0,0.0,181
182,1696000061456,-0.5722656,0.32910156,0.19824219,7.71875,-5.75,27.75,0.0,0.0,0.0,182
183,1696000061496,-0.9042969,0.4091797,0.21386719,-10.28125,-12.40625,21.6875,-107.875,20.875,-49.125,183
184,1696000061536,-0.9453125,0.26367188,0.19042969,-14.1875,13.28125,6.75,0.0,0.0,0.0,184
185,1696000061576,-1.0371094,0.11328125,0.390625,-17.65625,-1.90625,4.1875,0.0,0.0,0.0,185
186,1696000061616,-1.0117188,0.11230469,0.4501953,3.5625,-35.5,-22.5,0.0,0.0,0.0,186
187,1696000061656,-1.4287109,0.5107422,0.58984375,35.875,-43.65625,-39.03125,0.0,0.0,0.0,187
188,1696000061696,-1.1806641,0.6875,-0.0546875,-32.5625,46.71875,-4.78125,0.0,0.0,0.0,188
189,1696000061736,-0.8359375,0.29589844,-0.07421875,-38.0,12.125,-12.96875,0.0,0.0,0.0,189
190,1696000061776,-0.89941406,0.11816406,-0.045898438,-6.5,0.34375,-9.0625,0.0,0.0,0.0,190
191,1696000061816,-0.8691406,0.3388672,0.041992188,5.46875,-3.4375,-5.34375,0.0,0.0,0.0,191
192,1696000061856,-0.78808594,0.39160156,0.12011719,-53.8125,30.5625,-11.4375,0.0,0.0,0.0,192
193,1696000061896,-0.69140625,0.0009765625,0.09472656,-68.5625,22.4375,-16.1875,0.0,0.0,0.0,193
194,1696000061936,-0.6269531,-0.044921875,-0.107421875,-25.78125,44.65625,-6.0625,0.0,0.0,0.0,194
195,1696000061976,-0.9902344,0.13476562,0.09277344,20.84375,42.8125,12.0,0.0,0.0,0.0,195
196,1696000062016,-1.0507812,0.19628906,0.16699219,2.46875,21.75,1.4375,-106.5,16.6875,-49.5625,196
197,1696000062056,-1.1445312,0.111328125,0.0859375,-2.15625,26.59375,7.71875,0.0,0.0,0.0,197
198,1696000062096,-1.3017578,0.16796875,0.15332031,5.78125,9.4375,20.46875,0.0,0.0,0.0,198
199,1696000062136,-1.1972656,0.41210938,-0.018554688,-27.1875,-15.84375,11.8125,0.0,0.0,0.0,199
200,1696000062176,-1.2626953,0.080078125,-0.18554688,16.8125,-5.15625,-3.3125,0.0,0.0,0.0,200
201,1696000062216,-1.0976562,0.5019531,-0.12988281,43.90625,-19.9375,-8.6875,0.0,0.0,0.0,201
202,1696000062256,-0.86816406,0.53808594,0.047851562,12.65625,-27.84375,-0.34375,0.0,0.0,0.0,202
203,1696000062296,-0.7998047,0.36523438,0.049804688,-14.96875,-29.625,1.1875,0.0,0.0,0.0,203
204,1696000062336,-1.0292969,0.10253906,0.15136719,11.9375,-27.0,-5.34375,0.0,0.0,0.0,204
205,1696000062376,-0.96484375,0.19042969,0.059570312,34.59375,-22.96875,10.09375,0.0,0.0,0.0,205
206,1696000062416,-0.7089844,0.34375,0.119140625,33.65625,-11.375,24.5625,0.0,0.0,0.0,206
207,1696000062456,-0.6152344,0.3310547,0.17773438,9.875,-13.40625,19.5,0.0,0.0,0.0,207
208,1696000062496,-0.80371094,0.3330078,0.21484375,-5.8125,-2.21875,20.0625,-104.125,22.375,-49.6875,208
209,1696000062536,-0.83496094,0.19140625,0.20507812,-0.8125,15.0,8.09375,0.0,0.0,0.0,209
210,1696000062576,-0.9296875,0.095703125,0.3623047,-5.875,6.6875,2.15625,0.0,0.0,0.0,210
211,1696000062616,-0.9902344,0.1328125,0.3798828,-0.5,-33.53125,-22.0625,0.0,0.0,0.0,211
212,1696000062656,-1.0654297,0.3642578,0.2529297,40.875,-70.53125,-40.1875,0.0,0.0,0.0,212
213,1696000062696,-1.6240234,0.60839844,0.27539062,6.3125,12.96875,5.53125,0.0,0.0,0.0,213
214,1696000062736,-0.90234375,0.390625,0.0390625,-32.3125,26.21875,-11.1875,0.0,0.0,0.0,214
215,1696000062776,-0.7949219,0.2763672,-0.109375,-5.09375,11.09375,-5.40625,0.0,0.0,0.0,215
216,1696000062816,-0.96777344,0.328125,-0.038085938,7.96875,0.59375,4.5625,0.0,0.0,0.0,216
217,1696000062856,-0.9716797,0.44726562,0.15917969,-29.5625,31.78125,0.03125,0.0,0.0,0.0,217
218,1696000062896,-0.7705078,0.125,0.08300781,-71.9375,30.84375,-16.875,0.0,0.0,0.0,218
219,1696000062936,-0.5878906,-0.15820312,-0.036132812,-49.40625,35.1875,-7.90625,0.0,0.0,0.0,219
220,1696000062976,-0.8105469,0.038085938,0.001953125,15.34375,55.40625,5.71875,0.0,0.0,0.0,220
221,1696000063016,-0.9628906,0.16894531,0.12695312,27.5625,23.21875,-1.5625,-104.125,19.0625,-49.4375,221
222,1696000063056,-0.9824219,0.203125,0.080078125,11.5625,20.78125,-0.5625,0.0,0.0,0.0,222
223,1696000063096,-1.1552734,0.17773438,0.15429688,8.59375,20.25,8.03125,0.0,0.0,0.0,223
224,1696000063136,-1.2265625,0.052734375,0.15234375,0.15625,-1.90625,11.625,0.0,0.0,0.0,224
225,1696000063176,-1.2294922,0.27734375,-0.14648438,0.09375,-19.375,6.0,0.0,0.0,0.0,225
226,1696000063216,-1.3974609,0.22949219,-0.15332031,43.75,-19.3125,-0.8125,0.0,0.0,0.0,226
227,1696000063256,-1.0546875,0.5751953,-0.10253906,45.875,-24.8125,-9.84375,0.0,0.0,0.0,227
228,1696000063296,-0.87597656,0.5292969,0.009765625,-0.75,-36.46875,-0.28125,0.0,0.0,0.0,228
229,1696000063336,-0.87597656,0.24804688,-0.018554688,-3.6875,-25.125,2.78125,0.0,0.0,0.0,229
230,1696000063376,-1.0107422,0.15527344,0.0859375,16.5625,-28.28125,6.0,0.0,0.0,0.0,230
231,1696000063416,-0.7890625,0.26171875,0.056640625,33.59375,-18.28125,16.5,0.0,0.0,0.0,231
232,1696000063456,-0.6582031,0.3828125,0.13671875,15.15625,-18.34375,27.6875,0.0,0.0,0.0,232
233,1696000063496,-0.63378906,0.36914062,0.12988281,-12.1875,-16.1875,25.53125,-101.5625,20.875,-49.125,233
234,1696000063536,-0.8535156,0.21484375,0.13964844,-28.15625,-2.46875,23.96875,0.0,0.0,0.0,234
235,1696000063576,-0.8251953,0.17773438,0.23242188,-11.5,7.96875,10.71875,0.0,0.0,0.0,235
236,1696000063616,-0.9501953,0.18554688,0.3857422,-8.15625,-2.40625,8.625,0.0,0.0,0.0,236
237,1696000063656,-0.9453125,0.20214844,0.4453125,-8.875,-21.15625,-8.03125,0.0,0.0,0.0,237
238,1696000063696,-0.9746094,0.52441406,0.083984375,26.78125,-104.6875,-28.59375,0.0,0.0,0.0,238
239,1696000063736,-1.9755859,0.60253906,0.5390625,6.8125,2.40625,9.875,0.0,0.0,0.0,239
240,1696000063776,-1.0537109,0.3798828,0.045898438,-52.21875,59.1875,-11.75,0.0,0.0,0.0,240
241,1696000063816,-0.87109375,0.22070312,-0.12207031,-4.96875,27.25,-5.9375,0.0,0.0,0.0,241
242,1696000063856,-0.8876953,0.2626953,-0.06738281,12.71875,11.3125,4.6875,0.0,0.0,0.0,242
243,1696000063896,-0.88671875,0.43847656,0.10546875,-9.65625,29.46875,0.71875,0.0,0.0,0.0,243
244,1696000063936,-0.76953125,0.203125,0.078125,-56.96875,29.53125,-17.1875,0.0,0.0,0.0,244
245,1696000063976,-0.8251953,0.049804688,0.0,-52.21875,17.5625,-19.5,0.0,0.0,0.0,245
246,1696000064016,-0.7441406,0.040039062,-0.01953125,-8.9375,37.4375,-2.53125,-101.5625,18.3125,-47.3125,246
247,1696000064056,-0.9394531,0.13867188,0.11230469,12.3125,29.21875,-3.8125,0.0,0.0,0.0,247
248,1696000064096,-1.0556641,0.14453125,0.15917969,-0.15625,9.8125,-11.6875,0.0,0.0,0.0,248
249,1696000064136,-1.0703125,0.013671875,0.10546875,4.84375,15.40625,-5.40625,0.0,0.0,0.0,249
250,1696000064176,-1.1279297,0.068359375,0.14648438,15.28125,-0.4375,3.75,0.0,0.0,0.0,250
251,1696000064216,-1.1826172,0.27734375,0.111328125,8.03125,-10.71875,2.40625,0.0,0.0,0.0,251
252,1696000064256,-1.3115234,0.20214844,-0.00390625,8.03125,-7.84375,-4.40625,0.0,0.0,0.0,252
253,1696000064296,-1.4394531,0.4013672,-0.06347656,25.25,-12.71875,-6.0,0.0,0.0,0.0,253
254,1696000064336,-1.0332031,0.5625,-0.09863281,16.28125,-23.71875,-3.5625,0.0,0.0,0.0,254
255,1696000064376,-0.92578125,0.46484375,0.001953125,-13.40625,-27.5,-4.1875,0.0,0.0,0.0,255
256,1696000064416,-0.98535156,0.3544922,0.12207031,-3.25,-39.5,-13.40625,0.0,0.0,0.0,256
257,1696000064456,-1.078125,0.19726562,0.07519531,-8.625,-25.21875,-15.03125,0.0,0.0,0.0,257
258,1696000064496,-0.8144531,0.14257812,0.053710938,20.1875,-23.53125,-9.5,-100.375,16.25,-46.6875,258
259,1696000064536,-0.6152344,0.24023438,0.095703125,35.6875,-13.03125,4.0,0.0,0.0,0.0,259
260,1696000064576,-0.57910156,0.32714844,0.111328125,17.90625,-6.875,12.84375,0.0,0.0,0.0,260
261,1696000064616,-0.64160156,0.296875,0.09082031,1.4375,-11.4375,17.1875,0.0,0.0,0.0,261
262,1696000064656,-0.73828125,0.18945312,0.11621094,-5.875,-8.8125,7.65625,0.0,0.0,0.0,262
263,1696000064696,-0.81152344,0.21386719,0.09667969,0.875,-1.6875,1.0625,0.0,0.0,0.0,263
264,1696000064736,-0.9970703,0.5185547,0.02734375,5.84375,-4.65625,6.0,0.0,0.0,0.0,264
265,1696000064776,-1.3115234,0.49902344,0.2763672,-44.65625,9.0625,10.90625,0.0,0.0,0.0,265
266,1696000064816,-1.03125,0.06347656,0.16992188,-56.96875,1.875,-1.96875,0.0,0.0,0.0,266
267,1696000064856,-0.87402344,-0.0126953125,0.1328125,-3.09375,-1.625,-4.53125,0.0,0.0,0.0,267
268,1696000064896,-0.8652344,0.24707031,0.18359375,31.03125,11.03125,11.09375,0.0,0.0,0.0,268
269,1696000064936,-0.91503906,0.3671875,0.16699219,8.75,0.03125,15.40625,0.0,0.0,0.0,269
270,1696000064976,-1.1337891,0.22363281,0.31835938,-15.15625,26.84375,0.65625,0.0,0.0,0.0,331
271,1696000065016,-0.7714844,0.20214844,0.099609375,-23.9375,36.21875,-12.90625,0.0,0.0,0.0,332
272,1696000065056,-0.8300781,0.2783203,0.038085938,-18.34375,15.90625,5.90625,-99.125,17.4375,-48.8125,333
273,1696000065096,-1.0224609,0.3330078,0.16699219,-8.75,6.125,20.84375,0.0,0.0,0.0,334
274,1696000065136,-1.0927734,0.2734375,0.15625,-20.46875,13.09375,17.375,0.0,0.0,0.0,335
275,1696000065176,-0.87109375,0.06933594,0.043945312,-19.8125,17.90625,10.90625,0.0,0.0,0.0,336
276,1696000065216,-1.0839844,-0.0625,0.22851562,12.78125,30.375,13.46875,0.0,0.0,0.0,337
277,1696000065256,-1.2900391,-0.017578125,0.2919922,14.6875,20.78125,-1.125,0.0,0.0,0.0,338
278,1696000065296,-1.0439453,0.034179688,0.20410156,-3.03125,32.375,-20.40625,0.0,0.0,0.0,339
279,1696000065336,-0.78027344,0.046875,0.11035156,-4.46875,41.84375,-6.875,0.0,0.0,0.0,340
280,1696000065376,-0.99902344,0.12207031,0.083984375,16.09375,46.96875,11.5625,0.0,0.0,0.0,341
281,1696000065416,-1.1435547,0.09765625,0.07421875,16.5625,41.59375,4.5625,0.0,0.0,0.0,342
282,1696000065456,-1.4472656,0.032226562,0.18945312,12.90625,19.03125,6.625,0.0,0.0,0.0,343
283,1696000065496,-1.3681641,-0.19238281,0.18554688,-19.375,-4.0625,1.1875,0.0,0.0,0.0,344
284,1696000065536,-1.1914062,0.35253906,-0.23730469,3.875,-43.0625,-1.96875,0.0,0.0,0.0,345
285,1696000065576,-1.3203125,0.3203125,-0.203125,84.8125,-35.1875,4.3125,-103.625,19.5625,-51.375,346
286,1696000065616,-1.1953125,0.7236328,-0.0546875,72.90625,-56.65625,-19.1875,0.0,0.0,0.0,347
287,1696000065656,-0.9550781,0.59472656,-0.0107421875,8.09375,-40.0625,-10.53125,0.0,0.0,0.0,348
288,1696000065696,-0.7988281,0.28320312,0.08984375,5.15625,-28.71875,-2.90625,0.0,0.0,0.0,349
289,1696000065736,-0.9169922,0.15332031,0.009765625,34.15625,-20.71875,23.40625,0.0,0.0,0.0,350
290,1696000065776,-0.59277344,0.2919922,0.0859375,32.8125,1.5625,32.5,0.0,0.0,0.0,351
291,1696000065816,-0.80371094,0.4189453,0.265625,1.6875,-7.34375,40.25,0.0,0.0,0.0,352
292,1696000065856,-0.90625,0.42382812,0.15039062,-26.21875,-8.9375,40.1875,0.0,0.0,0.0,353
293,1696000065896,-1.1416016,0.09472656,0.33007812,-30.78125,8.28125,12.1875,0.0,0.0,0.0,354
294,1696000065936,-1.0273438,0.099609375,0.4892578,-10.15625,-43.1875,-20.15625,0.0,0.0,0.0,355
295,1696000065976,-0.7285156,0.45117188,0.038085938,31.03125,-54.15625,-36.65625,0.0,0.0,0.0,356
296,1696000066016,-1.7871094,0.72753906,0.16113281,37.5625,15.125,32.0625,0.0,0.0,0.0,357
297,1696000066056,-0.82910156,0.4248047,-0.08203125,-41.40625,57.53125,8.34375,-102.4375,23.3125,-51.375,358
298,1696000066096,-0.8535156,0.24121094,0.0009765625,-38.0,19.6875,-14.5,0.0,0.0,0.0,359
299,1696000066136,-0.7451172,0.19921875,0.040039062,-28.78125,8.15625,1.4375,0.0,0.0,0.0,360
300,1696000066176,-0.7285156,0.16210938,0.0546875,-45.4375,59.46875,-1.90625,0.0,0.0,0.0,361
301,1696000066216,-0.6357422,-0.107421875,-0.041015625,-41.46875,57.78125,-5.75,0.0,0.0,0.0,362
302,1696000066256,-0.67578125,0.01953125,0.0,10.71875,32.625,-13.6875,0.0,0.0,0.0,363
303,1696000066296,-1.1748047,0.20996094,0.072265625,50.6875,40.625,-5.875,0.0,0.0,0.0,364
304,1696000066336,-1.375,0.2890625,0.064453125,11.9375,29.46875,2.71875,0.0,0.0,0.0,365
305,1696000066376,-1.265625,0.14453125,0.16308594,-4.53125,3.09375,4.0625,0.0,0.0,0.0,366
306,1696000066416,-1.0898438,0.06542969,0.2705078,-28.84375,-18.9375,-4.90625,0.0,0.0,0.0,367
307,1696000066456,-0.87597656,0.06347656,-0.30664062,-9.4375,-34.4375,-16.6875,0.0,0.0,0.0,368
308,1696000066496,-1.2509766,0.45507812,-0.22851562,41.65625,-51.21875,-13.625,0.0,0.0,0.0,369
309,1696000066536,-1.1181641,0.63671875,0.07421875,41.21875,-61.0,-17.25,0.0,0.0,0.0,370
310,1696000066576,-0.86328125,0.4580078,-0.021484375,-23.46875,-33.28125,-11.875,-99.75,21.625,-53.3125,371
311,1696000066616,-0.88671875,0.13378906,0.03515625,2.53125,-24.6875,-11.4375,0.0,0.0,0.0,372
312,1696000066656,-0.8847656,0.17578125,0.04296875,42.34375,-19.6875,13.09375,0.0,0.0,0.0,373
313,1696000066696,-0.65234375,0.30273438,0.08105469,34.40625,-14.0625,26.78125,0.0,0.0,0.0,374
314,1696000066736,-0.60058594,0.34472656,0.20898438,4.84375,-27.3125,32.9375,0.0,0.0,0.0,375
315,1696000066776,-0.89160156,0.3095703,0.20117188,-19.6875,-12.59375,29.4375,0.0,0.0,0.0,376
316,1696000066816,-0.86816406,0.17480469,0.24707031,-10.21875,18.34375,20.96875,0.0,0.0,0.0,377
317,1696000066856,-1.0078125,0.07714844,0.4580078,-19.8125,4.5,16.03125,0.0,0.0,0.0,378
318,1696000066896,-1.0107422,0.203125,0.5371094,-5.21875,-29.25,-7.53125,0.0,0.0,0.0,379
319,1696000066936,-1.4677734,0.95410156,-0.009765625,23.15625,-62.71875,-12.71875,0.0,0.0,0.0,380
320,1696000066976,-1.171875,0.6513672,0.00390625,-36.40625,86.71875,13.34375,0.0,0.0,0.0,381
321,1696000067016,-0.9453125,0.2734375,0.005859375,-12.46875,43.1875,-14.90625,0.0,0.0,0.0,382
322,1696000067056,-0.9765625,0.21582031,-0.115234375,-6.4375,18.78125,-3.9375,-99.875,24.625,-50.0,383
323,1696000067096,-0.9160156,0.3544922,0.107421875,-3.1875,16.15625,-0.75,0.0,0.0,0.0,384
324,1696000067136,-0.85058594,0.3388672,0.16894531,-52.28125,41.125,-12.125,0.0,0.0,0.0,385
325,1696000067176,-0.6855469,0.02734375,0.018554688,-72.59375,23.90625,-17.3125,0.0,0.0,0.0,386
326,1696000067216,-0.5214844,-0.068359375,-0.115234375,-43.46875,41.1875,-2.21875,0.0,0.0,0.0,387
327,1696000067256,-0.81347656,0.072265625,-0.0029296875,16.40625,52.03125,11.25,0.0,0.0,0.0,388
328,1696000067296,-1.0878906,0.29296875,0.083984375,26.78125,33.4375,5.28125,0.0,0.0,0.0,389
329,1696000067336,-1.2763672,0.26660156,0.18945312,-23.78125,25.90625,3.6875,0.0,0.0,0.0,390
330,1696000067376,-1.2558594,0.072265625,0.06347656,-38.84375,13.46875,2.84375,0.0,0.0,0.0,391
331,1696000067416,-1.2236328,0.14257812,0.21191406,-15.40625,-1.71875,4.90625,0.0,0.0,0.0,392
332,1696000067456,-1.046875,0.1875,-0.18457031,-4.25,-29.9375,-2.84375,0.0,0.0,0.0,393
333,1696000067496,-0.9980469,0.43359375,-0.12011719,23.46875,-46.09375,-25.78125,0.0,0.0,0.0,394
334,1696000067536,-0.9863281,0.3857422,0.057617188,24.5625,-55.5,-15.34375,0.0,0.0,0.0,395
335,1696000067576,-0.7841797,0.22167969,-0.037109375,12.5,-42.4375,-5.53125,-100.5,22.6875,-46.5625,396
336,1696000067616,-0.91796875,0.13769531,0.09863281,50.625,-39.8125,0.03125,0.0,0.0,0.0,397
337,1696000067656,-0.81347656,0.21972656,0.049804688,68.875,-31.40625,-0.28125,0.0,0.0,0.0,398
338,1696000067696,-0.7128906,0.36035156,0.119140625,67.90625,-23.71875,13.53125,0.0,0.0,0.0,399
339,1696000067736,-0.6484375,0.36132812,0.16992188,51.59375,-6.4375,23.40625,0.0,0.0,0.0,400
340,1696000067776,-0.79003906,0.3017578,0.1328125,35.5625,1.875,21.625,0.0,0.0,0.0,401
341,1696000067816,-0.90625,0.33984375,0.19238281,25.53125,1.5,19.8125,0.0,0.0,0.0,402
342,1696000067856,-0.9716797,0.28320312,0.359375,-7.0,3.40625,14.3125,0.0,0.0,0.0,403
343,1696000067896,-1.0380859,0.1953125,0.41601562,-27.375,-11.8125,-0.34375,0.0,0.0,0.0,404
344,1696000067936,-0.9501953,0.29101562,0.083984375,19.1875,-66.90625,-12.65625,0.0,0.0,0.0,405
345,1696000067976,-1.8115234,0.5966797,0.3076172,28.125,10.28125,40.6875,0.0,0.0,0.0,406
346,1696000068016,-0.88671875,0.4658203,0.17382812,-27.96875,46.90625,-2.59375,0.0,0.0,0.0,407
347,1696000068056,-0.796875,0.38476562,-0.11230469,-11.625,27.0625,-14.90625,-97.9375,26.75,-45.5,408
348,1696000068096,-0.9501953,0.31152344,-0.07519531,-2.03125,14.25,-2.96875,0.0,0.0,0.0,409
349,1696000068136,-0.89160156,0.44921875,0.08496094,-45.0625,35.4375,-1.1875,0.0,0.0,0.0,410
350,1696000068176,-0.6982422,0.18066406,0.09765625,-86.15625,31.34375,-21.15625,0.0,0.0,0.0,411
351,1696000068216,-0.5175781,-0.17382812,-0.07324219,-79.125,41.84375,-22.125,0.0,0.0,0.0,412
352,1696000068256,-0.7949219,0.009765625,-0.00390625,1.5,59.4375,-3.125,0.0,0.0,0.0,413
353,1696000068296,-0.90625,0.12402344,0.14355469,35.125,36.28125,1.3125,0.0,0.0,0.0,414
354,1696000068336,-1.0488281,0.23730469,0.15136719,8.75,18.21875,-4.90625,0.0,0.0,0.0,415
355,1696000068376,-1.140625,0.17480469,0.09082031,-5.15625,19.6875,-7.71875,0.0,0.0,0.0,416
356,1696000068416,-1.2226562,0.119140625,-0.020507812,-6.5625,12.125,-2.59375,0.0,0.0,0.0,417
357,1696000068456,-1.3974609,0.017578125,0.055664062,-14.8125,0.53125,2.71875,0.0,0.0,0.0,418
358,1696000068496,-1.2929688,0.07421875,-0.15527344,2.90625,-7.46875,-6.875,0.0,0.0,0.0,419
359,1696000068536,-1.1621094,0.4560547,-0.061523438,34.28125,-22.90625,-18.40625,0.0,0.0,0.0,420
360,1696000068576,-0.85058594,0.51953125,0.013671875,19.4375,-48.65625,-12.0625,-101.5625,23.75,-49.4375,421
361,1696000068616,-0.88378906,0.3466797,0.10449219,-14.96875,-47.5625,-6.9375,0.0,0.0,0.0,422
362,1696000068656,-0.89746094,0.11035156,0.11816406,15.28125,-34.21875,-3.4375,0.0,0.0,0.0,423
363,1696000068696,-0.9667969,0.07324219,-0.0146484375,56.375,-38.65625,-2.28125,0.0,0.0,0.0,424
364,1696000068736,-0.5751953,0.26660156,0.0,78.71875,-17.53125,15.84375,0.0,0.0,0.0,425
365,1696000068776,-0.63378906,0.48046875,0.23925781,58.25,-18.09375,27.9375,0.0,0.0,0.0,426
366,1696000068816,-0.9921875,0.44433594,0.23730469,19.03125,-19.625,29.15625,0.0,0.0,0.0,427
367,1696000068856,-1.1201172,0.2265625,0.23046875,17.3125,16.5625,19.3125,0.0,0.0,0.0,428
368,1696000068896,-1.1113281,0.12402344,0.4267578,6.5,3.625,-2.96875,0.0,0.0,0.0,429
369,1696000068936,-0.9140625,0.32617188,0.5107422,19.5625,-69.25,-30.125,0.0,0.0,0.0,430
370,1696000068976,-1.4023438,0.6015625,0.30859375,23.84375,-27.375,3.15625,0.0,0.0,0.0,431
371,1696000069016,-1.0341797,0.5517578,-0.107421875,-67.21875,71.8125,1.9375,0.0,0.0,0.0,432
372,1696000069056,-1.0341797,0.38671875,-0.017578125,-25.59375,5.53125,-8.75,-98.5625,25.375,-47.1875,433
373,1696000069096,-0.8701172,0.2705078,-0.08203125,-33.28125,12.125,2.53125,0.0,0.0,0.0,434
374,1696000069136,-0.9033203,0.35839844,0.0390625,-45.0,40.8125,5.40625,0.0,0.0,0.0,435
375,1696000069176,-0.8564453,0.2421875,0.040039062,-72.59375,34.8125,-4.53125,0.0,0.0,0.0,436
376,1696000069216,-0.6171875,-0.060546875,-0.05078125,-71.5,31.28125,-10.28125,0.0,0.0,0.0,437
377,1696000069256,-0.72265625,-0.049804688,-0.01953125,-23.71875,51.1875,-4.84375,0.0,0.0,0.0,438
378,1696000069296,-0.8496094,0.07519531,0.08300781,7.84375,40.125,4.5625,0.0,0.0,0.0,439
379,1696000069336,-0.98828125,0.10839844,0.07910156,-0.46875,28.40625,-3.09375,0.0,0.0,0.0,440
380,1696000069376,-1.1386719,0.6777344,-0.24902344,-1.375,31.28125,0.65625,0.0,0.0,0.0,441
381,1696000069416,-1.2636719,0.028320312,0.048828125,-11.3125,19.6875,-1.125,0.0,0.0,0.0,442
382,1696000069456,-1.4033203,0.3076172,-0.052734375,0.53125,0.65625,3.9375,0.0,0.0,0.0,443
383,1696000069496,-1.4648438,0.16699219,-0.23144531,24.15625,-17.40625,9.0625,0.0,0.0,0.0,444
384,1696000069536,-1.0322266,0.67285156,-0.11621094,44.90625,-36.9375,-8.375,0.0,0.0,0.0,445
385,1696000069576,-0.89746094,0.6894531,0.041992188,1.125,-44.15625,-3.6875,-102.125,21.0625,-53.4375,446
386,1696000069616,-0.8730469,0.39746094,0.060546875,-32.25,-40.1875,-2.96875,0.0,0.0,0.0,447
387,1696000069656,-0.98046875,0.06933594,0.09667969,-8.3125,-19.125,2.09375,0.0,0.0,0.0,448
388,1696000069696,-0.79785156,0.061523438,-0.0009765625,36.71875,-25.28125,19.25,0.0,0.0,0.0,449
389,1696000069736,-0.4404297,0.29492188,0.0068359375,63.375,5.90625,30.75,0.0,0.0,0.0,450
390,1696000069776,-0.47265625,0.48339844,0.140625,41.59375,-20.46875,25.90625,0.0,0.0,0.0,451
391,1696000069816,-0.8378906,0.43847656,0.20214844,-0.75,-27.0625,21.21875,0.0,0.0,0.0,452
392,1696000069856,-1.0058594,0.25976562,0.19824219,-5.59375,11.375,10.21875,0.0,0.0,0.0,453
393,1696000069896,-1.1113281,0.1953125,0.34765625,-2.15625,4.25,7.59375,0.0,0.0,0.0,454
394,1696000069936,-1.1210938,0.17675781,0.5419922,-0.21875,-29.5,-4.46875,0.0,0.0,0.0,455
395,1696000069976,-1.3066406,0.8964844,-0.23339844,20.0,-70.40625,-35.375,0.0,0.0,0.0,456
396,1696000070016,-1.0400391,0.5107422,-0.015625,-21.625,60.34375,-2.15625,0.0,0.0,0.0,457
397,1696000070056,-0.8378906,0.37695312,-0.061523438,-34.8125,37.625,-19.375,-100.625,21.5,-50.625,458
398,1696000070096,-1.0253906,0.21679688,-0.09765625,-20.40625,8.6875,-11.625,0.0,0.0,0.0,459
399,1696000070136,-0.90527344,0.37890625,-0.0009765625,-7.34375,9.9375,-7.28125,0.0,0.0,0.0,460
400,1696000070176,-0.90527344,0.36328125,0.087890625,-54.46875,35.3125,-13.8125,0.0,0.0,0.0,461
401,1696000070216,-0.71484375,0.13964844,0.047851562,-66.875,29.40625,-20.03125,0.0,0.0,0.0,462
402,1696000070256,-0.6894531,-0.040039062,-0.055664062,-44.28125,40.3125,-2.71875,0.0,0.0,0.0,463
403,1696000070296,-1.0195312,0.09765625,0.00390625,14.0625,42.625,6.9375,0.0,0.0,0.0,464
404,1696000070336,-1.1386719,0.2265625,0.109375,4.0,41.25,8.75,0.0,0.0,0.0,465
405,1696000070376,-1.1542969,0.13867188,0.20996094,-9.375,32.875,14.5,0.0,0.0,0.0,466
406,1696000070416,-1.0429688,0.16699219,0.3408203,-22.0,2.84375,20.1875,0.0,0.0,0.0,467
407,1696000070456,-0.9033203,0.35058594,-0.43359375,-41.65625,-22.4375,4.90625,0.0,0.0,0.0,468
408,1696000070496,-1.3525391,0.21484375,-0.22851562,27.1875,-38.28125,-5.53125,0.0,0.0,0.0,469
409,1696000070536,-1.1435547,0.51464844,-0.060546875,67.1875,-41.15625,-28.78125,0.0,0.0,0.0,470
410,1696000070576,-0.9238281,0.54003906,-0.049804688,10.96875,-42.09375,-6.875,-100.1875,20.125,-55.6875,471
411,1696000070616,-0.8417969,0.28710938,0.020507812,5.78125,-30.46875,2.90625,0.0,0.0,0.0,472
412,1696000070656,-0.9140625,0.16992188,0.053710938,18.03125,-37.75,8.28125,0.0,0.0,0.0,473
413,1696000070696,-0.6923828,0.33203125,0.115234375,17.0,-25.96875,15.71875,0.0,0.0,0.0,474
414,1696000070736,-0.55859375,0.30566406,0.18164062,2.0625,-22.5,20.59375,0.0,0.0,0.0,475
415,1696000070776,-0.7871094,0.25195312,0.18652344,-6.375,-15.53125,20.3125,0.0,0.0,0.0,476
416,1696000070816,-0.9091797,0.22851562,0.22753906,-2.78125,-0.6875,13.28125,0.0,0.0,0.0,477
417,1696000070856,-1.0664062,0.19433594,0.36621094,10.78125,-3.4375,8.53125,0.0,0.0,0.0,478
418,1696000070896,-1.0546875,0.21484375,0.5908203,-5.34375,-24.125,-4.53125,0.0,0.0,0.0,479
419,1696000070936,-1.2363281,0.5205078,0.50878906,13.09375,-35.375,-33.09375,0.0,0.0,0.0,480
420,1696000070976,-1.3505859,0.5498047,0.09082031,-17.3125,42.34375,2.90625,0.0,0.0,0.0,481
421,1696000071016,-0.8261719,0.2578125,-0.02734375,-30.84375,50.15625,-12.59375,0.0,0.0,0.0,482
422,1696000071056,-0.8496094,0.16894531,-0.10449219,-7.09375,6.09375,-19.3125,-100.1875,20.4375,-51.5,483
423,1696000071096,-0.8417969,0.23242188,0.013671875,15.21875,-5.28125,-11.625,0.0,0.0,0.0,484
424,1696000071136,-0.8154297,0.33007812,0.14160156,-24.4375,30.8125,-9.375,0.0,0.0,0.0,485
425,1696000071176,-0.7519531,0.072265625,0.046875,-51.40625,30.3125,-14.125,0.0,0.0,0.0,486
426,1696000071216,-0.67089844,-0.0859375,-0.047851562,-32.75,24.9375,-5.875,0.0,0.0,0.0,487
427,1696000071256,-0.875,0.10644531,0.00390625,16.875,52.46875,6.875,0.0,0.0,0.0,488
428,1696000071296,-1.1152344,0.171875,0.15429688,25.0625,35.8125,-4.46875,0.0,0.0,0.0,489
429,1696000071336,-1.1660156,0.20996094,0.095703125,-0.6875,26.53125,3.9375,0.0,0.0,0.0,490
430,1696000071376,-1.3007812,0.12890625,0.21777344,-9.96875,21.9375,12.90625,0.0,0.0,0.0,491
431,1696000071416,-1.2255859,0.015625,0.17773438,-20.0,-0.03125,10.84375,0.0,0.0,0.0,492
432,1696000071456,-1.09375,0.13867188,-0.15722656,-6.0,-28.59375,1.9375,0.0,0.0,0.0,493
433,1696000071496,-1.1445312,0.25683594,-0.09277344,24.75,-30.125,-13.5625,0.0,0.0,0.0,494
434,1696000071536,-1.0683594,0.44140625,0.0390625,44.03125,-35.96875,-24.5625,0.0,0.0,0.0,495
435,1696000071576,-0.9091797,0.4814453,0.022460938,0.53125,-53.4375,-9.4375,-99.875,20.3125,-51.0625,496
436,1696000071616,-0.8105469,0.26171875,0.04296875,10.65625,-34.4375,-5.21875,0.0,0.0,0.0,497
437,1696000071656,-0.8886719,0.11230469,0.06738281,32.0625,-43.1875,1.4375,0.0,0.0,0.0,498
438,1696000071696,-0.796875,0.2421875,0.09667969,56.1875,-25.78125,11.8125,0.0,0.0,0.0,499
439,1696000071736,-0.67578125,0.3935547,0.203125,39.53125,-24.25,23.90625,0.0,0.0,0.0,500
440,1696000071776,-0.7626953,0.37402344,0.24023438,-7.03125,-14.90625,24.625,0.0,0.0,0.0,501
441,1696000071816,-0.96777344,0.22851562,0.17871094,-13.40625,6.5625,16.8125,0.0,0.0,0.0,502
442,1696000071856,-0.890625,0.20800781,0.28027344,-1.4375,10.15625,18.71875,0.0,0.0,0.0,503
443,1696000071896,-0.96191406,0.16699219,0.4033203,-14.4375,-0.40625,15.59375,0.0,0.0,0.0,504
444,1696000071936,-1.0927734,0.23730469,0.3408203,-14.625,-14.78125,-14.6875,0.0,0.0,0.0,505
445,1696000071976,-1.4609375,1.0166016,-0.111328125,9.5625,-60.21875,-16.09375,0.0,0.0,0.0,506
446,1696000072016,-1.0625,0.4765625,0.080078125,-66.1875,90.0,8.59375,0.0,0.0,0.0,507
447,1696000072056,-0.8613281,0.23535156,0.017578125,-21.4375,42.15625,-7.65625,-99.875,20.3125,-49.5625,508
448,1696000072096,-0.9082031,0.18945312,-0.076171875,-17.78125,16.8125,3.5625,0.0,0.0,0.0,509
449,1696000072136,-0.89941406,0.30371094,0.078125,-8.09375,18.15625,-4.90625,0.0,0.0,0.0,510
450,1696000072176,-0.890625,0.20605469,0.15527344,-46.71875,30.0,-13.875,0.0,0.0,0.0,511
451,1696000072216,-0.7988281,0.052734375,0.1015625,-50.1875,13.21875,-22.125,0.0,0.0,0.0,512
452,1696000072256,-0.7451172,-0.043945312,0.02734375,-27.96875,30.375,-5.8125,0.0,0.0,0.0,513
453,1696000072296,-0.82910156,0.045898438,0.043945312,9.75,55.03125,6.1875,0.0,0.0,0.0,514
454,1696000072336,-0.8798828,0.17382812,0.10644531,19.5,23.28125,-0.9375,0.0,0.0,0.0,515
455,1696000072376,-0.9580078,0.16015625,0.080078125,3.5,31.34375,2.34375,0.0,0.0,0.0,516
456,1696000072416,-1.1240234,0.11621094,0.12890625,5.65625,24.5625,7.25,0.0,0.0,0.0,517
457,1696000072456,-1.2841797,0.044921875,0.12597656,-11.5,5.78125,-0.09375,0.0,0.0,0.0,518
458,1696000072496,-1.40625,0.34277344,0.029296875,-14.0625,-6.875,-8.625,0.0,0.0,0.0,519
459,1696000072536,-1.4638672,0.07421875,-0.15722656,19.6875,-20.40625,-3.09375,-100.1875,18.3125,-51.8125,520
460,1696000072576,-1.0214844,0.484375,-0.07324219,41.0,-31.09375,-12.21875,0.0,0.0,0.0,521
461,1696000072616,-0.89746094,0.5263672,0.047851562,18.15625,-47.3125,-0.28125,0.0,0.0,0.0,522
462,1696000072656,-0.9199219,0.3330078,0.125,-7.71875,-49.78125,7.71875,0.0,0.0,0.0,523
463,1696000072696,-0.93359375,0.11230469,0.111328125,19.25,-34.3125,5.21875,0.0,0.0,0.0,524
464,1696000072736,-0.8378906,0.11035156,0.053710938,45.5625,-40.375,12.4375,0.0,0.0,0.0,525
465,1696000072776,-0.6152344,0.23828125,0.08496094,60.21875,-29.0625,19.4375,0.0,0.0,0.0,526
466,1696000072816,-0.67578125,0.47265625,0.18457031,43.1875,-13.34375,30.125,0.0,0.0,0.0,527
467,1696000072856,-0.8691406,0.30078125,0.24511719,7.0625,-2.71875,29.15625,0.0,0.0,0.0,528
468,1696000072896,-0.87402344,0.2265625,0.21972656,4.0625,33.125,16.21875,0.0,0.0,0.0,529
469,1696000072936,-0.9667969,0.24023438,0.31640625,13.875,0.34375,13.46875,0.0,0.0,0.0,530
470,1696000072976,-1.1152344,0.15332031,0.4638672,-5.09375,0.84375,4.71875,0.0,0.0,0.0,531
471,1696000073016,-0.9550781,0.3623047,-0.12402344,-3.625,-22.3125,-34.5,0.0,0.0,0.0,532
472,1696000073056,-1.4365234,0.8535156,0.111328125,28.34375,-36.28125,-17.0,-99.125,22.5625,-46.4375,533
473,1696000073096,-0.87109375,0.4267578,0.038085938,-64.1875,62.84375,-20.59375,0.0,0.0,0.0,534
474,1696000073136,-0.89746094,0.29785156,-0.057617188,-15.28125,2.71875,-28.21875,0.0,0.0,0.0,535
475,1696000073176,-0.9980469,0.2529297,-0.07128906,-0.6875,0.40625,-7.59375,0.0,0.0,0.0,536
476,1696000073216,-0.98046875,0.44921875,0.14648438,-5.28125,25.1875,-7.53125,0.0,0.0,0.0,537
477,1696000073256,-0.87109375,0.27929688,0.10839844,-59.46875,40.4375,-15.53125,0.0,0.0,0.0,538
478,1696000073296,-0.72753906,-0.01953125,0.02734375,-53.1875,28.78125,-19.4375,0.0,0.0,0.0,539
479,1696000073336,-0.73535156,0.020507812,-0.024414062,-20.46875,56.75,-0.625,0.0,0.0,0.0,540
480,1696000073376,-0.8574219,0.119140625,0.078125,12.78125,49.15625,8.75,0.0,0.0,0.0,541
481,1696000073416,-1.0058594,0.19042969,0.1015625,1.125,28.78125,9.125,0.0,0.0,0.0,542
482,1696000073456,-1.2080078,0.08691406,0.1015625,-5.71875,31.40625,17.25,0.0,0.0,0.0,543
483,1696000073496,-1.2128906,0.07910156,0.13769531,3.34375,10.09375,17.96875,0.0,0.0,0.0,544
484,1696000073536,-1.1884766,0.33984375,-0.056640625,-13.09375,-12.40625,12.4375,-100.8125,18.3125,-53.0,545
485,1696000073576,-1.2539062,0.18164062,-0.18359375,23.15625,-14.3125,8.09375,0.0,0.0,0.0,546
486,1696000073616,-1.0332031,0.5527344,-0.111328125,20.25,-26.9375,-13.34375,0.0,0.0,0.0,547
487,1696000073656,-0.9814453,0.5488281,0.06738281,0.71875,-34.625,-6.125,0.0,0.0,0.0,548
488,1696000073696,-0.8691406,0.36035156,-0.0546875,-24.9375,-37.25,1.875,0.0,0.0,0.0,549
489,1696000073736,-0.99902344,0.171875,0.095703125,14.5625,-36.46875,3.5625,0.0,0.0,0.0,550
490,1696000073776,-0.9404297,0.25683594,0.033203125,22.4375,-31.875,9.25,0.0,0.0,0.0,551
491,1696000073816,-0.6542969,0.37890625,0.10449219,19.8125,-26.6875,15.78125,0.0,0.0,0.0,552
492,1696000073856,-0.6894531,0.39941406,0.36816406,0.46875,-17.53125,29.21875,0.0,0.0,0.0,553
493,1696000073896,-0.90527344,0.28515625,0.22070312,-22.625,5.78125,26.9375,0.0,0.0,0.0,554
494,1696000073936,-0.7529297,0.17578125,0.19335938,-13.03125,34.71875,22.0625,0.0,0.0,0.0,555
495,1696000073976,-0.83203125,0.08886719,0.32128906,-2.46875,24.9375,15.65625,0.0,0.0,0.0,556
496,1696000074016,-0.9189453,0.14160156,0.39257812,-8.75,-1.6875,-3.9375,0.0,0.0,0.0,557
497,1696000074056,-1.1181641,0.49902344,0.14257812,10.03125,-75.21875,-26.34375,-101.6875,21.0625,-51.6875,558
498,1696000074096,-1.8457031,0.67089844,0.49414062,14.4375,-66.5,0.15625,0.0,0.0,0.0,559
499,1696000074136,-1.0498047,0.45214844,-0.025390625,-69.90625,87.375,-4.375,0.0,0.0,0.0,560
500,1696000074176,-0.9033203,0.20507812,-0.017578125,-3.125,-0.09375,-17.53125,0.0,0.0,0.0,561
501,1696000074216,-0.9111328,0.15429688,-0.08886719,15.90625,18.03125,-3.5625,0.0,0.0,0.0,562
502,1696000074256,-0.9951172,0.33691406,0.016601562,21.40625,30.375,-8.6875,0.0,0.0,0.0,563
503,1696000074296,-0.8876953,0.32714844,0.07519531,-12.28125,25.25,-10.78125,0.0,0.0,0.0,564
504,1696000074336,-0.7089844,0.203125,0.032226562,-34.5625,14.25,-19.5625,0.0,0.0,0.0,565
505,1696000074376,-0.7080078,0.02734375,0.0,-34.9375,33.4375,-6.75,0.0,0.0,0.0,566
506,1696000074416,-0.90234375,0.046875,-0.03515625,8.8125,42.6875,3.03125,0.0,0.0,0.0,567
507,1696000074456,-0.92089844,0.22753906,0.072265625,14.625,10.96875,-6.1875,0.0,0.0,0.0,568
508,1696000074496,-0.90527344,0.1328125,0.0859375,2.34375,15.78125,-9.84375,0.0,0.0,0.0,569
509,1696000074536,-1.0029297,0.17285156,0.052734375,8.9375,12.125,2.53125,-102.0,17.125,-54.0625,570
510,1696000074576,-1.1962891,0.140625,0.10839844,-5.34375,3.21875,3.875,0.0,0.0,0.0,571
511,1696000074616,-1.2695312,0.32910156,0.24609375,-15.28125,3.34375,2.09375,0.0,0.0,0.0,572
512,1696000074656,-1.3496094,-0.01953125,-0.055664062,-40.90625,-2.21875,-4.71875,0.0,0.0,0.0,573
513,1696000074696,-1.3398438,0.37695312,-0.11621094,15.90625,-9.3125,-6.25,0.0,0.0,0.0,574
514,1696000074736,-0.9501953,0.4404297,-0.038085938,20.84375,-13.5625,1.875,0.0,0.0,0.0,575
515,1696000074776,-0.81152344,0.43652344,0.02734375,-20.0,-25.46875,1.125,0.0,0.0,0.0,576
516,1696000074816,-0.8769531,0.25,0.037109375,-1.0625,-31.09375,-17.53125,0.0,0.0,0.0,577
517,1696000074856,-0.9980469,0.18359375,0.01171875,20.71875,-32.625,-10.90625,0.0,0.0,0.0,578
518,1696000074896,-0.86621094,0.25,0.087890625,36.15625,-23.46875,0.21875,0.0,0.0,0.0,579
519,1696000074936,-0.78222656,0.3076172,0.14550781,27.0,-20.96875,4.5625,0.0,0.0,0.0,580
520,1696000074976,-0.72753906,0.25390625,0.083984375,5.09375,-15.59375,5.15625,0.0,0.0,0.0,581
521,1696000075016,-0.6982422,0.19628906,0.06640625,-1.3125,-17.125,7.78125,0.0,0.0,0.0,582
522,1696000075056,-0.66503906,0.14355469,0.103515625,3.75,-8.09375,4.125,-100.8125,15.0625,-50.75,583
523,1696000075096,-0.65527344,0.11328125,0.09863281,9.75,0.875,-6.6875,0.0,0.0,0.0,584
524,1696000075136,-0.9082031,-0.08300781,0.061523438,-22.0625,29.28125,-7.28125,0.0,0.0,0.0,631
525,1696000075176,-0.9316406,0.1015625,0.18066406,-1.75,32.4375,3.5625,0.0,0.0,0.0,632
526,1696000075216,-0.9189453,0.12402344,0.20996094,-24.625,27.25,-8.5,-97.375,15.9375,-52.4375,633
527,1696000075256,-0.8535156,0.08300781,0.10058594,-31.9375,28.21875,-5.21875,0.0,0.0,0.0,634
528,1696000075296,-0.9589844,0.125,0.1328125,-15.40625,15.90625,7.90625,0.0,0.0,0.0,635
529,1696000075336,-1.0498047,-0.01953125,0.16699219,-32.625,1.25,2.21875,0.0,0.0,0.0,636
530,1696000075376,-1.109375,-0.06640625,0.11230469,-13.28125,8.875,5.03125,0.0,0.0,0.0,637
531,1696000075416,-1.4394531,-0.12890625,-0.01953125,14.5,8.15625,15.71875,0.0,0.0,0.0,638
532,1696000075456,-1.6806641,0.31347656,-0.032226562,49.09375,8.75,12.65625,0.0,0.0,0.0,639
533,1696000075496,-1.1757812,0.5126953,0.0107421875,38.84375,-9.59375,-2.46875,0.0,0.0,0.0,640
534,1696000075536,-0.8828125,0.4716797,0.038085938,3.5,-24.5625,9.1875,0.0,0.0,0.0,641
535,1696000075576,-0.9560547,0.265625,0.13183594,5.28125,-31.65625,17.71875,0.0,0.0,0.0,642
536,1696000075616,-0.8886719,0.20117188,0.13671875,16.03125,-22.5625,6.5625,0.0,0.0,0.0,643
537,1696000075656,-0.78125,0.20605469,0.123046875,26.28125,-18.28125,7.59375,0.0,0.0,0.0,644
538,1696000075696,-0.74609375,0.25683594,0.18164062,17.625,-15.71875,18.09375,-100.625,18.8125,-53.75,645
539,1696000075736,-0.7167969,0.27246094,0.16894531,-8.625,-13.8125,16.9375,0.0,0.0,0.0,646
540,1696000075776,-0.80566406,0.2939453,0.21582031,-16.1875,-12.84375,14.0625,0.0,0.0,0.0,647
541,1696000075816,-0.7265625,0.11816406,0.21679688,-9.125,0.78125,11.5625,0.0,0.0,0.0,648
542,1696000075856,-0.8251953,0.21386719,0.23046875,6.3125,5.59375,18.09375,0.0,0.0,0.0,649
543,1696000075896,-0.94433594,0.20800781,0.30078125,10.65625,7.71875,16.75,0.0,0.0,0.0,650
544,1696000075936,-1.1015625,0.20800781,0.4580078,2.28125,-1.84375,-4.375,0.0,0.0,0.0,651
545,1696000075976,-1.2792969,0.4765625,0.055664062,11.21875,-60.875,-19.6875,0.0,0.0,0.0,652
546,1696000076016,-1.5117188,0.7705078,0.14648438,5.90625,-51.0625,-22.3125,0.0,0.0,0.0,653
547,1696000076056,-1.0625,0.3876953,0.025390625,-49.53125,55.09375,-8.28125,0.0,0.0,0.0,654
548,1696000076096,-0.875,0.16601562,-0.10058594,-10.53125,24.3125,-7.0,0.0,0.0,0.0,655
549,1696000076136,-0.890625,0.20507812,-0.045898438,6.125,6.5625,-2.84375,0.0,0.0,0.0,656
550,1696000076176,-0.9277344,0.34472656,0.0859375,-0.8125,21.8125,-3.25,0.0,0.0,0.0,657
551,1696000076216,-0.8984375,0.2265625,0.12792969,-42.5,39.46875,-6.125,-100.1875,21.625,-52.5625,658
552,1696000076256,-0.6904297,0.0048828125,0.029296875,-42.9375,25.0625,-10.09375,0.0,0.0,0.0,659
553,1696000076296,-0.6748047,0.0078125,-0.055664062,-11.8125,52.40625,2.09375,0.0,0.0,0.0,660
554,1696000076336,-0.8642578,0.15722656,0.09472656,16.9375,40.4375,4.625,0.0,0.0,0.0,661
555,1696000076376,-0.8808594,0.24511719,0.060546875,7.40625,20.53125,1.5625,0.0,0.0,0.0,662
556,1696000076416,-1.1523438,0.15820312,0.203125,-19.5,26.40625,9.90625,0.0,0.0,0.0,663
557,1696000076456,-1.3183594,-0.04296875,0.10253906,-26.875,7.1875,15.34375,0.0,0.0,0.0,664
558,1696000076496,-1.2744141,0.22265625,0.22167969,-2.09375,-5.9375,7.59375,0.0,0.0,0.0,665
559,1696000076536,-1.21875,0.20703125,-0.18652344,19.875,-19.125,-0.09375,0.0,0.0,0.0,666
560,1696000076576,-1.078125,0.5078125,-0.0625,44.53125,-25.59375,-23.46875,0.0,0.0,0.0,667
561,1696000076616,-1.0517578,0.47460938,0.045898438,25.3125,-31.8125,-8.28125,0.0,0.0,0.0,668
562,1696000076656,-0.8300781,0.31933594,-0.047851562,18.65625,-38.1875,7.46875,0.0,0.0,0.0,669
563,1696000076696,-0.89453125,0.20703125,0.06542969,52.09375,-32.3125,4.6875,-102.3125,21.1875,-52.5625,670
564,1696000076736,-0.8535156,0.27929688,0.07128906,58.8125,-26.40625,10.09375,0.0,0.0,0.0,671
565,1696000076776,-0.6308594,0.39453125,0.080078125,38.125,-17.1875,23.78125,0.0,0.0,0.0,672
566,1696000076816,-0.65234375,0.35058594,0.22753906,1.625,-12.78125,20.25,0.0,0.0,0.0,673
567,1696000076856,-0.9394531,0.25878906,0.20898438,-16.1875,-4.3125,19.0625,0.0,0.0,0.0,674
568,1696000076896,-0.8828125,0.14160156,0.23339844,-0.21875,8.03125,13.78125,0.0,0.0,0.0,675
569,1696000076936,-0.93847656,0.14453125,0.35546875,-0.28125,8.6875,9.875,0.0,0.0,0.0,676
570,1696000076976,-1.0322266,0.16601562,0.46777344,-14.90625,-13.875,-9.25,0.0,0.0,0.0,677
571,1696000077016,-1.0585938,0.49121094,-0.001953125,39.46875,-119.90625,-27.84375,0.0,0.0,0.0,678
572,1696000077056,-1.6582031,0.7285156,0.23339844,5.46875,-7.28125,0.15625,0.0,0.0,0.0,679
573,1696000077096,-0.99609375,0.3466797,0.11425781,-43.1875,53.3125,-7.78125,0.0,0.0,0.0,680
574,1696000077136,-0.76660156,0.22363281,-0.09277344,-15.84375,24.21875,-5.75,0.0,0.0,0.0,681
575,1696000077176,-0.9433594,0.21875,-0.07519531,13.40625,-2.84375,-2.28125,0.0,0.0,0.0,682
576,1696000077216,-0.99902344,0.34960938,0.14941406,1.4375,16.34375,-2.65625,-101.375,22.5625,-51.6875,683
577,1696000077256,-0.8613281,0.26660156,0.171875,-34.875,19.1875,-8.9375,0.0,0.0,0.0,684
578,1696000077296,-0.69140625,0.10644531,0.044921875,-41.78125,20.78125,-11.75,0.0,0.0,0.0,685
579,1696000077336,-0.7373047,0.06347656,-0.046875,-31.21875,54.96875,7.53125,0.0,0.0,0.0,686
580,1696000077376,-0.84375,0.09472656,0.08496094,-3.1875,33.59375,-1.125,0.0,0.0,0.0,687
581,1696000077416,-0.8720703,0.16601562,0.1328125,-1.5,22.5625,-3.3125,0.0,0.0,0.0,688
582,1696000077456,-1.0439453,0.14257812,0.08105469,-10.90625,35.8125,8.46875,0.0,0.0,0.0,689
583,1696000077496,-1.2871094,0.109375,0.23535156,-18.65625,11.28125,16.875,0.0,0.0,0.0,690
584,1696000077536,-1.3134766,0.022460938,0.19726562,-26.21875,-1.6875,2.28125,0.0,0.0,0.0,691
585,1696000077576,-1.2548828,0.026367188,-0.08496094,-0.46875,-20.53125,5.65625,0.0,0.0,0.0,692
586,1696000077616,-1.2431641,0.3935547,-0.19335938,49.71875,-16.25,6.0625,0.0,0.0,0.0,693
587,1696000077656,-1.0019531,0.63671875,0.024414062,46.59375,-18.75,-11.3125,0.0,0.0,0.0,694
588,1696000077696,-0.8886719,0.53515625,0.08300781,-8.03125,-30.0,-3.8125,-101.375,20.75,-51.0625,695
589,1696000077736,-0.8183594,0.19140625,0.0,1.0,-24.6875,4.84375,0.0,0.0,0.0,696
590,1696000077776,-0.88378906,0.1171875,0.059570312,35.75,-29.1875,10.90625,0.0,0.0,0.0,697
591,1696000077816,-0.73046875,0.23632812,0.099609375,48.125,-24.75,15.15625,0.0,0.0,0.0,698
592,1696000077856,-0.70410156,0.39453125,0.16015625,35.3125,-20.71875,25.59375,0.0,0.0,0.0,699
593,1696000077896,-0.73828125,0.39160156,0.2265625,0.03125,-12.84375,22.125,0.0,0.0,0.0,700
594,1696000077936,-0.84375,0.23828125,0.16113281,-10.34375,7.78125,13.15625,0.0,0.0,0.0,701
595,1696000077976,-0.86328125,0.2265625,0.2548828,2.65625,8.34375,6.0625,0.0,0.0,0.0,702
596,1696000078016,-0.9970703,0.19824219,0.34375,-6.0,11.6875,9.3125,0.0,0.0,0.0,703
597,1696000078056,-1.0722656,0.16503906,0.48046875,-8.5625,-15.96875,-12.40625,0.0,0.0,0.0,704
598,1696000078096,-1.1679688,0.50683594,0.36132812,9.5,-59.03125,-45.125,0.0,0.0,0.0,705
599,1696000078136,-1.34375,0.45214844,0.21679688,-8.8125,51.25,-3.5,0.0,0.0,0.0,706
600,1696000078176,-0.93652344,0.3388672,0.047851562,-25.90625,23.84375,-8.8125,0.0,0.0,0.0,707
601,1696000078216,-0.9580078,0.265625,-0.05859375,-4.3125,9.8125,0.28125,-102.3125,19.0625,-52.25,708
602,1696000078256,-0.9765625,0.3564453,-0.032226562,11.09375,6.1875,-2.09375,0.0,0.0,0.0,709
603,1696000078296,-0.93652344,0.40820312,0.119140625,-32.0,27.9375,-4.125,0.0,0.0,0.0,710
604,1696000078336,-0.7128906,0.15820312,0.052734375,-63.0,26.53125,-18.8125,0.0,0.0,0.0,711
605,1696000078376,-0.5859375,-0.046875,-0.041015625,-48.625,33.65625,-12.59375,0.0,0.0,0.0,712
606,1696000078416,-0.765625,0.049804688,-0.013671875,3.28125,51.25,2.84375,0.0,0.0,0.0,713
607,1696000078456,-0.83203125,0.16601562,0.12207031,16.9375,26.46875,-2.65625,0.0,0.0,0.0,714
608,1696000078496,-0.9814453,0.21386719,0.10058594,-4.25,23.71875,2.0,0.0,0.0,0.0,715
609,1696000078536,-1.1513672,0.103515625,0.2109375,-19.0,24.5,9.96875,0.0,0.0,0.0,716
610,1696000078576,-1.2675781,-0.041992188,0.13574219,-24.6875,4.0625,4.90625,0.0,0.0,0.0,717
611,1696000078616,-1.3642578,0.40820312,-0.07324219,-11.25,-13.9375,-1.1875,0.0,0.0,0.0,718
612,1696000078656,-1.3095703,0.20019531,-0.16210938,31.34375,-9.96875,2.28125,0.0,0.0,0.0,719
613,1696000078696,-1.0429688,0.5361328,-0.119140625,48.5,-18.09375,-14.625,-103.1875,20.3125,-54.8125,720
614,1696000078736,-0.953125,0.5986328,-0.0009765625,10.78125,-36.65625,-6.5,0.0,0.0,0.0,721
615,1696000078776,-0.94433594,0.3330078,0.005859375,3.21875,-41.09375,2.09375,0.0,0.0,0.0,722
616,1696000078816,-1.0029297,0.18359375,0.1171875,28.40625,-34.8125,5.71875,0.0,0.0,0.0,723
617,1696000078856,-0.84375,0.22460938,0.07421875,48.5625,-23.09375,15.0625,0.0,0.0,0.0,724
618,1696000078896,-0.5996094,0.3544922,0.09472656,35.25,-17.96875,21.03125,0.0,0.0,0.0,725
619,1696000078936,-0.66308594,0.3935547,0.22070312,5.09375,-15.78125,34.59375,0.0,0.0,0.0,726
620,1696000078976,-0.8613281,0.3544922,0.20703125,-22.0,-11.8125,29.8125,0.0,0.0,0.0,727
621,1696000079016,-0.8564453,0.19726562,0.16894531,-17.375,14.25,16.625,0.0,0.0,0.0,728
622,1696000079056,-0.9277344,0.17089844,0.33984375,-8.5625,13.9375,8.875,0.0,0.0,0.0,729
623,1696000079096,-1.0654297,0.18847656,0.4921875,-11.3125,-14.375,2.40625,0.0,0.0,0.0,730
624,1696000079136,-0.83203125,0.45214844,0.38671875,1.5625,-66.0625,-40.25,0.0,0.0,0.0,731
625,1696000079176,-1.5214844,0.5449219,0.5371094,6.875,2.21875,-4.65625,0.0,0.0,0.0,732
626,1696000079216,-0.9580078,0.34179688,0.025390625,-50.8125,59.4375,-11.1875,-102.0,23.0,-52.25,733
627,1696000079256,-0.8457031,0.22070312,-0.080078125,-11.0,5.46875,-10.71875,0.0,0.0,0.0,734
628,1696000079296,-0.9785156,0.2705078,0.0029296875,11.375,-7.09375,-6.25,0.0,0.0,0.0,735
629,1696000079336,-0.98535156,0.35839844,0.15625,-13.40625,27.0,-5.40625,0.0,0.0,0.0,736
630,1696000079376,-0.8046875,0.21875,0.1171875,-48.5,21.21875,-17.0625,0.0,0.0,0.0,737
631,1696000079416,-0.60839844,0.00390625,-0.0068359375,-44.65625,22.875,-14.96875,0.0,0.0,0.0,738
632,1696000079456,-0.7138672,0.030273438,-0.040039062,-5.40625,56.6875,1.75,0.0,0.0,0.0,739
633,1696000079496,-0.83496094,0.16308594,0.0859375,13.65625,34.40625,-2.96875,0.0,0.0,0.0,740
634,1696000079536,-0.9609375,0.19921875,0.09765625,0.59375,23.15625,-3.5625,0.0,0.0,0.0,741
635,1696000079576,-1.1542969,0.12988281,0.12890625,-11.9375,26.03125,5.21875,0.0,0.0,0.0,742
636,1696000079616,-1.3457031,0.025390625,0.16113281,-22.71875,4.1875,13.15625,0.0,0.0,0.0,743
637,1696000079656,-1.2353516,0.23925781,0.15527344,-16.8125,-5.75,0.34375,0.0,0.0,0.0,744
638,1696000079696,-1.2207031,0.13867188,-0.10058594,12.3125,-9.84375,-6.4375,-102.0,20.875,-55.4375,745
639,1696000079736,-1.0771484,0.45117188,-0.06738281,36.40625,-30.84375,-20.28125,0.0,0.0,0.0,746
640,1696000079776,-0.95214844,0.4296875,0.053710938,20.71875,-38.21875,-14.25,0.0,0.0,0.0,747
641,1696000079816,-0.9189453,0.27539062,0.017578125,8.09375,-38.1875,-4.46875,0.0,0.0,0.0,748
642,1696000079856,-0.9951172,0.14160156,0.10546875,47.21875,-33.28125,6.5,0.0,0.0,0.0,749
643,1696000079896,-0.8066406,0.21484375,0.0146484375,63.09375,-19.5625,16.28125,0.0,0.0,0.0,750
644,1696000079936,-0.60058594,0.37597656,0.12988281,55.09375,-11.75,31.21875,0.0,0.0,0.0,751
645,1696000079976,-0.5546875,0.42578125,0.19433594,26.53125,-21.5625,34.9375,0.0,0.0,0.0,752
646,1696000080016,-0.8808594,0.29785156,0.21777344,1.0625,-9.3125,22.75,0.0,0.0,0.0,753
647,1696000080056,-0.9980469,0.22753906,0.18261719,9.625,12.90625,10.84375,0.0,0.0,0.0,754
648,1696000080096,-1.0390625,0.1328125,0.40527344,4.78125,4.25,3.34375,0.0,0.0,0.0,755
649,1696000080136,-1.0058594,0.13085938,0.49023438,1.875,-16.8125,-27.75,0.0,0.0,0.0,756
650,1696000080176,-1.4296875,0.98339844,-0.23046875,39.09375,-72.96875,-35.5625,0.0,0.0,0.0,757
651,1696000080216,-0.9921875,0.57128906,-0.13769531,-56.96875,72.375,4.5,-102.0,21.1875,-53.3125,758
652,1696000080256,-0.76660156,0.29492188,-0.01171875,-28.34375,14.5,-12.21875,0.0,0.0,0.0,759
653,1696000080296,-1.0097656,0.1640625,-0.043945312,-13.34375,0.65625,-1.84375,0.0,0.0,0.0,760
654,1696000080336,-0.8886719,0.40039062,0.04296875,-7.40625,11.9375,-2.71875,0.0,0.0,0.0,761
655,1696000080376,-0.890625,0.3466797,0.12695312,-73.5,40.3125,-13.03125,0.0,0.0,0.0,762
656,1696000080416,-0.6748047,-0.037109375,0.038085938,-77.59375,23.78125,-16.375,0.0,0.0,0.0,763
657,1696000080456,-0.57128906,-0.140625,-0.064453125,-32.4375,45.75,1.4375,0.0,0.0,0.0,764
658,1696000080496,-0.8642578,0.13574219,0.060546875,30.0,49.65625,9.1875,0.0,0.0,0.0,765
659,1696000080536,-0.9580078,0.2265625,0.12011719,11.375,23.78125,-5.40625,0.0,0.0,0.0,766
660,1696000080576,-1.0976562,0.16894531,0.08886719,-5.09375,25.3125,-1.8125,0.0,0.0,0.0,767
661,1696000080616,-1.2841797,0.10644531,0.18945312,-3.125,8.28125,11.875,0.0,0.0,0.0,768
662,1696000080656,-1.3398438,0.08300781,0.22949219,-9.125,-8.75,6.25,0.0,0.0,0.0,769
663,1696000080696,-1.1894531,0.08886719,-0.1328125,2.71875,-19.6875,-5.59375,-101.6875,20.75,-57.6875,770
664,1696000080736,-1.1650391,0.4189453,-0.15234375,41.96875,-32.625,-14.3125,0.0,0.0,0.0,771
665,1696000080776,-0.9980469,0.52441406,0.038085938,41.65625,-40.0625,-10.03125,0.0,0.0,0.0,772
666,1696000080816,-0.83691406,0.44726562,-0.02734375,-2.53125,-37.375,4.96875,0.0,0.0,0.0,773
667,1696000080856,-0.90527344,0.14160156,0.15136719,21.8125,-31.8125,0.15625,0.0,0.0,0.0,774
668,1696000080896,-0.9873047,0.13964844,0.056640625,46.0,-31.15625,7.0625,0.0,0.0,0.0,775
669,1696000080936,-0.65722656,0.31933594,0.0703125,48.25,-26.40625,20.25,0.0,0.0,0.0,776
670,1696000080976,-0.5908203,0.3798828,0.20214844,22.3125,-13.09375,32.5,0.0,0.0,0.0,777
671,1696000081016,-0.8613281,0.34960938,0.18164062,-13.15625,-2.46875,24.875,0.0,0.0,0.0,778
672,1696000081056,-0.8730469,0.20898438,0.13085938,-6.5,18.65625,12.375,0.0,0.0,0.0,779
673,1696000081096,-0.96191406,0.19921875,0.3046875,-1.625,-4.53125,11.8125,0.0,0.0,0.0,780
674,1696000081136,-1.0546875,0.10839844,0.47265625,-10.28125,-10.09375,0.09375,0.0,0.0,0.0,781
675,1696000081176,-0.9941406,0.40820312,0.24316406,12.53125,-53.96875,-32.9375,0.0,0.0,0.0,782
676,1696000081216,-1.6923828,0.7373047,0.53808594,23.09375,-15.46875,18.28125,-100.375,21.5,-51.6875,783
677,1696000081256,-0.8457031,0.4345703,0.059570312,-67.15625,78.09375,-6.4375,0.0,0.0,0.0,784
678,1696000081296,-0.8251953,0.25976562,-0.051757812,-32.5625,15.78125,-10.9375,0.0,0.0,0.0,785
679,1696000081336,-0.87402344,0.15917969,-0.032226562,-13.46875,-7.59375,-0.625,0.0,0.0,0.0,786
680,1696000081376,-0.8808594,0.3779297,0.16113281,-19.875,26.59375,-4.1875,0.0,0.0,0.0,787
681,1696000081416,-0.77734375,0.2705078,0.14941406,-54.28125,26.09375,-11.75,0.0,0.0,0.0,788
682,1696000081456,-0.4560547,0.043945312,-0.00390625,-70.8125,23.40625,-11.4375,0.0,0.0,0.0,789
683,1696000081496,-0.8232422,0.043945312,-0.0126953125,-28.03125,62.28125,6.125,0.0,0.0,0.0,790
684,1696000081536,-0.8964844,0.14160156,0.16601562,0.09375,37.8125,2.09375,0.0,0.0,0.0,791
685,1696000081576,-0.9589844,0.14648438,0.13476562,-8.09375,27.5625,-3.125,0.0,0.0,0.0,792
686,1696000081616,-1.1357422,0.12890625,0.099609375,-7.40625,40.5,4.125,0.0,0.0,0.0,793
687,1696000081656,-1.2578125,0.08300781,0.14550781,1.75,19.375,7.65625,0.0,0.0,0.0,794
688,1696000081696,-1.2958984,0.21875,0.20214844,-3.5625,6.9375,2.78125,-101.5625,19.0625,-59.3125,795
689,1696000081736,-1.3535156,-0.018554688,-0.10839844,6.625,5.46875,8.09375,0.0,0.0,0.0,796
690,1696000081776,-1.2519531,0.41015625,-0.1484375,62.46875,-19.25,9.375,0.0,0.0,0.0,797
691,1696000081816,-0.9248047,0.5419922,-0.060546875,58.9375,-29.5,-1.625,0.0,0.0,0.0,798
692,1696000081856,-0.8339844,0.5498047,0.009765625,10.40625,-50.25,8.09375,0.0,0.0,0.0,799
693,1696000081896,-0.74121094,0.27929688,0.07128906,21.09375,-35.96875,0.8125,0.0,0.0,0.0,800
694,1696000081936,-0.8017578,0.18359375,0.0859375,16.6875,-30.1875,-4.90625,0.0,0.0,0.0,801
695,1696000081976,-0.5683594,0.23339844,-0.030273438,42.28125,-13.15625,9.1875,0.0,0.0,0.0,802
696,1696000082016,-0.5957031,0.34179688,0.15527344,36.09375,-12.53125,26.34375,0.0,0.0,0.0,803
697,1696000082056,-0.8574219,0.41210938,0.19628906,6.0625,-14.6875,20.90625,0.0,0.0,0.0,804
698,1696000082096,-1.0888672,0.31054688,0.10546875,-5.21875,0.53125,14.5,0.0,0.0,0.0,805
699,1696000082136,-1.1015625,0.21777344,0.24121094,1.9375,11.5625,14.8125,0.0,0.0,0.0,806
700,1696000082176,-1.0380859,0.1953125,0.54589844,-4.96875,-10.78125,11.625,0.0,0.0,0.0,807
701,1696000082216,-0.83691406,0.4140625,0.41796875,6.875,-69.90625,-36.78125,-101.6875,22.8125,-56.3125,808
702,1696000082256,-1.4755859,0.65625,0.16796875,8.875,-18.8125,8.9375,0.0,0.0,0.0,809
703,1696000082296,-0.87402344,0.36132812,-0.099609375,-61.5,66.5625,-5.40625,0.0,0.0,0.0,810
704,1696000082336,-0.8623047,0.19335938,-0.076171875,-21.15625,-2.71875,-8.9375,0.0,0.0,0.0,811
705,1696000082376,-0.8535156,0.32226562,0.005859375,-16.875,1.5625,1.1875,0.0,0.0,0.0,812
706,1696000082416,-0.8154297,0.32128906,0.12695312,-57.53125,33.96875,-4.71875,0.0,0.0,0.0,813
707,1696000082456,-0.67871094,0.016601562,0.05859375,-75.96875,30.0625,-16.09375,0.0,0.0,0.0,814
708,1696000082496,-0.53515625,-0.12597656,-0.091796875,-35.1875,34.875,-7.96875,0.0,0.0,0.0,815
709,1696000082536,-0.8642578,0.14648438,0.01171875,30.4375,45.09375,5.09375,0.0,0.0,0.0,816
710,1696000082576,-1.0322266,0.31054688,0.14550781,23.09375,19.4375,1.375,0.0,0.0,0.0,817
711,1696000082616,-1.0927734,0.18457031,0.07910156,-9.90625,21.34375,-1.5625,0.0,0.0,0.0,818
712,1696000082656,-1.2431641,0.08886719,0.14550781,0.21875,17.1875,3.9375,0.0,0.0,0.0,819
713,1696000082696,-1.3496094,0.140625,0.18945312,18.03125,-2.71875,2.84375,-101.125,20.75,-58.6875,820
714,1696000082736,-1.2949219,0.21484375,-0.10839844,9.875,-21.15625,-3.125,0.0,0.0,0.0,821
715,1696000082776,-1.1367188,0.359375,-0.15722656,37.21875,-35.375,-7.28125,0.0,0.0,0.0,822
716,1696000082816,-0.8847656,0.5488281,-0.016601562,54.96875,-32.625,-8.75,0.0,0.0,0.0,823
717,1696000082856,-0.8261719,0.4736328,-0.01953125,2.65625,-45.875,4.71875,0.0,0.0,0.0,824
718,1696000082896,-0.8046875,0.2109375,0.009765625,16.03125,-33.46875,-3.03125,0.0,0.0,0.0,825
719,1696000082936,-0.9433594,0.22070312,0.08984375,39.875,-40.3125,3.6875,0.0,0.0,0.0,826
720,1696000082976,-0.7167969,0.3408203,0.07519531,37.625,-28.78125,9.375,0.0,0.0,0.0,827
721,1696000083016,-0.6923828,0.42382812,0.15527344,20.34375,-18.8125,23.03125,0.0,0.0,0.0,828
722,1696000083056,-0.68652344,0.36132812,0.19628906,-13.21875,-9.53125,20.53125,0.0,0.0,0.0,829
723,1696000083096,-0.8339844,0.22558594,0.13867188,-9.1875,17.3125,9.90625,0.0,0.0,0.0,830
724,1696000083136,-0.96484375,0.20800781,0.2841797,1.0625,10.90625,9.0,0.0,0.0,0.0,831
725,1696000083176,-1.0458984,0.12695312,0.3544922,-4.71875,-2.46875,11.25,0.0,0.0,0.0,832
726,1696000083216,-1.2050781,0.3671875,0.041015625,2.84375,-46.15625,-22.125,-102.0,23.4375,-53.625,833
727,1696000083256,-1.4960938,0.79785156,0.20898438,20.65625,-59.40625,-11.1875,0.0,0.0,0.0,834
728,1696000083296,-1.0683594,0.5107422,0.015625,-62.71875,97.09375,-1.375,0.0,0.0,0.0,835
729,1696000083336,-0.9326172,0.2861328,-0.0087890625,-13.21875,10.40625,-17.0,0.0,0.0,0.0,836
730,1696000083376,-1.0458984,0.18652344,-0.048828125,5.09375,6.125,1.875,0.0,0.0,0.0,837
731,1696000083416,-0.93359375,0.3984375,0.06347656,6.875,25.375,-2.03125,0.0,0.0,0.0,838
732,1696000083456,-0.8105469,0.30566406,0.15625,-40.96875,24.75,-8.75,0.0,0.0,0.0,839
733,1696000083496,-0.5605469,0.056640625,0.0126953125,-56.65625,21.21875,-14.84375,0.0,0.0,0.0,840
734,1696000083536,-0.5986328,-0.036132812,-0.11816406,-16.75,44.90625,-0.75,0.0,0.0,0.0,841
735,1696000083576,-0.87109375,0.11816406,0.08984375,31.28125,46.0,9.375,0.0,0.0,0.0,842
736,1696000083616,-1.0136719,0.18945312,0.16796875,22.8125,15.65625,2.84375,0.0,0.0,0.0,843
737,1696000083656,-1.0947266,0.10839844,0.11425781,8.34375,29.6875,2.78125,0.0,0.0,0.0,844
738,1696000083696,-1.2070312,0.06640625,0.095703125,19.5,8.15625,17.1875,-98.875,21.8125,-57.0625,845
739,1696000083736,-1.2021484,0.19433594,0.21972656,20.84375,-11.6875,19.5625,0.0,0.0,0.0,846
740,1696000083776,-1.2207031,0.23339844,-0.09375,4.5,-25.28125,5.65625,0.0,0.0,0.0,847
741,1696000083816,-1.1865234,0.4765625,-0.17773438,22.4375,-25.90625,-6.125,0.0,0.0,0.0,848
742,1696000083856,-1.0078125,0.6142578,0.045898438,32.03125,-23.09375,-5.34375,0.0,0.0,0.0,849
743,1696000083896,-0.89453125,0.5136719,-0.025390625,-11.0,-41.21875,11.03125,0.0,0.0,0.0,850
744,1696000083936,-0.8623047,0.2919922,0.08691406,8.34375,-36.40625,7.0625,0.0,0.0,0.0,851
745,1696000083976,-0.9042969,0.25976562,0.029296875,20.90625,-27.6875,13.15625,0.0,0.0,0.0,852
746,1696000084016,-0.6230469,0.38671875,0.0009765625,27.1875,-12.96875,21.625,0.0,0.0,0.0,853
747,1696000084056,-0.65722656,0.45117188,0.21386719,9.0625,-5.6875,31.71875,0.0,0.0,0.0,854
748,1696000084096,-0.8515625,0.3828125,0.23046875,-20.34375,6.6875,24.9375,0.0,0.0,0.0,855
749,1696000084136,-0.87597656,0.29589844,0.19433594,-12.34375,29.28125,12.3125,0.0,0.0,0.0,856
750,1696000084176,-0.9902344,0.16015625,0.3564453,-3.09375,16.21875,6.75,0.0,0.0,0.0,857
751,1696000084216,-0.9892578,0.107421875,0.4970703,-9.96875,-7.59375,-14.0625,-100.8125,25.6875,-54.6875,858
752,1696000084256,-0.81933594,0.53808594,0.20898438,14.9375,-69.0625,-58.875,0.0,0.0,0.0,859
753,1696000084296,-1.4833984,0.59472656,0.25585938,8.53125,13.09375,-6.4375,0.0,0.0,0.0,860
754,1696000084336,-0.78808594,0.41992188,-0.055664062,-61.375,34.53125,-23.28125,0.0,0.0,0.0,861
755,1696000084376,-1.0556641,0.25097656,-0.072265625,-8.5625,-5.34375,-15.34375,0.0,0.0,0.0,862
756,1696000084416,-0.9453125,0.3486328,-0.060546875,-2.65625,1.0625,-1.90625,0.0,0.0,0.0,863
757,1696000084456,-0.9609375,0.39453125,0.107421875,-21.4375,31.71875,-7.34375,0.0,0.0,0.0,864
758,1696000084496,-0.78027344,0.16210938,0.061523438,-43.84375,19.03125,-16.5,0.0,0.0,0.0,865
759,1696000084536,-0.60253906,0.047851562,-0.08105469,-36.90625,28.78125,-7.03125,0.0,0.0,0.0,866
