timestamp,accel_x,accel_y,accel_z,gyro_x,gyro_y,gyro_z
1695997943736,0.11328125,-0.93927,0.3373413,-0.75,-1.625,4.21875
1695997943776,0.106933594,-0.96051025,0.307312,-1.203125,-1.453125,3.890625
1695997943816,0.15673828,-0.9397583,0.31732178,-0.96875,-1.734375,2.734375
1695997943856,0.14331055,-0.9324341,0.34197998,-0.015625,-0.84375,2.609375
1695997943896,0.13989258,-0.9470825,0.3300171,1.09375,-0.5,3.53125
1695997943936,0.17260742,-0.94415283,0.3180542,-1.015625,0.65625,1.984375
1695997943976,0.13696289,-0.94659424,0.3222046,-0.921875,0.96875,1.828125
1695997944016,0.15649414,-0.9463501,0.32122803,-2.59375,1.4375,1.046875
1695997944056,0.14013672,-0.9351196,0.3324585,-2.625,1.09375,0.46875
1695997944096,0.15185547,-0.9312134,0.32318115,-2.25,1.359375,0.25
1695997944136,0.14086914,-0.9385376,0.3234253,-1.140625,2.75,0.21875
1695997944176,0.15014648,-0.95440674,0.33050537,-0.125,2.703125,-0.078125
1695997944216,0.14575195,-0.9360962,0.33099365,1.078125,2.84375,0.0
1695997944256,0.17089844,-0.925354,0.3007202,2.984375,2.296875,0.96875
1695997944296,0.17016602,-0.9260864,0.31463623,3.984375,2.46875,1.515625
1695997944336,0.15405273,-0.9578247,0.3007202,5.234375,1.078125,2.34375
1695997944376,0.17871094,-0.91412354,0.30462646,7.296875,1.234375,3.4375
1695997944416,0.15478516,-0.9360962,0.30706787,7.375,-0.484375,3.6875
1695997944456,0.1665039,-0.9439087,0.2946167,6.046875,0.828125,2.84375
1695997944496,0.18969727,-0.92681885,0.28411865,6.015625,2.5625,2.71875
1695997944536,0.1887207,-0.9517212,0.2802124,5.8125,2.984375,1.921875
1695997944576,0.20678711,-0.9487915,0.28826904,2.1875,2.921875,0.015625
1695997944616,0.1928711,-0.9534302,0.29315186,1.21875,3.859375,-1.25
1695997944656,0.19335938,-0.9558716,0.29901123,0.6875,3.28125,-3.171875
1695997944696,0.15136719,-0.9529419,0.31878662,0.171875,4.390625,-4.53125
1695997944736,0.1484375,-0.9348755,0.2819214,-2.734375,6.34375,-6.140625
1695997944776,0.1796875,-0.9500122,0.30926514,-1.34375,6.21875,-6.875
1695997944816,0.1550293,-0.94317627,0.2662964,-4.453125,5.78125,-9.71875
1695997944856,0.111816406,-0.9495239,0.28533936,-3.375,6.078125,-9.96875
1695997944896,0.1027832,-0.97247314,0.2929077,-1.859375,5.90625,-9.140625
1695997944936,0.122558594,-0.9949341,0.260437,-4.046875,6.3125,-9.65625
1695997944976,0.11816406,-0.95147705,0.2658081,-2.75,9.1875,-9.15625
1695997945016,0.123291016,-0.9553833,0.27044678,-0.21875,8.703125,-7.421875
1695997945056,0.10571289,-0.9512329,0.28533936,-0.546875,8.46875,-7.890625
1695997945096,0.07373047,-0.9710083,0.27093506,-0.546875,8.25,-8.03125
1695997945136,0.08251953,-0.9741821,0.277771,-0.546875,7.390625,-7.453125
1695997945176,0.0625,-0.97052,0.27874756,-0.390625,6.859375,-6.828125
1695997945216,0.05810547,-0.96466064,0.24505615,-0.515625,5.640625,-6.5625
1695997945256,0.072753906,-0.9685669,0.2531128,-0.09375,2.6875,-6.203125
1695997945296,0.040283203,-0.9614868,0.26019287,0.515625,2.328125,-5.59375
1695997945336,0.03564453,-0.9690552,0.2633667,-0.046875,1.484375,-5.3125
1695997945376,0.02758789,-0.9636841,0.2453003,0.4375,0.3125,-4.96875
1695997945416,0.015136719,-0.96173096,0.30438232,2.546875,4.875,-3.265625
1695997945456,-0.0021972656,-0.9421997,0.21209717,0.453125,3.734375,-2.90625
1695997945496,-0.020263672,-0.9644165,0.25897217,2.78125,1.40625,-4.59375
1695997945536,-0.0026855469,-0.96661377,0.23382568,2.046875,1.984375,-5.046875
1695997945576,-0.028320312,-0.9763794,0.24822998,4.234375,0.625,-4.1875
1695997945616,-0.02709961,-0.96539307,0.22088623,3.15625,-0.1875,-4.15625
1695997945656,-0.03955078,-1.0078735,0.23406982,2.0625,0.359375,-4.0
1695997945696,-0.036865234,-1.0078735,0.21429443,2.078125,1.578125,-3.046875
1695997945736,-0.037841797,-0.97857666,0.20379639,2.140625,1.3125,-2.765625
1695997945776,-0.041503906,-0.9819946,0.22943115,3.046875,0.53125,-1.84375
1695997945816,-0.06274414,-0.9915161,0.24627686,1.0625,0.8125,-1.390625
1695997945856,-0.049316406,-1.0025024,0.22747803,-0.46875,-0.796875,-0.75
1695997945896,-0.055419922,-0.989563,0.23626709,-0.59375,-0.4375,-0.0625
1695997945936,-0.055419922,-0.9949341,0.23822021,-0.78125,0.0,0.5625
1695997945976,-0.048583984,-0.9763794,0.2111206,-2.125,-0.84375,0.734375
1695997946016,-0.046875,-0.97857666,0.22381592,-1.125,-1.015625,0.859375
1695997946056,-0.049560547,-0.9973755,0.24407959,-1.21875,-0.546875,1.21875
1695997946096,-0.057617188,-0.9812622,0.23236084,-2.359375,-0.140625,1.234375
1695997946136,-0.036865234,-0.9710083,0.23162842,-2.125,-0.375,1.21875
1695997946176,-0.039794922,-0.98443604,0.23626709,-1.046875,0.125,1.71875
1695997946216,-0.045654297,-0.98809814,0.23529053,-2.15625,-0.1875,1.390625
1695997946256,-0.033691406,-0.96661377,0.23699951,-1.890625,-0.4375,1.5
1695997946296,-0.039794922,-0.98101807,0.24945068,-1.609375,-0.1875,1.6875
1695997946336,-0.036376953,-0.97320557,0.23895264,-2.625,0.28125,1.59375
1695997946376,-0.038330078,-0.97369385,0.23699951,-1.296875,0.0,1.703125
1695997946416,-0.0107421875,-0.9692993,0.2616577,-1.640625,0.46875,0.96875
1695997946456,-0.028808594,-0.9680786,0.24993896,-0.9375,0.078125,1.734375
1695997946496,-0.0026855469,-0.96343994,0.23529053,-1.796875,0.421875,1.296875
1695997946536,-0.020019531,-0.97906494,0.25701904,-0.6875,1.8125,1.78125
1695997946576,-0.0087890625,-0.973938,0.24505615,-1.03125,1.8125,2.171875
1695997946616,-0.005859375,-0.96710205,0.25091553,-1.203125,0.96875,2.0625
1695997946656,-0.0031738281,-0.986145,0.25994873,-0.09375,1.90625,2.75
1695997946696,0.00390625,-0.9800415,0.26263428,-0.71875,1.578125,3.234375
1695997946736,0.014892578,-0.97247314,0.25823975,-1.03125,0.953125,3.75
1695997946776,0.024658203,-0.9788208,0.27093506,-0.53125,0.4375,3.96875
1695997946816,0.024658203,-0.97857666,0.28070068,-0.015625,0.71875,5.015625
1695997946856,0.032958984,-0.9734497,0.260437,-1.421875,0.015625,5.5625
1695997946896,0.048828125,-0.9714966,0.25238037,-0.96875,-0.5625,5.71875
1695997946936,0.052246094,-0.97613525,0.26385498,-1.28125,-1.3125,5.84375
1695997946976,0.052734375,-0.9727173,0.2723999,-2.078125,-1.453125,5.546875
1695997947016,0.045654297,-0.9668579,0.27166748,-2.125,-1.703125,5.09375
1695997947056,0.05053711,-0.96661377,0.2753296,-2.59375,-1.0625,4.40625
1695997947096,0.049072266,-0.96295166,0.27996826,-3.109375,-1.828125,3.421875
1695997947136,0.060058594,-0.9585571,0.27874756,-2.71875,-1.9375,2.703125
1695997947176,0.052490234,-0.9614868,0.30047607,-2.140625,-0.875,2.328125
1695997947216,0.05883789,-0.9627075,0.2868042,-2.46875,-0.515625,1.546875
1695997947256,0.052246094,-0.9470825,0.29608154,-0.703125,-0.5625,1.390625
1695997947296,0.068847656,-0.9612427,0.2970581,-1.84375,0.0,0.6875
1695997947336,0.06640625,-0.9507446,0.2994995,0.234375,-0.578125,1.171875
1695997947376,0.076416016,-0.94659424,0.2892456,-1.359375,-0.203125,0.46875
1695997947416,0.06323242,-0.95098877,0.29608154,-0.78125,-0.375,0.53125
1695997947456,0.0703125,-0.96343994,0.30340576,0.171875,0.75,0.28125
1695997947496,0.064208984,-0.9500122,0.30389404,-0.59375,0.078125,-0.125
1695997947536,0.05859375,-0.9524536,0.2982788,0.078125,0.796875,0.125
1695997947576,0.05834961,-0.9673462,0.3270874,0.359375,1.171875,0.265625
1695997947616,0.0625,-0.956604,0.30682373,-0.53125,1.234375,0.109375
1695997947656,0.057617188,-0.94903564,0.30633545,0.484375,1.890625,0.1875
1695997947696,0.06323242,-0.9619751,0.30413818,1.484375,2.046875,0.40625
1695997947736,0.064453125,-0.954895,0.2975464,0.703125,1.9375,0.109375
1695997947776,0.057617188,-0.9614868,0.30389404,0.015625,2.078125,-0.03125
1695997947816,0.06567383,-0.9561157,0.29974365,0.421875,2.046875,-0.015625
1695997947856,0.056396484,-0.96221924,0.29559326,0.4375,1.65625,0.25
1695997947896,0.055419922,-0.95391846,0.30047607,0.21875,2.046875,0.0625
1695997947936,0.055908203,-0.95806885,0.2987671,1.28125,2.59375,0.515625
1695997947976,0.05444336,-0.96466064,0.2946167,0.90625,2.296875,0.25
1695997948016,0.061523438,-0.954895,0.2929077,1.15625,2.765625,0.5625
1695997948056,0.059570312,-0.97052,0.28582764,1.03125,2.53125,0.5
1695997948096,0.06640625,-0.9624634,0.28094482,-0.015625,3.046875,0.25
1695997948136,0.061279297,-0.9673462,0.26263428,0.265625,2.671875,0.421875
1695997948176,0.072021484,-0.95391846,0.29925537,2.140625,3.734375,0.171875
1695997948216,0.056152344,-0.97125244,0.2741089,0.59375,2.828125,0.71875
1695997948256,0.076660156,-0.9631958,0.2741089,-0.328125,3.125,-0.28125
1695997948296,0.06665039,-0.958313,0.29144287,0.90625,4.015625,-0.25
1695997948336,0.064941406,-0.9668579,0.2843628,0.59375,3.78125,0.296875
1695997948376,0.07885742,-0.9639282,0.27044678,0.1875,3.28125,0.078125
1695997948416,0.080322266,-0.9558716,0.27850342,0.671875,3.3125,0.28125
1695997948456,0.072509766,-0.973938,0.2789917,0.375,2.625,0.359375
1695997948496,0.080322266,-0.96343994,0.27752686,-0.09375,2.453125,0.125
1695997948536,0.083496094,-0.95928955,0.28167725,0.71875,2.484375,-0.078125
1695997948576,0.072265625,-0.9800415,0.27923584,0.203125,2.90625,0.375
1695997948616,0.0871582,-0.95758057,0.27044678,-0.578125,2.265625,-0.046875
1695997948656,0.08227539,-0.95880127,0.27191162,0.234375,2.34375,0.15625
1695997948696,0.080566406,-0.96710205,0.28094482,-0.21875,1.734375,-0.359375
1695997948736,0.07836914,-0.96466064,0.2645874,-0.40625,0.921875,0.1875
1695997948776,0.083496094,-0.9624634,0.27069092,0.625,1.890625,-0.390625
1695997948816,0.080078125,-0.9651489,0.27288818,-0.203125,-0.25,-0.203125
1695997948856,0.08569336,-0.9585571,0.27215576,-0.375,-0.34375,-0.828125
1695997948896,0.064208984,-0.96343994,0.2741089,-0.390625,0.078125,-0.625
1695997948936,0.07055664,-0.9614868,0.2687378,-1.46875,0.203125,-0.953125
1695997948976,0.0793457,-0.9685669,0.2567749,-2.8125,-1.296875,-1.328125
1695997949016,0.061279297,-0.9590454,0.28826904,0.65625,-0.28125,-1.0
1695997949056,0.045166016,-0.97003174,0.27825928,-2.40625,-1.125,-1.421875
1695997949096,0.060791016,-0.9512329,0.2723999,-2.75,-1.21875,-2.0625
1695997949136,0.052490234,-0.9619751,0.29608154,-0.71875,0.53125,-1.65625
1695997949176,0.055908203,-0.97198486,0.28094482,-0.703125,1.015625,-0.9375
1695997949216,0.06958008,-0.95880127,0.2711792,-1.40625,0.25,-0.890625
1695997949256,0.06323242,-0.9417114,0.27850342,0.625,0.671875,-0.609375
1695997949296,0.0546875,-0.9619751,0.30755615,0.375,-0.25,0.0625
1695997949336,0.04272461,-0.96295166,0.2987671,1.65625,-1.515625,0.625
1695997949376,0.03564453,-0.9697876,0.29534912,1.984375,-0.15625,0.8125
1695997949416,0.05078125,-0.9727173,0.2929077,0.875,0.53125,1.09375
1695997949456,0.04736328,-0.95880127,0.2748413,1.09375,0.984375,0.96875
1695997949496,0.05102539,-0.9636841,0.27557373,0.96875,1.484375,0.65625
1695997949536,0.045898438,-0.97125244,0.29022217,0.1875,2.21875,0.65625
1695997949576,0.053466797,-0.9614868,0.2723999,-0.34375,2.890625,0.515625
1695997949616,0.05419922,-0.95880127,0.26556396,0.109375,3.375,0.5
1695997949656,0.057373047,-0.96588135,0.2699585,-0.046875,3.90625,0.359375
1695997949696,0.06713867,-0.9649048,0.277771,-0.03125,3.453125,0.1875
1695997949736,0.06274414,-0.9692993,0.26849365,-0.59375,3.8125,0.296875
1695997949776,0.07421875,-0.9871216,0.26019287,-0.890625,3.4375,0.21875
1695997949816,0.08300781,-0.9546509,0.2892456,0.171875,3.78125,-0.25
1695997949856,0.05419922,-0.97369385,0.2748413,-0.75,3.15625,0.5625
1695997949896,0.08300781,-0.9546509,0.27166748,-2.03125,2.796875,-1.078125
1695997949936,0.055908203,-0.9663696,0.27752686,0.125,3.34375,-0.21875
1695997949976,0.052246094,-0.9651489,0.29510498,0.0,2.921875,0.03125
1695997950016,0.044921875,-0.95928955,0.2819214,-1.453125,2.515625,-0.484375
1695997950056,0.049560547,-0.956604,0.2850952,0.171875,3.375,-0.15625
1695997950096,0.052246094,-0.9639282,0.27215576,-0.53125,3.234375,0.09375
1695997950136,0.059814453,-0.96295166,0.27215576,-0.234375,3.71875,0.109375
1695997950176,0.06713867,-0.96466064,0.27630615,1.40625,4.40625,0.96875
1695997950216,0.076416016,-0.954895,0.27142334,0.96875,4.203125,0.9375
1695997950256,0.08105469,-0.9607544,0.2753296,0.734375,2.9375,0.75
1695997950296,0.08081055,-0.9578247,0.2843628,0.625,2.203125,1.109375
1695997950336,0.072265625,-0.9624634,0.29266357,0.171875,2.859375,1.046875
1695997950376,0.08154297,-0.9685669,0.2675171,0.046875,2.109375,0.953125
1695997950416,0.07397461,-0.9570923,0.27288818,0.984375,1.8125,1.359375
1695997950456,0.08129883,-0.9631958,0.2826538,0.609375,1.40625,1.015625
1695997950496,0.087646484,-0.9692993,0.27752686,0.0,0.515625,0.90625
1695997950536,0.07470703,-0.95806885,0.2789917,-0.328125,-0.21875,0.90625
1695997950576,0.08666992,-0.97125244,0.25457764,-0.921875,-0.53125,1.203125
1695997950616,0.07446289,-0.9590454,0.30218506,0.65625,0.203125,0.28125
1695997950656,0.06616211,-0.9678345,0.27386475,-0.6875,-0.84375,0.6875
1695997950696,0.09399414,-0.9483032,0.26434326,-1.203125,-0.234375,-0.28125
1695997950736,0.06762695,-0.9727173,0.28118896,0.78125,0.0625,0.265625
1695997950776,0.068847656,-0.9680786,0.2789917,-0.328125,-0.890625,0.234375
1695997950816,0.07861328,-0.95880127,0.27288818,-1.09375,-1.296875,-0.375
1695997950856,0.0690918,-0.9619751,0.29193115,0.125,-1.40625,-0.3125
1695997950896,0.068847656,-0.96466064,0.2850952,-0.96875,-1.890625,-0.640625
1695997950936,0.05859375,-0.9661255,0.2753296,-1.171875,-1.84375,-0.96875
1695997950976,0.0690918,-0.96295166,0.28631592,-0.921875,-2.140625,-1.25
1695997951016,0.05810547,-0.95098877,0.2843628,-0.671875,-1.90625,-1.4375
1695997951056,0.0625,-0.958313,0.2772827,-1.078125,-1.796875,-1.375
1695997951096,0.060302734,-0.96832275,0.28656006,-0.484375,-2.140625,-1.421875
1695997951136,0.05444336,-0.9585571,0.2831421,-0.390625,-1.921875,-1.5
1695997951176,0.053222656,-0.9619751,0.2880249,-0.015625,-1.6875,-1.375
1695997951216,0.047607422,-0.96759033,0.293396,-0.046875,-1.421875,-0.84375
1695997951256,0.045410156,-0.9585571,0.28070068,-0.21875,-1.390625,-0.875
1695997951296,0.046142578,-0.9668579,0.27801514,0.0,-1.828125,-0.625
1695997951336,0.03955078,-0.98101807,0.26898193,-0.21875,-0.921875,0.0
1695997951376,0.04736328,-0.9585571,0.29510498,0.9375,-0.046875,-0.453125
1695997951416,0.028076172,-0.9678345,0.27703857,0.375,-1.09375,0.359375
1695997951456,0.044677734,-0.95928955,0.27703857,-0.578125,-0.46875,-0.640625
1695997951496,0.032226562,-0.97247314,0.28216553,0.265625,-0.53125,-0.1875
1695997951536,0.036865234,-0.96710205,0.28167725,0.421875,0.546875,0.09375
1695997951576,0.03125,-0.9627075,0.27508545,-0.5,0.71875,0.125
1695997951616,0.034179688,-0.9741821,0.28070068,0.625,1.5625,0.390625
1695997951656,0.03955078,-0.97052,0.2802124,0.046875,1.71875,0.53125
1695997951696,0.037109375,-0.9536743,0.2748413,0.09375,1.890625,0.390625
1695997951736,0.048828125,-0.97369385,0.28729248,0.796875,2.0625,0.71875
1695997951776,0.046142578,-0.956604,0.2802124,0.4375,2.0625,0.328125
1695997951816,0.045166016,-0.96417236,0.2741089,0.296875,2.03125,0.109375
1695997951856,0.039794922,-0.96539307,0.28289795,0.65625,2.421875,0.03125
1695997951896,0.02734375,-0.96539307,0.27996826,0.421875,3.34375,0.09375
1695997951936,0.033203125,-0.97442627,0.2741089,0.296875,4.5,0.671875
1695997951976,0.029052734,-0.97076416,0.27557373,0.375,5.4375,1.046875
1695997952016,0.03540039,-0.97662354,0.26922607,0.125,6.5625,1.90625
1695997952056,0.040283203,-0.97052,0.27630615,-0.421875,7.71875,2.109375
1695997952096,0.048583984,-0.99102783,0.2411499,-1.125,7.421875,2.5625
1695997952136,0.064697266,-0.9602661,0.28729248,0.5625,8.734375,2.34375
1695997952176,0.06616211,-0.97613525,0.2687378,-1.109375,7.1875,2.859375
1695997952216,0.087646484,-0.9595337,0.26800537,-1.640625,6.984375,2.03125
1695997952256,0.079589844,-0.9595337,0.27630615,-0.859375,6.578125,2.21875
1695997952296,0.09692383,-0.95758057,0.27386475,-0.71875,5.390625,2.625
1695997952336,0.100097656,-0.94903564,0.27142334,-1.375,3.5625,2.265625
1695997952376,0.09838867,-0.9727173,0.27581787,0.5,3.5625,2.21875
1695997952416,0.1159668,-0.95440674,0.2579956,0.3125,2.984375,1.921875
1695997952456,0.10839844,-0.9534302,0.25360107,0.96875,1.71875,2.125
1695997952496,0.107910156,-0.9612427,0.27459717,0.796875,0.484375,1.953125
1695997952536,0.10131836,-0.9590454,0.28118896,-0.234375,-0.34375,1.328125
1695997952576,0.103515625,-0.96099854,0.28607178,-0.421875,-0.671875,0.5625
1695997952616,0.1105957,-0.96466064,0.28094482,-1.5,-1.328125,-0.140625
1695997952656,0.10131836,-0.9578247,0.27703857,-0.9375,-2.109375,-0.234375
1695997952696,0.10253906,-0.9690552,0.27508545,-0.453125,-2.390625,-0.46875
1695997952736,0.104003906,-0.95684814,0.27264404,-0.65625,-2.375,-0.140625
1695997952776,0.1027832,-0.95977783,0.27630615,-0.921875,-2.890625,-0.4375
1695997952816,0.103515625,-0.9546509,0.28631592,0.515625,-2.828125,-0.171875
1695997952856,0.09423828,-0.95440674,0.27825928,-0.765625,-2.875,-0.953125
1695997952896,0.087646484,-0.9678345,0.29266357,-0.09375,-3.375,-0.28125
1695997952936,0.091796875,-0.9517212,0.27191162,-1.578125,-3.28125,-0.828125
1695997952976,0.060302734,-0.9590454,0.28485107,-0.140625,-3.8125,-0.28125
1695997953016,0.072509766,-0.9685669,0.30218506,0.390625,-2.25,-0.6875
1695997953056,0.07080078,-0.9663696,0.29510498,-0.828125,-1.359375,-0.875
1695997953096,0.072753906,-0.94366455,0.29071045,-0.125,-0.46875,-1.0625
1695997953136,0.08276367,-0.9702759,0.28631592,-0.0625,-0.34375,-0.34375
1695997953176,0.08129883,-0.96051025,0.28851318,-1.578125,0.046875,-1.234375
1695997953216,0.06762695,-0.96661377,0.2909546,-0.203125,0.234375,-0.5625
1695997953256,0.0769043,-0.94976807,0.29412842,-0.53125,0.9375,-0.6875
1695997953296,0.07128906,-0.95758057,0.2929077,-0.40625,0.96875,-0.421875
1695997953336,0.06347656,-0.96221924,0.29656982,0.015625,0.71875,-0.28125
1695997953376,0.075927734,-0.956604,0.2929077,0.03125,1.140625,-0.421875
1695997953416,0.057861328,-0.9678345,0.28875732,0.921875,0.765625,0.234375
1695997953456,0.072265625,-0.9553833,0.2880249,0.828125,1.859375,0.234375
1695997953496,0.06982422,-0.96759033,0.28338623,0.5,1.015625,0.09375
1695997953536,0.037353516,-0.9585571,0.28460693,1.203125,2.09375,0.578125
1695997953576,0.07421875,-0.9480591,0.28167725,-0.703125,1.53125,-0.484375
1695997953616,0.07128906,-0.97125244,0.32904053,1.0,1.453125,0.28125
1695997953656,0.04663086,-0.96099854,0.29315186,-1.296875,-0.03125,0.59375
1695997953696,0.05908203,-0.9612427,0.27996826,-0.109375,1.15625,0.0
1695997953736,0.078125,-0.9483032,0.2765503,1.828125,1.25,0.71875
1695997953776,0.07470703,-0.9585571,0.28826904,0.671875,-0.671875,1.0
1695997953816,0.06274414,-0.96661377,0.27459717,0.84375,-1.125,0.78125
1695997953856,0.060058594,-0.96295166,0.2975464,0.328125,-1.296875,0.265625
1695997953896,0.060791016,-0.9661255,0.29510498,-0.46875,-0.421875,-0.15625
1695997953936,0.044921875,-0.9636841,0.28704834,-0.28125,-1.328125,-0.15625
1695997953976,0.06958008,-0.9573364,0.2748413,0.421875,-0.203125,0.03125
1695997954016,0.049316406,-0.98150635,0.28900146,0.796875,-0.4375,-0.21875
1695997954056,0.05102539,-0.96099854,0.28656006,-1.09375,0.3125,-0.59375
1695997954096,0.050048828,-0.9717407,0.30047607,-0.75,1.03125,-0.90625
1695997954136,0.057128906,-0.9663696,0.28118896,-2.109375,1.03125,-1.6875
1695997954176,0.057861328,-0.96759033,0.28118896,-1.828125,0.78125,-1.875
1695997954216,0.07446289,-0.9458618,0.28240967,-1.734375,1.359375,-2.265625
1695997954256,0.04272461,-0.9578247,0.30340576,0.265625,1.328125,-1.34375
1695997954296,0.0546875,-0.954895,0.28582764,-0.875,2.078125,-1.875
1695997954336,0.033447266,-0.97613525,0.30926514,1.15625,3.015625,-0.484375
1695997954376,0.060546875,-0.9487915,0.276062,-0.609375,1.96875,-0.90625
1695997954416,0.046875,-0.9690552,0.28631592,0.5,0.6875,-0.421875
1695997954456,0.04321289,-0.9595337,0.29925537,0.46875,2.125,-0.921875
1695997954496,0.037353516,-0.96221924,0.29608154,0.078125,2.78125,0.078125
1695997954536,0.055664062,-0.9649048,0.27386475,0.65625,2.28125,0.1875
1695997954576,0.03955078,-0.97198486,0.27947998,0.171875,1.25,0.078125
1695997954616,0.043945312,-0.9585571,0.27630615,-0.296875,1.6875,-0.765625
1695997954656,0.053955078,-0.96099854,0.28045654,0.03125,1.8125,-1.046875
1695997954696,0.057373047,-0.9758911,0.27679443,0.390625,1.015625,-0.578125
1695997954736,0.048339844,-0.96417236,0.28167725,0.453125,1.15625,-1.3125
1695997954776,0.04296875,-0.9656372,0.28460693,0.703125,1.1875,-0.8125
1695997954816,0.033935547,-0.9717407,0.27996826,0.375,1.0,-1.078125
1695997954856,0.03540039,-0.956604,0.28070068,0.46875,0.921875,-1.125
1695997954896,0.033203125,-0.9692993,0.2802124,0.453125,1.046875,-1.0
1695997954936,0.03881836,-0.9685669,0.276062,0.453125,1.3125,-0.9375
1695997954976,0.041992188,-0.9619751,0.27508545,0.5625,1.015625,-0.6875
1695997955016,0.033691406,-0.97076416,0.28948975,2.125,1.125,0.09375
1695997955056,0.044677734,-0.96539307,0.27093506,0.953125,1.296875,-0.53125
1695997955096,0.030517578,-0.9780884,0.28118896,0.78125,0.296875,0.296875
1695997955136,0.044921875,-0.9585571,0.2592163,-0.234375,0.875,-0.03125
1695997955176,0.022216797,-0.972229,0.26531982,0.984375,0.546875,0.703125
1695997955216,0.021484375,-0.975647,0.27581787,0.921875,0.625,0.765625
1695997955256,0.01171875,-0.97076416,0.26654053,0.265625,0.90625,1.0625
1695997955296,0.03564453,-0.97125244,0.26263428,0.171875,1.5,0.71875
1695997955336,0.022460938,-0.9717407,0.2753296,0.03125,1.71875,0.6875
1695997955376,0.029052734,-0.9673462,0.26141357,-0.46875,1.65625,0.703125
1695997955416,0.03564453,-0.97491455,0.26385498,0.234375,2.625,0.921875
1695997955456,0.033447266,-0.97540283,0.262146,-0.015625,2.59375,1.015625
1695997955496,0.041992188,-0.9763794,0.26605225,-0.25,2.515625,0.78125
1695997955536,0.040527344,-0.9685669,0.26263428,-0.4375,2.125,0.78125
1695997955576,0.036865234,-0.9668579,0.2597046,0.3125,1.78125,0.875
1695997955616,0.03564453,-0.9661255,0.27044678,0.03125,2.171875,0.921875
1695997955656,0.038330078,-0.96588135,0.25726318,-0.046875,2.453125,1.140625
1695997955696,0.049804688,-0.9717407,0.25823975,-0.015625,2.078125,1.015625
1695997955736,0.050048828,-0.96759033,0.2670288,-0.34375,2.265625,0.984375
1695997955776,0.044677734,-0.97198486,0.25750732,-0.40625,2.28125,1.09375
1695997955816,0.05078125,-0.9819946,0.26922607,-0.484375,2.140625,1.265625
1695997955856,0.064941406,-0.9595337,0.27288818,-0.3125,2.5625,0.640625
1695997955896,0.056640625,-0.97198486,0.2579956,-0.578125,1.984375,1.140625
1695997955936,0.080566406,-0.96051025,0.25872803,-0.875,1.375,0.3125
1695997955976,0.049072266,-0.9690552,0.26361084,-0.09375,1.515625,0.359375
1695997956016,0.05517578,-0.9697876,0.28582764,-0.484375,1.28125,0.671875
1695997956056,0.048095703,-0.9702759,0.27288818,-0.96875,1.734375,0.53125
1695997956096,0.05517578,-0.9649048,0.27557373,-0.578125,2.015625,0.296875
1695997956136,0.052001953,-0.9553833,0.26776123,-0.78125,1.796875,0.359375
1695997956176,0.0637207,-0.96051025,0.2645874,-1.453125,0.96875,-0.015625
1695997956216,0.048828125,-0.96710205,0.27142334,-0.484375,1.390625,-0.015625
1695997956256,0.05102539,-0.95880127,0.27386475,-0.890625,1.140625,0.1875
1695997956296,0.056884766,-0.96343994,0.2753296,-0.484375,1.015625,0.15625
1695997956336,0.056396484,-0.95880127,0.277771,-0.703125,0.46875,0.171875
1695997956376,0.04736328,-0.9702759,0.28363037,-0.078125,0.390625,0.1875
1695997956416,0.05126953,-0.9651489,0.27679443,-0.34375,0.640625,0.171875
1695997956456,0.06225586,-0.96221924,0.2772827,-0.5,0.15625,0.28125
1695997956496,0.04248047,-0.9651489,0.27435303,0.015625,0.75,0.921875
1695997956536,0.049804688,-0.9734497,0.28778076,0.40625,1.1875,0.875
1695997956576,0.053466797,-0.9614868,0.28118896,0.0625,1.71875,1.375
1695997956616,0.06274414,-0.9546509,0.27972412,0.328125,1.484375,1.046875
1695997956656,0.059326172,-0.9570923,0.2765503,0.375,0.921875,0.75
1695997956696,0.05810547,-0.95977783,0.2633667,-0.28125,0.96875,0.515625
1695997956736,0.049560547,-0.96588135,0.28045654,1.296875,2.078125,0.734375
1695997956776,0.053955078,-0.9590454,0.2658081,0.046875,2.015625,1.03125
1695997956816,0.052246094,-0.96759033,0.26971436,0.234375,1.84375,0.5
1695997956856,0.04736328,-0.97198486,0.27679443,0.59375,3.28125,0.765625
1695997956896,0.053955078,-0.973938,0.27923584,-0.21875,3.921875,0.65625
1695997956936,0.06665039,-0.9656372,0.27069092,0.0,4.203125,0.65625
1695997956976,0.08227539,-0.96661377,0.26483154,-0.234375,3.9375,0.4375
1695997957016,0.078125,-0.9607544,0.27801514,-0.3125,3.53125,1.015625
1695997957056,0.06225586,-0.96417236,0.25994873,0.0,4.171875,1.390625
1695997957096,0.096191406,-0.9729614,0.27191162,0.265625,4.046875,0.828125
1695997957136,0.08862305,-0.9656372,0.25604248,-0.09375,3.375,1.171875
1695997957176,0.088134766,-0.96539307,0.26312256,-0.125,2.046875,0.515625
1695997957216,0.080566406,-0.9680786,0.26263428,-0.15625,1.84375,0.8125
1695997957256,0.08227539,-0.9627075,0.2748413,-0.359375,1.921875,0.09375
1695997957296,0.08520508,-0.9668579,0.2645874,-0.53125,2.0625,0.265625
1695997957336,0.09106445,-0.9656372,0.27166748,-0.40625,1.0,-0.078125
1695997957376,0.079589844,-0.9649048,0.26922607,-0.640625,1.078125,-0.40625
1695997957416,0.08325195,-0.96221924,0.26409912,-1.078125,0.875,-0.671875
1695997957456,0.08178711,-0.9624634,0.2694702,-0.375,0.015625,-0.578125
1695997957496,0.072021484,-0.9590454,0.2753296,-0.484375,0.25,-1.203125
1695997957536,0.056152344,-0.9651489,0.27093506,-0.3125,0.78125,-1.390625
1695997957576,0.06298828,-0.9800415,0.25823975,-0.734375,1.0625,-1.359375
1695997957616,0.05883789,-0.9651489,0.2831421,0.53125,2.1875,-1.203125
1695997957656,0.071777344,-0.9627075,0.25946045,-0.640625,2.046875,-1.03125
1695997957696,0.07885742,-0.96710205,0.26141357,-0.328125,1.921875,-1.34375
1695997957736,0.0637207,-0.973938,0.26605225,0.875,2.484375,-0.578125
1695997957776,0.0546875,-0.96099854,0.2658081,0.234375,2.515625,-0.171875
1695997957816,0.0546875,-0.9768677,0.26849365,0.421875,2.546875,-0.0625
1695997957856,0.049560547,-0.9673462,0.27801514,0.015625,3.609375,0.25
1695997957896,0.048095703,-0.97198486,0.26068115,0.21875,3.734375,0.984375
1695997957936,0.052246094,-0.9692993,0.25823975,0.046875,3.484375,0.640625
1695997957976,0.06640625,-0.9644165,0.2675171,0.796875,4.203125,0.90625
1695997958016,0.056396484,-0.973938,0.24798584,0.359375,4.1875,1.015625
1695997958056,0.06591797,-0.9661255,0.24945068,0.578125,4.3125,0.984375
1695997958096,0.07348633,-0.9644165,0.24676514,0.671875,3.921875,0.59375
1695997958136,0.064697266,-0.96588135,0.24603271,1.125,3.5625,1.453125
1695997958176,0.061523438,-0.96417236,0.25213623,1.140625,3.765625,1.28125
1695997958216,0.051757812,-0.97540283,0.24847412,1.53125,4.078125,1.0
1695997958256,0.060546875,-0.9644165,0.23236084,1.1875,4.5,1.375
1695997958296,0.09008789,-0.96881104,0.24920654,0.984375,3.828125,1.375
1695997958336,0.091552734,-0.97076416,0.24993896,0.578125,4.46875,1.890625
1695997958376,0.12011719,-0.9573364,0.2506714,1.3125,2.75,2.125
1695997958416,0.12890625,-0.96221924,0.25360107,1.4375,1.515625,3.28125
1695997958456,0.13378906,-0.96661377,0.24334717,2.265625,1.546875,2.734375
1695997958496,0.1616211,-0.93634033,0.25994873,2.484375,0.671875,2.96875
1695997958536,0.10913086,-0.9602661,0.24725342,1.59375,-0.796875,2.53125
1695997958576,0.12133789,-0.98101807,0.2645874,1.203125,-0.96875,1.46875
1695997958616,0.118896484,-0.97662354,0.24481201,-1.0,-0.765625,1.453125
1695997958656,0.10986328,-0.9746704,0.26141357,-1.5625,-0.984375,0.265625
1695997958696,0.12939453,-0.98687744,0.2741089,-1.75,-0.3125,0.0
1695997958736,0.12060547,-0.97052,0.2567749,-3.328125,-0.28125,-0.265625
1695997958776,0.13623047,-0.94732666,0.2609253,-2.75,0.171875,-0.328125
1695997958816,0.1352539,-0.97540283,0.26434326,-1.609375,-0.578125,-0.171875
1695997958856,0.12451172,-0.95977783,0.25726318,-2.328125,-0.640625,0.1875
1695997958896,0.12036133,-0.9607544,0.25286865,-1.125,-1.078125,-0.3125
1695997958936,0.107421875,-0.973938,0.26019287,-0.796875,-1.484375,0.390625
1695997958976,0.09863281,-0.95635986,0.2616577,-0.921875,-0.96875,0.671875
1695997959016,0.114990234,-0.95098877,0.2687378,-0.65625,-1.234375,0.96875
1695997959056,0.12841797,-0.94976807,0.26141357,-1.078125,-2.5,1.3125
1695997959096,0.1303711,-0.94488525,0.26239014,-0.5,-3.484375,1.921875
1695997959136,0.12084961,-0.94781494,0.260437,0.046875,-4.34375,1.71875
1695997959176,0.12451172,-0.9644165,0.25213623,0.796875,-5.125,1.3125
1695997959216,0.09741211,-0.97540283,0.25946045,1.515625,-4.875,0.71875
1695997959256,0.08227539,-0.95440674,0.2609253,0.640625,-3.65625,0.21875
1695997959296,0.08300781,-0.96417236,0.27703857,0.71875,-3.046875,-0.78125
1695997959336,0.107177734,-0.9602661,0.27972412,0.171875,-2.25,-1.390625
1695997959376,0.1081543,-0.96221924,0.27972412,-0.46875,-2.5625,-1.65625
1695997959416,0.084472656,-0.97052,0.2645874,-0.5625,-2.4375,-2.015625
1695997959456,0.09423828,-0.96539307,0.26434326,0.078125,-1.765625,-2.203125
1695997959496,0.095458984,-0.9614868,0.26531982,-0.53125,-1.75,-3.03125
1695997959536,0.08105469,-0.9612427,0.25482178,-0.96875,-2.140625,-3.125
1695997959576,0.084472656,-0.95318604,0.24212646,-0.828125,-1.609375,-2.8125
1695997959616,0.05029297,-0.9771118,0.24847412,1.125,-2.25,-2.15625
1695997959656,0.05053711,-0.9678345,0.25482178,0.609375,-1.015625,-2.078125
1695997959696,0.053710938,-0.96343994,0.2597046,0.40625,-0.71875,-2.25
1695997959736,0.057128906,-0.9746704,0.25579834,0.375,-0.390625,-2.25
1695997959776,0.061523438,-0.97125244,0.26556396,0.1875,-0.71875,-1.578125
1695997959816,0.06225586,-0.96661377,0.25506592,0.171875,-0.5,-1.484375
1695997959856,0.05908203,-0.9649048,0.25726318,0.28125,-0.296875,-1.640625
1695997959896,0.053955078,-0.97125244,0.25457764,0.359375,0.203125,-1.34375
1695997959936,0.05126953,-0.9710083,0.25335693,0.15625,0.171875,-0.9375
1695997959976,0.049804688,-0.973938,0.2567749,0.0625,0.515625,-0.78125
1695997960016,0.05126953,-0.97491455,0.262146,-0.875,0.390625,-0.984375
1695997960056,0.04296875,-0.9678345,0.26434326,-0.453125,0.421875,-0.34375
1695997960096,0.036376953,-0.97320557,0.26556396,-0.828125,0.65625,-0.359375
1695997960136,0.04736328,-0.9590454,0.26116943,-0.671875,0.78125,-0.28125
1695997960176,0.033691406,-0.9668579,0.26727295,-0.65625,0.359375,-0.171875
1695997960216,0.032470703,-0.9690552,0.2687378,-0.5625,0.703125,-0.109375
1695997960256,0.029052734,-0.9619751,0.26483154,-0.578125,0.765625,-0.34375
1695997960296,0.0234375,-0.9690552,0.27044678,0.0,1.265625,-0.28125
1695997960336,0.031982422,-0.9741821,0.25701904,0.421875,2.515625,-0.1875
1695997960376,0.03466797,-0.9673462,0.25408936,1.265625,3.0625,-0.296875
1695997960416,0.037841797,-0.95147705,0.25823975,0.5625,2.421875,-0.34375
1695997960456,0.02709961,-0.98028564,0.26507568,1.4375,1.5625,0.234375
1695997960496,0.02758789,-0.9771118,0.26605225,0.046875,1.1875,0.171875
1695997960536,0.017578125,-0.97613525,0.26019287,0.140625,1.890625,-0.453125
1695997960576,0.025146484,-0.9602661,0.26409912,0.21875,2.140625,-0.46875
1695997960616,0.036376953,-0.97003174,0.26727295,0.375,1.75,-0.484375
1695997960656,0.030273438,-0.9805298,0.25750732,0.15625,1.75,-0.390625
1695997960696,0.026611328,-0.97003174,0.26654053,0.21875,1.828125,-0.25
1695997960736,0.033935547,-0.9807739,0.2555542,-0.296875,1.671875,-0.4375
1695997960776,0.021972656,-0.96539307,0.2538452,0.3125,1.703125,-0.109375
1695997960816,0.03100586,-0.9807739,0.2579956,0.9375,1.984375,0.0625
1695997960856,0.033203125,-0.97540283,0.25213623,0.53125,1.90625,-0.21875
1695997960896,0.030517578,-0.9680786,0.2518921,0.0,1.75,-0.53125
1695997960936,0.027832031,-0.97540283,0.2597046,-0.0625,1.46875,-0.21875
1695997960976,0.032958984,-0.9768677,0.2597046,-0.0625,1.34375,-0.234375
1695997961016,0.033203125,-0.972229,0.2518921,0.140625,1.578125,-0.03125
1695997961056,0.029785156,-0.97735596,0.24920654,0.28125,1.4375,0.078125
1695997961096,0.032470703,-0.958313,0.24090576,0.1875,1.15625,0.1875
1695997961136,0.035888672,-0.986145,0.2543335,0.671875,1.46875,0.265625
1695997961176,0.030273438,-0.9636841,0.25335693,-0.109375,1.546875,0.578125
1695997961216,0.03466797,-0.98101807,0.25506592,-0.0625,1.375,0.59375
1695997961256,0.03173828,-0.9763794,0.24700928,-0.484375,1.078125,0.390625
1695997961296,0.036376953,-0.9783325,0.23919678,-1.328125,0.671875,0.5
1695997961336,0.024902344,-0.97662354,0.26507568,0.609375,1.9375,0.78125
1695997961376,0.0390625,-0.9885864,0.25286865,-0.78125,2.015625,0.828125
1695997961416,0.045654297,-0.97198486,0.2531128,-1.453125,2.203125,-0.140625
1695997961456,0.033203125,-0.97662354,0.2645874,-0.609375,2.640625,0.078125
1695997961496,0.03466797,-0.9834595,0.27703857,-2.84375,2.921875,-0.234375
1695997961536,0.04638672,-0.99176025,0.29730225,-6.0,5.546875,-0.828125
1695997961576,-0.0034179688,-0.9768677,0.26605225,-6.421875,1.859375,-0.609375
1695997961616,0.055908203,-0.9639282,0.25750732,-3.09375,4.25,0.53125
1695997961656,0.03100586,-0.95928955,0.27093506,-4.046875,2.625,0.59375
1695997961696,0.025634766,-0.9585571,0.31463623,-2.359375,0.96875,0.484375
1695997961736,0.040771484,-0.960022,0.24188232,-1.109375,4.109375,1.34375
1695997961776,0.044433594,-0.9356079,0.2772827,2.34375,1.453125,1.75
1695997961816,0.045654297,-0.9524536,0.25823975,2.265625,1.71875,2.171875
1695997961856,0.051513672,-0.96661377,0.2658081,3.25,1.90625,1.859375
1695997961896,0.040283203,-0.9751587,0.29022217,3.03125,2.03125,1.90625
1695997961936,0.033203125,-0.96832275,0.2687378,1.328125,1.265625,1.4375
1695997961976,0.049560547,-0.95928955,0.26531982,1.96875,0.671875,1.0625
1695997962016,0.052246094,-0.97540283,0.27020264,1.546875,0.734375,0.265625
1695997962056,0.046142578,-0.972229,0.26654053,-0.03125,0.734375,-0.234375
1695997962096,0.057373047,-0.96832275,0.2501831,0.515625,0.59375,-0.015625
1695997962136,0.05053711,-0.9751587,0.26312256,0.734375,0.171875,-0.5625
1695997962176,0.044189453,-0.9846802,0.26531982,-0.078125,-0.03125,-0.078125
1695997962216,0.07739258,-0.9585571,0.25408936,-1.03125,-0.171875,-0.609375
1695997962256,0.037353516,-0.96832275,0.26141357,0.109375,-1.03125,0.234375
1695997962296,0.046142578,-0.9788208,0.2694702,0.421875,-0.78125,0.0625
1695997962336,0.053710938,-0.9661255,0.27435303,-0.171875,-1.296875,0.09375
1695997962376,0.049072266,-0.9788208,0.25579834,-0.953125,-0.984375,0.25
1695997962416,0.040771484,-0.97125244,0.2723999,-0.34375,-0.953125,0.25
1695997962456,0.04736328,-0.96417236,0.26654053,-0.21875,-0.1875,0.03125
1695997962496,0.037841797,-0.95880127,0.26190186,-0.125,-0.125,0.03125
1695997962536,0.02734375,-0.9746704,0.27264404,0.234375,0.46875,0.5625
1695997962576,0.05078125,-0.9649048,0.26531982,0.28125,1.109375,0.09375
1695997962616,0.040771484,-0.97491455,0.2682495,0.34375,1.453125,0.546875
1695997962656,0.03857422,-0.9776001,0.2753296,-0.265625,1.421875,0.6875
1695997962696,0.041748047,-0.97784424,0.26800537,-0.34375,2.453125,0.75
1695997962736,0.045898438,-0.96661377,0.2597046,-0.484375,3.09375,0.71875
1695997962776,0.042236328,-0.9783325,0.27166748,-0.8125,2.96875,0.421875
1695997962816,0.05029297,-0.975647,0.27947998,-2.03125,3.984375,0.375
1695997962856,0.050048828,-0.98150635,0.2765503,-5.5,7.0625,0.359375
1695997962896,0.041992188,-0.9573364,0.27874756,-4.5,6.328125,-0.46875
1695997962936,0.049072266,-0.94195557,0.27947998,-1.0,3.234375,0.875
1695997962976,0.068359375,-0.95098877,0.2789917,0.140625,3.375,1.0
1695997963016,0.055664062,-0.96466064,0.27264404,0.015625,3.96875,1.09375
1695997963056,0.055419922,-0.96466064,0.2814331,0.984375,3.578125,0.859375
1695997963096,0.06567383,-0.9607544,0.27947998,0.578125,3.265625,0.234375
1695997963136,0.06298828,-0.9685669,0.27435303,0.546875,3.84375,0.359375
1695997963176,0.05029297,-0.9649048,0.2850952,0.703125,3.359375,0.203125
1695997963216,0.060791016,-0.96661377,0.27947998,0.921875,3.765625,-0.0625
1695997963256,0.060302734,-0.9649048,0.27337646,1.59375,3.71875,0.0
1695997963296,0.056884766,-0.97442627,0.2748413,0.484375,3.546875,-0.078125
1695997963336,0.060546875,-0.96954346,0.26727295,-0.015625,3.09375,-0.140625
1695997963376,0.05493164,-0.9656372,0.2753296,-0.5625,3.6875,-0.390625
1695997963416,0.056884766,-0.9697876,0.27337646,-0.25,3.171875,-0.5
1695997963456,0.056152344,-0.9663696,0.26239014,-0.984375,3.453125,-0.28125
1695997963496,0.061523438,-0.9656372,0.26116943,0.109375,3.71875,0.3125
1695997963536,0.072265625,-0.9680786,0.2675171,-0.46875,3.28125,0.171875
1695997963576,0.06689453,-0.95318604,0.27923584,-0.03125,2.140625,0.140625
1695997963616,0.064453125,-0.9729614,0.25872803,-0.9375,1.578125,0.59375
1695997963656,0.055664062,-0.97320557,0.277771,-0.234375,1.375,0.921875
1695997963696,0.05908203,-0.9668579,0.25628662,-0.796875,0.578125,1.34375
1695997963736,0.07324219,-0.9649048,0.25653076,-0.328125,0.0625,0.75
1695997963776,0.052001953,-0.96295166,0.27020264,0.59375,0.640625,1.140625
1695997963816,0.05517578,-0.9668579,0.26434326,0.71875,0.765625,1.0
1695997963856,0.060058594,-0.96661377,0.2501831,1.03125,1.296875,1.0625
1695997963896,0.06347656,-0.973938,0.25750732,1.453125,1.90625,0.734375
1695997963936,0.0637207,-0.9541626,0.23846436,0.859375,2.21875,1.34375
1695997963976,0.080322266,-0.95880127,0.2662964,2.53125,3.0,0.984375
1695997964016,0.06201172,-0.9771118,0.26019287,2.0,2.96875,1.359375
1695997964056,0.09082031,-0.9612427,0.24749756,1.6875,4.359375,1.390625
1695997964096,0.068115234,-0.9776001,0.2597046,2.640625,5.0625,1.859375
1695997964136,0.08227539,-0.9819946,0.24261475,2.34375,5.59375,2.15625
1695997964176,0.080322266,-0.9663696,0.23431396,2.171875,6.359375,2.203125
1695997964216,0.09057617,-0.96954346,0.23187256,2.484375,6.453125,2.578125
1695997964256,0.10473633,-0.97662354,0.22137451,2.921875,6.359375,3.25
1695997964296,0.12841797,-0.96099854,0.21551514,3.1875,5.203125,3.84375
1695997964336,0.13061523,-0.9661255,0.21185303,3.90625,4.6875,5.09375
1695997964376,0.14575195,-0.9734497,0.18865967,5.453125,2.140625,6.734375
1695997964416,0.17089844,-0.97735596,0.19207764,4.484375,0.125,5.71875
1695997964456,0.15551758,-0.97369385,0.18157959,5.453125,-2.09375,7.34375
1695997964496,0.18139648,-0.95635986,0.20257568,3.1875,-3.546875,6.484375
1695997964536,0.14990234,-0.9795532,0.20697021,3.546875,-5.046875,6.3125
1695997964576,0.171875,-0.9680786,0.20965576,2.90625,-5.375,5.9375
1695997964616,0.17041016,-0.9680786,0.21697998,2.0,-5.625,4.578125
1695997964656,0.17822266,-0.96954346,0.2111206,1.296875,-4.5625,3.6875
1695997964696,0.19433594,-0.972229,0.21502686,0.390625,-4.875,2.71875
1695997964736,0.21020508,-0.9656372,0.22357178,-0.34375,-4.734375,2.21875
1695997964776,0.19360352,-0.97442627,0.2321167,-0.5,-4.5,2.28125
1695997964816,0.17895508,-0.9536743,0.22650146,-0.65625,-4.890625,1.84375
1695997964856,0.18896484,-0.954895,0.2218628,-0.8125,-3.625,1.046875
1695997964896,0.20263672,-0.9534302,0.2374878,-1.8125,-4.46875,0.875
1695997964936,0.18017578,-0.9483032,0.23968506,-1.859375,-3.65625,0.75
1695997964976,0.19238281,-0.9480591,0.23724365,-1.828125,-4.015625,0.21875
1695997965016,0.19067383,-0.95025635,0.24798584,-2.40625,-3.3125,-0.375
1695997965056,0.16308594,-0.960022,0.2477417,-3.375,-2.234375,-1.5
1695997965096,0.16064453,-0.94659424,0.25994873,-3.3125,-1.390625,-2.953125
1695997965136,0.1418457,-0.97247314,0.24945068,-4.140625,-0.421875,-5.015625
1695997965176,0.15112305,-0.9771118,0.24066162,-4.25,-0.34375,-5.921875
1695997965216,0.1508789,-0.95806885,0.23504639,-2.921875,0.453125,-4.0
1695997965256,0.14746094,-0.9338989,0.25408936,-2.046875,0.0,-3.46875
1695997965296,0.1430664,-0.9500122,0.26116943,-2.953125,-0.734375,-3.5625
1695997965336,0.1430664,-0.9517212,0.2753296,-2.75,0.140625,-3.65625
1695997965376,0.12182617,-0.94903564,0.27264404,-3.296875,-0.375,-3.625
1695997965416,0.11035156,-0.95440674,0.25506592,-2.9375,-0.609375,-4.046875
1695997965456,0.12036133,-0.95758057,0.26019287,-1.8125,0.1875,-4.25
1695997965496,0.1303711,-0.9307251,0.26605225,-2.015625,0.109375,-2.8125
1695997965536,0.11279297,-0.9573364,0.2609253,-0.5,-2.0,-1.765625
1695997965576,0.13598633,-0.95977783,0.25750732,-0.28125,-2.5625,-1.0625
1695997965616,0.12158203,-0.9793091,0.24383545,0.921875,-3.3125,-0.359375
1695997965656,0.08251953,-0.96295166,0.25946045,1.6875,-2.296875,-0.1875
1695997965696,0.072753906,-0.972229,0.276062,1.40625,-1.953125,-1.578125
1695997965736,0.088134766,-0.9590454,0.27264404,0.3125,-1.09375,-1.25
1695997965776,0.095458984,-0.96221924,0.26776123,0.09375,-1.90625,-1.578125
1695997965816,0.08276367,-0.9710083,0.26800537,-0.078125,-1.640625,-2.0
1695997965856,0.080078125,-0.9578247,0.26361084,0.015625,-0.5,-1.75
1695997965896,0.0925293,-0.9505005,0.26263428,0.5625,-0.859375,-2.015625
1695997965936,0.0637207,-0.9649048,0.26507568,1.640625,-1.15625,-2.0625
1695997965976,0.061035156,-0.97003174,0.2584839,1.265625,0.03125,-2.484375
1695997966016,0.055908203,-0.9627075,0.26019287,1.40625,0.5,-2.96875
1695997966056,0.042236328,-0.9624634,0.2772827,1.4375,2.109375,-1.96875
1695997966096,0.052490234,-0.99176025,0.26434326,0.484375,2.21875,-2.8125
1695997966136,0.05493164,-0.95977783,0.26263428,1.3125,2.328125,-2.0
1695997966176,0.047851562,-0.95880127,0.24334717,0.71875,2.75,-1.984375
1695997966216,0.036132812,-0.9898071,0.25604248,1.0,2.96875,-2.328125
1695997966256,0.052001953,-0.9685669,0.23797607,-0.5625,3.59375,-2.0625
1695997966296,0.024169922,-0.97906494,0.23895264,0.21875,3.390625,-2.0625
1695997966336,0.03515625,-0.98760986,0.2543335,0.671875,3.34375,-2.1875
1695997966376,0.03466797,-0.9734497,0.2518921,-0.078125,3.828125,-1.296875
1695997966416,0.04321289,-0.9697876,0.23944092,0.265625,3.59375,-1.515625
1695997966456,0.03540039,-0.9807739,0.2543335,-0.421875,3.375,-0.734375
1695997966496,0.036132812,-0.9776001,0.24969482,-0.578125,3.453125,-0.84375
1695997966536,0.049316406,-0.96539307,0.24725342,-0.640625,3.890625,-0.375
1695997966576,0.04736328,-0.98223877,0.24407959,-0.328125,2.9375,0.28125
1695997966616,0.049072266,-0.9697876,0.24700928,0.03125,2.453125,0.359375
1695997966656,0.04272461,-0.9807739,0.25238037,-0.015625,2.046875,0.375
1695997966696,0.049560547,-0.9788208,0.24603271,-0.03125,2.203125,0.734375
1695997966736,0.045654297,-0.9702759,0.2501831,-0.3125,1.453125,-0.1875
1695997966776,0.053955078,-0.972229,0.25408936,-0.578125,1.515625,0.734375
1695997966816,0.057861328,-0.9837036,0.24822998,-2.734375,3.421875,0.78125
1695997966856,0.03491211,-0.972229,0.26776123,-2.796875,2.140625,0.75
1695997966896,0.037597656,-0.97320557,0.26068115,-2.46875,-0.75,1.671875
1695997966936,0.05493164,-0.9536743,0.25653076,-4.09375,0.515625,0.96875
1695997966976,0.036132812,-0.99176025,0.3053589,-2.90625,2.046875,1.53125
1695997967016,0.053222656,-0.9758911,0.29388428,-4.546875,1.984375,1.3125
1695997967056,0.0637207,-0.9819946,0.2814331,-5.5,3.640625,1.09375
1695997967096,0.05810547,-0.958313,0.30511475,-7.203125,4.125,1.21875
1695997967136,0.03466797,-0.97125244,0.28167725,-4.140625,4.421875,1.515625
1695997967176,0.05126953,-0.9434204,0.28997803,-4.8125,3.0,0.4375
1695997967216,0.061035156,-0.95147705,0.31854248,-3.96875,3.359375,-0.15625
1695997967256,0.05444336,-0.940979,0.31976318,-1.78125,1.484375,0.5625
1695997967296,0.033935547,-0.9336548,0.2868042,2.296875,-0.34375,1.390625
1695997967336,0.08618164,-0.9260864,0.26434326,5.1875,1.671875,1.8125
1695997967376,0.0715332,-0.9380493,0.29608154,5.890625,3.265625,0.796875
1695997967416,0.0690918,-0.9517212,0.2909546,8.6875,-2.0625,1.53125
1695997967456,0.07104492,-0.9578247,0.2982788,5.078125,1.15625,0.859375
1695997967496,0.045654297,-0.98809814,0.27679443,4.4375,0.875,1.03125
1695997967536,0.06616211,-0.9614868,0.27313232,0.796875,0.390625,0.0625
1695997967576,0.05419922,-0.9805298,0.28216553,0.96875,1.40625,1.21875
1695997967616,0.0793457,-0.96051025,0.25579834,0.328125,1.234375,0.671875
1695997967656,0.078125,-0.9727173,0.25775146,0.296875,1.390625,0.234375
1695997967696,0.06298828,-0.973938,0.26483154,-0.3125,1.109375,0.53125
1695997967736,0.09423828,-0.9651489,0.26287842,-1.0,1.734375,-0.046875
1695997967776,0.06933594,-0.97320557,0.27679443,-0.484375,1.6875,0.421875
1695997967816,0.07836914,-0.95562744,0.2477417,-1.421875,1.078125,-0.296875
1695997967856,0.06542969,-0.96588135,0.262146,-1.109375,0.8125,-0.140625
1695997967896,0.068115234,-0.9768677,0.27923584,-0.140625,1.734375,-0.28125
1695997967936,0.07348633,-0.96417236,0.25775146,-1.125,1.8125,-0.21875
1695997967976,0.078125,-0.96759033,0.2592163,-0.546875,1.53125,-0.640625
1695997968016,0.0690918,-0.9717407,0.27752686,0.140625,1.390625,0.03125
1695997968056,0.07299805,-0.96759033,0.2658081,-0.765625,1.1875,-0.359375
1695997968096,0.072509766,-0.95513916,0.2699585,-0.359375,1.25,-0.1875
1695997968136,0.06542969,-0.9690552,0.2753296,-0.203125,1.078125,0.078125
1695997968176,0.06665039,-0.960022,0.26971436,-0.5,0.59375,0.1875
1695997968216,0.061767578,-0.9607544,0.26971436,0.09375,1.125,0.21875
1695997968256,0.06640625,-0.96661377,0.2682495,-0.1875,1.25,0.0625
1695997968296,0.068847656,-0.9656372,0.27166748,-0.34375,1.578125,0.265625
1695997968336,0.06323242,-0.9692993,0.27850342,0.1875,1.9375,0.53125
1695997968376,0.0703125,-0.96099854,0.2687378,-0.703125,2.234375,-0.078125
1695997968416,0.06298828,-0.97540283,0.27996826,0.96875,2.203125,0.140625
1695997968456,0.07836914,-0.96466064,0.27166748,-0.359375,2.234375,-0.140625
1695997968496,0.061279297,-0.97247314,0.2897339,1.1875,2.375,0.46875
1695997968536,0.076660156,-0.97613525,0.2633667,-0.875,2.328125,-0.03125
1695997968576,0.060546875,-0.9644165,0.26898193,-0.453125,2.65625,0.109375
1695997968616,0.0637207,-0.97076416,0.27166748,-0.25,2.40625,-0.15625
1695997968656,0.06201172,-0.9729614,0.27825928,-0.75,3.03125,-0.578125
1695997968696,0.06347656,-0.9636841,0.2699585,-1.09375,3.15625,-0.84375
1695997968736,0.049316406,-0.97198486,0.28411865,-1.03125,3.296875,-1.015625
1695997968776,0.068603516,-0.9602661,0.276062,-1.859375,3.140625,-1.59375
1695997968816,0.072021484,-0.9546509,0.2814331,-1.046875,3.4375,-1.515625
1695997968856,0.06567383,-0.96173096,0.2802124,-1.046875,2.78125,-1.421875
1695997968896,0.06201172,-0.96221924,0.27069092,-0.71875,2.8125,-1.296875
1695997968936,0.06225586,-0.9644165,0.2670288,-0.421875,2.875,-1.21875
1695997968976,0.05517578,-0.9546509,0.2670288,-0.078125,2.375,-1.234375
1695997969016,0.0546875,-0.96099854,0.2855835,-0.71875,3.328125,-1.265625
1695997969056,0.055908203,-0.96343994,0.28753662,-0.921875,2.296875,-1.40625
1695997969096,0.056640625,-0.9668579,0.2850952,-1.0625,1.46875,-1.765625
1695997969136,0.053710938,-0.960022,0.29388428,0.125,1.328125,-1.671875
1695997969176,0.063964844,-0.96539307,0.2645874,-1.734375,1.640625,-1.3125
1695997969216,0.05102539,-0.9783325,0.29315186,0.71875,0.71875,-0.65625
1695997969256,0.052978516,-0.95977783,0.27069092,-1.4375,-0.625,-0.84375
1695997969296,0.032958984,-0.97198486,0.28582764,0.15625,0.515625,0.0
1695997969336,0.042236328,-0.9758911,0.277771,1.390625,1.4375,1.203125
1695997969376,0.047607422,-0.9627075,0.27264404,0.984375,2.171875,1.625
1695997969416,0.043945312,-0.97491455,0.26971436,1.203125,2.1875,2.375
1695997969456,0.037353516,-0.9751587,0.28167725,1.484375,2.796875,3.203125
1695997969496,0.060791016,-0.960022,0.26800537,0.9375,1.8125,3.1875
1695997969536,0.05810547,-0.9651489,0.27386475,1.59375,2.625,4.25
1695997969576,0.07519531,-0.95880127,0.25506592,2.171875,1.8125,4.734375
1695997969616,0.08984375,-0.96588135,0.26190186,3.03125,1.46875,5.65625
1695997969656,0.08618164,-0.97198486,0.25457764,1.96875,1.484375,5.40625
1695997969696,0.103759766,-0.96661377,0.2609253,2.46875,2.40625,5.640625
1695997969736,0.10083008,-0.9631958,0.24627686,2.484375,2.359375,5.53125
1695997969776,0.12524414,-0.9663696,0.24310303,2.015625,1.234375,5.0
1695997969816,0.12866211,-0.9651489,0.23919678,2.625,0.625,5.078125
1695997969856,0.13354492,-0.9829712,0.24871826,1.65625,0.703125,4.65625
1695997969896,0.15039062,-0.95758057,0.23651123,0.890625,-0.171875,4.453125
1695997969936,0.12670898,-0.9837036,0.2189331,0.515625,-0.734375,4.765625
1695997969976,0.1628418,-0.95098877,0.2592163,2.3125,-0.5625,3.59375
1695997970016,0.13378906,-0.97784424,0.2296753,-0.625,-1.78125,3.65625
1695997970056,0.15161133,-0.960022,0.24017334,-1.078125,-1.34375,2.34375
1695997970096,0.1394043,-0.960022,0.246521,-0.21875,-1.21875,1.953125
1695997970136,0.14575195,-0.9627075,0.24139404,-0.984375,-1.875,1.765625
1695997970176,0.15551758,-0.9649048,0.23773193,-0.921875,-1.671875,1.25
1695997970216,0.1381836,-0.94976807,0.2687378,0.125,-1.96875,0.703125
1695997970256,0.13916016,-0.96661377,0.24920654,-1.203125,-2.703125,0.625
1695997970296,0.13671875,-0.9468384,0.23724365,-1.484375,-2.859375,-0.53125
1695997970336,0.13793945,-0.9614868,0.25286865,0.71875,-1.296875,-0.484375
1695997970376,0.1303711,-0.9536743,0.24017334,0.0,-1.265625,-0.65625
1695997970416,0.12695312,-0.94122314,0.24407959,1.5625,-0.703125,-0.765625
1695997970456,0.13378906,-0.9585571,0.23382568,2.015625,-0.25,-0.6875
1695997970496,0.140625,-0.9480591,0.2501831,1.734375,-0.3125,-0.40625
1695997970536,0.14819336,-0.95635986,0.25604248,1.8125,-0.703125,-0.296875
1695997970576,0.1394043,-0.9692993,0.25360107,2.25,-0.453125,0.0625
1695997970616,0.14038086,-0.9651489,0.2514038,0.9375,0.25,-0.28125
1695997970656,0.1262207,-0.97442627,0.25579834,0.0625,0.015625,-0.59375
1695997970696,0.12695312,-0.96832275,0.25506592,-1.078125,0.78125,-1.0625
1695997970736,0.12133789,-0.97369385,0.24359131,-4.984375,0.265625,-2.390625
1695997970776,0.12939453,-0.9783325,0.23968506,-4.796875,1.0625,-2.578125
1695997970816,0.11254883,-0.95684814,0.2772827,-1.4375,0.609375,-3.1875
1695997970856,0.10839844,-0.96832275,0.24310303,-2.75,0.578125,-1.921875
1695997970896,0.10888672,-0.96832275,0.2723999,-3.671875,2.34375,-3.046875
1695997970936,0.10571289,-0.9627075,0.28216553,-3.828125,2.640625,-2.140625
1695997970976,0.11010742,-0.9590454,0.2543335,-4.09375,2.28125,-2.703125
1695997971016,0.11206055,-0.9607544,0.28485107,-2.8125,1.5,-2.1875
1695997971056,0.091552734,-0.9463501,0.2855835,-1.453125,1.328125,-1.046875
1695997971096,0.11450195,-0.9368286,0.24749756,0.421875,0.328125,0.46875
1695997971136,0.09106445,-0.94073486,0.25506592,2.296875,1.234375,-0.046875
1695997971176,0.11425781,-0.94073486,0.26849365,5.6875,1.921875,0.625
1695997971216,0.095947266,-0.98321533,0.26409912,7.25,2.078125,1.546875
1695997971256,0.080322266,-0.9795532,0.2555542,3.28125,3.171875,0.59375
1695997971296,0.09838867,-0.9678345,0.24383545,2.078125,2.53125,0.390625
1695997971336,0.11035156,-0.9668579,0.2453003,1.4375,1.640625,0.03125
1695997971376,0.10498047,-0.9702759,0.23138428,0.25,0.890625,0.203125
1695997971416,0.10229492,-0.9697876,0.25506592,0.234375,1.6875,-0.0625
1695997971456,0.09326172,-0.972229,0.24359131,0.125,0.84375,0.078125
1695997971496,0.10620117,-0.9585571,0.25482178,0.46875,1.25,-0.046875
1695997971536,0.09277344,-0.9678345,0.24188232,-1.25,1.078125,0.15625
1695997971576,0.091552734,-0.9663696,0.24505615,0.21875,0.890625,0.375
1695997971616,0.09643555,-0.9612427,0.24212646,-1.015625,1.296875,0.03125
1695997971656,0.09033203,-0.9800415,0.24481201,-0.5625,1.796875,-0.015625
1695997971696,0.10180664,-0.97247314,0.24798584,-1.40625,2.03125,-0.234375
1695997971736,0.10473633,-0.94903564,0.24407959,-1.59375,1.828125,-0.28125
1695997971776,0.10668945,-0.97003174,0.23480225,-1.546875,0.453125,-0.609375
1695997971816,0.103515625,-0.9751587,0.25872803,-0.015625,-0.34375,-0.109375
1695997971856,0.111083984,-0.96221924,0.26678467,-0.390625,0.1875,-0.625
1695997971896,0.107177734,-0.9639282,0.24334717,-0.75,-0.828125,-0.8125
1695997971936,0.103027344,-0.96295166,0.24627686,-0.375,-1.75,-1.015625
1695997971976,0.1027832,-0.96759033,0.24481201,-0.796875,-1.890625,-1.125
1695997972016,0.08520508,-0.96661377,0.2543335,-1.6875,-1.984375,-1.359375
1695997972056,0.08935547,-0.9624634,0.2633667,-1.953125,-1.734375,-1.5
1695997972096,0.10107422,-0.9607544,0.2609253,-1.71875,-1.8125,-1.25
1695997972136,0.079833984,-0.95880127,0.26922607,-0.71875,-3.328125,-1.28125
1695997972176,0.080566406,-0.94732666,0.2694702,0.390625,-4.703125,-1.078125
1695997972216,0.06982422,-0.9751587,0.28363037,2.40625,-4.328125,-0.71875
1695997972256,0.07055664,-0.97052,0.26898193,1.921875,-4.15625,-1.40625
1695997972296,0.055908203,-0.9661255,0.25164795,1.171875,-3.921875,-1.1875
1695997972336,0.059570312,-0.9729614,0.25091553,1.25,-3.34375,-1.3125
1695997972376,0.05859375,-0.9524536,0.27337646,2.0,-2.8125,-1.796875
1695997972416,0.04248047,-0.9871216,0.22528076,0.8125,-3.75,-1.03125
1695997972456,0.056884766,-0.97735596,0.25531006,-0.078125,-1.84375,-1.59375
1695997972496,0.052734375,-0.97003174,0.26116943,-0.015625,-1.328125,-1.203125
1695997972536,0.041015625,-0.9702759,0.26434326,0.40625,-2.328125,-0.5625
1695997972576,0.049316406,-0.9685669,0.26239014,-0.25,-2.578125,-0.875
1695997972616,0.028076172,-0.96832275,0.2699585,0.671875,-1.734375,0.0
1695997972656,0.036376953,-0.9854126,0.2526245,0.65625,-1.21875,0.734375
1695997972696,0.044921875,-0.9663696,0.24432373,-0.125,-0.90625,0.328125
1695997972736,0.05102539,-0.97540283,0.25091553,1.1875,-0.515625,0.9375
1695997972776,0.048095703,-0.9780884,0.25506592,0.71875,-0.015625,0.953125
1695997972816,0.032470703,-0.9751587,0.25653076,0.546875,1.015625,1.3125
1695997972856,0.03857422,-0.97247314,0.25750732,0.765625,1.609375,1.265625
1695997972896,0.039794922,-0.9859009,0.2543335,0.796875,2.390625,1.21875
1695997972936,0.04296875,-0.97540283,0.24969482,0.234375,2.890625,0.953125
1695997972976,0.052001953,-0.9717407,0.2526245,0.0,3.21875,0.84375
1695997973016,0.053466797,-0.97857666,0.2543335,0.0,3.78125,0.78125
1695997973056,0.057861328,-0.97198486,0.2538452,-0.453125,3.65625,0.6875
1695997973096,0.05444336,-0.973938,0.26019287,-0.390625,3.484375,0.5
1695997973136,0.05517578,-0.97442627,0.24383545,-0.25,4.609375,0.921875
1695997973176,0.071777344,-0.9678345,0.2230835,-1.0,4.265625,0.484375
1695997973216,0.061035156,-0.9690552,0.25775146,1.28125,4.671875,0.625
1695997973256,0.0625,-0.9871216,0.22869873,-1.765625,3.796875,0.640625
1695997973296,0.056640625,-0.9678345,0.24139404,-2.03125,3.375,0.21875
1695997973336,0.080078125,-0.98028564,0.2543335,-0.828125,3.5625,0.21875
1695997973376,0.06567383,-0.9680786,0.2514038,-0.875,3.359375,0.5
1695997973416,0.06347656,-0.97735596,0.24261475,-0.796875,3.15625,0.265625
1695997973456,0.06933594,-0.9602661,0.2597046,-0.6875,3.3125,0.265625
1695997973496,0.071777344,-0.97540283,0.24261475,-0.984375,2.875,0.5625
1695997973536,0.06274414,-0.9595337,0.24383545,-1.453125,3.0,0.109375
1695997973576,0.08886719,-0.9734497,0.25213623,0.046875,3.484375,0.609375
1695997973616,0.08081055,-0.96661377,0.24310303,-0.234375,2.59375,0.59375
1695997973656,0.07373047,-0.9680786,0.24969482,-0.1875,2.28125,0.421875
1695997973696,0.06982422,-0.9680786,0.25164795,-0.21875,2.234375,0.078125
1695997973736,0.07299805,-0.96417236,0.25653076,-0.625,2.046875,0.03125
1695997973776,0.06713867,-0.9663696,0.24847412,-0.375,1.96875,-0.078125
1695997973816,0.07128906,-0.9714966,0.25531006,-0.359375,2.328125,-0.171875
1695997973856,0.06982422,-0.97320557,0.24481201,-0.296875,2.5625,-0.15625
1695997973896,0.07543945,-0.97052,0.25360107,0.15625,2.640625,0.09375
1695997973936,0.07543945,-0.97906494,0.25115967,0.015625,2.828125,0.203125
1695997973976,0.068847656,-0.9685669,0.2489624,-0.671875,2.328125,0.03125
1695997974016,0.07397461,-0.9624634,0.25238037,-0.4375,2.609375,-0.0625
1695997974056,0.072753906,-0.9834595,0.2321167,-2.703125,1.5,-0.125
1695997974096,0.068847656,-0.9680786,0.27264404,-1.921875,2.828125,-0.234375
