# Sensor type: Respeck
# Activity type: Standing
# Activity subtype: Laughing
# Subject id: s2100273
# Notes: unprocessed
timestamp,accel_x,accel_y,accel_z,gyro_x,gyro_y,gyro_z
1696240287684,-0.34472656,-0.97735596,-0.08746338,2.0625,-4.234375,-1.265625
1696240287723,-0.27539062,-0.9795532,0.038024902,0.09375,0.84375,1.390625
1696240287763,-0.25317383,-0.8789673,-0.09869385,-6.6875,-2.03125,1.0625
1696240287803,-0.30322266,-0.9024048,0.058044434,-2.5,8.28125,-0.875
1696240287844,-0.34155273,-1.05719,-0.018615723,2.109375,-3.1875,-3.21875
1696240287884,-0.27905273,-0.93951416,0.045837402,3.734375,-1.1875,4.046875
1696240287924,-0.29882812,-0.8977661,-0.022033691,-3.59375,3.359375,5.84375
1696240287964,-0.27856445,-0.93096924,0.089538574,2.515625,6.34375,-0.859375
1696240288004,-0.22192383,-1.0559692,0.082458496,0.71875,-3.015625,-6.109375
1696240288044,-0.3647461,-0.9636841,-0.008850098,-0.59375,0.40625,2.125
1696240288085,-0.26098633,-0.93341064,0.121032715,6.3125,0.609375,6.8125
1696240288125,-0.35791016,-1.036438,-0.0037231445,0.578125,-8.03125,0.515625
1696240288164,-0.28442383,-1.017395,-0.019836426,6.125,1.34375,-3.703125
1696240288204,-0.2241211,-0.9487915,0.0138549805,-1.59375,-2.15625,-3.59375
1696240288245,-0.26635742,-0.9343872,-0.046203613,4.25,-0.359375,-3.046875
1696240288289,-0.3071289,-0.90509033,-0.046203613,-0.828125,-7.859375,-1.78125
1696240288325,-0.33374023,-0.91241455,-0.010314941,0.328125,-6.8125,0.875
1696240288364,-0.2475586,-0.8545532,-0.08258057,-2.78125,-2.4375,0.015625
1696240288405,-0.2770996,-0.7920532,-0.049621582,3.640625,-1.4375,1.734375
1696240288446,-0.32348633,-1.0003052,0.031188965,5.328125,-3.75,3.8125
1696240288484,-0.4020996,-1.045227,-0.035949707,-4.640625,-6.6875,2.828125
1696240288527,-0.20385742,-0.97735596,0.019470215,-2.609375,7.390625,3.234375
1696240288563,-0.21899414,-0.98272705,-0.011779785,-2.671875,4.296875,2.34375
1696240288604,-0.3022461,-0.9776001,0.05682373,-0.59375,-0.5,0.703125
1696240288649,-0.32861328,-0.9168091,-0.08428955,-2.8125,-2.953125,1.375
1696240288685,-0.30200195,-0.85723877,-0.0020141602,-2.515625,5.328125,0.703125
1696240288748,-0.24707031,-1.0755005,0.025817871,-2.734375,-1.21875,-3.8125
1696240288762,-0.26416016,-1.0071411,-0.06817627,1.78125,0.0625,-2.140625
1696240288805,-0.2746582,-0.92755127,-0.032043457,-4.140625,0.875,1.4375
1696240288845,-0.24414062,-0.8591919,0.005554199,-6.5625,-1.640625,-0.828125
1696240288865,-0.27392578,-1.0054321,1.8310547E-4,-0.078125,4.609375,-3.859375
1696240288906,-0.2866211,-0.9949341,0.050964355,4.125,1.46875,0.578125
1696240288945,-0.31323242,-0.9849243,0.029724121,-0.65625,1.359375,1.875
1696240288985,-0.28442383,-0.8945923,-0.042541504,-2.828125,-0.6875,-0.421875
1696240289050,-0.3383789,-0.9458618,0.029724121,2.546875,7.125,-2.75
1696240289064,-0.27392578,-0.9241333,-0.027404785,2.734375,-0.90625,-2.8125
1696240289106,-0.29882812,-1.0457153,0.0138549805,2.375,1.640625,4.578125
1696240289145,-0.25561523,-0.9663696,0.061950684,-0.296875,2.5625,4.4375
1696240289186,-0.27978516,-0.91290283,0.0016479492,-2.796875,-1.234375,1.390625
1696240289225,-0.2854004,-0.96343994,0.034362793,-1.46875,7.015625,2.1875
1696240289266,-0.2866211,-1.0586548,-0.0012817383,3.765625,-0.875,2.046875
1696240289305,-0.25683594,-0.95391846,0.046569824,-1.796875,3.578125,4.1875
1696240289345,-0.2800293,-0.89263916,-0.0017700195,1.078125,1.09375,1.96875
1696240289384,-0.25756836,-0.99298096,0.0119018555,4.265625,-3.46875,-5.953125
1696240289427,-0.3305664,-1.0044556,0.05731201,2.03125,-2.640625,-1.21875
1696240289485,-0.32910156,-0.9805298,-0.020568848,-3.84375,-5.171875,0.625
1696240289525,-0.22705078,-0.9505005,0.022399902,-0.34375,1.03125,-1.8125
1696240289543,-0.25585938,-0.98516846,0.0021362305,6.0625,2.765625,-1.90625
1696240289585,-0.28100586,-0.975647,0.00970459,-0.453125,0.984375,-4.109375
1696240289624,-0.29541016,-0.9126587,-0.030578613,2.921875,-5.171875,-3.625
1696240289688,-0.31860352,-0.96759033,-0.030334473,2.078125,-3.71875,0.5
1696240289704,-0.3190918,-0.89971924,-0.023010254,0.625,-2.203125,1.875
1696240289745,-0.29541016,-0.85284424,-0.07476807,0.25,-2.296875,0.421875
1696240289785,-0.27148438,-0.8057251,-0.062561035,3.578125,-0.15625,3.15625
1696240289826,-0.27612305,-0.9993286,0.0018920898,3.953125,-4.609375,5.0
1696240289889,-0.31762695,-1.0596313,0.018493652,-2.046875,-7.59375,-0.71875
1696240289925,-0.28222656,-1.0039673,-0.04107666,-6.203125,-0.9375,2.578125
1696240289968,-0.25708008,-0.8616333,-0.031066895,-7.890625,1.53125,3.125
1696240289982,-0.25634766,-0.97540283,-0.023742676,0.28125,0.578125,0.484375
1696240290044,-0.2998047,-0.97784424,0.047790527,1.265625,-0.703125,-3.09375
1696240290064,-0.29248047,-0.9529419,0.012878418,-2.390625,-0.796875,0.0
1696240290104,-0.27612305,-0.99224854,0.054138184,1.28125,5.28125,2.078125
1696240290143,-0.24389648,-0.989563,-0.027648926,-3.1875,-4.40625,-1.921875
1696240290204,-0.28076172,-0.8399048,0.02557373,4.640625,4.875,1.75
1696240290210,-0.30419922,-0.99102783,0.001159668,2.0625,-3.828125,-0.25
1696240290244,-0.28833008,-0.96832275,-0.020080566,0.171875,-2.59375,-1.890625
1696240290286,-0.24804688,-0.9338989,-0.039855957,-3.203125,3.21875,0.84375
1696240290325,-0.28393555,-0.94854736,0.015075684,-0.625,5.484375,-0.171875
1696240290364,-0.29223633,-1.0198364,-0.04815674,1.15625,-3.84375,-3.453125
1696240290409,-0.29736328,-0.94122314,0.016540527,-0.921875,1.375,-0.078125
1696240290444,-0.2680664,-0.9385376,-0.051574707,-3.78125,-0.90625,0.03125
1696240290486,-0.27319336,-0.9483032,-0.0010375977,-0.296875,3.65625,-0.53125
1696240290528,-0.2841797,-0.97613525,-0.014465332,3.234375,-1.203125,-0.59375
1696240290570,-0.32055664,-0.9607544,0.03338623,1.828125,0.796875,2.90625
1696240290605,-0.27905273,-0.9199829,-0.04498291,-0.96875,-0.828125,1.046875
1696240290650,-0.2836914,-0.93634033,0.036315918,3.875,2.734375,0.65625
1696240290685,-0.24853516,-0.975647,0.04119873,1.15625,2.28125,-0.4375
1696240290726,-0.30615234,-0.97735596,-0.051086426,2.96875,-2.078125,1.125
1696240290765,-0.27001953,-0.9180298,9.1552734E-4,2.59375,1.90625,1.90625
1696240290809,-0.28466797,-0.97735596,-0.046691895,0.828125,0.5625,3.078125
1696240290849,-0.29541016,-0.9451294,0.08514404,-1.96875,4.78125,2.8125
1696240290885,-0.2524414,-0.94854736,-0.08087158,3.609375,-5.515625,-2.6875
1696240290926,-0.27319336,-0.95269775,0.055847168,0.4375,5.8125,1.40625
1696240290966,-0.25170898,-0.9170532,-0.035461426,-3.0,-3.71875,2.0
1696240291008,-0.2524414,-0.9763794,0.019958496,-4.265625,3.0625,-4.9375
1696240291045,-0.24072266,-0.8965454,-0.01373291,-5.921875,-4.75,-7.03125
1696240291086,-0.35839844,-0.9871216,0.043884277,-3.828125,-4.6875,-0.84375
1696240291126,-0.39208984,-1.1184692,-0.019592285,-1.640625,-5.15625,0.328125
1696240291166,-0.3161621,-0.9817505,0.030700684,9.34375,1.171875,1.0625
1696240291205,-0.24145508,-0.9282837,0.0021362305,4.5,-1.328125,-0.796875
1696240291247,-0.29492188,-0.88775635,-0.0071411133,4.046875,0.59375,-0.484375
1696240291285,-0.34521484,-0.93536377,-0.06768799,3.890625,0.9375,2.453125
1696240291327,-0.23999023,-1.0098267,-0.015686035,0.15625,1.359375,-0.5625
1696240291365,-0.28173828,-0.87701416,-0.04937744,2.28125,-1.8125,-1.65625
1696240291406,-0.25219727,-0.94366455,-0.047668457,2.875,-0.671875,0.375
1696240291448,-0.25585938,-0.8340454,-0.05303955,0.671875,-2.203125,1.453125
1696240291484,-0.26171875,-0.88604736,-0.04058838,8.859375,-0.859375,4.53125
1696240291504,-0.30200195,-1.0540161,-0.02935791,4.9375,-4.90625,4.515625
1696240291566,-0.2824707,-0.95806885,-0.015686035,-4.796875,-4.359375,2.703125
1696240291583,-0.24780273,-0.8789673,-0.03692627,-8.53125,-7.34375,-1.375
1696240291625,-0.2446289,-0.90948486,-0.018371582,-4.40625,-0.46875,-2.5
1696240291666,-0.29614258,-1.0471802,-0.05621338,-4.546875,-4.796875,-5.65625
1696240291706,-0.34155273,-1.0232544,0.03289795,0.609375,-0.046875,-3.09375
1696240291744,-0.28271484,-0.9678345,-0.012023926,-2.640625,-3.25,-1.078125
1696240291804,-0.234375,-0.92974854,-0.03765869,-5.5,-3.203125,-1.890625
1696240291823,-0.29101562,-0.829895,0.03704834,-1.4375,4.1875,1.078125
1696240291864,-0.3564453,-1.03302,0.034362793,2.09375,0.109375,3.828125
1696240291905,-0.34228516,-1.0574341,-0.027648926,-1.65625,-0.9375,-0.359375
1696240291945,-0.25219727,-0.9260864,-0.012023926,-1.359375,5.0,0.765625
1696240291986,-0.24414062,-0.9036255,-0.04840088,-2.265625,3.109375,1.328125
1696240292025,-0.27978516,-0.9692993,0.0138549805,-2.0,6.390625,1.484375
1696240292068,-0.29492188,-0.9155884,-0.06329346,3.671875,-3.6875,-1.109375
1696240292105,-0.30444336,-1.0564575,0.027038574,2.96875,1.71875,1.390625
1696240292145,-0.29223633,-0.9326782,-0.07598877,-4.53125,-3.640625,2.9375
1696240292210,-0.25683594,-0.8648071,0.018737793,-1.125,7.28125,0.859375
1696240292224,-0.21240234,-0.9702759,-0.028137207,4.828125,-4.03125,-4.21875
1696240292286,-0.32348633,-1.0740356,0.028503418,4.75,1.515625,1.71875
1696240292303,-0.27734375,-0.89019775,-0.020324707,-2.703125,-1.6875,4.015625
1696240292344,-0.28637695,-0.9446411,-0.093322754,-0.875,-3.328125,0.46875
1696240292384,-0.31396484,-0.8479614,0.07904053,3.28125,6.359375,1.703125
1696240292448,-0.25927734,-1.0669556,-0.07745361,6.546875,-4.09375,-1.75
1696240292464,-0.28076172,-0.9973755,0.058044434,3.25,3.140625,3.90625
1696240292526,-0.24609375,-0.8508911,-0.034240723,0.359375,-0.734375,4.359375
1696240292543,-0.28710938,-0.97198486,-0.043273926,-3.828125,0.109375,-4.28125
1696240292607,-0.28442383,-0.9299927,-0.020568848,-0.921875,0.90625,-5.578125
1696240292645,-0.25634766,-0.9924927,-0.09283447,-7.8125,0.453125,-1.609375
1696240292664,-0.20825195,-0.9590454,0.047546387,-5.859375,-0.078125,-0.09375
1696240292726,-0.31201172,-1.0039673,0.14324951,-6.125,-6.390625,-4.421875
1696240292744,-0.41430664,-0.9717407,-0.034240723,3.75,-4.46875,-2.0
1696240292784,-0.32470703,-1.0300903,0.032409668,4.546875,-0.25,1.25
1696240292804,-0.22290039,-0.91973877,0.038513184,1.296875,-0.09375,-1.921875
1696240292848,-0.23046875,-0.9038696,-0.073791504,2.609375,-1.546875,-3.359375
1696240292883,-0.359375,-0.9402466,0.0014038086,6.3125,-3.890625,-3.234375
1696240292927,-0.31079102,-0.9380493,-0.055725098,3.53125,-3.328125,2.78125
1696240292966,-0.24072266,-0.8904419,-0.06915283,3.28125,-2.765625,1.59375
1696240293006,-0.25073242,-0.80255127,-0.062805176,4.671875,0.640625,5.0
1696240293044,-0.30688477,-0.9607544,-0.013000488,8.046875,-2.96875,7.609375
1696240293086,-0.33764648,-1.0598755,-5.493164E-4,0.875,-6.609375,3.5
1696240293123,-0.27294922,-0.9898071,-0.049621582,-3.5625,-0.375,1.921875
1696240293164,-0.23461914,-0.9116821,-0.03668213,-6.75,-1.046875,1.734375
1696240293205,-0.1965332,-0.9429321,-0.054748535,-5.640625,-0.375,-0.34375
1696240293248,-0.2548828,-0.9866333,-0.054016113,-6.03125,-9.125,-6.265625
1696240293284,-0.3059082,-0.95758057,-0.012512207,-4.703125,-6.5,-4.65625
1696240293326,-0.31176758,-0.99542236,-0.012512207,-0.875,1.578125,1.9375
1696240293369,-0.2861328,-1.0125122,0.0033569336,-0.03125,-0.484375,3.1875
1696240293406,-0.29418945,-0.88165283,-0.058166504,-2.390625,2.109375,5.65625
1696240293446,-0.3100586,-0.9204712,0.03289795,-0.09375,8.734375,3.8125
1696240293485,-0.24951172,-0.9522095,0.019470215,-2.0625,-2.890625,-2.546875
1696240293525,-0.2956543,-1.0247192,-0.031066895,4.765625,0.28125,-1.796875
1696240293564,-0.21777344,-0.93218994,-0.0134887695,-2.8125,2.15625,1.5625
1696240293606,-0.28735352,-0.90753174,-0.007385254,-3.296875,4.234375,-1.09375
1696240293646,-0.23388672,-0.99053955,0.010925293,1.609375,1.515625,-3.390625
1696240293686,-0.33520508,-0.975647,-0.0022583008,2.109375,0.78125,2.078125
1696240293725,-0.23876953,-0.9776001,0.023864746,-2.6875,2.53125,0.984375
1696240293764,-0.27124023,-0.92974854,-0.020568848,-1.421875,1.65625,0.546875
1696240293805,-0.2668457,-0.93756104,0.02923584,0.78125,5.25,0.9375
1696240293845,-0.3215332,-0.92388916,-0.030822754,2.078125,0.03125,-0.734375
1696240293885,-0.2565918,-1.0059204,0.030944824,-0.609375,0.203125,-2.359375
1696240293925,-0.28955078,-0.9373169,0.015075684,1.09375,-1.359375,-0.046875
1696240293965,-0.3112793,-0.9324341,-0.005432129,-3.75,1.453125,1.3125
1696240294004,-0.32592773,-0.9319458,0.053894043,1.109375,7.640625,-0.984375
1696240294046,-0.31860352,-0.95269775,-0.009094238,2.46875,-1.15625,-1.40625
1696240294086,-0.24951172,-0.9800415,0.049987793,0.375,3.484375,1.765625
1696240294125,-0.2175293,-0.97003174,-0.0335083,-0.078125,0.125,0.609375
1696240294165,-0.2705078,-0.91607666,0.04486084,0.15625,4.359375,-1.015625
1696240294184,-0.31225586,-0.9685669,-0.019348145,2.703125,0.40625,-0.90625
1696240294249,-0.29907227,-1.024231,0.02508545,1.5625,-0.0625,0.1875
1696240294264,-0.25146484,-0.9072876,0.020690918,-2.234375,2.59375,0.453125
1696240294304,-0.30371094,-0.97857666,-0.008361816,-0.53125,2.140625,-1.109375
1696240294346,-0.32666016,-0.90802,0.023864746,1.3125,2.828125,-1.53125
1696240294386,-0.26831055,-0.96343994,0.0138549805,-1.1875,-3.109375,-1.5625
1696240294425,-0.31958008,-0.9524536,0.015075684,0.421875,-2.90625,1.765625
1696240294465,-0.3395996,-1.0708618,0.036071777,6.875,3.75,0.171875
1696240294504,-0.27490234,-0.9517212,-0.016418457,1.40625,1.390625,2.03125
1696240294547,-0.23339844,-0.8904419,-0.024719238,5.21875,3.296875,-1.140625
1696240294585,-0.25390625,-0.99664307,-0.035949707,9.171875,2.953125,0.515625
1696240294624,-0.2788086,-0.9973755,-0.035461426,5.359375,3.34375,2.046875
1696240294666,-0.2722168,-0.928772,-0.054992676,9.09375,-3.328125,0.34375
1696240294708,-0.29589844,-0.91290283,-0.082092285,5.0625,-4.125,0.953125
1696240294747,-0.30981445,-0.91534424,-0.06915283,3.28125,-5.421875,-0.84375
1696240294786,-0.30200195,-0.82110596,-0.07745361,-1.5,-7.21875,-0.9375
1696240294827,-0.2861328,-0.85235596,-0.089660645,0.546875,-2.75,2.796875
1696240294865,-0.26342773,-1.0613403,-0.022033691,0.546875,-5.03125,0.59375
1696240294904,-0.34033203,-1.0195923,-0.014221191,-7.15625,-8.6875,0.140625
1696240294944,-0.26586914,-0.91778564,-0.07086182,-14.59375,-5.21875,-0.421875
1696240295009,-0.2265625,-0.8267212,-0.05621338,-9.265625,-5.140625,-2.78125
1696240295024,-0.24316406,-1.0420532,-0.008850098,-2.6875,0.03125,-5.546875
1696240295066,-0.36791992,-1.0713501,-0.003967285,-2.0,-3.859375,-2.078125
1696240295126,-0.35742188,-0.9373169,0.007019043,-2.609375,2.796875,2.6875
1696240295146,-0.31396484,-0.9702759,-0.024963379,-0.015625,0.4375,2.0625
1696240295184,-0.3034668,-0.9036255,-0.026916504,-3.640625,-0.6875,-0.078125
1696240295249,-0.2548828,-0.8882446,0.010437012,-1.109375,7.234375,2.5625
1696240295264,-0.2841797,-1.0252075,-0.003479004,-3.46875,0.296875,-0.984375
1696240295305,-0.25561523,-1.0300903,-0.043518066,0.078125,-1.96875,-0.796875
1696240295349,-0.25512695,-0.925354,-0.013244629,-1.875,3.359375,1.15625
1696240295406,-0.2849121,-0.9175415,-0.03643799,-1.140625,-1.390625,1.125
1696240295445,-0.3125,-0.9841919,0.047058105,2.046875,6.640625,0.46875
1696240295448,-0.42626953,-1.0772095,-0.06060791,9.75,3.515625,5.71875
1696240295485,-0.2548828,-0.91119385,0.05999756,2.3125,5.53125,7.4375
1696240295568,-0.22265625,-0.8335571,-0.11212158,-3.046875,-6.84375,1.265625
1696240295573,-0.24487305,-0.8740845,-0.003479004,-2.4375,3.40625,-3.078125
1696240295605,-0.2824707,-1.0352173,-0.04840088,1.875,-4.828125,-2.03125
1696240295645,-0.23803711,-1.0713501,-0.0037231445,-2.203125,-0.125,2.9375
1696240295684,-0.24511719,-0.95098877,-0.018127441,-4.25,0.453125,1.46875
1696240295724,-0.3017578,-0.9036255,0.019714355,-2.265625,-1.484375,-3.109375
1696240295763,-0.32958984,-0.87628174,-0.035949707,1.671875,3.234375,-1.0625
1696240295805,-0.34228516,-1.0615845,-0.0178833,1.28125,0.34375,1.15625
1696240295849,-0.22192383,-0.9680786,0.019958496,1.234375,3.078125,1.453125
1696240295885,-0.2409668,-0.9507446,-0.054016113,1.484375,0.171875,1.359375
1696240295925,-0.29248047,-0.9055786,0.011169434,2.28125,2.15625,-0.859375
1696240295965,-0.25976562,-0.99542236,-0.016174316,2.40625,-1.28125,-0.9375
1696240296004,-0.3154297,-0.97735596,-0.013000488,2.625,-1.46875,1.40625
1696240296046,-0.25927734,-0.9483032,0.0067749023,-2.359375,2.890625,4.90625
1696240296085,-0.2553711,-0.94317627,-0.0051879883,-3.328125,-1.28125,-2.78125
1696240296125,-0.25732422,-0.9644165,0.0028686523,-3.078125,-4.671875,-6.15625
1696240296165,-0.23999023,-0.9939575,-0.016662598,-1.890625,-13.40625,-6.515625
1696240296205,-0.35913086,-1.0337524,0.06121826,-0.78125,-5.3125,-3.078125
1696240296245,-0.34375,-0.90753174,-0.04425049,1.890625,-3.78125,2.828125
1696240296286,-0.29956055,-0.98321533,0.0021362305,-0.125,-0.140625,0.734375
1696240296328,-0.29296875,-0.9158325,0.0028686523,2.765625,-0.453125,-2.9375
1696240296366,-0.29589844,-0.9915161,-0.017150879,1.8125,-0.046875,-2.140625
1696240296404,-0.25585938,-0.96221924,-0.011047363,3.203125,-4.71875,-2.4375
1696240296446,-0.2685547,-0.8911743,-0.027160645,-1.734375,-1.6875,0.171875
1696240296487,-0.27075195,-0.9741821,-0.02520752,0.859375,-5.984375,-1.671875
1696240296526,-0.33740234,-0.9417114,-0.039855957,4.0,-5.265625,-2.9375
1696240296566,-0.3256836,-0.944397,-0.026672363,0.421875,-3.640625,2.546875
1696240296608,-0.3071289,-0.9053345,-0.058654785,2.984375,-2.09375,2.25
1696240296644,-0.30517578,-0.86676025,-0.024475098,7.859375,0.890625,4.484375
1696240296686,-0.29663086,-0.8779907,-0.06011963,3.28125,1.0625,7.109375
1696240296767,-0.2541504,-0.94610596,-0.055236816,2.8125,2.734375,2.03125
1696240296770,-0.25219727,-0.93292236,0.0045776367,-2.984375,0.6875,4.96875
1696240296784,-0.29736328,-0.86431885,-0.04107666,-9.578125,-4.46875,3.8125
1696240296844,-0.27294922,-1.0169067,-0.0256958,-4.046875,-3.140625,-4.875
1696240296866,-0.3034668,-1.0791626,-0.046203613,-0.640625,-5.265625,-2.53125
1696240296929,-0.26391602,-0.9746704,-0.025939941,-2.359375,-0.84375,1.5625
1696240296943,-0.23144531,-0.9104614,-0.00982666,-1.171875,0.453125,-3.203125
1696240296986,-0.26367188,-0.99224854,-0.02520752,-1.703125,-2.390625,0.578125
1696240297025,-0.32250977,-0.9729614,0.007751465,-6.75,8.328125,4.8125
1696240297067,-0.29077148,-0.9175415,-0.011047363,-4.671875,-0.609375,-0.703125
1696240297106,-0.30419922,-0.9553833,-0.010314941,7.3125,-0.328125,0.28125
1696240297145,-0.3178711,-1.0007935,0.02923584,0.8125,4.015625,4.9375
1696240297209,-0.2709961,-0.89190674,-0.10992432,-3.21875,0.46875,0.84375
1696240297223,-0.24145508,-0.9595337,0.07269287,-0.28125,7.359375,-1.515625
1696240297266,-0.328125,-1.0054321,-0.101379395,4.5,-2.625,-1.03125
1696240297327,-0.22167969,-1.0567017,0.039978027,5.5,5.609375,3.46875
1696240297343,-0.24829102,-0.89068604,-0.03717041,-4.546875,0.1875,3.296875
1696240297386,-0.22387695,-0.85821533,-0.02130127,-0.3125,-1.296875,-5.21875
1696240297424,-0.26464844,-0.98760986,0.046813965,1.578125,5.125,-5.765625
1696240297489,-0.38989258,-1.1052856,-0.04083252,0.171875,-3.03125,5.90625
1696240297504,-0.27148438,-0.9246216,0.017028809,-0.859375,3.453125,5.140625
1696240297544,-0.26220703,-0.8911743,-0.055725098,-1.5625,2.1875,1.796875
1696240297586,-0.27319336,-0.9360962,0.097839355,-2.234375,2.78125,-3.625
1696240297625,-0.26904297,-0.9800415,-0.08843994,-1.8125,-7.40625,-3.40625
1696240297665,-0.23095703,-1.0088501,0.039978027,-2.34375,0.90625,2.203125
1696240297728,-0.28637695,-0.93707275,-0.034484863,-3.234375,1.03125,3.90625
1696240297743,-0.28393555,-0.9607544,-0.007873535,-1.390625,2.859375,-3.125
1696240297784,-0.27197266,-0.90338135,0.0026245117,-1.453125,0.703125,-4.53125
1696240297826,-0.26611328,-1.0149536,-0.012023926,-4.09375,-2.03125,-1.421875
1696240297865,-0.2355957,-1.0562134,-0.0076293945,-3.34375,-10.96875,-6.9375
1696240297905,-0.4091797,-0.89385986,0.04852295,-0.515625,-8.4375,-7.359375
1696240297966,-0.37353516,-0.96221924,0.028503418,6.1875,-1.9375,-4.1875
1696240297984,-0.32373047,-0.9265747,0.008239746,2.015625,1.90625,2.609375
1696240298025,-0.26245117,-0.94610596,0.014099121,0.828125,4.890625,2.046875
1696240298090,-0.26831055,-0.975647,-0.020812988,2.453125,0.3125,-0.65625
1696240298095,-0.30126953,-0.92926025,0.018737793,2.078125,1.796875,0.171875
1696240298131,-0.28515625,-0.89508057,-0.059631348,1.171875,-3.796875,0.484375
1696240298165,-0.27856445,-0.90045166,-0.058654785,3.75,-2.828125,1.125
1696240298209,-0.28735352,-0.82232666,-0.036193848,6.46875,-1.9375,4.328125
1696240298246,-0.29833984,-0.940979,0.009216309,6.9375,-1.125,5.28125
1696240298287,-0.3564453,-1.0640259,-0.013244629,0.546875,-6.859375,2.53125
1696240298328,-0.28173828,-1.0012817,-0.04083252,-1.25,-1.375,2.703125
1696240298365,-0.2133789,-0.9351196,-0.07183838,-7.609375,0.25,3.46875
1696240298405,-0.26586914,-0.9055786,0.019714355,-2.375,1.578125,-0.890625
1696240298445,-0.32421875,-1.0044556,-0.031555176,-4.453125,-5.875,-3.25
1696240298488,-0.32177734,-0.96588135,0.035583496,-3.359375,-0.46875,0.234375
1696240298528,-0.28955078,-0.98883057,-0.012023926,-3.921875,-1.09375,0.328125
1696240298565,-0.29663086,-0.8999634,0.006286621,-4.625,-0.3125,-2.34375
1696240298606,-0.31298828,-0.9985962,-0.005432129,-2.875,4.3125,-0.28125
1696240298645,-0.29956055,-0.9385376,-0.0256958,-2.890625,-0.1875,-1.875
1696240298686,-0.28222656,-0.98028564,0.047302246,1.875,1.625,0.265625
1696240298724,-0.2680664,-0.92437744,-0.02154541,-2.8125,0.765625,2.0625
1696240298764,-0.28344727,-0.9937134,0.03363037,-1.953125,1.984375,-3.453125
1696240298805,-0.30371094,-0.89019775,-0.02178955,6.09375,-1.84375,-0.59375
1696240298845,-0.30151367,-0.99786377,0.03729248,0.828125,2.515625,3.578125
1696240298885,-0.28833008,-0.9295044,0.018005371,-0.3125,0.921875,1.0625
1696240298926,-0.2939453,-0.9258423,0.0018920898,0.328125,7.484375,-1.046875
1696240298966,-0.30126953,-0.9849243,-0.01763916,6.703125,-2.046875,-1.5625
1696240299007,-0.29663086,-0.9636841,0.028259277,2.328125,2.9375,2.59375
1696240299049,-0.27392578,-0.9631958,-0.061828613,0.0,2.203125,1.109375
1696240299085,-0.24951172,-0.9060669,0.028259277,-0.890625,0.09375,-3.953125
1696240299126,-0.3059082,-0.96710205,-0.027404785,-1.53125,-0.125,-0.140625
1696240299164,-0.28393555,-1.0020142,0.025817871,-4.78125,-1.90625,-1.625
1696240299205,-0.23046875,-0.973938,0.012390137,-3.546875,-12.59375,-4.515625
1696240299247,-0.34326172,-0.9885864,0.050476074,0.59375,-5.953125,-3.1875
1696240299289,-0.36938477,-0.9956665,0.007019043,1.625,1.109375,0.890625
1696240299327,-0.34399414,-0.8826294,-0.013244629,1.046875,3.375,4.140625
1696240299387,-0.28173828,-0.8904419,0.010681152,2.296875,0.59375,-0.421875
1696240299403,-0.28271484,-0.99176025,0.039733887,4.765625,2.984375,-2.40625
1696240299425,-0.32421875,-0.94781494,-0.031799316,2.203125,0.375,0.8125
1696240299488,-0.30541992,-0.9463501,-0.030090332,5.59375,-0.28125,2.234375
1696240299505,-0.27026367,-0.97198486,-0.0022583008,4.46875,1.03125,-0.109375
1696240299550,-0.2746582,-0.92633057,-0.04840088,5.0,0.125,0.265625
1696240299586,-0.31811523,-0.9085083,-0.022277832,6.765625,-3.21875,1.078125
1696240299625,-0.32836914,-0.8677368,-0.07159424,4.234375,-3.6875,2.328125
1696240299688,-0.29174805,-0.8562622,-0.002746582,6.140625,-1.65625,5.640625
1696240299705,-0.2980957,-1.0405884,-0.0134887695,7.25,-8.375,3.703125
1696240299766,-0.27978516,-1.000061,-0.09625244,-4.03125,-4.625,2.453125
1696240299784,-0.22045898,-0.8880005,-0.038635254,-4.515625,-3.4375,0.421875
1696240299828,-0.2475586,-0.96710205,-0.05279541,-3.6875,-0.953125,0.578125
1696240299887,-0.31713867,-1.0337524,-0.06085205,-3.796875,-2.359375,-2.171875
1696240299904,-0.32373047,-0.9607544,-0.004699707,-3.6875,3.6875,2.96875
1696240299947,-0.27514648,-0.96588135,-0.009094238,-2.046875,1.625,2.40625
1696240299984,-0.2705078,-0.9866333,-0.055480957,-5.390625,-4.84375,-0.03125
1696240300028,-0.26757812,-0.85601807,0.007019043,-3.390625,5.734375,4.203125
1696240300065,-0.23803711,-0.97735596,-0.013244629,-4.65625,-2.484375,0.453125
1696240300107,-0.31103516,-1.0078735,-0.042297363,0.859375,-2.359375,-1.65625
1696240300149,-0.2734375,-0.9915161,-0.034484863,-1.640625,-0.640625,1.21875
1696240300184,-0.24633789,-0.87384033,-5.493164E-4,-4.015625,1.328125,-0.625
1696240300226,-0.27929688,-0.96099854,-0.012512207,3.140625,4.15625,-0.765625
1696240300266,-0.3010254,-1.0505981,-0.039367676,0.078125,0.40625,-0.234375
1696240300307,-0.2734375,-0.94488525,-0.023010254,-1.953125,0.5,-1.09375
1696240300344,-0.24365234,-0.88287354,0.0040893555,-1.40625,-1.71875,-1.09375
1696240300386,-0.3088379,-0.9536743,0.008483887,-0.34375,3.640625,0.15625
1696240300424,-0.3671875,-1.0249634,-0.004699707,0.984375,0.125,1.046875
1696240300465,-0.24633789,-0.9595337,-0.0010375977,-1.140625,-1.515625,0.4375
1696240300508,-0.20727539,-0.9216919,-0.043273926,2.78125,-1.5625,1.859375
1696240300544,-0.24487305,-0.9517212,-0.02960205,6.515625,4.25,6.140625
1696240300607,-0.22143555,-1.005188,-0.04425049,7.578125,-4.546875,4.390625
1696240300624,-0.28344727,-0.958313,9.1552734E-4,3.15625,-5.671875,0.859375
1696240300666,-0.34960938,-0.91412354,-0.0256958,-2.1875,-3.203125,3.921875
1696240300706,-0.29882812,-0.88165283,0.016784668,-3.03125,7.234375,1.265625
1696240300725,-0.29077148,-0.99053955,-0.051086426,0.109375,-2.09375,-3.6875
1696240300767,-0.18676758,-1.005188,0.0026245117,0.109375,0.109375,-1.953125
1696240300806,-0.20410156,-0.94976807,-0.04840088,-2.921875,-3.75,1.34375
1696240300849,-0.26000977,-0.942688,-0.04864502,-0.671875,0.171875,3.375
1696240300884,-0.2915039,-0.97613525,-0.0049438477,-0.71875,-0.984375,1.8125
1696240300927,-0.30371094,-0.9397583,-0.02130127,1.0625,-1.78125,-2.5
1696240300966,-0.30639648,-1.0237427,-0.0025024414,2.609375,-3.296875,-4.09375
1696240301005,-0.28759766,-1.0327759,-0.0010375977,3.3125,1.25,-0.890625
1696240301045,-0.27856445,-0.93218994,-0.012023926,1.46875,0.8125,-1.0
1696240301086,-0.26098633,-0.9343872,-0.035705566,0.515625,4.140625,-1.0625
1696240301126,-0.2783203,-0.92803955,-0.03253174,2.8125,1.0625,-3.28125
1696240301167,-0.26538086,-0.97125244,-0.037902832,2.765625,5.53125,-3.34375
1696240301207,-0.25756836,-0.97125244,-0.019592285,8.15625,4.4375,-1.140625
1696240301249,-0.30810547,-1.015686,-0.08746338,4.796875,2.03125,0.0625
1696240301287,-0.2788086,-0.9175415,-0.06915283,3.5625,3.96875,0.328125
1696240301325,-0.27172852,-0.925354,-0.070129395,6.21875,-0.203125,-0.140625
1696240301365,-0.27685547,-0.90460205,-0.0791626,3.046875,-2.21875,0.890625
1696240301405,-0.2644043,-0.8364868,-0.10089111,3.796875,-2.71875,2.421875
1696240301446,-0.27392578,-0.8364868,-0.09576416,1.921875,-0.484375,3.90625
1696240301486,-0.2668457,-1.0703735,-0.031311035,3.484375,-6.40625,0.796875
1696240301528,-0.31518555,-1.013977,-0.047668457,-5.921875,-10.359375,-0.75
1696240301566,-0.26171875,-0.88287354,-0.15240479,-13.796875,-11.109375,0.953125
1696240301604,-0.23022461,-0.81085205,-0.020324707,-2.84375,-1.71875,-0.765625
1696240301648,-0.27685547,-1.1045532,-0.1038208,-1.984375,-5.859375,-3.40625
1696240301686,-0.35327148,-1.0488892,-0.014221191,-0.28125,3.359375,-0.40625
1696240301727,-0.26098633,-0.94903564,-0.10650635,-0.921875,1.90625,2.9375
1696240301769,-0.24365234,-0.9221802,-0.057922363,1.71875,3.109375,2.734375
1696240301807,-0.28857422,-0.942688,-0.017150879,4.96875,3.984375,2.765625
1696240301848,-0.28466797,-0.96539307,-0.07159424,-0.21875,0.96875,4.484375
1696240301887,-0.22167969,-0.93170166,-0.014953613,-3.625,3.859375,1.75
1696240301926,-0.21362305,-1.0210571,-0.03326416,-3.375,0.40625,-1.015625
1696240301966,-0.29638672,-0.98223877,-0.07305908,2.109375,-0.34375,0.828125
1696240302027,-0.28051758,-0.92926025,-0.06060791,-2.28125,0.984375,2.1875
1696240302031,-0.27294922,-0.90704346,-0.04425049,-1.890625,2.46875,1.359375
1696240302087,-0.23144531,-0.98565674,-0.045715332,0.328125,3.59375,-1.21875
1696240302107,-0.3305664,-1.0300903,-0.06524658,5.828125,0.203125,1.96875
1696240302147,-0.21411133,-0.94000244,-0.06060791,0.84375,0.703125,2.984375
1696240302205,-0.23657227,-0.9014282,-0.07183838,-0.015625,-0.875,1.625
1696240302246,-0.2055664,-0.9990845,-0.042785645,5.0625,-2.90625,0.453125
1696240302264,-0.33984375,-1.0181274,-0.08355713,4.40625,-2.3125,2.59375
1696240302305,-0.2602539,-0.91412354,-0.020812988,4.84375,-1.3125,5.75
1696240302349,-0.20410156,-0.8713989,-0.070373535,-6.5,4.125,1.875
1696240302386,-0.19018555,-0.954895,-0.06939697,-3.109375,-0.8125,-6.5625
1696240302447,-0.2800293,-1.0266724,-0.026428223,-0.234375,1.453125,-4.8125
1696240302484,-0.3466797,-1.0462036,-0.019836426,0.046875,-5.5625,-3.0625
1696240302506,-0.2998047,-0.9336548,-0.1026001,-1.03125,0.484375,-0.65625
1696240302546,-0.2277832,-0.9170532,-0.035705566,5.640625,4.75,-3.8125
1696240302586,-0.2770996,-0.9258423,-0.07891846,1.421875,3.578125,-0.9375
1696240302627,-0.26611328,-0.9998169,-0.07647705,1.359375,4.328125,-2.609375
1696240302668,-0.25024414,-0.96221924,-0.05718994,0.578125,0.375,-0.859375
1696240302725,-0.28833008,-0.944397,-0.054504395,0.71875,0.40625,1.09375
1696240302744,-0.26513672,-0.93927,-0.07940674,-0.84375,0.78125,-0.59375
1696240302785,-0.27172852,-0.8809204,-0.070373535,2.5,-1.421875,-1.03125
1696240302825,-0.28588867,-0.9631958,-0.077697754,1.5,-4.734375,-2.953125
1696240302889,-0.26416016,-0.96051025,-0.06500244,1.375,-5.40625,-4.78125
1696240302906,-0.2578125,-0.9421997,-0.062805176,3.125,-3.09375,-1.5
1696240302946,-0.29882812,-0.86431885,-0.11480713,0.578125,-3.640625,1.859375
1696240302986,-0.29223633,-0.8616333,-0.081604004,3.828125,-2.078125,3.203125
1696240303027,-0.33740234,-0.96759033,-0.070129395,4.4375,-9.09375,3.765625
1696240303088,-0.29760742,-0.97052,-0.12945557,-7.703125,-8.640625,1.96875
1696240303104,-0.20458984,-0.9121704,-0.07232666,-1.359375,-1.390625,-1.3125
1696240303150,-0.28198242,-1.0015259,-0.14459229,-1.140625,-0.875,2.5625
1696240303187,-0.31811523,-0.9968872,-0.07696533,4.78125,4.3125,4.265625
1696240303225,-0.26538086,-0.98809814,-0.09234619,0.46875,6.203125,6.09375
1696240303265,-0.22045898,-0.95391846,-0.10430908,0.53125,2.40625,4.296875
1696240303325,-0.21484375,-0.90997314,-0.12799072,-4.515625,-0.71875,1.484375
1696240303345,-0.28125,-0.93170166,-0.08721924,-5.421875,5.625,0.640625
1696240303367,-0.27026367,-0.98883057,-0.045959473,-3.5625,-0.625,-1.375
1696240303406,-0.24853516,-1.0484009,-0.034973145,-1.796875,-2.25,-1.390625
1696240303445,-0.20043945,-0.9175415,-0.10211182,-5.640625,0.234375,1.265625
1696240303485,-0.25585938,-0.88287354,-0.04449463,-4.8125,0.875,1.171875
1696240303525,-0.30981445,-0.9595337,-0.0569458,-0.171875,-0.578125,-0.40625
1696240303566,-0.29296875,-1.071106,-0.050354004,0.03125,-0.46875,-0.4375
1696240303606,-0.2175293,-0.9192505,-0.070129395,-4.15625,-0.4375,-0.625
1696240303645,-0.2175293,-0.8826294,-0.054748535,-2.359375,-0.453125,-1.015625
1696240303685,-0.2927246,-0.9734497,-0.019104004,0.078125,3.546875,1.75
1696240303727,-0.32055664,-1.0540161,-0.049865723,-1.78125,-1.4375,1.375
1696240303766,-0.21142578,-0.91973877,-0.034973145,-0.546875,-2.890625,-1.46875
1696240303806,-0.21264648,-0.93218994,-0.0491333,-0.640625,-3.65625,0.734375
1696240303845,-0.2434082,-0.9282837,-0.046203613,2.578125,-2.828125,2.359375
1696240303885,-0.28320312,-1.0025024,-0.0713501,1.90625,-5.96875,1.28125
1696240303925,-0.29858398,-0.9414673,-0.06817627,3.890625,0.296875,3.96875
1696240303966,-0.28173828,-0.92681885,-0.07281494,3.234375,0.625,3.34375
1696240304007,-0.1940918,-0.93585205,-0.07183838,2.625,1.265625,0.375
1696240304048,-0.17797852,-0.94610596,-0.043762207,0.703125,0.453125,1.15625
1696240304088,-0.2055664,-1.0379028,-0.07183838,-0.140625,-3.15625,2.46875
1696240304126,-0.27514648,-1.0025024,-0.047912598,-1.453125,0.484375,2.015625
1696240304165,-0.21118164,-0.91192627,-0.058898926,-0.25,-4.703125,-0.5
1696240304207,-0.24316406,-0.89019775,-0.07476807,-1.34375,-1.3125,-1.265625
1696240304247,-0.28051758,-0.9788208,-0.058898926,1.15625,0.65625,0.46875
1696240304290,-0.24194336,-0.99346924,-0.061584473,1.140625,-0.15625,-2.75
1696240304327,-0.2541504,-0.9663696,-0.055236816,1.75,-4.484375,-2.765625
1696240304369,-0.2722168,-1.0054321,-0.035217285,1.953125,-1.0,-1.234375
1696240304406,-0.27319336,-0.97735596,-0.09185791,0.5,2.078125,0.15625
1696240304448,-0.22851562,-0.96661377,-0.066467285,-0.25,0.203125,-3.375
1696240304486,-0.22460938,-0.9282837,-0.070129395,0.984375,1.046875,-5.625
1696240304528,-0.28051758,-0.9795532,-0.066711426,-0.890625,2.078125,-2.84375
1696240304570,-0.27539062,-0.95025635,-0.05230713,1.3125,2.40625,-3.46875
1696240304607,-0.26098633,-0.96466064,-0.08111572,1.25,3.28125,-3.9375
1696240304645,-0.28857422,-0.99298096,-0.085510254,1.59375,0.515625,-3.28125
1696240304663,-0.27001953,-0.92633057,-0.05987549,6.015625,5.890625,-1.125
1696240304708,-0.30639648,-0.9546509,-0.097473145,2.890625,3.921875,1.109375
1696240304746,-0.26757812,-0.927063,-0.089904785,5.484375,2.125,0.109375
1696240304805,-0.2775879,-0.9627075,-0.082336426,4.84375,0.609375,0.25
1696240304845,-0.28125,-0.8804321,-0.12921143,-0.34375,-4.890625,2.375
1696240304866,-0.25805664,-0.8389282,-0.11968994,-2.40625,-0.390625,4.265625
1696240304905,-0.20214844,-0.8989868,-0.05645752,-1.453125,-2.46875,3.203125
1696240304947,-0.34716797,-0.99542236,-0.09820557,-12.328125,-12.828125,2.15625
1696240305009,-0.27026367,-0.9492798,-0.105285645,-5.203125,1.609375,0.5625
1696240305044,-0.20898438,-1.0706177,-0.06744385,-2.59375,-1.28125,-1.875
1696240305065,-0.28881836,-0.99053955,-0.09698486,0.03125,0.453125,2.9375
1696240305128,-0.26342773,-0.8831177,-0.07598877,0.28125,1.859375,4.28125
1696240305143,-0.27392578,-0.96417236,-0.04083252,-2.25,2.1875,3.375
1696240305185,-0.27392578,-0.9939575,-0.11212158,-1.671875,-2.734375,0.625
1696240305226,-0.23852539,-0.92144775,-0.023986816,-4.34375,4.09375,0.15625
1696240305266,-0.2331543,-0.9807739,-0.039611816,-6.84375,0.171875,-0.015625
1696240305304,-0.2841797,-0.96417236,-0.030822754,-0.15625,-1.8125,-0.703125
1696240305346,-0.2680664,-1.0020142,-0.044006348,1.734375,-0.625,3.359375
1696240305385,-0.21386719,-0.93829346,-0.07354736,-3.828125,-0.96875,0.9375
1696240305426,-0.2355957,-0.8867798,-0.039367676,-2.203125,-0.484375,-1.8125
1696240305487,-0.27441406,-0.9768677,-0.047424316,-0.140625,-0.203125,-0.078125
1696240305505,-0.28955078,-1.0427856,-0.046447754,-5.515625,0.0,0.71875
1696240305568,-0.23022461,-0.9553833,-0.037902832,-4.34375,-1.84375,-1.484375
1696240305585,-0.20532227,-0.9351196,-0.039367676,-4.0,0.3125,-0.46875
1696240305628,-0.28515625,-0.9463501,0.020690918,-1.796875,2.828125,1.109375
1696240305665,-0.34228516,-0.9780884,0.001159668,1.5625,-2.984375,0.96875
1696240305708,-0.30151367,-0.98687744,-0.020324707,-0.1875,-0.671875,0.640625
1696240305744,-0.2097168,-0.9475708,-0.0068969727,-1.15625,0.015625,-0.546875
1696240305786,-0.2109375,-0.9368286,-0.04840088,-1.296875,-2.515625,-0.78125
1696240305845,-0.26391602,-0.93878174,-0.017150879,-2.234375,-3.203125,-1.609375
1696240305864,-0.27856445,-0.98883057,-0.02935791,-2.390625,-0.0625,-0.5
1696240305905,-0.2800293,-1.0383911,0.011169434,-1.046875,-3.140625,-2.0625
1696240305952,-0.3400879,-1.0327759,0.015808105,6.59375,-5.25,-0.328125
1696240305964,-0.28930664,-0.87994385,-0.0068969727,2.109375,6.4375,4.046875
1696240306006,-0.2434082,-0.95440674,-0.034729004,6.390625,4.296875,0.109375
1696240306046,-0.2746582,-0.9805298,-0.038391113,8.46875,6.515625,-2.34375
1696240306086,-0.26000977,-1.0142212,0.004333496,11.421875,11.609375,-0.515625
1696240306127,-0.27319336,-0.95977783,-0.07940674,6.984375,9.84375,0.671875
1696240306167,-0.30737305,-0.9607544,-0.06329346,13.65625,10.359375,2.5625
1696240306206,-0.24975586,-0.9727173,-0.061828613,11.015625,7.3125,1.625
1696240306246,-0.21240234,-0.94244385,-0.101867676,5.4375,2.1875,-1.25
1696240306288,-0.24951172,-0.8911743,-0.101623535,2.359375,-1.84375,-1.859375
1696240306328,-0.2705078,-0.87750244,-0.10308838,-5.25,-5.03125,-2.046875
1696240306364,-0.25976562,-0.7991333,-0.15264893,-10.75,-8.90625,-2.3125
1696240306406,-0.2241211,-0.8862915,-0.043273926,-9.75,-6.421875,-1.46875
1696240306446,-0.296875,-0.94732666,-0.059387207,-16.203125,-28.984375,-7.40625
1696240306486,-0.37646484,-1.0110474,-0.10699463,-4.40625,-10.4375,-4.03125
1696240306526,-0.18261719,-1.0269165,0.010925293,-3.59375,6.25,1.875
1696240306567,-0.34277344,-1.0303345,-0.06842041,-2.046875,0.078125,4.171875
1696240306606,-0.28320312,-0.9331665,-0.014221191,2.375,5.375,2.921875
1696240306647,-0.2849121,-0.8855591,-0.038635254,-0.453125,-0.609375,5.0
1696240306688,-0.27246094,-0.9763794,-0.06329346,4.15625,1.84375,2.875
1696240306726,-0.20898438,-0.9727173,-0.047912598,-4.03125,-3.078125,-0.203125
1696240306765,-0.25317383,-0.93951416,-0.045959473,-4.71875,-0.9375,1.0
1696240306805,-0.28027344,-0.9866333,1.8310547E-4,-2.140625,2.0625,1.09375
1696240306846,-0.31640625,-0.9829712,0.0060424805,0.359375,-3.390625,0.234375
1696240306886,-0.34179688,-1.006897,-0.047424316,-0.015625,-4.578125,0.359375
1696240306927,-0.23901367,-0.8826294,-0.061584473,-6.3125,3.25,2.109375
1696240306965,-0.21020508,-0.92437744,-0.018615723,-6.671875,1.3125,-2.234375
1696240307006,-0.21582031,-0.958313,-0.03668213,-2.96875,-3.171875,-6.296875
1696240307045,-0.3413086,-1.03302,-0.02935791,2.578125,-0.09375,0.421875
1696240307085,-0.2644043,-0.99884033,0.012390137,-0.734375,0.171875,4.03125
1696240307129,-0.3010254,-0.90631104,-0.011779785,1.15625,1.96875,3.90625
1696240307165,-0.27172852,-0.9348755,0.01361084,4.96875,4.671875,1.765625
1696240307207,-0.30249023,-0.9507446,-0.05621338,5.671875,-1.984375,0.8125
1696240307246,-0.22021484,-0.9807739,-0.008605957,3.4375,-0.90625,-1.515625
1696240307287,-0.20751953,-0.9800415,-0.06500244,1.6875,-1.140625,0.015625
1696240307305,-0.25512695,-0.92974854,-0.006652832,-2.390625,0.53125,1.21875
1696240307345,-0.28515625,-0.9260864,-0.0134887695,-0.34375,0.28125,0.28125
1696240307385,-0.33764648,-0.942688,-0.011047363,-0.328125,1.1875,1.140625
1696240307427,-0.27001953,-1.0112915,-0.0051879883,0.25,0.609375,-0.234375
1696240307464,-0.23071289,-0.9500122,-0.030090332,-3.234375,0.359375,0.125
1696240307505,-0.25170898,-0.95513916,-0.002746582,-1.984375,2.4375,1.75
1696240307565,-0.2421875,-0.9414673,-0.024719238,-2.671875,-2.984375,-1.484375
1696240307584,-0.27075195,-0.96466064,-0.004699707,-0.6875,-2.421875,-1.265625
1696240307646,-0.25195312,-1.0166626,-0.006652832,-0.59375,-2.75,-1.40625
1696240307686,-0.3046875,-1.0237427,-0.004699707,-0.046875,-6.484375,-2.296875
1696240307724,-0.31469727,-0.93756104,-0.018859863,2.875,0.1875,0.65625
1696240307747,-0.27929688,-0.9429321,-0.023010254,5.578125,3.125,1.859375
1696240307785,-0.25512695,-0.95196533,-0.012756348,8.4375,6.90625,0.28125
1696240307827,-0.28125,-1.0339966,-0.0413208,14.390625,10.53125,-0.984375
1696240307866,-0.25708008,-1.0137329,-0.012268066,15.078125,10.96875,1.5
1696240307926,-0.2824707,-0.88287354,-0.07330322,9.09375,3.578125,4.53125
1696240307944,-0.27319336,-0.8479614,-0.097473145,8.75,1.4375,2.28125
1696240307984,-0.2763672,-0.9397583,-0.06915283,9.21875,0.3125,1.296875
1696240308026,-0.30126953,-1.0161743,-0.09967041,1.734375,-3.890625,-0.28125
1696240308069,-0.19995117,-0.8904419,-0.05645752,-4.8125,-5.25,-1.609375
1696240308106,-0.25585938,-0.7798462,-0.15167236,-11.765625,-15.734375,-1.78125
1696240308147,-0.21289062,-0.895813,-0.09503174,-9.6875,-5.46875,0.46875
1696240308186,-0.23828125,-0.9204712,-0.027893066,-16.078125,-26.359375,-3.40625
1696240308226,-0.43310547,-0.8633423,-0.113342285,-11.65625,-19.171875,0.234375
1696240308265,-0.07373047,-1.2068481,-0.035217285,4.453125,3.609375,-3.140625
1696240308307,-0.34057617,-1.1636353,-0.033996582,-1.546875,2.453125,5.953125
1696240308346,-0.30517578,-0.8538208,-0.017150879,3.734375,3.8125,2.828125
1696240308410,-0.32763672,-0.8386841,-0.11968994,-4.640625,-0.34375,3.125
1696240308446,-0.21777344,-0.80670166,-0.09942627,-3.296875,4.171875,-1.828125
1696240308464,-0.14794922,-1.0054321,-0.06451416,-4.0625,1.1875,-7.15625
1696240308526,-0.27075195,-1.1289673,-0.021057129,0.296875,-1.4375,-2.09375
1696240308543,-0.31445312,-1.086731,0.022888184,4.3125,3.6875,7.3125
1696240308585,-0.32104492,-0.8633423,-0.033996582,-1.34375,4.34375,6.859375
1696240308603,-0.2175293,-0.80181885,-0.024719238,-1.359375,3.96875,1.8125
1696240308647,-0.21459961,-0.9175415,-0.033996582,1.03125,-5.5625,-4.609375
1696240308686,-0.30419922,-1.1704712,-0.047424316,-0.765625,0.234375,-2.984375
1696240308726,-0.23364258,-0.9951782,-0.10748291,-6.34375,1.078125,-1.375
1696240308765,-0.20117188,-0.8911743,-0.066711426,-2.046875,3.4375,-0.21875
1696240308806,-0.2397461,-0.9534302,-0.0025024414,2.40625,0.375,-0.34375
1696240308848,-0.34350586,-1.0088501,-0.04547119,0.921875,-0.96875,2.546875
1696240308885,-0.26782227,-0.93292236,-0.023498535,-1.328125,-2.15625,-0.1875
1696240308927,-0.24804688,-0.9746704,-0.06060791,0.21875,-2.234375,-0.4375
1696240308964,-0.24682617,-0.9277954,0.051696777,-0.171875,5.5,-0.125
1696240309008,-0.2824707,-0.9734497,-0.019348145,3.859375,-4.28125,1.421875
1696240309047,-0.30322266,-0.95928955,-0.0569458,-0.453125,-1.59375,2.5625
1696240309086,-0.17944336,-0.95928955,-0.046936035,-2.203125,-1.3125,0.796875
1696240309126,-0.25219727,-0.95196533,-0.058898926,-1.328125,-1.203125,2.28125
1696240309165,-0.28979492,-0.95562744,-0.0178833,0.5,0.984375,0.109375
1696240309206,-0.2878418,-1.0559692,-0.014221191,-0.125,-0.609375,-3.234375
1696240309245,-0.31347656,-0.99053955,0.01751709,3.484375,-0.609375,-2.09375
1696240309285,-0.26123047,-0.95196533,-0.04107666,4.40625,3.828125,1.15625
1696240309325,-0.21606445,-0.9746704,-0.043273926,5.15625,7.484375,2.234375
1696240309366,-0.24902344,-0.9170532,-0.038879395,4.171875,4.21875,-0.078125
1696240309406,-0.3034668,-0.92193604,-0.06500244,7.671875,4.671875,0.3125
1696240309446,-0.28393555,-0.9746704,-0.10650635,5.703125,5.09375,-0.8125
1696240309484,-0.21606445,-0.9534302,-0.07891846,7.328125,7.203125,-0.640625
1696240309527,-0.21508789,-0.9902954,-0.06768799,3.515625,2.046875,0.421875
1696240309565,-0.25219727,-0.96295166,-0.0881958,0.578125,-3.078125,0.390625
1696240309608,-0.26098633,-0.9067993,-0.08135986,1.609375,-3.1875,0.3125
1696240309647,-0.2548828,-0.9116821,-0.08746338,0.78125,-3.96875,-1.78125
1696240309685,-0.25390625,-0.8674927,-0.113342285,-8.265625,-11.671875,-3.765625
1696240309726,-0.24951172,-0.87286377,-0.12335205,-8.859375,-12.6875,-4.46875
1696240309766,-0.19067383,-0.7932739,-0.023254395,-7.984375,-13.046875,0.40625
1696240309808,-0.4104004,-1.0090942,-0.070373535,1.78125,-15.71875,0.3125
1696240309847,-0.27368164,-1.1795044,-0.015686035,5.0625,4.84375,2.71875
1696240309884,-0.26245117,-1.0806274,-0.050598145,0.1875,2.390625,3.9375
1696240309905,-0.26123047,-0.8831177,-0.07574463,-1.25,0.03125,1.484375
1696240309970,-0.24902344,-0.89385986,-0.09429932,2.078125,-2.765625,-2.71875
1696240309985,-0.26123047,-0.91070557,-0.07086182,-4.34375,-1.203125,-0.390625
1696240310027,-0.26293945,-0.9517212,-0.09210205,-4.140625,1.859375,0.4375
1696240310065,-0.22021484,-1.0420532,-0.04864502,-3.296875,0.890625,-0.171875
1696240310107,-0.27734375,-1.0244751,-0.009338379,1.84375,1.078125,2.71875
1696240310146,-0.3215332,-0.96881104,-0.0178833,0.953125,-0.125,3.125
1696240310188,-0.26708984,-0.8501587,-0.074523926,-5.53125,2.4375,2.453125
1696240310226,-0.23925781,-0.90045166,-0.034973145,-2.828125,4.859375,-0.59375
1696240310266,-0.24902344,-1.0215454,-0.036193848,-5.5,-0.421875,-4.5625
1696240310327,-0.24414062,-0.9824829,-0.07598877,-5.265625,-0.53125,-6.046875
1696240310347,-0.21166992,-0.9529419,-0.030090332,-2.484375,0.515625,0.734375
1696240310408,-0.24023438,-0.9793091,-0.027893066,-3.390625,2.84375,3.734375
1696240310427,-0.32958984,-0.9692993,0.007019043,2.171875,5.03125,4.765625
1696240310467,-0.35742188,-0.94000244,0.014099121,2.859375,0.125,2.015625
1696240310529,-0.22680664,-0.9522095,-0.031311035,-0.5,-3.046875,-2.5
1696240310568,-0.19311523,-0.9602661,-0.05645752,0.921875,0.21875,-0.25
1696240310586,-0.20605469,-0.95269775,-0.03765869,-1.71875,2.375,2.078125
1696240310628,-0.22631836,-0.9702759,-0.08770752,5.609375,-0.03125,4.0
1696240310664,-0.3034668,-1.0408325,-0.03643799,11.1875,1.234375,5.640625
1696240310707,-0.2097168,-0.9451294,0.024597168,8.359375,-2.71875,7.90625
1696240310746,-0.25463867,-0.895813,-0.047424316,1.375,-3.0625,4.296875
1696240310807,-0.2529297,-0.95684814,0.036071777,-1.03125,1.03125,-1.203125
1696240310825,-0.24267578,-0.93463135,-0.0725708,-8.71875,-2.171875,-2.109375
1696240310866,-0.2529297,-1.0178833,-0.012023926,-1.578125,-1.875,-5.515625
1696240310928,-0.30908203,-1.071106,-0.04888916,0.4375,-5.890625,-5.359375
1696240310946,-0.1665039,-0.8701782,-0.10699463,-4.4375,3.359375,1.171875
1696240310987,-0.18823242,-0.987854,-0.035949707,1.5625,5.078125,0.421875
1696240311029,-0.32543945,-0.9783325,-0.021057129,5.734375,6.234375,0.5625
1696240311066,-0.2824707,-1.0083618,-0.037902832,9.421875,5.53125,0.34375
1696240311108,-0.2644043,-0.97247314,-0.031066895,6.96875,4.59375,0.09375
1696240311145,-0.2529297,-0.9631958,-0.07305908,9.015625,3.890625,1.828125
1696240311206,-0.2939453,-0.9402466,-0.074279785,8.8125,3.21875,1.703125
1696240311224,-0.27319336,-0.9277954,-0.11016846,6.421875,3.359375,0.203125
1696240311244,-0.2211914,-0.9121704,-0.09625244,4.84375,3.171875,2.265625
1696240311286,-0.17114258,-0.8074341,-0.12994385,-5.046875,-2.21875,1.921875
1696240311325,-0.20898438,-0.8579712,-0.11651611,-4.25,-9.40625,0.109375
1696240311365,-0.24926758,-0.9961548,-0.058654785,-18.0,-27.53125,-3.34375
1696240311407,-0.3684082,-0.90997314,-0.16021729,-12.3125,-17.28125,-1.1875
1696240311445,-0.024414062,-1.128479,0.0016479492,4.53125,7.421875,-1.609375
1696240311487,-0.34472656,-1.086731,-0.08526611,1.921875,-0.09375,6.8125
1696240311528,-0.25439453,-0.923645,-0.0154418945,8.109375,7.09375,3.96875
1696240311570,-0.26782227,-0.83917236,-0.085754395,-3.296875,-2.96875,-0.03125
1696240311606,-0.21484375,-0.923645,-0.06890869,-0.453125,-3.03125,-2.125
1696240311648,-0.19213867,-0.9678345,-0.06842041,-4.65625,1.34375,-0.84375
1696240311688,-0.21557617,-1.046936,-0.066467285,-0.453125,-1.671875,-1.9375
1696240311725,-0.2548828,-1.0784302,-0.04498291,0.015625,-2.0,1.578125
1696240311769,-0.27294922,-0.84698486,-0.0335083,-0.625,4.859375,5.359375
1696240311807,-0.2536621,-0.95196533,-0.027160645,-0.59375,2.171875,1.1875
1696240311847,-0.2993164,-0.95684814,-0.11114502,1.359375,-1.59375,-3.28125
1696240311885,-0.15527344,-1.0396118,-0.06329346,-2.578125,2.109375,-1.8125
1696240311926,-0.17504883,-0.9224243,-0.08380127,-6.9375,-1.953125,-2.609375
1696240311965,-0.18261719,-0.9553833,-0.026428223,2.5,4.125,-1.640625
1696240312005,-0.35620117,-1.0252075,-0.06573486,1.046875,-0.578125,5.015625
1696240312047,-0.28930664,-0.9524536,-0.059387207,1.734375,0.09375,4.546875
1696240312087,-0.19433594,-0.8909302,-0.077697754,3.6875,0.796875,-0.1875
1696240312125,-0.12841797,-0.9866333,0.013366699,-1.8125,3.75,-1.65625
1696240312166,-0.27685547,-1.0078735,-0.15118408,-4.234375,-7.21875,-2.40625
1696240312206,-0.22998047,-0.94073486,-0.018859863,0.46875,3.671875,2.671875
1696240312248,-0.21411133,-0.8948364,-0.046203613,-4.0,-3.234375,-0.328125
1696240312288,-0.27368164,-0.97735596,-0.051574707,-0.578125,2.484375,1.015625
1696240312328,-0.29956055,-1.0291138,-0.035217285,-0.8125,-0.296875,-0.109375
1696240312366,-0.18725586,-0.956604,-0.033996582,-4.453125,-4.046875,-3.265625
1696240312406,-0.2277832,-0.99664307,-0.06964111,-0.125,-4.984375,-5.578125
1696240312447,-0.2434082,-0.99176025,-0.0947876,-0.796875,2.5625,-0.5
1696240312488,-0.2697754,-0.9295044,-0.018371582,2.078125,4.5,2.765625
1696240312548,-0.29077148,-0.9356079,-0.061828613,4.03125,8.75,2.46875
1696240312565,-0.24169922,-0.9446411,-0.042541504,7.28125,12.125,0.671875
1696240312585,-0.22802734,-0.98809814,-0.054260254,10.140625,7.15625,-0.046875
1696240312689,-0.24267578,-0.9734497,-0.038391113,11.0625,6.53125,0.0625
1696240312694,-0.22729492,-0.98272705,-0.08258057,7.328125,1.9375,0.46875
1696240312704,-0.2512207,-0.9546509,-0.11260986,5.421875,0.34375,1.921875
1696240312746,-0.25390625,-0.88775635,-0.10748291,6.3125,-0.484375,-0.421875
1696240312788,-0.23950195,-0.8897095,-0.089416504,5.15625,-4.6875,0.296875
1696240312829,-0.24609375,-0.83477783,-0.13214111,-5.25,-7.828125,-0.984375
1696240312866,-0.21557617,-0.944397,-0.093322754,1.75,-5.578125,0.078125
1696240312907,-0.25756836,-1.0354614,-0.09161377,-17.0,-18.609375,-0.359375
1696240312945,-0.27124023,-0.8550415,-0.1260376,-22.15625,-16.71875,-4.546875
1696240312986,-0.14892578,-0.9849243,-0.02935791,3.984375,0.5,-8.015625
1696240313026,-0.28857422,-1.1836548,-0.050354004,-1.796875,-0.921875,2.125
1696240313067,-0.31103516,-0.90289307,-0.0803833,-0.828125,4.109375,2.859375
1696240313106,-0.265625,-0.8687134,-0.030090332,-0.65625,2.390625,0.421875
1696240313146,-0.2705078,-1.0115356,-0.06378174,-2.0,-3.1875,0.359375
1696240313207,-0.24780273,-0.9365845,-0.08258057,-6.71875,5.328125,-3.46875
1696240313224,-0.21313477,-0.9927368,-0.046936035,-7.3125,2.890625,-3.96875
1696240313266,-0.2783203,-1.0254517,-0.039367676,-7.40625,2.421875,-1.796875
1696240313307,-0.2758789,-0.9561157,-0.0335083,-4.953125,-1.015625,-1.296875
1696240313367,-0.23339844,-0.8621216,-0.03302002,-4.8125,3.796875,3.375
1696240313384,-0.29223633,-0.9673462,0.018005371,0.6875,3.296875,2.21875
1696240313427,-0.31445312,-1.019104,9.1552734E-4,-2.0625,-0.71875,0.546875
1696240313466,-0.23022461,-0.9324341,0.0048217773,-0.921875,1.5,-0.578125
1696240313505,-0.20166016,-0.92022705,-0.0256958,-3.8125,-3.25,-1.578125
1696240313548,-0.26293945,-0.9771118,0.0028686523,1.59375,0.421875,0.671875
1696240313606,-0.26391602,-0.9898071,-0.011779785,-0.5,-1.484375,4.25
1696240313625,-0.25439453,-0.9522095,-0.023498535,1.921875,-0.40625,2.953125
1696240313668,-0.2878418,-0.9780884,9.1552734E-4,3.109375,0.515625,0.8125
1696240313728,-0.22583008,-0.9319458,-0.042297363,1.296875,-2.640625,0.375
1696240313766,-0.24804688,-0.9417114,-0.034240723,-5.796875,-1.71875,0.390625
1696240313784,-0.22924805,-0.9414673,0.0045776367,-3.0625,-2.046875,-2.40625
1696240313850,-0.24438477,-1.0203247,-0.024475098,-1.09375,-2.1875,0.015625
1696240313865,-0.2944336,-0.99346924,0.05316162,0.84375,-0.75,2.28125
1696240313886,-0.30004883,-0.90509033,0.02166748,3.046875,-2.765625,1.703125
1696240313927,-0.26831055,-0.944397,-0.005432129,3.28125,-0.4375,-1.015625
1696240313968,-0.25878906,-0.9976196,-0.009338379,3.90625,-2.890625,-3.453125
1696240314004,-0.29882812,-1.081604,-0.04522705,1.484375,-3.8125,-5.03125
1696240314047,-0.24975586,-0.9507446,-0.051086426,1.109375,1.875,-0.15625
1696240314087,-0.22338867,-0.8845825,-0.066223145,1.953125,4.875,1.671875
1696240314126,-0.23901367,-0.9397583,-0.049621582,5.578125,6.234375,1.21875
1696240314167,-0.28637695,-0.9573364,-0.004211426,6.5625,8.34375,0.171875
1696240314206,-0.29956055,-0.99005127,-0.021057129,6.71875,4.25,-0.9375
1696240314245,-0.24536133,-0.9956665,-0.022766113,4.171875,2.5625,-0.75
1696240314288,-0.22045898,-0.928772,-0.06329346,3.1875,2.90625,0.65625
1696240314325,-0.22680664,-0.91241455,-0.06939697,5.03125,0.09375,2.34375
1696240314368,-0.25097656,-0.9812622,-0.042785645,3.09375,-3.921875,1.875
1696240314408,-0.26757812,-0.9480591,-0.08111572,0.84375,-3.046875,0.203125
1696240314445,-0.2524414,-0.90826416,-0.08135986,2.71875,-2.53125,1.03125
1696240314486,-0.23876953,-0.8789673,-0.09088135,-1.140625,-3.109375,-0.1875
1696240314526,-0.23095703,-0.9307251,-0.086242676,1.734375,-3.65625,1.328125
1696240314571,-0.27734375,-0.97198486,-0.05596924,-2.390625,-11.25,1.0
1696240314605,-0.26708984,-0.9631958,-0.0569458,-10.328125,-10.53125,0.5625
1696240314647,-0.21972656,-0.9043579,-0.06060791,-6.21875,-7.484375,-1.625
1696240314689,-0.23754883,-1.0254517,-0.05645752,-1.0625,-3.53125,-0.640625
1696240314726,-0.29174805,-1.0149536,-0.030090332,0.078125,1.015625,1.9375
1696240314766,-0.26733398,-0.9417114,-0.06451416,-1.15625,0.484375,1.96875
1696240314806,-0.26367188,-0.94415283,-0.0071411133,1.03125,2.21875,-0.046875
1696240314846,-0.29223633,-1.0210571,-0.04498291,2.703125,-0.234375,0.375
1696240314888,-0.2475586,-0.9273071,-0.09307861,-4.375,0.828125,-0.890625
1696240314926,-0.24169922,-0.8870239,-0.041809082,-0.109375,4.625,0.0625
1696240314966,-0.2421875,-1.0730591,-0.054260254,1.171875,-0.359375,-1.0
1696240315005,-0.24047852,-0.9841919,-0.041809082,-2.359375,-2.515625,-0.578125
1696240315046,-0.25073242,-0.87750244,-0.030822754,-1.0,3.578125,2.515625
1696240315089,-0.29418945,-1.0054321,-0.03741455,2.75,0.15625,2.203125
1696240315145,-0.30541992,-1.0064087,-0.023986816,-0.921875,1.828125,1.171875
1696240315166,-0.2331543,-0.8882446,-0.06695557,-4.1875,1.546875,-0.109375
1696240315186,-0.22583008,-0.9277954,-0.0256958,-4.96875,1.5,-1.71875
1696240315226,-0.2055664,-0.9973755,-0.04937744,-4.0,-3.96875,-4.734375
1696240315266,-0.23095703,-0.97662354,-0.0010375977,-2.53125,-1.90625,-1.671875
1696240315306,-0.2763672,-0.9360962,-0.0071411133,-2.015625,-1.296875,2.234375
1696240315344,-0.33666992,-0.9507446,-0.011779785,0.171875,1.0625,0.96875
1696240315386,-0.30981445,-0.9763794,-0.022033691,-0.765625,2.171875,0.046875
1696240315431,-0.21508789,-0.91192627,-0.04547119,-3.234375,0.90625,-3.0
1696240315467,-0.20874023,-0.96343994,-0.010314941,-1.0625,1.03125,-3.5
1696240315506,-0.26831055,-1.0149536,-0.02545166,-2.328125,-2.53125,-1.5625
1696240315548,-0.27490234,-0.9397583,-0.008117676,-1.125,-0.484375,2.15625
1696240315586,-0.28710938,-0.954895,0.030944824,1.296875,1.59375,1.390625
1696240315626,-0.28637695,-0.9854126,-0.042541504,1.3125,-4.625,-0.53125
1696240315667,-0.2626953,-0.9710083,0.003112793,2.1875,-4.15625,0.0
1696240315708,-0.24560547,-0.91534424,-0.007385254,0.734375,-3.1875,-0.234375
1696240315748,-0.24267578,-0.98931885,-0.039611816,-3.109375,-6.921875,-3.46875
1696240315793,-0.2841797,-1.0379028,-0.0049438477,-1.640625,-2.796875,-4.265625
1696240315828,-0.31884766,-0.9631958,0.003112793,1.875,1.625,0.296875
1696240315866,-0.29882812,-0.9170532,-0.04522705,1.375,1.234375,-0.125
1696240315909,-0.2956543,-0.90460205,-0.0015258789,6.578125,5.734375,0.046875
1696240315944,-0.27563477,-0.9373169,-0.03741455,7.53125,6.34375,0.34375
1696240315989,-0.27685547,-1.0005493,-0.03668213,5.34375,2.875,-1.140625
1696240316026,-0.27685547,-0.960022,-0.023986816,7.59375,5.5625,1.65625
1696240316067,-0.28637695,-0.956604,-0.062561035,7.46875,5.375,3.3125
1696240316110,-0.2553711,-0.9500122,-0.04473877,7.703125,5.328125,2.6875
1696240316145,-0.26391602,-0.94415283,-0.07330322,4.25,-1.796875,0.46875
1696240316187,-0.22949219,-0.8718872,-0.06451416,1.53125,-4.5,-0.390625
1696240316225,-0.25927734,-0.8308716,-0.11114502,-4.5625,-5.828125,0.4375
1696240316266,-0.2626953,-0.9102173,-0.028625488,-1.8125,-11.265625,1.71875
1696240316309,-0.2878418,-0.97247314,-0.073791504,-15.4375,-19.390625,-1.75
1696240316345,-0.23925781,-0.96710205,-0.09503174,-6.609375,-9.140625,-2.375
1696240316387,-0.20117188,-1.0532837,0.026062012,-4.234375,1.0,-0.15625
1696240316426,-0.36279297,-1.0239868,-0.097229004,-3.734375,-4.609375,1.046875
1696240316488,-0.3137207,-0.89190674,-0.039367676,2.125,1.0625,-0.921875
1696240316505,-0.27441406,-0.9216919,0.024353027,-1.4375,5.21875,2.171875
1696240316530,-0.25708008,-0.97052,-0.13653564,-2.6875,-1.5625,0.96875
1696240316588,-0.22045898,-0.954895,-0.013000488,-3.421875,7.9375,0.125
1696240316605,-0.19384766,-1.0234985,1.8310547E-4,-5.96875,-3.34375,-1.203125
1696240316646,-0.32739258,-1.0205688,-0.034729004,3.015625,-4.0,0.9375
1696240316709,-0.3154297,-0.95147705,-0.02911377,-1.90625,0.828125,4.0
1696240316727,-0.26367188,-0.85601807,0.010192871,-1.53125,7.5,2.734375
1696240316767,-0.25317383,-0.96295166,0.0119018555,2.78125,1.015625,-4.109375
1696240316809,-0.35742188,-1.0427856,-0.05718994,0.171875,0.609375,0.078125
1696240316845,-0.23120117,-0.96173096,-0.035461426,-1.625,2.40625,0.75
1696240316885,-0.19873047,-0.928772,-0.016418457,-0.4375,0.765625,-0.953125
1696240316928,-0.18896484,-0.95635986,-0.030334473,2.078125,4.484375,-1.0
1696240316965,-0.33276367,-1.0701294,-0.0413208,2.265625,0.171875,-0.09375
1696240317008,-0.2722168,-0.9573364,0.028015137,-3.28125,-0.546875,1.0
1696240317049,-0.3071289,-0.8118286,0.019714355,0.09375,-1.390625,2.59375
1696240317086,-0.28198242,-0.9624634,-0.0071411133,6.90625,3.484375,-0.8125
1696240317126,-0.29516602,-1.1257935,-0.010803223,1.25,-5.34375,-4.6875
1696240317167,-0.29418945,-0.9915161,-0.0068969727,4.578125,-4.109375,-5.09375
1696240317209,-0.21875,-0.87457275,-0.054504395,-0.484375,0.6875,-0.203125
1696240317246,-0.23339844,-0.91241455,-0.08526611,2.875,3.359375,0.765625
1696240317286,-0.2788086,-0.99591064,-0.038391113,6.03125,2.1875,-0.8125
1696240317327,-0.34399414,-1.0374146,-0.018859863,4.578125,2.125,0.90625
1696240317366,-0.29663086,-0.9492798,-0.038391113,4.546875,1.578125,0.5
1696240317429,-0.25390625,-0.9331665,-0.09283447,2.03125,1.828125,0.90625
1696240317444,-0.2878418,-0.87994385,-0.0647583,3.390625,-1.375,0.359375
1696240317508,-0.28076172,-0.91778564,-0.062072754,1.921875,-0.53125,0.375
1696240317524,-0.2692871,-0.86187744,-0.09576416,-2.53125,-2.953125,0.96875
1696240317587,-0.2746582,-0.91851807,-0.074279785,-0.125,-0.65625,2.53125
1696240317605,-0.27001953,-1.0012817,-0.01763916,-1.765625,-7.09375,1.890625
1696240317667,-0.29785156,-0.9805298,-0.058166504,-15.546875,-9.78125,-0.53125
1696240317685,-0.25097656,-0.8430786,-0.038391113,-9.671875,-4.328125,-3.359375
1696240317749,-0.27319336,-1.0466919,-0.035949707,-1.640625,-4.609375,-3.65625
1696240317765,-0.3395996,-1.0464478,-0.012023926,2.71875,-0.6875,2.03125
1696240317807,-0.26879883,-0.91412354,-0.03643799,-0.390625,2.6875,3.625
1696240317825,-0.23925781,-0.9505005,-0.03375244,-1.859375,1.828125,1.96875
1696240317866,-0.2788086,-0.9212036,-0.04864502,-0.1875,0.03125,0.4375
1696240317906,-0.25830078,-1.0130005,-0.028137207,-0.546875,2.15625,0.46875
1696240317945,-0.26513672,-0.95880127,-0.049621582,-5.03125,-2.0,-0.546875
1696240317986,-0.25439453,-0.9746704,-0.030334473,-4.015625,-2.40625,0.28125
1696240318026,-0.23071289,-0.9456177,-0.045715332,-7.0,-5.96875,-2.15625
1696240318068,-0.24633789,-0.9168091,0.01776123,-2.71875,-0.46875,-1.359375
1696240318104,-0.38110352,-0.91900635,0.02923584,-0.625,3.375,4.609375
1696240318145,-0.3894043,-1.0266724,0.014587402,1.140625,0.9375,3.578125
1696240318186,-0.25439453,-0.9776001,-0.030578613,-4.75,1.03125,-1.875
1696240318227,-0.1784668,-0.9260864,0.0040893555,-3.53125,0.84375,-3.234375
1696240318268,-0.22973633,-0.9199829,-0.004699707,-1.078125,-1.5,2.015625
1696240318306,-0.28393555,-1.0010376,-0.002746582,0.40625,-1.640625,5.984375
1696240318347,-0.27807617,-0.956604,0.047790527,1.25,-0.703125,6.203125
1696240318387,-0.29711914,-0.9639282,0.0060424805,0.03125,1.328125,3.5
1696240318427,-0.25073242,-0.9714966,0.020690918,-1.234375,-1.078125,-1.71875
1696240318467,-0.20825195,-0.9175415,0.011413574,-0.640625,-1.90625,-3.21875
1696240318507,-0.2854004,-0.96539307,0.035095215,0.546875,-0.765625,1.40625
1696240318547,-0.34521484,-1.0112915,0.012390137,0.703125,-1.5625,2.875
1696240318586,-0.27490234,-0.95269775,-0.0178833,-0.03125,-0.84375,-2.0
1696240318630,-0.23217773,-0.93951416,0.0033569336,2.296875,4.375,-5.171875
1696240318668,-0.18676758,-1.0545044,0.026062012,1.453125,1.46875,-5.859375
1696240318705,-0.2902832,-0.9788208,0.028747559,2.640625,-1.125,-4.46875
1696240318750,-0.35180664,-0.9651489,0.002380371,6.8125,3.609375,5.46875
1696240318784,-0.2763672,-0.93218994,-0.0044555664,7.515625,4.78125,3.25
1696240318827,-0.30639648,-0.944397,-0.028625488,6.828125,5.875,-0.34375
1696240318865,-0.31323242,-0.9133911,-0.015930176,9.96875,2.671875,-1.6875
1696240318908,-0.2644043,-0.972229,-0.073791504,1.21875,-0.078125,-2.328125
1696240318949,-0.28076172,-0.9397583,-0.03717041,3.40625,3.03125,-0.3125
1696240318986,-0.28881836,-0.9663696,-0.06793213,2.109375,0.203125,0.15625
1696240319028,-0.25805664,-0.9067993,-0.06768799,0.0,0.953125,-1.09375
1696240319068,-0.24560547,-0.9175415,-0.023010254,2.59375,-0.34375,-0.984375
1696240319109,-0.26293945,-0.90802,-0.065979004,-2.296875,-1.765625,-0.265625
1696240319124,-0.30810547,-0.9505005,-0.04864502,-1.171875,-7.5,-0.484375
1696240319168,-0.29101562,-0.95098877,-0.005432129,-4.25,-8.765625,-0.15625
1696240319226,-0.2915039,-0.94317627,-0.06793213,-11.578125,-8.75,1.71875
1696240319265,-0.21923828,-0.86798096,-0.032043457,-7.734375,-4.84375,-2.21875
1696240319286,-0.2133789,-1.0300903,-0.03741455,-6.640625,-4.265625,-5.703125
1696240319326,-0.3786621,-1.0044556,-0.026916504,-3.84375,-4.046875,-3.53125
1696240319367,-0.3088379,-0.9483032,-0.023498535,-2.03125,-0.578125,-0.65625
1696240319429,-0.28198242,-0.9771118,0.016296387,-0.5625,-1.84375,0.5625
1696240319445,-0.26660156,-0.9627075,-0.027893066,-2.25,0.203125,1.578125
1696240319507,-0.26708984,-0.91241455,0.006286621,-2.953125,1.921875,1.234375
1696240319524,-0.28930664,-0.97662354,0.016296387,-0.671875,-3.046875,-0.84375
1696240319565,-0.32788086,-0.9990845,-0.003967285,-2.234375,-5.84375,-1.5625
1696240319628,-0.30078125,-0.9351196,-0.030822754,-3.03125,-0.5625,1.5625
1696240319646,-0.24536133,-0.9133911,-0.0022583008,-4.09375,2.171875,0.6875
1696240319687,-0.29077148,-0.96417236,0.03314209,1.09375,-1.640625,-2.0
1696240319730,-0.30395508,-1.0254517,0.002380371,-1.96875,-4.328125,-0.078125
1696240319788,-0.28735352,-0.9258423,-0.019348145,-3.71875,-1.09375,0.609375
1696240319804,-0.26342773,-0.923645,0.0065307617,-3.765625,-0.78125,-0.46875
1696240319847,-0.3112793,-0.94659424,0.027526855,-1.703125,0.53125,-0.796875
1696240319885,-0.33618164,-1.0015259,0.034606934,-0.734375,-0.03125,0.484375
1696240319927,-0.3100586,-0.9614868,-0.0017700195,-0.859375,-0.234375,1.90625
1696240319969,-0.21826172,-0.9507446,-0.014953613,-5.015625,-0.859375,-0.125
1696240320005,-0.2565918,-0.9026489,0.055358887,-3.046875,-0.296875,-0.703125
1696240320044,-0.33496094,-0.9729614,0.03704834,-0.328125,-3.09375,1.96875
1696240320086,-0.33740234,-0.97613525,0.055358887,-1.53125,-2.0625,2.609375
1696240320128,-0.3076172,-0.9788208,0.038269043,0.734375,-0.015625,2.96875
1696240320187,-0.21923828,-0.9175415,0.036315918,2.40625,2.03125,1.21875
1696240320205,-0.25341797,-0.9380493,0.03314209,1.890625,-0.109375,-0.84375
1696240320246,-0.3083496,-0.9890747,0.01727295,0.65625,-2.4375,0.375
1696240320306,-0.3178711,-0.9480591,0.015563965,-0.09375,-0.171875,1.109375
1696240320346,-0.27856445,-0.93414307,0.031921387,3.734375,3.15625,-1.359375
1696240320366,-0.25708008,-0.9517212,-0.010559082,1.546875,-1.984375,-2.6875
1696240320428,-0.2836914,-0.9883423,0.074401855,5.875,1.671875,-1.859375
1696240320448,-0.37060547,-1.0491333,0.05609131,4.53125,-2.953125,1.328125
1696240320466,-0.32958984,-0.9390259,0.023376465,6.40625,3.78125,5.765625
1696240320506,-0.27563477,-0.94488525,0.0033569336,9.75,6.5625,4.625
1696240320547,-0.27416992,-0.94415283,-0.022521973,10.1875,5.40625,0.328125
1696240320589,-0.2854004,-0.9624634,-0.03375244,8.265625,2.875,-2.0625
1696240320625,-0.26708984,-0.99542236,-0.06817627,5.9375,7.140625,-0.390625
1696240320665,-0.23657227,-0.9446411,-0.07159424,4.46875,8.21875,1.328125
1696240320706,-0.2121582,-0.8399048,-0.0869751,-3.09375,3.9375,-0.03125
1696240320747,-0.2211914,-0.8147583,-0.03643799,0.765625,-13.65625,1.234375
1696240320790,-0.39916992,-0.9624634,0.014831543,-3.015625,-21.671875,2.75
1696240320825,-0.39086914,-1.0723267,-0.020324707,-1.859375,-7.765625,2.828125
1696240320865,-0.31054688,-1.0142212,-0.025939941,-6.21875,2.40625,4.421875
1696240320907,-0.17041016,-0.9324341,-0.013244629,-2.953125,3.625,1.0625
1696240320947,-0.17944336,-0.9429321,-0.0569458,-2.234375,0.421875,-2.25
1696240320987,-0.28979492,-0.97052,-0.03668213,-4.65625,-1.46875,0.078125
1696240321026,-0.26464844,-0.9546509,-0.038146973,-5.15625,-6.171875,-1.5
1696240321067,-0.29125977,-1.0037231,-0.053527832,-6.328125,-5.03125,-2.953125
1696240321107,-0.2763672,-0.90948486,0.06756592,-1.0,4.203125,1.859375
1696240321146,-0.3815918,-0.972229,0.02508545,-2.1875,0.5625,3.421875
1696240321185,-0.36376953,-0.92852783,0.00579834,-2.359375,-0.25,1.28125
1696240321226,-0.20605469,-0.9480591,0.019226074,-1.859375,5.0625,-1.265625
1696240321266,-0.19702148,-0.9627075,-0.00982666,-1.578125,0.671875,-1.75
1696240321307,-0.20483398,-0.99005127,0.034851074,0.640625,1.625,-0.984375
1696240321347,-0.2956543,-0.9649048,-0.016174316,-0.84375,-5.859375,-0.875
1696240321387,-0.28979492,-0.92559814,0.028015137,-1.09375,-1.015625,-1.3125
1696240321425,-0.32592773,-0.97320557,0.012145996,2.515625,0.375,-0.296875
1696240321467,-0.33374023,-0.9734497,0.015808105,-0.25,-0.34375,0.515625
1696240321508,-0.2927246,-0.9751587,0.022399902,0.625,1.6875,0.421875
1696240321546,-0.25512695,-0.9077759,-0.012023926,-2.953125,1.21875,-0.84375
1696240321585,-0.22851562,-0.9312134,0.0072631836,-0.46875,0.390625,-4.453125
1696240321625,-0.30273438,-0.9649048,0.023620605,-0.046875,0.171875,-1.890625
1696240321669,-0.38378906,-1.0127563,0.010437012,1.6875,0.15625,1.40625
1696240321705,-0.27514648,-0.9397583,0.03314209,0.578125,2.125,1.859375
1696240321746,-0.24145508,-0.91119385,0.013122559,-0.5625,0.234375,0.796875
1696240321766,-0.28735352,-0.9402466,0.04827881,3.09375,2.015625,-0.546875
1696240321807,-0.3347168,-1.0149536,-0.023986816,-1.265625,-0.71875,1.109375
1696240321867,-0.2619629,-0.9768677,-0.0032348633,-0.890625,2.09375,1.046875
1696240321886,-0.25097656,-0.9458618,-0.012023926,-1.171875,1.296875,-0.828125
1696240321947,-0.21484375,-0.96661377,-0.013000488,0.171875,-0.71875,-2.328125
1696240321965,-0.28442383,-0.9553833,0.021911621,-1.859375,-2.859375,-2.421875
1696240322006,-0.33764648,-0.88897705,0.050231934,2.171875,-1.828125,0.40625
1696240322046,-0.36010742,-0.9771118,0.031921387,2.53125,0.671875,2.109375
1696240322089,-0.33642578,-0.96881104,0.047546387,2.859375,-0.296875,2.734375
1696240322125,-0.28833008,-1.0391235,0.010925293,1.859375,1.015625,0.40625
1696240322188,-0.2956543,-0.96661377,0.015319824,2.234375,2.71875,-0.1875
1696240322207,-0.2434082,-0.9348755,-0.020080566,1.875,4.578125,4.015625
1696240322248,-0.21679688,-0.9265747,-0.018371582,8.5625,3.53125,1.09375
1696240322308,-0.26098633,-0.96539307,-0.003479004,9.921875,6.046875,0.625
1696240322326,-0.33422852,-1.0266724,-0.010803223,8.59375,-0.71875,0.3125
1696240322366,-0.29516602,-0.9649048,-0.032043457,2.125,-1.859375,-0.40625
1696240322407,-0.25976562,-0.90338135,-0.04498291,4.1875,-2.921875,-1.234375
1696240322470,-0.25512695,-0.9151001,-0.033996582,1.03125,-5.84375,0.46875
1696240322487,-0.30908203,-0.85113525,-0.093566895,-3.609375,-11.609375,0.109375
1696240322525,-0.27319336,-0.79888916,-0.06304932,-2.140625,0.046875,1.46875
1696240322566,-0.26342773,-1.0239868,-0.032043457,-0.609375,-8.890625,1.046875
1696240322626,-0.3022461,-1.0352173,-0.033996582,-6.484375,-3.671875,-0.65625
1696240322646,-0.2175293,-0.95880127,-0.006652832,-4.234375,0.140625,-0.421875
1696240322686,-0.30688477,-0.9788208,-0.042785645,-0.640625,-1.625,0.34375
1696240322726,-0.32495117,-0.99884033,0.03656006,1.40625,3.609375,1.171875
1696240322769,-0.34033203,-1.0122681,0.023864746,-2.421875,4.65625,-0.78125
1696240322810,-0.31225586,-0.94073486,-0.04937744,-4.546875,-0.03125,-2.15625
1696240322849,-0.20947266,-0.8987427,-0.07183838,-7.078125,3.0625,-3.09375
1696240322886,-0.20141602,-0.9170532,-0.066223145,-9.203125,-1.671875,-5.71875
1696240322927,-0.24267578,-0.9077759,-0.011291504,-3.421875,-6.15625,-4.40625
1696240322966,-0.30371094,-1.0703735,0.034362793,1.3125,-1.09375,1.03125
1696240323008,-0.4033203,-1.003479,0.0016479492,-0.796875,-0.625,6.140625
1696240323047,-0.3557129,-0.8777466,-0.011779785,-0.640625,5.8125,7.3125
1696240323065,-0.24804688,-0.864563,0.03753662,-3.765625,6.890625,0.046875
1696240323108,-0.2175293,-0.9019165,-0.058898926,-0.4375,-3.609375,-3.75
1696240323146,-0.24194336,-1.0630493,0.07977295,0.078125,2.96875,3.171875
1696240323187,-0.28710938,-1.0308228,0.12445068,-4.0625,3.65625,8.640625
1696240323225,-0.3779297,-0.9248657,-0.09136963,5.8125,-5.703125,6.03125
1696240323266,-0.3034668,-0.9258423,0.07928467,5.5,1.8125,1.75
1696240323305,-0.2211914,-0.86553955,-0.0725708,-3.859375,-7.984375,-1.1875
1696240323345,-0.15332031,-0.93756104,-6.1035156E-5,-1.59375,0.9375,-3.875
1696240323386,-0.22558594,-1.0737915,-0.02520752,4.3125,-6.515625,-2.03125
1696240323427,-0.32373047,-1.024231,0.09246826,-1.703125,1.453125,6.6875
1696240323466,-0.4284668,-0.892395,0.036315918,2.296875,1.09375,8.03125
1696240323506,-0.31420898,-0.89385986,0.062194824,2.484375,3.296875,0.109375
1696240323547,-0.22363281,-0.9241333,0.038269043,-0.65625,-3.09375,-5.0625
1696240323585,-0.23388672,-1.1304321,0.005065918,-3.796875,0.40625,-3.3125
1696240323633,-0.27148438,-0.94317627,-0.08721924,-11.53125,-0.390625,-1.09375
1696240323667,-0.26367188,-0.89630127,-0.02545166,-4.765625,-4.265625,-6.859375
1696240323706,-0.29174805,-0.97857666,0.07293701,1.015625,-5.15625,-13.578125
1696240323747,-0.32250977,-1.0352173,0.09222412,7.515625,-0.921875,-4.109375
1696240323788,-0.3010254,-0.95562744,0.030456543,-0.09375,-2.5,3.625
1696240323827,-0.30126953,-0.9512329,0.04168701,0.046875,2.6875,2.046875
1696240323867,-0.27270508,-0.913147,0.022888184,-1.1875,1.3125,0.078125
1696240323909,-0.3166504,-0.9241333,-0.0049438477,0.28125,1.71875,-0.625
1696240323946,-0.32373047,-1.017395,0.054626465,7.28125,4.28125,0.3125
1696240323989,-0.29296875,-0.9651489,0.0026245117,4.28125,6.09375,3.96875
1696240324026,-0.3479004,-0.87628174,-0.041809082,7.34375,-0.4375,3.015625
1696240324068,-0.32348633,-0.925354,-0.036193848,4.65625,-5.296875,-0.109375
1696240324108,-0.2006836,-0.90802,-0.0413208,5.21875,-3.21875,-0.28125
1696240324146,-0.21435547,-0.9011841,-0.031311035,-0.546875,3.5625,4.328125
1696240324189,-0.34594727,-0.9348755,-0.04449463,2.125,-7.609375,2.046875
1696240324228,-0.37329102,-0.9776001,0.046325684,-5.40625,-9.3125,-3.140625
1696240324267,-0.27270508,-0.9295044,-0.050354004,-13.125,-4.28125,-3.109375
1696240324306,-0.1743164,-0.91851807,6.713867E-4,-7.1875,1.3125,-2.609375
1696240324347,-0.27441406,-1.0005493,-0.04425049,-9.46875,-3.46875,-4.25
1696240324386,-0.39526367,-0.9968872,0.014343262,-1.875,3.40625,-0.65625
1696240324404,-0.34765625,-0.9685669,0.06463623,-1.015625,4.375,0.234375
1696240324468,-0.33129883,-1.0046997,0.04852295,3.78125,1.1875,0.296875
1696240324485,-0.2956543,-0.94415283,0.028015137,-1.28125,4.171875,0.328125
1696240324528,-0.28051758,-0.87579346,0.0079956055,-0.71875,1.671875,1.515625
1696240324567,-0.22705078,-0.93536377,-3.0517578E-4,-3.703125,0.515625,0.609375
1696240324605,-0.27685547,-0.9973755,0.03656006,1.75,0.796875,1.390625
1696240324646,-0.30493164,-0.99005127,0.04510498,3.234375,-1.1875,2.1875
1696240324708,-0.33447266,-0.9812622,0.025817871,3.515625,-1.078125,4.21875
1696240324725,-0.3173828,-0.9067993,0.020935059,2.734375,1.484375,3.6875
1696240324788,-0.28344727,-0.909729,1.8310547E-4,0.1875,0.140625,1.53125
1696240324827,-0.22827148,-0.94122314,-0.020324707,-0.25,-1.125,-1.109375
1696240324845,-0.26416016,-1.0147095,-0.014465332,1.078125,-2.484375,-0.828125
1696240324886,-0.22827148,-1.0078735,0.008239746,-1.078125,-5.75,0.859375
1696240324926,-0.27368164,-0.9116821,0.034606934,-0.671875,-0.328125,3.890625
1696240324989,-0.3630371,-0.97320557,0.034362793,5.90625,0.640625,3.140625
1696240325005,-0.34228516,-0.9468384,0.04168701,3.890625,-0.484375,-1.09375
1696240325048,-0.2734375,-0.9199829,0.015319824,-0.28125,-3.421875,-0.90625
1696240325108,-0.21801758,-0.958313,-0.01763916,1.984375,-2.375,0.921875
1696240325124,-0.20605469,-0.9421997,0.014343262,0.421875,0.625,1.546875
1696240325188,-0.28051758,-0.9417114,-0.038879395,0.640625,-0.921875,0.6875
1696240325205,-0.31420898,-1.0198364,-6.1035156E-5,1.1875,-0.59375,0.765625
1696240325268,-0.2927246,-0.9006958,0.018981934,0.203125,-1.953125,0.34375
1696240325285,-0.27416992,-0.8936157,0.007751465,4.171875,-0.296875,1.234375
1696240325327,-0.28857422,-1.0498657,0.001159668,4.28125,-1.078125,1.859375
1696240325388,-0.29125977,-1.0557251,-0.023742676,3.65625,-0.625,-1.453125
1696240325405,-0.21362305,-0.9829712,-0.02178955,7.296875,3.828125,-3.453125
1696240325447,-0.24169922,-0.90875244,-0.032287598,5.625,7.15625,1.125
1696240325487,-0.29833984,-0.9258423,-0.046936035,7.84375,8.890625,4.140625
1696240325529,-0.35668945,-0.9209595,-0.058898926,7.921875,4.421875,0.59375
1696240325568,-0.28393555,-0.99224854,-0.050842285,7.375,4.21875,-3.078125
1696240325607,-0.27172852,-0.99786377,-0.074279785,2.828125,1.28125,-0.578125
1696240325648,-0.29003906,-0.9505005,-0.04522705,4.078125,-0.71875,0.59375
1696240325688,-0.3034668,-0.9104614,-0.10992432,-1.4375,-4.671875,-0.03125
1696240325704,-0.27392578,-0.87042236,-0.0713501,-1.734375,-2.734375,-1.375
1696240325746,-0.28564453,-0.87945557,-0.09283447,-5.015625,-9.15625,-2.78125
1696240325787,-0.23144531,-0.7991333,-0.089660645,-10.421875,-4.25,-1.28125
1696240325830,-0.22265625,-0.8401489,-0.032287598,-3.34375,-11.890625,1.046875
1696240325866,-0.41430664,-1.0982056,-0.03741455,4.5625,-11.5,0.578125
1696240325908,-0.20483398,-1.1687622,0.014831543,13.78125,-3.265625,5.15625
1696240325946,-0.31274414,-1.0596313,-0.070129395,2.1875,2.953125,11.671875
1696240325986,-0.23754883,-0.835022,-0.10455322,0.796875,5.125,3.390625
1696240326029,-0.25195312,-0.85357666,-0.14630127,-4.0625,2.828125,0.203125
1696240326066,-0.21411133,-0.8718872,-0.093322754,-6.765625,0.734375,-1.453125
1696240326109,-0.2163086,-1.015686,-0.08746338,-7.1875,-2.515625,-4.453125
1696240326145,-0.23657227,-1.1184692,-0.039123535,-1.546875,0.34375,-1.265625
1696240326186,-0.35424805,-1.0596313,-0.026916504,-1.53125,3.140625,2.25
1696240326227,-0.34692383,-0.8621216,-0.046447754,-2.421875,5.28125,1.96875
1696240326266,-0.28173828,-0.76031494,-0.0569458,-2.125,3.671875,-1.359375
1696240326306,-0.20092773,-0.9678345,-0.051818848,-1.21875,2.3125,-2.921875
1696240326346,-0.3161621,-1.1802368,-0.07086182,-3.6875,-1.265625,-0.234375
1696240326385,-0.23828125,-0.9780884,-0.027648926,-4.0625,0.265625,2.4375
1696240326428,-0.18432617,-0.8550415,-0.013000488,-0.796875,-4.1875,-1.796875
1696240326468,-0.24072266,-0.8821411,-0.026184082,2.15625,-1.5,3.015625
1696240326506,-0.31640625,-1.0371704,-0.004699707,2.578125,-0.203125,6.09375
1696240326547,-0.28271484,-0.9380493,-0.012756348,1.78125,-1.453125,2.875
1696240326586,-0.24658203,-0.96661377,-0.12310791,0.5625,-3.265625,-2.265625
1696240326629,-0.24267578,-0.892395,-0.038635254,-0.75,-0.28125,-6.1875
1696240326666,-0.2788086,-0.94781494,-0.13311768,1.5,-0.8125,-0.46875
1696240326707,-0.25585938,-1.078186,0.034606934,-0.328125,0.78125,1.96875
1696240326747,-0.24145508,-0.9920044,-0.062072754,-0.109375,-7.203125,7.46875
1696240326787,-0.2824707,-0.95513916,0.010437012,-0.734375,0.75,8.71875
1696240326833,-0.29663086,-0.82159424,-0.051086426,0.375,0.328125,9.015625
1696240326868,-0.2211914,-0.9312134,-0.04498291,1.09375,2.078125,-0.21875
1696240326908,-0.18139648,-1.0093384,-0.038635254,-3.671875,-5.546875,-5.015625
1696240326949,-0.20092773,-1.046936,-0.06842041,2.375,-3.234375,-2.140625
1696240326986,-0.30737305,-1.0130005,-0.057922363,1.0,-1.890625,-1.03125
1696240327005,-0.31347656,-0.91973877,-0.04107666,3.0625,2.96875,-1.59375
1696240327049,-0.2241211,-0.9402466,-0.023254395,2.25,2.734375,-3.546875
1696240327088,-0.26611328,-0.9553833,-0.041809082,5.21875,8.59375,-3.609375
1696240327126,-0.30004883,-0.9702759,-0.023742676,10.84375,8.6875,-2.40625
1696240327168,-0.29638672,-1.0308228,-0.10675049,5.59375,6.28125,0.421875
1696240327207,-0.22167969,-0.9776001,-0.07647705,7.4375,7.90625,1.1875
1696240327249,-0.27319336,-0.90411377,-0.13580322,6.203125,4.0625,1.28125
1696240327286,-0.2553711,-0.91192627,-0.12799072,11.25,1.40625,3.03125
1696240327326,-0.20214844,-0.8279419,-0.08453369,2.359375,0.859375,4.78125
1696240327367,-0.24511719,-0.7769165,-0.13311768,-8.140625,-8.3125,6.515625
1696240327406,-0.23779297,-0.991272,-0.09576416,-12.8125,-19.234375,-1.28125
1696240327445,-0.2668457,-1.0374146,-0.04888916,-14.703125,-18.5625,-5.390625
1696240327488,-0.19873047,-1.0322876,-0.018615723,-3.890625,1.625,-0.609375
1696240327528,-0.2734375,-1.0713501,-0.051818848,-6.6875,-2.734375,2.78125
1696240327566,-0.33422852,-0.9060669,-0.093322754,-0.09375,1.21875,-0.140625
1696240327607,-0.2644043,-0.8423462,-0.030822754,-2.703125,1.8125,0.265625
1696240327646,-0.27807617,-1.0115356,-0.07745361,-1.28125,2.25,0.40625
1696240327687,-0.25024414,-0.9976196,-0.051574707,-7.21875,1.984375,-2.375
1696240327728,-0.15966797,-1.010315,-0.008117676,-0.90625,3.46875,0.796875
1696240327768,-0.23803711,-0.975647,-0.03717041,-7.859375,-3.390625,1.125
1696240327806,-0.31176758,-0.87286377,0.010681152,-2.25,1.4375,4.25
1696240327847,-0.28320312,-0.98223877,0.04119873,-2.03125,0.21875,2.46875
1696240327887,-0.23339844,-1.0130005,-0.0803833,-1.9375,-8.5,-2.578125
1696240327927,-0.16894531,-0.95513916,-0.0095825195,-1.6875,1.296875,0.28125
1696240327968,-0.21020508,-0.8911743,-0.027893066,-0.328125,-6.265625,3.765625
1696240328009,-0.27978516,-1.0286255,0.038269043,7.453125,-1.421875,4.875
1696240328048,-0.28735352,-1.0171509,-0.054504395,10.21875,-7.25,4.671875
1696240328085,-0.23339844,-0.87286377,0.08074951,5.09375,1.75,8.03125
1696240328129,-0.2734375,-0.86676025,-0.026184082,-4.03125,-0.578125,4.109375
1696240328169,-0.1977539,-0.9697876,-0.06817627,-4.484375,-3.15625,-8.796875
1696240328207,-0.1887207,-1.0852661,-0.070617676,2.515625,-7.140625,-9.203125
1696240328248,-0.20458984,-1.0596313,-0.08306885,3.125,1.03125,6.03125
1696240328287,-0.26367188,-0.86309814,-0.024475098,-1.046875,3.6875,9.296875
1696240328327,-0.3137207,-0.9163208,-0.02520752,-2.5,0.640625,2.265625
1696240328346,-0.296875,-0.98101807,0.0079956055,-0.203125,0.9375,-5.578125
1696240328390,-0.21582031,-1.0759888,-0.14093018,-0.828125,-3.265625,-6.28125
1696240328428,-0.15014648,-0.9885864,-0.0015258789,2.484375,3.71875,0.0625
1696240328466,-0.19213867,-0.894104,-0.06817627,-3.0,0.25,2.359375
1696240328509,-0.21435547,-0.99224854,-0.06939697,-2.046875,3.265625,-2.796875
1696240328568,-0.25976562,-0.90704346,-0.08087158,-2.265625,1.59375,-4.25
1696240328585,-0.2434082,-1.0200806,-0.027160645,1.8125,5.71875,-6.21875
1696240328627,-0.27734375,-0.9636841,0.06561279,1.421875,3.328125,-3.515625
1696240328687,-0.30908203,-1.015686,-0.0044555664,1.671875,5.546875,1.640625
1696240328705,-0.22192383,-0.89312744,-0.035217285,0.375,10.9375,4.265625
1696240328745,-0.25048828,-0.96759033,-0.035461426,4.34375,7.8125,-2.90625
1696240328810,-0.20874023,-0.9729614,-0.034729004,6.1875,2.40625,-7.078125
1696240328845,-0.24902344,-0.98516846,-0.03692627,1.3125,-2.8125,-1.265625
1696240328867,-0.28637695,-1.0247192,-0.1038208,-0.640625,-4.9375,1.328125
1696240328906,-0.22753906,-0.9312134,-0.077941895,1.859375,0.015625,-1.25
1696240328946,-0.27416992,-0.91070557,-0.06866455,1.53125,-6.765625,-0.375
1696240328988,-0.2512207,-0.8171997,-0.18682861,-4.828125,-10.1875,-0.390625
1696240329025,-0.21875,-0.7908325,-0.047668457,-0.984375,-3.578125,3.484375
1696240329087,-0.26098633,-1.0974731,0.027282715,-3.0625,-18.859375,-1.9375
1696240329105,-0.36108398,-1.0581665,-0.08306885,-13.15625,-10.78125,0.53125
1696240329148,-0.16015625,-0.88726807,-0.018127441,-7.5625,-2.265625,2.609375
1696240329205,-0.22583008,-0.9595337,-0.06036377,-5.1875,-2.015625,1.265625
1696240329226,-0.29858398,-1.005188,-0.07550049,-0.53125,-5.875,-1.21875
1696240329267,-0.25683594,-0.9817505,-0.0051879883,-1.265625,-1.9375,3.453125
1696240329305,-0.18554688,-1.0513306,-0.046447754,0.78125,-3.75,0.53125
1696240329368,-0.18115234,-0.9487915,-0.12335205,-1.484375,-11.890625,-4.875
1696240329385,-0.28833008,-0.8257446,-0.016906738,1.421875,1.734375,1.46875
1696240329427,-0.45532227,-0.8789673,0.039733887,0.21875,1.859375,10.96875
1696240329467,-0.3310547,-1.0244751,-0.02178955,0.203125,1.28125,5.15625
1696240329528,-0.20898438,-1.0222778,-0.03643799,6.765625,2.625,1.78125
1696240329546,-0.032958984,-1.0020142,-0.023254395,1.6875,-0.75,0.09375
1696240329587,-0.19189453,-0.89068604,-0.11993408,-0.59375,-3.359375,5.53125
1696240329650,-0.25073242,-0.9649048,-0.046691895,6.734375,6.828125,8.09375
1696240329666,-0.22045898,-1.1060181,-0.109191895,5.46875,-2.828125,2.484375
1696240329686,-0.26879883,-0.95562744,0.07684326,5.890625,3.171875,2.421875
1696240329771,-0.25854492,-0.8413696,-0.05279541,2.21875,-2.609375,4.640625
1696240329775,-0.22143555,-0.8701782,-0.00592041,-4.390625,0.71875,0.515625
1696240329807,-0.1965332,-1.0479126,-0.06573486,-2.03125,-1.453125,-3.921875
1696240329850,-0.15258789,-1.0979614,-0.04937744,-2.9375,-1.640625,-1.0625
1696240329888,-0.125,-0.9697876,-0.041809082,-7.53125,-3.484375,-0.375
1696240329928,-0.2524414,-0.87286377,-0.04937744,-6.609375,1.640625,0.125
1696240329966,-0.31958008,-0.9678345,-0.023498535,1.21875,1.28125,-1.859375
1696240330005,-0.29858398,-1.041565,-0.02935791,-1.453125,1.3125,-4.03125
1696240330046,-0.12207031,-1.010315,-0.02178955,-1.25,2.90625,-3.9375
1696240330084,-0.15942383,-0.97003174,-0.014953613,-1.8125,2.953125,-2.71875
1696240330125,-0.25830078,-0.9295044,-0.019836426,-1.046875,3.34375,-0.015625
