# Sensor type: Thingy
# Activity type: Running
# Activity subtype: Normal
# Subject id: s2100273
# Notes: unprocessed
timestamp,accel_x,accel_y,accel_z,gyro_x,gyro_y,gyro_z,mag_x,mag_y,mag_z
1696261164074,-0.75683594,-0.36914062,0.20214844,87.875,-51.03125,-48.46875,0.0,0.0,0.0
1696261164106,-0.17578125,-0.0068359375,0.25683594,150.0,2.75,-31.9375,0.0,0.0,0.0
1696261164136,0.32910156,0.3388672,0.018554688,11.40625,49.375,24.09375,0.0,0.0,0.0
1696261164196,-0.115234375,-0.0048828125,-0.20800781,-97.0,46.375,42.84375,0.0,0.0,0.0
1696261164226,-0.42871094,-0.21191406,0.43945312,-114.875,-28.5625,-34.1875,0.0,0.0,0.0
1696261164255,0.35839844,0.71875,0.6621094,-137.59375,5.53125,-9.53125,0.0,0.0,0.0
1696261164317,-0.5576172,0.45507812,-1.0556641,-194.71875,148.65625,84.34375,0.0,0.0,0.0
1696261164346,-2.0,-0.14648438,-0.33691406,-104.5,124.1875,66.3125,0.0,0.0,0.0
1696261164377,-0.4501953,0.21875,0.359375,-81.4375,16.15625,135.78125,0.0,0.0,0.0
1696261164437,-2.0,0.01171875,-0.36621094,-143.6875,99.71875,187.0,0.0,0.0,0.0
1696261164466,-1.7919922,-1.9462891,0.18945312,-7.65625,195.375,219.84375,0.0,0.0,0.0
1696261164495,-1.8710938,-0.67089844,0.6484375,135.84375,163.875,165.21875,-91.9375,20.3125,-60.5
1696261164555,-1.0849609,-0.076171875,0.22363281,147.375,83.65625,84.03125,0.0,0.0,0.0
1696261164589,-0.34472656,-0.50683594,0.3544922,-38.28125,-43.59375,-0.9375,0.0,0.0,0.0
1696261164615,0.19335938,-1.265625,0.34277344,-15.21875,-36.5625,-81.625,0.0,0.0,0.0
1696261164676,-0.82421875,0.033203125,0.064453125,40.09375,-158.15625,-122.5,0.0,0.0,0.0
1696261164706,-2.0,0.38085938,-0.07128906,108.875,-173.65625,-168.59375,0.0,0.0,0.0
1696261164737,-2.0,0.19824219,-0.8359375,123.53125,-229.5625,-152.3125,0.0,0.0,0.0
1696261164798,-2.0,0.041992188,-0.16992188,100.6875,-153.21875,-162.4375,0.0,0.0,0.0
1696261164827,-1.4609375,-0.2783203,-0.059570312,129.25,-155.03125,-140.34375,0.0,0.0,0.0
1696261164857,0.19042969,-0.14648438,0.10449219,53.03125,-26.125,-98.96875,0.0,0.0,0.0
1696261164920,0.38085938,0.7636719,0.10058594,5.3125,47.96875,-27.0625,0.0,0.0,0.0
1696261164947,0.38671875,0.39941406,-0.43945312,-50.71875,97.53125,60.15625,0.0,0.0,0.0
1696261164976,-0.23828125,0.048828125,0.09863281,-45.46875,0.0,88.25,0.0,0.0,0.0
1696261165038,-0.54589844,-0.49316406,0.4111328,-217.90625,-16.625,-62.53125,-92.875,-0.6875,-44.4375
1696261165066,-0.005859375,0.08984375,2.0,-101.09375,29.28125,-19.125,0.0,0.0,0.0
1696261165097,-2.0,-0.4345703,-1.2539062,-141.75,43.9375,194.875,0.0,0.0,0.0
1696261165157,0.16210938,0.17480469,-0.20117188,-4.28125,-15.8125,137.5625,0.0,0.0,0.0
1696261165186,-2.0,0.22753906,0.125,-58.3125,98.375,255.28125,0.0,0.0,0.0
1696261165215,-2.0,-1.5791016,0.18261719,-54.5625,180.90625,173.375,0.0,0.0,0.0
1696261165276,-1.5214844,-0.8359375,0.65234375,113.6875,181.375,161.71875,0.0,0.0,0.0
1696261165309,-0.7578125,-0.08203125,0.65234375,84.59375,127.0625,94.46875,0.0,0.0,0.0
1696261165336,-0.35839844,-0.15917969,0.31933594,57.84375,56.03125,45.46875,0.0,0.0,0.0
1696261165399,-0.060546875,-1.2958984,-0.12890625,-26.25,-9.90625,-59.65625,0.0,0.0,0.0
1696261165425,-0.61816406,0.17675781,0.6669922,34.90625,-80.75,-102.3125,0.0,0.0,0.0
1696261165455,-1.2119141,0.39257812,0.17578125,44.46875,-228.03125,-122.5625,0.0,0.0,0.0
1696261165517,-2.0,-0.24316406,-0.20410156,101.71875,-190.4375,-142.59375,-94.0625,11.5625,-53.4375
1696261165546,-2.0,-0.68066406,-0.61035156,26.46875,-175.65625,-221.625,0.0,0.0,0.0
1696261165576,-1.7919922,-0.7324219,0.29296875,46.25,-142.09375,-145.59375,0.0,0.0,0.0
1696261165636,-0.4345703,-0.89160156,0.09277344,98.5625,-68.25,-111.59375,0.0,0.0,0.0
1696261165668,0.060546875,-0.09667969,0.10253906,63.78125,36.4375,-24.5,0.0,0.0,0.0
1696261165695,0.53808594,0.6796875,-0.26367188,2.625,80.96875,69.8125,0.0,0.0,0.0
1696261165757,0.0078125,0.44628906,-0.001953125,0.84375,59.1875,106.1875,0.0,0.0,0.0
1696261165785,-0.7734375,-0.36914062,0.099609375,-62.03125,-50.96875,-7.53125,0.0,0.0,0.0
1696261165817,0.01171875,0.19824219,-0.32128906,-274.25,-13.0,-72.09375,0.0,0.0,0.0
1696261165877,0.68359375,1.2539062,-1.1904297,-84.71875,-23.6875,98.0,0.0,0.0,0.0
1696261165905,-2.0,-2.0,-1.0917969,-168.71875,83.71875,2.375,0.0,0.0,0.0
1696261165936,-0.11230469,-0.64160156,0.049804688,-19.90625,-14.21875,150.4375,0.0,0.0,0.0
1696261165996,-2.0,-0.2734375,-0.20996094,-55.4375,145.5625,200.0625,0.0,0.0,0.0
1696261166024,-1.8681641,-1.1982422,0.8408203,27.75,143.40625,188.8125,-95.5625,12.3125,-57.375
1696261166057,-0.8808594,-0.546875,0.57421875,78.1875,102.96875,117.71875,0.0,0.0,0.0
1696261166145,-0.21191406,0.13867188,0.0029296875,54.96875,98.6875,75.78125,0.0,0.0,0.0
1696261166150,0.37402344,-1.3261719,0.52441406,-3.78125,33.6875,25.125,0.0,0.0,0.0
1696261166176,-0.6044922,0.068359375,0.5371094,32.6875,-25.9375,-75.21875,0.0,0.0,0.0
1696261166236,-0.9121094,0.40625,0.025390625,44.125,-151.5,-100.78125,0.0,0.0,0.0
1696261166266,-2.0,0.41308594,-0.25585938,112.34375,-143.1875,-154.3125,0.0,0.0,0.0
1696261166295,-2.0,-0.07519531,-0.37304688,-27.21875,-196.4375,-181.46875,0.0,0.0,0.0
1696261166359,-2.0,-0.4453125,-0.040039062,-24.71875,-150.59375,-186.0,0.0,0.0,0.0
1696261166386,-1.4580078,-0.7705078,0.072265625,124.875,-110.65625,-131.375,0.0,0.0,0.0
1696261166416,0.0029296875,-0.2734375,0.07910156,123.09375,-12.09375,-62.15625,0.0,0.0,0.0
1696261166536,0.359375,0.578125,-0.057617188,62.90625,54.4375,13.15625,0.0,0.0,0.0
1696261166540,0.25097656,0.59472656,-0.31933594,3.59375,98.125,100.09375,-96.625,-4.9375,-41.4375
1696261166543,-0.27246094,0.068359375,0.060546875,-22.03125,-6.53125,60.03125,0.0,0.0,0.0
1696261166595,-0.6201172,-0.11328125,0.71777344,-238.71875,-74.59375,-92.4375,0.0,0.0,0.0
1696261166626,0.001953125,0.1328125,0.1796875,-108.71875,-13.9375,-21.125,0.0,0.0,0.0
1696261166657,-2.0,-0.4248047,0.037109375,-138.6875,114.71875,156.125,0.0,0.0,0.0
1696261166718,-0.32910156,-0.0703125,-0.11621094,1.40625,18.96875,148.34375,0.0,0.0,0.0
1696261166751,-2.0,-0.049804688,-0.0859375,-68.5,105.15625,229.90625,0.0,0.0,0.0
1696261166776,-1.7919922,-1.2255859,0.48046875,-31.9375,159.65625,168.25,0.0,0.0,0.0
1696261166836,-1.2167969,-0.8105469,0.58984375,56.9375,119.375,129.3125,0.0,0.0,0.0
1696261166866,-0.46972656,-0.040039062,0.33691406,36.71875,68.90625,78.59375,0.0,0.0,0.0
1696261166896,-0.037109375,-0.62402344,0.18457031,5.1875,19.15625,28.5625,0.0,0.0,0.0
1696261166957,-0.25585938,-0.71777344,-0.032226562,9.375,-19.78125,-86.625,0.0,0.0,0.0
1696261166987,-0.5175781,0.13085938,0.14453125,52.40625,-99.875,-95.65625,0.0,0.0,0.0
1696261167016,-2.0,-0.20898438,0.93359375,57.59375,-203.75,-152.46875,-95.6875,15.3125,-63.8125
1696261167077,-2.0,0.30664062,-0.16992188,17.75,-147.84375,-114.9375,0.0,0.0,0.0
1696261167106,-2.0,-0.33691406,-0.3623047,31.65625,-156.6875,-208.75,0.0,0.0,0.0
1696261167137,-1.8271484,-1.0839844,0.15136719,68.21875,-105.40625,-140.15625,0.0,0.0,0.0
1696261167196,-0.18261719,-0.3955078,0.17480469,137.875,-42.0,-79.25,0.0,0.0,0.0
1696261167225,0.061523438,0.34960938,0.0625,46.375,37.59375,1.21875,0.0,0.0,0.0
1696261167288,0.5625,0.7763672,-0.3828125,39.28125,59.5,77.5625,0.0,0.0,0.0
1696261167316,0.1953125,0.26953125,-0.10058594,35.5625,36.4375,79.03125,0.0,0.0,0.0
1696261167347,-0.66015625,-0.5,0.69433594,-174.21875,-42.84375,-75.46875,0.0,0.0,0.0
1696261167376,0.43359375,0.9326172,0.7636719,-224.0625,7.9375,-25.21875,0.0,0.0,0.0
1696261167437,-2.0,-1.2675781,-0.12109375,-252.09375,162.65625,144.8125,0.0,0.0,0.0
1696261167466,-0.068359375,-0.0078125,0.045898438,44.71875,-26.1875,96.28125,0.0,0.0,0.0
1696261167496,-2.0,0.48242188,-0.19824219,-26.4375,115.59375,304.5,-101.375,2.75,-49.25
1696261167561,-2.0,-1.0859375,0.1015625,31.90625,197.3125,176.1875,0.0,0.0,0.0
1696261167586,-1.4189453,-0.7441406,0.73828125,72.6875,140.0625,121.3125,0.0,0.0,0.0
1696261167616,-0.5566406,-0.06933594,0.4814453,42.84375,97.8125,80.96875,0.0,0.0,0.0
1696261167679,-0.19628906,-0.3798828,0.32128906,16.71875,24.84375,49.0625,0.0,0.0,0.0
1696261167708,-0.19726562,-1.1708984,-0.2998047,-1.21875,-19.59375,-81.4375,0.0,0.0,0.0
1696261167736,-0.4189453,0.115234375,0.5029297,68.65625,-80.6875,-82.90625,0.0,0.0,0.0
1696261167797,-0.9814453,0.56933594,0.21191406,55.15625,-214.4375,-109.875,0.0,0.0,0.0
1696261167825,-2.0,-0.4638672,-0.14648438,27.5,-178.40625,-120.9375,0.0,0.0,0.0
1696261167855,-2.0,-0.16992188,-0.34179688,35.625,-179.09375,-176.96875,0.0,0.0,0.0
1696261167915,-1.8994141,-0.8457031,0.19042969,-1.21875,-107.25,-137.09375,0.0,0.0,0.0
1696261167944,-0.5703125,-0.9482422,0.09472656,110.9375,-44.5625,-100.40625,0.0,0.0,0.0
1696261167974,0.049804688,0.13183594,0.06933594,60.40625,35.9375,-26.125,0.0,0.0,0.0
1696261168037,0.35742188,0.6386719,-0.3359375,6.75,53.46875,66.75,-97.1875,-4.75,-40.25
1696261168065,0.20019531,0.34472656,0.09863281,63.03125,16.34375,77.625,0.0,0.0,0.0
1696261168097,-0.44628906,-0.17089844,0.51660156,-126.0625,-56.46875,-17.71875,0.0,0.0,0.0
1696261168155,0.48046875,0.5029297,-0.6044922,-272.03125,33.0625,-21.9375,0.0,0.0,0.0
1696261168186,-2.0,2.0,-0.19042969,-244.40625,9.8125,20.0,0.0,0.0,0.0
1696261168249,0.24023438,-0.265625,0.20117188,50.78125,37.90625,42.09375,0.0,0.0,0.0
1696261168276,-1.1347656,0.07714844,-0.08300781,9.4375,77.4375,258.96875,0.0,0.0,0.0
1696261168305,-2.0,0.015625,-0.43066406,56.875,180.28125,185.09375,0.0,0.0,0.0
1696261168337,-1.6005859,-0.83203125,0.73046875,-1.0,119.375,110.21875,0.0,0.0,0.0
1696261168424,-0.7050781,-0.22363281,0.51953125,34.71875,96.53125,87.5,0.0,0.0,0.0
1696261168426,-0.32226562,-0.14648438,0.24023438,3.71875,74.6875,65.53125,0.0,0.0,0.0
1696261168455,0.052734375,-1.9541016,-0.018554688,-11.90625,18.71875,-28.875,0.0,0.0,0.0
1696261168544,-0.33203125,0.2578125,0.47558594,74.21875,-35.71875,-68.875,-89.6875,20.0,-67.5625
1696261168546,-0.8330078,0.45703125,-0.036132812,75.4375,-168.78125,-95.65625,0.0,0.0,0.0
1696261168574,-2.0,0.23242188,-0.04296875,101.375,-175.0,-110.4375,0.0,0.0,0.0
1696261168637,-2.0,0.43164062,-0.31640625,-25.65625,-189.34375,-160.1875,0.0,0.0,0.0
1696261168669,-2.0,-0.25585938,0.0126953125,-54.53125,-132.9375,-167.75,0.0,0.0,0.0
1696261168698,-1.1601562,-0.91796875,-0.109375,71.65625,-84.90625,-128.75,0.0,0.0,0.0
1696261168757,-0.036132812,-0.15429688,0.060546875,76.96875,-3.625,-58.5,0.0,0.0,0.0
1696261168785,0.5341797,0.74609375,-0.17480469,24.09375,51.25,18.46875,0.0,0.0,0.0
1696261168817,0.4296875,0.46679688,-0.119140625,37.03125,67.90625,95.75,0.0,0.0,0.0
1696261168881,-0.35839844,-0.21777344,0.32128906,-44.1875,-38.40625,18.59375,0.0,0.0,0.0
1696261168906,-0.08984375,-0.048828125,-0.22851562,-275.21875,15.6875,-85.65625,0.0,0.0,0.0
1696261168937,-0.6015625,0.14746094,0.8984375,-55.90625,-50.3125,9.4375,0.0,0.0,0.0
1696261169000,-1.0146484,-0.5419922,-0.087890625,39.96875,82.3125,-39.09375,0.0,0.0,0.0
1696261169026,-0.39941406,0.22265625,0.15429688,39.65625,22.5625,184.0625,-97.9375,-4.3125,-52.25
1696261169055,-2.0,0.91503906,0.0234375,-107.25,143.84375,312.3125,0.0,0.0,0.0
1696261169116,-1.5664062,-1.9150391,0.64746094,5.53125,148.78125,129.75,0.0,0.0,0.0
1696261169147,-1.1337891,-0.44140625,0.6279297,58.65625,103.5625,114.78125,0.0,0.0,0.0
1696261169176,-0.46679688,-0.0048828125,0.115234375,24.28125,82.03125,72.375,0.0,0.0,0.0
1696261169250,0.11035156,-0.9003906,0.40625,-12.84375,19.40625,37.59375,0.0,0.0,0.0
1696261169266,-0.16796875,-0.3466797,0.029296875,31.78125,-23.03125,-82.71875,0.0,0.0,0.0
1696261169294,-0.5292969,0.19628906,0.63671875,91.59375,-111.46875,-99.5625,0.0,0.0,0.0
1696261169357,-1.7460938,0.36816406,0.5966797,36.0625,-257.40625,-121.125,0.0,0.0,0.0
1696261169387,-2.0,-0.20898438,-0.1015625,50.03125,-152.0,-117.9375,0.0,0.0,0.0
1696261169416,-2.0,0.19238281,-0.38671875,11.71875,-115.75,-213.34375,0.0,0.0,0.0
1696261169476,-1.8056641,-0.9345703,0.27441406,14.9375,-112.625,-140.71875,0.0,0.0,0.0
1696261169506,-0.24414062,-0.8408203,0.03515625,117.71875,-34.5625,-69.96875,-98.125,-2.375,-42.1875
1696261169536,0.10253906,0.20800781,0.18945312,60.78125,56.1875,13.46875,0.0,0.0,0.0
1696261169597,0.49414062,0.7451172,-0.3935547,-12.34375,72.5,114.0625,0.0,0.0,0.0
1696261169626,0.21582031,0.35546875,0.041992188,30.5,23.84375,95.9375,0.0,0.0,0.0
1696261169656,-0.68066406,-0.31640625,0.5673828,-135.75,-19.71875,-41.59375,0.0,0.0,0.0
1696261169717,0.16113281,0.047851562,-0.5810547,-291.875,22.6875,-65.3125,0.0,0.0,0.0
1696261169746,-0.5527344,0.56640625,0.20507812,-15.09375,-42.84375,49.84375,0.0,0.0,0.0
1696261169775,-0.4345703,-0.15332031,9.765625E-4,102.09375,10.0625,-5.8125,0.0,0.0,0.0
1696261169837,-0.29296875,0.375,-0.09277344,13.84375,41.8125,186.5625,0.0,0.0,0.0
1696261169867,-2.0,0.48046875,-0.3125,-54.46875,110.78125,252.59375,0.0,0.0,0.0
1696261169897,-1.7470703,-1.6318359,0.8496094,-10.75,185.21875,131.28125,0.0,0.0,0.0
1696261169956,-1.1845703,-0.20800781,0.6933594,104.25,118.53125,104.0,0.0,0.0,0.0
1696261169990,-0.5517578,0.17285156,0.3125,56.125,62.0,83.71875,0.0,0.0,0.0
1696261170017,-0.06933594,-0.77246094,0.19628906,-48.84375,-19.78125,50.46875,-91.1875,22.8125,-66.8125
1696261170077,-0.07519531,-0.94140625,0.45214844,53.21875,10.84375,-70.875,0.0,0.0,0.0
1696261170106,-0.41503906,0.50390625,-0.05078125,88.71875,-139.1875,-93.21875,0.0,0.0,0.0
1696261170136,-2.0,-0.095703125,0.24902344,88.71875,-239.5,-139.71875,0.0,0.0,0.0
1696261170198,-2.0,0.4716797,0.12988281,48.28125,-203.9375,-111.84375,0.0,0.0,0.0
1696261170232,-2.0,-0.28027344,-0.12988281,-77.90625,-110.78125,-226.40625,0.0,0.0,0.0
1696261170291,-1.6210938,-1.0849609,0.11816406,22.375,-100.78125,-161.03125,0.0,0.0,0.0
1696261170316,-0.29882812,-0.65527344,-0.07421875,121.03125,-47.3125,-70.34375,0.0,0.0,0.0
1696261170348,0.12011719,0.31445312,0.0703125,71.09375,40.5625,-10.21875,0.0,0.0,0.0
1696261170376,0.60839844,0.8339844,-0.3876953,10.0625,96.78125,93.0625,0.0,0.0,0.0
1696261170436,0.3173828,0.29882812,-0.14160156,13.65625,36.375,105.28125,0.0,0.0,0.0
1696261170498,-0.8955078,-0.42285156,1.1582031,-237.625,-62.03125,-88.875,0.0,0.0,0.0
1696261170503,0.60253906,0.9765625,-0.54296875,-243.0625,51.5625,-31.625,-96.625,0.9375,-44.0
1696261170556,-2.0,-1.3125,0.859375,-185.5,200.375,102.03125,0.0,0.0,0.0
1696261170585,0.33398438,-0.23828125,0.22070312,52.90625,-5.25,45.34375,0.0,0.0,0.0
1696261170616,-1.1464844,0.50878906,-0.32910156,-36.5,94.78125,242.40625,0.0,0.0,0.0
1696261170708,-2.0,-0.41308594,-0.2998047,40.34375,141.84375,173.9375,0.0,0.0,0.0
1696261170715,-1.6044922,-0.8623047,0.54589844,-0.4375,128.71875,130.34375,0.0,0.0,0.0
1696261170736,-0.9921875,-0.2890625,0.6982422,49.90625,94.40625,110.53125,0.0,0.0,0.0
1696261170797,-0.46679688,-0.125,0.12695312,14.40625,72.125,73.84375,0.0,0.0,0.0
1696261170827,0.072265625,-1.4130859,0.28710938,1.8125,5.65625,14.625,0.0,0.0,0.0
1696261170857,-0.48339844,0.034179688,0.43066406,55.71875,-66.96875,-103.46875,0.0,0.0,0.0
1696261170914,-1.0898438,0.36914062,0.16796875,75.25,-211.125,-117.375,0.0,0.0,0.0
1696261170945,-2.0,-0.15039062,-0.2685547,140.1875,-205.9375,-118.84375,0.0,0.0,0.0
1696261170984,-2.0,0.06542969,-0.3564453,-19.0,-171.34375,-148.8125,0.0,0.0,0.0
1696261171034,-2.0,-0.24023438,0.060546875,-26.875,-119.03125,-172.25,-102.3125,2.875,-48.6875
1696261171064,-0.9873047,-0.6455078,0.022460938,90.9375,-73.4375,-140.53125,0.0,0.0,0.0
1696261171094,-0.05078125,-0.13671875,0.13183594,87.34375,15.375,-48.65625,0.0,0.0,0.0
1696261171154,0.55566406,0.7753906,-0.13476562,-0.6875,62.96875,60.84375,0.0,0.0,0.0
1696261171185,0.33007812,0.6425781,0.0048828125,17.3125,49.84375,116.125,0.0,0.0,0.0
1696261171218,-0.42382812,-0.35742188,0.044921875,-44.25,-67.03125,-6.25,0.0,0.0,0.0
1696261171276,-0.23144531,0.17871094,-0.6464844,-342.0,-12.28125,-63.625,0.0,0.0,0.0
1696261171307,-2.0,0.08691406,0.31054688,-139.28125,71.65625,5.0,0.0,0.0,0.0
1696261171337,-0.7089844,-0.24023438,-0.24316406,3.21875,26.1875,106.3125,0.0,0.0,0.0
1696261171398,-1.171875,0.13378906,-0.140625,3.96875,74.34375,217.21875,0.0,0.0,0.0
1696261171426,-2.0,-0.3642578,-0.4189453,-40.78125,121.21875,156.96875,0.0,0.0,0.0
1696261171457,-1.6259766,-1.3496094,0.421875,-12.46875,153.0625,136.15625,0.0,0.0,0.0
1696261171518,-1.046875,-0.45703125,0.73339844,71.03125,110.78125,116.6875,-96.875,18.625,-57.5
1696261171547,-0.5703125,-0.025390625,0.18457031,59.375,82.3125,76.28125,0.0,0.0,0.0
1696261171578,-0.05859375,-0.7597656,0.2607422,8.59375,10.96875,38.8125,0.0,0.0,0.0
1696261171635,-0.3955078,-0.50683594,0.3330078,9.75,-42.375,-94.625,0.0,0.0,0.0
1696261171666,-0.49609375,0.24804688,0.020507812,73.0,-152.0,-94.0,0.0,0.0,0.0
1696261171697,-2.0,-0.009765625,-0.20605469,64.125,-188.3125,-166.9375,0.0,0.0,0.0
1696261171756,-2.0,0.9033203,-0.115234375,4.25,-175.96875,-143.28125,0.0,0.0,0.0
1696261171787,-2.0,-0.20214844,-0.15136719,-46.34375,-92.53125,-234.625,0.0,0.0,0.0
1696261171816,-1.6806641,-0.6933594,0.07128906,46.875,-92.53125,-141.5625,0.0,0.0,0.0
1696261171877,-0.20117188,-0.4248047,0.030273438,112.65625,-32.65625,-62.03125,0.0,0.0,0.0
1696261171906,0.32128906,0.41015625,0.15625,47.34375,61.15625,14.4375,0.0,0.0,0.0
1696261171936,0.49316406,0.6542969,-0.41210938,-6.40625,75.5625,121.5,0.0,0.0,0.0
1696261171997,-0.072265625,-0.15429688,0.15820312,10.71875,-27.78125,69.0625,0.0,0.0,0.0
1696261172025,-0.4404297,-0.34570312,0.1875,-312.21875,-18.1875,-102.5,-97.0625,1.25,-46.6875
1696261172056,0.62402344,1.0888672,0.9082031,-57.875,71.53125,28.0625,0.0,0.0,0.0
1696261172117,-2.0,-1.9648438,-0.74316406,-258.0625,162.71875,68.15625,0.0,0.0,0.0
1696261172145,0.59765625,-0.05859375,0.30078125,38.9375,-39.9375,114.125,0.0,0.0,0.0
1696261172177,-1.8017578,0.27148438,-0.27441406,-46.21875,113.21875,271.78125,0.0,0.0,0.0
1696261172236,-1.4609375,-0.83984375,0.2705078,83.3125,164.71875,172.09375,0.0,0.0,0.0
1696261172265,-1.4716797,-0.78222656,0.6435547,45.65625,123.28125,119.5,0.0,0.0,0.0
1696261172296,-0.71875,-0.12207031,0.28027344,66.28125,91.0,95.9375,0.0,0.0,0.0
1696261172357,-0.34472656,-0.46191406,0.31933594,23.3125,24.59375,50.875,0.0,0.0,0.0
1696261172387,-0.11425781,-1.015625,0.20996094,-17.78125,-36.09375,-77.78125,0.0,0.0,0.0
1696261172416,-0.5019531,0.00390625,0.48046875,70.46875,-118.53125,-101.65625,0.0,0.0,0.0
1696261172477,-2.0,0.07714844,0.7714844,51.5,-258.3125,-144.125,0.0,0.0,0.0
1696261172508,-1.953125,0.55859375,-0.29101562,105.46875,-178.59375,-134.125,-99.125,11.5625,-54.8125
1696261172538,-2.0,-9.765625E-4,-0.37109375,-27.125,-135.09375,-211.6875,0.0,0.0,0.0
1696261172601,-1.7148438,-0.88183594,0.08984375,22.6875,-101.09375,-151.875,0.0,0.0,0.0
1696261172625,-0.29785156,-0.8515625,0.119140625,99.78125,-38.21875,-84.90625,0.0,0.0,0.0
1696261172656,0.07910156,0.23632812,0.13671875,52.0625,64.3125,-7.09375,0.0,0.0,0.0
1696261172718,0.51171875,0.75878906,-0.37109375,5.0,87.34375,97.875,0.0,0.0,0.0
1696261172745,0.14746094,0.16015625,0.1484375,18.96875,33.375,93.3125,0.0,0.0,0.0
1696261172777,-0.71972656,-0.40722656,0.68066406,-228.46875,-8.0,-77.90625,0.0,0.0,0.0
1696261172835,0.515625,0.9033203,-0.43164062,-175.1875,39.90625,-25.84375,0.0,0.0,0.0
1696261172867,-2.0,-0.8046875,1.4970703,-130.9375,138.65625,74.9375,0.0,0.0,0.0
1696261172895,0.17578125,0.13476562,-0.056640625,7.9375,-24.90625,105.6875,0.0,0.0,0.0
1696261172989,-1.8212891,0.39160156,-0.22753906,-78.625,107.84375,289.71875,0.0,0.0,0.0
1696261172993,-2.0,-1.4082031,-0.07714844,39.0625,176.125,142.25,0.0,0.0,0.0
1696261173023,-1.4003906,-0.5419922,0.5917969,78.125,124.6875,143.90625,-98.125,13.6875,-55.875
1696261173076,-0.7373047,-0.0859375,0.60839844,78.34375,106.875,101.90625,0.0,0.0,0.0
1696261173132,-0.32910156,-0.07421875,0.27148438,26.40625,74.28125,68.28125,0.0,0.0,0.0
1696261173138,0.12890625,-1.4931641,0.15429688,-12.40625,-16.375,-10.5625,0.0,0.0,0.0
1696261173196,-0.38378906,0.22363281,0.42089844,42.03125,-73.6875,-81.1875,0.0,0.0,0.0
1696261173225,-0.5966797,0.3935547,-0.01953125,57.71875,-188.71875,-98.53125,0.0,0.0,0.0
1696261173255,-2.0,-0.17675781,-0.44726562,1.9375,-158.71875,-195.5,0.0,0.0,0.0
1696261173317,-2.0,0.0087890625,-0.34277344,83.96875,-149.71875,-198.9375,0.0,0.0,0.0
1696261173345,-1.6767578,-0.18457031,0.21777344,-10.6875,-115.5625,-150.28125,0.0,0.0,0.0
1696261173377,-0.9121094,-1.0234375,0.15332031,61.9375,-93.03125,-86.625,0.0,0.0,0.0
1696261173437,-0.17773438,-0.34570312,0.25,59.6875,21.53125,-18.6875,0.0,0.0,0.0
1696261173465,0.54785156,0.68359375,-0.16503906,66.875,42.78125,53.09375,0.0,0.0,0.0
1696261173497,0.2890625,0.4970703,-0.3623047,41.0,52.0625,110.75,-94.8125,-1.9375,-43.5625
1696261173556,-0.40039062,-0.23535156,0.4638672,-87.96875,-8.625,9.125,0.0,0.0,0.0
1696261173585,-0.034179688,0.13085938,-0.5888672,-322.59375,16.15625,-73.6875,0.0,0.0,0.0
1696261173617,-2.0,0.7734375,-0.9199219,-173.15625,-32.59375,-28.40625,0.0,0.0,0.0
1696261173676,-0.8339844,-0.37109375,-0.33789062,-3.1875,3.59375,40.75,0.0,0.0,0.0
1696261173706,-0.46777344,0.07910156,-0.095703125,32.40625,38.125,206.90625,0.0,0.0,0.0
1696261173735,-2.0,0.05859375,-0.4892578,-51.09375,111.4375,209.75,0.0,0.0,0.0
1696261173797,-1.7617188,-1.46875,0.5419922,-24.25,160.375,128.78125,0.0,0.0,0.0
1696261173825,-1.1416016,-0.4033203,0.7158203,64.75,100.5625,116.0,0.0,0.0,0.0
1696261173857,-0.49316406,-0.020507812,0.1953125,33.8125,74.28125,75.46875,0.0,0.0,0.0
1696261173917,0.015625,-0.8691406,0.2548828,-3.125,30.4375,41.3125,0.0,0.0,0.0
1696261173946,-0.24609375,-0.51953125,0.43164062,25.9375,-22.96875,-85.46875,0.0,0.0,0.0
1696261173975,-0.71191406,0.2548828,-0.08886719,65.90625,-152.78125,-102.4375,0.0,0.0,0.0
1696261174036,-2.0,0.71777344,-0.30664062,116.03125,-158.09375,-161.8125,-96.875,16.0625,-64.875
1696261174065,-2.0,0.73535156,-0.19433594,1.4375,-169.03125,-142.96875,0.0,0.0,0.0
1696261174096,-2.0,-0.08203125,-0.017578125,-36.75,-106.03125,-198.125,0.0,0.0,0.0
1696261174156,-1.4033203,-0.56933594,-0.059570312,72.375,-101.8125,-122.40625,0.0,0.0,0.0
1696261174188,-0.17675781,-0.39648438,0.033203125,87.09375,-17.96875,-53.84375,0.0,0.0,0.0
1696261174215,0.27441406,0.53125,0.061523438,41.0,44.375,30.1875,0.0,0.0,0.0
1696261174275,0.31152344,0.6455078,-0.09277344,5.125,51.1875,107.03125,0.0,0.0,0.0
1696261174310,-0.055664062,-0.17285156,0.125,-49.34375,-33.53125,26.21875,0.0,0.0,0.0
1696261174334,0.19042969,-0.07421875,-0.5,-276.4375,30.09375,-64.53125,0.0,0.0,0.0
1696261174394,-0.49902344,-0.5136719,-0.78125,-95.96875,-49.03125,-6.78125,0.0,0.0,0.0
1696261174424,-1.5625,-0.6308594,-0.23144531,7.1875,68.96875,13.28125,0.0,0.0,0.0
1696261174454,-0.33203125,-0.0234375,-0.030273438,73.96875,-11.1875,199.9375,0.0,0.0,0.0
1696261174529,-2.0,0.1328125,-0.25585938,-11.1875,103.125,256.8125,-101.6875,6.8125,-50.625
1696261174545,-1.6005859,-1.1484375,0.6191406,35.75,144.8125,130.0625,0.0,0.0,0.0
1696261174576,-1.0820312,-0.31347656,0.63671875,81.46875,119.0,103.0625,0.0,0.0,0.0
1696261174634,-0.4345703,0.12988281,0.18066406,36.375,112.53125,79.4375,0.0,0.0,0.0
1696261174664,-0.033203125,-0.78222656,0.3642578,10.84375,31.0,54.5625,0.0,0.0,0.0
1696261174695,-0.7294922,-0.35546875,0.64453125,5.125,-64.15625,-102.96875,0.0,0.0,0.0
1696261174755,-0.53027344,0.42871094,-0.033203125,65.59375,-191.40625,-103.53125,0.0,0.0,0.0
1696261174786,-2.0,-0.16894531,-0.390625,85.6875,-197.78125,-135.34375,0.0,0.0,0.0
1696261174816,-2.0,0.9902344,-0.26660156,56.6875,-198.9375,-130.21875,0.0,0.0,0.0
1696261174876,-2.0,9.765625E-4,-0.13964844,-112.0,-106.625,-205.53125,0.0,0.0,0.0
1696261174905,-1.5927734,-0.75097656,-0.022460938,52.84375,-72.15625,-163.46875,0.0,0.0,0.0
1696261174935,0.060546875,-0.36035156,0.087890625,98.0625,2.6875,-77.28125,0.0,0.0,0.0
1696261174997,0.54589844,0.5390625,0.0087890625,40.34375,71.65625,33.625,-93.875,-2.9375,-35.625
1696261175025,0.5136719,0.6953125,-0.203125,24.53125,56.25,137.375,0.0,0.0,0.0
1696261175057,-0.22363281,0.009765625,0.12792969,13.59375,-40.0625,55.9375,0.0,0.0,0.0
1696261175118,-0.40625,-0.125,0.07128906,-326.625,-0.25,-104.5625,0.0,0.0,0.0
1696261175145,-2.0,0.96875,-0.6464844,-187.4375,-20.9375,-72.90625,0.0,0.0,0.0
1696261175176,-1.5185547,0.005859375,-0.59375,-72.21875,3.59375,82.8125,0.0,0.0,0.0
1696261175267,-0.6669922,-0.24511719,-0.0625,13.40625,75.375,208.25,0.0,0.0,0.0
1696261175272,-2.0,-0.22070312,-0.5605469,-19.1875,119.6875,170.21875,0.0,0.0,0.0
1696261175297,-1.6884766,-1.0546875,0.28320312,-28.6875,158.625,150.96875,0.0,0.0,0.0
1696261175359,-1.2939453,-0.53125,0.5966797,54.96875,132.0,111.3125,0.0,0.0,0.0
1696261175385,-0.7294922,-0.19726562,0.36523438,37.78125,90.3125,75.0,0.0,0.0,0.0
1696261175417,-0.21777344,-0.49316406,0.32226562,-5.3125,15.96875,36.53125,0.0,0.0,0.0
1696261175477,-0.005859375,-0.8857422,0.34765625,-25.65625,-42.625,-67.03125,0.0,0.0,0.0
1696261175505,-0.45117188,0.013671875,0.23828125,42.21875,-133.3125,-113.53125,-94.375,17.5625,-64.875
1696261175536,-1.9521484,0.034179688,0.91308594,66.34375,-240.78125,-173.90625,0.0,0.0,0.0
1696261175597,-2.0,0.984375,-0.18457031,26.53125,-164.4375,-149.5625,0.0,0.0,0.0
1696261175626,-2.0,-0.12402344,-0.12597656,-106.03125,-78.25,-234.8125,0.0,0.0,0.0
1696261175657,-1.6503906,-0.69433594,0.39160156,0.90625,-73.6875,-185.125,0.0,0.0,0.0
1696261175718,-0.10644531,-0.5595703,0.12207031,139.03125,-41.09375,-62.875,0.0,0.0,0.0
1696261175746,0.22753906,0.15527344,0.25976562,110.21875,44.65625,36.1875,0.0,0.0,0.0
1696261175774,0.890625,0.8144531,-0.328125,-5.625,69.4375,129.0,0.0,0.0,0.0
1696261175837,-0.10839844,0.043945312,-0.24023438,-16.0625,4.8125,72.3125,0.0,0.0,0.0
1696261175873,-0.38867188,-0.31152344,0.2763672,-195.375,-7.9375,-94.1875,0.0,0.0,0.0
1696261175896,-0.38964844,0.5283203,2.0,-49.5625,-39.5,23.65625,0.0,0.0,0.0
1696261175957,-2.0,-0.93066406,-0.7734375,-108.84375,78.78125,1.4375,0.0,0.0,0.0
1696261175987,-0.049804688,-0.06738281,0.12695312,51.8125,0.84375,135.0,-98.25,-2.9375,-50.75
1696261176016,-1.9121094,0.5410156,-0.18164062,-34.9375,121.25,261.8125,0.0,0.0,0.0
1696261176078,-1.7216797,-0.9482422,0.0546875,41.90625,180.21875,190.53125,0.0,0.0,0.0
1696261176106,-1.4404297,-0.46289062,0.57128906,38.625,132.8125,124.625,0.0,0.0,0.0
1696261176137,-0.8486328,-0.107421875,0.4658203,31.59375,82.6875,93.71875,0.0,0.0,0.0
1696261176200,-0.4560547,-0.2939453,0.24414062,1.5625,35.75,54.375,0.0,0.0,0.0
1696261176224,0.087890625,-1.3095703,0.29101562,-36.625,-5.75,-21.75,0.0,0.0,0.0
1696261176254,-0.45703125,-0.005859375,0.390625,51.875,-94.75,-105.78125,0.0,0.0,0.0
1696261176318,-1.8427734,0.013671875,0.8574219,71.46875,-246.09375,-129.65625,0.0,0.0,0.0
1696261176347,-1.765625,0.24414062,-0.39257812,166.0625,-182.3125,-125.6875,0.0,0.0,0.0
1696261176375,-2.0,-0.052734375,-0.2998047,-24.65625,-134.78125,-191.0625,0.0,0.0,0.0
1696261176435,-1.7519531,-0.82128906,0.23730469,-38.03125,-124.59375,-168.65625,0.0,0.0,0.0
1696261176467,-0.45507812,-0.7421875,0.0048828125,51.0625,-59.21875,-102.375,0.0,0.0,0.0
1696261176496,-0.10058594,-0.0029296875,0.18261719,92.59375,25.5625,-15.875,-98.125,-3.4375,-36.9375
1696261176556,0.33496094,0.5986328,-0.28710938,42.53125,45.71875,88.0,0.0,0.0,0.0
1696261176585,0.1640625,0.4404297,0.024414062,64.5625,12.1875,102.59375,0.0,0.0,0.0
1696261176617,-0.47753906,-0.15429688,0.48828125,-177.75,-9.15625,-30.53125,0.0,0.0,0.0
1696261176678,0.5185547,0.8359375,-0.40429688,-243.78125,37.34375,-28.65625,0.0,0.0,0.0
1696261176707,-2.0,1.9111328,1.4042969,-159.0625,92.40625,25.8125,0.0,0.0,0.0
1696261176736,0.15039062,-0.28027344,-0.1171875,18.0625,-9.46875,72.25,0.0,0.0,0.0
1696261176795,-0.78222656,0.1875,-0.08984375,-2.625,88.0625,217.875,0.0,0.0,0.0
1696261176831,-2.0,-0.4345703,-0.6904297,25.75,165.875,164.71875,0.0,0.0,0.0
1696261176855,-1.8173828,-1.0263672,0.5058594,17.4375,168.1875,136.59375,0.0,0.0,0.0
1696261176918,-1.1123047,-0.17285156,0.78808594,71.09375,106.125,113.75,0.0,0.0,0.0
1696261176945,-0.6015625,-0.048828125,0.22558594,40.5,53.875,78.21875,0.0,0.0,0.0
1696261176977,-0.0390625,-0.9863281,0.2578125,-34.25,-25.78125,16.78125,-92.25,20.0,-66.5
1696261177036,-0.43359375,-0.2626953,0.41601562,29.21875,-67.40625,-104.375,0.0,0.0,0.0
1696261177067,-1.109375,0.2919922,0.026367188,47.53125,-216.4375,-119.875,0.0,0.0,0.0
1696261177095,-2.0,-0.3232422,-0.3076172,182.0625,-191.1875,-130.375,0.0,0.0,0.0
1696261177165,-2.0,0.29296875,-0.35058594,-16.4375,-174.75,-146.0,0.0,0.0,0.0
1696261177185,-2.0,-0.36523438,0.12890625,-59.65625,-110.84375,-154.75,0.0,0.0,0.0
1696261177214,-0.9746094,-0.63378906,-0.0126953125,78.25,-67.875,-113.96875,0.0,0.0,0.0
1696261177275,0.3154297,-0.20507812,0.17382812,37.28125,24.84375,-33.65625,0.0,0.0,0.0
1696261177304,0.6953125,0.7207031,-0.30371094,-16.90625,88.5625,86.84375,0.0,0.0,0.0
1696261177335,0.123046875,0.32910156,0.27441406,48.6875,20.75,95.125,0.0,0.0,0.0
1696261177395,-0.6796875,-0.35742188,0.2919922,-114.625,-40.34375,-53.84375,0.0,0.0,0.0
1696261177426,0.30078125,0.3984375,-0.71972656,-211.875,31.59375,-57.03125,0.0,0.0,0.0
1696261177457,-2.0,1.0605469,-1.6328125,-170.1875,-42.84375,20.375,0.0,0.0,0.0
1696261177547,0.37304688,0.001953125,-0.013671875,65.28125,6.09375,8.15625,-99.75,-1.0,-50.4375
1696261177550,-0.36035156,0.1484375,-0.15234375,28.25,63.28125,196.28125,0.0,0.0,0.0
1696261177576,-2.0,-0.022460938,-0.8183594,18.125,149.21875,172.84375,0.0,0.0,0.0
1696261177636,-1.8603516,-1.0732422,0.6533203,18.65625,136.9375,118.40625,0.0,0.0,0.0
1696261177666,-1.0732422,-0.16210938,0.74609375,67.25,89.15625,101.96875,0.0,0.0,0.0
1696261177697,-0.48242188,-0.043945312,0.017578125,2.375,57.78125,75.59375,0.0,0.0,0.0
1696261177756,-0.13378906,-0.9785156,0.46875,-26.625,11.84375,31.0,0.0,0.0,0.0
1696261177785,-0.4482422,-0.29785156,0.39941406,24.53125,-58.0,-112.875,0.0,0.0,0.0
1696261177816,-0.9140625,0.21484375,-0.059570312,57.53125,-186.34375,-114.9375,0.0,0.0,0.0
1696261177877,-2.0,0.080078125,-0.18652344,165.21875,-174.34375,-121.59375,0.0,0.0,0.0
1696261177907,-2.0,0.6015625,-0.27539062,-7.9375,-167.25,-131.375,0.0,0.0,0.0
1696261177937,-2.0,-0.021484375,-0.05859375,-72.65625,-100.0,-199.34375,0.0,0.0,0.0
1696261177996,-1.3300781,-0.47558594,0.08203125,58.53125,-65.5,-136.0,-100.375,-0.125,-44.625
1696261178027,0.029296875,-0.63671875,0.21777344,87.5,1.875,-47.0,0.0,0.0,0.0
1696261178058,0.32128906,0.33789062,0.12011719,81.28125,44.40625,50.65625,0.0,0.0,0.0
1696261178117,0.2783203,0.703125,-0.20898438,22.28125,34.90625,121.9375,0.0,0.0,0.0
1696261178147,-0.37402344,0.053710938,-0.1328125,-10.75,-3.96875,41.90625,0.0,0.0,0.0
1696261178176,-0.31445312,-0.048828125,0.047851562,-284.375,-11.4375,-87.1875,0.0,0.0,0.0
1696261178236,-2.0,0.68359375,-0.7763672,-194.40625,-49.375,-39.5625,0.0,0.0,0.0
1696261178265,-1.5693359,-0.14550781,-0.6171875,-80.09375,18.53125,73.84375,0.0,0.0,0.0
1696261178296,-0.4658203,-0.27929688,-0.0703125,12.25,52.78125,203.34375,0.0,0.0,0.0
1696261178356,-2.0,-0.40039062,-0.5527344,-37.5,118.46875,178.09375,0.0,0.0,0.0
1696261178385,-1.5263672,-1.1787109,0.4140625,-17.84375,181.125,145.84375,0.0,0.0,0.0
1696261178417,-1.4960938,-0.53222656,0.63378906,70.84375,133.90625,114.5,0.0,0.0,0.0
1696261178477,-0.796875,-0.052734375,0.31640625,69.09375,76.78125,87.25,0.0,0.0,0.0
1696261178506,-0.36328125,-0.49316406,0.32617188,-2.40625,-19.53125,35.03125,-91.5,21.8125,-66.8125
1696261178537,-0.103515625,-1.0087891,0.31347656,-22.0,-46.875,-75.59375,0.0,0.0,0.0
1696261178597,-0.39453125,-0.013671875,0.36914062,55.78125,-128.78125,-113.25,0.0,0.0,0.0
1696261178626,-1.8544922,0.26953125,0.85546875,39.28125,-253.375,-154.625,0.0,0.0,0.0
1696261178657,-2.0,0.70996094,-0.30664062,132.3125,-164.1875,-122.21875,0.0,0.0,0.0
1696261178719,-2.0,0.29785156,-0.19824219,-37.25,-129.40625,-196.3125,0.0,0.0,0.0
1696261178746,-1.5488281,-0.84277344,0.28515625,3.28125,-74.09375,-137.59375,0.0,0.0,0.0
1696261178780,-0.22460938,-0.71191406,-0.0703125,136.78125,-8.6875,-83.5625,0.0,0.0,0.0
1696261178840,0.29882812,0.18261719,0.34570312,50.21875,80.90625,4.75,0.0,0.0,0.0
1696261178865,0.29296875,0.5605469,-0.3076172,-39.3125,84.15625,119.6875,0.0,0.0,0.0
1696261178896,-0.23242188,0.0625,0.13964844,48.09375,-21.6875,66.03125,0.0,0.0,0.0
1696261178957,-0.49902344,-0.00390625,0.29492188,-235.71875,-30.28125,-99.1875,0.0,0.0,0.0
1696261178986,0.13769531,0.86328125,1.5898438,-115.625,43.25,7.6875,-96.875,-1.0,-45.8125
1696261179016,-2.0,-1.8447266,-0.31933594,-194.09375,130.65625,24.8125,0.0,0.0,0.0
1696261179077,0.024414062,-0.24804688,0.10839844,81.96875,-40.46875,100.375,0.0,0.0,0.0
1696261179108,-1.5566406,0.5332031,-0.37695312,12.1875,104.78125,251.15625,0.0,0.0,0.0
1696261179135,-1.4492188,-0.9003906,-0.19726562,35.375,211.59375,165.875,0.0,0.0,0.0
1696261179197,-1.7988281,-0.6308594,0.5830078,38.0625,153.84375,117.15625,0.0,0.0,0.0
1696261179227,-1.1269531,0.23242188,0.65625,74.4375,100.75,95.75,0.0,0.0,0.0
1696261179255,-0.5625,-0.1640625,0.2919922,-4.84375,47.40625,82.3125,0.0,0.0,0.0
1696261179316,-0.08203125,-1.1953125,0.31347656,-44.5,-26.9375,13.03125,0.0,0.0,0.0
1696261179346,-0.46875,-0.06640625,0.5205078,45.34375,-82.84375,-117.21875,0.0,0.0,0.0
1696261179376,-1.1894531,0.33984375,0.24804688,52.84375,-233.59375,-123.125,0.0,0.0,0.0
1696261179436,-2.0,-0.49121094,-0.28125,186.21875,-199.65625,-113.375,0.0,0.0,0.0
1696261179465,-2.0,0.29785156,-0.16796875,-72.03125,-183.90625,-136.375,0.0,0.0,0.0
1696261179495,-2.0,-0.3544922,0.043945312,-86.5,-115.0625,-179.53125,-99.0,4.8125,-46.5625
1696261179557,-1.1083984,-0.5214844,0.055664062,70.1875,-68.1875,-126.96875,0.0,0.0,0.0
1696261179586,0.13671875,-0.35839844,0.17675781,110.53125,16.59375,-40.71875,0.0,0.0,0.0
1696261179616,0.6074219,0.3388672,0.033203125,45.15625,86.71875,69.125,0.0,0.0,0.0
1696261179680,0.25878906,0.37597656,-0.22265625,-10.6875,41.0625,135.0,0.0,0.0,0.0
1696261179706,-0.8076172,-0.17285156,0.3828125,-92.1875,-4.21875,-19.3125,0.0,0.0,0.0
1696261179735,0.12109375,0.4609375,-0.8388672,-263.0,11.65625,-88.875,0.0,0.0,0.0
1696261179828,-2.0,-1.8105469,-1.2148438,-200.34375,-25.40625,14.8125,0.0,0.0,0.0
1696261179831,-0.50683594,0.15625,-0.22363281,5.84375,-18.6875,80.71875,0.0,0.0,0.0
1696261179855,-0.4453125,0.083984375,-0.234375,-12.9375,109.65625,208.28125,0.0,0.0,0.0
1696261179915,-2.0,-0.14257812,-0.7558594,-37.375,123.46875,151.03125,0.0,0.0,0.0
1696261179946,-1.4638672,-1.1816406,0.41503906,-41.8125,165.5,115.53125,0.0,0.0,0.0
1696261180006,-1.3681641,-0.18945312,0.6621094,50.46875,126.03125,118.9375,-97.0625,15.1875,-59.75
1696261180037,-0.9902344,-0.16601562,0.3330078,33.75,70.125,98.0625,0.0,0.0,0.0
1696261180067,-0.4580078,-0.6933594,0.24707031,-44.3125,-13.125,26.46875,0.0,0.0,0.0
1696261180096,-0.11230469,-0.92871094,0.32617188,-0.4375,-44.9375,-89.96875,0.0,0.0,0.0
1696261180157,-0.5371094,-0.030273438,0.0078125,75.90625,-156.5625,-114.59375,0.0,0.0,0.0
1696261180192,-2.0,-0.33007812,0.12207031,107.09375,-222.3125,-197.15625,0.0,0.0,0.0
1696261180215,-2.0,1.2548828,-0.42382812,71.34375,-173.53125,-115.4375,0.0,0.0,0.0
1696261180276,-2.0,0.0859375,-0.078125,-32.125,-136.5,-180.875,0.0,0.0,0.0
1696261180310,-1.5166016,-0.77734375,0.24609375,22.5,-82.09375,-146.6875,0.0,0.0,0.0
1696261180337,-0.05078125,-0.7050781,0.16992188,110.28125,-9.71875,-77.09375,0.0,0.0,0.0
1696261180399,0.16992188,0.03515625,0.46484375,35.6875,84.28125,48.6875,0.0,0.0,0.0
1696261180426,0.13671875,0.6875,-0.27539062,-36.21875,42.09375,145.125,0.0,0.0,0.0
1696261180457,-0.13574219,0.19628906,-0.234375,28.78125,-3.5,52.21875,0.0,0.0,0.0
1696261180516,-0.1015625,-0.13671875,0.0078125,-213.15625,1.875,-65.1875,-98.5625,0.625,-46.125
1696261180546,0.5,0.9296875,0.72753906,-120.0,45.75,62.96875,0.0,0.0,0.0
1696261180576,-2.0,-1.0019531,0.28710938,-226.5,113.9375,-0.09375,0.0,0.0,0.0
1696261180638,0.55371094,-0.25878906,0.26464844,15.4375,-35.96875,109.53125,0.0,0.0,0.0
1696261180666,-1.3203125,-0.07910156,-0.14550781,-3.375,106.0,229.84375,0.0,0.0,0.0
1696261180696,-1.359375,-0.26660156,-0.0546875,96.25,183.875,163.5,0.0,0.0,0.0
1696261180760,-1.6044922,-0.3779297,0.60253906,43.375,136.9375,108.625,0.0,0.0,0.0
1696261180785,-0.90527344,-0.09277344,0.5527344,17.8125,91.71875,97.34375,0.0,0.0,0.0
1696261180816,-0.47851562,-0.43554688,0.3779297,-33.28125,18.65625,64.0625,0.0,0.0,0.0
1696261180876,-0.099609375,-1.2011719,0.05078125,-23.21875,-37.4375,-20.28125,0.0,0.0,0.0
1696261180911,-0.2529297,0.0087890625,0.4345703,49.96875,-84.59375,-97.90625,0.0,0.0,0.0
1696261180937,-1.0039062,0.29882812,0.09472656,44.0625,-209.1875,-118.96875,0.0,0.0,0.0
1696261180997,-2.0,0.06933594,-0.2421875,163.1875,-168.40625,-120.25,-100.1875,11.3125,-56.1875
1696261181027,-2.0,0.28222656,-0.15332031,-81.96875,-131.1875,-143.21875,0.0,0.0,0.0
1696261181055,-2.0,-0.75683594,0.115234375,-72.15625,-66.71875,-211.25,0.0,0.0,0.0
1696261181118,-0.94140625,-0.7871094,0.09765625,94.90625,-50.25,-131.4375,0.0,0.0,0.0
1696261181145,-0.27734375,-0.29296875,0.19628906,117.34375,13.96875,-24.90625,0.0,0.0,0.0
1696261181177,0.44433594,0.55371094,-0.072265625,92.28125,54.90625,49.125,0.0,0.0,0.0
1696261181237,0.328125,0.57714844,-0.31835938,38.6875,68.96875,117.78125,0.0,0.0,0.0
1696261181267,-0.49609375,-0.12792969,0.2841797,-63.78125,-9.15625,14.25,0.0,0.0,0.0
1696261181296,-0.09863281,0.08300781,-0.78515625,-294.4375,4.5625,-93.84375,0.0,0.0,0.0
1696261181359,-1.3222656,0.22460938,-0.74609375,-131.375,-61.21875,-40.78125,0.0,0.0,0.0
1696261181403,-1.1181641,-0.06738281,-0.46289062,-6.90625,7.125,43.4375,0.0,0.0,0.0
1696261181415,-0.2529297,-0.0146484375,-0.125,18.46875,65.84375,180.65625,0.0,0.0,0.0
1696261181477,-2.0,0.42773438,-0.3701172,-80.21875,104.84375,205.0,0.0,0.0,0.0
1696261181512,-1.7636719,-1.4882812,0.25,-48.03125,160.21875,148.65625,-101.375,11.5625,-56.3125
1696261181537,-1.2861328,-0.3642578,0.57910156,52.34375,121.03125,124.25,0.0,0.0,0.0
1696261181599,-0.7949219,-0.31152344,0.34570312,37.21875,83.375,94.21875,0.0,0.0,0.0
1696261181628,-0.44921875,-0.46484375,0.3701172,-13.875,29.15625,49.78125,0.0,0.0,0.0
1696261181656,0.18164062,-1.2695312,0.09765625,2.0,-4.15625,-33.84375,0.0,0.0,0.0
1696261181718,-0.45117188,0.076171875,0.45117188,61.4375,-86.375,-114.46875,0.0,0.0,0.0
1696261181747,-1.4052734,0.34375,0.12011719,59.5,-232.875,-125.6875,0.0,0.0,0.0
1696261181777,-1.7646484,-0.28808594,-0.23925781,140.25,-156.875,-119.46875,0.0,0.0,0.0
1696261181838,-2.0,-0.32714844,-0.29003906,-64.53125,-126.78125,-190.1875,0.0,0.0,0.0
1696261181865,-1.8925781,-0.3203125,0.13085938,-27.90625,-98.40625,-158.09375,0.0,0.0,0.0
1696261181897,-0.8154297,-0.47558594,0.020507812,98.0,-50.1875,-92.65625,0.0,0.0,0.0
1696261181962,0.005859375,-0.08203125,0.21191406,108.5,51.1875,-27.25,0.0,0.0,0.0
1696261181989,0.7294922,0.65625,-0.080078125,43.125,82.8125,81.84375,-94.8125,-3.875,-40.6875
1696261182015,0.20214844,0.34960938,0.0087890625,-3.25,21.03125,127.125,0.0,0.0,0.0
1696261182106,-0.70996094,-0.35839844,0.43945312,-120.5625,-48.90625,-33.78125,0.0,0.0,0.0
1696261182112,-0.06640625,0.4580078,-0.8046875,-263.375,-5.03125,-64.65625,0.0,0.0,0.0
1696261182137,-2.0,-0.75390625,-0.24902344,-144.71875,32.21875,13.59375,0.0,0.0,0.0
1696261182196,-0.6904297,-0.07910156,-0.19042969,7.375,0.0,99.53125,0.0,0.0,0.0
1696261182226,-0.9375,0.09277344,-0.2763672,5.71875,63.53125,234.0625,0.0,0.0,0.0
1696261182255,-2.0,-0.4638672,-0.5566406,27.625,133.21875,139.03125,0.0,0.0,0.0
1696261182317,-1.6787109,-1.0410156,0.4892578,-45.59375,168.8125,122.96875,0.0,0.0,0.0
1696261182345,-1.2685547,-0.4794922,0.6875,49.5625,121.5,118.21875,0.0,0.0,0.0
1696261182377,-0.70996094,-0.28710938,0.21484375,49.5625,60.28125,83.125,0.0,0.0,0.0
1696261182437,-0.28515625,-0.6269531,0.29003906,27.15625,11.15625,38.8125,0.0,0.0,0.0
1696261182466,0.0107421875,-0.8691406,0.36035156,39.34375,-18.25,-77.15625,0.0,0.0,0.0
1696261182528,-0.3935547,0.21191406,0.32128906,66.5625,-137.40625,-110.84375,-92.125,19.0625,-66.625
1696261182559,-1.8828125,0.24902344,0.9736328,93.90625,-250.5,-141.8125,0.0,0.0,0.0
1696261182585,-2.0,0.5126953,-0.043945312,59.625,-193.375,-101.34375,0.0,0.0,0.0
1696261182614,-2.0,-0.25390625,-0.0126953125,-114.5,-122.8125,-179.875,0.0,0.0,0.0
1696261182679,-1.6767578,-0.6582031,0.17382812,1.8125,-85.71875,-158.84375,0.0,0.0,0.0
1696261182707,-0.43945312,-0.6074219,0.0625,93.5,-53.0625,-105.90625,0.0,0.0,0.0
1696261182736,-0.057617188,-0.107421875,0.28808594,78.1875,45.15625,-15.28125,0.0,0.0,0.0
1696261182802,0.49804688,0.26171875,-0.140625,20.875,74.625,79.875,0.0,0.0,0.0
1696261182829,0.068359375,0.1875,-0.115234375,5.53125,22.21875,104.90625,0.0,0.0,0.0
1696261182857,-0.5498047,-0.14257812,0.50683594,-97.3125,-18.25,-39.375,0.0,0.0,0.0
1696261182921,0.15527344,0.890625,0.13476562,-209.65625,6.875,-32.0625,0.0,0.0,0.0
1696261182946,-2.0,-0.6464844,0.86328125,-201.125,126.40625,43.6875,0.0,0.0,0.0
1696261183006,-0.05859375,-0.048828125,-0.24511719,-21.4375,-12.21875,121.75,-99.625,-1.9375,-46.6875
1696261183037,-1.0332031,0.01171875,-0.049804688,-38.34375,82.3125,214.59375,0.0,0.0,0.0
1696261183066,-2.0,-0.9482422,-0.4921875,-5.125,151.1875,101.59375,0.0,0.0,0.0
1696261183096,-1.5595703,-1.1269531,0.24707031,-12.34375,160.5625,133.71875,0.0,0.0,0.0
1696261183156,-1.1962891,-0.2998047,0.6357422,64.3125,121.6875,124.5,0.0,0.0,0.0
1696261183186,-0.7558594,-0.22363281,0.28222656,48.3125,75.375,92.5625,0.0,0.0,0.0
1696261183214,-0.34277344,-0.55859375,0.24414062,-7.15625,-3.78125,39.28125,0.0,0.0,0.0
1696261183308,-9.765625E-4,-1.078125,0.28320312,-1.0,-31.6875,-73.0,0.0,0.0,0.0
1696261183313,-0.43359375,0.038085938,0.0146484375,64.5,-131.90625,-106.34375,0.0,0.0,0.0
1696261183338,-2.0,-0.15917969,0.62890625,113.875,-238.46875,-171.46875,0.0,0.0,0.0
1696261183398,-2.0,0.76464844,-0.15136719,85.25,-167.5625,-122.09375,0.0,0.0,0.0
1696261183427,-2.0,-0.10546875,-0.13476562,-61.90625,-109.03125,-204.65625,0.0,0.0,0.0
1696261183456,-1.6982422,-0.85058594,0.171875,13.28125,-85.9375,-139.1875,0.0,0.0,0.0
1696261183516,-0.46972656,-0.45507812,0.0859375,107.96875,-34.75,-75.21875,-100.1875,-0.6875,-41.3125
1696261183547,0.08105469,0.11621094,0.27246094,69.625,55.53125,-1.53125,0.0,0.0,0.0
1696261183575,0.57128906,0.59472656,-0.30664062,15.90625,85.0,100.1875,0.0,0.0,0.0
1696261183637,0.0146484375,0.13769531,0.12792969,28.1875,13.53125,95.625,0.0,0.0,0.0
1696261183666,-0.7519531,-0.2998047,0.9267578,-214.0625,-57.5,-93.59375,0.0,0.0,0.0
1696261183699,0.47753906,1.0634766,0.57910156,-177.0,50.28125,-3.6875,0.0,0.0,0.0
1696261183755,-2.0,-0.86328125,0.9199219,-193.625,163.0625,106.96875,0.0,0.0,0.0
1696261183786,-0.1015625,-0.22949219,0.17871094,56.625,-18.25,72.125,0.0,0.0,0.0
1696261183815,-0.9248047,0.32910156,-0.17871094,-2.75,72.1875,212.1875,0.0,0.0,0.0
1696261183876,-2.0,-0.7373047,-0.5683594,24.46875,148.5,125.84375,0.0,0.0,0.0
1696261183906,-1.5449219,-1.0830078,0.42089844,-3.0,163.1875,119.1875,0.0,0.0,0.0
1696261183936,-1.1455078,-0.19335938,0.6669922,66.875,114.625,113.03125,0.0,0.0,0.0
1696261183999,-0.7890625,-0.015625,0.19238281,38.375,59.375,90.8125,-96.625,21.8125,-62.3125
1696261184026,-0.40039062,-0.5654297,0.3125,-16.84375,3.21875,52.40625,0.0,0.0,0.0
1696261184058,-0.046875,-1.1523438,0.2109375,-12.21875,-33.03125,-71.375,0.0,0.0,0.0
1696261184117,-0.39746094,0.15917969,0.13085938,43.875,-149.71875,-110.4375,0.0,0.0,0.0
1696261184147,-2.0,0.059570312,0.89453125,96.78125,-246.03125,-151.6875,0.0,0.0,0.0
1696261184175,-2.0,0.6513672,-0.044921875,81.28125,-183.375,-114.53125,0.0,0.0,0.0
1696261184241,-2.0,-0.13378906,-0.15332031,-100.59375,-107.0625,-223.78125,0.0,0.0,0.0
1696261184266,-1.6982422,-0.98828125,0.24023438,8.84375,-87.46875,-162.1875,0.0,0.0,0.0
1696261184297,-0.4423828,-0.59375,0.021484375,138.34375,-51.71875,-85.28125,0.0,0.0,0.0
1696261184387,0.02734375,0.053710938,0.32714844,129.3125,45.21875,-9.0,0.0,0.0,0.0
1696261184392,0.5751953,0.4716797,-0.19433594,45.03125,84.71875,90.375,0.0,0.0,0.0
1696261184415,-0.06542969,0.14453125,-0.07421875,14.5625,14.28125,107.71875,0.0,0.0,0.0
1696261184476,-0.44921875,-0.22949219,0.54003906,-185.9375,-45.0,-76.125,0.0,0.0,0.0
1696261184510,0.24902344,0.703125,1.5361328,-169.03125,67.0625,-7.59375,-98.25,0.3125,-42.375
1696261184535,-2.0,-1.3251953,0.47753906,-166.53125,117.71875,70.40625,0.0,0.0,0.0
1696261184600,0.018554688,-0.06640625,-0.041992188,58.15625,-6.46875,118.34375,0.0,0.0,0.0
1696261184660,-0.9511719,0.20214844,-0.13183594,-10.21875,77.625,213.4375,0.0,0.0,0.0
1696261184664,-2.0,-0.7265625,-0.49121094,5.96875,168.8125,129.0,0.0,0.0,0.0
1696261184719,-1.6923828,-0.8183594,0.4111328,7.8125,176.0625,130.15625,0.0,0.0,0.0
1696261184748,-1.2421875,-0.14746094,0.7011719,66.625,112.40625,99.59375,0.0,0.0,0.0
1696261184775,-0.7578125,-0.15234375,0.25585938,39.78125,65.96875,75.46875,0.0,0.0,0.0
1696261184838,-0.17675781,-0.8066406,0.3515625,-8.0,6.8125,28.71875,0.0,0.0,0.0
1696261184866,-0.3310547,-0.5283203,0.38085938,9.6875,-51.09375,-104.21875,0.0,0.0,0.0
1696261184897,-1.0927734,0.09765625,0.08203125,59.5,-190.8125,-121.71875,0.0,0.0,0.0
1696261184959,-2.0,0.48242188,-0.5058594,234.5,-206.4375,-127.75,0.0,0.0,0.0
1696261184992,-2.0,0.54785156,-0.20605469,-47.25,-178.28125,-120.3125,-101.125,8.5625,-52.125
1696261185016,-2.0,-0.13378906,0.053710938,-69.40625,-117.25,-200.8125,0.0,0.0,0.0
1696261185078,-1.4414062,-0.4453125,0.11230469,49.5625,-112.25,-145.09375,0.0,0.0,0.0
1696261185113,-0.07128906,-0.47851562,0.0390625,102.84375,-20.09375,-62.21875,0.0,0.0,0.0
1696261185138,0.45898438,0.2998047,0.2998047,103.5,58.03125,19.28125,0.0,0.0,0.0
1696261185197,0.50390625,0.5986328,-0.42773438,-20.875,114.375,139.5625,0.0,0.0,0.0
1696261185228,-0.40722656,-0.05078125,0.125,6.53125,-11.4375,76.65625,0.0,0.0,0.0
1696261185257,-0.7285156,-0.09765625,0.087890625,-303.71875,-11.0625,-103.96875,0.0,0.0,0.0
1696261185317,-2.0,-0.41015625,0.109375,-138.4375,0.0,-19.1875,0.0,0.0,0.0
1696261185346,-1.1484375,0.4501953,-0.5673828,-84.0,5.78125,110.34375,0.0,0.0,0.0
1696261185377,-0.50390625,-0.43554688,-0.18945312,-13.8125,90.625,202.3125,0.0,0.0,0.0
1696261185438,-2.0,-0.39453125,-0.6044922,-48.78125,125.65625,131.9375,0.0,0.0,0.0
1696261185466,-1.3203125,-0.5957031,0.25683594,-15.21875,152.6875,145.4375,0.0,0.0,0.0
1696261185529,-1.3691406,-0.34472656,0.45507812,71.28125,146.90625,123.75,-97.9375,15.3125,-56.75
1696261185559,-1.0605469,-0.27539062,0.56933594,50.9375,99.09375,108.4375,0.0,0.0,0.0
1696261185586,-0.48339844,-0.3720703,0.3671875,7.375,26.34375,51.5625,0.0,0.0,0.0
1696261185619,-0.022460938,-0.9189453,0.19824219,-19.84375,-21.0,-31.8125,0.0,0.0,0.0
1696261185677,-0.48046875,-0.16894531,-0.06347656,28.5,-97.375,-107.9375,0.0,0.0,0.0
1696261185707,-2.0,-0.3984375,0.7548828,79.6875,-201.1875,-198.375,0.0,0.0,0.0
1696261185736,-2.0,0.95214844,-0.4404297,63.84375,-171.9375,-120.0625,0.0,0.0,0.0
1696261185799,-2.0,0.08203125,-0.19628906,-95.96875,-158.46875,-169.875,0.0,0.0,0.0
1696261185828,-1.7294922,-0.6269531,0.1484375,-43.34375,-122.09375,-154.875,0.0,0.0,0.0
1696261185855,-0.71191406,-0.7451172,0.07421875,53.75,-68.0625,-104.21875,0.0,0.0,0.0
1696261185918,-0.11230469,-0.35546875,0.22167969,103.5625,-7.21875,-22.78125,0.0,0.0,0.0
1696261185947,0.6513672,0.20507812,-0.045898438,121.15625,35.75,54.25,0.0,0.0,0.0
1696261186007,0.087890625,-0.08300781,-0.28710938,2.96875,48.3125,98.0,-95.6875,-2.5,-35.625
1696261186037,-0.6201172,-0.37304688,0.5371094,-220.71875,8.53125,-66.0,0.0,0.0,0.0
1696261186068,-0.46484375,0.4892578,1.7548828,-79.28125,5.59375,-23.8125,0.0,0.0,0.0
1696261186096,-2.0,-0.26757812,-0.34472656,-83.9375,28.4375,73.46875,0.0,0.0,0.0
1696261186155,-0.02734375,0.043945312,-0.12011719,-8.4375,26.84375,140.53125,0.0,0.0,0.0
1696261186186,-1.2871094,-0.11621094,-0.0546875,-35.09375,72.125,202.1875,0.0,0.0,0.0
1696261186278,-2.0,-1.0683594,-0.2998047,-34.9375,148.3125,122.59375,0.0,0.0,0.0
1696261186282,-1.453125,-0.89453125,0.20605469,28.75,167.15625,135.25,0.0,0.0,0.0
1696261186307,-1.2021484,-0.24511719,0.69433594,70.3125,138.90625,122.40625,0.0,0.0,0.0
1696261186336,-0.84277344,-0.125,0.3408203,46.5,78.40625,80.5625,0.0,0.0,0.0
1696261186399,-0.41796875,-0.6640625,0.34375,-13.375,-5.75,27.15625,0.0,0.0,0.0
1696261186426,-0.19824219,-0.8261719,0.32128906,-16.375,-45.59375,-87.65625,0.0,0.0,0.0
1696261186456,-0.55371094,-0.052734375,0.03125,68.28125,-137.84375,-113.65625,0.0,0.0,0.0
1696261186520,-2.0,-0.09472656,0.11328125,80.90625,-178.90625,-189.40625,-98.5625,15.9375,-61.5625
1696261186546,-1.9541016,1.0253906,-0.4638672,61.625,-168.71875,-126.65625,0.0,0.0,0.0
1696261186576,-2.0,0.125,0.015625,-43.53125,-134.65625,-187.09375,0.0,0.0,0.0
1696261186669,-1.4814453,-0.63378906,0.09765625,29.03125,-100.46875,-154.0625,0.0,0.0,0.0
1696261186676,-0.4716797,-0.54589844,0.07128906,108.4375,-34.75,-91.75,0.0,0.0,0.0
1696261186696,0.013671875,0.030273438,0.29882812,106.5,50.65625,-9.28125,0.0,0.0,0.0
1696261186760,0.4091797,0.34960938,-0.23632812,20.75,72.25,98.0,0.0,0.0,0.0
1696261186787,-0.20019531,0.099609375,0.12011719,2.75,13.65625,93.65625,0.0,0.0,0.0
1696261186816,-0.45507812,-0.16015625,0.3408203,-235.71875,3.78125,-72.21875,0.0,0.0,0.0
1696261186878,-0.22070312,0.328125,1.3125,-98.9375,19.59375,4.625,0.0,0.0,0.0
1696261186907,-1.9785156,-0.43066406,-0.8652344,-73.625,19.46875,6.34375,0.0,0.0,0.0
1696261186937,0.12597656,0.072265625,-0.046875,33.9375,10.78125,146.78125,0.0,0.0,0.0
1696261186996,-1.7851562,0.4501953,-0.171875,-60.3125,83.0625,224.78125,-102.0,3.625,-49.6875
1696261187024,-1.5625,-1.2705078,-0.234375,15.0,166.625,136.40625,0.0,0.0,0.0
1696261187057,-1.4804688,-0.8886719,0.30273438,-0.5625,149.84375,126.3125,0.0,0.0,0.0
1696261187117,-1.2138672,-0.20507812,0.6972656,36.78125,112.53125,105.625,0.0,0.0,0.0
1696261187150,-0.79589844,-0.36523438,0.26171875,4.4375,62.78125,84.40625,0.0,0.0,0.0
1696261187176,-0.30078125,-0.78027344,0.26171875,-6.0,11.40625,44.90625,0.0,0.0,0.0
1696261187237,-0.16308594,-0.7402344,0.32617188,31.0,-16.375,-63.90625,0.0,0.0,0.0
1696261187267,-0.4296875,0.06933594,-0.0029296875,82.8125,-128.125,-100.1875,0.0,0.0,0.0
1696261187329,-2.0,-0.31347656,-0.001953125,93.875,-201.71875,-171.46875,0.0,0.0,0.0
1696261187363,-1.5751953,1.0839844,-0.33496094,81.40625,-156.5,-112.25,0.0,0.0,0.0
1696261187387,-2.0,0.25976562,-0.08984375,-1.46875,-130.125,-194.53125,0.0,0.0,0.0
1696261187416,-1.5341797,-1.0908203,0.0859375,5.59375,-101.5625,-138.875,0.0,0.0,0.0
1696261187478,-0.5107422,-0.48632812,0.033203125,97.40625,-35.65625,-88.75,0.0,0.0,0.0
1696261187506,-0.087890625,0.12890625,0.24316406,103.375,51.125,-23.9375,-99.4375,-2.5,-37.6875
1696261187538,0.33496094,0.37402344,-0.07714844,37.84375,78.53125,86.40625,0.0,0.0,0.0
1696261187601,-0.13574219,0.19726562,0.016601562,14.46875,1.34375,101.59375,0.0,0.0,0.0
1696261187627,-0.5488281,-0.13183594,0.5839844,-195.6875,-35.0,-43.96875,0.0,0.0,0.0
1696261187655,-0.5800781,0.34570312,0.8515625,-157.25,-35.59375,-26.125,0.0,0.0,0.0
1696261187716,-1.8232422,-0.18847656,-0.51464844,-156.75,3.59375,76.8125,0.0,0.0,0.0
1696261187750,-0.515625,-0.19726562,-0.171875,-22.53125,37.9375,161.125,0.0,0.0,0.0
1696261187778,-1.9257812,-0.01171875,-0.25097656,-16.4375,73.53125,189.8125,0.0,0.0,0.0
1696261187838,-1.5390625,-0.85253906,-0.024414062,-15.625,138.21875,143.78125,0.0,0.0,0.0
1696261187867,-1.4941406,-0.4423828,0.47265625,56.9375,161.3125,117.15625,0.0,0.0,0.0
1696261187931,-1.0966797,-0.16992188,0.6904297,49.5,104.1875,89.8125,0.0,0.0,0.0
1696261187955,-0.64941406,-0.08203125,0.31640625,16.34375,58.59375,64.125,0.0,0.0,0.0
1696261187990,-0.14160156,-0.8154297,0.27734375,-24.90625,-9.15625,22.375,-92.6875,22.5625,-64.125
1696261188047,-0.25,-0.5761719,0.12402344,5.40625,-58.4375,-94.5625,0.0,0.0,0.0
1696261188078,-1.0253906,0.049804688,0.0126953125,52.59375,-162.125,-114.59375,0.0,0.0,0.0
1696261188107,-2.0,0.5390625,-0.3935547,203.65625,-179.9375,-154.0,0.0,0.0,0.0
1696261188168,-2.0,0.62402344,-0.24414062,-23.03125,-159.0625,-130.875,0.0,0.0,0.0
1696261188196,-2.0,-0.05859375,0.041015625,-62.5625,-111.65625,-197.59375,0.0,0.0,0.0
1696261188227,-1.4775391,-0.5205078,0.08300781,66.15625,-91.125,-138.1875,0.0,0.0,0.0
1696261188286,-0.15527344,-0.53125,0.13085938,93.90625,-23.375,-77.09375,0.0,0.0,0.0
1696261188320,0.296875,0.11230469,0.41503906,104.25,56.09375,15.4375,0.0,0.0,0.0
1696261188350,0.48339844,0.52246094,-0.24902344,1.40625,76.90625,127.71875,0.0,0.0,0.0
1696261188409,-0.49609375,-0.009765625,0.0,3.96875,-3.375,67.0,0.0,0.0,0.0
1696261188435,-0.5048828,-0.1953125,0.0625,-237.4375,-8.75,-104.03125,0.0,0.0,0.0
1696261188469,-1.1787109,0.65625,1.5332031,-59.46875,-99.5625,-7.09375,0.0,0.0,0.0
1696261188527,-1.0605469,0.033203125,-1.0712891,-51.15625,-15.21875,8.28125,-100.625,-3.125,-46.125
1696261188556,-0.18164062,0.022460938,-0.001953125,7.375,44.25,160.75,0.0,0.0,0.0
1696261188587,-2.0,0.5605469,-0.06347656,-23.9375,49.375,197.375,0.0,0.0,0.0
1696261188645,-1.1621094,-0.87597656,0.12011719,-53.34375,128.84375,144.75,0.0,0.0,0.0
1696261188676,-1.5410156,-0.4951172,0.2626953,28.0625,161.1875,141.03125,0.0,0.0,0.0
1696261188706,-1.2324219,-0.31640625,0.70214844,28.0,122.5,113.75,0.0,0.0,0.0
1696261188767,-0.7001953,-0.37890625,0.25585938,1.8125,55.15625,83.96875,0.0,0.0,0.0
1696261188797,-0.2705078,-0.75390625,0.31640625,1.9375,-1.125,23.0,0.0,0.0,0.0
1696261188828,-0.2998047,-0.44433594,0.203125,26.28125,-54.75,-85.59375,0.0,0.0,0.0
1696261188888,-0.87597656,0.05078125,0.049804688,65.25,-158.875,-109.28125,0.0,0.0,0.0
1696261188947,-2.0,0.6376953,-0.3466797,188.71875,-177.6875,-148.5625,0.0,0.0,0.0
1696261188951,-2.0,0.49121094,-0.21777344,-21.625,-145.875,-123.5625,0.0,0.0,0.0
1696261189006,-2.0,-0.13378906,0.03515625,-50.96875,-113.15625,-177.6875,-102.75,4.8125,-51.5
1696261189036,-1.5136719,-0.65527344,0.12011719,61.625,-77.65625,-120.3125,0.0,0.0,0.0
1696261189066,-0.2861328,-0.5097656,0.1328125,95.3125,-11.3125,-67.65625,0.0,0.0,0.0
1696261189127,0.19921875,0.27441406,0.32714844,90.5625,55.15625,8.40625,0.0,0.0,0.0
1696261189158,0.24511719,0.5175781,-0.2578125,16.65625,61.03125,113.4375,0.0,0.0,0.0
1696261189187,-0.1875,-0.00390625,0.109375,26.28125,-14.59375,61.03125,0.0,0.0,0.0
1696261189247,-0.21679688,-0.059570312,-0.0234375,-258.375,-19.0625,-78.15625,0.0,0.0,0.0
1696261189278,-0.2841797,0.13964844,1.1748047,-84.78125,13.71875,8.28125,0.0,0.0,0.0
1696261189305,-1.9990234,-0.71972656,-0.7548828,-64.96875,44.90625,-26.4375,0.0,0.0,0.0
1696261189367,-0.072265625,0.024414062,0.10546875,45.65625,-6.46875,119.1875,0.0,0.0,0.0
1696261189397,-1.7910156,0.7548828,-0.26660156,-31.09375,86.34375,227.40625,0.0,0.0,0.0
1696261189426,-1.5048828,-1.0693359,-0.20703125,2.25,163.625,143.84375,0.0,0.0,0.0
1696261189485,-1.671875,-0.68066406,0.44921875,-6.375,141.15625,125.65625,0.0,0.0,0.0
1696261189519,-1.0673828,-0.24511719,0.71972656,37.34375,102.84375,101.78125,-99.0,17.5625,-61.6875
1696261189548,-0.71972656,-0.2939453,0.1953125,11.34375,46.8125,77.9375,0.0,0.0,0.0
1696261189609,-0.265625,-0.8408203,0.26660156,-7.09375,-11.1875,25.0,0.0,0.0,0.0
1696261189636,-0.21484375,-0.43652344,0.33203125,39.90625,-41.28125,-86.0625,0.0,0.0,0.0
1696261189669,-0.8408203,0.26464844,-0.20019531,37.9375,-185.9375,-101.9375,0.0,0.0,0.0
1696261189729,-2.0,0.18847656,-0.44335938,191.8125,-161.875,-130.5625,0.0,0.0,0.0
1696261189756,-1.9248047,0.6386719,-0.11816406,-21.875,-166.9375,-121.59375,0.0,0.0,0.0
1696261189788,-2.0,-0.1328125,-9.765625E-4,-107.875,-107.5,-171.09375,0.0,0.0,0.0
1696261189846,-1.5224609,-0.5332031,0.056640625,30.6875,-80.46875,-121.46875,0.0,0.0,0.0
1696261189879,-0.3642578,-0.3330078,0.059570312,96.0625,-13.125,-72.90625,0.0,0.0,0.0
1696261189905,0.13085938,0.15136719,0.33496094,124.125,47.15625,-16.8125,0.0,0.0,0.0
1696261189968,0.359375,0.21289062,-0.18261719,48.6875,62.78125,88.59375,0.0,0.0,0.0
1696261189995,-0.14648438,-0.12207031,0.13574219,-24.96875,-14.84375,56.4375,-97.8125,-2.375,-44.3125
1696261190024,-0.111328125,0.21875,-0.05078125,-214.6875,-9.96875,-66.0,0.0,0.0,0.0
1696261190090,-1.8417969,0.7001953,-0.9638672,-160.71875,-84.25,-71.0625,0.0,0.0,0.0
1696261190116,-1.2392578,-0.3154297,-0.44433594,-63.0,-5.375,56.625,0.0,0.0,0.0
1696261190146,-0.31835938,0.107421875,-0.0107421875,16.21875,40.40625,192.1875,0.0,0.0,0.0
1696261190206,-2.0,0.71777344,-0.22363281,-47.75,90.6875,186.375,0.0,0.0,0.0
1696261190236,-1.2714844,-1.0117188,0.099609375,-81.5625,153.84375,118.34375,0.0,0.0,0.0
1696261190266,-1.3671875,-0.49121094,0.40039062,48.9375,156.1875,116.6875,0.0,0.0,0.0
1696261190326,-1.078125,-0.2626953,0.6298828,52.34375,107.34375,95.6875,0.0,0.0,0.0
1696261190356,-0.6611328,-0.28808594,0.3720703,19.09375,41.3125,57.71875,0.0,0.0,0.0
1696261190385,-0.10839844,-0.7548828,0.17382812,-24.78125,-19.375,-0.5,0.0,0.0,0.0
1696261190446,-0.35058594,-0.40429688,0.30566406,8.21875,-68.1875,-87.59375,0.0,0.0,0.0
1696261190483,-1.2695312,0.047851562,0.47265625,40.625,-177.3125,-120.625,0.0,0.0,0.0
1696261190506,-1.9287109,0.33007812,-0.40429688,192.90625,-149.71875,-134.53125,-101.25,13.25,-58.875
1696261190566,-2.0,0.19628906,-0.26757812,-58.65625,-132.6875,-145.40625,0.0,0.0,0.0
1696261190596,-1.8720703,-0.5107422,0.24414062,-39.375,-87.90625,-158.28125,0.0,0.0,0.0
1696261190625,-1.1552734,-0.61035156,0.18261719,71.8125,-72.15625,-104.8125,0.0,0.0,0.0
1696261190687,-0.20800781,-0.24609375,0.12402344,103.0625,2.96875,-45.90625,0.0,0.0,0.0
1696261190717,0.29101562,0.32910156,0.12988281,101.5,44.0625,25.3125,0.0,0.0,0.0
1696261190747,0.28515625,0.54003906,-0.27929688,11.59375,59.5,104.90625,0.0,0.0,0.0
1696261190807,-0.3857422,-0.38867188,0.28027344,-51.28125,-27.125,19.75,0.0,0.0,0.0
1696261190836,0.021484375,0.4345703,-0.4892578,-211.3125,65.34375,-39.5,0.0,0.0,0.0
1696261190867,-2.0,0.25976562,-1.0439453,-207.09375,2.90625,-0.5625,0.0,0.0,0.0
1696261190928,-0.48828125,0.078125,-0.22363281,19.59375,-22.40625,26.71875,0.0,0.0,0.0
1696261190957,-0.3857422,-0.053710938,-0.013671875,-1.15625,45.34375,170.03125,0.0,0.0,0.0
1696261190985,-2.0,0.60546875,-0.32714844,-51.65625,96.3125,178.09375,-103.625,4.5625,-51.0625
1696261191060,-1.2226562,-0.88378906,0.099609375,-67.6875,140.4375,112.09375,0.0,0.0,0.0
1696261191077,-1.5888672,-0.5761719,0.29296875,11.21875,140.1875,135.96875,0.0,0.0,0.0
1696261191106,-1.25,-0.2783203,0.60253906,15.375,109.90625,107.40625,0.0,0.0,0.0
1696261191167,-0.7519531,-0.54785156,0.42773438,-11.5,29.96875,69.25,0.0,0.0,0.0
1696261191225,-0.18554688,-0.86621094,0.18652344,-16.78125,-25.09375,-1.46875,0.0,0.0,0.0
1696261191228,-0.35839844,-0.3779297,0.20898438,31.0,-75.34375,-96.625,0.0,0.0,0.0
1696261191287,-1.4775391,-0.1015625,0.6894531,71.40625,-182.4375,-139.46875,0.0,0.0,0.0
1696261191318,-1.8681641,0.3232422,-0.3564453,201.65625,-150.65625,-131.4375,0.0,0.0,0.0
1696261191346,-2.0,0.1015625,-0.22070312,-50.3125,-127.6875,-142.15625,0.0,0.0,0.0
1696261191409,-1.9296875,-0.21679688,0.08105469,-32.65625,-102.96875,-163.71875,0.0,0.0,0.0
1696261191435,-1.1484375,-0.5253906,0.09472656,59.0,-70.25,-99.5,0.0,0.0,0.0
1696261191467,-0.22851562,-0.31054688,0.020507812,108.5,-6.59375,-48.96875,0.0,0.0,0.0
1696261191529,0.41015625,0.3955078,0.20996094,146.34375,38.875,17.25,-97.5,-2.5,-36.6875
1696261191556,0.2998047,0.2841797,-0.3154297,43.03125,56.5,107.09375,0.0,0.0,0.0
1696261191585,-0.29785156,-0.1171875,0.50878906,-60.875,-77.34375,20.125,0.0,0.0,0.0
1696261191645,0.21191406,0.6113281,-0.3935547,-250.0,60.96875,-36.03125,0.0,0.0,0.0
1696261191677,-2.0,0.51464844,0.9863281,-232.3125,44.40625,-43.0625,0.0,0.0,0.0
1696261191706,-1.0429688,-0.051757812,-0.296875,-16.4375,2.84375,79.8125,0.0,0.0,0.0
1696261191800,-0.58691406,-0.020507812,9.765625E-4,23.5625,46.5,188.09375,0.0,0.0,0.0
1696261191805,-2.0,0.46289062,-0.4326172,-39.3125,118.59375,189.875,0.0,0.0,0.0
1696261191829,-1.2402344,-1.0615234,0.10839844,-53.1875,170.59375,113.1875,0.0,0.0,0.0
1696261191917,-1.3300781,-0.5019531,0.53515625,22.375,149.03125,107.59375,0.0,0.0,0.0
1696261191924,-0.96875,-0.31933594,0.49023438,24.84375,90.6875,91.28125,0.0,0.0,0.0
1696261191947,-0.65625,-0.6152344,0.4658203,-12.9375,20.75,52.21875,0.0,0.0,0.0
1696261192036,-0.14648438,-1.0009766,0.25878906,-12.71875,-42.90625,-48.125,-94.375,17.875,-66.0625
1696261192040,-0.37109375,-0.049804688,-0.07421875,31.1875,-131.46875,-114.875,0.0,0.0,0.0
1696261192068,-2.0,-0.6347656,0.6220703,120.40625,-238.40625,-180.5625,0.0,0.0,0.0
1696261192157,-2.0,1.0625,-0.49902344,135.125,-191.0625,-110.78125,0.0,0.0,0.0
1696261192163,-2.0,0.05859375,-0.14160156,-73.8125,-127.5,-178.4375,0.0,0.0,0.0
1696261192189,-1.6074219,-0.8359375,0.10449219,-8.125,-87.53125,-157.3125,0.0,0.0,0.0
1696261192278,-0.63964844,-0.37890625,0.0078125,97.40625,-40.78125,-102.5,0.0,0.0,0.0
1696261192282,0.19042969,-0.08496094,0.22460938,119.5625,47.09375,-21.25,0.0,0.0,0.0
1696261192306,0.42773438,0.18652344,-0.017578125,65.46875,94.03125,90.9375,0.0,0.0,0.0
1696261192368,-0.32617188,0.17480469,0.29492188,13.59375,-25.78125,96.25,0.0,0.0,0.0
1696261192396,-0.27929688,0.23828125,-0.046875,-202.78125,-22.21875,-51.34375,0.0,0.0,0.0
1696261192427,-0.053710938,0.033203125,0.4658203,-146.3125,89.09375,11.09375,0.0,0.0,0.0
1696261192515,-2.0,-1.2509766,-0.69140625,-170.375,86.84375,0.03125,-100.5,-2.9375,-47.625
1696261192518,-0.20800781,-0.01953125,-0.04296875,60.71875,-17.46875,115.8125,0.0,0.0,0.0
1696261192545,-1.4892578,0.52734375,-0.21972656,-24.3125,81.96875,210.0625,0.0,0.0,0.0
1696261192637,-1.7421875,-0.84375,-0.46875,-0.4375,169.0,150.9375,0.0,0.0,0.0
1696261192641,-1.4277344,-0.9140625,0.37402344,-19.0,138.34375,98.875,0.0,0.0,0.0
1696261192666,-1.125,-0.19824219,0.67871094,32.15625,106.4375,96.71875,0.0,0.0,0.0
1696261192724,-0.83984375,-0.26367188,0.28027344,4.8125,66.9375,75.375,0.0,0.0,0.0
1696261192768,-0.33691406,-0.8017578,0.36621094,-6.78125,8.09375,30.125,0.0,0.0,0.0
1696261192791,-0.1640625,-0.6142578,0.23925781,29.46875,-35.03125,-68.8125,0.0,0.0,0.0
1696261192849,-0.8378906,0.040039062,0.07519531,50.65625,-151.25,-111.34375,0.0,0.0,0.0
1696261192875,-2.0,0.671875,-0.46679688,212.75,-167.0,-135.875,0.0,0.0,0.0
1696261192905,-1.8164062,0.7597656,-0.06933594,-23.8125,-161.09375,-111.71875,0.0,0.0,0.0
1696261192967,-2.0,0.047851562,0.044921875,-86.875,-108.21875,-175.8125,0.0,0.0,0.0
1696261192997,-1.4638672,-0.7421875,0.13476562,-4.59375,-95.46875,-118.96875,-100.625,0.9375,-49.5625
1696261193028,-0.47558594,-0.5019531,0.060546875,77.5625,-40.21875,-66.84375,0.0,0.0,0.0
1696261193086,0.06738281,0.034179688,0.2626953,129.5625,25.0,-12.71875,0.0,0.0,0.0
1696261193118,0.4091797,0.22363281,-0.22363281,66.5625,56.9375,87.3125,0.0,0.0,0.0
1696261193148,9.765625E-4,-0.026367188,-0.01953125,11.15625,-14.34375,75.46875,0.0,0.0,0.0
1696261193206,-0.111328125,0.23828125,0.046875,-232.4375,-12.53125,-32.78125,0.0,0.0,0.0
1696261193236,-0.7451172,0.57421875,-1.1494141,-186.59375,-4.46875,-30.03125,0.0,0.0,0.0
1696261193267,-1.7871094,-0.42773438,-0.5703125,-125.875,29.65625,53.21875,0.0,0.0,0.0
1696261193329,-0.48339844,-0.19921875,0.029296875,55.84375,-0.5625,152.625,0.0,0.0,0.0
1696261193357,-2.0,0.38867188,-0.23535156,2.75,111.125,208.0,0.0,0.0,0.0
1696261193385,-1.2607422,-0.640625,0.07128906,-25.71875,151.0625,133.78125,0.0,0.0,0.0
1696261193448,-1.3515625,-0.5810547,0.49023438,17.125,159.34375,96.78125,0.0,0.0,0.0
1696261193506,-1.0439453,-0.32226562,0.6796875,34.0,102.65625,84.21875,0.0,0.0,0.0
1696261193509,-0.64941406,-0.2607422,0.34179688,7.375,43.5,61.5,-93.125,19.0625,-64.5625
1696261193566,-0.0703125,-0.8105469,0.25097656,-3.84375,-10.4375,4.125,0.0,0.0,0.0
1696261193596,-0.34472656,-0.34765625,0.36914062,44.84375,-74.15625,-90.90625,0.0,0.0,0.0
1696261193627,-1.296875,0.22949219,0.12988281,26.21875,-202.09375,-104.875,0.0,0.0,0.0
1696261193687,-1.9179688,0.30078125,-0.5673828,263.84375,-149.5,-110.1875,0.0,0.0,0.0
1696261193722,-2.0,0.13671875,-0.2548828,-60.9375,-138.0625,-143.9375,0.0,0.0,0.0
1696261193745,-1.8818359,-0.54296875,0.18554688,-69.84375,-99.8125,-164.9375,0.0,0.0,0.0
1696261193808,-1.2177734,-0.6015625,0.13085938,76.21875,-54.8125,-113.3125,0.0,0.0,0.0
1696261193836,-0.31640625,-0.3955078,0.10546875,91.28125,21.15625,-50.1875,0.0,0.0,0.0
1696261193866,0.25976562,0.34570312,0.26171875,100.8125,44.84375,31.65625,0.0,0.0,0.0
1696261193928,0.22167969,0.32421875,-0.32617188,24.59375,39.40625,117.34375,0.0,0.0,0.0
1696261193962,-0.2109375,-0.037109375,0.1015625,-14.65625,-30.53125,36.3125,0.0,0.0,0.0
1696261193986,-0.1484375,0.33203125,-0.15332031,-262.15625,8.21875,-74.34375,-99.4375,-0.4375,-47.3125
1696261194048,-1.7421875,0.83496094,-1.5087891,-226.5625,-3.5,-37.4375,0.0,0.0,0.0
1696261194077,-1.1962891,-0.4814453,-0.44921875,-22.03125,-8.375,24.09375,0.0,0.0,0.0
1696261194105,-0.4375,-0.041015625,0.0625,49.5,10.0,153.0625,0.0,0.0,0.0
1696261194167,-2.0,0.5048828,-0.24316406,-29.90625,116.75,202.1875,0.0,0.0,0.0
1696261194200,-1.2578125,-0.8828125,-0.05859375,-45.84375,157.21875,126.25,0.0,0.0,0.0
1696261194226,-1.3007812,-0.421875,0.34472656,27.6875,153.625,112.09375,0.0,0.0,0.0
1696261194287,-1.0351562,-0.28222656,0.5839844,44.40625,103.25,95.0,0.0,0.0,0.0
1696261194316,-0.73046875,-0.26757812,0.34765625,14.8125,29.46875,70.46875,0.0,0.0,0.0
1696261194346,-0.2607422,-0.67285156,0.21386719,-16.1875,-20.46875,8.71875,0.0,0.0,0.0
1696261194406,-0.2109375,-0.4892578,0.21386719,24.09375,-54.75,-79.0,0.0,0.0,0.0
1696261194466,-1.2460938,0.026367188,0.36035156,29.28125,-177.0625,-120.3125,0.0,0.0,0.0
1696261194469,-2.0,0.5029297,-0.47070312,245.71875,-162.625,-113.1875,0.0,0.0,0.0
1696261194527,-2.0,0.36523438,-0.07519531,-80.15625,-142.40625,-127.21875,-103.1875,9.3125,-54.5
1696261194586,-2.0,-0.4814453,0.14355469,-68.5,-100.34375,-166.21875,0.0,0.0,0.0
1696261194590,-1.2236328,-0.62402344,0.072265625,48.3125,-78.25,-109.5625,0.0,0.0,0.0
1696261194646,-0.24316406,-0.39746094,0.037109375,87.8125,0.21875,-60.75,0.0,0.0,0.0
1696261194676,0.22363281,0.27148438,0.140625,111.8125,42.34375,5.34375,0.0,0.0,0.0
1696261194707,0.43164062,0.4267578,-0.3125,9.625,75.71875,105.9375,0.0,0.0,0.0
1696261194766,-0.29003906,-0.2421875,0.16894531,7.125,6.28125,45.875,0.0,0.0,0.0
1696261194799,-0.40429688,0.18652344,-0.18945312,-249.03125,-12.28125,-61.25,0.0,0.0,0.0
1696261194826,-1.7373047,1.2041016,-0.5136719,-159.6875,30.1875,-24.625,0.0,0.0,0.0
1696261194887,-1.5478516,0.0390625,-0.47851562,-58.0,19.8125,42.78125,0.0,0.0,0.0
1696261194918,-0.6142578,-0.16210938,-0.06542969,-4.65625,15.84375,154.71875,0.0,0.0,0.0
1696261194947,-2.0,0.34765625,-0.3544922,-76.96875,85.25,190.40625,0.0,0.0,0.0
1696261195005,-1.2773438,-0.85253906,-0.03125,-66.53125,155.75,122.78125,-100.8125,10.6875,-54.6875
1696261195036,-1.4580078,-0.56640625,0.40527344,25.9375,158.9375,121.5,0.0,0.0,0.0
1696261195066,-1.0986328,-0.23632812,0.6591797,38.5625,90.375,99.46875,0.0,0.0,0.0
1696261195127,-0.79003906,-0.41503906,0.390625,0.84375,20.0,64.9375,0.0,0.0,0.0
1696261195156,-0.15429688,-1.0146484,0.12792969,-36.03125,-30.78125,2.0,0.0,0.0,0.0
1696261195186,-0.35058594,-0.42578125,0.044921875,40.28125,-74.65625,-97.84375,0.0,0.0,0.0
1696261195244,-1.5371094,-0.16699219,0.89746094,106.4375,-192.9375,-148.625,0.0,0.0,0.0
1696261195305,-2.0,0.51660156,-0.42578125,196.09375,-141.5,-135.75,0.0,0.0,0.0
1696261195307,-2.0,-0.068359375,-0.21191406,-24.3125,-144.125,-160.46875,0.0,0.0,0.0
1696261195367,-1.7578125,-0.32226562,0.24023438,-19.53125,-112.25,-142.53125,0.0,0.0,0.0
1696261195407,-0.9453125,-0.56640625,0.053710938,61.75,-67.53125,-93.40625,0.0,0.0,0.0
1696261195429,-0.10546875,-0.16601562,0.047851562,118.53125,-12.84375,-36.34375,0.0,0.0,0.0
1696261195487,0.6142578,0.58984375,-0.1171875,103.1875,46.75,40.15625,0.0,0.0,0.0
1696261195517,0.25683594,0.33691406,-0.11035156,54.375,52.65625,86.53125,-95.6875,-0.6875,-42.0625
1696261195546,-0.41601562,-0.3486328,0.7080078,-144.0625,-82.03125,-19.0,0.0,0.0,0.0
1696261195607,-0.0107421875,0.5019531,1.6894531,-176.59375,22.21875,-0.1875,0.0,0.0,0.0
1696261195638,-2.0,-1.1582031,-0.3125,-208.4375,98.0,46.25,0.0,0.0,0.0
1696261195668,-0.24804688,-0.31347656,-0.033203125,50.71875,-10.625,100.625,0.0,0.0,0.0
1696261195728,-1.1464844,0.17089844,-0.1640625,23.84375,89.46875,209.40625,0.0,0.0,0.0
1696261195788,-1.9882812,-0.4111328,-0.41308594,11.09375,162.9375,154.09375,0.0,0.0,0.0
1696261195792,-1.5078125,-0.8310547,0.4013672,10.375,169.1875,102.59375,0.0,0.0,0.0
1696261195877,-1.0839844,-0.28710938,0.62890625,44.125,112.65625,83.1875,0.0,0.0,0.0
1696261195881,-0.7705078,-0.08300781,0.3173828,24.9375,64.25,70.0,0.0,0.0,0.0
1696261195908,-0.20410156,-0.68359375,0.34960938,-19.40625,-3.96875,28.65625,0.0,0.0,0.0
1696261195998,-0.21972656,-0.5498047,0.3310547,22.75,-52.8125,-80.71875,0.0,0.0,0.0
1696261196003,-0.85839844,0.19628906,-0.0703125,36.84375,-181.46875,-102.5625,-94.625,19.0625,-64.5625
1696261196027,-2.0,0.41796875,-0.3564453,181.75,-172.1875,-124.15625,0.0,0.0,0.0
1696261196089,-2.0,0.55859375,-0.2890625,-50.625,-158.21875,-134.53125,0.0,0.0,0.0
1696261196115,-2.0,-0.44726562,0.09667969,-104.875,-99.5625,-172.875,0.0,0.0,0.0
1696261196150,-1.3789062,-0.45703125,0.08496094,56.25,-79.1875,-117.8125,0.0,0.0,0.0
1696261196208,-0.14355469,-0.5048828,0.013671875,77.1875,8.59375,-68.5625,0.0,0.0,0.0
1696261196236,0.30566406,0.4189453,0.08886719,67.1875,59.625,1.25,0.0,0.0,0.0
1696261196265,0.4033203,0.59472656,-0.19433594,30.1875,49.5625,99.28125,0.0,0.0,0.0
1696261196324,-0.18164062,-0.10253906,0.40039062,-40.28125,-33.28125,35.5625,0.0,0.0,0.0
1696261196354,0.10644531,0.1171875,-0.9746094,-286.875,51.25,-48.28125,0.0,0.0,0.0
1696261196385,-2.0,1.359375,-0.109375,-178.84375,-75.375,-59.21875,0.0,0.0,0.0
1696261196449,-0.72265625,0.103515625,-0.10449219,-20.40625,-18.1875,23.78125,0.0,0.0,0.0
1696261196477,-0.44335938,0.17578125,-0.11035156,4.625,34.71875,181.375,0.0,0.0,0.0
1696261196506,-2.0,0.1328125,-0.453125,-61.96875,108.8125,202.3125,-101.375,5.0,-52.4375
1696261196569,-1.2949219,-1.5107422,0.28125,-49.03125,184.9375,117.65625,0.0,0.0,0.0
1696261196597,-1.4511719,-0.27246094,0.63183594,60.03125,124.0,98.6875,0.0,0.0,0.0
1696261196626,-1.0234375,0.056640625,0.52441406,43.3125,80.1875,86.59375,0.0,0.0,0.0
1696261196689,-0.43945312,-0.71484375,0.24023438,-44.8125,-5.25,56.875,0.0,0.0,0.0
1696261196716,-0.036132812,-1.1699219,0.37304688,-3.78125,-20.59375,-37.125,0.0,0.0,0.0
1696261196745,-0.3359375,-0.14257812,0.19726562,88.6875,-134.96875,-105.1875,0.0,0.0,0.0
1696261196804,-2.0,-0.060546875,0.9033203,75.625,-250.0,-170.5,0.0,0.0,0.0
1696261196834,-2.0,1.3164062,-0.5517578,114.96875,-165.90625,-101.46875,0.0,0.0,0.0
1696261196900,-2.0,0.29492188,-0.11035156,-34.125,-151.375,-181.28125,0.0,0.0,0.0
1696261196926,-1.4433594,-0.58203125,0.10546875,-44.9375,-137.84375,-118.3125,0.0,0.0,0.0
1696261196954,-0.546875,-0.56347656,0.021484375,30.3125,-34.0,-71.1875,0.0,0.0,0.0
1696261196986,0.021484375,-0.044921875,0.20605469,72.25,48.75,-15.59375,-99.625,-0.125,-37.25
1696261197045,0.25,0.3310547,-0.24316406,46.375,77.5,104.0,0.0,0.0,0.0
1696261197075,-0.028320312,-0.06738281,0.18945312,82.09375,-11.65625,89.21875,0.0,0.0,0.0
1696261197105,-0.3173828,0.037109375,0.4267578,-230.0625,-14.84375,-61.125,0.0,0.0,0.0
1696261197169,-0.8798828,0.16210938,0.90527344,-91.875,-47.8125,-23.34375,0.0,0.0,0.0
1696261197195,-1.28125,-0.234375,-0.75097656,-67.8125,-13.6875,0.09375,0.0,0.0,0.0
1696261197226,-0.26953125,-0.15039062,-0.07421875,36.375,4.4375,155.9375,0.0,0.0,0.0
1696261197285,-2.0,0.453125,0.033203125,13.96875,73.84375,195.0625,0.0,0.0,0.0
1696261197316,-1.15625,-0.8046875,0.06738281,-26.875,131.21875,155.6875,0.0,0.0,0.0
1696261197347,-1.5751953,-0.5751953,0.3330078,50.78125,167.90625,123.53125,0.0,0.0,0.0
1696261197406,-1.203125,-0.41210938,0.7451172,52.40625,117.3125,101.0625,0.0,0.0,0.0
1696261197438,-0.6308594,-0.21875,0.4140625,31.65625,52.84375,59.5625,0.0,0.0,0.0
1696261197499,-0.015625,-0.73046875,0.1875,12.875,-22.28125,0.34375,0.0,0.0,0.0
1696261197528,-0.22949219,-0.3154297,0.1875,23.5,-67.28125,-89.96875,-95.25,21.0625,-62.625
1696261197556,-1.0380859,0.07421875,0.19335938,58.59375,-161.5,-113.0625,0.0,0.0,0.0
1696261197589,-2.0,0.30078125,-0.30273438,180.78125,-155.78125,-158.84375,0.0,0.0,0.0
1696261197651,-1.9824219,0.21289062,-0.29785156,-14.28125,-140.9375,-141.5,0.0,0.0,0.0
1696261197677,-2.0,-0.56933594,0.20019531,-53.59375,-80.8125,-170.25,0.0,0.0,0.0
1696261197709,-1.4257812,-0.51953125,0.20117188,89.03125,-59.65625,-122.9375,0.0,0.0,0.0
1696261197767,-0.22949219,-0.50097656,0.11816406,107.21875,15.84375,-55.25,0.0,0.0,0.0
1696261197795,0.34277344,0.3671875,0.16113281,106.90625,56.5,21.53125,0.0,0.0,0.0
1696261197825,0.37304688,0.54296875,-0.29101562,12.75,68.09375,114.53125,0.0,0.0,0.0
1696261197889,-0.2685547,-0.16601562,0.30371094,-24.78125,-17.46875,29.34375,0.0,0.0,0.0
1696261197916,0.09667969,0.15527344,-0.6738281,-282.0,40.625,-53.3125,0.0,0.0,0.0
1696261197946,-2.0,1.234375,-0.44140625,-164.3125,-73.375,-27.25,0.0,0.0,0.0
1696261198005,-0.6875,-0.0107421875,-0.16015625,3.46875,-5.625,-3.0,-101.375,-3.125,-49.5625
1696261198067,-0.34375,0.028320312,0.029296875,1.4375,23.125,182.34375,0.0,0.0,0.0
1696261198070,-2.0,0.8857422,-0.38671875,-88.625,103.5625,201.59375,0.0,0.0,0.0
1696261198126,-1.5292969,-1.3115234,0.17578125,-27.59375,154.09375,123.8125,0.0,0.0,0.0
1696261198155,-1.3115234,-0.37695312,0.48046875,24.21875,113.21875,120.96875,0.0,0.0,0.0
1696261198187,-0.79589844,-0.22753906,0.5205078,44.0625,74.875,101.0625,0.0,0.0,0.0
1696261198247,-0.65625,-0.5214844,0.3388672,0.15625,12.3125,62.0,0.0,0.0,0.0
1696261198277,-0.08886719,-0.9189453,0.107421875,-1.90625,-20.40625,-13.6875,0.0,0.0,0.0
1696261198306,-0.30566406,-0.19042969,0.31152344,37.53125,-83.03125,-103.21875,0.0,0.0,0.0
1696261198367,-1.5722656,0.1171875,0.66796875,71.28125,-214.6875,-125.25,0.0,0.0,0.0
1696261198402,-1.5527344,0.77734375,-0.49023438,186.6875,-155.53125,-106.03125,0.0,0.0,0.0
1696261198424,-2.0,0.11816406,-0.35742188,-83.6875,-145.6875,-151.4375,0.0,0.0,0.0
1696261198486,-1.8652344,-0.2265625,0.06640625,-61.09375,-72.8125,-171.59375,0.0,0.0,0.0
1696261198516,-0.9140625,-0.52734375,0.13574219,36.65625,-21.375,-114.28125,-101.125,-1.3125,-44.625
1696261198546,-0.052734375,-0.3515625,0.2421875,84.15625,42.96875,-32.125,0.0,0.0,0.0
1696261198606,0.45703125,0.3828125,-0.0068359375,70.0,56.03125,74.25,0.0,0.0,0.0
1696261198637,0.099609375,0.35253906,-0.056640625,56.375,13.0625,118.875,0.0,0.0,0.0
1696261198667,-0.5214844,-0.2763672,0.47070312,-88.5,-21.5,-37.6875,0.0,0.0,0.0
1696261198725,0.51660156,0.4736328,-0.9160156,-243.65625,64.0625,-48.28125,0.0,0.0,0.0
1696261198786,-2.0,-0.54785156,0.072265625,-169.625,22.9375,10.78125,0.0,0.0,0.0
1696261198791,-0.31445312,0.3173828,-0.2783203,12.5625,-32.375,57.46875,0.0,0.0,0.0
1696261198847,-0.53027344,0.3310547,-0.18945312,-54.8125,68.09375,217.03125,0.0,0.0,0.0
1696261198875,-2.0,0.2939453,-0.83984375,-75.15625,80.875,154.71875,0.0,0.0,0.0
1696261198907,-1.4453125,-1.4013672,0.33496094,-107.5625,145.375,109.0625,0.0,0.0,0.0
1696261198967,-1.2832031,-0.34765625,0.5800781,49.0625,111.125,124.5,0.0,0.0,0.0
1696261198997,-1.0341797,-0.36132812,0.4873047,53.53125,73.0,102.8125,-94.9375,17.5625,-62.4375
1696261199026,-0.50683594,-0.54589844,0.3203125,1.6875,8.15625,48.8125,0.0,0.0,0.0
1696261199086,-0.0107421875,-0.6982422,0.3486328,-9.21875,-50.1875,-41.28125,0.0,0.0,0.0
1696261199115,-0.40722656,-0.052734375,0.07324219,17.125,-156.6875,-105.0625,0.0,0.0,0.0
1696261199147,-2.0,-0.34179688,0.69921875,104.1875,-235.0625,-180.5,0.0,0.0,0.0
1696261199208,-1.8554688,0.90234375,-0.10546875,34.21875,-172.375,-130.625,0.0,0.0,0.0
1696261199237,-2.0,-0.0107421875,-0.12988281,-78.0625,-98.15625,-198.375,0.0,0.0,0.0
1696261199297,-1.5859375,-0.8486328,0.087890625,10.0,-76.3125,-161.34375,0.0,0.0,0.0
1696261199325,-0.8017578,-0.46777344,-0.055664062,156.46875,-35.0,-94.6875,0.0,0.0,0.0
1696261199357,-0.15136719,0.203125,0.18652344,161.375,49.1875,-37.84375,0.0,0.0,0.0
1696261199387,0.4580078,0.49609375,-0.057617188,62.96875,90.5,71.6875,0.0,0.0,0.0
1696261199446,-0.068359375,0.27539062,0.07128906,-8.375,38.625,96.34375,0.0,0.0,0.0
1696261199479,-0.3642578,0.24707031,0.4951172,-167.125,-70.875,-30.96875,0.0,0.0,0.0
1696261199505,-0.21777344,0.46289062,0.72753906,-210.59375,93.1875,5.65625,-99.625,-0.5625,-44.625
1696261199568,-2.0,-1.5107422,-0.14648438,-207.84375,55.71875,-5.15625,0.0,0.0,0.0
1696261199602,-0.08105469,-0.022460938,-0.00390625,44.90625,-11.5625,107.28125,0.0,0.0,0.0
1696261199626,-1.0576172,0.28125,-0.24023438,-0.0625,74.28125,233.4375,0.0,0.0,0.0
1696261199687,-1.9541016,-0.9199219,-0.6669922,9.25,182.0625,133.09375,0.0,0.0,0.0
1696261199716,-1.3984375,-1.0332031,0.4140625,-21.5,150.0625,98.375,0.0,0.0,0.0
1696261199746,-1.2246094,-0.20800781,0.7158203,38.0,109.84375,99.65625,0.0,0.0,0.0
1696261199806,-0.8564453,-0.10644531,0.24707031,16.34375,69.03125,82.0625,0.0,0.0,0.0
1696261199837,-0.3623047,-0.91015625,0.3173828,-5.375,1.5625,32.6875,0.0,0.0,0.0
1696261199866,-0.2578125,-0.40234375,0.38085938,10.84375,-48.15625,-74.84375,0.0,0.0,0.0
1696261199927,-0.4345703,0.12695312,-0.016601562,53.40625,-163.46875,-99.6875,0.0,0.0,0.0
1696261199957,-2.0,-0.4716797,-0.20507812,106.0,-234.15625,-176.21875,0.0,0.0,0.0
1696261199986,-2.0,1.1132812,-0.24609375,66.28125,-160.0,-126.0,-103.375,10.6875,-53.625
1696261200046,-2.0,0.2626953,-0.17675781,-37.84375,-102.90625,-193.9375,0.0,0.0,0.0
1696261200077,-1.5380859,-0.8339844,0.09863281,-6.1875,-72.9375,-147.1875,0.0,0.0,0.0
1696261200105,-0.46289062,-0.26757812,0.06347656,84.03125,-10.28125,-74.46875,0.0,0.0,0.0
1696261200167,0.18359375,0.19628906,0.328125,89.84375,69.8125,8.34375,0.0,0.0,0.0
1696261200197,0.34472656,0.38867188,-0.14355469,31.90625,77.5,133.65625,0.0,0.0,0.0
1696261200226,-0.41210938,-0.07714844,0.26464844,39.90625,-37.5,88.96875,0.0,0.0,0.0
1696261200287,-0.37402344,-0.01171875,0.35546875,-254.96875,-36.5625,-86.3125,0.0,0.0,0.0
1696261200347,-0.10058594,0.57910156,1.109375,-106.75,43.125,25.5625,0.0,0.0,0.0
1696261200349,-2.0,-1.1064453,-0.69921875,-101.875,65.53125,-55.625,0.0,0.0,0.0
1696261200406,-0.005859375,0.08691406,-0.045898438,28.6875,-28.34375,124.875,0.0,0.0,0.0
1696261200437,-1.9335938,0.546875,-0.12988281,-63.0625,76.03125,238.6875,0.0,0.0,0.0
1696261200497,-1.3691406,-1.2939453,-0.27734375,3.53125,163.0,145.375,0.0,0.0,0.0
1696261200527,-1.5439453,-0.79003906,0.40527344,16.96875,147.9375,130.40625,-101.125,10.375,-55.25
1696261200557,-1.1494141,-0.06933594,0.6582031,50.71875,112.84375,105.6875,0.0,0.0,0.0
1696261200585,-0.87402344,-0.38867188,0.38378906,10.3125,51.75,98.4375,0.0,0.0,0.0
1696261200648,-0.38183594,-0.8017578,0.27539062,-13.25,-21.0625,33.375,0.0,0.0,0.0
1696261200678,-0.20410156,-0.7421875,0.29785156,24.9375,-47.8125,-75.9375,0.0,0.0,0.0
1696261200707,-0.88378906,0.09667969,0.044921875,78.46875,-161.8125,-110.4375,0.0,0.0,0.0
1696261200765,-2.0,0.5986328,-0.4248047,219.09375,-179.5625,-149.8125,0.0,0.0,0.0
1696261200803,-2.0,0.5810547,-0.20507812,17.8125,-169.625,-117.09375,0.0,0.0,0.0
1696261200825,-2.0,-0.037109375,0.0703125,-66.71875,-135.21875,-172.5,0.0,0.0,0.0
1696261200886,-1.4931641,-0.63378906,0.12695312,31.96875,-107.5,-125.1875,0.0,0.0,0.0
1696261200916,-0.4189453,-0.30566406,0.0703125,93.8125,-22.46875,-70.21875,0.0,0.0,0.0
1696261200944,0.19824219,0.11425781,0.33691406,120.21875,48.15625,-6.96875,0.0,0.0,0.0
1696261201006,0.4013672,0.3388672,-0.18164062,34.34375,92.75,93.0625,-98.125,-3.4375,-36.5
1696261201036,-0.21289062,0.08300781,0.12988281,10.25,-1.78125,64.5625,0.0,0.0,0.0
1696261201064,-0.12988281,0.24902344,0.017578125,-233.21875,-12.40625,-43.28125,0.0,0.0,0.0
1696261201126,-0.7128906,-0.2109375,0.29101562,-140.6875,15.96875,-0.5625,0.0,0.0,0.0
1696261201156,-1.2421875,-0.3935547,-0.57714844,-81.90625,7.375,3.21875,0.0,0.0,0.0
1696261201186,-0.23339844,-0.12207031,0.049804688,30.1875,14.09375,145.6875,0.0,0.0,0.0
1696261201246,-2.0,0.6533203,-0.20703125,-7.40625,77.125,212.8125,0.0,0.0,0.0
1696261201277,-1.2695312,-1.0371094,0.009765625,-43.90625,163.875,161.84375,0.0,0.0,0.0
1696261201308,-1.6367188,-0.60058594,0.4111328,18.3125,173.75,119.0625,0.0,0.0,0.0
1696261201366,-1.0371094,-0.16992188,0.7109375,32.09375,98.625,96.59375,0.0,0.0,0.0
1696261201404,-0.7285156,-0.24707031,0.31445312,9.5,42.78125,80.5,0.0,0.0,0.0
1696261201427,-0.19824219,-0.9394531,0.23632812,-8.75,-23.09375,12.5,0.0,0.0,0.0
1696261201520,-0.30273438,-0.359375,0.37109375,15.125,-67.8125,-100.1875,0.0,0.0,0.0
1696261201526,-1.140625,0.14746094,-0.038085938,33.6875,-208.8125,-111.84375,-94.625,19.0625,-64.25
1696261201548,-1.9980469,0.35546875,-0.4658203,296.375,-177.875,-103.46875,0.0,0.0,0.0
1696261201607,-2.0,0.45410156,-0.3408203,-46.59375,-149.84375,-132.71875,0.0,0.0,0.0
1696261201636,-2.0,-0.53222656,0.10449219,-69.78125,-93.875,-207.34375,0.0,0.0,0.0
1696261201668,-1.3037109,-0.5878906,0.107421875,43.6875,-71.71875,-146.4375,0.0,0.0,0.0
1696261201758,-0.2626953,-0.5292969,0.10644531,79.46875,21.03125,-56.34375,0.0,0.0,0.0
1696261201761,0.421875,0.49804688,0.2705078,98.875,59.5625,25.6875,0.0,0.0,0.0
1696261201790,0.1640625,0.53808594,-0.3408203,22.03125,60.0,124.625,0.0,0.0,0.0
1696261201847,-0.2734375,-0.17382812,-0.0029296875,16.53125,-36.875,29.84375,0.0,0.0,0.0
1696261201875,-0.048828125,0.19628906,-0.23046875,-280.71875,16.53125,-81.0,0.0,0.0,0.0
1696261201907,-1.1708984,0.1640625,-0.17675781,-97.84375,-65.125,-12.40625,0.0,0.0,0.0
1696261201966,-0.8730469,-0.2685547,-0.5341797,45.40625,-8.875,-13.4375,0.0,0.0,0.0
1696261201998,-0.08496094,-0.061523438,0.15527344,71.21875,1.875,145.78125,-98.5625,-3.125,-47.4375
1696261202026,-2.0,0.6699219,-0.044921875,-27.40625,76.40625,220.1875,0.0,0.0,0.0
1696261202087,-1.5175781,-1.2880859,0.057617188,-70.8125,172.53125,118.875,0.0,0.0,0.0
1696261202116,-1.5048828,-0.77246094,0.44140625,14.8125,158.8125,132.25,0.0,0.0,0.0
1696261202146,-1.140625,-0.2109375,0.73535156,46.75,124.3125,103.875,0.0,0.0,0.0
1696261202208,-0.6640625,-0.06933594,0.28222656,1.34375,48.5625,72.75,0.0,0.0,0.0
1696261202237,-0.29101562,-0.5761719,0.234375,-0.25,-21.4375,19.40625,0.0,0.0,0.0
1696261202265,-0.21972656,-0.4970703,0.31835938,-7.21875,-59.40625,-77.28125,0.0,0.0,0.0
1696261202356,-1.0644531,0.14550781,0.12109375,2.3125,-170.96875,-113.84375,0.0,0.0,0.0
1696261202359,-2.0,0.24511719,-0.36035156,225.15625,-165.59375,-140.03125,0.0,0.0,0.0
1696261202386,-2.0,0.39453125,-0.1328125,-44.4375,-148.375,-128.8125,0.0,0.0,0.0
1696261202446,-2.0,-0.453125,0.08691406,-73.0625,-87.15625,-165.25,0.0,0.0,0.0
1696261202476,-1.3837891,-0.4111328,0.013671875,60.15625,-80.46875,-121.40625,0.0,0.0,0.0
1696261202537,-0.33007812,-0.28515625,-0.0126953125,101.5625,0.28125,-71.96875,-101.25,-0.4375,-41.3125
1696261202565,0.3359375,0.3671875,0.14550781,103.25,47.03125,-6.5,0.0,0.0,0.0
1696261202626,0.4501953,0.4736328,-0.20898438,17.1875,73.78125,101.59375,0.0,0.0,0.0
1696261202628,-0.3095703,-0.061523438,0.4345703,-71.46875,-23.9375,46.4375,0.0,0.0,0.0
1696261202684,0.047851562,0.1796875,-0.48046875,-266.3125,18.71875,-63.25,0.0,0.0,0.0
1696261202714,-1.1367188,0.3232422,0.140625,-122.25,-11.1875,-11.90625,0.0,0.0,0.0
1696261202745,-0.5810547,-0.25976562,-0.234375,26.46875,-15.46875,-21.5,0.0,0.0,0.0
1696261202805,-0.234375,0.12207031,0.09375,49.3125,4.625,147.625,0.0,0.0,0.0
1696261202835,-2.0,0.6875,-0.22070312,-29.84375,99.0,242.53125,0.0,0.0,0.0
1696261202866,-1.3144531,-1.265625,0.037109375,-24.4375,161.84375,145.78125,0.0,0.0,0.0
1696261202925,-1.4882812,-0.5595703,0.5107422,35.03125,132.1875,122.84375,0.0,0.0,0.0
1696261202956,-1.0683594,-0.24511719,0.68359375,47.59375,97.34375,98.5,0.0,0.0,0.0
1696261203017,-0.6298828,-0.28320312,0.34472656,-6.375,35.625,72.5625,-94.625,20.125,-65.625
1696261203046,-0.15917969,-0.9140625,0.16503906,9.03125,-24.25,4.8125,0.0,0.0,0.0
1696261203077,-0.4296875,-0.3779297,0.39257812,21.65625,-87.84375,-110.0625,0.0,0.0,0.0
1696261203107,-1.2949219,0.032226562,0.48828125,57.4375,-209.53125,-135.75,0.0,0.0,0.0
1696261203168,-1.6816406,0.28515625,-0.40527344,246.09375,-175.0,-120.125,0.0,0.0,0.0
1696261203196,-2.0,0.17480469,-0.14941406,-87.21875,-131.0,-145.34375,0.0,0.0,0.0
1696261203227,-2.0,-0.34179688,0.022460938,-38.15625,-52.875,-209.0,0.0,0.0,0.0
1696261203289,-1.2568359,-0.42578125,0.016601562,84.40625,-53.28125,-127.59375,0.0,0.0,0.0
1696261203317,-0.16796875,-0.40429688,0.1015625,131.875,12.9375,-46.59375,0.0,0.0,0.0
1696261203348,0.5029297,0.5283203,0.21875,84.59375,70.84375,50.59375,0.0,0.0,0.0
1696261203407,0.19238281,0.7314453,-0.13769531,-33.9375,61.6875,141.21875,0.0,0.0,0.0
1696261203437,-0.24804688,0.111328125,0.15917969,-30.53125,-76.375,32.09375,0.0,0.0,0.0
1696261203470,0.026367188,0.15527344,-0.7265625,-305.4375,31.1875,-77.78125,0.0,0.0,0.0
1696261203527,-2.0,0.67871094,-0.5859375,-225.53125,-33.28125,-22.71875,-99.125,-3.875,-48.1875
1696261203556,-0.83496094,-0.140625,-0.26757812,-11.78125,-7.875,32.9375,0.0,0.0,0.0
1696261203587,-0.53808594,-0.08203125,0.0087890625,40.46875,22.09375,154.53125,0.0,0.0,0.0
1696261203649,-2.0,0.13183594,-0.27246094,-44.75,118.34375,191.375,0.0,0.0,0.0
1696261203676,-1.3691406,-1.0439453,0.30371094,-27.90625,157.75,125.03125,0.0,0.0,0.0
1696261203710,-1.2353516,-0.43066406,0.49804688,54.75,132.0,116.75,0.0,0.0,0.0
1696261203772,-0.8388672,-0.21679688,0.46484375,47.90625,93.1875,99.84375,0.0,0.0,0.0
1696261203797,-0.48339844,-0.41992188,0.3359375,-17.03125,12.9375,53.15625,0.0,0.0,0.0
1696261203827,-0.10253906,-0.9736328,0.28710938,-3.3125,-30.21875,-23.75,0.0,0.0,0.0
1696261203890,-0.26953125,-0.13574219,0.17382812,22.625,-97.78125,-102.0,0.0,0.0,0.0
1696261203917,-1.4394531,-0.051757812,0.76660156,33.1875,-173.96875,-133.375,0.0,0.0,0.0
1696261203947,-2.0,0.4921875,-0.46777344,215.375,-134.15625,-149.90625,0.0,0.0,0.0
1696261204007,-2.0,0.13769531,-0.23339844,4.25,-130.125,-183.71875,-102.3125,5.875,-54.0625
1696261204069,-1.6591797,-0.27929688,0.26464844,-17.03125,-104.9375,-126.96875,0.0,0.0,0.0
1696261204073,-0.859375,-0.3720703,0.15429688,36.96875,-48.53125,-60.625,0.0,0.0,0.0
1696261204129,-0.1875,-0.11816406,0.3046875,51.8125,28.0625,-16.625,0.0,0.0,0.0
1696261204157,0.5654297,0.3125,-0.12402344,80.90625,44.71875,60.90625,0.0,0.0,0.0
1696261204187,0.12207031,0.109375,-0.1796875,52.46875,-7.15625,99.78125,0.0,0.0,0.0
1696261204247,-0.45410156,-0.23339844,0.66796875,-179.09375,-31.09375,-39.8125,0.0,0.0,0.0
1696261204276,0.08300781,0.8359375,0.53515625,-187.09375,26.0625,-14.0625,0.0,0.0,0.0
1696261204306,-2.0,-0.80371094,-0.09277344,-227.125,167.28125,110.34375,0.0,0.0,0.0
1696261204366,-0.21777344,-0.049804688,0.064453125,30.25,-6.3125,71.5625,0.0,0.0,0.0
1696261204401,-0.6796875,0.2783203,-0.036132812,2.125,39.0625,186.1875,0.0,0.0,0.0
1696261204426,-2.0,-0.2734375,-0.63183594,-50.84375,117.40625,163.375,0.0,0.0,0.0
1696261204488,-1.3994141,-1.2089844,0.23535156,-34.0,170.8125,100.4375,0.0,0.0,0.0
1696261204518,-1.1875,-0.4111328,0.6513672,44.53125,110.03125,109.96875,-98.25,15.3125,-61.6875
1696261204547,-0.9091797,-0.18261719,0.23925781,44.78125,62.71875,85.5625,0.0,0.0,0.0
1696261204608,-0.4580078,-0.49121094,0.33984375,-18.1875,-8.375,35.6875,0.0,0.0,0.0
1696261204640,0.0107421875,-0.7949219,0.16992188,25.75,-27.90625,-45.25,0.0,0.0,0.0
1696261204666,-0.47460938,-0.0087890625,0.048828125,53.875,-137.9375,-108.15625,0.0,0.0,0.0
1696261204727,-2.0,-0.2998047,0.16699219,117.78125,-199.90625,-185.125,0.0,0.0,0.0
1696261204758,-1.6738281,1.1806641,-0.18261719,28.6875,-159.625,-105.5,0.0,0.0,0.0
1696261204791,-2.0,0.19726562,-0.14648438,-86.125,-126.53125,-189.65625,0.0,0.0,0.0
1696261204851,-1.625,-0.86035156,0.037109375,-5.4375,-85.53125,-141.0,0.0,0.0,0.0
1696261204910,-0.60253906,-0.50878906,-0.03515625,108.5625,-30.09375,-86.1875,0.0,0.0,0.0
1696261204914,-0.0546875,0.078125,0.17871094,128.09375,50.9375,-25.21875,0.0,0.0,0.0
1696261204968,0.36035156,0.3798828,-0.20703125,27.09375,88.96875,94.53125,0.0,0.0,0.0
1696261204997,-0.030273438,0.29785156,0.14550781,11.21875,18.65625,115.53125,-98.25,-3.25,-47.3125
1696261205026,-0.5810547,0.16699219,0.9892578,-205.09375,-69.46875,-38.65625,0.0,0.0,0.0
1696261205088,-0.0146484375,0.37109375,0.9169922,-216.25,38.375,-0.875,0.0,0.0,0.0
1696261205119,-2.0,-1.6914062,0.25585938,-210.71875,112.125,63.28125,0.0,0.0,0.0
1696261205148,0.19433594,-0.15332031,0.11035156,54.8125,-28.46875,70.0,0.0,0.0,0.0
1696261205208,-0.98828125,0.3232422,-0.057617188,26.21875,75.125,185.96875,0.0,0.0,0.0
1696261205239,-2.0,-0.48242188,-0.5410156,4.6875,125.59375,148.96875,0.0,0.0,0.0
1696261205267,-1.5244141,-0.8671875,0.32910156,-3.96875,147.6875,128.71875,0.0,0.0,0.0
1696261205327,-1.3359375,-0.0703125,0.453125,68.84375,109.5,116.6875,0.0,0.0,0.0
1696261205360,-0.9267578,-0.22753906,0.41796875,36.375,73.84375,93.78125,0.0,0.0,0.0
1696261205405,-0.4658203,-0.45703125,0.33691406,-15.40625,19.15625,40.9375,0.0,0.0,0.0
1696261205449,0.022460938,-0.6113281,0.19628906,11.875,-16.78125,-32.84375,0.0,0.0,0.0
1696261205477,-0.5859375,-0.016601562,0.24804688,0.78125,-130.6875,-113.25,0.0,0.0,0.0
1696261205507,-2.0,-0.12402344,0.23828125,84.40625,-218.59375,-189.71875,-96.125,17.125,-63.1875
1696261205569,-1.9248047,0.44140625,-0.040039062,20.4375,-191.25,-109.875,0.0,0.0,0.0
1696261205598,-2.0,0.07421875,-0.033203125,-100.0625,-137.34375,-142.0,0.0,0.0,0.0
1696261205628,-1.6914062,-0.6123047,0.12597656,20.875,-81.96875,-145.65625,0.0,0.0,0.0
1696261205687,-0.7988281,-0.31152344,0.044921875,86.53125,-38.53125,-100.0,0.0,0.0,0.0
1696261205717,-0.27246094,-0.0703125,0.17773438,120.46875,16.21875,-31.8125,0.0,0.0,0.0
1696261205747,0.5361328,0.22363281,0.08886719,76.71875,64.375,44.78125,0.0,0.0,0.0
1696261205838,0.09667969,0.22851562,-0.060546875,-2.5,32.21875,98.75,0.0,0.0,0.0
1696261205845,-0.6435547,-0.38964844,0.7373047,-87.65625,-67.9375,-36.9375,0.0,0.0,0.0
1696261205867,0.5761719,0.7861328,0.5332031,-154.96875,45.53125,-17.46875,0.0,0.0,0.0
1696261205929,-2.0,0.3154297,0.71875,-213.28125,83.1875,47.53125,0.0,0.0,0.0
1696261205956,-0.2578125,-0.6386719,-0.11425781,62.5,26.0625,71.21875,0.0,0.0,0.0
1696261206020,-0.7949219,-0.0859375,0.091796875,35.375,70.84375,156.78125,-99.125,2.75,-47.1875
1696261206046,-2.0,0.3828125,-0.3671875,5.65625,141.59375,176.5625,0.0,0.0,0.0
1696261206078,-1.5126953,-0.68847656,0.21386719,-22.0,168.5,116.625,0.0,0.0,0.0
1696261206107,-1.2402344,-0.44921875,0.5673828,12.9375,139.75,94.96875,0.0,0.0,0.0
1696261206171,-0.9375,-0.37890625,0.3798828,-2.8125,87.5625,82.25,0.0,0.0,0.0
1696261206196,-0.5058594,-0.4482422,0.60546875,-6.0625,31.53125,47.84375,0.0,0.0,0.0
1696261206231,-0.16210938,-0.6347656,0.005859375,7.96875,-42.90625,-48.96875,0.0,0.0,0.0
1696261206286,-0.62402344,-0.24609375,0.13183594,57.65625,-124.875,-100.125,0.0,0.0,0.0
1696261206316,-2.0,-0.080078125,0.2265625,84.59375,-195.875,-198.0625,0.0,0.0,0.0
1696261206346,-2.0,0.5498047,-0.45117188,62.96875,-166.03125,-112.625,0.0,0.0,0.0
1696261206408,-2.0,0.13476562,-0.083984375,-69.21875,-147.96875,-152.0625,0.0,0.0,0.0
1696261206437,-1.5996094,-0.6923828,0.25097656,0.84375,-74.0625,-134.28125,0.0,0.0,0.0
1696261206466,-0.43554688,-0.4873047,0.14453125,46.5,-13.75,-81.25,0.0,0.0,0.0
1696261206528,-0.18066406,0.049804688,0.17089844,57.125,28.5625,-1.65625,-99.4375,-2.9375,-41.0
1696261206558,0.5751953,0.75,-0.34472656,51.625,47.78125,93.78125,0.0,0.0,0.0
1696261206586,0.3076172,0.21386719,0.0087890625,75.0,29.59375,100.6875,0.0,0.0,0.0
1696261206647,-0.4873047,-0.32421875,0.6230469,-176.34375,-34.375,-50.96875,0.0,0.0,0.0
1696261206675,0.13769531,0.703125,1.2070312,-209.78125,-5.75,-12.53125,0.0,0.0,0.0
1696261206705,-2.0,-1.0605469,-0.24902344,-194.46875,169.59375,56.1875,0.0,0.0,0.0
1696261206765,-0.13476562,-0.3359375,0.08105469,46.25,-11.71875,47.96875,0.0,0.0,0.0
1696261206797,-1.1689453,0.32128906,-0.17285156,12.9375,86.34375,207.0625,0.0,0.0,0.0
1696261206826,-1.7236328,-0.15039062,-0.39160156,38.125,119.25,171.0625,0.0,0.0,0.0
1696261206887,-1.6513672,-0.8046875,0.4345703,17.8125,164.53125,111.90625,0.0,0.0,0.0
1696261206919,-1.1503906,-0.15332031,0.66015625,38.3125,96.71875,96.46875,0.0,0.0,0.0
1696261206945,-0.7167969,-0.072265625,0.20410156,-0.125,52.46875,80.5625,0.0,0.0,0.0
1696261207009,-0.21777344,-0.8857422,0.3251953,-18.9375,19.09375,46.125,-91.625,21.1875,-66.375
1696261207036,-0.19824219,-0.57714844,0.375,36.375,-39.875,-81.5625,0.0,0.0,0.0
1696261207065,-0.8691406,0.16015625,-0.06640625,56.25,-167.4375,-114.40625,0.0,0.0,0.0
1696261207126,-2.0,0.67285156,-0.42773438,204.6875,-174.15625,-130.75,0.0,0.0,0.0
1696261207188,-2.0,0.6699219,-0.17382812,-31.375,-177.3125,-121.78125,0.0,0.0,0.0
1696261207193,-2.0,-0.2939453,-0.0029296875,-97.53125,-115.0625,-177.8125,0.0,0.0,0.0
1696261207248,-1.5029297,-0.45507812,-0.0048828125,38.5625,-82.84375,-134.90625,0.0,0.0,0.0
1696261207276,-0.2685547,-0.37402344,0.078125,78.71875,-2.03125,-74.40625,0.0,0.0,0.0
1696261207336,0.31054688,0.43164062,0.21191406,70.53125,54.4375,-3.0,0.0,0.0,0.0
1696261207367,0.50097656,0.609375,-0.35546875,-2.6875,77.125,121.0625,0.0,0.0,0.0
1696261207396,0.001953125,0.045898438,0.13964844,20.6875,-16.0,78.78125,0.0,0.0,0.0
1696261207425,-0.33984375,0.052734375,0.26171875,-260.28125,-58.0625,-86.0625,0.0,0.0,0.0
1696261207488,-0.4248047,0.19433594,0.8652344,-110.59375,13.21875,-8.0,0.0,0.0,0.0
1696261207517,-1.9804688,-0.93066406,-0.6923828,-79.71875,-9.78125,-31.75,-99.875,-3.125,-48.8125
1696261207546,-0.3046875,-0.16210938,0.11328125,49.84375,-28.03125,129.625,0.0,0.0,0.0
