# Sensor type: Respeck
# Activity type: Sitting
# Activity subtype: Singing
# Subject id: s1689282
# Notes: 
timestamp,accel_x,accel_y,accel_z,gyro_x,gyro_y,gyro_z
1695647588848,-0.27246094,-0.9507446,0.27093506,0.21875,-0.015625,0.796875
1695647588888,-0.2590332,-0.9326782,0.23553467,-1.75,1.171875,-0.171875
1695647588929,-0.27319336,-0.95635986,0.23944092,-1.890625,1.34375,0.984375
1695647588969,-0.27539062,-0.95513916,0.2616577,-3.21875,1.015625,1.25
1695647589009,-0.24584961,-0.9277954,0.25653076,-1.421875,1.328125,0.515625
1695647589049,-0.2668457,-0.9439087,0.26190186,-1.796875,-0.171875,0.3125
1695647589089,-0.27270508,-0.9458618,0.2514038,-2.625,-0.875,0.015625
1695647589129,-0.2602539,-0.9536743,0.2538452,-1.890625,0.984375,0.15625
1695647589169,-0.26660156,-0.9495239,0.26531982,-1.5,0.875,0.78125
1695647589214,-0.23535156,-0.93292236,0.276062,-1.0,0.03125,-0.1875
1695647589229,-0.2397461,-0.9324341,0.25286865,-1.96875,-2.859375,0.34375
1695647589269,-0.27441406,-0.9456177,0.24603271,-1.78125,-3.953125,1.640625
1695647589310,-0.2536621,-0.90289307,0.23797607,-1.078125,-0.140625,1.875
1695647589349,-0.23925781,-0.9277954,0.26556396,-1.390625,-0.859375,3.015625
1695647589389,-0.21801758,-0.8989868,0.25897217,2.359375,-0.296875,3.78125
1695647589430,-0.25219727,-0.9607544,0.27166748,1.546875,-3.34375,4.609375
1695647589469,-0.27416992,-0.975647,0.24725342,1.265625,-1.734375,2.765625
1695647589509,-0.23291016,-0.9331665,0.25360107,1.890625,1.6875,0.921875
1695647589550,-0.25683594,-0.93927,0.2741089,1.765625,0.46875,1.1875
1695647589589,-0.25805664,-0.9614868,0.2543335,0.21875,1.0,0.578125
1695647589629,-0.22924805,-0.95391846,0.25604248,-0.828125,3.796875,-0.484375
1695647589668,-0.22070312,-0.95391846,0.2736206,1.46875,3.4375,0.359375
1695647589709,-0.2097168,-0.95977783,0.25897217,-0.609375,0.71875,0.40625
1695647589751,-0.20581055,-0.9336548,0.24578857,-0.140625,0.125,0.484375
1695647589789,-0.2277832,-0.9717407,0.25238037,-0.078125,-0.578125,0.484375
1695647589830,-0.22705078,-0.95513916,0.2843628,-1.203125,1.890625,-0.015625
1695647589870,-0.22631836,-0.95977783,0.27313232,-2.125,0.53125,-0.328125
1695647589909,-0.20629883,-0.9265747,0.24969482,-1.078125,-0.28125,-1.328125
1695647589951,-0.2199707,-0.9456177,0.28094482,-0.359375,0.421875,-0.5
1695647589989,-0.2211914,-0.94781494,0.27288818,-1.359375,-0.703125,-0.328125
1695647590030,-0.22753906,-0.95928955,0.26678467,-0.515625,-0.625,-0.390625
1695647590073,-0.22705078,-0.9534302,0.28900146,-0.40625,-0.578125,-0.734375
1695647590112,-0.24243164,-0.9343872,0.27191162,-0.640625,-1.03125,-1.0625
1695647590150,-0.23486328,-0.9458618,0.27044678,-1.6875,0.71875,-1.03125
1695647590189,-0.24047852,-0.9512329,0.276062,-0.375,-0.046875,-0.484375
1695647590231,-0.24414062,-0.9495239,0.2694702,-0.15625,-0.984375,-0.1875
1695647590269,-0.22729492,-0.91900635,0.2694702,0.796875,-0.609375,-0.796875
1695647590311,-0.23828125,-0.94366455,0.23846436,-0.109375,-1.1875,-1.609375
1695647590350,-0.25073242,-0.95098877,0.29071045,1.6875,0.734375,-1.671875
1695647590389,-0.23046875,-0.958313,0.2633667,-0.140625,0.265625,-1.8125
1695647590430,-0.2397461,-0.94659424,0.276062,-0.578125,0.015625,-0.5
1695647590471,-0.24511719,-0.9446411,0.28485107,0.234375,0.03125,0.046875
1695647590515,-0.23461914,-0.94854736,0.27313232,-0.625,-0.09375,0.046875
1695647590550,-0.24414062,-0.94366455,0.2772827,-0.46875,-0.0625,-0.1875
1695647590589,-0.24365234,-0.9536743,0.27020264,-0.53125,-1.140625,-0.421875
1695647590631,-0.22363281,-0.927063,0.25872803,0.421875,-0.609375,-1.734375
1695647590670,-0.25439453,-0.94122314,0.26922607,0.421875,0.140625,-1.46875
1695647590710,-0.25732422,-0.96417236,0.27972412,-0.421875,0.140625,-0.375
1695647590751,-0.24707031,-0.96710205,0.27386475,-1.640625,0.359375,-0.21875
1695647590790,-0.23144531,-0.9273071,0.27215576,-0.34375,1.359375,-0.59375
1695647590830,-0.24365234,-0.9495239,0.2741089,-1.03125,-1.296875,-0.421875
1695647590852,-0.23413086,-0.92144775,0.27557373,0.28125,1.796875,-0.578125
1695647590910,-0.2409668,-0.9468384,0.27459717,-0.171875,-0.171875,-0.21875
1695647590929,-0.23657227,-0.93341064,0.27581787,0.015625,0.96875,-0.25
1695647590970,-0.24414062,-0.942688,0.28045654,0.328125,0.109375,-0.171875
1695647591010,-0.24438477,-0.942688,0.27020264,0.625,-0.515625,-0.296875
1695647591051,-0.24731445,-0.9446411,0.27044678,0.46875,-0.625,-0.3125
1695647591092,-0.24951172,-0.9619751,0.28411865,-0.71875,-0.078125,-0.625
1695647591133,-0.23632812,-0.9417114,0.27264404,0.03125,0.296875,-1.5
1695647591170,-0.23730469,-0.9385376,0.2711792,-0.75,-0.09375,-1.15625
1695647591210,-0.25097656,-0.92755127,0.27313232,0.5,-0.640625,-1.015625
1695647591249,-0.24902344,-0.9517212,0.28240967,0.703125,0.421875,-0.640625
1695647591289,-0.25341797,-0.9602661,0.27972412,-1.046875,0.625,-0.5
1695647591331,-0.25561523,-0.9365845,0.2694702,-0.84375,0.5,-0.4375
1695647591370,-0.24365234,-0.9365845,0.29119873,-0.234375,0.046875,0.125
1695647591416,-0.25195312,-0.94195557,0.24578857,-1.78125,0.234375,-0.078125
1695647591450,-0.26000977,-0.9458618,0.2982788,1.328125,-0.25,-0.015625
1695647591511,-0.23242188,-0.93218994,0.2694702,-1.390625,1.578125,-1.40625
1695647591549,-0.24707031,-0.9456177,0.2880249,-0.984375,1.234375,-0.5
1695647591568,-0.24414062,-0.9470825,0.28411865,-0.609375,-1.234375,-0.9375
1695647591629,-0.24829102,-0.9229126,0.26605225,-0.8125,-1.953125,-1.390625
1695647591648,-0.25561523,-0.93096924,0.2880249,-0.15625,-0.046875,-1.515625
1695647591690,-0.24707031,-0.9612427,0.30413818,-2.875,-0.09375,-2.484375
1695647591730,-0.25927734,-0.96173096,0.28118896,-3.21875,-1.171875,-2.40625
1695647591769,-0.26953125,-0.94903564,0.29193115,-3.59375,-0.828125,-1.5625
1695647591809,-0.2565918,-0.93463135,0.29779053,-3.96875,-1.0625,-2.234375
1695647591852,-0.2602539,-0.91778564,0.30804443,-2.6875,-0.390625,-1.6875
1695647591890,-0.26123047,-0.94537354,0.28851318,-5.09375,-1.28125,-0.984375
1695647591930,-0.2512207,-0.9182739,0.31243896,-4.96875,-0.390625,-2.21875
1695647591969,-0.27294922,-0.9036255,0.30560303,-3.234375,-2.03125,-3.1875
1695647592009,-0.29345703,-0.9234009,0.31072998,-3.515625,-0.6875,-2.515625
1695647592049,-0.29077148,-0.9121704,0.34100342,-1.234375,-0.296875,-0.984375
1695647592090,-0.2866211,-0.9116821,0.3114624,-0.875,-0.296875,-0.140625
1695647592130,-0.2849121,-0.89971924,0.33099365,0.796875,0.40625,-0.015625
1695647592169,-0.28027344,-0.9194946,0.33441162,0.65625,0.03125,0.078125
1695647592209,-0.2626953,-0.9356079,0.32489014,-0.0625,1.203125,-0.5
1695647592271,-0.25634766,-0.923645,0.34197998,0.171875,-0.140625,-1.390625
1695647592309,-0.296875,-0.94122314,0.31976318,-0.34375,-2.5,-0.890625
1695647592328,-0.29345703,-0.90875244,0.31365967,-0.265625,-0.75,-1.75
1695647592369,-0.28735352,-0.9116821,0.32855225,0.109375,1.25,-0.875
1695647592409,-0.28320312,-0.9390259,0.34002686,-0.375,0.359375,-1.1875
1695647592449,-0.27514648,-0.9133911,0.3209839,0.3125,0.5625,-0.34375
1695647592470,-0.27246094,-0.9138794,0.32757568,0.96875,-0.953125,-0.328125
1695647592512,-0.29614258,-0.90826416,0.31854248,0.28125,-0.75,-1.0625
1695647592592,-0.28198242,-0.92803955,0.32147217,-0.578125,0.609375,-1.34375
1695647592599,-0.28344727,-0.92852783,0.31756592,-0.578125,-0.703125,-1.625
1695647592628,-0.27978516,-0.9024048,0.33270264,0.28125,2.203125,-0.984375
1695647592670,-0.2915039,-0.91363525,0.3204956,0.265625,-1.734375,-0.609375
1695647592709,-0.27246094,-0.90582275,0.32196045,0.359375,0.828125,-1.03125
1695647592749,-0.29492188,-0.927063,0.33465576,0.46875,0.53125,-0.640625
1695647592790,-0.30151367,-0.91363525,0.33465576,0.796875,-0.578125,-0.71875
1695647592831,-0.30126953,-0.9187622,0.30682373,0.84375,-0.859375,-0.78125
1695647592873,-0.29663086,-0.9277954,0.31732178,0.25,-1.84375,-1.28125
1695647592909,-0.31835938,-0.92437744,0.3036499,-0.40625,-0.828125,-2.046875
1695647592950,-0.2602539,-0.8887329,0.31219482,-0.84375,1.9375,-2.9375
1695647592990,-0.27441406,-0.9380493,0.3283081,-1.390625,-0.953125,-5.28125
1695647593031,-0.3190918,-0.9385376,0.32977295,-1.453125,-2.390625,-3.109375
1695647593069,-0.34375,-0.9036255,0.31732178,-0.1875,-2.5,-1.484375
1695647593109,-0.3017578,-0.88946533,0.3258667,-2.296875,-0.296875,-2.625
1695647593153,-0.31347656,-0.90411377,0.32635498,-0.890625,-1.09375,-2.203125
1695647593191,-0.3334961,-0.91363525,0.35247803,-0.4375,-0.125,-1.03125
1695647593232,-0.32983398,-0.9246216,0.31219482,-1.03125,0.796875,0.90625
1695647593272,-0.3334961,-0.90875244,0.35638428,-0.28125,-0.96875,0.734375
1695647593308,-0.3095703,-0.8875122,0.3036499,-1.640625,-0.609375,-0.5
1695647593351,-0.3215332,-0.91070557,0.3373413,-0.453125,1.390625,1.296875
1695647593394,-0.32543945,-0.927063,0.35125732,-1.4375,0.71875,1.53125
1695647593429,-0.3173828,-0.9168091,0.32489014,-1.9375,0.53125,1.078125
1695647593470,-0.31079102,-0.8936157,0.3397827,-1.390625,-0.875,-0.015625
1695647593508,-0.31176758,-0.8899536,0.3287964,-1.484375,-0.578125,-0.546875
1695647593550,-0.3178711,-0.89263916,0.33636475,-0.9375,1.078125,-1.078125
1695647593592,-0.31713867,-0.9133911,0.354187,-0.140625,0.484375,-0.234375
1695647593630,-0.3125,-0.91851807,0.34490967,-0.890625,-0.234375,-0.390625
1695647593670,-0.3088379,-0.9072876,0.3444214,-0.828125,-0.28125,-0.296875
1695647593709,-0.30737305,-0.8945923,0.34320068,-0.625,-0.8125,-0.390625
1695647593754,-0.3112793,-0.88409424,0.34979248,-0.921875,-0.40625,-0.375
1695647593791,-0.3305664,-0.9146118,0.35247803,-0.203125,-0.421875,0.40625
1695647593831,-0.3215332,-0.9085083,0.3366089,0.21875,0.09375,0.15625
1695647593870,-0.3088379,-0.8875122,0.35687256,1.359375,0.109375,-0.78125
1695647593910,-0.30444336,-0.89019775,0.32733154,1.171875,-0.375,-2.390625
1695647593952,-0.29907227,-0.9216919,0.3397827,0.71875,0.15625,-2.640625
1695647593992,-0.3190918,-0.909729,0.34661865,-0.140625,-0.40625,-2.546875
1695647594030,-0.3408203,-0.9031372,0.33416748,0.296875,-1.703125,-3.75
1695647594049,-0.34350586,-0.88409424,0.3493042,0.828125,-1.5625,-3.859375
1695647594088,-0.34838867,-0.9053345,0.3300171,-1.375,-2.546875,-3.84375
1695647594133,-0.3425293,-0.9026489,0.3451538,-0.90625,-0.171875,-2.890625
1695647594171,-0.34570312,-0.9014282,0.34906006,0.421875,-0.046875,-0.9375
1695647594212,-0.3413086,-0.8999634,0.35076904,-0.265625,-0.046875,-0.53125
1695647594250,-0.3334961,-0.88238525,0.33685303,-0.65625,-0.84375,0.09375
1695647594289,-0.34301758,-0.8875122,0.3397827,0.1875,-0.703125,1.0625
1695647594332,-0.3515625,-0.8948364,0.34173584,-0.25,0.59375,0.5625
1695647594378,-0.34350586,-0.8897095,0.35321045,0.703125,0.21875,-0.484375
1695647594429,-0.32885742,-0.881897,0.32781982,0.234375,2.34375,-0.609375
1695647594469,-0.34643555,-0.8999634,0.3649292,1.15625,-1.171875,1.0625
1695647594488,-0.3383789,-0.894104,0.32391357,0.953125,0.515625,0.0625
1695647594529,-0.34204102,-0.9014282,0.34100342,1.484375,0.03125,0.578125
1695647594569,-0.34887695,-0.91607666,0.35662842,0.375,-0.390625,0.546875
1695647594610,-0.34204102,-0.8982544,0.3390503,-0.671875,0.953125,-0.28125
1695647594650,-0.32861328,-0.89801025,0.33319092,-0.890625,-0.4375,-1.671875
1695647594689,-0.32910156,-0.88848877,0.32611084,-0.921875,0.75,-1.5625
1695647594729,-0.33740234,-0.8897095,0.34490967,-0.140625,0.421875,-1.109375
1695647594773,-0.3461914,-0.894104,0.3456421,0.546875,0.125,-0.6875
1695647594809,-0.34301758,-0.89971924,0.34002686,0.59375,0.046875,-0.375
1695647594850,-0.33642578,-0.8916626,0.33416748,0.65625,-0.125,-0.65625
1695647594891,-0.34594727,-0.8970337,0.33343506,0.171875,-0.578125,-0.5
1695647594929,-0.34301758,-0.8970337,0.32928467,0.28125,-0.546875,-0.140625
1695647594971,-0.34448242,-0.90826416,0.32073975,0.046875,-0.109375,-0.453125
1695647595011,-0.34301758,-0.88775635,0.34735107,0.765625,1.015625,-0.140625
1695647595050,-0.34765625,-0.894104,0.32684326,0.15625,-0.1875,-0.421875
1695647595095,-0.3425293,-0.8970337,0.33465576,1.046875,0.28125,0.421875
1695647595129,-0.34594727,-0.9055786,0.34100342,0.453125,-0.15625,0.921875
1695647595193,-0.34936523,-0.90753174,0.33831787,0.078125,0.703125,0.25
1695647595211,-0.3330078,-0.90997314,0.3378296,-0.703125,0.453125,0.0
1695647595250,-0.33203125,-0.89068604,0.33026123,-1.234375,-0.015625,-0.296875
1695647595314,-0.33740234,-0.8867798,0.33148193,-0.296875,-1.03125,-1.53125
1695647595360,-0.34375,-0.89508057,0.31951904,0.125,-2.390625,-1.3125
1695647595373,-0.34814453,-0.90289307,0.34246826,0.90625,0.609375,-0.9375
1695647595411,-0.34570312,-0.909729,0.34002686,-0.265625,0.09375,-0.921875
1695647595450,-0.34960938,-0.894104,0.33514404,0.078125,-0.375,-0.40625
1695647595493,-0.35498047,-0.89434814,0.33953857,-0.4375,-0.09375,-0.421875
1695647595531,-0.34838867,-0.87457275,0.34222412,0.625,0.5625,0.0625
1695647595572,-0.32714844,-0.88897705,0.33050537,0.28125,1.265625,0.046875
1695647595652,-0.35620117,-0.90704346,0.3583374,1.046875,-1.3125,0.1875
1695647595657,-0.32495117,-0.9019165,0.31951904,-0.453125,0.5,-0.953125
1695647595668,-0.3466797,-0.8911743,0.33172607,0.0625,0.125,-0.4375
1695647595711,-0.35205078,-0.88604736,0.34100342,0.828125,0.25,0.125
1695647595751,-0.3552246,-0.8933716,0.3390503,0.125,0.5,0.40625
1695647595795,-0.34545898,-0.90167236,0.3439331,-0.515625,0.421875,0.125
1695647595830,-0.3359375,-0.8982544,0.32489014,-0.375,1.296875,-1.140625
1695647595869,-0.3408203,-0.88653564,0.33587646,0.171875,0.8125,-0.5
1695647595909,-0.34716797,-0.8882446,0.3397827,0.796875,-0.25,-0.34375
1695647595950,-0.34423828,-0.89923096,0.33319092,0.65625,0.015625,-0.75
1695647595992,-0.34204102,-0.9036255,0.3390503,0.53125,-0.46875,-1.0
1695647596032,-0.35546875,-0.8994751,0.32904053,0.171875,-0.203125,-0.953125
1695647596074,-0.34960938,-0.89727783,0.33636475,0.328125,0.40625,-0.625
1695647596111,-0.34814453,-0.89141846,0.31658936,0.859375,0.0625,-0.234375
1695647596152,-0.35498047,-0.91485596,0.338562,1.25,-0.984375,0.359375
1695647596191,-0.35083008,-0.8987427,0.3209839,0.453125,1.359375,0.15625
1695647596230,-0.33740234,-0.89678955,0.33172607,0.203125,1.34375,0.4375
1695647596271,-0.34448242,-0.90216064,0.3324585,-0.1875,-0.390625,0.015625
1695647596310,-0.34692383,-0.8999634,0.3295288,-0.546875,0.15625,-0.21875
1695647596352,-0.3479004,-0.89630127,0.33758545,-0.15625,-0.8125,-0.140625
1695647596391,-0.34521484,-0.8994751,0.32073975,-0.515625,0.5625,-0.96875
1695647596434,-0.34179688,-0.8989868,0.34075928,-0.3125,0.828125,-0.578125
1695647596472,-0.34643555,-0.88775635,0.3378296,0.3125,-0.203125,-0.5
1695647596511,-0.34814453,-0.90167236,0.32977295,1.40625,-1.09375,-0.3125
1695647596550,-0.34057617,-0.89971924,0.32000732,0.0,0.796875,-0.34375
1695647596591,-0.33935547,-0.89727783,0.340271,-0.578125,0.65625,-0.234375
1695647596634,-0.3474121,-0.8999634,0.3258667,-0.671875,0.109375,-0.59375
1695647596673,-0.36132812,-0.9006958,0.30706787,-0.703125,-0.40625,0.03125
1695647596708,-0.35424805,-0.8858032,0.34051514,0.609375,0.890625,0.359375
1695647596749,-0.34936523,-0.8936157,0.3209839,0.34375,0.140625,-0.46875
1695647596792,-0.34033203,-0.9031372,0.3270874,0.578125,0.671875,0.078125
1695647596834,-0.34472656,-0.90582275,0.3427124,0.3125,0.171875,-0.390625
1695647596873,-0.34472656,-0.90167236,0.32904053,0.015625,-1.140625,-0.796875
1695647596913,-0.3503418,-0.9006958,0.32659912,-0.421875,-1.9375,-1.25
1695647596949,-0.34570312,-0.89801025,0.31610107,-1.125,-0.53125,-1.140625
1695647596990,-0.34643555,-0.9067993,0.34417725,-0.640625,0.671875,-0.859375
1695647597032,-0.35302734,-0.8960571,0.33221436,0.203125,0.28125,0.046875
1695647597071,-0.35229492,-0.8945923,0.3258667,0.90625,0.375,0.578125
1695647597111,-0.3408203,-0.9002075,0.3324585,1.109375,-0.359375,0.40625
1695647597149,-0.3503418,-0.90338135,0.32611084,0.15625,0.75,-0.0625
1695647597190,-0.3449707,-0.9006958,0.32684326,-0.59375,1.359375,0.296875
1695647597230,-0.35083008,-0.8977661,0.32000732,-0.796875,-0.0625,-0.28125
1695647597248,-0.33447266,-0.8777466,0.33294678,0.65625,1.890625,-0.25
1695647597291,-0.35131836,-0.8911743,0.31463623,0.75,-0.90625,-0.0625
1695647597329,-0.34765625,-0.9089966,0.32513428,0.796875,-0.390625,-1.0
1695647597391,-0.3466797,-0.9006958,0.3397827,0.28125,0.234375,-0.9375
1695647597408,-0.35668945,-0.90509033,0.3373413,-0.515625,-0.015625,-0.53125
1695647597449,-0.34960938,-0.8989868,0.33709717,-0.84375,-0.078125,-0.1875
1695647597492,-0.35107422,-0.89630127,0.32806396,-0.359375,-0.4375,0.4375
1695647597528,-0.3479004,-0.8936157,0.32562256,-0.015625,0.296875,0.8125
1695647597569,-0.34887695,-0.89678955,0.33172607,-0.828125,1.28125,0.53125
1695647597608,-0.35131836,-0.9036255,0.33270264,-0.140625,0.453125,0.4375
1695647597648,-0.33496094,-0.89630127,0.32757568,0.0,0.0,0.25
1695647597689,-0.34204102,-0.89385986,0.3312378,0.421875,-0.46875,0.46875
1695647597730,-0.34692383,-0.9014282,0.32391357,-0.21875,-0.296875,-0.28125
1695647597770,-0.34692383,-0.913147,0.3312378,-0.859375,-0.546875,-0.0625
1695647597810,-0.32910156,-0.87579346,0.3378296,-0.640625,2.1875,0.359375
1695647597852,-0.35107422,-0.8960571,0.32781982,-0.703125,-0.015625,0.21875
1695647597891,-0.34057617,-0.9048462,0.33148193,-0.375,0.09375,0.390625
1695647597931,-0.34204102,-0.9072876,0.33807373,0.3125,0.8125,0.515625
1695647597973,-0.3491211,-0.90704346,0.3366089,-0.125,0.015625,0.484375
1695647598010,-0.3388672,-0.8960571,0.3378296,-0.9375,0.75,-0.15625
1695647598049,-0.3330078,-0.89630127,0.34002686,-1.046875,0.65625,-0.015625
1695647598090,-0.33618164,-0.8867798,0.33148193,0.921875,-0.046875,-0.453125
1695647598131,-0.3413086,-0.89801025,0.32440186,1.328125,-1.21875,-0.796875
1695647598171,-0.33544922,-0.8960571,0.33636475,0.609375,-0.203125,-1.8125
1695647598210,-0.3310547,-0.89385986,0.3258667,-0.1875,-0.65625,-1.734375
1695647598249,-0.34936523,-0.9026489,0.33392334,0.125,-0.765625,-0.6875
1695647598291,-0.35131836,-0.90753174,0.33026123,-0.8125,0.0625,-1.3125
1695647598331,-0.35205078,-0.9060669,0.3390503,0.296875,-0.4375,-0.84375
1695647598370,-0.3400879,-0.8814087,0.33636475,-0.265625,2.15625,-0.5
1695647598410,-0.3395996,-0.8948364,0.3307495,-0.140625,0.5625,-0.171875
1695647598452,-0.33911133,-0.8965454,0.3373413,1.234375,0.203125,-0.21875
1695647598491,-0.34643555,-0.9060669,0.33172607,1.96875,-1.96875,0.125
1695647598532,-0.34692383,-0.90045166,0.32318115,0.875,-1.5625,-0.359375
1695647598568,-0.34960938,-0.9060669,0.32904053,-0.734375,0.21875,-0.21875
1695647598614,-0.34204102,-0.8970337,0.32196045,-1.484375,1.046875,-0.203125
1695647598657,-0.34057617,-0.88531494,0.33050537,-0.890625,1.109375,-0.5
1695647598690,-0.3540039,-0.8916626,0.34051514,1.46875,0.046875,0.546875
1695647598736,-0.34423828,-0.8987427,0.3307495,2.03125,-0.078125,-0.265625
1695647598769,-0.33666992,-0.90045166,0.32635498,0.421875,0.78125,-0.578125
1695647598815,-0.3413086,-0.9043579,0.32904053,-0.625,1.125,-0.078125
1695647598851,-0.3413086,-0.9053345,0.3234253,-0.90625,0.390625,-0.34375
1695647598869,-0.3479004,-0.8960571,0.33026123,0.328125,-0.40625,-0.1875
1695647598911,-0.33935547,-0.8804321,0.3390503,0.359375,1.40625,0.015625
1695647598970,-0.3474121,-0.8948364,0.32537842,-0.140625,0.203125,-0.515625
1695647598990,-0.33666992,-0.9038696,0.32659912,-0.03125,-0.421875,-0.84375
1695647599033,-0.3413086,-0.9024048,0.34197998,0.328125,-0.09375,-1.21875
1695647599071,-0.3564453,-0.9089966,0.33026123,0.109375,-1.109375,-0.84375
1695647599113,-0.34228516,-0.895813,0.33343506,0.375,-0.09375,-0.71875
1695647599151,-0.34716797,-0.89556885,0.31610107,-0.703125,0.34375,-0.75
1695647599191,-0.3486328,-0.89508057,0.33319092,-0.203125,1.0,-0.515625
1695647599233,-0.3552246,-0.9026489,0.32928467,-0.21875,0.234375,-0.515625
1695647599273,-0.34643555,-0.8977661,0.3366089,0.640625,0.078125,-0.171875
1695647599310,-0.34472656,-0.9019165,0.32440186,1.109375,-0.71875,0.203125
1695647599351,-0.34936523,-0.8987427,0.32733154,0.265625,0.625,0.078125
1695647599390,-0.34570312,-0.9060669,0.3312378,-0.40625,0.53125,-0.609375
1695647599431,-0.3503418,-0.90093994,0.32366943,-0.40625,-0.484375,-0.640625
1695647599473,-0.33374023,-0.88604736,0.3287964,0.375,2.078125,0.125
1695647599513,-0.3474121,-0.89263916,0.32855225,-0.0625,0.6875,-0.140625
1695647599550,-0.34155273,-0.897522,0.32440186,0.46875,0.171875,-0.265625
1695647599589,-0.34545898,-0.9024048,0.33929443,0.609375,-0.09375,-0.109375
1695647599631,-0.36376953,-0.90093994,0.33831787,1.296875,-1.328125,-0.53125
1695647599670,-0.3425293,-0.9026489,0.32757568,2.6875,-2.125,-0.625
1695647599737,-0.3408203,-0.89923096,0.30413818,-0.03125,-2.15625,-0.1875
1695647599752,-0.35302734,-0.90460205,0.30975342,-0.109375,0.109375,-0.34375
1695647599797,-0.35766602,-0.90875244,0.31610107,-1.34375,0.609375,-0.09375
1695647599830,-0.35473633,-0.8845825,0.32659912,0.0,1.109375,0.390625
1695647599872,-0.34448242,-0.89801025,0.32684326,-0.171875,0.21875,-0.328125
1695647599911,-0.33984375,-0.89068604,0.32659912,-0.15625,0.375,-0.875
1695647599952,-0.35620117,-0.90704346,0.31585693,-1.4375,0.125,-0.359375
1695647599988,-0.34692383,-0.89068604,0.340271,0.25,0.6875,-1.015625
1695647600030,-0.33129883,-0.88067627,0.33514404,1.453125,0.96875,-0.984375
1695647600072,-0.3635254,-0.9072876,0.3295288,0.9375,-0.953125,0.109375
1695647600110,-0.34985352,-0.90997314,0.30828857,0.203125,1.03125,0.78125
1695647600150,-0.34204102,-0.9102173,0.32659912,0.203125,3.46875,0.515625
1695647600191,-0.34350586,-0.89801025,0.3324585,-0.46875,0.609375,-0.1875
1695647600233,-0.35668945,-0.8843384,0.3336792,1.328125,-0.171875,0.453125
1695647600292,-0.35058594,-0.89727783,0.3204956,1.984375,-1.015625,-0.078125
1695647600310,-0.32641602,-0.89434814,0.31243896,0.59375,0.5,-0.90625
1695647600350,-0.34033203,-0.9133911,0.32537842,-0.640625,0.265625,-0.796875
1695647600410,-0.35498047,-0.90802,0.3241577,-1.34375,-0.296875,-0.609375
1695647600429,-0.34228516,-0.8887329,0.32318115,-0.25,0.5,-0.3125
1695647600449,-0.34448242,-0.8928833,0.3234253,-0.140625,-0.453125,-0.25
1695647600492,-0.35717773,-0.8928833,0.3312378,-0.265625,-0.296875,-0.6875
1695647600532,-0.34887695,-0.88946533,0.34100342,0.359375,-0.078125,-1.0
1695647600571,-0.33520508,-0.8965454,0.3168335,0.6875,0.390625,-0.96875
1695647600613,-0.36206055,-0.90802,0.3270874,0.578125,-1.3125,-0.515625
1695647600653,-0.3503418,-0.89849854,0.31195068,1.203125,0.234375,0.09375
1695647600693,-0.3425293,-0.8960571,0.31829834,0.78125,1.59375,-0.421875
1695647600735,-0.3544922,-0.90704346,0.33221436,-0.484375,0.34375,-0.4375
1695647600769,-0.35473633,-0.895813,0.32733154,0.265625,0.046875,-0.71875
1695647600811,-0.35620117,-0.8904419,0.33709717,1.546875,-1.3125,-0.671875
1695647600850,-0.34814453,-0.9143677,0.31585693,0.640625,-0.890625,-0.1875
1695647600892,-0.34570312,-0.9026489,0.31048584,0.53125,0.421875,-0.0625
1695647600934,-0.3552246,-0.90093994,0.31732178,-0.796875,-0.15625,0.015625
1695647600970,-0.34521484,-0.8953247,0.31781006,-0.6875,0.625,0.25
1695647601010,-0.3527832,-0.89727783,0.32366943,-0.1875,0.375,0.171875
1695647601052,-0.35253906,-0.89801025,0.32244873,0.265625,0.375,0.140625
1695647601092,-0.35083008,-0.89678955,0.3139038,-0.390625,0.78125,-0.59375
1695647601132,-0.35351562,-0.9092407,0.3204956,-1.171875,-0.390625,0.0625
1695647601171,-0.33911133,-0.8999634,0.3241577,-0.109375,0.65625,-0.15625
1695647601210,-0.34228516,-0.89190674,0.31732178,1.15625,0.6875,0.21875
1695647601252,-0.34228516,-0.90704346,0.3168335,1.359375,0.71875,0.3125
1695647601291,-0.3413086,-0.8999634,0.32562256,1.484375,-0.140625,0.09375
1695647601333,-0.34692383,-0.9036255,0.31610107,-0.046875,0.984375,-0.0625
1695647601372,-0.3425293,-0.91070557,0.32244873,-0.546875,1.046875,0.5
1695647601410,-0.35375977,-0.894104,0.3270874,-0.421875,0.5,0.5
1695647601452,-0.34594727,-0.8977661,0.31878662,1.875,0.1875,0.296875
1695647601491,-0.34033203,-0.90753174,0.31121826,0.8125,-0.453125,0.21875
1695647601530,-0.3466797,-0.913147,0.31610107,0.515625,0.515625,-0.359375
1695647601571,-0.33569336,-0.8965454,0.309021,-0.140625,0.296875,-0.171875
1695647601612,-0.34155273,-0.90460205,0.31781006,-1.1875,0.359375,-0.328125
1695647601652,-0.3466797,-0.90460205,0.32318115,-0.15625,0.46875,-0.15625
1695647601692,-0.34155273,-0.8970337,0.31732178,-0.09375,0.484375,-0.78125
1695647601731,-0.34326172,-0.90875244,0.31219482,-0.421875,0.5,-0.265625
1695647601770,-0.34887695,-0.9067993,0.33099365,-0.8125,-0.171875,-0.78125
1695647601810,-0.33740234,-0.90045166,0.31658936,0.328125,0.234375,-0.3125
1695647601851,-0.34204102,-0.89971924,0.32684326,2.265625,1.234375,0.453125
1695647601890,-0.34960938,-0.91363525,0.31414795,0.71875,-1.140625,-0.453125
1695647601931,-0.34643555,-0.9102173,0.3102417,0.140625,0.40625,-0.625
1695647601971,-0.3359375,-0.9038696,0.31585693,-1.90625,0.421875,0.015625
1695647602013,-0.35180664,-0.90509033,0.3217163,-0.796875,0.328125,0.15625
1695647602052,-0.34472656,-0.9011841,0.31488037,0.125,0.609375,-0.375
1695647602068,-0.34985352,-0.90802,0.32147217,0.40625,0.0,-0.15625
1695647602110,-0.33764648,-0.91290283,0.32269287,-0.046875,0.109375,-0.0625
1695647602150,-0.33618164,-0.8989868,0.32025146,-0.125,0.328125,-0.53125
1695647602191,-0.34765625,-0.90704346,0.32000732,0.546875,-0.546875,-0.421875
1695647602229,-0.3449707,-0.90704346,0.31732178,-0.265625,-0.078125,-0.03125
1695647602270,-0.35083008,-0.9011841,0.3204956,1.390625,0.28125,0.15625
1695647602309,-0.34179688,-0.909729,0.29803467,-0.796875,1.53125,-0.953125
1695647602350,-0.34545898,-0.9146118,0.32977295,-0.53125,0.921875,0.09375
1695647602389,-0.3466797,-0.89190674,0.3258667,1.671875,0.296875,0.28125
1695647602428,-0.34960938,-0.91412354,0.3139038,3.640625,-1.234375,0.78125
1695647602469,-0.34155273,-0.9104614,0.2970581,-0.25,-0.4375,-0.75
1695647602511,-0.3317871,-0.9151001,0.29901123,-0.890625,1.3125,-0.296875
1695647602572,-0.33374023,-0.90338135,0.30316162,-2.59375,1.34375,0.609375
1695647602588,-0.34838867,-0.8977661,0.32147217,0.0625,0.796875,1.828125
1695647602630,-0.34423828,-0.9019165,0.30999756,1.46875,-0.1875,0.359375
1695647602670,-0.32666016,-0.9089966,0.3078003,0.4375,-0.234375,-0.4375
1695647602712,-0.32983398,-0.9170532,0.31732178,-1.296875,0.359375,-0.53125
1695647602750,-0.3232422,-0.90045166,0.31903076,-1.375,0.53125,-0.421875
1695647602793,-0.3347168,-0.89630127,0.32196045,0.703125,-0.015625,-0.328125
1695647602831,-0.34472656,-0.9151001,0.31610107,0.921875,-1.171875,0.34375
1695647602870,-0.32958984,-0.9187622,0.31414795,0.515625,0.28125,0.453125
1695647602909,-0.33642578,-0.9192505,0.30682373,-1.9375,0.0625,0.453125
1695647602951,-0.3310547,-0.8831177,0.31781006,-0.421875,2.171875,-0.171875
1695647602990,-0.32617188,-0.89434814,0.30828857,0.4375,0.25,-0.125
1695647603029,-0.3244629,-0.9116821,0.30560303,1.53125,0.484375,0.5
1695647603070,-0.33154297,-0.9299927,0.32537842,0.375,-0.15625,-0.3125
1695647603109,-0.33691406,-0.9102173,0.3180542,-0.640625,0.15625,-1.0625
1695647603151,-0.32836914,-0.88726807,0.3241577,0.078125,0.875,-1.515625
1695647603192,-0.3359375,-0.9060669,0.32391357,0.796875,-1.21875,-0.53125
1695647603250,-0.32983398,-0.9143677,0.32025146,0.96875,-0.921875,-0.609375
1695647603269,-0.34960938,-0.9109497,0.30438232,1.171875,0.515625,-0.53125
1695647603314,-0.3334961,-0.91070557,0.3168335,-0.125,0.140625,-0.703125
1695647603351,-0.32714844,-0.9060669,0.2999878,-0.109375,-0.03125,-0.5625
1695647603395,-0.34350586,-0.8982544,0.30682373,0.75,0.015625,-0.1875
1695647603431,-0.3383789,-0.91290283,0.31414795,0.640625,-0.28125,-0.578125
1695647603472,-0.33984375,-0.9168091,0.31243896,-0.140625,0.578125,0.125
1695647603516,-0.34057617,-0.9133911,0.31243896,0.3125,0.125,-0.4375
1695647603549,-0.32641602,-0.87872314,0.31341553,0.046875,1.5625,-1.234375
1695647603591,-0.3305664,-0.90753174,0.3060913,-0.390625,0.015625,-0.421875
1695647603674,-0.3383789,-0.9187622,0.2958374,0.890625,0.0625,-0.015625
1695647603680,-0.33569336,-0.9126587,0.32366943,0.953125,0.125,-0.90625
1695647603690,-0.34692383,-0.90948486,0.30706787,-0.5625,-0.53125,-0.203125
1695647603733,-0.33276367,-0.8977661,0.30560303,-0.546875,1.078125,-0.015625
1695647603769,-0.33496094,-0.8904419,0.31951904,0.671875,0.203125,0.21875
1695647603811,-0.34301758,-0.9151001,0.30950928,0.421875,-0.609375,0.375
1695647603850,-0.33642578,-0.90802,0.30633545,0.5,1.03125,0.203125
1695647603897,-0.3317871,-0.9065552,0.31463623,0.09375,0.75,-0.390625
1695647603930,-0.32421875,-0.9146118,0.30584717,0.1875,0.078125,0.046875
1695647603971,-0.33447266,-0.90704346,0.31903076,0.265625,-0.453125,-0.28125
1695647604010,-0.33422852,-0.9146118,0.31072998,1.046875,-0.8125,-0.484375
1695647604049,-0.33789062,-0.9116821,0.3007202,0.15625,-0.0625,-0.390625
1695647604093,-0.33251953,-0.91119385,0.31536865,0.140625,0.84375,0.015625
1695647604132,-0.3305664,-0.90753174,0.30633545,-0.734375,0.921875,-0.296875
1695647604169,-0.33691406,-0.91534424,0.31243896,-0.515625,0.265625,0.078125
1695647604211,-0.33032227,-0.9065552,0.2921753,-0.40625,0.296875,-0.53125
1695647604256,-0.33422852,-0.90582275,0.30804443,0.90625,1.625,-0.296875
1695647604291,-0.34204102,-0.91070557,0.32196045,0.671875,-0.234375,-0.5
1695647604332,-0.33496094,-0.9126587,0.31585693,0.953125,-0.28125,-0.375
1695647604372,-0.3334961,-0.91534424,0.2929077,0.3125,-0.265625,0.03125
1695647604412,-0.33447266,-0.9187622,0.30584717,-0.25,0.578125,0.953125
1695647604449,-0.32250977,-0.9143677,0.3012085,-0.3125,0.34375,0.015625
1695647604492,-0.32666016,-0.9060669,0.3060913,0.359375,0.90625,0.140625
1695647604533,-0.32788086,-0.9036255,0.31195068,0.234375,0.375,0.5
1695647604570,-0.32885742,-0.91534424,0.3036499,0.359375,-0.703125,0.15625
1695647604611,-0.33374023,-0.8989868,0.3053589,-0.21875,0.9375,-0.203125
1695647604653,-0.32080078,-0.9133911,0.30462646,-0.40625,-0.359375,-0.578125
1695647604691,-0.3293457,-0.9036255,0.31195068,0.5,0.015625,0.21875
1695647604734,-0.32958984,-0.92071533,0.3012085,0.140625,-0.796875,-0.328125
1695647604772,-0.33691406,-0.9151001,0.30755615,0.625,0.0625,-0.203125
1695647604812,-0.32885742,-0.9031372,0.2994995,0.625,0.234375,-0.140625
1695647604851,-0.32080078,-0.90338135,0.3024292,1.515625,1.5625,0.015625
1695647604896,-0.33032227,-0.91778564,0.31072998,0.625,-0.0625,0.0625
1695647604931,-0.3310547,-0.9175415,0.3007202,0.921875,0.640625,0.4375
1695647604971,-0.32373047,-0.90093994,0.29901123,1.203125,-0.390625,-0.015625
1695647605012,-0.3388672,-0.90997314,0.29486084,0.0,-0.75,0.09375
1695647605049,-0.3190918,-0.91363525,0.28900146,0.015625,0.453125,0.015625
1695647605092,-0.33007812,-0.9168091,0.2999878,0.40625,0.921875,0.03125
1695647605131,-0.3251953,-0.91851807,0.3048706,-0.015625,0.484375,-0.0625
1695647605170,-0.32177734,-0.91070557,0.3024292,0.328125,0.109375,0.109375
1695647605212,-0.33203125,-0.9175415,0.29901123,0.171875,-0.203125,-0.125
1695647605271,-0.32714844,-0.91241455,0.30267334,0.328125,0.140625,-0.140625
1695647605292,-0.31884766,-0.9163208,0.293396,-0.46875,0.59375,-0.171875
1695647605310,-0.32373047,-0.9265747,0.30291748,0.265625,-0.1875,0.484375
1695647605372,-0.32836914,-0.89849854,0.30804443,0.359375,0.96875,-0.359375
1695647605389,-0.31640625,-0.90802,0.30560303,0.453125,0.953125,0.125
1695647605431,-0.3166504,-0.9077759,0.29412842,0.578125,0.390625,0.546875
1695647605469,-0.3256836,-0.9224243,0.30145264,1.015625,0.125,-0.09375
1695647605532,-0.3215332,-0.9204712,0.2982788,0.625,0.609375,0.046875
1695647605548,-0.31323242,-0.90704346,0.29779053,0.3125,0.453125,0.03125
1695647605591,-0.31933594,-0.9126587,0.31195068,1.09375,-1.140625,0.359375
1695647605631,-0.32348633,-0.92803955,0.28729248,0.640625,-1.140625,-0.5
1695647605671,-0.3166504,-0.91900635,0.28338623,0.140625,0.125,0.15625
1695647605712,-0.32080078,-0.92071533,0.2999878,0.5625,0.75,0.546875
1695647605749,-0.31396484,-0.9209595,0.28411865,0.390625,0.65625,0.265625
1695647605790,-0.31567383,-0.91241455,0.29364014,-0.484375,0.625,-0.265625
1695647605830,-0.31958008,-0.91851807,0.29510498,0.15625,0.0,-0.5625
1695647605871,-0.32006836,-0.92071533,0.2904663,-0.46875,0.578125,-0.625
1695647605912,-0.31469727,-0.9163208,0.31072998,0.109375,0.15625,-0.53125
1695647605952,-0.31225586,-0.9089966,0.29656982,-0.296875,0.140625,-1.09375
1695647605990,-0.32421875,-0.9212036,0.3012085,-0.015625,-0.171875,-0.03125
1695647606030,-0.32104492,-0.9133911,0.28656006,0.5625,0.390625,-0.21875
1695647606073,-0.31298828,-0.9229126,0.29632568,0.765625,1.125,-0.171875
1695647606112,-0.3244629,-0.91656494,0.2975464,-0.171875,0.765625,0.046875
1695647606173,-0.32006836,-0.91778564,0.2946167,0.046875,0.703125,-0.40625
1695647606190,-0.31591797,-0.9138794,0.29364014,0.171875,-0.390625,-0.390625
1695647606255,-0.32983398,-0.9229126,0.29632568,0.671875,-0.765625,-0.28125
1695647606270,-0.3239746,-0.9192505,0.291687,-0.078125,0.421875,-0.046875
1695647606312,-0.31982422,-0.9221802,0.29730225,0.15625,0.1875,-0.328125
1695647606353,-0.31323242,-0.91656494,0.29803467,0.59375,-0.296875,0.109375
1695647606390,-0.3251953,-0.9143677,0.28997803,1.015625,-0.71875,0.5
1695647606432,-0.31176758,-0.92071533,0.28094482,0.46875,-0.421875,0.296875
1695647606471,-0.31811523,-0.9168091,0.28826904,0.328125,0.609375,-0.546875
1695647606511,-0.3154297,-0.9221802,0.2929077,0.890625,-0.4375,0.09375
1695647606553,-0.3215332,-0.9338989,0.2831421,0.484375,-1.234375,-0.1875
1695647606589,-0.3203125,-0.9170532,0.26971436,-0.59375,0.484375,-0.0625
1695647606633,-0.29785156,-0.9121704,0.27825928,-0.59375,2.421875,0.421875
1695647606676,-0.31298828,-0.9216919,0.28704834,0.703125,1.078125,1.34375
1695647606709,-0.3239746,-0.9265747,0.29779053,0.578125,0.46875,0.0625
1695647606750,-0.31347656,-0.91534424,0.2929077,0.703125,-0.28125,-0.65625
1695647606790,-0.30419922,-0.9077759,0.293396,0.90625,-0.5625,-0.53125
1695647606830,-0.31274414,-0.9326782,0.28826904,0.34375,-0.640625,-0.0625
1695647606890,-0.30932617,-0.9260864,0.29144287,0.09375,0.0,-0.625
1695647606895,-0.32226562,-0.9085083,0.28778076,0.8125,0.015625,-0.5
1695647606930,-0.31420898,-0.9199829,0.2838745,0.640625,0.375,0.3125
1695647606970,-0.3112793,-0.92266846,0.27850342,0.515625,-0.046875,-0.015625
1695647607010,-0.31176758,-0.9246216,0.28240967,0.546875,0.296875,-0.078125
1695647607051,-0.31030273,-0.9216919,0.27825928,0.09375,0.5,-0.640625
1695647607091,-0.30859375,-0.92071533,0.28778076,0.296875,0.25,-0.75
1695647607131,-0.32104492,-0.92926025,0.28826904,0.703125,-0.9375,-0.46875
1695647607182,-0.32006836,-0.9067993,0.29071045,0.203125,0.375,-0.75
1695647607210,-0.30151367,-0.92266846,0.2819214,-0.25,1.234375,-0.25
1695647607253,-0.31201172,-0.925354,0.27459717,-0.234375,1.15625,-0.625
1695647607291,-0.30688477,-0.9241333,0.29364014,0.859375,0.96875,0.171875
1695647607336,-0.32348633,-0.9248657,0.28582764,0.1875,0.34375,-0.015625
1695647607375,-0.30493164,-0.91973877,0.28704834,0.21875,-0.1875,-0.203125
1695647607410,-0.31420898,-0.928772,0.27752686,-0.484375,-0.671875,-0.75
1695647607451,-0.31933594,-0.9299927,0.28045654,0.1875,-0.40625,-0.328125
1695647607492,-0.31298828,-0.91363525,0.2789917,0.34375,0.359375,-0.171875
1695647607531,-0.31152344,-0.92852783,0.28948975,0.515625,1.25,0.40625
1695647607572,-0.31347656,-0.9180298,0.2814331,0.546875,0.46875,-0.046875
1695647607609,-0.3088379,-0.9187622,0.28582764,0.015625,-0.296875,-0.265625
1695647607652,-0.3161621,-0.9324341,0.27630615,-0.390625,-0.328125,-0.359375
1695647607693,-0.3071289,-0.91656494,0.27874756,0.3125,0.96875,-0.3125
1695647607730,-0.31054688,-0.93096924,0.28704834,-0.125,-0.46875,-0.09375
1695647607771,-0.30786133,-0.89923096,0.29119873,1.015625,1.125,-0.375
1695647607810,-0.30932617,-0.9199829,0.28118896,0.296875,-0.171875,-0.71875
1695647607851,-0.30639648,-0.9216919,0.27215576,0.578125,-0.109375,-0.296875
1695647607892,-0.31713867,-0.92755127,0.29119873,0.609375,0.0625,-0.296875
1695647607931,-0.3149414,-0.9314575,0.27630615,-0.296875,0.46875,-0.53125
1695647607970,-0.30664062,-0.91241455,0.28240967,0.28125,1.546875,0.03125
1695647608009,-0.31201172,-0.9224243,0.2838745,0.6875,-0.03125,0.234375
1695647608051,-0.31958008,-0.92193604,0.28363037,0.296875,-0.1875,-0.09375
1695647608093,-0.31762695,-0.9326782,0.27825928,1.21875,-0.359375,-0.609375
1695647608130,-0.3088379,-0.9336548,0.27874756,0.484375,-0.046875,0.015625
1695647608172,-0.3059082,-0.92803955,0.2682495,-0.203125,0.734375,-0.421875
1695647608211,-0.29956055,-0.9258423,0.28826904,-0.09375,0.203125,-0.359375
1695647608253,-0.31054688,-0.9224243,0.27996826,0.171875,0.546875,-0.28125
1695647608292,-0.32080078,-0.92022705,0.2826538,0.609375,-1.234375,0.359375
1695647608330,-0.32421875,-0.9260864,0.28582764,1.078125,-1.03125,-0.59375
1695647608371,-0.29736328,-0.9241333,0.26898193,-0.828125,0.234375,-0.734375
1695647608412,-0.30737305,-0.93585205,0.27093506,-0.546875,1.296875,1.15625
1695647608492,-0.29711914,-0.9104614,0.26727295,0.359375,2.3125,0.4375
1695647608498,-0.3076172,-0.91119385,0.28851318,0.984375,1.375,0.09375
1695647608508,-0.31103516,-0.92755127,0.2753296,0.078125,0.296875,-0.390625
1695647608552,-0.3100586,-0.9277954,0.28167725,-0.078125,0.09375,-1.0
1695647608592,-0.30908203,-0.92633057,0.2662964,0.5,0.875,-1.328125
1695647608630,-0.31347656,-0.92681885,0.2802124,-0.5625,-0.5,0.390625
1695647608670,-0.30688477,-0.92022705,0.28411865,0.484375,0.203125,-0.671875
1695647608710,-0.31567383,-0.92559814,0.28045654,1.796875,-0.9375,-0.203125
1695647608750,-0.31518555,-0.9282837,0.2675171,0.90625,0.234375,-0.34375
1695647608791,-0.30297852,-0.9299927,0.27313232,-0.34375,0.8125,0.546875
1695647608829,-0.31152344,-0.9241333,0.276062,-0.15625,0.328125,-0.28125
1695647608870,-0.3022461,-0.92510986,0.26971436,0.28125,0.484375,-0.09375
1695647608908,-0.31469727,-0.9258423,0.27825928,0.96875,-1.09375,0.140625
1695647608948,-0.30419922,-0.94073486,0.25946045,-0.609375,-1.8125,-0.921875
1695647608989,-0.30639648,-0.9368286,0.25994873,-0.453125,1.125,0.140625
1695647609028,-0.29760742,-0.9151001,0.2675171,0.546875,1.171875,-0.140625
1695647609069,-0.30932617,-0.9221802,0.27703857,0.234375,0.40625,-0.265625
1695647609111,-0.3161621,-0.92974854,0.2753296,0.3125,-0.015625,-0.84375
1695647609151,-0.30981445,-0.9319458,0.27191162,0.3125,0.78125,-1.3125
1695647609192,-0.30541992,-0.91119385,0.27679443,0.5625,0.84375,-0.78125
1695647609229,-0.3215332,-0.9336548,0.27313232,0.359375,-1.8125,-0.34375
1695647609271,-0.31689453,-0.92803955,0.26361084,1.546875,-0.640625,-0.828125
1695647609311,-0.31518555,-0.9248657,0.2670288,0.359375,-0.140625,-0.1875
1695647609355,-0.31469727,-0.92926025,0.26605225,0.140625,0.328125,0.0625
1695647609391,-0.3166504,-0.91729736,0.25872803,-0.40625,0.46875,0.21875
1695647609432,-0.30615234,-0.9295044,0.26190186,0.09375,1.078125,0.109375
1695647609473,-0.30932617,-0.9209595,0.2670288,0.15625,0.671875,-0.078125
1695647609513,-0.31152344,-0.9336548,0.27142334,0.265625,0.21875,0.0625
1695647609550,-0.3076172,-0.9380493,0.2645874,-0.296875,-0.59375,-0.359375
1695647609591,-0.30200195,-0.911438,0.2753296,0.890625,0.640625,-0.3125
1695647609631,-0.30322266,-0.91778564,0.27069092,-0.09375,0.46875,0.28125
1695647609671,-0.30517578,-0.9282837,0.2675171,0.359375,0.953125,0.328125
1695647609713,-0.30249023,-0.94122314,0.27581787,0.90625,-0.25,-0.1875
1695647609752,-0.31225586,-0.9319458,0.26922607,-0.140625,-0.046875,-0.15625
1695647609790,-0.30737305,-0.91607666,0.26434326,-0.46875,0.640625,-0.21875
1695647609830,-0.296875,-0.91900635,0.26922607,0.5625,-0.109375,0.390625
1695647609872,-0.30981445,-0.92510986,0.27020264,0.703125,0.03125,0.0625
1695647609913,-0.30859375,-0.93341064,0.26361084,0.5625,-0.203125,-0.203125
1695647609953,-0.30004883,-0.91729736,0.27264404,0.625,0.625,-0.359375
1695647609993,-0.3083496,-0.940979,0.26727295,0.671875,-0.875,0.421875
1695647610036,-0.30371094,-0.93536377,0.26141357,-0.28125,0.0,-0.171875
1695647610072,-0.31030273,-0.93414307,0.26190186,-0.0625,0.921875,-0.8125
1695647610090,-0.30908203,-0.9295044,0.26849365,0.359375,0.84375,-0.078125
1695647610131,-0.3076172,-0.9404907,0.26116943,-0.109375,-0.078125,-0.0625
1695647610171,-0.3034668,-0.9121704,0.27923584,0.78125,1.203125,-0.234375
1695647610212,-0.3017578,-0.92071533,0.27044678,0.421875,0.171875,-0.5625
1695647610251,-0.30981445,-0.93585205,0.26361084,0.359375,0.421875,-0.390625
1695647610292,-0.29614258,-0.9336548,0.27386475,0.484375,0.34375,-0.359375
1695647610329,-0.31054688,-0.9312134,0.26141357,-0.09375,-0.0625,-0.75
1695647610371,-0.30200195,-0.9158325,0.26678467,0.375,0.21875,-0.703125
1695647610415,-0.3076172,-0.92926025,0.26971436,0.65625,0.359375,-0.5625
1695647610450,-0.29614258,-0.92266846,0.2662964,0.328125,0.515625,-0.09375
1695647610498,-0.31201172,-0.93536377,0.26605225,0.546875,-0.640625,-0.625
1695647610550,-0.31835938,-0.93414307,0.26531982,0.234375,-0.703125,-0.59375
1695647610569,-0.30371094,-0.9307251,0.26190186,0.453125,0.25,-0.46875
1695647610611,-0.3095703,-0.9216919,0.26434326,-0.59375,0.125,-0.15625
1695647610651,-0.31420898,-0.92022705,0.2543335,0.15625,-0.03125,-0.546875
1695647610692,-0.3095703,-0.93341064,0.26287842,-0.046875,0.34375,0.0
1695647610731,-0.30664062,-0.92926025,0.26385498,0.5,-0.234375,-0.203125
1695647610771,-0.31079102,-0.9163208,0.25897217,0.4375,0.28125,-0.78125
1695647610814,-0.30126953,-0.927063,0.25872803,-0.234375,0.78125,-0.1875
1695647610850,-0.30688477,-0.92193604,0.26263428,-0.0625,1.03125,-0.25
1695647610890,-0.30810547,-0.9319458,0.2675171,0.859375,0.609375,-0.234375
1695647610932,-0.3203125,-0.93292236,0.26678467,-0.34375,0.328125,-1.015625
1695647610971,-0.30322266,-0.92681885,0.26141357,-0.09375,0.390625,-0.34375
1695647611012,-0.31298828,-0.92315674,0.26776123,0.375,-0.15625,-0.375
1695647611050,-0.30493164,-0.9338989,0.26263428,0.15625,-0.171875,-0.671875
1695647611093,-0.31274414,-0.93218994,0.25750732,0.765625,0.328125,0.03125
1695647611135,-0.31518555,-0.93170166,0.26409912,0.328125,0.390625,0.21875
1695647611193,-0.30932617,-0.9241333,0.26654053,1.234375,0.125,-0.03125
1695647611209,-0.3017578,-0.9314575,0.25531006,0.28125,-0.3125,-0.34375
1695647611250,-0.30249023,-0.93414307,0.25726318,0.984375,1.265625,-0.15625
1695647611313,-0.3071289,-0.9368286,0.26483154,0.546875,0.234375,0.359375
1695647611329,-0.31054688,-0.93048096,0.26385498,0.4375,0.453125,-0.484375
1695647611393,-0.30493164,-0.9360962,0.24969482,-0.875,-0.046875,-0.5
1695647611409,-0.31152344,-0.94195557,0.2531128,-0.375,0.609375,-0.34375
1695647611450,-0.31103516,-0.9338989,0.2609253,-0.5625,0.9375,-0.390625
1695647611491,-0.30151367,-0.92559814,0.26116943,-0.015625,0.875,-1.0
1695647611532,-0.31396484,-0.9282837,0.2694702,-0.15625,-0.03125,-0.84375
1695647611572,-0.31884766,-0.93170166,0.25091553,-0.15625,0.578125,-1.171875
1695647611611,-0.29858398,-0.9331665,0.25042725,-0.0625,0.890625,-0.6875
1695647611650,-0.3125,-0.9338989,0.2584839,0.390625,-0.5625,-0.25
1695647611692,-0.3071289,-0.92803955,0.2597046,0.3125,0.21875,-0.75
1695647611709,-0.32177734,-0.92803955,0.2579956,-0.0625,1.171875,-1.078125
1695647611751,-0.29248047,-0.93756104,0.24139404,-1.84375,1.90625,-0.4375
1695647611791,-0.31518555,-0.91534424,0.2658081,-2.921875,3.859375,-0.515625
1695647611834,-0.32836914,-0.9368286,0.27752686,-3.5,3.734375,-0.140625
1695647611872,-0.3154297,-0.9451294,0.28607178,-3.15625,1.78125,-1.046875
1695647611914,-0.30981445,-0.91900635,0.29364014,-3.34375,0.65625,-1.328125
1695647611950,-0.3034668,-0.93170166,0.29144287,-4.0625,0.4375,-0.265625
1695647611990,-0.30664062,-0.92437744,0.27972412,-3.578125,1.921875,-0.78125
1695647612032,-0.2890625,-0.91412354,0.30950928,-3.84375,-0.265625,-2.25
1695647612070,-0.3190918,-0.90802,0.28631592,-0.984375,-0.328125,-1.84375
1695647612109,-0.32861328,-0.9378052,0.31829834,-1.546875,-0.390625,-1.75
1695647612150,-0.33789062,-0.927063,0.2994995,-3.109375,-0.65625,-2.171875
1695647612190,-0.3178711,-0.8916626,0.3085327,0.171875,-1.421875,-2.1875
1695647612230,-0.33251953,-0.8994751,0.291687,0.78125,-3.453125,-0.78125
1695647612270,-0.3125,-0.90582275,0.28778076,2.40625,-2.796875,-0.125
1695647612310,-0.31420898,-0.9085083,0.27825928,3.75,-3.265625,0.421875
1695647612348,-0.32104492,-0.91485596,0.27215576,4.328125,-1.375,0.484375
1695647612390,-0.31567383,-0.9302368,0.2904663,2.90625,-1.765625,1.15625
1695647612431,-0.32958984,-0.92559814,0.27850342,0.3125,-1.65625,0.453125
1695647612469,-0.31933594,-0.9065552,0.27581787,-1.390625,0.875,-1.125
1695647612509,-0.32373047,-0.9126587,0.2831421,-1.203125,0.625,-0.265625
1695647612551,-0.3310547,-0.94195557,0.29437256,-0.515625,-1.375,0.28125
1695647612590,-0.3408203,-0.90875244,0.29388428,-0.515625,1.75,-0.34375
1695647612629,-0.31713867,-0.9067993,0.27972412,-0.4375,1.5625,-0.203125
1695647612668,-0.30908203,-0.91412354,0.28118896,-0.109375,1.125,-0.125
1695647612710,-0.3149414,-0.92388916,0.29266357,0.578125,0.265625,-0.296875
1695647612754,-0.31982422,-0.9224243,0.30291748,-0.359375,-0.171875,-0.921875
1695647612792,-0.32714844,-0.91412354,0.28997803,-0.65625,0.515625,-1.015625
1695647612831,-0.32788086,-0.92193604,0.28729248,-0.46875,-0.234375,-0.375
1695647612871,-0.33251953,-0.91607666,0.28582764,0.46875,-0.359375,-0.5
1695647612910,-0.33666992,-0.92144775,0.28631592,-0.203125,-0.46875,-0.28125
1695647612960,-0.33276367,-0.9126587,0.2909546,-0.109375,-0.890625,-0.75
1695647612990,-0.3239746,-0.9151001,0.28460693,0.5,-0.90625,-1.234375
1695647613032,-0.32495117,-0.91973877,0.28753662,-0.484375,-0.546875,-0.421875
1695647613069,-0.33007812,-0.9109497,0.29071045,0.6875,-0.5625,-0.78125
1695647613112,-0.33935547,-0.9241333,0.2982788,0.609375,-1.296875,-0.640625
1695647613149,-0.33154297,-0.90338135,0.27557373,-1.828125,0.953125,-1.65625
1695647613191,-0.31860352,-0.9290161,0.2970581,-1.390625,0.5625,-0.375
1695647613231,-0.33251953,-0.9031372,0.27703857,-0.890625,0.359375,-0.046875
1695647613294,-0.3251953,-0.91290283,0.29608154,0.375,0.703125,-0.15625
1695647613308,-0.34814453,-0.9234009,0.29803467,-0.296875,0.109375,0.03125
1695647613332,-0.3203125,-0.91290283,0.2975464,0.0,0.703125,-0.296875
1695647613393,-0.3161621,-0.9138794,0.28997803,0.0625,0.40625,-0.375
1695647613409,-0.33398438,-0.91607666,0.29315186,-0.796875,-0.734375,-0.40625
1695647613472,-0.33374023,-0.9116821,0.29730225,0.46875,0.125,-0.703125
1695647613490,-0.33398438,-0.913147,0.29241943,0.171875,-0.078125,-0.96875
1695647613555,-0.3203125,-0.9204712,0.29803467,0.578125,-0.4375,-0.5625
1695647613589,-0.328125,-0.9212036,0.291687,-0.421875,-0.78125,-0.625
1695647613611,-0.33422852,-0.90875244,0.29071045,0.34375,-0.015625,-0.25
1695647613651,-0.3334961,-0.9170532,0.2850952,0.15625,0.453125,0.578125
1695647613691,-0.32983398,-0.93048096,0.29779053,0.0,-0.03125,0.703125
1695647613730,-0.3239746,-0.8909302,0.30096436,1.328125,1.53125,0.15625
1695647613770,-0.32543945,-0.9055786,0.29901123,0.546875,0.171875,0.1875
1695647613812,-0.32592773,-0.9048462,0.28045654,1.6875,-0.296875,0.234375
1695647613850,-0.32543945,-0.92193604,0.291687,1.125,0.03125,-0.203125
1695647613892,-0.33642578,-0.9212036,0.29071045,0.484375,0.859375,-0.328125
1695647613931,-0.3251953,-0.9121704,0.27947998,-1.21875,0.6875,-0.71875
1695647613972,-0.31982422,-0.911438,0.28729248,-0.1875,0.640625,0.171875
1695647614011,-0.34423828,-0.9168091,0.28948975,0.109375,-0.4375,0.921875
1695647614051,-0.33764648,-0.92559814,0.28851318,0.46875,0.40625,0.578125
1695647614112,-0.3269043,-0.9158325,0.28900146,-0.015625,1.4375,-0.3125
1695647614129,-0.31933594,-0.9216919,0.2892456,0.046875,-0.125,-0.1875
1695647614190,-0.32470703,-0.9102173,0.28607178,-0.09375,0.109375,-0.65625
1695647614208,-0.3251953,-0.9273071,0.28656006,-0.796875,0.390625,-0.1875
1695647614250,-0.32763672,-0.9241333,0.2855835,-0.390625,2.609375,-0.21875
1695647614289,-0.3227539,-0.9492798,0.3024292,-3.125,5.8125,-0.625
1695647614331,-0.3227539,-0.90289307,0.33172607,-4.1875,4.703125,-2.0625
1695647614376,-0.31347656,-0.9102173,0.3156128,-1.640625,0.390625,-2.21875
1695647614410,-0.32470703,-0.8970337,0.3036499,-1.40625,-0.5625,-1.625
1695647614452,-0.3310547,-0.911438,0.3102417,-0.390625,-0.359375,-1.109375
1695647614488,-0.34204102,-0.92755127,0.30804443,-2.0,-1.296875,-1.65625
1695647614534,-0.31884766,-0.89556885,0.29364014,0.09375,-0.59375,-1.5625
1695647614570,-0.31176758,-0.88775635,0.3065796,1.765625,-1.890625,-0.4375
1695647614613,-0.32739258,-0.90045166,0.29534912,1.515625,-2.234375,0.96875
1695647614650,-0.3293457,-0.90460205,0.28875732,3.71875,-2.234375,0.453125
1695647614689,-0.33325195,-0.90509033,0.29364014,2.546875,-1.65625,-0.59375
1695647614732,-0.34057617,-0.9241333,0.30194092,0.421875,-3.0625,-1.046875
1695647614772,-0.33422852,-0.9307251,0.2929077,-1.734375,1.28125,-0.625
1695647614811,-0.32666016,-0.909729,0.2892456,0.0625,1.015625,-0.046875
1695647614892,-0.35229492,-0.9121704,0.2929077,0.125,1.28125,0.921875
1695647614894,-0.34985352,-0.90753174,0.30413818,1.46875,-0.109375,1.046875
1695647614909,-0.32421875,-0.9036255,0.2868042,-0.015625,0.53125,-0.375
1695647614955,-0.32202148,-0.91729736,0.2958374,0.109375,0.4375,-0.03125
1695647614993,-0.32958984,-0.9180298,0.29119873,-0.171875,0.90625,-0.21875
1695647615031,-0.32348633,-0.9273071,0.29534912,0.15625,0.5625,-0.421875
1695647615073,-0.33520508,-0.9241333,0.30340576,-0.1875,-0.3125,-0.421875
1695647615110,-0.33935547,-0.9067993,0.3078003,0.296875,-0.234375,0.09375
1695647615151,-0.3334961,-0.90509033,0.3012085,0.0,0.5,-0.09375
1695647615191,-0.3330078,-0.9102173,0.29510498,-0.34375,-1.265625,-0.484375
1695647615232,-0.31982422,-0.92022705,0.2909546,0.84375,-0.046875,-0.671875
1695647615271,-0.34594727,-0.91656494,0.29241943,-0.21875,0.28125,-0.25
1695647615311,-0.33422852,-0.9170532,0.2970581,-0.03125,1.0,-0.671875
1695647615353,-0.3400879,-0.9170532,0.30169678,-0.453125,-0.5625,0.3125
1695647615391,-0.34277344,-0.9077759,0.29486084,-0.3125,0.125,-0.171875
1695647615430,-0.32739258,-0.90948486,0.2970581,-0.0625,-0.34375,-0.640625
1695647615470,-0.34155273,-0.9151001,0.29388428,-0.40625,-0.6875,-0.25
1695647615510,-0.32861328,-0.895813,0.3012085,0.328125,1.8125,-1.078125
1695647615551,-0.33422852,-0.9241333,0.29241943,-0.21875,1.125,0.265625
1695647615593,-0.33251953,-0.9102173,0.291687,0.109375,0.96875,-0.3125
1695647615630,-0.33813477,-0.9065552,0.30706787,1.234375,0.5,0.453125
1695647615675,-0.34155273,-0.91290283,0.30023193,0.171875,0.25,0.265625
1695647615716,-0.3227539,-0.91778564,0.29803467,0.046875,0.21875,-0.296875
1695647615751,-0.3244629,-0.92022705,0.29852295,-0.625,-0.546875,-0.21875
1695647615794,-0.32983398,-0.90704346,0.30267334,1.609375,0.3125,-0.3125
1695647615831,-0.3334961,-0.92071533,0.29071045,0.796875,-1.96875,0.078125
1695647615871,-0.3408203,-0.90997314,0.28167725,-0.453125,-0.328125,-0.546875
1695647615910,-0.3322754,-0.9089966,0.3007202,-1.078125,2.0,0.75
1695647615951,-0.3232422,-0.90948486,0.29412842,-0.25,0.6875,1.0625
1695647615991,-0.32421875,-0.9146118,0.28826904,-0.046875,0.359375,0.328125
1695647616032,-0.3244629,-0.9065552,0.30511475,0.3125,0.171875,0.203125
1695647616070,-0.33251953,-0.92852783,0.30682373,-0.328125,-0.390625,0.46875
1695647616110,-0.32861328,-0.89727783,0.3036499,-0.890625,0.9375,-0.71875
1695647616151,-0.31933594,-0.9089966,0.2982788,-0.765625,0.296875,-0.546875
1695647616191,-0.3203125,-0.9151001,0.2868042,-0.25,0.296875,-0.53125
1695647616231,-0.32592773,-0.9194946,0.31097412,0.78125,0.078125,-0.28125
1695647616271,-0.33007812,-0.911438,0.30194092,-0.625,0.0,-0.421875
1695647616316,-0.3256836,-0.90948486,0.29925537,-0.53125,-0.1875,-0.84375
1695647616352,-0.3227539,-0.9265747,0.30267334,-0.265625,-0.109375,-0.140625
1695647616391,-0.32666016,-0.9072876,0.30023193,-0.671875,0.3125,-0.8125
1695647616433,-0.32739258,-0.90704346,0.291687,-0.5,0.015625,-1.15625
1695647616470,-0.3251953,-0.90948486,0.30633545,0.015625,-0.28125,-0.203125
1695647616489,-0.33007812,-0.9194946,0.30975342,0.53125,-0.53125,-0.265625
1695647616531,-0.33325195,-0.91119385,0.29559326,-0.078125,-0.421875,-0.484375
1695647616572,-0.32836914,-0.90509033,0.2904663,-0.515625,0.375,-0.53125
1695647616611,-0.31958008,-0.91241455,0.29852295,0.203125,0.609375,0.265625
1695647616654,-0.33789062,-0.9199829,0.30291748,0.46875,-0.421875,0.28125
1695647616697,-0.31982422,-0.89263916,0.2987671,0.453125,1.421875,-1.15625
1695647616730,-0.32080078,-0.9146118,0.30877686,-0.140625,-0.03125,0.015625
1695647616775,-0.32714844,-0.90704346,0.29119873,-0.015625,0.296875,0.078125
1695647616810,-0.32250977,-0.90631104,0.30828857,0.453125,1.125,-0.03125
1695647616858,-0.33032227,-0.9170532,0.307312,0.21875,0.078125,-0.296875
1695647616890,-0.32885742,-0.90704346,0.30706787,1.171875,0.203125,-0.171875
1695647616930,-0.328125,-0.91290283,0.30316162,1.78125,-0.125,0.515625
1695647616970,-0.33251953,-0.9204712,0.2921753,-0.09375,-0.390625,-0.328125
1695647617011,-0.32641602,-0.9151001,0.28582764,-0.15625,0.859375,-0.625
1695647617054,-0.32177734,-0.9102173,0.3007202,0.390625,1.203125,0.28125
1695647617111,-0.32714844,-0.9182739,0.30926514,0.328125,0.640625,0.875
1695647617129,-0.31884766,-0.90997314,0.29925537,0.828125,0.28125,-0.03125
1695647617171,-0.32861328,-0.9175415,0.29437256,-0.21875,-0.0625,-0.59375
1695647617229,-0.32495117,-0.9133911,0.29656982,-0.140625,0.578125,-0.21875
1695647617249,-0.31958008,-0.9109497,0.30267334,0.078125,0.25,-0.046875
1695647617292,-0.3251953,-0.9248657,0.29241943,-0.8125,0.15625,-0.515625
1695647617331,-0.32641602,-0.91851807,0.29559326,-0.515625,0.484375,-0.140625
1695647617375,-0.3269043,-0.90826416,0.29144287,0.109375,0.546875,0.078125
1695647617414,-0.32543945,-0.9168091,0.29437256,0.21875,1.109375,-0.25
1695647617453,-0.33129883,-0.9155884,0.30462646,0.5,0.328125,-0.21875
1695647617493,-0.3269043,-0.9133911,0.30413818,0.328125,0.03125,-0.671875
1695647617531,-0.32055664,-0.90802,0.30560303,0.421875,0.46875,-0.578125
1695647617571,-0.3305664,-0.9170532,0.3007202,0.375,-0.484375,-0.046875
1695647617610,-0.3190918,-0.9146118,0.30413818,0.984375,0.0625,-0.484375
1695647617651,-0.3256836,-0.9116821,0.3048706,1.609375,0.40625,-0.765625
1695647617693,-0.32666016,-0.9241333,0.2982788,0.0625,-0.453125,-0.75
1695647617731,-0.32055664,-0.92144775,0.2880249,-0.546875,0.375,-1.109375
1695647617793,-0.3293457,-0.91363525,0.29412842,-0.421875,0.609375,-0.125
1695647617809,-0.32421875,-0.91290283,0.29022217,-1.109375,0.421875,0.390625
1695647617851,-0.32958984,-0.91607666,0.2946167,0.421875,0.515625,0.484375
1695647617913,-0.33447266,-0.9199829,0.30755615,0.609375,-0.453125,0.078125
1695647617952,-0.32250977,-0.9043579,0.2904663,-0.265625,0.421875,-0.921875
1695647617971,-0.31860352,-0.9170532,0.29925537,-0.359375,0.28125,-0.28125
1695647618011,-0.32250977,-0.9163208,0.2975464,0.203125,0.546875,-0.03125
1695647618053,-0.32421875,-0.9146118,0.30291748,1.203125,0.84375,0.234375
1695647618094,-0.32861328,-0.92681885,0.29901123,1.15625,0.34375,-0.078125
1695647618109,-0.3239746,-0.9158325,0.2946167,0.375,0.359375,-0.15625
1695647618151,-0.3190918,-0.9224243,0.28045654,-0.59375,0.390625,-0.078125
1695647618189,-0.3227539,-0.9221802,0.2994995,-0.046875,0.3125,0.265625
1695647618232,-0.3154297,-0.92266846,0.28826904,0.28125,0.484375,0.46875
1695647618271,-0.32006836,-0.91729736,0.2994995,0.15625,0.625,-0.03125
1695647618313,-0.31835938,-0.9146118,0.29803467,0.625,-0.40625,-0.1875
1695647618350,-0.3269043,-0.9187622,0.29437256,0.03125,-0.359375,-0.25
1695647618391,-0.31445312,-0.9212036,0.30023193,0.1875,0.015625,-0.328125
1695647618432,-0.32202148,-0.9216919,0.29412842,-0.171875,0.46875,-0.5
1695647618472,-0.32373047,-0.90997314,0.29486084,0.21875,0.390625,-0.21875
1695647618511,-0.3239746,-0.9155884,0.28533936,-0.1875,0.828125,-0.09375
1695647618550,-0.3215332,-0.92315674,0.29388428,-0.0625,0.421875,0.1875
1695647618591,-0.31640625,-0.91607666,0.28240967,0.515625,0.578125,-0.203125
1695647618630,-0.3166504,-0.9180298,0.29974365,0.453125,0.515625,-0.5
1695647618672,-0.32910156,-0.9319458,0.29974365,0.203125,-0.046875,-0.546875
1695647618714,-0.32104492,-0.92144775,0.29437256,0.21875,0.328125,-0.765625
1695647618750,-0.31298828,-0.9109497,0.29559326,0.59375,0.53125,-0.328125
1695647618791,-0.3251953,-0.9248657,0.29681396,-0.46875,-0.78125,0.0625
1695647618832,-0.3305664,-0.91900635,0.29559326,0.59375,-0.0625,-0.3125
1695647618872,-0.3330078,-0.92315674,0.28729248,0.109375,0.46875,-0.0625
1695647618909,-0.31640625,-0.92755127,0.2897339,-0.15625,0.59375,-0.375
1695647618951,-0.31054688,-0.91363525,0.28704834,-0.125,-0.03125,-0.0625
1695647618990,-0.31469727,-0.9151001,0.29632568,0.15625,0.171875,-0.015625
1695647619031,-0.3203125,-0.9212036,0.29241943,0.296875,0.265625,-0.375
1695647619072,-0.32666016,-0.9204712,0.30096436,0.453125,-0.390625,-0.140625
1695647619112,-0.3215332,-0.90411377,0.2904663,-0.328125,0.65625,-0.984375
1695647619149,-0.31518555,-0.92315674,0.2921753,-0.359375,0.703125,-0.28125
1695647619191,-0.31347656,-0.913147,0.28216553,0.8125,0.8125,0.125
1695647619231,-0.31347656,-0.92022705,0.2921753,0.65625,0.546875,0.125
1695647619274,-0.32495117,-0.92510986,0.28900146,0.5625,0.4375,0.03125
1695647619311,-0.32104492,-0.9241333,0.29608154,-0.265625,-0.359375,-0.90625
1695647619352,-0.31811523,-0.91729736,0.28411865,-0.046875,0.046875,0.078125
1695647619391,-0.32543945,-0.9224243,0.28826904,-0.046875,-0.546875,-0.109375
1695647619432,-0.3178711,-0.9151001,0.28460693,0.46875,0.359375,0.15625
1695647619472,-0.32470703,-0.91973877,0.293396,0.5625,-0.0625,0.140625
1695647619512,-0.32006836,-0.92755127,0.2897339,0.75,-0.46875,-0.15625
1695647619551,-0.31982422,-0.92022705,0.28631592,0.203125,0.453125,0.03125
1695647619591,-0.31420898,-0.92022705,0.2814331,-0.078125,0.828125,0.3125
1695647619633,-0.31713867,-0.9221802,0.28485107,-0.25,0.609375,-0.109375
1695647619671,-0.31640625,-0.92193604,0.2904663,-0.140625,0.109375,0.140625
1695647619712,-0.31713867,-0.9014282,0.2921753,0.328125,1.03125,-0.25
1695647619728,-0.30786133,-0.9209595,0.28778076,-0.203125,0.671875,0.109375
1695647619772,-0.30981445,-0.9209595,0.293396,0.140625,0.359375,0.0
1695647619858,-0.32055664,-0.9192505,0.29022217,1.0,0.3125,-0.09375
1695647619863,-0.32250977,-0.91607666,0.28778076,0.09375,0.0625,-0.515625
1695647619894,-0.31103516,-0.9187622,0.293396,0.3125,-0.09375,-0.5
1695647619931,-0.32128906,-0.92559814,0.2850952,-0.28125,-0.609375,-0.359375
1695647619970,-0.32421875,-0.92510986,0.28485107,0.125,0.0,-0.34375
1695647620031,-0.3137207,-0.92266846,0.2855835,0.078125,0.8125,-0.4375
1695647620049,-0.31420898,-0.927063,0.28582764,0.078125,0.625,-0.328125
1695647620093,-0.31567383,-0.9265747,0.29510498,0.09375,0.171875,-0.421875
1695647620154,-0.31713867,-0.92071533,0.28778076,-0.234375,-0.109375,-0.640625
1695647620170,-0.31933594,-0.9212036,0.28216553,-0.640625,0.59375,-0.578125
1695647620211,-0.31225586,-0.92388916,0.2880249,-0.203125,0.703125,-0.296875
1695647620253,-0.32348633,-0.9138794,0.3007202,-0.546875,-0.015625,-0.25
1695647620293,-0.31640625,-0.9155884,0.2892456,0.390625,1.0,-0.09375
1695647620333,-0.32348633,-0.91363525,0.28778076,0.03125,1.03125,0.3125
1695647620371,-0.31298828,-0.91363525,0.28704834,0.21875,1.390625,-0.09375
1695647620412,-0.3239746,-0.9170532,0.3024292,0.796875,0.59375,-0.234375
1695647620452,-0.32006836,-0.92559814,0.2946167,-0.59375,0.609375,-1.171875
1695647620492,-0.31347656,-0.9133911,0.2868042,-0.140625,1.171875,-0.4375
1695647620534,-0.3203125,-0.91534424,0.29779053,0.234375,0.734375,-0.46875
1695647620574,-0.31396484,-0.9260864,0.30389404,-0.96875,3.890625,-0.34375
1695647620632,-0.31445312,-0.942688,0.33294678,-3.4375,4.203125,-0.5
1695647620649,-0.32373047,-0.91241455,0.30706787,-3.1875,0.609375,-1.6875
1695647620690,-0.31884766,-0.8855591,0.30169678,-0.65625,-1.78125,-1.25
1695647620751,-0.31201172,-0.9019165,0.3085327,-0.796875,-2.34375,0.3125
1695647620791,-0.3137207,-0.92266846,0.30023193,0.625,-0.375,-0.265625
1695647620809,-0.30810547,-0.92388916,0.3085327,1.046875,-1.3125,-0.84375
1695647620853,-0.3239746,-0.927063,0.3036499,-0.203125,-2.375,-1.65625
1695647620893,-0.3166504,-0.89801025,0.29534912,0.40625,-0.9375,-1.34375
1695647620932,-0.3203125,-0.90802,0.29974365,-0.0625,-1.6875,-1.0
1695647620973,-0.31518555,-0.9053345,0.2880249,0.625,-0.9375,-1.109375
1695647621012,-0.32983398,-0.9212036,0.30096436,1.203125,-0.96875,-1.203125
1695647621051,-0.32470703,-0.91851807,0.30633545,0.8125,-0.359375,-0.09375
1695647621090,-0.3371582,-0.9055786,0.30584717,2.140625,-1.40625,-0.3125
1695647621129,-0.34155273,-0.9331665,0.3060913,0.34375,-2.859375,-1.015625
1695647621169,-0.33251953,-0.9104614,0.28289795,0.46875,-1.015625,-1.484375
1695647621209,-0.33081055,-0.91192627,0.28582764,0.421875,1.3125,-0.328125
