# Sensor type: Respeck
# Activity type: Descending stairs
# Activity subtype: Normal
# Subject id: s1689282
# Notes: 
timestamp,accel_x,accel_y,accel_z,gyro_x,gyro_y,gyro_z
1695387257378,-0.06689453,-0.92071533,-0.018371582,11.484375,2.75,4.0
1695387257424,-0.1899414,-0.91534424,-0.050354004,13.015625,7.671875,3.546875
1695387257498,-0.14428711,-0.9024048,-0.105285645,20.140625,15.671875,2.625
1695387257500,0.0029296875,-0.9368286,-0.040100098,4.453125,12.03125,-2.75
1695387257545,0.013671875,-0.8599243,-0.11431885,6.203125,7.40625,0.859375
1695387257589,-0.032714844,-1.0618286,-0.32720947,-12.375,-19.953125,-5.75
1695387257617,0.04663086,-1.5857544,-0.5484009,-23.90625,-65.984375,-14.046875
1695387257663,0.0637207,-1.2918091,-0.016174316,16.75,3.90625,-5.046875
1695387257693,-0.18774414,-0.8982544,-0.26763916,17.375,15.3125,15.0
1695387257739,-0.3642578,-0.9651489,0.051452637,-0.203125,-10.296875,9.5625
1695387257784,-0.28222656,-0.9507446,-0.11383057,-11.515625,-30.71875,-27.796875
1695387257814,-0.21923828,-1.0579224,-0.04449463,-31.296875,-7.484375,-13.453125
1695387257858,0.037109375,-1.0669556,-0.13873291,-9.828125,2.125,-4.625
1695387257904,0.040039062,-0.74224854,-0.101867676,10.546875,-11.328125,-1.1875
1695387257935,-0.1616211,-0.96295166,0.022888184,-6.03125,-15.3125,3.671875
1695387257983,-0.52197266,-1.1467896,-0.03326416,-11.359375,-1.53125,-3.21875
1695387258013,-0.3359375,-0.8726196,-0.035461426,-3.578125,4.828125,-17.15625
1695387258058,0.04321289,-0.94537354,-0.023986816,-4.59375,-4.140625,-11.4375
1695387258100,-0.07714844,-1.0684204,0.0446167,-1.921875,-4.765625,-0.875
1695387258133,-0.30151367,-1.0188599,-0.014221191,-1.4375,-4.140625,-0.921875
1695387258175,-0.33154297,-0.91851807,-0.02911377,-2.53125,1.703125,-2.765625
1695387258222,-0.12524414,-0.91290283,-0.023498535,-4.828125,0.015625,-5.015625
1695387258254,-0.07470703,-0.98028564,0.043640137,-5.875,-8.265625,-4.40625
1695387258297,-0.20166016,-1.045227,0.048034668,-2.78125,-8.4375,3.546875
1695387258339,-0.31982422,-0.9873657,6.713867E-4,-3.34375,-4.046875,3.96875
1695387258369,-0.2824707,-0.9312134,-0.0012817383,-3.34375,-1.484375,-1.859375
1695387258415,-0.1796875,-0.96417236,0.039978027,-3.640625,-3.1875,-3.5
1695387258449,-0.15698242,-0.9692993,0.043151855,-2.578125,-2.359375,1.3125
1695387258491,-0.18286133,-0.92926025,0.04144287,-6.265625,-4.515625,3.125
1695387258539,-0.2043457,-0.9126587,0.029968262,-5.6875,-3.8125,2.578125
1695387258567,-0.2319336,-0.9500122,0.043640137,-6.265625,-3.984375,-0.421875
1695387258611,-0.22973633,-0.9312134,0.06439209,-4.21875,-0.75,-1.75
1695387258657,-0.22045898,-0.9180298,0.051696777,-3.859375,-0.421875,-3.0
1695387258688,-0.22265625,-0.9607544,0.047546387,1.265625,1.15625,-0.671875
1695387258732,-0.2512207,-0.99542236,0.093933105,0.171875,7.5,-3.046875
1695387258778,-0.24633789,-0.9927368,0.05682373,-0.671875,3.234375,-3.53125
1695387258809,-0.26049805,-0.9837036,0.05999756,-1.84375,11.484375,-2.25
1695387258851,-0.23095703,-0.9089966,0.06756592,2.484375,12.96875,-3.59375
1695387258884,-0.2133789,-0.8731079,0.050720215,-0.921875,7.90625,-0.5625
1695387258928,-0.24804688,-0.92559814,0.06097412,-1.046875,11.109375,-2.078125
1695387258970,-0.2692871,-0.9612427,0.011413574,1.21875,5.890625,-1.5
1695387258999,-0.24047852,-0.86187744,0.08319092,-0.6875,10.375,2.875
1695387259047,-0.18188477,-0.88946533,0.09564209,-0.578125,6.65625,7.15625
1695387259090,-0.23657227,-0.91412354,0.07733154,8.09375,14.171875,10.546875
1695387259122,-0.18774414,-0.7930298,-0.031555176,17.859375,14.03125,17.140625
1695387259168,-0.13061523,-0.755188,-0.07501221,5.6875,10.84375,9.8125
1695387259197,-0.0847168,-1.2168579,-0.09893799,4.9375,19.609375,0.4375
1695387259242,0.122558594,-1.546936,0.10028076,20.453125,-12.84375,7.125
1695387259286,0.07373047,-1.072815,-0.13311768,-17.765625,-1.703125,19.765625
1695387259317,0.052246094,-1.1047974,0.050720215,12.890625,-8.734375,7.34375
1695387259361,-0.12817383,-1.2942505,0.090270996,6.234375,-4.640625,6.53125
1695387259421,-0.26611328,-1.0960083,-0.02935791,-0.359375,0.125,2.328125
1695387259454,-0.048583984,-0.85601807,-0.06402588,15.75,-2.3125,-6.296875
1695387259478,0.08325195,-1.0166626,0.011657715,4.84375,-1.4375,-1.421875
1695387259527,0.038085938,-1.010315,-0.05303955,0.609375,-6.328125,6.765625
1695387259554,-0.044189453,-0.86798096,-0.08795166,12.40625,-9.71875,5.4375
1695387259599,-0.1796875,-1.0234985,-0.07647705,4.71875,-5.09375,1.0
1695387259630,-0.10473633,-1.107727,-0.043029785,1.9375,-1.765625,-0.609375
1695387259675,-0.0048828125,-0.9639282,-0.01373291,2.46875,0.125,1.859375
1695387259719,-0.061523438,-0.9241333,-0.03302002,1.390625,-4.09375,1.390625
1695387259751,-0.16967773,-0.96343994,-0.08502197,3.03125,-2.828125,-3.109375
1695387259808,-0.11352539,-0.9859009,-0.051330566,1.59375,2.703125,-3.6875
1695387259838,0.030517578,-0.98809814,-0.019348145,-2.015625,1.03125,-4.015625
1695387259868,-0.008056641,-0.9534302,-0.019104004,-1.015625,2.28125,-0.265625
1695387259916,-0.088378906,-0.95513916,-0.032287598,-2.59375,-7.265625,-0.46875
1695387259993,-0.13427734,-0.96832275,-0.03765869,1.234375,-0.125,-3.34375
1695387259998,-0.09375,-0.9512329,-0.054748535,1.796875,0.109375,-2.84375
1695387260038,-0.033447266,-0.93951416,-0.03277588,-0.15625,0.78125,-2.203125
1695387260066,-0.053466797,-0.9993286,-0.019836426,-1.65625,-4.203125,-4.109375
1695387260113,-0.119384766,-0.9529419,-0.04473877,5.875,2.40625,-0.328125
1695387260158,-0.12817383,-0.8616333,-0.062561035,5.5,5.09375,-0.046875
1695387260186,-0.07470703,-0.88165283,-0.031311035,3.1875,5.4375,-3.859375
1695387260233,-0.032958984,-0.9155884,-0.0095825195,2.890625,3.34375,-5.375
1695387260276,-0.060791016,-0.8977661,0.009460449,5.796875,3.0,-1.78125
1695387260307,-0.1027832,-0.9788208,0.0692749,12.515625,13.25,0.40625
1695387260354,-0.115722656,-0.9812622,-0.10455322,20.125,15.375,7.59375
1695387260383,-0.08300781,-0.91363525,-0.17510986,11.375,11.109375,-0.46875
1695387260426,0.024902344,-1.0227661,-0.23614502,8.1875,-9.703125,-9.46875
1695387260470,0.0390625,-1.0386353,-0.121154785,2.9375,-13.875,-6.65625
1695387260502,-0.10839844,-0.8933716,-0.20733643,5.265625,-11.3125,3.734375
1695387260547,-0.041259766,-0.81085205,-0.34405518,-0.828125,-25.296875,-1.640625
1695387260593,-0.19091797,-1.597229,-0.7793579,-31.15625,-85.46875,-34.953125
1695387260622,-0.018310547,-1.2393188,0.046569824,31.34375,8.25,-7.3125
1695387260668,-0.21557617,-0.831604,-0.36920166,9.90625,-5.609375,21.453125
1695387260712,-0.26464844,-0.93927,-0.19805908,8.625,-18.515625,-0.5625
1695387260744,-0.15698242,-1.1026001,-0.20635986,-7.0625,-32.5,-38.859375
1695387260786,-0.26293945,-1.2400513,-0.1885376,-7.234375,-12.015625,-7.4375
1695387260819,0.013671875,-0.74468994,-0.3118286,2.796875,-6.109375,5.5
1695387260861,0.049316406,-0.644104,-0.16534424,10.03125,-15.75,7.84375
1695387260907,-0.27246094,-1.0894165,-0.24273682,-1.875,-24.84375,-1.046875
1695387260938,-0.41430664,-1.145813,-0.23345947,-4.15625,-9.5,-17.21875
1695387260983,-0.087646484,-0.9038696,-0.22564697,-6.453125,-8.078125,-11.078125
1695387261027,-7.324219E-4,-0.85357666,-0.23394775,-4.953125,-9.5,-0.859375
1695387261057,-0.17602539,-0.940979,-0.21099854,-3.0,-14.203125,-0.78125
1695387261103,-0.29077148,-1.0110474,-0.21685791,-0.671875,-13.25,-3.9375
1695387261148,-0.21166992,-0.9692993,-0.20025635,-2.671875,-3.765625,-5.625
1695387261179,-0.1862793,-0.92437744,-0.19586182,0.5,-1.3125,-5.734375
1695387261222,-0.20751953,-0.9011841,-0.17388916,-2.078125,-2.578125,-3.46875
1695387261253,-0.21826172,-0.9636841,-0.18658447,-5.09375,-3.5,-1.875
1695387261296,-0.2553711,-0.97784424,-0.15557861,-4.25,0.078125,-2.234375
1695387261341,-0.22924805,-0.9451294,-0.17022705,-5.28125,2.8125,-3.0
1695387261371,-0.22851562,-0.91412354,-0.15411377,-6.78125,4.25,-2.421875
1695387261417,-0.25341797,-0.93756104,-0.14630127,-6.09375,4.0,-1.921875
1695387261462,-0.17504883,-0.93096924,-0.14996338,-4.546875,4.625,0.3125
1695387261493,-0.16577148,-0.85528564,-0.11480713,-2.6875,3.25,0.125
1695387261538,-0.2397461,-0.9324341,-0.12237549,-2.796875,2.4375,-0.359375
1695387261582,-0.3305664,-0.9841919,-0.11212158,1.65625,9.75,-0.21875
1695387261613,-0.2800293,-0.881897,-0.10626221,-0.8125,19.0625,-2.234375
1695387261655,-0.30297852,-0.85284424,-0.10992432,-0.65625,20.953125,-3.015625
1695387261732,-0.27026367,-0.8735962,-0.10650635,-0.984375,20.203125,-0.78125
1695387261735,-0.20581055,-0.803772,-0.11895752,-5.03125,17.125,2.390625
1695387261777,-0.18823242,-0.8230591,-0.11871338,-3.296875,20.890625,5.03125
1695387261808,-0.18701172,-0.9295044,-0.08502197,-3.0625,21.203125,8.34375
1695387261855,-0.11767578,-0.9116821,-0.012268066,5.546875,26.640625,11.328125
1695387261898,-9.765625E-4,-0.78570557,-0.23370361,-2.5625,-2.34375,17.234375
1695387261929,-0.119628906,-1.079895,-0.26031494,-0.890625,20.4375,8.890625
1695387261973,-0.111572266,-1.6362915,-0.21710205,6.359375,-9.796875,1.125
1695387262002,0.2541504,-1.4312134,0.0018920898,-5.859375,15.40625,6.6875
1695387262048,0.09643555,-1.0615845,-0.070129395,2.34375,11.234375,12.6875
1695387262091,-0.2553711,-1.0776978,-0.066711426,17.328125,10.484375,13.40625
1695387262121,-0.27124023,-0.9673462,-0.1716919,12.625,4.546875,-2.234375
1695387262169,0.013916016,-0.8557739,-0.12188721,3.265625,18.890625,-1.296875
1695387262213,0.16772461,-0.8850708,-0.14874268,-1.484375,-2.859375,6.125
1695387262242,0.11303711,-1.112854,-0.12213135,-1.75,-12.484375,9.609375
1695387262288,-0.038330078,-1.1824341,-0.062805176,-0.265625,-12.40625,7.03125
1695387262361,-0.1430664,-0.9763794,-0.14215088,5.6875,-12.125,9.8125
1695387262365,-0.1821289,-0.80010986,-0.17974854,3.078125,-5.40625,3.953125
1695387262411,-0.08154297,-0.9060669,-0.14923096,2.5,-3.21875,-1.5
1695387262438,0.010009766,-1.072815,-0.10211182,-0.4375,-7.0625,-1.578125
1695387262482,0.0063476562,-1.0276489,-0.057922363,0.140625,-5.953125,4.1875
1695387262526,-0.084472656,-0.913147,-0.13043213,-1.453125,-4.1875,4.0625
1695387262561,-0.1340332,-0.90509033,-0.13702393,-2.140625,-3.109375,-1.4375
1695387262602,-0.030761719,-0.99713135,-0.10284424,-5.0625,0.328125,-6.078125
1695387262648,-0.023925781,-1.0183716,-0.046936035,0.359375,0.140625,-3.625
1695387262678,-0.083496094,-0.93878174,-0.113586426,-2.3125,-0.546875,0.875
1695387262722,-0.092041016,-0.8850708,-0.12261963,-4.703125,-1.265625,-1.28125
1695387262767,-0.06640625,-0.9920044,-0.10821533,-1.46875,-1.890625,-4.578125
1695387262801,-0.12548828,-1.0171509,-0.09307861,2.078125,0.875,-3.21875
1695387262844,-0.084472656,-0.9578247,-0.14752197,1.203125,0.0625,-3.453125
1695387262872,-0.07543945,-0.9685669,-0.086242676,2.234375,0.078125,-6.109375
1695387262917,-0.08325195,-1.0100708,-0.13018799,0.609375,-4.015625,-5.84375
1695387262960,-0.13061523,-0.96539307,-0.054748535,1.71875,1.03125,-3.21875
1695387262993,-0.1328125,-0.9072876,-0.10821533,-2.890625,-1.5,-5.421875
1695387263036,-0.09375,-0.90167236,-0.06036377,-0.921875,0.4375,-8.140625
1695387263084,-0.051757812,-0.90631104,-0.054504395,-0.203125,1.421875,-3.03125
1695387263111,-0.025146484,-0.91412354,-0.061584473,4.234375,-3.734375,0.953125
1695387263156,-0.0053710938,-0.91534424,-0.09893799,-2.71875,-8.109375,2.234375
1695387263188,-0.084472656,-0.9360962,-0.1338501,2.890625,-10.390625,0.578125
1695387263233,-0.13305664,-0.9495239,-0.15753174,3.375,-9.28125,-2.46875
1695387263279,-0.1484375,-0.91485596,-0.1104126,3.75,-13.09375,-11.375
1695387263307,-0.14892578,-1.008606,-0.16412354,2.65625,-16.84375,-14.265625
1695387263352,-0.17358398,-0.97003174,-0.24884033,3.390625,-28.421875,-19.65625
1695387263397,-0.30786133,-1.1697388,-0.4031372,-4.921875,-19.578125,-23.96875
1695387263427,-0.14453125,-1.203186,-0.27130127,8.6875,2.46875,-15.84375
1695387263473,-0.09106445,-0.9434204,-0.3015747,15.234375,20.609375,1.296875
1695387263517,-0.030273438,-0.98028564,-0.206604,12.5625,2.1875,-5.09375
1695387263548,-0.2097168,-1.1973267,-0.13433838,5.9375,-13.609375,-4.640625
1695387263594,-0.19970703,-1.178772,-0.18341064,-3.6875,-10.25,0.328125
1695387263620,-0.18334961,-0.9776001,-0.2732544,-0.890625,-1.421875,0.265625
1695387263666,-0.0949707,-0.803772,-0.21466064,10.9375,-13.0625,-0.671875
1695387263713,-0.083740234,-0.92755127,-0.22613525,1.515625,-12.390625,6.140625
1695387263740,-0.29785156,-1.0054321,-0.21051025,-0.53125,-4.359375,4.96875
1695387263786,-0.2998047,-0.95684814,-0.26885986,-0.4375,-5.34375,-5.0625
1695387263833,-0.1262207,-0.8699341,-0.24346924,-0.328125,0.375,-2.671875
1695387263863,-0.09643555,-0.90826416,-0.20831299,-0.65625,-5.6875,1.25
1695387263907,-0.21435547,-0.92315674,-0.22076416,0.40625,-4.546875,0.203125
1695387263953,-0.21118164,-0.90093994,-0.23956299,-1.171875,-1.828125,-0.8125
1695387263982,-0.1640625,-0.95269775,-0.20074463,2.171875,1.96875,-0.453125
1695387264027,-0.1743164,-1.0234985,-0.22003174,1.90625,1.515625,-0.34375
1695387264056,-0.20019531,-0.95147705,-0.19537354,0.0625,4.640625,-1.875
1695387264101,-0.17504883,-0.9248657,-0.23614502,-0.84375,5.1875,0.046875
1695387264147,-0.15649414,-0.928772,-0.2156372,-3.1875,2.421875,1.53125
1695387264178,-0.17016602,-0.9837036,-0.22515869,-2.25,0.671875,3.1875
1695387264222,-0.1965332,-0.9312134,-0.16143799,-0.390625,3.859375,2.734375
1695387264268,-0.17919922,-0.9060669,-0.22076416,-6.078125,-0.09375,2.09375
1695387264299,-0.17895508,-0.90826416,-0.19805908,-2.3125,3.109375,1.625
1695387264339,-0.22729492,-0.8880005,-0.19171143,-2.03125,2.984375,0.65625
1695387264370,-0.27807617,-0.94537354,-0.19000244,-2.78125,6.390625,-3.921875
1695387264415,-0.23486328,-0.9522095,-0.14385986,-1.453125,12.015625,-2.390625
1695387264463,-0.234375,-0.9480591,-0.17559814,-6.21875,11.46875,-1.609375
1695387264492,-0.2163086,-0.92559814,-0.15899658,-1.984375,15.5,-2.453125
1695387264539,-0.24926758,-0.9487915,-0.17608643,-5.75,12.546875,-3.375
1695387264582,-0.24487305,-0.9673462,-0.14776611,-6.140625,11.984375,-2.1875
1695387264612,-0.20288086,-0.99664307,-0.09576416,-4.390625,14.125,1.75
1695387264658,-0.23486328,-1.0081177,-0.09893799,-6.109375,17.0625,5.390625
1695387264702,-0.2084961,-0.9102173,-0.17559814,-10.90625,11.9375,11.734375
1695387264738,-0.12695312,-0.84381104,-0.18170166,-0.96875,3.578125,16.40625
1695387264776,-0.0859375,-0.850647,-0.11456299,1.859375,3.265625,19.171875
1695387264807,-0.0690918,-0.8994751,-0.1819458,1.703125,-5.40625,19.984375
1695387264856,-0.08642578,-0.76812744,-0.097473145,-1.453125,0.21875,16.296875
1695387264896,-0.107421875,-0.83843994,-0.14556885,-3.1875,-7.171875,15.515625
1695387264928,-0.0925293,-1.0606079,-0.12286377,2.78125,2.546875,7.0
1695387264975,0.037353516,-1.375061,-0.2185669,-0.765625,-6.578125,0.375
1695387265045,0.17700195,-1.236145,0.058532715,0.890625,10.640625,9.015625
1695387265057,0.020019531,-0.9512329,-0.17633057,-5.71875,0.765625,16.125
1695387265089,-0.13769531,-0.9807739,-0.24859619,-3.5625,1.875,-1.34375
1695387265134,0.083984375,-1.125061,-0.01739502,8.03125,5.203125,-6.390625
1695387265167,0.16894531,-1.1443481,-0.0017700195,-7.15625,6.8125,8.15625
1695387265212,0.033935547,-0.895813,-0.1194458,3.546875,-0.890625,12.109375
1695387265241,-0.04711914,-0.8887329,-0.1494751,13.40625,-5.46875,-2.375
1695387265287,-0.02758789,-1.2168579,-0.1375122,5.640625,5.046875,-6.296875
1695387265331,0.07543945,-1.1306763,-0.11090088,2.40625,5.796875,1.875
1695387265365,-0.030273438,-0.8789673,-0.1416626,0.53125,5.359375,4.203125
1695387265405,-0.08300781,-0.83721924,-0.1741333,-0.109375,5.15625,1.375
1695387265450,0.0048828125,-0.95513916,-0.116760254,0.75,5.9375,-2.859375
1695387265479,0.017578125,-1.0864868,-0.05670166,0.609375,5.453125,-3.09375
1695387265525,-0.036865234,-0.9973755,-0.09063721,-2.140625,6.34375,-0.4375
1695387265553,-0.05859375,-0.9019165,-0.13897705,-0.59375,4.921875,-1.390625
1695387265613,-0.044189453,-0.9336548,-0.13946533,1.390625,5.125,-6.328125
1695387265644,-0.014404297,-0.9751587,-0.10675049,0.90625,4.9375,-4.9375
1695387265678,-0.041259766,-0.9627075,-0.08062744,-2.09375,6.9375,-2.265625
1695387265719,-0.06274414,-0.94610596,-0.09136963,-4.265625,3.875,-3.375
1695387265793,-0.059814453,-0.9517212,-0.078430176,-4.0625,3.546875,-5.8125
1695387265815,-0.06298828,-0.9873657,-0.055480957,-2.90625,2.765625,-5.6875
1695387265840,-0.08105469,-0.96295166,-0.07940674,0.375,1.953125,-3.984375
1695387265882,-0.12792969,-0.97491455,-0.09820557,-1.125,4.0,-2.1875
1695387265912,-0.071777344,-0.9578247,-0.08306885,3.078125,8.765625,-3.171875
1695387265957,-0.064697266,-0.9326782,-0.09893799,2.90625,8.984375,-2.234375
1695387265988,-0.064697266,-0.9221802,-0.093322754,1.15625,7.53125,-0.234375
1695387266032,-0.1027832,-0.96759033,-0.07891846,0.375,8.078125,-0.921875
1695387266077,-0.08520508,-0.96051025,-0.058898926,-3.125,10.265625,-2.59375
1695387266110,-0.059326172,-0.90509033,-0.06329346,-1.90625,10.625,-2.453125
1695387266152,-0.080322266,-0.928772,0.0016479492,1.5625,13.171875,-0.3125
1695387266197,-0.11352539,-0.9768677,-0.024963379,4.921875,9.59375,-0.578125
1695387266227,-0.080566406,-1.0628052,-0.06304932,3.03125,6.171875,-4.3125
1695387266272,-0.030029297,-1.0244751,-0.12335205,4.03125,0.171875,-9.453125
1695387266348,-0.045166016,-1.0357056,-0.17193604,-1.953125,-11.765625,-9.109375
1695387266352,-0.11328125,-0.92315674,-0.22564697,2.234375,-18.15625,-6.359375
1695387266394,-0.06542969,-0.8130493,-0.31695557,2.421875,-13.28125,-3.15625
1695387266424,-0.034179688,-0.8726196,-0.29278564,2.921875,-18.734375,-0.671875
1695387266471,-0.16479492,-1.3374634,-0.317688,-11.765625,-18.046875,-22.578125
1695387266514,-0.16040039,-1.170227,-0.21026611,9.03125,0.609375,5.9375
1695387266543,-0.2319336,-0.9299927,-0.26031494,4.984375,1.765625,12.84375
1695387266589,-0.11767578,-0.9968872,-0.128479,12.5625,-6.984375,-11.828125
1695387266634,-0.20458984,-1.0305786,-0.15948486,4.890625,-10.578125,-20.765625
1695387266663,-0.234375,-1.1206665,-0.1819458,-7.890625,-3.015625,-6.09375
1695387266710,-0.072265625,-0.9356079,-0.24542236,4.84375,-2.109375,0.125
1695387266757,-0.03515625,-0.8543091,-0.18682861,7.578125,-8.34375,-1.0
1695387266785,-0.16796875,-0.95562744,-0.1885376,3.453125,-13.5,-3.328125
1695387266831,-0.34545898,-0.9949341,-0.18243408,1.703125,-4.5625,-4.703125
1695387266860,-0.22753906,-0.97369385,-0.20806885,-2.25,-1.125,-6.375
1695387266907,-0.15405273,-0.9883423,-0.20172119,-2.9375,-0.5625,-4.1875
1695387266952,-0.18334961,-0.9854126,-0.1987915,-5.171875,-1.546875,-2.046875
1695387266981,-0.17602539,-0.944397,-0.16534424,-3.671875,-2.265625,-0.078125
1695387267025,-0.18164062,-0.94122314,-0.18414307,-4.984375,-2.28125,1.15625
1695387267073,-0.20019531,-0.91119385,-0.16827393,0.53125,-1.78125,-1.984375
1695387267100,-0.15820312,-0.9085083,-0.24639893,-5.578125,-10.34375,-3.453125
1695387267147,-0.14257812,-0.90093994,-0.18096924,-9.8125,-13.5,-3.640625
1695387267198,-0.21313477,-0.96173096,-0.0947876,-0.1875,-14.421875,-2.515625
1695387267236,-0.2800293,-0.9636841,-0.10089111,-0.109375,-8.453125,1.046875
1695387267263,-0.29589844,-0.9536743,-0.13311768,-4.84375,-3.890625,-1.203125
1695387267294,-0.24780273,-0.8965454,-0.15826416,-5.15625,-2.328125,-3.484375
1695387267337,-0.19433594,-0.92755127,-0.16558838,-5.0625,-3.28125,-4.75
1695387267382,-0.22558594,-0.986145,-0.12042236,-2.40625,-0.671875,-3.34375
1695387267416,-0.27441406,-1.0203247,-0.10015869,-4.296875,1.25,-2.453125
1695387267457,-0.2697754,-0.93634033,-0.11090088,-5.75,2.453125,-3.0625
1695387267503,-0.26171875,-0.9067993,-0.1026001,-10.328125,3.515625,-4.0625
1695387267533,-0.25683594,-0.91412354,-0.13580322,-8.1875,3.78125,-2.203125
1695387267580,-0.24584961,-0.8814087,-0.108947754,-8.921875,5.21875,-0.375
1695387267609,-0.23266602,-0.93292236,-0.08453369,-6.609375,7.359375,-2.75
1695387267654,-0.25,-1.000061,-0.070617676,-7.765625,6.03125,-1.1875
1695387267699,-0.25585938,-0.9829712,-0.04425049,-11.25,8.15625,3.5
1695387267730,-0.20288086,-0.9089966,-0.016174316,-3.828125,5.4375,10.765625
1695387267776,-0.2854004,-0.8609009,-0.07891846,-5.84375,2.484375,15.1875
1695387267820,-0.2397461,-0.79888916,-0.06768799,0.78125,6.890625,21.171875
1695387267852,-0.09765625,-0.7703247,-0.12896729,2.953125,8.515625,18.28125
1695387267894,-0.09399414,-0.9072876,-0.18170166,1.890625,14.34375,12.984375
1695387267941,0.10668945,-1.0774536,-0.12384033,30.8125,1.75,15.109375
1695387267972,0.13623047,-1.1655884,-0.10284424,10.0,4.6875,14.484375
1695387268015,0.095458984,-1.1140747,-0.16729736,-8.890625,-5.6875,9.484375
1695387268048,0.18310547,-1.4446411,0.038269043,1.796875,-11.03125,-2.78125
1695387268092,0.025390625,-1.3403931,0.0036010742,-3.25,-20.234375,-2.984375
1695387268137,-0.13696289,-1.0261841,-0.10333252,-6.4375,-19.234375,-0.046875
1695387268166,-0.11743164,-0.8115845,-0.17608643,-0.15625,-14.796875,2.3125
1695387268213,-0.048095703,-0.9138794,-0.1038208,3.84375,-13.828125,-0.078125
1695387268257,-0.013671875,-1.0349731,-0.062316895,-4.4375,-6.8125,-1.921875
1695387268285,0.020996094,-1.0032349,-0.05645752,0.9375,-6.859375,-2.140625
1695387268329,0.012207031,-0.90216064,-0.0947876,-2.296875,-7.296875,1.296875
1695387268362,-0.043701172,-0.9360962,-0.07354736,-6.046875,-10.703125,1.890625
1695387268403,-0.1381836,-1.0005493,-0.0725708,-3.71875,-7.03125,-2.171875
1695387268447,-0.13476562,-1.0071411,-0.0491333,-5.25,0.375,-5.140625
1695387268477,-0.0063476562,-0.9470825,-0.032287598,-7.515625,3.734375,-2.140625
1695387268524,0.03515625,-0.93585205,-0.025939941,-8.609375,-1.4375,-1.578125
1695387268569,-0.037353516,-1.0459595,0.04437256,-6.09375,-0.28125,2.234375
1695387268599,-0.087402344,-1.062561,0.043151855,-4.609375,0.984375,0.3125
1695387268647,-0.068359375,-0.9783325,-0.003479004,-1.375,6.796875,-3.1875
1695387268693,-0.0126953125,-0.9636841,0.020935059,-4.984375,2.4375,-3.609375
1695387268724,-0.023925781,-1.0249634,0.0033569336,-2.09375,2.046875,0.765625
1695387268766,-0.09887695,-0.98516846,0.018493652,0.484375,4.234375,2.4375
1695387268809,-0.07495117,-0.9661255,0.038513184,2.09375,6.390625,-2.296875
1695387268840,-0.107421875,-0.9702759,0.034851074,1.578125,6.9375,-4.671875
1695387268885,-0.061523438,-1.0230103,0.059753418,-0.15625,7.5625,-4.96875
1695387268917,-0.028320312,-1.0769653,0.08880615,-1.75,3.765625,-6.515625
1695387268960,-0.09423828,-1.0112915,0.07342529,-0.21875,2.484375,-6.71875
1695387269006,-0.125,-0.927063,0.08685303,-2.578125,2.53125,-8.796875
1695387269037,-0.091552734,-0.9768677,0.0848999,-2.625,1.0,-11.15625
1695387269080,-0.08666992,-1.0003052,0.10638428,-0.90625,1.046875,-5.203125
1695387269125,-0.103759766,-0.9126587,0.08270264,-1.3125,-1.03125,-1.75
1695387269165,-0.059570312,-0.91900635,0.10296631,-2.09375,-2.953125,-3.3125
1695387269201,-0.030029297,-0.92633057,0.14154053,-3.390625,-6.671875,-4.8125
1695387269231,-0.099609375,-0.9192505,0.1593628,-5.015625,-12.625,-1.9375
1695387269276,-0.18457031,-0.9014282,0.13787842,-5.625,-16.125,-1.75
1695387269323,-0.13330078,-0.8550415,0.1083374,-3.25,-16.875,-2.609375
1695387269351,-0.034423828,-0.8530884,0.17376709,1.515625,-21.171875,-6.015625
1695387269396,-0.1237793,-0.85479736,0.184021,-1.28125,-28.90625,-4.34375
1695387269442,-0.21435547,-1.0061646,-0.3291626,6.203125,-57.828125,-2.859375
1695387269470,-0.15405273,-1.2717896,-0.046936035,-2.890625,-37.796875,-16.453125
1695387269515,0.09814453,-1.1299438,-0.25616455,3.21875,-40.125,-0.21875
1695387269547,-0.08935547,-1.2359009,-0.2727661,14.0,-34.046875,-2.46875
1695387269591,-0.18408203,-1.1140747,-0.21099854,7.671875,-28.609375,-3.21875
1695387269636,-0.10229492,-1.1160278,-0.047180176,-1.265625,-29.734375,-0.9375
1695387269666,-0.18041992,-1.0281372,-0.11114502,-3.46875,-30.484375,-1.0625
1695387269713,-0.103759766,-0.9234009,-0.1885376,-1.796875,-31.828125,-2.1875
1695387269755,-0.061035156,-1.0559692,-0.06842041,-3.078125,-29.5,0.28125
1695387269791,-0.12231445,-1.0025024,-0.09552002,-0.078125,-29.09375,0.125
1695387269831,-0.14355469,-0.942688,-0.07574463,-3.5,-26.65625,3.109375
1695387269877,-0.16259766,-1.0366821,-0.057922363,-7.390625,-25.328125,1.875
1695387269905,-0.18383789,-1.0169067,-0.038391113,-9.6875,-21.390625,-7.53125
1695387269954,-0.14038086,-0.9390259,-0.08282471,-12.796875,-21.65625,-8.859375
1695387269980,-0.071777344,-0.90460205,-0.026428223,-3.765625,-13.234375,-2.671875
1695387270024,-0.11254883,-0.9429321,-0.034729004,-3.109375,-19.0,2.6875
1695387270074,-0.20800781,-1.0007935,-0.03253174,-3.828125,-18.453125,-0.59375
1695387270115,-0.20654297,-1.0095825,-0.038391113,-10.390625,-20.296875,-5.0
1695387270147,-0.20166016,-0.9553833,-0.051574707,-5.28125,-17.015625,-7.125
1695387270189,-0.1706543,-0.97613525,-0.030334473,2.328125,-18.28125,-5.5
1695387270219,-0.15283203,-0.97125244,-0.018127441,2.125,-22.375,-3.3125
1695387270264,-0.23803711,-0.93218994,-0.045959473,0.265625,-22.734375,-3.625
1695387270310,-0.24658203,-0.94073486,-0.0569458,2.75,-25.328125,-6.921875
1695387270347,-0.2277832,-0.9710083,-0.09918213,4.078125,-27.234375,-4.234375
1695387270385,-0.2084961,-0.9915161,-0.11920166,9.859375,-29.90625,-3.046875
1695387270414,-0.14135742,-0.9229126,-0.11627197,12.28125,-31.25,-2.96875
1695387270465,-0.12866211,-0.927063,-0.109191895,13.390625,-35.125,-1.515625
1695387270505,-0.26342773,-0.90753174,-0.1428833,14.375,-44.90625,-3.78125
1695387270535,-0.21459961,-0.89556885,-0.21588135,9.859375,-44.125,-10.53125
1695387270580,-0.15356445,-0.8711548,-0.14141846,9.828125,-39.921875,-15.5
1695387270626,-0.2397461,-0.9024048,-0.1572876,3.671875,-46.09375,-10.078125
1695387270662,-0.32836914,-0.9158325,-0.17730713,-4.234375,-43.90625,-14.09375
1695387270705,-0.4267578,-0.9221802,-0.15216064,-12.25,-31.390625,-18.140625
1695387270748,-0.33691406,-0.96051025,-0.1494751,-15.5625,-22.484375,-15.171875
1695387270778,-0.25219727,-1.0339966,-0.124572754,-20.203125,-15.9375,-6.015625
1695387270817,-0.31274414,-1.11969,-0.13677979,-15.78125,-11.671875,-7.859375
1695387270847,-0.29663086,-0.98931885,-0.14923096,-13.78125,-6.640625,-4.21875
1695387270894,-0.30737305,-0.91192627,-0.09185791,-12.0,-3.25,2.59375
1695387270941,-0.38916016,-0.9729614,-0.00982666,-12.6875,9.34375,7.34375
1695387270971,-0.38891602,-1.1240845,-0.13336182,-21.59375,-3.78125,-2.0625
1695387271019,-0.22094727,-1.0872192,-0.07574463,-11.78125,8.921875,7.6875
1695387271060,-0.1928711,-0.87579346,-0.04083252,-15.3125,-4.0,16.53125
1695387271091,-0.26220703,-0.76153564,0.15350342,-9.1875,13.046875,22.453125
1695387271138,-0.35205078,-0.6135864,0.058776855,-14.234375,1.421875,8.359375
1695387271168,-0.5126953,-0.7017212,0.04559326,-13.640625,17.796875,3.734375
1695387271211,-0.4230957,-0.81378174,-0.022766113,-12.765625,21.15625,1.8125
1695387271259,-0.11645508,-0.7529907,0.039489746,-1.640625,9.09375,-2.796875
1695387271286,-0.15332031,-1.0818481,-0.23980713,25.71875,14.109375,6.375
1695387271332,0.41796875,-1.8311157,0.14202881,26.265625,-15.234375,12.640625
1695387271383,0.16552734,-1.3674927,-0.17071533,-2.125,21.375,18.34375
1695387271406,0.21044922,-1.0078735,0.081970215,22.625,-3.328125,24.78125
1695387271451,-0.123291016,-0.94976807,-0.1951294,16.4375,-19.453125,16.359375
1695387271500,-0.1538086,-0.8855591,-0.22320557,13.921875,1.484375,5.96875
1695387271526,0.09741211,-0.96173096,-0.12774658,5.40625,0.0625,4.65625
1695387271576,0.16601562,-1.2202759,-0.04449463,-10.09375,0.140625,13.25
1695387271600,0.08911133,-1.006897,-0.08062744,-5.328125,4.625,18.078125
1695387271667,-0.020751953,-0.9031372,-0.097229004,0.875,4.5,8.21875
1695387271692,0.076660156,-0.98272705,-0.15142822,2.515625,3.640625,-1.03125
1695387271719,0.11352539,-1.1045532,0.014099121,0.640625,5.046875,-2.546875
1695387271765,0.122558594,-1.0567017,-0.089416504,-0.46875,3.578125,6.0
1695387271808,0.04638672,-0.9246216,-0.11798096,0.171875,2.578125,4.359375
1695387271839,-0.0056152344,-0.96832275,-0.1585083,5.15625,7.484375,-1.796875
1695387271885,0.14746094,-1.0234985,-0.105041504,-0.765625,6.6875,-3.328125
1695387271930,0.20751953,-0.96295166,-0.09454346,-1.28125,3.21875,2.828125
1695387271961,0.09472656,-0.90753174,-0.12359619,-1.15625,-0.84375,3.90625
1695387272005,0.045410156,-0.9368286,-0.13018799,-1.1875,-1.140625,0.03125
1695387272035,0.007080078,-1.0081177,-0.07574463,-0.015625,0.734375,-0.6875
1695387272081,0.018066406,-1.0459595,-0.09161377,-3.296875,2.28125,-1.28125
1695387272127,0.049560547,-0.99224854,-0.09454346,-5.25,-1.4375,-3.375
1695387272156,-0.009521484,-0.96881104,-0.09942627,-2.84375,0.265625,-3.03125
1695387272201,0.022460938,-0.9326782,-0.0803833,-2.15625,1.875,-5.0
1695387272244,0.03930664,-0.9500122,-0.051330566,-1.859375,-1.015625,-2.328125
1695387272290,0.05834961,-0.98883057,-0.044006348,-2.796875,-3.4375,-3.390625
1695387272324,0.014892578,-0.9951782,-0.035461426,-0.109375,-3.34375,-4.125
1695387272353,-0.046142578,-1.0059204,-0.019348145,-1.140625,-4.28125,-4.078125
1695387272395,-0.03955078,-1.0032349,-0.005432129,-1.109375,1.203125,-4.875
1695387272455,-0.048828125,-0.9495239,-0.035705566,-0.09375,3.53125,-5.65625
1695387272471,-0.06201172,-0.90948486,-0.004699707,-1.1875,6.375,-8.21875
1695387272516,-0.052246094,-0.9373169,0.007019043,-1.890625,8.125,-7.609375
1695387272558,-0.061767578,-0.9590454,0.0014038086,1.9375,7.796875,-7.046875
1695387272590,-0.052978516,-0.8826294,0.008728027,2.921875,12.0,-6.3125
1695387272634,-0.06542969,-0.880188,-0.030578613,1.125,7.484375,-7.75
1695387272687,-0.084472656,-0.9807739,0.015319824,0.90625,11.3125,-12.984375
1695387272731,-0.103515625,-1.0169067,-0.0037231445,5.015625,9.890625,-11.0
1695387272754,-0.15722656,-0.9678345,0.010192871,2.609375,14.96875,-7.296875
1695387272797,-0.13110352,-0.93170166,0.011657715,5.828125,18.171875,-6.53125
1695387272827,-0.080322266,-0.9072876,0.006286621,2.078125,16.6875,-6.703125
1695387272872,-0.01586914,-0.84625244,-6.1035156E-5,5.375,12.015625,-3.984375
1695387272902,-0.0053710938,-0.8648071,-0.007385254,7.296875,5.953125,-2.0
1695387272947,-0.0715332,-0.8887329,-0.06695557,7.125,3.546875,-3.671875
1695387272993,0.009033203,-1.0039673,-0.22174072,-2.578125,-19.046875,-3.484375
1695387273039,-0.11450195,-1.3579712,-0.1326294,-7.234375,-28.25,-12.140625
1695387273069,-0.17016602,-1.062561,-0.33477783,10.71875,-6.359375,1.03125
1695387273115,-0.064941406,-0.76397705,-0.2822876,17.296875,-0.828125,15.921875
1695387273144,-0.18164062,-1.3428345,-0.565979,-8.40625,-19.03125,-3.671875
1695387273192,-0.30859375,-1.4204712,-0.07598877,14.953125,-0.46875,-9.03125
1695387273224,-0.16796875,-1.0032349,-0.255188,-8.40625,-7.703125,-6.9375
1695387273266,-0.265625,-0.92852783,-0.10284424,-7.65625,1.09375,3.25
1695387273329,-0.16308594,-0.6790161,-0.10040283,0.890625,-9.90625,5.4375
1695387273341,-0.1237793,-0.9793091,-0.09063721,-7.6875,-14.765625,-6.328125
1695387273387,-0.07446289,-1.1026001,-0.17633057,-1.65625,-8.578125,-15.9375
1695387273436,-0.0546875,-0.91534424,-0.17974854,4.390625,-9.765625,-6.515625
1695387273462,-0.19042969,-0.9492798,-0.1951294,-1.75,-15.34375,3.5
1695387273507,-0.42285156,-1.0420532,-0.12652588,-3.8125,-4.84375,-3.71875
1695387273536,-0.2709961,-0.99102783,-0.10089111,-7.421875,-5.328125,-9.484375
1695387273581,-0.06298828,-0.92681885,-0.12506104,-5.90625,-4.46875,-5.3125
1695387273644,-0.11743164,-0.9602661,-0.144104,0.25,-2.8125,0.96875
1695387273656,-0.26586914,-0.97979736,-0.18292236,0.59375,-3.640625,1.875
1695387273700,-0.203125,-0.92974854,-0.105285645,1.4375,-4.265625,-1.0
1695387273747,-0.19140625,-0.97320557,-0.10723877,1.40625,-0.171875,-1.078125
1695387273777,-0.21362305,-0.9993286,-0.11236572,0.609375,0.1875,1.703125
1695387273821,-0.2006836,-0.96710205,-0.12310791,-0.15625,-0.8125,0.328125
1695387273862,-0.2043457,-0.960022,-0.13336182,-2.03125,0.6875,-0.671875
1695387273893,-0.18676758,-0.94903564,-0.11846924,-2.03125,0.171875,-1.640625
1695387273953,-0.17114258,-0.93951416,-0.093811035,-3.3125,-2.875,-1.296875
1695387273984,-0.20776367,-0.98223877,-0.09161377,-3.9375,-2.640625,-0.375
1695387274032,-0.23535156,-0.9282837,-0.06719971,-2.40625,-2.984375,0.25
1695387274059,-0.23754883,-0.9468384,-0.124816895,-7.625,-4.625,-1.578125
1695387274093,-0.18603516,-0.9043579,-0.062316895,-6.0625,-1.765625,-3.28125
1695387274149,-0.20117188,-0.9209595,-0.07574463,-4.53125,-3.046875,-0.1875
1695387274179,-0.23168945,-0.9451294,-0.041809082,-4.234375,-1.828125,-0.3125
1695387274210,-0.29663086,-0.95977783,-0.07305908,-3.59375,-2.390625,-0.21875
1695387274255,-0.32373047,-0.97662354,-0.039123535,-7.25,1.640625,-3.5625
1695387274300,-0.2709961,-0.95562744,-0.01373291,-8.140625,3.375,-5.4375
1695387274329,-0.24169922,-0.848938,-7.9345703E-4,-12.453125,4.015625,-2.765625
1695387274374,-0.2097168,-0.9002075,-0.0049438477,-9.71875,5.609375,2.546875
1695387274404,-0.20361328,-0.89385986,0.018737793,-6.671875,7.109375,6.109375
1695387274450,-0.18896484,-0.8579712,-0.026428223,-7.421875,3.609375,12.984375
1695387274501,-0.14379883,-0.80426025,-0.059143066,3.84375,7.359375,17.546875
1695387274528,-0.16357422,-0.862854,-0.011047363,11.140625,8.859375,14.671875
1695387274572,-0.18676758,-0.9072876,-0.05230713,6.9375,8.25,6.09375
1695387274621,0.14697266,-1.1519165,-0.06304932,9.640625,17.78125,-0.15625
1695387274647,0.2548828,-1.354065,-0.06817627,1.375,-16.109375,5.96875
1695387274694,-0.06738281,-1.3501587,4.272461E-4,-1.171875,-3.75,9.8125
1695387274738,-0.07324219,-1.0127563,-0.05596924,2.625,-3.328125,10.3125
1695387274767,-0.1352539,-1.0474243,-0.11407471,-1.65625,1.3125,4.34375
1695387274813,-0.040771484,-1.0117798,-0.017150879,4.328125,4.140625,3.53125
1695387274840,0.041748047,-0.99835205,-0.016662598,-1.984375,-2.125,5.453125
1695387274886,0.016601562,-0.91070557,-0.055480957,-3.75,-0.84375,8.609375
1695387274931,-0.039794922,-0.9434204,-0.08795166,3.703125,-6.671875,0.9375
1695387274963,-0.052001953,-1.1348267,-0.016662598,0.0,3.625,-1.375
1695387275005,9.765625E-4,-1.0952759,-0.016906738,-0.453125,-0.171875,-1.984375
1695387275067,-0.017333984,-0.9199829,-0.015197754,2.8125,-2.203125,-2.546875
1695387275098,-0.079589844,-0.9158325,-0.050842285,2.5,-2.78125,-1.9375
1695387275127,-0.14208984,-0.9697876,-0.055480957,1.578125,-1.46875,-4.9375
1695387275159,-0.059570312,-0.99005127,-0.0029907227,1.015625,0.3125,-4.96875
1695387275204,-0.030761719,-1.0227661,0.010925293,-2.59375,-0.453125,-4.375
1695387275244,-0.046142578,-0.97369385,-0.03741455,0.625,0.03125,-2.359375
1695387275275,-0.072509766,-0.9517212,-0.042785645,0.640625,-1.5625,-4.421875
1695387275324,-0.084472656,-1.0029907,-0.0134887695,0.40625,-2.453125,-3.25
1695387275366,-0.09057617,-1.0276489,-0.004211426,0.0625,-1.046875,-1.0625
1695387275395,-0.11743164,-0.98394775,-0.016906738,-0.71875,-0.71875,-1.671875
1695387275445,-0.087646484,-0.95806885,-0.02545166,0.453125,2.0,-3.859375
1695387275517,-0.09033203,-0.9729614,1.8310547E-4,-0.609375,-0.296875,-5.375
1695387275525,-0.083740234,-0.9776001,-0.004699707,-2.28125,-1.546875,-2.625
1695387275561,-0.07446289,-0.95635986,0.028015137,-2.46875,-3.703125,-2.75
1695387275587,-0.068359375,-0.96343994,0.024841309,-1.75,-5.609375,-2.75
1695387275636,-0.087402344,-0.94781494,0.024353027,-1.828125,-7.890625,-3.109375
1695387275683,-0.08520508,-0.9163208,0.034118652,-1.421875,-9.1875,-3.25
1695387275713,-0.08105469,-0.8945923,0.03363037,0.25,-10.625,-1.4375
1695387275758,-0.08666992,-0.90948486,0.014831543,1.3125,-10.1875,-1.0
1695387275803,-0.053955078,-0.9602661,0.12200928,-2.828125,-13.4375,-2.875
1695387275831,-0.15063477,-0.9290161,0.055114746,6.546875,-14.84375,-5.390625
1695387275877,-0.14331055,-0.9092407,0.020935059,0.71875,-14.90625,-6.28125
1695387275938,-0.052978516,-0.86065674,0.005065918,6.890625,-25.109375,-12.34375
1695387275951,-0.08569336,-0.8596802,0.109558105,-1.8125,-34.15625,-14.453125
1695387275998,-0.1586914,-0.97979736,-0.48077393,-3.140625,-73.921875,-16.21875
1695387276026,-0.060791016,-1.416565,-0.10992432,-12.125,-55.65625,-26.359375
1695387276073,0.056640625,-1.6968384,-0.28399658,-6.296875,-40.015625,-5.796875
1695387276116,-0.14990234,-1.0200806,-0.32574463,17.015625,-37.15625,4.59375
1695387276147,-0.30908203,-0.86798096,-0.21661377,-4.921875,-24.984375,2.125
1695387276191,-0.2475586,-0.92193604,-0.09136963,-1.484375,-44.65625,-6.640625
1695387276237,-0.1628418,-0.96173096,-0.13287354,-13.46875,-35.734375,-8.65625
1695387276267,-0.001953125,-1.019104,-0.13409424,-13.359375,-38.765625,-0.359375
1695387276312,0.083740234,-1.0183716,-0.15338135,-0.328125,-41.078125,4.109375
1695387276344,-0.12719727,-0.96539307,-0.17071533,-5.421875,-46.25,3.84375
1695387276390,-0.3388672,-0.9793091,-0.15435791,-9.46875,-40.1875,-1.6875
1695387276430,-0.30395508,-0.91900635,-0.062561035,-10.171875,-30.5625,-10.65625
1695387276461,-0.16625977,-0.99346924,-0.08648682,-13.734375,-30.46875,-6.421875
1695387276509,-0.10644531,-0.9746704,-0.050598145,-7.96875,-22.828125,1.671875
1695387276550,-0.15722656,-0.92193604,-0.05645752,-6.15625,-25.984375,1.3125
1695387276583,-0.23168945,-1.0327759,-0.034484863,-6.84375,-23.25,-3.484375
1695387276629,-0.18066406,-0.99835205,0.007019043,-11.3125,-21.65625,-5.640625
1695387276673,-0.22485352,-0.95391846,9.1552734E-4,-9.46875,-25.75,-5.59375
1695387276703,-0.15698242,-1.0427856,-0.066223145,-12.109375,-33.796875,-10.0625
1695387276747,-0.16772461,-0.97491455,-0.014709473,-15.6875,-29.703125,0.078125
1695387276778,-0.24169922,-0.9680786,-0.06915283,-7.734375,-23.59375,5.4375
1695387276823,-0.19921875,-0.9380493,-0.054260254,4.171875,-22.109375,3.671875
1695387276870,-0.08129883,-0.9636841,-0.07696533,15.6875,-24.71875,0.984375
1695387276896,-0.07543945,-0.9612427,-0.109191895,21.9375,-34.359375,-9.21875
1695387276943,-0.17382812,-0.9229126,-0.08404541,21.65625,-34.140625,-10.96875
1695387276987,-0.22070312,-0.98223877,-0.1104126,15.625,-38.375,-5.703125
1695387277017,-0.23730469,-1.0408325,-0.086242676,9.703125,-38.5,-10.09375
1695387277063,-0.22192383,-0.9558716,-0.14727783,3.515625,-35.09375,-13.1875
1695387277107,-0.28173828,-0.84820557,-0.14215088,2.28125,-29.921875,-11.609375
1695387277140,-0.34765625,-0.9302368,-0.1272583,-1.40625,-23.5,-14.5
1695387277183,-0.3852539,-1.0029907,-0.089904785,-6.25,-14.625,-17.125
1695387277212,-0.28710938,-0.9429321,-0.097961426,-12.8125,-5.75,-10.0625
1695387277260,-0.26782227,-0.87579346,-0.09967041,-13.453125,-2.90625,-2.515625
1695387277303,-0.26391602,-0.92803955,-0.06109619,-15.1875,1.515625,-1.9375
1695387277335,-0.19873047,-0.9644165,-0.038146973,-10.625,5.484375,0.484375
1695387277379,-0.23413086,-0.86065674,-0.031066895,-10.609375,5.984375,6.0625
1695387277420,-0.36743164,-0.87872314,-0.019348145,-10.140625,7.09375,6.765625
1695387277453,-0.453125,-0.9873657,-0.009338379,-12.421875,13.203125,-0.03125
1695387277499,-0.45703125,-1.0078735,0.036071777,-18.53125,19.828125,-5.84375
1695387277526,-0.328125,-0.9456177,0.020690918,-15.78125,27.90625,1.671875
1695387277572,-0.11206055,-0.90948486,0.062683105,-7.953125,24.96875,7.484375
1695387277627,-0.2084961,-0.8989868,0.06756592,-3.78125,9.734375,5.1875
1695387277647,-0.4482422,-0.9624634,0.038024902,-6.0625,7.875,2.4375
1695387277689,-0.45092773,-0.8687134,0.07220459,-1.46875,22.46875,5.859375
1695387277740,-0.28833008,-0.76812744,0.08074951,-0.484375,20.8125,3.375
1695387277767,-0.36865234,-0.7776489,-0.1428833,-2.25,10.78125,2.96875
1695387277814,-0.19042969,-1.6231079,-0.26715088,15.6875,37.84375,-18.75
1695387277856,0.34179688,-1.2798462,0.055847168,20.78125,28.515625,20.9375
1695387277891,0.32299805,-0.92071533,-0.06378174,3.875,1.09375,17.328125
1695387277930,0.060791016,-0.75445557,-0.08795166,22.515625,-8.78125,23.46875
1695387277961,-0.1796875,-1.0545044,-0.19586182,8.609375,-15.46875,-1.9375
1695387278036,-0.20776367,-1.2578735,-0.10455322,6.625,0.015625,-17.453125
1695387278051,0.26245117,-1.1970825,-0.032287598,-8.21875,-10.796875,4.640625
1695387278083,0.1484375,-1.0125122,-0.011779785,-5.453125,-13.578125,16.15625
1695387278128,-0.18676758,-0.9690552,-0.0725708,2.125,-17.078125,10.25
1695387278175,-0.3239746,-1.0071411,-0.13824463,5.625,-5.75,6.53125
1695387278207,-0.060546875,-0.95928955,-0.059631348,-2.703125,5.046875,3.90625
1695387278246,0.07104492,-0.9385376,-0.0256958,-4.984375,1.859375,-0.515625
1695387278294,0.02734375,-1.0100708,-0.009094238,-4.3125,1.375,3.0625
1695387278326,-0.10498047,-1.0308228,0.01361084,2.0625,5.1875,6.875
1695387278367,-0.12524414,-0.9907837,-0.036193848,0.59375,6.953125,3.703125
1695387278395,-0.10083008,-0.9360962,-0.026672363,-0.296875,10.296875,-0.59375
1695387278443,-0.02734375,-0.9663696,-0.02130127,-0.359375,9.109375,0.3125
1695387278487,0.09033203,-1.0252075,0.0072631836,-3.125,2.625,5.078125
1695387278516,0.036376953,-1.0684204,0.051940918,-1.234375,-1.625,7.71875
1695387278564,-0.14501953,-1.0457153,0.022155762,1.140625,-2.1875,7.9375
1695387278607,-0.1730957,-0.97125244,-0.0051879883,0.859375,0.71875,1.828125
1695387278639,-0.024169922,-0.9260864,-0.042785645,-2.28125,0.890625,2.28125
1695387278685,-0.009521484,-0.9546509,-0.032043457,2.0625,-0.125,2.9375
1695387278710,0.056152344,-0.97052,-0.051574707,2.59375,3.453125,5.140625
1695387278759,-0.016601562,-0.9690552,0.035583496,3.3125,2.578125,4.890625
1695387278801,-0.103027344,-1.0820923,0.066345215,-2.703125,1.78125,-1.296875
1695387278831,-0.09106445,-1.0278931,0.04876709,-5.5,2.546875,-4.109375
1695387278876,-0.017333984,-0.94732666,0.051208496,-1.796875,7.234375,-4.0625
1695387278939,-0.08911133,-0.9651489,0.05682373,-1.40625,4.796875,-5.359375
1695387278951,-0.103759766,-1.0039673,0.031188965,-1.4375,12.96875,-7.046875
1695387278997,-0.038330078,-0.9578247,0.070007324,-2.109375,9.796875,-8.59375
1695387279042,-0.047607422,-0.9180298,0.03753662,-1.234375,14.0625,-7.625
1695387279072,-0.016601562,-0.90704346,0.022155762,-0.984375,8.625,-6.0
1695387279133,-0.0146484375,-0.9456177,0.08123779,-1.875,5.15625,-8.0625
1695387279146,0.009765625,-0.9717407,0.06976318,-1.109375,3.140625,-4.015625
1695387279192,-0.091796875,-0.9829712,0.04559326,1.4375,-0.9375,-4.828125
1695387279251,-0.10839844,-0.97052,0.057556152,1.625,1.328125,-7.625
1695387279264,-0.14501953,-0.9692993,0.03289795,5.515625,7.28125,-6.03125
1695387279313,-0.15014648,-0.8855591,0.074401855,7.359375,14.5,-3.4375
1695387279357,-0.0871582,-0.9109497,0.034362793,3.6875,9.609375,-7.046875
1695387279389,-0.052246094,-0.98321533,0.035827637,10.203125,7.265625,-3.859375
1695387279433,-0.024658203,-0.8796997,-0.0051879883,9.546875,3.921875,1.84375
1695387279507,-0.022705078,-0.9102173,-0.031555176,12.5,-0.46875,2.125
1695387279511,-0.09277344,-0.89678955,-0.016906738,9.515625,-2.03125,3.484375
1695387279553,-0.033447266,-0.95513916,0.0211792,-0.9375,-12.296875,0.1875
1695387279584,-0.014404297,-0.9500122,-0.12628174,6.234375,-27.53125,-0.65625
1695387279627,-0.13476562,-1.1570435,-0.3826294,7.140625,-33.828125,-10.484375
1695387279674,0.07543945,-1.0549927,-0.28570557,4.09375,-34.65625,-5.21875
1695387279700,0.0146484375,-1.2959595,-0.34429932,-5.25,-32.828125,-5.828125
1695387279748,-0.16210938,-1.1358032,-0.25494385,21.046875,-22.78125,4.796875
1695387279789,-0.30859375,-1.0003052,-0.1819458,3.328125,-20.4375,10.34375
1695387279823,-0.50268555,-1.0408325,-0.175354,-0.890625,-18.828125,-8.234375
1695387279866,-0.26049805,-0.94366455,-0.21270752,-0.265625,-5.15625,-29.21875
1695387279912,-0.013183594,-1.0996704,-0.12994385,0.4375,-3.65625,-13.578125
1695387279956,-0.039794922,-1.0559692,-0.14337158,3.78125,-5.4375,0.859375
1695387279986,-0.19677734,-0.9019165,-0.18658447,1.375,-9.03125,2.96875
1695387280017,-0.21582031,-0.8464966,-0.17266846,2.390625,-3.9375,0.03125
1695387280064,-0.15966797,-1.0176392,-0.14068604,3.015625,2.09375,-7.421875
1695387280107,-0.1015625,-1.0457153,-0.13018799,-1.203125,-2.0,-4.546875
1695387280152,-0.0625,-0.9446411,-0.13531494,-5.78125,-0.953125,3.6875
1695387280181,-0.14404297,-0.9277954,-0.14849854,-2.84375,-8.953125,4.796875
1695387280230,-0.19628906,-0.9570923,-0.124572754,-2.578125,-7.78125,2.671875
1695387280257,-0.15307617,-0.99884033,-0.13922119,-6.125,-8.84375,-2.53125
1695387280302,-0.14916992,-0.9854126,-0.11895752,-5.71875,-5.8125,-1.984375
1695387280330,-0.16625977,-0.9307251,-0.12310791,-6.40625,-6.9375,-1.546875
1695387280395,-0.17797852,-0.9421997,-0.13189697,-4.15625,-5.640625,-0.265625
1695387280423,-0.18798828,-0.9793091,-0.09820557,-4.46875,-3.984375,-3.234375
1695387280451,-0.18017578,-0.96832275,-0.10699463,-2.125,-2.859375,-3.9375
1695387280498,-0.1928711,-0.9800415,-0.08282471,-3.8125,0.734375,-2.421875
1695387280545,-0.19116211,-0.944397,-0.078186035,-2.09375,2.296875,-3.59375
1695387280570,-0.19799805,-0.9212036,-0.09283447,-1.609375,3.03125,-1.875
1695387280616,-0.22265625,-1.0007935,-0.11383057,-3.734375,4.828125,-3.71875
1695387280660,-0.22363281,-0.9819946,-0.03277588,-2.015625,8.359375,-4.359375
1695387280693,-0.2524414,-0.9800415,-0.07867432,-4.484375,7.921875,-4.59375
1695387280737,-0.21875,-0.92193604,-0.047668457,-5.703125,6.0625,-4.265625
1695387280769,-0.1784668,-0.92315674,-0.043518066,-1.375,5.0625,-2.28125
1695387280812,-0.21801758,-0.95025635,-0.030090332,-3.09375,4.28125,-1.84375
1695387280865,-0.24658203,-0.93756104,-0.030334473,-0.53125,6.734375,-1.21875
1695387280888,-0.22460938,-0.8928833,0.0026245117,-3.046875,8.28125,0.265625
1695387280931,-0.28027344,-0.9990845,-0.028625488,-4.359375,12.078125,-2.765625
1695387280977,-0.2409668,-0.9717407,0.008483887,-4.09375,11.78125,-2.5
1695387281008,-0.20019531,-0.91119385,-0.028381348,-1.359375,12.875,0.015625
1695387281051,-0.20458984,-0.85772705,0.0138549805,-5.125,12.328125,2.921875
1695387281097,-0.23364258,-0.90802,-0.037902832,-5.203125,8.75,9.625
1695387281128,-0.22753906,-0.93585205,-0.026184082,-4.984375,8.78125,5.671875
1695387281173,-0.19726562,-1.0542603,-0.018859863,-2.09375,9.828125,5.5625
1695387281204,-0.13598633,-0.925354,0.03363037,-2.03125,12.046875,6.3125
1695387281249,-0.1730957,-0.8711548,-0.0095825195,-2.640625,15.828125,12.203125
1695387281292,-0.22753906,-0.7593384,-0.043518066,6.25,17.140625,15.859375
1695387281325,-0.056152344,-1.0037231,-0.13287354,8.34375,17.84375,6.203125
1695387281368,0.24389648,-1.2246704,0.07537842,11.75,-14.140625,0.765625
1695387281413,0.13623047,-1.560852,-0.09234619,-16.921875,-6.46875,4.90625
1695387281440,-0.16601562,-1.017395,0.036315918,20.3125,0.328125,17.59375
1695387281485,-0.2097168,-0.8740845,-0.18511963,5.515625,13.625,14.015625
1695387281517,0.016357422,-1.0515747,-0.10772705,9.453125,8.78125,-5.28125
1695387281560,0.16796875,-1.2678833,0.038757324,2.796875,-0.625,-4.8125
1695387281607,0.09643555,-1.218811,-0.020568848,-4.0,-3.453125,12.890625
1695387281636,-0.048828125,-0.8982544,-0.13897705,0.921875,-8.140625,13.40625
1695387281681,-0.14746094,-0.8569946,-0.13580322,4.3125,-3.765625,7.03125
1695387281726,-0.1237793,-0.9939575,-0.04473877,1.03125,1.625,-1.359375
1695387281756,0.0234375,-1.0247192,-0.024230957,1.0625,0.78125,-3.9375
1695387281803,0.008300781,-0.9649048,-0.04034424,-2.59375,-0.3125,0.65625
1695387281848,-0.040527344,-0.9265747,-0.042541504,1.5,-0.96875,1.0625
1695387281876,-0.06665039,-0.96661377,-0.08062744,3.984375,-0.65625,-2.546875
1695387281922,-0.030761719,-0.9944458,-0.035949707,1.875,-0.015625,-3.640625
1695387281952,0.010498047,-1.006897,-0.04815674,-1.34375,-2.96875,-2.078125
1695387281999,-0.018066406,-0.9783325,-0.04473877,-0.015625,-3.015625,0.5
1695387282042,-0.040771484,-0.9793091,-0.04937744,-1.859375,-6.28125,-0.578125
1695387282073,-0.052246094,-1.0171509,-0.02520752,-1.65625,-4.375,-2.578125
1695387282121,-0.06567383,-1.0176392,-0.03668213,-1.296875,-3.078125,-4.140625
1695387282160,-0.05834961,-0.97247314,-0.035949707,-0.796875,-1.640625,-4.03125
1695387282191,-0.051757812,-1.0029907,-0.018615723,-1.671875,-1.046875,-4.359375
1695387282235,-0.07373047,-1.0132446,-0.030578613,-1.40625,-1.890625,-5.21875
1695387282281,-0.08203125,-0.9819946,-0.024230957,2.484375,-0.875,-3.46875
1695387282311,-0.08569336,-0.95025635,-0.020812988,0.984375,2.140625,-4.09375
1695387282360,-0.1003418,-0.9651489,-0.025939941,2.796875,4.375,-4.6875
1695387282388,-0.110839844,-0.9771118,-0.016418457,0.609375,5.921875,-5.53125
1695387282430,-0.0859375,-0.9768677,-0.0029907227,1.234375,6.46875,-5.015625
1695387282478,-0.095214844,-0.9985962,0.015563965,2.09375,5.6875,-3.5625
1695387282508,-0.11303711,-0.9963989,-0.0032348633,0.859375,4.078125,-3.71875
1695387282553,-0.11352539,-0.98028564,-0.002746582,2.359375,7.03125,-4.015625
1695387282597,-0.12939453,-0.9734497,0.009216309,5.28125,5.75,-2.609375
1695387282628,-0.10839844,-0.9480591,6.713867E-4,4.140625,5.859375,-3.34375
1695387282674,-0.12475586,-0.9048462,-0.016906738,6.296875,6.4375,-2.84375
1695387282702,-0.10522461,-0.8418579,-0.02178955,9.703125,6.34375,0.375
1695387282748,-0.111083984,-0.81329346,-0.028137207,10.453125,7.46875,2.453125
1695387282794,-0.1105957,-0.8369751,-0.0803833,14.421875,7.171875,4.296875
1695387282823,-0.052490234,-0.7962036,-0.101379395,9.96875,5.296875,5.125
1695387282867,-0.09057617,-0.83013916,-0.085754395,14.921875,10.546875,8.09375
1695387282909,-0.007080078,-0.9194946,-0.14752197,8.84375,7.453125,1.25
1695387282943,0.014160156,-1.2073364,-0.27960205,-11.484375,-18.5,-19.515625
1695387282987,-0.10644531,-1.1477661,-0.2966919,2.65625,-13.796875,-14.5
1695387283030,-0.1003418,-1.3491821,-0.60650635,-22.59375,-19.0625,-7.265625
1695387283061,-0.05883789,-1.3526001,-0.15216064,6.609375,1.609375,-8.59375
1695387283108,-0.28881836,-1.0388794,-0.31036377,8.0625,-9.671875,-3.34375
1695387283138,-0.27783203,-0.99420166,-0.004211426,12.984375,-5.96875,0.234375
1695387283182,-0.18896484,-0.86920166,-0.19049072,1.46875,-19.21875,-19.90625
1695387283227,-0.16137695,-0.8328247,-0.21832275,-9.703125,-9.046875,-16.796875
1695387283257,-0.1274414,-0.9890747,-0.27764893,-2.15625,-10.296875,-5.046875
1695387283300,-0.021972656,-1.0183716,-0.13067627,6.84375,-19.609375,-5.390625
1695387283347,-0.19873047,-1.0195923,-0.1375122,-1.171875,-29.0625,0.453125
1695387283384,-0.46362305,-0.9805298,-0.17901611,-3.796875,-14.734375,1.125
1695387283422,-0.3762207,-0.8960571,-0.22393799,-11.796875,-8.46875,-12.078125
1695387283500,-0.21704102,-0.9578247,-0.14923096,-6.90625,-4.625,-12.90625
1695387283504,-0.12768555,-1.0422974,-0.11090088,-8.828125,-10.09375,-3.703125
1695387283543,-0.19995117,-0.9788208,-0.13092041,-6.78125,-10.46875,0.3125
1695387283572,-0.23486328,-0.894104,-0.17584229,-5.65625,-9.546875,-0.078125
1695387283617,-0.28979492,-0.87384033,-0.112854004,-3.484375,-7.828125,-4.1875
1695387283664,-0.24072266,-0.973938,-0.10772705,-4.25,-10.625,-4.109375
1695387283694,-0.24682617,-1.0037231,-0.08502197,-8.546875,-12.0,-3.953125
1695387283738,-0.27294922,-0.9639282,-0.094055176,-4.796875,-8.203125,-3.171875
1695387283781,-0.28710938,-0.9229126,-0.11871338,-6.3125,-9.9375,-3.71875
1695387283812,-0.27197266,-0.9624634,-0.12799072,-5.84375,-7.1875,-5.9375
1695387283861,-0.20581055,-0.9417114,-0.042541504,-7.234375,-6.65625,-3.9375
1695387283903,-0.27319336,-0.97003174,-0.059143066,-8.828125,-8.75,1.421875
1695387283934,-0.32421875,-0.95758057,-0.061340332,-8.375,-6.109375,2.453125
1695387283982,-0.33569336,-0.9517212,-0.055236816,-7.609375,-4.046875,-2.046875
1695387284008,-0.26831055,-0.9451294,-0.02935791,-8.4375,-3.875,-3.625
1695387284054,-0.19604492,-0.9338989,-0.026916504,-5.984375,-1.640625,1.96875
1695387284100,-0.2824707,-0.940979,-0.030090332,-2.5,1.890625,3.328125
1695387284127,-0.31982422,-0.9072876,-0.024230957,-1.046875,4.265625,0.921875
1695387284172,-0.26733398,-0.94000244,-0.024719238,-1.4375,11.421875,-0.328125
1695387284218,-0.29296875,-0.87042236,-0.0064086914,-2.625,12.640625,2.171875
1695387284247,-0.2993164,-0.8567505,-0.007873535,-6.8125,15.9375,3.0
1695387284292,-0.27807617,-0.8731079,-0.012756348,-5.03125,20.4375,1.078125
1695387284324,-0.26464844,-0.87677,-0.02130127,-1.6875,20.4375,4.4375
1695387284366,-0.22729492,-0.87457275,0.001159668,0.0625,23.4375,10.171875
1695387284414,-0.22802734,-0.90167236,-0.0049438477,0.28125,19.65625,10.953125
1695387284442,-0.22460938,-0.97906494,-0.010559082,0.359375,21.796875,13.96875
1695387284486,-0.07885742,-0.9492798,-0.025939941,0.703125,20.46875,15.03125
1695387284534,0.0847168,-0.9011841,-0.0569458,4.78125,14.328125,18.65625
1695387284562,0.09423828,-1.0925903,-0.0154418945,8.640625,-0.46875,20.265625
1695387284609,-0.060546875,-1.1582642,-0.120910645,5.75,-7.828125,13.34375
1695387284652,0.07763672,-1.0098267,-0.011291504,8.5,4.1875,8.765625
1695387284682,-0.030761719,-1.1724243,-0.14752197,-9.59375,-3.53125,3.484375
1695387284727,0.16967773,-1.2559204,0.10272217,1.65625,2.578125,6.46875
1695387284757,0.10473633,-1.1411743,0.066101074,8.859375,-1.390625,17.234375
1695387284802,-0.19750977,-1.2102661,-0.03375244,-1.40625,-13.0625,5.78125
1695387284849,-0.12817383,-0.9505005,-0.053771973,8.78125,5.625,-1.453125
1695387284878,0.0036621094,-0.9714966,-0.09210205,13.21875,16.0,-1.796875
1695387284925,0.079589844,-0.97491455,-0.09844971,6.703125,11.3125,-0.03125
1695387284966,0.13110352,-0.9951782,-0.043273926,6.75,2.796875,1.234375
1695387284997,0.028564453,-1.0261841,-0.042297363,2.53125,-2.03125,3.671875
1695387285043,-0.028320312,-0.93292236,-0.10284424,0.921875,-5.09375,2.953125
1695387285088,-0.014160156,-0.9204712,-0.08673096,0.90625,-1.09375,0.359375
1695387285117,-0.044677734,-0.98687744,-0.05621338,1.578125,2.5,-3.015625
1695387285162,-0.02734375,-0.9639282,-0.0713501,-0.53125,2.296875,-5.109375
1695387285194,0.048339844,-0.94537354,-0.037902832,-2.953125,0.109375,-1.28125
1695387285238,0.07788086,-1.00177,-0.008361816,-6.1875,-6.21875,0.40625
1695387285281,-0.0146484375,-1.0271606,-0.0068969727,-7.203125,-8.578125,-1.890625
1695387285312,-0.10058594,-1.0110474,-0.0076293945,-5.375,-5.765625,-4.828125
1695387285358,-0.038330078,-1.0239868,-0.016174316,-5.671875,-1.609375,-3.390625
1695387285401,0.01171875,-0.97247314,0.018249512,-9.09375,-1.4375,-5.15625
1695387285433,-0.0043945312,-0.97979736,0.038269043,-7.625,-2.71875,-3.359375
1695387285477,-0.06567383,-0.9783325,0.041931152,-6.53125,-2.8125,-3.453125
1695387285512,-0.09716797,-0.96539307,0.066101074,-4.3125,1.890625,-3.453125
1695387285553,-0.08251953,-0.9595337,0.054382324,-0.375,2.96875,-4.9375
1695387285599,-0.07446289,-0.95098877,0.0692749,-1.1875,5.328125,-7.71875
1695387285629,-0.08959961,-0.99346924,0.06903076,-1.625,4.9375,-9.546875
1695387285673,-0.14428711,-0.9451294,0.04876709,3.71875,8.640625,-8.75
1695387285716,-0.13867188,-0.8892212,0.043884277,0.546875,11.328125,-10.21875
1695387285748,-0.099853516,-0.88287354,0.078308105,-0.578125,14.28125,-11.5
1695387285791,-0.095458984,-0.85113525,0.07513428,0.84375,16.34375,-7.921875
1695387285838,-0.07373047,-0.8088989,0.12298584,4.046875,15.515625,-1.21875
1695387285869,-0.08618164,-0.90509033,0.089538574,5.28125,15.546875,-2.3125
1695387285917,-0.0078125,-1.039856,0.053649902,15.359375,9.28125,-3.796875
1695387285943,0.008300781,-1.0134888,0.010681152,8.015625,-7.34375,-5.984375
1695387285988,-0.076660156,-1.163147,-0.14996338,-0.25,-27.71875,-12.21875
1695387286029,-0.20458984,-1.2192993,-0.30889893,5.0,-22.328125,-14.609375
1695387286059,-0.119140625,-0.9534302,-0.17047119,1.3125,3.59375,0.859375
1695387286109,-0.08325195,-0.8279419,-0.07867432,4.84375,-2.1875,11.375
1695387286152,-0.22387695,-0.9920044,-0.18341064,0.296875,-17.046875,7.953125
1695387286183,-0.31054688,-1.3950806,-0.20635986,-3.234375,-14.359375,-16.09375
1695387286229,-0.2697754,-1.1975708,-0.11651611,10.046875,11.234375,-11.734375
1695387286273,-0.18115234,-0.98394775,-0.051574707,4.78125,14.953125,-1.96875
1695387286302,-0.14941406,-0.8953247,-0.06060791,6.734375,3.265625,2.53125
1695387286348,-0.14111328,-0.9351196,-0.06036377,0.125,-4.046875,-1.890625
1695387286377,-0.26586914,-1.1060181,-0.06329346,-2.59375,-0.1875,-5.484375
1695387286421,-0.19555664,-0.96710205,-0.10748291,1.875,3.3125,-7.578125
1695387286467,-0.07080078,-0.93048096,-0.049865723,5.703125,-0.328125,1.640625
1695387286496,-0.18041992,-1.0090942,-0.06744385,-0.671875,-4.6875,2.71875
1695387286539,-0.32177734,-0.97198486,-0.07867432,-2.875,-0.84375,-1.984375
1695387286588,-0.2541504,-0.958313,-0.07354736,-6.875,1.3125,-2.375
1695387286617,-0.140625,-0.97491455,-0.031066895,-4.796875,-0.015625,-2.09375
1695387286661,-0.16088867,-0.9631958,-0.02545166,-2.890625,-3.3125,-0.875
1695387286693,-0.20605469,-0.96466064,-0.070617676,-4.546875,-5.296875,3.875
1695387286736,-0.2355957,-0.93341064,-0.059387207,-5.0,-5.3125,3.53125
1695387286782,-0.2355957,-0.9290161,-0.038146973,-0.796875,-4.203125,0.484375
1695387286812,-0.23828125,-0.95513916,-0.026672363,-2.328125,-1.703125,0.765625
1695387286858,-0.21728516,-0.94854736,-0.025939941,-1.0625,-3.234375,-0.1875
1695387286902,-0.21655273,-0.98638916,-0.028625488,1.140625,0.03125,-1.234375
1695387286932,-0.25268555,-0.9805298,-0.027648926,3.234375,0.53125,-1.90625
1695387286977,-0.23120117,-0.9483032,-0.023742676,0.984375,2.25,-1.859375
1695387287029,-0.20678711,-0.95880127,-0.014709473,-2.046875,0.921875,-2.65625
1695387287052,-0.2175293,-0.95928955,-0.03741455,-0.9375,0.46875,-0.765625
1695387287096,-0.24658203,-0.95513916,-0.019104004,-4.03125,4.65625,-1.203125
1695387287126,-0.29956055,-0.9404907,-0.018615723,-3.59375,5.140625,-1.1875
1695387287172,-0.28637695,-0.8899536,-0.004699707,-5.6875,5.1875,-0.515625
1695387287216,-0.25048828,-0.8887329,0.017028809,-3.046875,8.65625,-2.71875
1695387287247,-0.27685547,-0.8484497,0.026062012,-3.5,7.140625,0.578125
1695387287292,-0.29882812,-0.9307251,0.038024902,0.1875,11.0,7.40625
1695387287334,-0.2319336,-0.95758057,-0.0256958,1.53125,10.234375,3.625
1695387287365,-0.13916016,-0.90093994,-0.09527588,4.65625,13.25,2.703125
1695387287411,0.0043945312,-0.798645,-0.08282471,13.828125,12.796875,14.6875
1695387287454,-0.07055664,-0.76446533,-0.0064086914,10.96875,6.578125,14.09375
1695387287485,-0.25561523,-0.9824829,-0.13311768,5.859375,0.8125,5.53125
1695387287530,-7.324219E-4,-1.138977,-0.12945557,21.296875,7.28125,2.71875
1695387287558,0.26464844,-1.506897,-0.12677002,-9.0625,-7.8125,1.90625
1695387287604,0.14794922,-1.1680298,-0.05596924,8.1875,-7.15625,19.578125
1695387287650,-0.26416016,-1.2615356,-0.24005127,-6.234375,-11.828125,14.296875
1695387287678,-0.22607422,-1.1555786,-0.062561035,4.453125,-6.40625,3.25
1695387287724,-0.03466797,-0.9702759,-0.094055176,-7.921875,-0.75,-3.375
1695387287769,-0.0043945312,-0.892395,-0.06329346,-0.953125,-1.21875,6.65625
1695387287815,-0.028076172,-0.8936157,-0.0947876,-3.140625,-5.984375,6.78125
1695387287845,-0.05493164,-1.03302,-0.05255127,-1.515625,-1.171875,2.328125
1695387287891,-0.048583984,-0.99835205,-0.032287598,1.625,2.1875,0.84375
1695387287923,-0.0703125,-0.9356079,-0.046691895,-2.65625,0.171875,0.6875
1695387287966,-0.12573242,-0.94073486,-0.04083252,0.421875,3.578125,-3.453125
1695387287999,-0.10058594,-0.9507446,-0.07745361,2.765625,2.125,-6.578125
1695387288043,-0.033691406,-0.99835205,-0.014221191,1.6875,4.6875,-6.765625
1695387288106,-0.05883789,-1.048645,-0.012512207,1.84375,0.78125,-5.140625
1695387288115,-0.111083984,-0.9937134,-0.06060791,0.765625,1.078125,-4.125
1695387288182,-0.045410156,-0.9607544,-0.03326416,2.484375,2.25,-5.359375
1695387288207,-0.05419922,-0.99420166,-0.030334473,2.90625,-1.78125,-4.71875
1695387288270,-0.11376953,-1.0029907,-0.04473877,-0.265625,-4.0,-3.90625
1695387288283,-0.111328125,-1.0049438,-0.02154541,-1.734375,-2.6875,-4.15625
1695387288341,-0.14355469,-0.9590454,-0.04156494,0.09375,-2.203125,-4.375
1695387288357,-0.14501953,-0.95196533,-0.012756348,-0.390625,1.65625,-3.9375
1695387288421,-0.14160156,-0.93218994,0.0045776367,2.484375,2.84375,-5.515625
1695387288446,-0.18164062,-0.87579346,0.012390137,2.390625,6.75,-3.90625
1695387288496,-0.16723633,-0.8399048,0.039245605,2.578125,8.140625,-5.765625
1695387288521,-0.15820312,-0.9194946,0.06072998,2.875,6.859375,-8.9375
1695387288552,-0.1484375,-0.99420166,0.06048584,1.65625,7.328125,-10.71875
1695387288598,-0.16333008,-0.8882446,0.0368042,11.421875,14.234375,-7.109375
1695387288641,-0.079833984,-0.8230591,-0.09698486,10.84375,7.71875,-5.875
1695387288672,-0.010498047,-0.9429321,-0.11968994,5.328125,-5.171875,-3.65625
1695387288720,-0.032226562,-0.9500122,-0.014709473,2.390625,-2.15625,4.859375
1695387288748,-0.20507812,-0.9014282,0.061462402,5.40625,-3.5625,7.640625
1695387288791,-0.12695312,-1.1814575,-0.46051025,-8.40625,-40.328125,-8.171875
1695387288857,-0.20996094,-1.1392212,-0.25665283,9.5625,-27.28125,-20.15625
1695387288867,0.04321289,-1.0615845,-0.38702393,-7.3125,-6.59375,-6.328125
1695387288929,-0.041503906,-1.0098267,-0.36236572,7.140625,-20.71875,11.1875
1695387288956,-0.2626953,-1.2666626,-0.29449463,-6.640625,-13.03125,9.453125
1695387289022,-0.3713379,-1.1738892,-0.13531494,-8.5,-14.46875,-3.4375
1695387289036,-0.25976562,-0.9680786,-0.1963501,-6.5,-12.078125,-4.578125
1695387289093,-0.0625,-0.90045166,-0.16143799,-7.109375,-11.046875,-3.09375
1695387289106,-0.033691406,-0.87701416,-0.16534424,-2.328125,-20.828125,0.6875
1695387289166,-0.17871094,-0.97662354,-0.17974854,-1.15625,-18.546875,6.890625
1695387289182,-0.17236328,-0.9475708,-0.1638794,-1.21875,-14.875,2.90625
1695387289244,-0.13476562,-0.9727173,-0.13677979,-1.0,-15.609375,-1.234375
1695387289288,-0.19262695,-1.0037231,-0.16046143,-3.140625,-16.96875,-4.09375
1695387289303,-0.2163086,-0.9783325,-0.14019775,-7.375,-12.84375,-5.171875
1695387289350,-0.119140625,-1.0171509,-0.12408447,-3.28125,-15.546875,-3.15625
1695387289395,-0.14086914,-0.9871216,-0.11895752,-4.8125,-18.640625,-3.421875
1695387289424,-0.18237305,-0.9512329,-0.10650635,-5.96875,-17.640625,-1.328125
1695387289484,-0.16821289,-0.960022,-0.117492676,-4.328125,-18.78125,0.140625
1695387289499,-0.22241211,-0.9729614,-0.11968994,-4.125,-18.5,-0.46875
1695387289558,-0.2602539,-0.96661377,-0.11578369,-3.9375,-12.625,-3.21875
1695387289592,-0.24047852,-0.9541626,-0.089416504,-5.71875,-8.6875,-5.265625
1695387289647,-0.16748047,-0.9397583,-0.06427002,-7.171875,-7.75,-5.53125
1695387289659,-0.16064453,-0.9751587,-0.04840088,-5.96875,-11.84375,-4.390625
1695387289707,-0.21435547,-1.0222778,-0.025939941,-4.265625,-10.78125,-5.875
1695387289737,-0.25463867,-0.94366455,-0.020080566,-5.5,-8.828125,-7.15625
1695387289784,-0.23632812,-0.8960571,-0.02960205,-4.921875,-7.46875,-5.78125
1695387289825,-0.21923828,-0.94976807,-0.038879395,-5.40625,-8.21875,-2.46875
1695387289874,-0.25756836,-0.95513916,0.0060424805,-4.859375,-7.734375,-2.796875
1695387289903,-0.28881836,-0.956604,-0.01763916,-8.359375,-9.59375,-4.6875
1695387289933,-0.26171875,-0.91900635,0.022644043,-7.984375,-4.859375,-4.5625
1695387289976,-0.2590332,-0.9158325,0.0099487305,-5.984375,-5.671875,-2.9375
1695387290025,-0.28955078,-0.97857666,0.043395996,-7.953125,-3.34375,-3.96875
1695387290052,-0.2524414,-0.8921509,0.05609131,-7.328125,-4.203125,-2.578125
1695387290122,-0.19604492,-0.84747314,0.03338623,-8.453125,-4.046875,1.265625
1695387290171,-0.20898438,-0.8921509,0.0211792,-8.5,-4.1875,2.890625
1695387290180,-0.29760742,-0.9898071,0.036315918,-9.765625,-10.515625,1.09375
1695387290231,-0.37109375,-0.9458618,0.059509277,-4.09375,-2.140625,4.328125
1695387290291,-0.2861328,-0.85650635,0.093444824,-2.609375,5.40625,13.140625
1695387290295,-0.30200195,-0.75372314,0.1071167,-4.171875,6.90625,11.359375
1695387290342,-0.11425781,-0.68341064,-0.038146973,-7.484375,-1.9375,13.09375
1695387290368,0.09863281,-1.2637329,-0.19244385,2.484375,15.890625,-3.671875
1695387290415,0.35986328,-1.9568481,0.07318115,12.203125,-26.78125,15.640625
1695387290459,0.02319336,-1.2034302,-0.012023926,-7.390625,-30.03125,10.59375
1695387290488,0.10424805,-0.9924927,0.10321045,11.78125,-19.125,15.28125
1695387290532,-0.21313477,-1.1314087,0.018005371,4.609375,-21.453125,6.0
1695387290576,-0.2434082,-0.8533325,-0.024230957,5.90625,-9.796875,0.671875
1695387290606,0.09692383,-0.79693604,0.023620605,-1.984375,-2.40625,1.40625
1695387290667,0.16015625,-0.9854126,0.07244873,-3.1875,-16.734375,4.984375
1695387290704,0.10083008,-1.1843872,0.066345215,-7.0,-17.984375,9.71875
1695387290727,0.009033203,-1.0962524,0.1227417,-2.09375,-15.578125,10.390625
1695387290806,-0.06298828,-0.9434204,-0.008850098,5.828125,-17.3125,4.203125
1695387290809,-0.072021484,-0.9026489,-0.0064086914,-1.390625,-15.9375,-1.90625
1695387290861,-0.0234375,-1.0154419,0.07220459,-3.1875,-10.515625,-3.21875
1695387290907,-0.033203125,-1.0718384,0.08929443,-2.21875,-5.265625,1.25
1695387290920,-0.09765625,-0.97369385,0.03704834,3.03125,-4.046875,-0.671875
1695387290980,-0.12182617,-0.9373169,6.713867E-4,6.546875,3.90625,-3.1875
1695387291013,-0.0546875,-0.94122314,1.8310547E-4,5.65625,11.0,-1.484375
1695387291058,0.0703125,-0.96051025,0.02508545,1.5,7.53125,1.09375
1695387291103,0.024169922,-1.0361938,0.061706543,2.421875,-1.859375,3.15625
1695387291121,-0.076416016,-1.0615845,0.034118652,4.28125,-4.703125,3.453125
1695387291222,-0.10864258,-0.9932251,-3.0517578E-4,3.734375,-1.46875,1.421875
1695387291225,-0.0637207,-0.93951416,-0.006164551,3.125,-0.671875,-3.703125
1695387291237,-0.048339844,-0.9541626,-5.493164E-4,6.640625,-2.34375,-3.84375
1695387291281,-0.015625,-0.9927368,-0.008117676,4.828125,-1.296875,-1.78125
1695387291327,-0.0073242188,-1.0012817,0.021911621,4.890625,-5.0,-0.640625
1695387291357,-0.021240234,-0.9854126,0.0079956055,2.578125,-6.609375,-1.078125
1695387291402,-0.053222656,-0.9985962,0.031188965,1.40625,-7.90625,-2.84375
1695387291447,-0.03491211,-1.0349731,0.07293701,-0.5625,-10.6875,-2.140625
1695387291478,-0.038085938,-1.031311,0.078552246,0.359375,-15.234375,-2.4375
1695387291522,-0.056396484,-0.9998169,0.061706543,2.0625,-16.890625,-4.859375
1695387291553,-0.060302734,-0.98638916,0.054626465,1.171875,-21.15625,-6.375
1695387291595,-0.08227539,-1.0237427,0.04046631,-0.609375,-24.484375,-8.40625
1695387291641,-0.036621094,-1.0159302,0.029968262,0.234375,-24.953125,-9.09375
1695387291672,0.011474609,-1.081604,-0.024719238,-4.546875,-33.125,-11.625
1695387291716,-0.0024414062,-1.0371704,-0.03302002,-7.875,-34.359375,-10.359375
1695387291761,-0.015625,-1.0066528,-0.06866455,-5.484375,-36.09375,-0.59375
1695387291793,-0.07446289,-1.0005493,-0.058410645,-6.375,-37.65625,-4.546875
1695387291837,-0.13598633,-1.0181274,-0.010070801,-2.6875,-29.390625,-7.90625
1695387291882,-0.1159668,-0.9612427,-0.070617676,-2.421875,-28.96875,-7.578125
1695387291912,-0.041015625,-0.87823486,-0.1362915,2.109375,-27.390625,-7.203125
1695387291955,-0.07080078,-0.89434814,-0.14263916,2.0625,-23.671875,-1.34375
1695387292032,-0.10473633,-0.97247314,-0.16241455,0.90625,-23.0625,0.9375
1695387292034,-0.11645508,-0.989563,-0.14605713,2.640625,-20.0,-1.15625
1695387292076,-0.1484375,-1.0349731,-0.10992432,0.796875,-18.109375,-1.9375
1695387292105,-0.16357422,-1.0430298,-0.10748291,2.125,-15.375,-1.34375
1695387292151,-0.1459961,-0.97906494,-0.08331299,1.65625,-12.203125,0.359375
1695387292197,-0.16235352,-0.94854736,-0.09039307,2.390625,-12.71875,0.25
1695387292228,-0.16552734,-0.954895,-0.07623291,1.546875,-9.375,-1.28125
1695387292272,-0.13891602,-0.9768677,-0.06817627,2.71875,-6.0625,0.34375
1695387292302,-0.13354492,-0.98272705,-0.073791504,3.78125,-3.765625,2.140625
1695387292350,-0.13183594,-0.98516846,-0.07598877,-0.265625,-1.578125,-0.34375
1695387292395,-0.14550781,-1.0027466,-0.043762207,2.65625,-1.53125,-1.109375
1695387292421,-0.11743164,-0.9902954,-0.04888916,-0.625,-1.53125,-2.03125
1695387292467,-0.11328125,-0.9768677,-0.04498291,-1.40625,-1.015625,-0.90625
1695387292512,-0.16748047,-0.9248657,-0.059143066,-2.265625,-2.796875,1.921875
1695387292542,-0.18359375,-0.92315674,-0.05303955,-4.140625,-0.6875,2.828125
1695387292586,-0.19262695,-0.95269775,-0.039123535,-2.625,0.875,-2.28125
1695387292661,-0.20336914,-0.9661255,-0.039123535,-4.078125,3.875,-5.328125
1695387292664,-0.19702148,-0.9871216,-0.06451416,-4.90625,6.671875,-4.859375
1695387292709,-0.18945312,-0.9817505,-0.032287598,-3.53125,9.953125,-4.90625
1695387292738,-0.14550781,-0.99346924,9.1552734E-4,-8.140625,6.015625,-4.4375
1695387292783,-0.16064453,-0.99224854,0.022155762,-5.640625,4.640625,-2.421875
1695387292827,-0.19873047,-0.9143677,0.006286621,-7.234375,4.171875,-0.484375
1695387292858,-0.21728516,-0.8796997,0.007751465,-5.609375,5.6875,-1.421875
1695387292901,-0.20703125,-0.91192627,0.055847168,-6.34375,5.578125,-0.125
1695387292947,-0.2668457,-0.8909302,0.027282715,-8.796875,2.3125,2.171875
1695387292976,-0.25732422,-0.91851807,-0.025939941,-7.03125,14.03125,4.109375
1695387293021,-0.056396484,-0.98150635,0.021911621,6.484375,18.21875,10.765625
1695387293067,-7.324219E-4,-0.9053345,0.0018920898,6.421875,8.828125,5.875
1695387293096,-0.06567383,-0.927063,-0.07867432,5.890625,4.84375,6.859375
1695387293144,-0.022460938,-1.104065,-0.06719971,11.671875,-2.609375,6.75
1695387293172,0.06518555,-1.1148071,-0.19317627,2.359375,-14.84375,8.296875
1695387293219,0.026123047,-1.1751099,-0.034484863,5.890625,-2.03125,-2.0625
1695387293261,0.0068359375,-1.0327759,-0.024475098,5.890625,1.296875,7.984375
1695387293291,-0.111816406,-1.1033325,-0.1338501,2.34375,-0.25,8.390625
1695387293345,-0.0036621094,-1.1604614,-0.020812988,8.046875,-1.65625,-1.890625
1695387293381,0.11791992,-1.1917114,0.0099487305,0.4375,3.25,-2.0625
1695387293408,-0.0041503906,-0.93292236,-0.097961426,4.65625,-1.46875,5.890625
1695387293454,-0.068359375,-0.84039307,-0.121154785,10.21875,-0.25,7.3125
1695387293484,-0.107177734,-1.0293579,-0.09307861,3.75,-3.46875,-0.078125
1695387293532,-0.018554688,-1.1619263,-0.016418457,3.234375,0.78125,0.46875
1695387293575,-0.0031738281,-0.97125244,-0.05255127,-2.1875,-1.734375,3.21875
1695387293606,-0.055908203,-0.85601807,-0.1338501,3.109375,-6.625,-0.34375
1695387293652,-0.10253906,-0.90045166,-0.078186035,0.71875,-2.734375,-5.9375
1695387293695,-0.111083984,-1.0562134,-0.06500244,2.8125,1.0625,-3.796875
1695387293726,-0.052978516,-0.99664307,-0.02960205,-2.21875,4.296875,-2.90625
1695387293771,-0.037353516,-0.88116455,-0.038635254,-0.34375,1.015625,-2.734375
1695387293816,-0.1105957,-0.8977661,-0.04034424,-2.4375,-1.046875,-6.8125
1695387293849,-0.103271484,-0.9973755,-0.035705566,-2.1875,0.5,-7.90625
1695387293921,-0.111816406,-0.9920044,-0.01373291,-0.8125,2.578125,-7.703125
1695387293935,-0.064453125,-0.9834595,0.04046631,-3.09375,2.625,-7.90625
1695387293965,-0.09350586,-1.0020142,-0.0056762695,-1.09375,-3.703125,-8.75
1695387294012,-0.21728516,-0.9859009,-0.022766113,-1.8125,-0.609375,-9.546875
1695387294041,-0.17382812,-0.90631104,-0.042541504,-0.59375,4.984375,-10.734375
1695387294090,-0.1003418,-0.8579712,-0.013000488,-2.15625,6.65625,-9.84375
1695387294132,-0.084472656,-0.89508057,0.06512451,-3.0625,8.203125,-8.4375
1695387294160,-0.1171875,-0.8555298,0.046081543,0.609375,4.9375,-4.5
1695387294209,-0.08911133,-0.87628174,0.0033569336,7.375,9.171875,0.421875
1695387294251,-0.046142578,-0.9624634,0.02557373,6.453125,0.984375,-0.640625
1695387294314,-0.05102539,-1.013977,-0.054504395,2.234375,-9.84375,-0.46875
1695387294326,-0.06567383,-0.9373169,-0.014221191,-1.921875,-16.578125,0.9375
1695387294355,-0.22558594,-1.0647583,-0.3106079,-10.078125,-34.28125,-6.140625
1695387294402,-0.20874023,-1.2312622,-0.2354126,-7.734375,-23.359375,-16.671875
1695387294446,-0.1171875,-1.0137329,-0.12237549,-7.765625,-1.4375,2.453125
1695387294479,-0.20751953,-0.800354,-0.13653564,5.4375,-6.03125,17.5625
1695387294520,-0.3947754,-1.1694946,-0.3255005,-19.96875,-9.984375,4.78125
1695387294569,-0.46289062,-1.3555298,0.024597168,10.078125,-5.546875,-24.90625
1695387294601,-0.22021484,-1.0674438,-0.07159424,-2.421875,14.9375,-7.4375
1695387294641,0.01953125,-1.0264282,0.016052246,5.921875,6.609375,-3.75
1695387294673,-0.014892578,-0.84161377,-0.049865723,2.609375,-11.5625,0.109375
1695387294722,-0.31079102,-1.1465454,-0.06939697,-11.171875,-14.75,-5.953125
1695387294759,-0.2927246,-0.9944458,-0.1026001,6.0,-1.734375,-3.828125
1695387294792,-0.11376953,-0.7920532,-0.081848145,0.625,-4.25,1.0
1695387294837,-0.2421875,-0.96759033,-0.045959473,-4.6875,-11.6875,0.3125
1695387294884,-0.42895508,-1.0610962,-0.032287598,-8.453125,-5.65625,-5.203125
1695387294917,-0.29614258,-0.96539307,-0.04840088,-4.359375,5.328125,-5.71875
1695387294956,-0.15185547,-0.93829346,-0.038391113,-2.984375,6.421875,-4.8125
1695387295048,-0.18383789,-0.9529419,-0.023742676,-2.703125,1.25,-0.5
1695387295051,-0.20825195,-0.97125244,0.003112793,-3.0,-2.40625,3.3125
1695387295079,-0.26489258,-0.9873657,-0.007385254,1.921875,0.34375,2.15625
1695387295109,-0.26782227,-0.96051025,-0.014709473,1.5,2.734375,-0.09375
1695387295170,-0.24145508,-0.9585571,-0.019836426,2.890625,3.515625,-0.484375
1695387295229,-0.22314453,-0.94854736,-0.022277832,2.765625,3.546875,2.65625
1695387295232,-0.2121582,-0.9180298,-0.034484863,1.3125,0.5625,2.734375
1695387295277,-0.2397461,-0.92022705,-0.039123535,1.03125,2.28125,3.203125
1695387295321,-0.25830078,-0.927063,-0.019592285,2.9375,3.765625,3.3125
1695387295345,-0.23779297,-0.92071533,-0.02520752,2.46875,4.5,2.265625
1695387295391,-0.2548828,-0.94537354,-0.040100098,2.15625,5.796875,0.46875
1695387295437,-0.28051758,-0.9338989,-0.023254395,0.625,10.078125,-0.53125
1695387295469,-0.2644043,-0.9026489,-0.042053223,1.859375,9.34375,0.84375
1695387295529,-0.27441406,-0.9343872,0.015563965,-0.234375,12.765625,0.6875
1695387295540,-0.2397461,-0.8491821,-0.0256958,3.015625,12.328125,8.375
1695387295606,-0.20629883,-0.9077759,-0.038391113,0.796875,12.46875,12.234375
1695387295665,-0.15551758,-0.9846802,-0.030578613,4.875,11.109375,8.09375
1695387295670,-0.13012695,-0.9846802,-0.030822754,2.421875,4.859375,9.109375
1695387295710,-0.15820312,-0.8128052,0.0045776367,-1.328125,6.75,13.015625
1695387295766,-0.064941406,-0.87042236,-0.16143799,-2.25,-2.0625,16.296875
1695387295780,-0.115234375,-1.1223755,-0.10772705,3.21875,4.875,9.546875
1695387295857,0.008056641,-1.4055786,-0.206604,-2.59375,-7.328125,11.3125
1695387295860,0.001953125,-1.0230103,0.0099487305,4.25,1.484375,9.640625
1695387295915,-0.07519531,-1.2366333,-0.20489502,-12.453125,5.140625,1.078125
1695387295960,0.051757812,-1.269104,0.109313965,2.34375,-9.09375,-4.390625
1695387296023,-0.05883789,-1.0127563,-0.059387207,-5.171875,-2.953125,-4.46875
1695387296027,-0.14111328,-0.8464966,-0.038635254,4.65625,-0.34375,0.328125
1695387296068,-0.043945312,-0.8723755,-0.06304932,-0.40625,-7.890625,-3.953125
1695387296097,-0.047607422,-1.1419067,-0.0022583008,-4.828125,-8.203125,-3.25
1695387296146,-0.10595703,-1.0232544,0.018249512,0.46875,0.71875,1.734375
1695387296185,-0.09667969,-0.8814087,-0.018371582,1.125,4.46875,-0.109375
1695387296231,-0.08935547,-0.9631958,-0.004699707,-1.578125,1.84375,0.6875
1695387296288,-0.061767578,-1.0186157,0.00579834,-3.8125,1.4375,-0.9375
1695387296290,-0.119384766,-0.99420166,0.03387451,0.1875,3.390625,-2.328125
1695387296336,-0.119628906,-0.97662354,0.024841309,-0.609375,1.765625,-0.171875
1695387296385,-0.10644531,-0.9824829,0.04046631,-1.890625,3.09375,-0.25
1695387296413,-0.12207031,-0.9837036,0.0211792,-2.03125,2.765625,-0.875
1695387296457,-0.13085938,-0.98931885,0.017028809,-1.84375,1.171875,-2.953125
1695387296505,-0.09057617,-0.9495239,0.012390137,-1.28125,4.0625,-1.75
1695387296531,-0.10107422,-0.9109497,0.054138184,-0.265625,6.21875,1.359375
1695387296594,-0.09423828,-0.98883057,0.04119873,-3.84375,4.859375,-1.390625
1695387296666,-0.10107422,-0.9492798,0.09051514,-1.234375,6.515625,-0.84375
1695387296696,-0.111083984,-0.95928955,0.04925537,0.765625,6.265625,2.515625
1695387296700,-0.056884766,-0.9661255,0.04876709,-0.78125,5.75,-4.671875
1695387296728,-0.09643555,-0.9758911,0.06390381,0.953125,4.359375,-5.296875
1695387296770,-0.15063477,-0.9524536,0.06072998,0.765625,6.671875,0.234375
1695387296820,-0.10473633,-0.89849854,0.08685303,-1.5,9.5625,-0.140625
1695387296845,-0.1459961,-0.89556885,0.10003662,0.609375,12.203125,0.515625
1695387296891,-0.07421875,-0.8970337,0.1083374,-2.03125,13.5,-2.09375
1695387296941,-0.07104492,-0.8657837,0.17694092,2.828125,12.84375,-2.953125
1695387296967,-0.096191406,-0.8189087,0.051696777,6.484375,6.96875,0.46875
1695387297016,-0.035888672,-0.70196533,-0.06304932,11.40625,-6.53125,-1.90625
1695387297055,-0.03881836,-1.3460083,-0.12701416,-19.21875,-13.609375,-28.171875
1695387297085,0.02758789,-1.40094,-0.11016846,-5.46875,-7.390625,-5.5
1695387297135,-0.10595703,-1.3189087,-0.28131104,3.453125,-5.0,7.546875
1695387297159,-0.14575195,-1.0654907,-0.07305908,21.234375,-0.984375,3.359375
1695387297208,-0.31298828,-1.0481567,-0.029846191,12.71875,-0.328125,1.5625
1695387297254,-0.38623047,-1.0725708,-0.050109863,3.890625,9.21875,-8.8125
1695387297284,-0.088134766,-0.9558716,-0.09674072,0.71875,6.125,-8.546875
1695387297327,0.14575195,-1.0120239,-0.031066895,-1.078125,-1.703125,2.9375
1695387297373,-0.04711914,-0.9429321,-0.057434082,3.515625,-4.90625,4.3125
1695387297403,-0.2121582,-0.8899536,-0.0647583,4.140625,-8.640625,5.984375
1695387297446,-0.16674805,-0.88726807,-0.07354736,-1.734375,-7.203125,6.953125
1695387297477,-0.16772461,-0.93634033,-0.0869751,2.921875,-4.65625,-0.546875
1695387297523,-0.18847656,-0.9846802,-0.07281494,-4.109375,-2.890625,-5.671875
1695387297564,-0.16113281,-1.0825806,-0.05206299,-2.859375,0.078125,-4.546875
1695387297593,-0.08911133,-1.0112915,-0.03302002,-0.765625,-2.25,1.9375
