,timestamp,accel_x,accel_y,accel_z,gyro_x,gyro_y,gyro_z
0,1697605965,-0.18701172,0.9616089,-0.19561768,0.296875,0.875,0.0
1,1697606005,-0.1887207,0.95770264,-0.19805908,0.71875,0.828125,0.21875
2,1697606045,-0.18652344,0.95526123,-0.1885376,0.453125,0.953125,0.390625
3,1697606085,-0.18652344,0.9557495,-0.19024658,0.421875,0.953125,0.265625
4,1697606125,-0.18920898,0.9598999,-0.19244385,0.578125,0.75,0.015625
5,1697606165,-0.19189453,0.95599365,-0.190979,-0.0625,0.78125,0.296875
6,1697606205,-0.18554688,0.9557495,-0.19561768,0.421875,0.890625,0.3125
7,1697606245,-0.18554688,0.95721436,-0.19073486,0.375,0.71875,0.1875
8,1697606285,-0.19140625,0.9567261,-0.19659424,1.328125,0.53125,0.21875
9,1697606325,-0.18481445,0.9574585,-0.19000244,1.421875,0.734375,0.3125
10,1697606365,-0.1821289,0.9557495,-0.19000244,1.578125,0.640625,0.421875
11,1697606405,-0.18969727,0.9611206,-0.18487549,1.3125,0.796875,0.34375
12,1697606445,-0.18823242,0.9623413,-0.18096924,1.46875,0.828125,0.140625
13,1697606485,-0.1862793,0.9603882,-0.18658447,1.859375,0.8125,0.078125
14,1697606525,-0.18701172,0.95892334,-0.17120361,1.171875,0.859375,0.46875
15,1697606565,-0.18652344,0.9645386,-0.18707275,2.109375,0.5625,0.609375
16,1697606605,-0.17358398,0.96258545,-0.1638794,1.3125,0.40625,0.546875
17,1697606645,-0.18481445,0.9696655,-0.16925049,1.515625,-0.46875,-0.09375
18,1697606685,-0.19116211,0.95599365,-0.16436768,1.203125,0.890625,0.796875
19,1697606725,-0.1977539,0.9616089,-0.16973877,0.984375,1.09375,0.53125
20,1697606765,-0.19091797,0.9660034,-0.16241455,0.296875,1.09375,0.15625
21,1697606805,-0.19335938,0.961853,-0.17340088,-0.796875,0.8125,-0.578125
22,1697606845,-0.18310547,0.96136475,-0.16900635,0.3125,1.15625,0.578125
23,1697606885,-0.18823242,0.96307373,-0.18389893,-0.140625,1.078125,0.65625
24,1697606925,-0.1772461,0.965271,-0.17388916,0.5,0.328125,0.140625
25,1697606965,-0.17626953,0.9660034,-0.17120361,0.34375,0.75,0.40625
26,1697607005,-0.18823242,0.96307373,-0.16534424,-0.5,0.5,0.234375
27,1697607045,-0.19165039,0.9677124,-0.16680908,-0.5,1.296875,0.328125
28,1697607085,-0.1928711,0.9574585,-0.16998291,-0.140625,1.109375,0.484375
29,1697607125,-0.19140625,0.9647827,-0.1609497,0.5625,1.265625,0.78125
30,1697607165,-0.18945312,0.9645386,-0.1651001,-0.109375,1.09375,0.5625
31,1697607205,-0.18530273,0.9598999,-0.17242432,-0.296875,0.796875,0.3125
32,1697607245,-0.19262695,0.9616089,-0.17340088,-0.046875,0.890625,0.1875
33,1697607285,-0.19116211,0.96380615,-0.17120361,0.0625,1.03125,0.28125
34,1697607325,-0.18798828,0.96014404,-0.16998291,0.359375,0.84375,0.453125
35,1697607365,-0.19360352,0.96307373,-0.16949463,0.03125,0.828125,0.453125
36,1697607405,-0.1862793,0.9579468,-0.16583252,-0.328125,0.96875,0.328125
37,1697607445,-0.18652344,0.95843506,-0.1741333,0.1875,-0.46875,0.1875
38,1697607485,-0.18823242,0.9579468,-0.17388916,-0.4375,-0.71875,0.46875
39,1697607525,-0.19799805,0.9730835,-0.1663208,-0.796875,-0.5625,0.34375
40,1697607565,-0.1940918,0.9574585,-0.17974854,-0.953125,0.03125,-0.078125
41,1697607605,-0.1928711,0.95965576,-0.17340088,-0.640625,0.203125,0.171875
42,1697607645,-0.18969727,0.9567261,-0.17584229,-0.78125,0.25,-0.03125
43,1697607685,-0.18823242,0.96698,-0.17266846,-1.640625,0.421875,-0.046875
44,1697607725,-0.19335938,0.9562378,-0.1831665,-0.96875,0.484375,-0.0625
45,1697607765,-0.18847656,0.9598999,-0.17388916,-1.828125,1.203125,-0.1875
46,1697607805,-0.1887207,0.9525757,-0.18096924,-3.75,1.078125,-0.25
47,1697607845,-0.19311523,0.95306396,-0.17779541,-5.0,1.421875,-0.28125
48,1697607885,-0.203125,0.9603882,-0.20245361,-3.828125,3.5625,-0.390625
49,1697607925,-0.18188477,0.9525757,-0.20172119,-3.59375,3.125,-0.1875
50,1697607965,-0.18530273,0.9660034,-0.2210083,-1.578125,0.171875,-0.46875
51,1697608005,-0.17163086,0.9567261,-0.19830322,-2.59375,0.28125,-0.71875
52,1697608045,-0.17919922,0.95355225,-0.21221924,-0.953125,0.265625,0.046875
53,1697608085,-0.18603516,0.9491577,-0.20831299,-0.171875,1.9375,-0.078125
54,1697608125,-0.18261719,0.9623413,-0.21832275,-0.484375,1.859375,-0.328125
55,1697608165,-0.17700195,0.951355,-0.21612549,-1.4375,0.796875,-0.03125
56,1697608205,-0.18945312,0.9537964,-0.22467041,0.09375,-0.078125,-0.59375
57,1697608245,-0.1706543,0.95526123,-0.19488525,0.390625,-0.609375,0.609375
58,1697608285,-0.18457031,0.9640503,-0.21392822,1.703125,-0.25,0.703125
59,1697608325,-0.17895508,0.9503784,-0.21026611,1.09375,-0.46875,0.09375
60,1697608365,-0.17651367,0.95062256,-0.20684814,0.421875,-0.046875,0.484375
61,1697608405,-0.1772461,0.9501343,-0.21002197,0.796875,0.5625,0.953125
62,1697608445,-0.1862793,0.9533081,-0.21221924,0.484375,0.734375,0.953125
63,1697608485,-0.19018555,0.94940186,-0.20587158,1.203125,0.65625,0.5625
64,1697608525,-0.19091797,0.95721436,-0.20123291,0.3125,0.5,0.71875
65,1697608565,-0.18701172,0.9611206,-0.20953369,0.75,-0.125,0.875
66,1697608605,-0.19091797,0.9528198,-0.19903564,0.453125,-0.421875,0.453125
67,1697608645,-0.19213867,0.9491577,-0.20758057,1.25,0.078125,0.140625
68,1697608685,-0.19189453,0.9508667,-0.20391846,0.5,0.65625,0.21875
69,1697608725,-0.17993164,0.95648193,-0.20977783,1.609375,0.59375,0.5
70,1697608765,-0.1850586,0.9562378,-0.19390869,0.921875,0.71875,0.21875
71,1697608805,-0.17749023,0.95062256,-0.19171143,0.875,0.4375,0.296875
72,1697608845,-0.18603516,0.9628296,-0.19781494,1.109375,0.671875,0.078125
73,1697608885,-0.18310547,0.9533081,-0.19073486,0.046875,1.203125,0.46875
74,1697608925,-0.19091797,0.9557495,-0.20147705,0.515625,0.390625,-0.171875
75,1697608965,-0.1772461,0.95892334,-0.19171143,0.265625,1.375,0.640625
76,1697609005,-0.18383789,0.9581909,-0.19732666,0.046875,0.453125,0.5625
77,1697609045,-0.1784668,0.9545288,-0.20098877,0.3125,1.03125,0.53125
78,1697609085,-0.18847656,0.95428467,-0.19000244,0.578125,0.6875,0.59375
79,1697609125,-0.18457031,0.95892334,-0.19927979,0.28125,1.109375,0.921875
80,1697609165,-0.18115234,0.951355,-0.1975708,0.1875,0.703125,1.125
81,1697609205,-0.19726562,0.9598999,-0.19439697,0.921875,0.453125,0.375
82,1697609245,-0.18896484,0.94989014,-0.19146729,0.8125,1.3125,0.78125
83,1697609285,-0.18725586,0.95599365,-0.1951294,0.5625,1.203125,0.609375
84,1697609325,-0.18920898,0.9537964,-0.1951294,-0.140625,1.109375,0.609375
85,1697609365,-0.19628906,0.95526123,-0.1897583,0.921875,0.65625,0.453125
86,1697609405,-0.19116211,0.95843506,-0.19195557,0.515625,1.09375,0.8125
87,1697609445,-0.1965332,0.95428467,-0.18609619,0.578125,1.0,0.578125
88,1697609485,-0.19311523,0.9591675,-0.18243408,0.234375,1.03125,0.28125
89,1697609525,-0.19604492,0.95770264,-0.18487549,-0.375,1.484375,0.203125
90,1697609565,-0.19213867,0.9569702,-0.19342041,0.453125,1.0,-0.015625
91,1697609605,-0.19604492,0.94940186,-0.18048096,0.546875,1.5,-0.015625
92,1697609645,-0.1953125,0.95892334,-0.19122314,0.84375,1.3125,-0.3125
93,1697609685,-0.18774414,0.95306396,-0.18414307,0.734375,2.0,0.71875
94,1697609725,-0.19091797,0.9628296,-0.17901611,0.28125,1.5625,0.578125
95,1697609765,-0.19165039,0.9472046,-0.18048096,0.59375,1.90625,0.09375
96,1697609805,-0.19702148,0.9515991,-0.1795044,0.953125,1.6875,0.4375
97,1697609845,-0.20214844,0.9557495,-0.17901611,0.53125,1.96875,0.578125
98,1697609885,-0.19335938,0.9594116,-0.175354,-0.609375,1.90625,0.359375
99,1697609925,-0.19946289,0.9550171,-0.18341064,0.25,1.78125,0.28125
100,1697609965,-0.20019531,0.95306396,-0.17706299,0.21875,2.28125,0.65625
101,1697610005,-0.1965332,0.95843506,-0.17584229,0.1875,2.8125,0.84375
102,1697610045,-0.18652344,0.95721436,-0.1843872,-0.25,2.546875,0.78125
103,1697610085,-0.20239258,0.9581909,-0.1897583,0.046875,2.109375,0.65625
104,1697610125,-0.19848633,0.95721436,-0.18096924,0.109375,2.171875,0.46875
105,1697610165,-0.2043457,0.9574585,-0.17828369,0.140625,1.65625,0.453125
106,1697610205,-0.20483398,0.961853,-0.17730713,0.3125,1.484375,0.203125
107,1697610245,-0.20825195,0.9562378,-0.17584229,0.5625,1.0625,0.171875
108,1697610285,-0.20092773,0.9545288,-0.17364502,-0.140625,1.421875,0.203125
109,1697610325,-0.20874023,0.96746826,-0.18365479,1.09375,0.9375,-0.203125
110,1697610365,-0.20092773,0.95306396,-0.17315674,-0.359375,1.0,0.0
111,1697610405,-0.20239258,0.9684448,-0.19073486,1.078125,0.546875,-0.015625
112,1697610445,-0.19824219,0.9557495,-0.17364502,-0.28125,1.234375,0.46875
113,1697610485,-0.20092773,0.9603882,-0.18341064,-0.046875,0.671875,-0.03125
114,1697610525,-0.19946289,0.9545288,-0.17779541,-0.546875,0.515625,0.390625
115,1697610565,-0.19677734,0.95648193,-0.17022705,-0.71875,0.046875,0.171875
116,1697610605,-0.20483398,0.95477295,-0.1765747,-0.3125,0.59375,0.421875
117,1697610645,-0.19995117,0.95721436,-0.17584229,-0.21875,0.90625,0.296875
118,1697610685,-0.20410156,0.9581909,-0.18048096,0.28125,0.515625,0.015625
119,1697610725,-0.19506836,0.9606323,-0.175354,-0.3125,0.875,0.4375
120,1697610765,-0.19970703,0.9562378,-0.18341064,-0.296875,1.109375,0.328125
121,1697610805,-0.20166016,0.9611206,-0.17852783,-0.390625,0.78125,0.234375
122,1697610845,-0.20361328,0.9628296,-0.18267822,0.65625,0.671875,0.09375
123,1697610885,-0.20336914,0.95306396,-0.17779541,0.203125,0.859375,0.171875
124,1697610925,-0.19750977,0.96087646,-0.18096924,0.078125,0.59375,0.125
125,1697610965,-0.19995117,0.9594116,-0.17559814,0.21875,0.734375,0.390625
126,1697611005,-0.19677734,0.95965576,-0.17559814,0.234375,0.875,0.234375
127,1697611045,-0.19799805,0.9567261,-0.17706299,0.46875,0.875,0.265625
128,1697611085,-0.20019531,0.96258545,-0.1729126,0.03125,0.75,0.421875
129,1697611125,-0.21142578,0.9562378,-0.18292236,0.75,0.40625,0.109375
130,1697611165,-0.20214844,0.95965576,-0.17364502,0.15625,0.609375,0.1875
131,1697611205,-0.19873047,0.9660034,-0.17877197,1.359375,0.625,0.328125
132,1697611245,-0.20043945,0.96258545,-0.16265869,-0.078125,0.890625,0.671875
133,1697611285,-0.20483398,0.96014404,-0.17388916,0.921875,0.71875,0.484375
134,1697611325,-0.20751953,0.9579468,-0.16900635,0.71875,0.828125,0.359375
135,1697611365,-0.20581055,0.95184326,-0.16900635,1.203125,1.109375,0.484375
136,1697611405,-0.19580078,0.9515991,-0.16021729,1.25,1.140625,0.5625
137,1697611445,-0.19995117,0.96551514,-0.16339111,0.6875,0.828125,0.6875
138,1697611485,-0.20019531,0.9606323,-0.16949463,0.953125,0.734375,0.3125
139,1697611525,-0.20214844,0.9616089,-0.15948486,0.265625,0.71875,0.4375
140,1697611565,-0.2084961,0.9633179,-0.16412354,0.0625,0.921875,0.46875
141,1697611605,-0.20483398,0.9633179,-0.16729736,-0.265625,0.6875,0.375
142,1697611645,-0.20703125,0.96136475,-0.16412354,0.765625,1.03125,0.4375
143,1697611685,-0.2043457,0.95965576,-0.16143799,0.0625,1.078125,0.28125
144,1697611725,-0.20361328,0.95526123,-0.16705322,0.25,1.28125,0.421875
145,1697611765,-0.20727539,0.95770264,-0.16192627,0.3125,1.03125,0.3125
146,1697611805,-0.20800781,0.9611206,-0.159729,0.328125,0.90625,0.359375
147,1697611845,-0.20727539,0.95965576,-0.16168213,0.046875,1.0625,0.25
148,1697611885,-0.203125,0.95477295,-0.16021729,-0.171875,0.9375,0.515625
149,1697611925,-0.21655273,0.96087646,-0.17584229,0.25,0.46875,0.09375
150,1697611965,-0.20922852,0.9581909,-0.16485596,-0.765625,0.609375,0.375
151,1697612005,-0.20288086,0.9657593,-0.17218018,-1.75,-0.640625,-0.203125
152,1697612045,-0.2109375,0.9503784,-0.17388916,-2.96875,-0.28125,-0.21875
153,1697612085,-0.20336914,0.9606323,-0.1638794,-1.609375,0.109375,0.109375
154,1697612125,-0.20410156,0.9603882,-0.17803955,-1.65625,0.328125,0.046875
155,1697612165,-0.2043457,0.9569702,-0.17730713,-0.875,0.46875,0.3125
156,1697612205,-0.2006836,0.95428467,-0.17340088,-1.015625,0.734375,0.296875
157,1697612245,-0.20141602,0.9555054,-0.18463135,-1.875,1.015625,0.09375
158,1697612285,-0.20410156,0.96209717,-0.17803955,-1.484375,0.796875,-0.421875
159,1697612325,-0.19750977,0.9528198,-0.175354,-1.875,1.03125,-0.078125
160,1697612365,-0.20678711,0.9515991,-0.18780518,-1.59375,1.21875,0.09375
161,1697612405,-0.19970703,0.95770264,-0.18609619,-2.171875,1.21875,0.203125
162,1697612445,-0.20654297,0.94818115,-0.19268799,-1.109375,0.734375,0.09375
163,1697612485,-0.20336914,0.9540405,-0.1885376,-2.25,1.125,0.078125
164,1697612525,-0.20483398,0.95477295,-0.19561768,-2.125,0.65625,-0.25
165,1697612565,-0.20727539,0.95306396,-0.19342041,-1.75,0.71875,0.015625
166,1697612605,-0.20336914,0.951355,-0.2000122,-2.046875,0.84375,0.03125
167,1697612645,-0.20166016,0.9515991,-0.20269775,-1.46875,0.984375,0.09375
168,1697612685,-0.2019043,0.9528198,-0.20904541,-1.09375,0.984375,0.140625
169,1697612725,-0.2043457,0.93743896,-0.19927979,-1.5,0.796875,-0.171875
170,1697612765,-0.20410156,0.9555054,-0.21246338,-0.984375,0.46875,-0.625
171,1697612805,-0.19262695,0.94281006,-0.21026611,-0.09375,0.65625,-0.28125
172,1697612845,-0.20043945,0.9472046,-0.20245361,-1.171875,0.90625,-0.234375
173,1697612885,-0.19384766,0.9484253,-0.21392822,-0.84375,0.8125,-0.328125
174,1697612925,-0.19628906,0.9423218,-0.20855713,-1.3125,0.59375,-0.09375
175,1697612965,-0.203125,0.9550171,-0.21343994,-1.078125,0.9375,0.09375
176,1697613005,-0.19482422,0.9540405,-0.21392822,-1.28125,0.953125,0.1875
177,1697613045,-0.19482422,0.94940186,-0.21929932,-0.09375,1.265625,0.1875
178,1697613085,-0.19360352,0.94696045,-0.21173096,-0.03125,0.9375,0.359375
179,1697613125,-0.19482422,0.9489136,-0.2131958,0.0,1.203125,0.375
180,1697613165,-0.20239258,0.9515991,-0.21514893,0.28125,1.0,0.265625
181,1697613205,-0.19311523,0.9501343,-0.21685791,0.59375,1.078125,0.25
182,1697613245,-0.19946289,0.9533081,-0.21002197,0.625,1.140625,0.359375
183,1697613285,-0.1953125,0.94525146,-0.21246338,0.796875,0.8125,0.453125
184,1697613325,-0.19995117,0.94696045,-0.20904541,0.609375,1.140625,0.453125
185,1697613365,-0.20043945,0.9501343,-0.206604,0.75,0.828125,0.28125
186,1697613405,-0.1965332,0.9467163,-0.20758057,0.5625,1.078125,0.4375
187,1697613445,-0.20581055,0.9555054,-0.2119751,1.28125,0.59375,0.0
188,1697613485,-0.20703125,0.94744873,-0.21221924,0.140625,0.890625,0.140625
189,1697613525,-0.19165039,0.94818115,-0.2107544,1.328125,0.375,0.21875
190,1697613565,-0.20019531,0.9537964,-0.19927979,0.015625,1.25,0.46875
191,1697613605,-0.19702148,0.9484253,-0.20953369,0.765625,0.796875,0.390625
192,1697613645,-0.20141602,0.9515991,-0.20684814,0.25,0.40625,0.3125
193,1697613685,-0.20141602,0.949646,-0.20880127,0.03125,0.5,0.25
194,1697613725,-0.203125,0.94744873,-0.20074463,0.234375,0.5,0.515625
195,1697613765,-0.203125,0.9569702,-0.20343018,0.140625,1.0,0.421875
196,1697613805,-0.20336914,0.95526123,-0.20318604,0.765625,0.515625,0.28125
197,1697613845,-0.20239258,0.95428467,-0.19464111,0.21875,1.140625,0.53125
198,1697613885,-0.2006836,0.9525757,-0.2000122,0.078125,1.09375,0.40625
199,1697613925,-0.2019043,0.95965576,-0.20318604,0.1875,0.953125,0.21875
200,1697613965,-0.20336914,0.951355,-0.2053833,0.484375,0.71875,0.28125
201,1697614005,-0.20336914,0.9528198,-0.20074463,0.28125,0.859375,0.28125
202,1697614045,-0.20214844,0.94866943,-0.19952393,0.328125,0.953125,0.125
203,1697614085,-0.2006836,0.95428467,-0.20172119,0.515625,0.71875,0.234375
204,1697614125,-0.20361328,0.95428467,-0.19390869,0.4375,0.828125,0.1875
205,1697614165,-0.20166016,0.9540405,-0.19781494,0.140625,0.734375,0.28125
206,1697614205,-0.20654297,0.9606323,-0.20343018,1.015625,0.71875,0.265625
207,1697614245,-0.20043945,0.9503784,-0.19049072,0.5625,1.1875,0.53125
208,1697614285,-0.2019043,0.9569702,-0.19732666,0.921875,0.296875,-0.3125
209,1697614325,-0.20166016,0.9528198,-0.18927002,0.515625,0.96875,0.65625
210,1697614365,-0.20458984,0.9537964,-0.19195557,0.640625,0.5625,0.453125
211,1697614405,-0.19995117,0.9447632,-0.19586182,0.578125,0.9375,0.375
212,1697614445,-0.203125,0.946228,-0.19317627,0.625,0.4375,0.40625
213,1697614485,-0.20092773,0.9555054,-0.19537354,0.59375,0.84375,0.484375
214,1697614525,-0.20166016,0.95477295,-0.18927002,0.578125,1.109375,0.40625
215,1697614565,-0.20507812,0.9545288,-0.19268799,0.765625,0.609375,0.15625
216,1697614605,-0.20092773,0.9545288,-0.18463135,0.328125,0.859375,0.265625
217,1697614645,-0.20458984,0.9562378,-0.19000244,0.21875,1.0625,0.359375
218,1697614685,-0.20507812,0.9633179,-0.18463135,-0.171875,1.25,0.421875
219,1697614725,-0.20703125,0.96136475,-0.18829346,0.75,0.75,0.265625
220,1697614765,-0.20483398,0.95526123,-0.18585205,0.453125,0.953125,0.203125
221,1697614805,-0.20654297,0.9525757,-0.18511963,0.4375,0.890625,0.390625
222,1697614845,-0.20410156,0.95355225,-0.19146729,0.953125,1.03125,0.28125
223,1697614885,-0.20507812,0.95526123,-0.18878174,0.734375,1.140625,0.28125
224,1697614925,-0.2055664,0.9581909,-0.1873169,0.625,1.03125,0.265625
225,1697614965,-0.20654297,0.95892334,-0.18804932,0.796875,1.34375,0.453125
226,1697615005,-0.20776367,0.961853,-0.18121338,0.9375,0.765625,0.140625
227,1697615045,-0.20629883,0.96429443,-0.18414307,1.765625,-0.09375,-0.328125
228,1697615085,-0.19702148,0.9540405,-0.1843872,1.828125,-0.078125,-0.03125
229,1697615125,-0.20507812,0.9574585,-0.17584229,0.84375,0.6875,0.203125
230,1697615165,-0.20410156,0.9550171,-0.17364502,0.90625,0.84375,0.3125
231,1697615205,-0.2084961,0.9623413,-0.17364502,0.46875,0.640625,0.5625
232,1697615245,-0.20214844,0.96429443,-0.17633057,0.453125,0.703125,0.578125
233,1697615285,-0.20507812,0.96014404,-0.175354,-0.21875,0.921875,0.296875
234,1697615325,-0.2097168,0.9581909,-0.17852783,0.65625,0.828125,0.203125
235,1697615365,-0.20483398,0.95770264,-0.1765747,0.515625,0.703125,0.203125
236,1697615405,-0.20214844,0.961853,-0.17120361,0.296875,0.984375,0.4375
237,1697615445,-0.20581055,0.95428467,-0.175354,0.578125,1.125,0.375
238,1697615485,-0.20581055,0.96429443,-0.17510986,1.125,0.28125,0.0
239,1697615525,-0.20947266,0.9598999,-0.16925049,1.1875,0.578125,-0.09375
240,1697615565,-0.21069336,0.9569702,-0.1675415,0.359375,0.734375,0.265625
241,1697615605,-0.2055664,0.9594116,-0.16925049,0.515625,0.984375,0.390625
242,1697615645,-0.20507812,0.9586792,-0.1675415,0.453125,0.75,0.546875
243,1697615685,-0.21044922,0.95843506,-0.17315674,0.46875,0.8125,0.078125
244,1697615725,-0.203125,0.95477295,-0.16534424,0.0625,0.71875,0.234375
245,1697615765,-0.20678711,0.9684448,-0.1729126,1.25,0.703125,-0.046875
246,1697615805,-0.20361328,0.9586792,-0.16778564,0.46875,0.859375,0.21875
247,1697615845,-0.20166016,0.97039795,-0.17242432,1.828125,0.40625,-0.140625
248,1697615885,-0.20043945,0.9537964,-0.159729,1.15625,1.890625,0.46875
249,1697615925,-0.20507812,0.9611206,-0.159729,0.9375,0.390625,-0.09375
250,1697615965,-0.20605469,0.95428467,-0.16143799,0.578125,0.625,-0.171875
251,1697616005,-0.20898438,0.95843506,-0.16339111,0.875,0.890625,0.375
252,1697616045,-0.20336914,0.9562378,-0.16119385,0.8125,1.015625,0.59375
253,1697616085,-0.2006836,0.95965576,-0.1560669,0.109375,0.71875,0.625
254,1697616125,-0.20605469,0.963562,-0.15899658,0.703125,0.75,0.078125
255,1697616165,-0.19824219,0.9555054,-0.15142822,0.40625,0.84375,0.0625
256,1697616205,-0.20288086,0.95428467,-0.15338135,1.015625,1.125,0.53125
257,1697616245,-0.20947266,0.9664917,-0.15142822,0.296875,0.8125,0.40625
258,1697616285,-0.20141602,0.9586792,-0.15460205,0.71875,0.03125,-0.09375
259,1697616325,-0.20336914,0.9694214,-0.14874268,0.296875,0.59375,0.421875
260,1697616365,-0.20263672,0.96551514,-0.15289307,0.578125,0.578125,0.328125
261,1697616405,-0.20288086,0.961853,-0.14996338,1.0,0.84375,0.40625
262,1697616445,-0.20703125,0.96136475,-0.1453247,0.921875,0.75,0.4375
263,1697616485,-0.19799805,0.96673584,-0.14996338,0.703125,1.015625,0.515625
264,1697616525,-0.21289062,0.96624756,-0.1609497,1.78125,0.578125,0.1875
265,1697616565,-0.2084961,0.9623413,-0.14776611,0.875,0.765625,0.28125
266,1697616605,-0.203125,0.9701538,-0.1482544,1.890625,0.46875,0.0625
267,1697616645,-0.2055664,0.9623413,-0.13702393,0.3125,1.296875,0.609375
268,1697616685,-0.20703125,0.9664917,-0.14141846,1.03125,0.609375,0.359375
269,1697616725,-0.20898438,0.9689331,-0.14068604,0.65625,0.78125,0.46875
270,1697616765,-0.20507812,0.963562,-0.14801025,0.96875,0.734375,0.546875
271,1697616805,-0.20629883,0.9579468,-0.13482666,0.734375,1.125,0.609375
272,1697616845,-0.20141602,0.9689331,-0.13531494,0.21875,0.875,0.5
273,1697616885,-0.2055664,0.9672241,-0.13677979,0.78125,0.734375,0.109375
274,1697616925,-0.20361328,0.9640503,-0.12872314,-0.15625,1.140625,0.328125
275,1697616965,-0.20214844,0.96698,-0.13433838,-0.265625,1.171875,0.375
276,1697617005,-0.20336914,0.9682007,-0.13214111,-1.078125,0.796875,0.53125
277,1697617045,-0.20629883,0.9657593,-0.14190674,-0.46875,0.890625,0.28125
278,1697617085,-0.21655273,0.96551514,-0.14068604,-1.375,0.859375,0.125
279,1697617125,-0.20678711,0.96209717,-0.14581299,-1.40625,0.671875,0.078125
280,1697617165,-0.20581055,0.97039795,-0.14190674,-1.265625,0.9375,-0.09375
281,1697617205,-0.20288086,0.965271,-0.14093018,-1.375,0.9375,0.171875
282,1697617245,-0.2109375,0.9767456,-0.15118408,-1.15625,1.046875,-0.265625
283,1697617285,-0.20239258,0.961853,-0.1519165,-1.1875,1.375,0.140625
284,1697617325,-0.20605469,0.965271,-0.15142822,-0.328125,0.859375,-0.375
285,1697617365,-0.20019531,0.9567261,-0.14190674,-1.09375,1.390625,0.359375
286,1697617405,-0.20800781,0.965271,-0.1482544,-1.296875,1.0,0.25
287,1697617445,-0.20825195,0.9574585,-0.15631104,-1.640625,1.28125,-0.09375
288,1697617485,-0.203125,0.963562,-0.15557861,-1.359375,1.125,0.21875
289,1697617525,-0.21191406,0.9633179,-0.159729,-1.453125,1.46875,0.3125
290,1697617565,-0.20727539,0.9591675,-0.15899658,-2.21875,1.40625,0.25
291,1697617605,-0.20898438,0.9616089,-0.16192627,-2.015625,1.078125,-0.203125
292,1697617645,-0.2055664,0.9623413,-0.16705322,-1.859375,1.375,0.140625
293,1697617685,-0.21508789,0.95843506,-0.17462158,-2.125,1.109375,-0.09375
294,1697617725,-0.22363281,0.97698975,-0.16363525,-7.984375,2.6875,-1.796875
295,1697617765,-0.18896484,0.94696045,-0.190979,-1.203125,1.265625,-0.9375
296,1697617805,-0.2019043,0.95477295,-0.16973877,-0.96875,1.625,0.4375
297,1697617845,-0.19750977,0.9537964,-0.17877197,-0.875,0.84375,-0.171875
298,1697617885,-0.20019531,0.94525146,-0.18463135,-0.890625,0.515625,0.28125
299,1697617925,-0.20507812,0.9567261,-0.18585205,-1.46875,0.875,0.1875
300,1697617965,-0.20800781,0.9528198,-0.18585205,-0.578125,0.28125,-0.28125
301,1697618005,-0.20605469,0.95770264,-0.18341064,-1.609375,0.734375,-0.125
302,1697618045,-0.20043945,0.96087646,-0.18902588,-1.15625,-0.078125,-0.21875
303,1697618085,-0.20654297,0.9574585,-0.18756104,-2.234375,1.015625,0.203125
304,1697618125,-0.20166016,0.9628296,-0.1975708,-2.0625,0.671875,-0.15625
305,1697618165,-0.19580078,0.9567261,-0.19659424,-2.140625,0.796875,-0.125
306,1697618205,-0.19824219,0.9562378,-0.20147705,-1.765625,0.703125,-0.171875
307,1697618245,-0.19848633,0.95111084,-0.19830322,-2.03125,1.015625,0.25
308,1697618285,-0.20727539,0.949646,-0.20635986,-1.90625,0.984375,0.15625
309,1697618325,-0.20019531,0.949646,-0.20513916,-2.6875,1.40625,-0.234375
310,1697618365,-0.19506836,0.94281006,-0.20245361,-0.96875,1.21875,0.15625
311,1697618405,-0.19799805,0.947937,-0.20489502,-0.671875,0.734375,0.21875
312,1697618445,-0.19555664,0.947937,-0.21270752,-0.125,0.796875,-0.03125
313,1697618485,-0.19433594,0.9484253,-0.21148682,0.046875,0.96875,0.625
314,1697618525,-0.19628906,0.94744873,-0.2131958,0.109375,0.6875,0.171875
315,1697618565,-0.20629883,0.951355,-0.21026611,-0.453125,0.953125,0.15625
316,1697618605,-0.20166016,0.94940186,-0.21417236,-0.515625,0.765625,0.28125
317,1697618645,-0.20336914,0.9611206,-0.22027588,0.390625,0.71875,0.09375
318,1697618685,-0.19750977,0.9398804,-0.21343994,-0.21875,0.9375,0.375
319,1697618725,-0.19360352,0.9491577,-0.21051025,0.640625,0.375,0.0625
320,1697618765,-0.20361328,0.95184326,-0.20440674,0.203125,1.21875,0.5625
321,1697618805,-0.19921875,0.9450073,-0.21246338,0.578125,0.796875,0.3125
322,1697618845,-0.1977539,0.9540405,-0.21099854,0.59375,1.234375,0.34375
323,1697618885,-0.20141602,0.94989014,-0.21026611,0.875,1.0,0.625
324,1697618925,-0.20581055,0.9491577,-0.206604,0.84375,1.1875,0.578125
325,1697618965,-0.2019043,0.9520874,-0.20025635,0.765625,1.1875,0.671875
326,1697619005,-0.2043457,0.95648193,-0.20391846,1.328125,0.71875,0.46875
327,1697619045,-0.2019043,0.95477295,-0.20074463,0.828125,1.078125,0.59375
328,1697619085,-0.19921875,0.9472046,-0.206604,0.625,1.328125,0.5
329,1697619125,-0.20605469,0.9562378,-0.20196533,0.671875,1.0,0.46875
330,1697619165,-0.20239258,0.95062256,-0.20220947,1.375,0.828125,0.453125
331,1697619205,-0.20141602,0.95648193,-0.1975708,1.203125,0.546875,0.515625
332,1697619245,-0.20678711,0.95184326,-0.20367432,1.078125,0.734375,0.5625
333,1697619285,-0.20654297,0.9484253,-0.19390869,1.1875,0.765625,0.265625
334,1697619325,-0.20385742,0.9591675,-0.19415283,1.109375,1.078125,0.453125
335,1697619365,-0.20361328,0.95770264,-0.18927002,1.03125,0.625,0.40625
336,1697619405,-0.20483398,0.96014404,-0.18829346,1.65625,0.15625,0.09375
337,1697619445,-0.19677734,0.95648193,-0.19146729,1.453125,0.59375,0.71875
338,1697619485,-0.2097168,0.95965576,-0.18341064,0.71875,0.609375,0.484375
339,1697619525,-0.20581055,0.9533081,-0.1831665,1.125,0.671875,0.265625
340,1697619565,-0.20361328,0.95306396,-0.18804932,1.09375,0.78125,0.5625
341,1697619605,-0.20751953,0.9557495,-0.18365479,1.125,0.890625,0.5625
342,1697619645,-0.21044922,0.96014404,-0.18243408,0.734375,0.828125,0.53125
343,1697619685,-0.20605469,0.9579468,-0.18951416,0.96875,0.9375,0.234375
344,1697619725,-0.20361328,0.9528198,-0.18463135,0.8125,1.0,0.234375
345,1697619765,-0.20263672,0.95892334,-0.17364502,0.609375,0.90625,0.71875
346,1697619805,-0.203125,0.9567261,-0.17437744,0.59375,0.828125,0.671875
347,1697619845,-0.21166992,0.9562378,-0.18927002,1.421875,0.546875,0.265625
348,1697619885,-0.20727539,0.96209717,-0.17926025,0.921875,0.78125,0.328125
349,1697619925,-0.20678711,0.95770264,-0.17559814,0.921875,0.765625,0.328125
350,1697619965,-0.20825195,0.9540405,-0.17584229,1.21875,0.765625,0.3125
351,1697620005,-0.21435547,0.95306396,-0.17633057,1.515625,0.703125,0.53125
352,1697620045,-0.20751953,0.96380615,-0.16656494,1.4375,0.6875,0.53125
353,1697620085,-0.21386719,0.9501343,-0.16925049,1.4375,0.375,0.09375
354,1697620125,-0.20947266,0.96087646,-0.16973877,0.875,0.515625,-0.03125
355,1697620165,-0.20336914,0.96380615,-0.16558838,1.71875,0.421875,0.046875
356,1697620205,-0.20678711,0.95892334,-0.1560669,0.34375,0.984375,0.484375
357,1697620245,-0.20654297,0.96258545,-0.17095947,1.09375,0.828125,0.453125
358,1697620285,-0.20483398,0.9574585,-0.16290283,0.890625,0.65625,0.359375
359,1697620325,-0.20678711,0.963562,-0.16339111,1.265625,0.828125,0.515625
360,1697620365,-0.20727539,0.96087646,-0.1585083,1.109375,1.140625,0.53125
361,1697620405,-0.21240234,0.96698,-0.1609497,0.796875,1.0,0.71875
362,1697620445,-0.20776367,0.95721436,-0.15509033,1.390625,0.84375,0.171875
363,1697620485,-0.20874023,0.9616089,-0.15093994,1.0625,0.921875,0.5
364,1697620525,-0.21459961,0.96258545,-0.15411377,0.71875,1.03125,0.375
365,1697620565,-0.2121582,0.96429443,-0.15679932,0.640625,0.75,0.546875
366,1697620605,-0.2084961,0.96624756,-0.15777588,1.609375,0.6875,0.34375
367,1697620645,-0.21044922,0.9628296,-0.14581299,0.734375,0.984375,0.390625
368,1697620685,-0.21142578,0.9701538,-0.14776611,0.984375,0.875,0.203125
369,1697620725,-0.20947266,0.96380615,-0.15289307,1.265625,0.796875,0.109375
370,1697620765,-0.2109375,0.96380615,-0.14556885,1.125,0.9375,0.34375
371,1697620805,-0.21142578,0.96209717,-0.14459229,1.265625,0.734375,0.203125
372,1697620845,-0.20629883,0.9657593,-0.144104,1.125,0.796875,0.265625
373,1697620885,-0.20947266,0.96209717,-0.1404419,0.921875,0.578125,0.03125
374,1697620925,-0.21166992,0.9696655,-0.13775635,0.8125,0.671875,-0.015625
375,1697620965,-0.20263672,0.9647827,-0.14459229,1.734375,0.546875,0.25
376,1697621005,-0.20825195,0.965271,-0.13531494,0.3125,0.6875,0.453125
377,1697621045,-0.20825195,0.96917725,-0.13702393,1.109375,0.765625,0.421875
378,1697621085,-0.21264648,0.96087646,-0.1326294,0.578125,0.53125,0.140625
379,1697621125,-0.20727539,0.965271,-0.14459229,0.6875,0.953125,0.546875
380,1697621165,-0.21166992,0.961853,-0.12701416,0.453125,1.0,0.546875
381,1697621205,-0.21435547,0.97161865,-0.13555908,0.71875,0.71875,0.265625
382,1697621245,-0.21826172,0.96380615,-0.13287354,0.9375,1.03125,0.1875
383,1697621285,-0.21142578,0.9684448,-0.13067627,0.296875,0.9375,0.484375
384,1697621325,-0.2109375,0.96746826,-0.12921143,0.046875,1.125,0.375
385,1697621365,-0.21191406,0.9684448,-0.13189697,0.015625,0.84375,0.40625
386,1697621405,-0.21313477,0.9647827,-0.13555908,0.4375,0.734375,0.265625
387,1697621445,-0.2109375,0.9660034,-0.13238525,-0.140625,0.765625,0.296875
388,1697621485,-0.20605469,0.96307373,-0.13287354,-0.21875,0.625,0.359375
389,1697621525,-0.20996094,0.9713745,-0.1260376,0.1875,0.828125,0.234375
390,1697621565,-0.21264648,0.9645386,-0.13336182,-0.703125,0.84375,0.453125
391,1697621605,-0.20825195,0.96502686,-0.1272583,-0.59375,0.578125,0.171875
392,1697621645,-0.21362305,0.9682007,-0.13677979,-0.625,0.609375,0.140625
393,1697621685,-0.2109375,0.96429443,-0.13775635,-0.984375,0.828125,0.140625
394,1697621725,-0.21948242,0.9689331,-0.15045166,-0.015625,0.28125,-0.140625
395,1697621765,-0.21240234,0.96087646,-0.13897705,-1.234375,0.671875,0.15625
396,1697621805,-0.20874023,0.96795654,-0.14312744,-0.21875,0.3125,-0.15625
397,1697621845,-0.2043457,0.9640503,-0.1338501,-1.53125,0.8125,0.53125
398,1697621885,-0.20776367,0.9660034,-0.14337158,-1.015625,0.515625,-0.0625
399,1697621925,-0.21166992,0.9628296,-0.1428833,-0.953125,0.609375,-0.0625
400,1697621965,-0.20507812,0.95721436,-0.14434814,-1.109375,0.390625,0.140625
401,1697622005,-0.20703125,0.96209717,-0.14849854,-1.109375,0.765625,0.296875
402,1697622045,-0.20019531,0.961853,-0.14556885,-1.515625,0.953125,0.171875
403,1697622085,-0.2097168,0.96795654,-0.14703369,-1.328125,0.71875,-0.265625
404,1697622125,-0.20581055,0.9623413,-0.14312744,-1.65625,1.21875,0.0
405,1697622165,-0.21020508,0.9645386,-0.14508057,-1.703125,1.1875,0.34375
406,1697622205,-0.20947266,0.9598999,-0.15240479,-2.609375,0.953125,-0.046875
407,1697622245,-0.20605469,0.96258545,-0.15948486,-1.9375,0.859375,-0.21875
408,1697622285,-0.20776367,0.9606323,-0.16241455,-1.53125,0.859375,0.21875
409,1697622325,-0.2097168,0.9623413,-0.15899658,-1.625,0.953125,0.0
410,1697622365,-0.20507812,0.9579468,-0.1651001,-1.46875,0.96875,-0.015625
411,1697622405,-0.2121582,0.961853,-0.16827393,-1.40625,0.859375,-0.03125
412,1697622445,-0.20605469,0.9562378,-0.1651001,-1.65625,0.890625,-0.015625
413,1697622485,-0.2097168,0.9567261,-0.16729736,-2.34375,0.609375,-0.078125
414,1697622525,-0.20507812,0.96307373,-0.17730713,-1.703125,0.03125,-0.171875
415,1697622565,-0.20458984,0.9591675,-0.1795044,-1.796875,0.59375,-0.046875
416,1697622605,-0.20703125,0.9640503,-0.18170166,-0.84375,-0.390625,-0.609375
417,1697622645,-0.20214844,0.9537964,-0.175354,-1.140625,0.890625,0.421875
418,1697622685,-0.20996094,0.95892334,-0.18096924,-0.875,0.40625,-0.015625
419,1697622725,-0.20703125,0.95184326,-0.18560791,-1.46875,0.5625,-0.15625
420,1697622765,-0.2055664,0.9533081,-0.18170166,-1.015625,0.765625,-0.078125
421,1697622805,-0.20288086,0.95526123,-0.18780518,-0.546875,0.828125,0.234375
422,1697622845,-0.19970703,0.96087646,-0.18609619,-0.75,1.3125,0.3125
423,1697622885,-0.19677734,0.9545288,-0.19049072,-0.234375,0.875,0.125
424,1697622925,-0.20629883,0.95770264,-0.18707275,-0.390625,1.234375,0.546875
425,1697622965,-0.19702148,0.9603882,-0.18389893,-0.484375,1.3125,0.484375
426,1697623005,-0.20092773,0.95843506,-0.18145752,-0.796875,1.15625,0.265625
427,1697623045,-0.20385742,0.95599365,-0.19439697,-0.265625,0.875,0.234375
428,1697623085,-0.20385742,0.95648193,-0.19244385,-0.78125,0.890625,0.140625
429,1697623125,-0.2043457,0.9467163,-0.18756104,-0.796875,1.21875,0.046875
430,1697623165,-0.20361328,0.95770264,-0.19244385,-0.921875,0.984375,0.15625
431,1697623205,-0.20678711,0.9586792,-0.18780518,-1.375,1.015625,0.21875
432,1697623245,-0.20141602,0.9550171,-0.18878174,-1.09375,0.96875,0.03125
433,1697623285,-0.2043457,0.95428467,-0.1873169,-1.484375,1.15625,0.21875
434,1697623325,-0.20019531,0.9459839,-0.19171143,-1.890625,0.78125,0.015625
435,1697623365,-0.19970703,0.95721436,-0.20269775,-1.125,0.609375,-0.359375
436,1697623405,-0.20336914,0.94744873,-0.19854736,-1.328125,0.765625,0.203125
437,1697623445,-0.20776367,0.95062256,-0.20562744,-1.90625,0.703125,-0.203125
438,1697623485,-0.2043457,0.95306396,-0.19952393,-3.171875,1.09375,-0.4375
439,1697623525,-0.19970703,0.9501343,-0.21173096,-1.859375,1.015625,-0.40625
440,1697623565,-0.203125,0.95062256,-0.21490479,-0.734375,1.234375,0.09375
441,1697623605,-0.19848633,0.9557495,-0.21636963,-1.546875,1.015625,0.203125
442,1697623645,-0.20141602,0.949646,-0.21636963,-0.703125,1.109375,0.234375
443,1697623685,-0.19897461,0.9467163,-0.21807861,-1.15625,1.203125,0.203125
444,1697623725,-0.20166016,0.94989014,-0.21490479,-0.875,1.328125,0.296875
445,1697623765,-0.20141602,0.94525146,-0.21905518,-1.109375,1.171875,0.28125
446,1697623805,-0.20336914,0.94744873,-0.22735596,-0.03125,1.140625,0.25
447,1697623845,-0.20678711,0.9454956,-0.21905518,-0.28125,0.78125,0.5
448,1697623885,-0.20336914,0.94818115,-0.22491455,0.328125,1.078125,0.5625
449,1697623925,-0.20166016,0.94573975,-0.2185669,0.40625,0.75,0.484375
450,1697623965,-0.2019043,0.9447632,-0.22174072,0.46875,0.71875,0.625
451,1697624005,-0.20483398,0.95477295,-0.22320557,1.15625,1.265625,0.71875
452,1697624045,-0.20483398,0.9369507,-0.20758057,0.796875,0.609375,0.328125
453,1697624085,-0.20996094,0.949646,-0.21588135,1.328125,0.765625,0.34375
454,1697624125,-0.19848633,0.9528198,-0.20904541,1.390625,0.34375,0.609375
455,1697624165,-0.2097168,0.95477295,-0.20733643,-0.1875,1.078125,0.609375
456,1697624205,-0.20385742,0.9425659,-0.21368408,0.625,1.015625,0.71875
457,1697624245,-0.19946289,0.9503784,-0.20391846,0.703125,0.65625,0.484375
458,1697624285,-0.20361328,0.9489136,-0.2156372,0.53125,0.609375,0.484375
459,1697624325,-0.20922852,0.9515991,-0.20904541,0.65625,0.890625,0.703125
460,1697624365,-0.20483398,0.9437866,-0.21099854,1.375,1.125,0.765625
461,1697624405,-0.20605469,0.9515991,-0.20098877,1.359375,0.828125,0.359375
462,1697624445,-0.20703125,0.9520874,-0.20172119,1.09375,1.109375,0.625
463,1697624485,-0.20898438,0.9489136,-0.2029419,1.046875,0.890625,0.71875
464,1697624525,-0.20288086,0.9562378,-0.20391846,1.53125,0.734375,0.515625
465,1697624565,-0.2084961,0.9515991,-0.19732666,1.40625,0.75,0.453125
466,1697624605,-0.2097168,0.9489136,-0.19610596,1.328125,0.734375,0.484375
467,1697624645,-0.21020508,0.95184326,-0.1987915,1.109375,1.0,0.4375
468,1697624685,-0.21044922,0.95428467,-0.19732666,1.359375,0.921875,0.453125
469,1697624725,-0.21118164,0.9537964,-0.19122314,1.203125,0.8125,0.4375
470,1697624765,-0.21166992,0.9489136,-0.1897583,1.171875,1.21875,0.5
471,1697624805,-0.21069336,0.95477295,-0.18878174,0.5625,0.765625,0.375
472,1697624845,-0.21191406,0.9508667,-0.19073486,1.140625,0.40625,-0.125
473,1697624885,-0.19824219,0.95306396,-0.18707275,1.609375,0.390625,0.546875
474,1697624925,-0.2133789,0.9606323,-0.18389893,0.828125,0.796875,0.609375
475,1697624965,-0.20874023,0.9579468,-0.18389893,1.234375,0.890625,0.5
476,1697625005,-0.20874023,0.9533081,-0.18365479,1.0,0.625,0.4375
477,1697625045,-0.21142578,0.9574585,-0.18389893,1.15625,1.046875,0.640625
478,1697625085,-0.21777344,0.9581909,-0.17779541,0.921875,1.03125,0.453125
479,1697625125,-0.21166992,0.9545288,-0.17974854,1.234375,1.046875,0.453125
480,1697625165,-0.20947266,0.9533081,-0.17730713,1.71875,1.09375,0.171875
481,1697625205,-0.21777344,0.9616089,-0.17706299,1.171875,1.203125,0.3125
482,1697625245,-0.21362305,0.9520874,-0.1687622,1.140625,1.046875,0.28125
483,1697625285,-0.21386719,0.96258545,-0.17071533,1.1875,1.03125,0.390625
484,1697625325,-0.21606445,0.9533081,-0.17364502,1.390625,1.09375,0.453125
485,1697625365,-0.21240234,0.9557495,-0.16412354,1.4375,0.953125,0.390625
486,1697625405,-0.21679688,0.9555054,-0.16339111,1.296875,1.28125,0.28125
487,1697625445,-0.2133789,0.95111084,-0.16558838,1.46875,0.921875,0.21875
488,1697625485,-0.21606445,0.9557495,-0.16558838,1.1875,1.0625,0.34375
489,1697625525,-0.21484375,0.96258545,-0.15826416,1.0625,1.15625,0.3125
490,1697625565,-0.21020508,0.9672241,-0.16241455,0.34375,0.828125,0.546875
491,1697625605,-0.22167969,0.9567261,-0.16290283,1.078125,0.46875,-0.078125
492,1697625645,-0.21923828,0.96868896,-0.1560669,0.25,0.46875,0.203125
493,1697625685,-0.20898438,0.965271,-0.15948486,1.578125,0.453125,-0.09375
494,1697625725,-0.21704102,0.95770264,-0.15460205,0.171875,0.71875,0.484375
495,1697625765,-0.21508789,0.95770264,-0.1560669,1.015625,0.96875,0.375
496,1697625805,-0.21289062,0.96795654,-0.15704346,0.9375,0.765625,0.078125
497,1697625845,-0.21142578,0.95965576,-0.15997314,1.203125,0.59375,0.296875
498,1697625885,-0.20874023,0.95721436,-0.14483643,0.6875,0.8125,0.34375
499,1697625925,-0.21411133,0.961853,-0.1519165,0.453125,0.5625,0.453125
500,1697625965,-0.21606445,0.9633179,-0.15216064,1.015625,0.515625,0.140625
501,1697626005,-0.2175293,0.9598999,-0.13970947,0.328125,0.703125,0.296875
502,1697626045,-0.20996094,0.9657593,-0.14752197,0.4375,0.9375,0.3125
503,1697626085,-0.21679688,0.9574585,-0.14459229,0.34375,0.953125,0.359375
504,1697626125,-0.21655273,0.96258545,-0.14508057,1.359375,0.921875,0.15625
505,1697626165,-0.21875,0.9598999,-0.14678955,0.71875,0.796875,0.375
506,1697626205,-0.21459961,0.96502686,-0.14801025,0.59375,0.234375,0.234375
507,1697626245,-0.22045898,0.9606323,-0.14556885,0.28125,0.625,0.296875
508,1697626285,-0.2175293,0.9579468,-0.14117432,0.390625,0.515625,0.3125
509,1697626325,-0.21166992,0.96209717,-0.14483643,0.34375,0.609375,0.140625
510,1697626365,-0.2109375,0.96014404,-0.14385986,0.109375,0.21875,0.140625
511,1697626405,-0.21142578,0.9723511,-0.14117432,-0.1875,0.78125,0.359375
512,1697626445,-0.22265625,0.9574585,-0.14190674,0.359375,0.359375,0.0625
513,1697626485,-0.21704102,0.9694214,-0.14434814,-0.4375,0.515625,-0.078125
514,1697626525,-0.20678711,0.9647827,-0.14385986,0.21875,0.234375,0.1875
515,1697626565,-0.21533203,0.9647827,-0.13970947,-1.203125,0.140625,0.359375
516,1697626605,-0.21728516,0.96698,-0.14898682,-0.71875,0.34375,0.15625
517,1697626645,-0.21557617,0.9598999,-0.14678955,-1.046875,0.171875,-0.25
518,1697626685,-0.21362305,0.95892334,-0.1506958,-1.234375,0.453125,0.109375
519,1697626725,-0.21313477,0.9603882,-0.14801025,-0.796875,0.46875,0.046875
520,1697626765,-0.2084961,0.9591675,-0.15411377,-0.71875,0.984375,0.125
521,1697626805,-0.21435547,0.9645386,-0.15045166,-0.484375,1.078125,-0.0625
522,1697626845,-0.20776367,0.95770264,-0.1519165,-1.328125,1.359375,-0.03125
523,1697626885,-0.20922852,0.9660034,-0.14898682,-1.015625,1.421875,0.3125
524,1697626925,-0.21142578,0.9647827,-0.15679932,-1.390625,0.953125,0.078125
525,1697626965,-0.21264648,0.96258545,-0.15289307,-0.40625,0.875,-0.1875
526,1697627005,-0.2097168,0.95892334,-0.16021729,-0.984375,0.984375,0.09375
527,1697627045,-0.2133789,0.96087646,-0.16119385,-0.28125,1.1875,0.015625
528,1697627085,-0.20776367,0.9623413,-0.1531372,0.5625,1.203125,-0.09375
529,1697627125,-0.2084961,0.963562,-0.1560669,0.328125,1.34375,0.078125
530,1697627165,-0.2097168,0.95721436,-0.15484619,0.109375,1.234375,0.125
531,1697627205,-0.20532227,0.96746826,-0.15460205,-0.25,1.890625,0.375
532,1697627245,-0.21508789,0.9550171,-0.1494751,-0.5,1.09375,-0.25
533,1697627285,-0.2163086,0.96258545,-0.15948486,-0.765625,1.734375,-0.15625
534,1697627325,-0.20654297,0.96014404,-0.16241455,-0.171875,0.953125,-0.21875
535,1697627365,-0.21582031,0.9677124,-0.15948486,-0.984375,2.25,0.375
536,1697627405,-0.22045898,0.9623413,-0.16827393,0.21875,1.65625,0.3125
537,1697627445,-0.21435547,0.95648193,-0.17022705,-0.96875,2.3125,0.3125
538,1697627485,-0.20458984,0.94866943,-0.16339111,-0.65625,2.328125,0.21875
539,1697627525,-0.21386719,0.9598999,-0.15655518,-0.765625,2.015625,0.328125
540,1697627565,-0.2199707,0.9694214,-0.1729126,-0.578125,1.140625,-0.203125
541,1697627605,-0.2097168,0.9603882,-0.15802002,-0.828125,1.125,-0.234375
542,1697627645,-0.21191406,0.9603882,-0.15484619,-0.109375,1.390625,0.1875
543,1697627685,-0.20874023,0.95770264,-0.16217041,-0.703125,1.515625,0.234375
544,1697627725,-0.2084961,0.96258545,-0.16290283,-0.4375,1.484375,0.0625
545,1697627765,-0.21264648,0.9562378,-0.1663208,-1.125,0.96875,-0.0625
546,1697627805,-0.20825195,0.95721436,-0.16680908,-0.78125,0.921875,-0.015625
547,1697627845,-0.20898438,0.963562,-0.16265869,-0.6875,0.703125,0.34375
548,1697627885,-0.21777344,0.96136475,-0.175354,-0.734375,0.734375,0.328125
549,1697627925,-0.21264648,0.9515991,-0.1716919,-0.5625,0.75,0.375
550,1697627965,-0.2211914,0.96429443,-0.17266846,-0.421875,0.8125,0.140625
551,1697628005,-0.21655273,0.9537964,-0.16705322,0.15625,1.234375,0.5
552,1697628045,-0.21582031,0.9606323,-0.17242432,0.9375,0.71875,0.0625
553,1697628085,-0.21508789,0.96258545,-0.16070557,0.265625,1.078125,0.484375
554,1697628125,-0.21826172,0.9606323,-0.16705322,0.453125,0.734375,0.15625
555,1697628165,-0.21533203,0.95233154,-0.16583252,0.390625,1.03125,0.328125
556,1697628205,-0.2133789,0.95843506,-0.16729736,0.375,0.6875,0.484375
557,1697628245,-0.21704102,0.9603882,-0.16851807,0.5,1.03125,0.609375
558,1697628285,-0.21484375,0.9598999,-0.16314697,-0.296875,1.015625,0.59375
559,1697628325,-0.21289062,0.9591675,-0.1741333,0.421875,0.640625,0.28125
560,1697628365,-0.21362305,0.96014404,-0.16070557,-0.40625,0.578125,0.6875
561,1697628405,-0.21508789,0.9520874,-0.17388916,0.015625,0.828125,0.921875
562,1697628445,-0.2163086,0.9616089,-0.16070557,0.359375,0.671875,0.6875
563,1697628485,-0.21679688,0.9574585,-0.16925049,1.015625,0.46875,0.265625
564,1697628525,-0.21801758,0.95965576,-0.16729736,0.359375,0.359375,0.359375
565,1697628565,-0.2121582,0.9594116,-0.16534424,0.890625,0.546875,0.515625
566,1697628605,-0.21582031,0.9545288,-0.1638794,0.859375,0.609375,0.390625
567,1697628645,-0.22314453,0.96502686,-0.1609497,0.75,0.546875,0.40625
568,1697628685,-0.21679688,0.9603882,-0.15997314,0.671875,0.859375,0.59375
569,1697628725,-0.21972656,0.9574585,-0.15289307,0.859375,0.765625,0.875
570,1697628765,-0.21899414,0.97161865,-0.15509033,1.171875,0.484375,0.109375
571,1697628805,-0.21044922,0.94744873,-0.15704346,1.1875,0.328125,0.546875
572,1697628845,-0.2241211,0.9616089,-0.1560669,0.390625,0.546875,0.46875
573,1697628885,-0.22265625,0.9594116,-0.15435791,0.96875,1.015625,0.46875
574,1697628925,-0.21923828,0.9603882,-0.15509033,0.59375,0.515625,0.40625
575,1697628965,-0.21313477,0.96551514,-0.1572876,0.578125,0.734375,0.625
576,1697629005,-0.22241211,0.9616089,-0.1519165,0.25,0.96875,0.765625
577,1697629045,-0.2241211,0.963562,-0.15240479,0.890625,0.6875,0.53125
578,1697629085,-0.22387695,0.9603882,-0.14801025,1.484375,0.65625,0.671875
579,1697629125,-0.22631836,0.96258545,-0.14703369,0.515625,0.578125,0.609375
580,1697629165,-0.22241211,0.95355225,-0.14605713,0.375,1.109375,0.625
581,1697629205,-0.22387695,0.9591675,-0.14923096,0.4375,0.84375,0.390625
582,1697629245,-0.22460938,0.95965576,-0.14483643,0.234375,0.8125,0.453125
583,1697629285,-0.22436523,0.9616089,-0.14459229,0.296875,0.828125,0.359375
584,1697629325,-0.22241211,0.9606323,-0.1506958,0.671875,0.984375,0.28125
585,1697629365,-0.22436523,0.9581909,-0.1506958,0.9375,1.0625,0.34375
586,1697629405,-0.22045898,0.9591675,-0.14874268,0.578125,1.234375,0.5625
587,1697629445,-0.22729492,0.9628296,-0.14605713,1.5,0.671875,0.3125
588,1697629485,-0.22753906,0.9611206,-0.14068604,0.25,0.84375,0.234375
589,1697629525,-0.22094727,0.96209717,-0.14703369,1.84375,0.515625,0.046875
590,1697629565,-0.22363281,0.9555054,-0.13653564,0.21875,0.8125,0.484375
591,1697629605,-0.2277832,0.9657593,-0.1350708,0.671875,0.703125,0.296875
592,1697629645,-0.22851562,0.9672241,-0.13726807,0.234375,0.859375,0.3125
593,1697629685,-0.22753906,0.9603882,-0.13800049,0.609375,0.71875,0.609375
594,1697629725,-0.23217773,0.9579468,-0.13238525,0.828125,0.90625,0.5
595,1697629765,-0.22387695,0.9645386,-0.13311768,0.125,0.875,0.484375
596,1697629805,-0.23706055,0.96673584,-0.13970947,0.921875,0.78125,0.0625
597,1697629845,-0.22509766,0.9586792,-0.12872314,0.609375,1.015625,0.625
598,1697629885,-0.22338867,0.9603882,-0.13214111,0.921875,1.515625,0.703125
599,1697629925,-0.22973633,0.9606323,-0.12872314,0.34375,1.375,0.359375
600,1697629965,-0.22680664,0.9567261,-0.1375122,0.96875,0.890625,0.21875
601,1697630005,-0.22607422,0.9628296,-0.12652588,0.515625,0.859375,0.421875
602,1697630045,-0.22607422,0.9677124,-0.13189697,0.59375,0.59375,0.171875
603,1697630085,-0.22973633,0.96209717,-0.13018799,0.625,1.03125,-0.046875
604,1697630125,-0.23168945,0.95770264,-0.12554932,0.984375,0.421875,0.109375
605,1697630165,-0.22265625,0.9647827,-0.12921143,0.46875,1.0625,0.390625
606,1697630205,-0.2319336,0.95648193,-0.12164307,1.453125,0.75,0.328125
607,1697630245,-0.23095703,0.9640503,-0.12432861,0.953125,0.796875,0.046875
608,1697630285,-0.22167969,0.9640503,-0.12237549,1.890625,0.6875,0.3125
609,1697630325,-0.23095703,0.9660034,-0.11602783,0.625,0.796875,0.671875
610,1697630365,-0.22949219,0.9713745,-0.120666504,1.046875,0.890625,0.15625
611,1697630405,-0.2277832,0.9657593,-0.11505127,0.59375,0.578125,0.25
612,1697630445,-0.22705078,0.96380615,-0.11798096,0.578125,0.546875,0.328125
613,1697630485,-0.22949219,0.96014404,-0.11260986,0.8125,0.6875,0.609375
614,1697630525,-0.22705078,0.96917725,-0.120666504,0.765625,0.71875,0.59375
615,1697630565,-0.23242188,0.9682007,-0.11553955,1.15625,0.625,0.09375
616,1697630605,-0.22680664,0.96698,-0.11260986,0.265625,0.78125,0.265625
617,1697630645,-0.22827148,0.9611206,-0.11065674,0.21875,0.78125,0.375
618,1697630685,-0.2331543,0.96868896,-0.10772705,0.046875,0.75,0.46875
619,1697630725,-0.22949219,0.963562,-0.108947754,0.0625,1.078125,0.484375
620,1697630765,-0.22631836,0.96698,-0.11212158,0.015625,1.171875,0.671875
621,1697630805,-0.22607422,0.96429443,-0.11407471,0.40625,1.09375,0.421875
622,1697630845,-0.23608398,0.965271,-0.10797119,-0.078125,1.125,0.3125
623,1697630885,-0.23217773,0.96746826,-0.11553955,0.296875,0.65625,0.625
624,1697630925,-0.22827148,0.96868896,-0.11260986,0.234375,0.828125,0.53125
625,1697630965,-0.22973633,0.9664917,-0.10284424,0.171875,0.703125,0.359375
626,1697631005,-0.2368164,0.96698,-0.11065674,0.6875,0.375,0.09375
627,1697631045,-0.22729492,0.9616089,-0.101867676,0.953125,0.921875,0.75
628,1697631085,-0.23266602,0.9718628,-0.10723877,-0.125,0.34375,0.46875
629,1697631125,-0.23657227,0.96990967,-0.112854004,0.84375,0.578125,0.28125
630,1697631165,-0.23510742,0.965271,-0.10797119,0.3125,0.671875,0.453125
631,1697631205,-0.23120117,0.96307373,-0.10821533,0.109375,0.796875,0.53125
632,1697631245,-0.23120117,0.9664917,-0.10675049,-1.0,0.875,0.3125
633,1697631285,-0.234375,0.96014404,-0.11383057,-0.390625,0.734375,0.265625
634,1697631325,-0.23583984,0.96258545,-0.10748291,-0.921875,0.703125,0.140625
635,1697631365,-0.22949219,0.9616089,-0.112854004,-1.59375,1.015625,0.265625
636,1697631405,-0.23217773,0.9606323,-0.11505127,-1.78125,1.28125,0.296875
637,1697631445,-0.22875977,0.9633179,-0.11627197,-1.28125,1.421875,0.359375
638,1697631485,-0.23608398,0.96209717,-0.117004395,-1.640625,1.890625,0.453125
639,1697631525,-0.23657227,0.96136475,-0.12213135,-1.375,2.140625,0.234375
640,1697631565,-0.23242188,0.9616089,-0.12042236,-1.109375,2.140625,0.265625
641,1697631605,-0.23413086,0.9594116,-0.120666504,-1.34375,1.3125,0.109375
642,1697631645,-0.23486328,0.9672241,-0.12213135,-1.703125,1.640625,0.109375
643,1697631685,-0.23730469,0.96551514,-0.117004395,-0.90625,1.703125,0.234375
644,1697631725,-0.24267578,0.9598999,-0.12042236,-1.609375,1.5,0.015625
645,1697631765,-0.24047852,0.96917725,-0.13067627,-0.5625,1.78125,-0.0625
646,1697631805,-0.2265625,0.95965576,-0.1272583,-0.90625,1.46875,0.09375
647,1697631845,-0.23339844,0.9628296,-0.12823486,-1.671875,1.296875,0.234375
648,1697631885,-0.23388672,0.9569702,-0.13458252,-1.484375,0.90625,-0.28125
649,1697631925,-0.23364258,0.95843506,-0.1338501,-1.59375,0.609375,-0.171875
650,1697631965,-0.23461914,0.95892334,-0.14068604,-1.609375,0.65625,-0.0625
651,1697632005,-0.23779297,0.9645386,-0.13580322,-2.0,0.875,0.25
652,1697632045,-0.24121094,0.96307373,-0.1453247,-1.5,0.90625,-0.0625
653,1697632085,-0.22680664,0.9569702,-0.14483643,-1.34375,1.0625,-0.015625
654,1697632125,-0.23583984,0.96014404,-0.1428833,-1.484375,1.203125,0.140625
655,1697632165,-0.23413086,0.9603882,-0.14678955,-2.046875,1.40625,0.203125
656,1697632205,-0.2290039,0.9574585,-0.14508057,-1.703125,1.28125,-0.0625
657,1697632245,-0.23706055,0.95892334,-0.15118408,-1.484375,1.078125,0.265625
658,1697632285,-0.23730469,0.9633179,-0.1572876,-1.671875,1.0625,-0.125
659,1697632325,-0.22851562,0.9579468,-0.15435791,-1.5625,1.359375,0.03125
660,1697632365,-0.2331543,0.95770264,-0.15753174,-1.8125,1.1875,0.0625
661,1697632405,-0.22558594,0.95599365,-0.16192627,-1.9375,1.640625,0.21875
662,1697632445,-0.22851562,0.9489136,-0.15704346,-2.046875,1.25,-0.0625
663,1697632485,-0.23999023,0.96014404,-0.16485596,-1.21875,1.640625,-0.1875
664,1697632525,-0.22631836,0.9594116,-0.16802979,-0.546875,1.125,0.34375
665,1697632565,-0.24023438,0.9594116,-0.17095947,-0.78125,1.484375,0.34375
666,1697632605,-0.234375,0.95428467,-0.17193604,-0.375,1.21875,0.21875
667,1697632645,-0.23266602,0.95648193,-0.16827393,-0.015625,0.921875,0.359375
668,1697632685,-0.24121094,0.9528198,-0.17095947,-0.125,1.359375,0.5625
669,1697632725,-0.23754883,0.9515991,-0.16436768,-0.1875,1.203125,0.703125
670,1697632765,-0.23706055,0.9533081,-0.16949463,-0.109375,1.03125,0.296875
671,1697632805,-0.23168945,0.9550171,-0.16485596,-0.296875,1.328125,0.40625
672,1697632845,-0.23901367,0.9594116,-0.16802979,-0.265625,1.1875,0.859375
673,1697632885,-0.23901367,0.95892334,-0.1675415,-0.15625,1.25,0.78125
674,1697632925,-0.2397461,0.9528198,-0.16900635,0.265625,0.9375,0.34375
675,1697632965,-0.23388672,0.95428467,-0.16485596,0.375,0.921875,0.46875
676,1697633005,-0.2397461,0.9555054,-0.16583252,0.5,0.65625,0.578125
677,1697633045,-0.2434082,0.9540405,-0.16778564,0.375,0.65625,0.375
678,1697633085,-0.24682617,0.9537964,-0.16192627,0.53125,0.953125,0.671875
679,1697633125,-0.24707031,0.96014404,-0.17120361,1.125,0.375,0.03125
680,1697633165,-0.25048828,0.9491577,-0.1687622,0.390625,0.875,0.546875
681,1697633205,-0.23754883,0.9528198,-0.17486572,1.40625,0.40625,0.234375
682,1697633245,-0.23730469,0.9491577,-0.15948486,0.046875,0.828125,0.484375
683,1697633285,-0.24121094,0.94866943,-0.16217041,0.4375,0.609375,0.359375
684,1697633325,-0.23583984,0.95062256,-0.15704346,-0.515625,0.375,0.296875
685,1697633365,-0.2421875,0.9515991,-0.16339111,-0.875,0.640625,0.40625
686,1697633405,-0.24169922,0.94940186,-0.15533447,-0.59375,0.65625,0.65625
687,1697633445,-0.23486328,0.9545288,-0.16290283,-0.453125,1.015625,0.609375
688,1697633485,-0.24194336,0.9537964,-0.16339111,0.375,0.671875,0.265625
689,1697633525,-0.24047852,0.9579468,-0.16339111,0.0,0.828125,0.421875
690,1697633565,-0.23486328,0.951355,-0.16485596,0.0,0.96875,0.484375
691,1697633605,-0.23950195,0.9540405,-0.17388916,-0.09375,0.625,0.4375
692,1697633645,-0.24389648,0.95233154,-0.1638794,0.40625,0.640625,0.0625
693,1697633685,-0.2446289,0.9555054,-0.16558838,0.015625,0.3125,0.09375
694,1697633725,-0.24316406,0.95428467,-0.16680908,-0.171875,0.296875,0.0
695,1697633765,-0.2409668,0.95111084,-0.16217041,0.3125,0.640625,0.0625
696,1697633805,-0.23925781,0.9515991,-0.16314697,0.296875,0.578125,0.25
697,1697633845,-0.24169922,0.9586792,-0.17095947,0.90625,0.421875,-0.046875
698,1697633885,-0.24316406,0.9484253,-0.1638794,0.484375,0.78125,0.359375
699,1697633925,-0.23242188,0.9606323,-0.16900635,0.96875,0.265625,-0.21875
700,1697633965,-0.2397461,0.94989014,-0.15655518,0.234375,0.75,0.546875
701,1697634005,-0.24145508,0.9550171,-0.1609497,0.546875,0.84375,0.21875
702,1697634045,-0.23925781,0.9476929,-0.15802002,0.796875,0.96875,0.0625
703,1697634085,-0.2368164,0.95233154,-0.1651001,0.515625,0.875,0.328125
704,1697634125,-0.24194336,0.94744873,-0.1572876,0.453125,0.8125,0.4375
705,1697634165,-0.23657227,0.9567261,-0.15997314,0.0625,0.828125,0.359375
706,1697634205,-0.24023438,0.95526123,-0.15899658,0.53125,0.65625,-0.046875
707,1697634245,-0.23852539,0.95111084,-0.1560669,0.109375,0.828125,0.40625
708,1697634285,-0.24316406,0.9562378,-0.15826416,-0.09375,0.96875,0.421875
709,1697634325,-0.24169922,0.9555054,-0.15533447,-0.421875,0.78125,0.171875
710,1697634365,-0.24609375,0.95233154,-0.15557861,0.625,0.703125,0.03125
711,1697634405,-0.2397461,0.95843506,-0.1572876,0.28125,0.78125,0.390625
712,1697634445,-0.24365234,0.9540405,-0.16046143,0.4375,0.625,0.28125
713,1697634485,-0.23828125,0.961853,-0.1609497,1.09375,0.84375,0.40625
714,1697634525,-0.24145508,0.9555054,-0.15802002,0.71875,0.921875,0.21875
715,1697634565,-0.2355957,0.95306396,-0.15142822,0.59375,0.65625,0.03125
716,1697634605,-0.24023438,0.9528198,-0.15264893,0.671875,0.625,0.265625
717,1697634645,-0.2421875,0.9515991,-0.14361572,0.421875,0.90625,0.265625
718,1697634685,-0.23828125,0.9672241,-0.14654541,1.171875,0.234375,-0.34375
719,1697634725,-0.23120117,0.95233154,-0.14727783,0.59375,0.609375,0.546875
720,1697634765,-0.24536133,0.95843506,-0.15118408,0.484375,0.5,0.4375
721,1697634805,-0.23852539,0.95843506,-0.14727783,0.921875,0.703125,0.296875
722,1697634845,-0.24145508,0.95526123,-0.14776611,0.734375,0.421875,0.28125
723,1697634885,-0.2409668,0.961853,-0.14923096,0.921875,0.546875,0.53125
724,1697634925,-0.2409668,0.95526123,-0.14239502,0.65625,0.671875,0.515625
725,1697634965,-0.24902344,0.9569702,-0.14093018,0.890625,0.46875,0.078125
726,1697635005,-0.23925781,0.95477295,-0.14508057,0.546875,0.765625,0.3125
727,1697635045,-0.24389648,0.9581909,-0.1362915,0.046875,0.625,0.328125
728,1697635085,-0.24438477,0.9515991,-0.14117432,0.03125,0.859375,0.359375
729,1697635125,-0.2421875,0.9623413,-0.14117432,0.359375,0.5625,0.09375
730,1697635165,-0.24414062,0.96136475,-0.13995361,0.515625,0.59375,0.40625
731,1697635205,-0.23803711,0.96307373,-0.14141846,0.0625,0.921875,0.28125
732,1697635245,-0.2421875,0.9574585,-0.13946533,0.203125,0.875,0.203125
733,1697635285,-0.24243164,0.96087646,-0.13580322,0.046875,1.15625,0.171875
734,1697635325,-0.24389648,0.9567261,-0.1404419,0.0625,0.8125,0.296875
735,1697635365,-0.24316406,0.9501343,-0.13775635,-0.21875,0.859375,0.375
736,1697635405,-0.2475586,0.9603882,-0.14263916,-0.0625,0.65625,0.390625
737,1697635445,-0.24047852,0.9484253,-0.14068604,-0.25,0.65625,0.5625
738,1697635485,-0.24365234,0.96673584,-0.13995361,0.65625,0.171875,-0.078125
739,1697635525,-0.24145508,0.9545288,-0.13970947,-0.359375,0.890625,0.578125
740,1697635565,-0.24389648,0.95721436,-0.14605713,-0.46875,0.234375,0.40625
741,1697635605,-0.24316406,0.9606323,-0.14239502,-0.0625,0.59375,0.375
742,1697635645,-0.2434082,0.9537964,-0.13946533,-0.78125,0.609375,0.359375
743,1697635685,-0.24584961,0.9533081,-0.1482544,-1.015625,0.4375,0.515625
744,1697635725,-0.24414062,0.9540405,-0.14117432,-1.5,0.546875,0.421875
745,1697635765,-0.24682617,0.9501343,-0.14801025,-1.078125,0.625,-0.078125
746,1697635805,-0.2397461,0.9545288,-0.14385986,-1.640625,0.984375,0.03125
747,1697635845,-0.24243164,0.9562378,-0.15435791,-1.453125,1.140625,0.234375
748,1697635885,-0.23925781,0.95306396,-0.14971924,-1.609375,1.46875,0.03125
749,1697635925,-0.2397461,0.9594116,-0.15631104,-0.875,1.28125,0.140625
750,1697635965,-0.24658203,0.9525757,-0.14971924,-1.296875,1.46875,0.078125
751,1697636005,-0.2409668,0.95111084,-0.15924072,-1.203125,1.46875,0.03125
752,1697636045,-0.23828125,0.9562378,-0.15655518,-0.84375,1.40625,0.078125
753,1697636085,-0.24389648,0.95721436,-0.15802002,-1.171875,1.34375,0.0625
754,1697636125,-0.23779297,0.9545288,-0.159729,-1.15625,1.421875,0.015625
755,1697636165,-0.2475586,0.9537964,-0.16290283,-1.34375,1.40625,-0.109375
756,1697636205,-0.24072266,0.9598999,-0.1638794,-0.859375,1.203125,0.109375
757,1697636245,-0.23925781,0.95355225,-0.16168213,-0.96875,1.59375,0.265625
758,1697636285,-0.24072266,0.9591675,-0.16607666,0.078125,0.796875,-0.53125
759,1697636325,-0.24169922,0.9520874,-0.16412354,-1.203125,1.125,0.09375
