timestamp,accel_x,accel_y,accel_z,gyro_x,gyro_y,gyro_z,mag_x,mag_y,mag_z
1695909673845,-1.3671875,0.00390625,0.107421875,-116.125,-53.90625,-23.625,0.0,0.0,0.0
1695909673885,-1.4296875,-0.21875,0.734375,-45.9375,-113.5,-40.15625,0.0,0.0,0.0
1695909673925,-1.4130859,-0.55371094,-0.56152344,-94.78125,-78.6875,-83.25,0.0,0.0,0.0
1695909673965,-1.2490234,-0.31054688,0.07714844,-83.53125,-172.375,-82.75,0.0,0.0,0.0
1695909674005,-1.1025391,0.01953125,0.06347656,-19.03125,-103.125,-67.25,0.0,0.0,0.0
1695909674045,-0.9482422,-0.20898438,-0.3671875,89.875,-90.46875,-79.9375,0.0,0.0,0.0
1695909674085,-0.8046875,-0.30371094,0.25585938,111.28125,-136.375,-45.21875,0.0,0.0,0.0
1695909674125,-0.74316406,0.18652344,-0.0048828125,97.5,-121.3125,-32.15625,0.0,0.0,0.0
1695909674165,-0.5878906,-0.0048828125,0.21972656,58.5,-108.0,-42.21875,0.0,0.0,0.0
1695909674205,-0.55566406,-0.1015625,0.20507812,48.78125,-77.09375,-21.125,-4.1875,-0.6875,-15.5
1695909674245,-0.5107422,-0.07421875,0.14941406,41.21875,-31.15625,-11.28125,0.0,0.0,0.0
1695909674285,-0.37304688,-0.09375,0.44140625,36.59375,8.21875,-32.21875,0.0,0.0,0.0
1695909674325,-0.4501953,-0.44335938,0.54003906,-34.53125,38.5,-40.03125,0.0,0.0,0.0
1695909674365,-0.40039062,-0.34472656,0.15527344,-34.15625,108.75,12.5625,0.0,0.0,0.0
1695909674405,-1.7167969,-0.32910156,2.0263672,-25.125,24.21875,-22.28125,0.0,0.0,0.0
1695909674445,-1.7763672,0.3095703,0.7998047,48.1875,81.15625,52.3125,0.0,0.0,0.0
1695909674485,-0.6220703,-0.030273438,0.13964844,-49.90625,103.0625,8.125,0.0,0.0,0.0
1695909674525,-1.3837891,-0.4453125,0.14160156,-28.0,96.71875,40.65625,0.0,0.0,0.0
1695909674565,-1.1494141,-0.32128906,0.03515625,-13.84375,98.25,48.40625,0.0,0.0,0.0
1695909674605,-0.95996094,0.0048828125,0.14746094,-0.90625,85.84375,26.0,0.0,0.0,0.0
1695909674645,-0.8515625,-0.115234375,0.125,-63.28125,94.71875,39.6875,0.0,0.0,0.0
1695909674685,-1.0136719,-0.19140625,0.036132812,-10.0,76.875,39.3125,0.0,0.0,0.0
1695909674725,-0.9501953,-0.25585938,0.052734375,8.75,76.875,48.65625,-21.4375,1.8125,-33.1875
1695909674765,-0.95996094,-0.3125,0.07714844,101.40625,60.71875,49.375,0.0,0.0,0.0
1695909674805,-1.0117188,-0.064453125,0.17382812,54.03125,44.09375,3.46875,0.0,0.0,0.0
1695909674845,-1.03125,-0.07519531,0.018554688,-12.375,48.5625,-15.0,0.0,0.0,0.0
1695909674885,-0.9560547,-0.049804688,0.12890625,-25.875,46.0,-5.0,0.0,0.0,0.0
1695909674925,-1.1767578,-0.421875,0.03515625,-6.625,46.4375,27.71875,0.0,0.0,0.0
1695909674965,-1.1123047,-0.18847656,0.0087890625,-25.4375,52.21875,29.0625,0.0,0.0,0.0
1695909675005,-1.4511719,0.032226562,0.028320312,-40.9375,35.0625,23.0,0.0,0.0,0.0
1695909675045,-1.7539062,-0.0703125,-0.08691406,-93.0,-12.59375,13.0,0.0,0.0,0.0
1695909675085,-1.6132812,0.08886719,-0.17480469,-30.125,-71.375,-13.53125,0.0,0.0,0.0
1695909675125,-1.3857422,-0.025390625,0.52441406,37.96875,-90.46875,-19.96875,0.0,0.0,0.0
1695909675165,-1.390625,-0.18359375,0.87597656,-49.125,-174.65625,-41.375,0.0,0.0,0.0
1695909675205,-1.59375,-0.14648438,-1.0917969,-198.78125,-71.5,-97.78125,-24.4375,4.0625,-36.375
1695909675245,-0.8486328,0.17382812,0.17773438,29.1875,-177.28125,-43.28125,0.0,0.0,0.0
1695909675285,-1.1142578,-0.17675781,-0.16992188,11.4375,-95.40625,-95.5625,0.0,0.0,0.0
1695909675325,-0.9042969,-0.30078125,-0.078125,142.96875,-158.90625,-74.9375,0.0,0.0,0.0
1695909675365,-0.7529297,0.22851562,0.15820312,100.71875,-153.34375,-44.125,0.0,0.0,0.0
1695909675405,-0.45410156,0.15625,0.19433594,52.8125,-116.28125,-50.09375,0.0,0.0,0.0
1695909675445,-0.49121094,-0.060546875,0.20117188,32.6875,-86.875,-27.34375,0.0,0.0,0.0
1695909675485,-0.4638672,-0.10058594,0.18066406,51.71875,-38.65625,-2.0625,0.0,0.0,0.0
1695909675525,-0.28808594,-0.028320312,0.4423828,21.25,10.59375,-23.3125,0.0,0.0,0.0
1695909675565,-0.2998047,-0.43164062,0.5214844,-53.875,42.15625,-26.78125,0.0,0.0,0.0
1695909675605,-0.28710938,-0.35839844,0.119140625,-44.40625,138.46875,32.21875,0.0,0.0,0.0
1695909675645,-2.0410156,-0.24121094,2.0263672,-13.59375,40.03125,-23.6875,0.0,0.0,0.0
1695909675685,-1.4980469,-0.09375,0.64941406,35.78125,81.40625,37.96875,0.0,0.0,0.0
1695909675725,-0.35058594,0.02734375,0.27929688,-12.5625,95.625,-10.625,-10.1875,-2.9375,-20.625
1695909675765,-1.5576172,-0.32910156,0.018554688,-27.375,100.6875,50.78125,0.0,0.0,0.0
1695909675805,-1.1669922,-0.087890625,0.09082031,5.4375,96.90625,47.6875,0.0,0.0,0.0
1695909675845,-0.8984375,0.025390625,0.0859375,-49.3125,96.0625,28.03125,0.0,0.0,0.0
1695909675885,-0.92871094,-0.2705078,-0.07421875,-66.6875,94.9375,45.28125,0.0,0.0,0.0
1695909675925,-0.9892578,-0.36816406,-0.053710938,-7.5625,76.53125,46.21875,0.0,0.0,0.0
1695909675965,-0.85253906,-0.20410156,0.048828125,49.03125,71.34375,40.65625,0.0,0.0,0.0
1695909676005,-0.9238281,-0.0068359375,0.18066406,78.6875,64.125,34.1875,0.0,0.0,0.0
1695909676045,-1.0673828,-0.12109375,0.09863281,13.15625,63.5625,3.71875,0.0,0.0,0.0
1695909676085,-1.0449219,-0.17089844,0.055664062,-37.15625,58.8125,-19.15625,0.0,0.0,0.0
1695909676125,-1.0400391,-0.2763672,0.0068359375,-22.3125,39.15625,9.9375,0.0,0.0,0.0
1695909676165,-1.1074219,-0.44335938,0.10058594,1.125,46.0625,25.625,0.0,0.0,0.0
1695909676205,-1.3261719,-0.119140625,-0.051757812,-13.09375,43.5,24.25,-26.125,4.25,-46.25
1695909676245,-1.6015625,0.0107421875,-0.009765625,-16.9375,1.3125,17.40625,0.0,0.0,0.0
1695909676285,-1.4423828,0.034179688,0.033203125,-46.375,-11.3125,-0.96875,0.0,0.0,0.0
1695909676325,-1.4316406,-0.12792969,0.08496094,-43.25,-71.5,-12.4375,0.0,0.0,0.0
1695909676365,-1.4140625,-0.30273438,0.47265625,-11.09375,-111.96875,-40.09375,0.0,0.0,0.0
1695909676405,-1.4199219,-0.265625,-0.77441406,-145.90625,-54.90625,-57.4375,0.0,0.0,0.0
1695909676445,-1.6318359,-0.21679688,0.46679688,-2.3125,-223.53125,-68.125,0.0,0.0,0.0
1695909676485,-1.0273438,0.09667969,0.05078125,-34.28125,-128.4375,-59.75,0.0,0.0,0.0
1695909676525,-1.0664062,0.029296875,-0.18359375,98.96875,-158.90625,-69.5625,0.0,0.0,0.0
1695909676565,-0.953125,-0.14746094,0.15136719,86.125,-169.34375,-74.9375,0.0,0.0,0.0
1695909676605,-0.63183594,0.022460938,0.140625,87.96875,-135.65625,-54.75,0.0,0.0,0.0
1695909676645,-0.3701172,0.115234375,0.14257812,86.625,-110.1875,-33.5,0.0,0.0,0.0
1695909676685,-0.3828125,-0.11230469,0.20019531,37.90625,-73.09375,0.125,0.0,0.0,0.0
1695909676725,-0.29492188,-0.12109375,0.19238281,39.03125,-19.5625,12.5625,-1.0625,-2.5,-12.8125
1695909676765,-0.2548828,0.109375,0.5449219,-28.78125,15.1875,-3.59375,0.0,0.0,0.0
1695909676805,-0.17480469,-0.4326172,0.49902344,-36.78125,53.03125,6.28125,0.0,0.0,0.0
1695909676845,-0.6738281,-0.22070312,1.7753906,-97.09375,65.34375,27.59375,0.0,0.0,0.0
1695909676885,-2.0410156,-0.31445312,-1.0253906,-133.03125,111.625,62.25,0.0,0.0,0.0
1695909676925,-0.61816406,-0.2861328,0.08203125,-123.21875,81.28125,2.875,0.0,0.0,0.0
1695909676965,-1.4111328,-0.453125,0.087890625,-53.5625,97.6875,18.25,0.0,0.0,0.0
1695909677005,-1.2832031,-0.2998047,0.15039062,-40.8125,100.3125,57.5,0.0,0.0,0.0
1695909677045,-1.0263672,-0.21191406,0.09863281,-40.4375,102.75,19.90625,0.0,0.0,0.0
1695909677085,-0.92871094,-0.23828125,0.12695312,-56.875,95.75,30.34375,0.0,0.0,0.0
1695909677125,-1.0146484,-0.22851562,0.16796875,-58.40625,89.59375,32.46875,0.0,0.0,0.0
1695909677165,-1.0576172,-0.068359375,0.060546875,-5.15625,60.40625,46.5,0.0,0.0,0.0
1695909677205,-0.93652344,-0.043945312,-0.20214844,-28.3125,18.59375,-6.40625,0.0,0.0,0.0
1695909677245,-1.0644531,-0.23144531,-0.06933594,-45.5625,17.0625,4.59375,0.0,0.0,0.0
1695909677285,-1.1123047,-0.30078125,0.12890625,-54.375,-0.6875,-3.96875,0.0,0.0,0.0
1695909677325,-1.1152344,-0.32617188,0.0,-71.5,-21.625,-23.1875,0.0,0.0,0.0
1695909677365,-1.2734375,-0.23828125,0.13574219,-58.6875,-32.0625,-33.0625,0.0,0.0,0.0
1695909677405,-1.7441406,-0.16699219,0.51953125,-55.28125,-80.46875,-41.4375,0.0,0.0,0.0
1695909677445,-1.6386719,-0.07421875,0.6015625,-26.90625,-207.0625,-68.0625,0.0,0.0,0.0
1695909677485,-1.4775391,0.68359375,-0.37695312,-68.03125,-231.34375,-55.96875,0.0,0.0,0.0
1695909677525,-1.4638672,-0.31933594,-0.7236328,-144.875,-113.4375,-95.03125,0.0,0.0,0.0
1695909677565,-1.2871094,-0.7128906,0.33398438,18.21875,-157.84375,-88.8125,-26.875,-9.25,-57.9375
1695909677605,-0.97265625,-0.5185547,-0.17675781,104.4375,-170.5,-67.3125,0.0,0.0,0.0
1695909677645,-0.7529297,-0.27929688,0.17675781,154.75,-149.9375,-30.875,0.0,0.0,0.0
1695909677685,-0.7207031,0.21972656,0.21875,121.34375,-138.15625,-21.3125,0.0,0.0,0.0
1695909677725,-0.38378906,-0.068359375,0.41601562,55.8125,-113.0,-27.9375,0.0,0.0,0.0
1695909677765,-0.42382812,-0.4169922,0.4248047,27.65625,-87.1875,-38.09375,0.0,0.0,0.0
1695909677805,-0.18554688,-0.45703125,0.56933594,43.46875,-48.0625,-28.875,0.0,0.0,0.0
1695909677845,-0.10644531,-0.23339844,0.5263672,90.84375,-4.53125,1.65625,0.0,0.0,0.0
1695909677885,-0.2783203,0.07519531,0.51464844,49.75,35.8125,-10.0,0.0,0.0,0.0
1695909677925,-0.9267578,0.3544922,1.9550781,-60.90625,46.375,-13.3125,0.0,0.0,0.0
1695909677965,-1.2978516,-0.75,0.453125,23.59375,32.5625,-0.96875,0.0,0.0,0.0
1695909678005,-0.33203125,0.4814453,0.48632812,-107.03125,17.75,33.03125,0.0,0.0,0.0
1695909678045,-1.7011719,-0.38085938,0.38671875,-170.28125,106.375,26.90625,-17.25,-13.625,-23.0
1695909678085,-1.6308594,-0.5722656,0.30859375,-68.46875,108.125,41.03125,0.0,0.0,0.0
1695909678125,-0.8857422,0.00390625,0.20507812,-74.1875,106.59375,35.40625,0.0,0.0,0.0
1695909678165,-1.046875,-0.37695312,0.068359375,-99.71875,113.25,39.1875,0.0,0.0,0.0
1695909678205,-1.0888672,-0.37695312,-0.018554688,-83.0,131.6875,46.6875,0.0,0.0,0.0
1695909678245,-0.88378906,-0.34472656,-0.13085938,-98.625,114.65625,82.9375,0.0,0.0,0.0
1695909678285,-1.0947266,-0.40234375,0.15332031,48.0,91.65625,53.09375,0.0,0.0,0.0
1695909678325,-0.79589844,-0.17773438,0.20019531,38.09375,91.53125,45.90625,0.0,0.0,0.0
1695909678365,-0.99121094,-0.20605469,0.19335938,-14.15625,79.5,0.4375,0.0,0.0,0.0
1695909678405,-0.8925781,-0.1015625,0.18945312,-33.5,71.9375,-4.40625,0.0,0.0,0.0
1695909678445,-0.9951172,-0.29589844,0.08886719,-78.71875,66.9375,3.125,0.0,0.0,0.0
1695909678485,-1.1826172,-0.40527344,0.2421875,-44.125,42.53125,28.3125,0.0,0.0,0.0
1695909678525,-1.2490234,-0.26953125,0.099609375,-22.0,22.9375,24.1875,0.0,0.0,0.0
1695909678565,-1.4472656,-0.00390625,-0.10253906,-58.03125,0.21875,7.875,-30.0,-5.6875,-70.375
1695909678605,-1.5507812,-0.0859375,-0.23828125,-46.78125,-15.53125,2.03125,0.0,0.0,0.0
1695909678645,-1.6191406,-0.19335938,-0.043945312,34.0625,-10.34375,5.375,0.0,0.0,0.0
1695909678685,-1.4423828,-0.2421875,0.5234375,9.78125,-83.09375,-21.25,0.0,0.0,0.0
1695909678725,-1.5869141,-0.12890625,0.3203125,-32.9375,-159.03125,-50.09375,0.0,0.0,0.0
1695909678765,-1.6875,-0.515625,0.13378906,-92.5,-161.21875,-100.21875,0.0,0.0,0.0
1695909678805,-1.0009766,0.16796875,-0.15332031,-24.6875,-150.59375,-47.40625,0.0,0.0,0.0
1695909678845,-1.1591797,-0.09375,0.028320312,72.09375,-144.90625,-89.34375,0.0,0.0,0.0
1695909678885,-0.85546875,-0.42285156,-0.03125,129.78125,-167.375,-85.25,0.0,0.0,0.0
1695909678925,-0.72753906,0.12597656,-0.08300781,128.1875,-140.65625,-48.6875,0.0,0.0,0.0
1695909678965,-0.35351562,0.091796875,0.109375,87.0625,-107.8125,-44.84375,0.0,0.0,0.0
1695909679005,-0.41503906,-0.14257812,0.095703125,60.0625,-66.84375,-16.59375,0.0,0.0,0.0
1695909679045,-0.39746094,-0.17480469,0.111328125,67.34375,-10.15625,-5.6875,-12.875,-15.25,-26.3125
1695909679085,-0.20996094,-0.034179688,0.55078125,-0.28125,37.15625,-19.46875,0.0,0.0,0.0
1695909679125,-0.19824219,-0.61621094,0.4326172,-54.125,68.9375,-21.53125,0.0,0.0,0.0
1695909679165,-0.56347656,-0.18164062,0.6972656,-72.0625,106.59375,22.46875,0.0,0.0,0.0
1695909679205,-2.0410156,-0.7089844,-0.9863281,-154.71875,138.65625,-2.625,0.0,0.0,0.0
1695909679245,-0.7207031,-0.26757812,0.26171875,11.90625,75.65625,-12.5,0.0,0.0,0.0
1695909679285,-1.1425781,-0.21679688,0.31933594,-12.875,97.8125,33.875,0.0,0.0,0.0
1695909679325,-1.4365234,-0.3828125,0.060546875,-24.53125,96.59375,63.40625,0.0,0.0,0.0
1695909679365,-1.0234375,-0.20800781,0.0625,-29.9375,104.03125,40.21875,0.0,0.0,0.0
1695909679405,-0.9013672,-0.14257812,0.04296875,-60.65625,106.375,40.09375,0.0,0.0,0.0
1695909679445,-0.9658203,-0.25195312,-0.02734375,-66.875,84.625,58.96875,0.0,0.0,0.0
1695909679485,-0.8955078,-0.31933594,0.040039062,36.875,72.65625,52.25,0.0,0.0,0.0
1695909679525,-0.9238281,-0.29003906,-0.021484375,31.28125,75.90625,54.15625,0.0,0.0,0.0
1695909679565,-0.98339844,-0.34472656,0.06347656,134.78125,55.53125,35.34375,-26.875,-12.125,-58.25
1695909679605,-1.0576172,-0.2265625,-0.01171875,-11.28125,67.53125,-29.0625,0.0,0.0,0.0
1695909679645,-0.9277344,0.35058594,0.12109375,-4.625,70.78125,-31.625,0.0,0.0,0.0
1695909679685,-1.0117188,-0.328125,-0.15234375,-20.1875,22.75,18.3125,0.0,0.0,0.0
1695909679725,-1.0107422,-0.2421875,-0.0029296875,-36.46875,29.875,9.28125,0.0,0.0,0.0
1695909679765,-1.0751953,-0.38671875,-0.091796875,-29.21875,28.78125,21.4375,0.0,0.0,0.0
1695909679805,-1.0820312,-0.23925781,-0.10058594,-31.34375,24.8125,20.28125,0.0,0.0,0.0
1695909679845,-1.3945312,0.0068359375,-0.13574219,-48.5,22.8125,8.1875,0.0,0.0,0.0
1695909679885,-1.4072266,0.07714844,-0.33007812,-53.6875,10.28125,9.28125,0.0,0.0,0.0
1695909679925,-1.59375,0.034179688,-0.24609375,-31.53125,5.53125,23.75,0.0,0.0,0.0
1695909679965,-1.1787109,-0.016601562,-0.01953125,-21.71875,-25.46875,22.84375,0.0,0.0,0.0
1695909680005,-1.1640625,-0.26171875,-0.12011719,-91.09375,-80.09375,-4.9375,0.0,0.0,0.0
1695909680045,-1.1025391,-0.34960938,0.0,-33.3125,-79.78125,-56.21875,-26.25,-7.3125,-67.125
1695909680085,-1.0498047,-0.024414062,-0.09472656,-56.625,-95.25,-74.75,0.0,0.0,0.0
1695909680125,-1.234375,0.11816406,0.2265625,-40.8125,-175.0625,-62.125,0.0,0.0,0.0
1695909680165,-0.9970703,0.2607422,-0.41601562,-77.1875,-51.84375,-60.0,0.0,0.0,0.0
1695909680205,-0.859375,0.22265625,-0.12695312,57.5625,-108.0,-45.96875,0.0,0.0,0.0
1695909680245,-1.03125,-0.07324219,0.359375,-9.8125,-91.625,-36.1875,0.0,0.0,0.0
1695909680285,-0.9550781,-0.0625,-0.2705078,0.1875,-57.8125,-23.25,0.0,0.0,0.0
1695909680325,-0.63183594,0.16503906,-0.08886719,6.1875,-34.75,-5.375,0.0,0.0,0.0
1695909680365,-0.6904297,-0.028320312,-0.024414062,-33.96875,11.75,6.90625,0.0,0.0,0.0
1695909680405,-0.5908203,0.12011719,-0.080078125,-55.09375,43.75,35.65625,0.0,0.0,0.0
1695909680445,-0.5371094,0.28027344,-0.03125,-53.15625,61.9375,48.96875,0.0,0.0,0.0
1695909680485,-1.0439453,-0.1015625,0.0087890625,16.625,78.71875,19.96875,0.0,0.0,0.0
1695909680525,-1.5673828,-1.2314453,1.1191406,-101.59375,33.5625,-26.0625,0.0,0.0,0.0
1695909680565,-0.6425781,-1.0341797,-0.23730469,-97.46875,30.625,9.46875,-21.0,-12.125,-63.0625
1695909680605,-1.9160156,-0.28515625,0.109375,-82.0,-7.15625,33.28125,0.0,0.0,0.0
1695909680645,-1.0625,0.9013672,0.4267578,-14.5625,2.59375,-21.0625,0.0,0.0,0.0
1695909680685,-0.8388672,0.17773438,-0.50878906,-95.0625,18.71875,20.75,0.0,0.0,0.0
1695909680725,-1.0703125,-0.11621094,-0.3203125,-62.59375,35.625,27.03125,0.0,0.0,0.0
1695909680765,-1.1181641,-0.38476562,-0.27148438,-22.3125,47.40625,11.1875,0.0,0.0,0.0
1695909680805,-1.0273438,-0.10546875,-0.087890625,-49.40625,13.15625,-0.65625,0.0,0.0,0.0
1695909680845,-1.0488281,0.0390625,-0.18359375,-43.0625,23.34375,-8.40625,0.0,0.0,0.0
1695909680885,-1.078125,-0.037109375,-0.14550781,-93.5625,28.0625,-5.0,0.0,0.0,0.0
1695909680925,-1.0712891,-0.2734375,-0.22265625,-97.9375,2.84375,9.21875,0.0,0.0,0.0
1695909680965,-0.9863281,-0.32910156,-0.2734375,-64.5,-3.125,-1.8125,0.0,0.0,0.0
1695909681005,-1.0253906,-0.29589844,-0.0087890625,-73.84375,5.71875,-15.375,0.0,0.0,0.0
1695909681045,-1.0488281,-0.140625,0.16503906,-81.21875,-13.8125,-20.0625,-18.125,-0.6875,-79.6875
1695909681085,-1.0791016,-0.32226562,0.08105469,-94.84375,-31.5625,-21.71875,0.0,0.0,0.0
1695909681125,-1.1347656,-0.27734375,0.27246094,-51.96875,-60.25,-25.25,0.0,0.0,0.0
1695909681165,-1.3476562,-0.07421875,0.31054688,-61.75,-93.28125,-28.6875,0.0,0.0,0.0
1695909681205,-1.6835938,0.123046875,0.375,-112.84375,-146.3125,-38.9375,0.0,0.0,0.0
1695909681245,-1.2226562,-0.0068359375,-0.029296875,-164.40625,-141.75,-49.6875,0.0,0.0,0.0
1695909681285,-1.4296875,-0.5263672,-0.140625,-133.53125,-115.125,-73.90625,0.0,0.0,0.0
1695909681325,-1.3378906,-0.5527344,-0.19921875,108.0,-124.15625,-64.5625,0.0,0.0,0.0
1695909681365,-0.9199219,-0.4609375,0.40234375,68.1875,-167.25,-41.0,0.0,0.0,0.0
1695909681405,-0.9248047,-0.0078125,0.21191406,76.1875,-133.0625,-25.09375,0.0,0.0,0.0
1695909681445,-0.7705078,-0.22363281,0.24804688,86.5,-119.28125,-30.75,0.0,0.0,0.0
1695909681485,-0.6279297,-0.11816406,0.27148438,86.9375,-100.5,-10.875,0.0,0.0,0.0
1695909681525,-0.4873047,-0.07324219,0.32617188,56.53125,-69.90625,-11.21875,0.0,0.0,0.0
1695909681565,-0.3984375,-0.12402344,0.3935547,46.34375,-35.375,-11.90625,-22.5,-2.5,-39.375
1695909681605,-0.39453125,-0.31054688,0.5527344,9.96875,9.9375,-16.28125,0.0,0.0,0.0
1695909681645,-0.36035156,-0.33398438,0.56640625,-3.34375,37.15625,-7.0625,0.0,0.0,0.0
1695909681685,-0.31835938,-0.3642578,0.29296875,-37.9375,93.125,1.78125,0.0,0.0,0.0
1695909681725,-1.1328125,0.11328125,2.0263672,-54.1875,8.09375,0.3125,0.0,0.0,0.0
1695909681765,-1.4355469,-0.31054688,-0.24121094,-107.90625,155.375,42.4375,0.0,0.0,0.0
1695909681805,-0.36328125,-0.13476562,0.16113281,-101.46875,60.09375,17.875,0.0,0.0,0.0
1695909681845,-1.3496094,-0.4794922,0.05859375,-71.75,98.5625,21.5625,0.0,0.0,0.0
1695909681885,-1.3466797,-0.46484375,0.15332031,-18.09375,90.875,49.5625,0.0,0.0,0.0
1695909681925,-0.96777344,-0.046875,0.11425781,-41.84375,99.78125,20.9375,0.0,0.0,0.0
1695909681965,-0.9707031,-0.18554688,0.09082031,-51.9375,88.84375,33.4375,0.0,0.0,0.0
1695909682005,-1.0117188,-0.28710938,0.036132812,-73.59375,95.375,39.0,0.0,0.0,0.0
1695909682045,-0.96875,-0.3017578,-0.08496094,-32.75,61.625,49.3125,-24.4375,4.5625,-68.75
1695909682085,-0.8984375,-0.27539062,-0.041015625,4.09375,82.125,41.15625,0.0,0.0,0.0
1695909682125,-0.9433594,-0.22070312,0.13574219,70.28125,66.875,42.65625,0.0,0.0,0.0
1695909682165,-1.0664062,-0.24511719,0.11035156,28.03125,56.1875,7.9375,0.0,0.0,0.0
1695909682205,-0.91308594,-0.06933594,0.021484375,-57.46875,66.75,-19.59375,0.0,0.0,0.0
1695909682245,-1.015625,0.08300781,0.083984375,-34.84375,36.96875,-0.375,0.0,0.0,0.0
1695909682285,-1.0927734,-0.44433594,0.08105469,-39.65625,19.09375,29.125,0.0,0.0,0.0
1695909682325,-1.1230469,-0.3515625,0.060546875,-44.0625,16.53125,8.65625,0.0,0.0,0.0
1695909682365,-1.2675781,-0.13671875,-0.10546875,-59.90625,29.46875,16.90625,0.0,0.0,0.0
1695909682405,-1.5849609,0.08886719,-0.17285156,-59.0625,4.625,10.5625,0.0,0.0,0.0
1695909682445,-1.4775391,-0.0068359375,0.04296875,-12.6875,-17.28125,5.75,0.0,0.0,0.0
1695909682485,-1.3496094,-0.31054688,0.034179688,-32.28125,-54.65625,16.71875,0.0,0.0,0.0
1695909682525,-1.3066406,-0.45117188,0.24121094,-65.46875,-66.5,-16.90625,0.0,0.0,0.0
1695909682565,-1.2900391,-0.17871094,-0.095703125,-65.90625,-99.625,-45.09375,-21.4375,15.625,-76.25
1695909682605,-1.5410156,-0.65722656,0.33496094,-78.65625,-165.125,-120.34375,0.0,0.0,0.0
1695909682645,-1.2333984,0.29003906,-0.099609375,9.125,-153.90625,-47.0625,0.0,0.0,0.0
1695909682685,-1.0986328,0.15917969,-0.24707031,19.4375,-109.34375,-78.3125,0.0,0.0,0.0
1695909682725,-1.1855469,-0.37597656,0.2421875,61.46875,-190.375,-104.96875,0.0,0.0,0.0
1695909682765,-0.9667969,-0.16113281,0.015625,85.03125,-146.1875,-68.28125,0.0,0.0,0.0
1695909682805,-0.4111328,0.13671875,0.080078125,115.8125,-124.59375,-53.875,0.0,0.0,0.0
1695909682845,-0.2548828,0.06933594,0.23535156,87.25,-80.65625,-19.40625,0.0,0.0,0.0
1695909682885,-0.42773438,-0.25097656,0.12695312,53.125,-38.40625,3.46875,0.0,0.0,0.0
1695909682925,-0.14355469,-0.19628906,0.21875,55.4375,19.5625,-5.125,0.0,0.0,0.0
1695909682965,-0.19238281,-0.44140625,0.4736328,-24.03125,55.46875,-27.46875,0.0,0.0,0.0
1695909683005,-0.21582031,-0.17480469,0.17871094,-23.65625,126.25,12.875,0.0,0.0,0.0
1695909683045,-2.0410156,-1.0,1.2910156,-43.75,22.1875,-31.625,-23.25,2.5625,-44.4375
1695909683085,-1.3173828,0.09277344,0.8232422,78.5,46.375,11.28125,0.0,0.0,0.0
1695909683125,-0.91308594,-0.02734375,0.17285156,-37.875,83.0625,11.96875,0.0,0.0,0.0
1695909683165,-1.6259766,-0.5595703,0.171875,-22.0,81.53125,43.59375,0.0,0.0,0.0
1695909683205,-1.1083984,-0.27929688,0.12792969,-4.1875,81.53125,35.59375,0.0,0.0,0.0
1695909683245,-0.96875,-0.11035156,0.20019531,-34.21875,87.0,23.0625,0.0,0.0,0.0
1695909683285,-0.94628906,-0.28222656,0.10449219,-57.65625,98.90625,38.6875,0.0,0.0,0.0
1695909683325,-1.0341797,-0.40527344,-0.10253906,-81.9375,99.53125,54.09375,0.0,0.0,0.0
1695909683365,-0.90234375,-0.31347656,0.013671875,15.9375,78.65625,49.375,0.0,0.0,0.0
1695909683405,-0.8808594,-0.24414062,0.09863281,83.6875,65.46875,53.15625,0.0,0.0,0.0
1695909683445,-0.96777344,-0.30371094,0.1328125,74.90625,76.40625,33.34375,0.0,0.0,0.0
1695909683485,-1.0371094,-0.25878906,0.051757812,5.375,64.0625,-9.21875,0.0,0.0,0.0
1695909683525,-0.875,0.13769531,0.107421875,-20.25,59.90625,-12.5,0.0,0.0,0.0
1695909683565,-1.0439453,-0.19140625,0.060546875,-46.25,44.28125,15.375,-22.1875,10.375,-76.25
1695909683605,-1.1064453,-0.5175781,0.017578125,-1.15625,43.125,33.9375,0.0,0.0,0.0
1695909683645,-1.0849609,-0.2265625,-0.10058594,-38.5,51.375,25.53125,0.0,0.0,0.0
1695909683685,-1.40625,-0.09667969,-0.028320312,-17.5625,27.6875,25.75,0.0,0.0,0.0
1695909683725,-1.8662109,-0.16894531,-0.20996094,-77.9375,-22.0625,3.375,0.0,0.0,0.0
1695909683765,-1.5546875,0.07714844,0.025390625,7.46875,-35.3125,4.65625,0.0,0.0,0.0
1695909683805,-1.2119141,-0.26367188,0.33007812,0.9375,-71.5,-10.875,0.0,0.0,0.0
1695909683845,-1.3203125,-0.36816406,0.44140625,-8.03125,-150.34375,-69.09375,0.0,0.0,0.0
1695909683885,-1.5556641,-0.36132812,-0.7236328,-118.28125,-21.6875,-107.0,0.0,0.0,0.0
1695909683925,-1.09375,0.22363281,0.25585938,15.03125,-244.34375,-57.25,0.0,0.0,0.0
1695909683965,-1.0498047,-0.08691406,0.11425781,-27.3125,-115.4375,-95.6875,0.0,0.0,0.0
1695909684005,-0.9628906,-0.3310547,-0.25390625,92.5625,-139.59375,-90.03125,0.0,0.0,0.0
1695909684045,-0.9248047,-0.16796875,0.107421875,168.0625,-174.59375,-62.375,-25.5,6.9375,-53.625
1695909684085,-0.48242188,0.19628906,0.20507812,90.90625,-125.09375,-59.6875,0.0,0.0,0.0
1695909684125,-0.41308594,-0.038085938,0.16308594,53.4375,-79.0,-46.125,0.0,0.0,0.0
1695909684165,-0.4248047,-0.171875,0.21875,40.71875,-42.875,-18.625,0.0,0.0,0.0
1695909684205,-0.32128906,-0.18359375,0.25390625,65.8125,10.15625,10.75,0.0,0.0,0.0
1695909684245,-0.14746094,0.08496094,0.63964844,-1.4375,69.1875,-7.125,0.0,0.0,0.0
1695909684285,-0.23046875,-0.3701172,1.2783203,-109.125,118.5625,-25.5625,0.0,0.0,0.0
1695909684325,-1.5322266,-1.21875,0.5732422,-154.71875,83.0,3.71875,0.0,0.0,0.0
1695909684365,-1.5019531,-0.10253906,0.15820312,50.1875,74.5625,47.78125,0.0,0.0,0.0
1695909684405,-1.0068359,-0.11621094,0.29492188,-11.09375,75.84375,30.03125,0.0,0.0,0.0
1695909684445,-1.3330078,-0.3203125,0.072265625,-71.625,102.09375,64.46875,0.0,0.0,0.0
1695909684485,-1.125,-0.55371094,0.016601562,-50.09375,114.40625,33.6875,0.0,0.0,0.0
1695909684525,-0.98828125,-0.3203125,0.11425781,-27.09375,101.3125,30.875,0.0,0.0,0.0
1695909684565,-0.85839844,-0.041992188,0.107421875,-55.65625,96.09375,52.875,-20.6875,7.8125,-63.0625
1695909684605,-0.96972656,-0.1953125,0.044921875,-10.25,70.78125,56.71875,0.0,0.0,0.0
1695909684645,-0.9121094,-0.1796875,-0.0107421875,7.21875,72.5625,52.375,0.0,0.0,0.0
1695909684685,-0.9765625,-0.32421875,0.045898438,80.15625,56.0625,53.78125,0.0,0.0,0.0
1695909684725,-0.98339844,-0.29882812,0.0107421875,74.59375,61.625,9.15625,0.0,0.0,0.0
1695909684765,-0.9472656,0.0009765625,0.053710938,-35.0,68.9375,-19.90625,0.0,0.0,0.0
1695909684805,-1.0068359,0.18261719,0.087890625,-26.71875,53.375,-0.65625,0.0,0.0,0.0
1695909684845,-1.0058594,-0.51953125,-0.025390625,-32.5625,36.59375,28.9375,0.0,0.0,0.0
1695909684885,-1.1279297,-0.4560547,0.06933594,-54.125,41.78125,23.3125,0.0,0.0,0.0
1695909684925,-1.4130859,0.0078125,-0.21582031,-68.65625,18.40625,15.375,0.0,0.0,0.0
1695909684965,-1.6962891,-0.1015625,-0.08984375,0.3125,17.6875,-14.71875,0.0,0.0,0.0
1695909685005,-1.4462891,-0.01953125,0.048828125,32.0,-35.0,-13.71875,0.0,0.0,0.0
1695909685045,-1.3212891,0.049804688,0.1328125,-27.5,-77.34375,-19.71875,-15.125,17.3125,-76.375
1695909685085,-1.3486328,-0.20507812,0.15332031,-56.0625,-126.1875,-41.375,0.0,0.0,0.0
1695909685125,-1.2177734,-0.37304688,-0.6591797,-59.5625,-86.75,-48.59375,0.0,0.0,0.0
1695909685165,-1.6640625,-0.55859375,0.5527344,-63.875,-198.15625,-122.90625,0.0,0.0,0.0
1695909685205,-0.9667969,0.14648438,-0.051757812,20.40625,-129.46875,-62.5,0.0,0.0,0.0
1695909685245,-0.9355469,-0.13183594,-0.08984375,48.78125,-141.625,-73.0625,0.0,0.0,0.0
1695909685285,-0.9980469,-0.38378906,0.0048828125,77.71875,-150.09375,-75.25,0.0,0.0,0.0
1695909685325,-0.6845703,0.07910156,0.091796875,87.78125,-129.15625,-60.53125,0.0,0.0,0.0
1695909685365,-0.6044922,-0.10253906,0.22167969,88.9375,-99.6875,-52.84375,0.0,0.0,0.0
1695909685405,-0.5234375,-0.0107421875,0.23046875,66.90625,-65.8125,-37.84375,0.0,0.0,0.0
1695909685445,-0.48535156,-0.0068359375,0.15917969,76.375,-21.5,-29.96875,0.0,0.0,0.0
1695909685485,-0.41992188,-0.3388672,0.4091797,37.375,17.125,-8.84375,0.0,0.0,0.0
1695909685525,-0.36328125,-0.125,0.5566406,-25.1875,48.0,-7.125,0.0,0.0,0.0
1695909685565,-0.4375,-0.38964844,0.515625,-60.78125,101.40625,22.34375,-19.375,3.1875,-44.9375
1695909685605,-1.53125,-0.5341797,1.9453125,-31.59375,71.21875,8.65625,0.0,0.0,0.0
1695909685645,-1.9277344,0.0234375,0.32910156,-7.25,78.96875,64.9375,0.0,0.0,0.0
1695909685685,-0.42382812,-0.13769531,0.20507812,-50.6875,87.125,9.9375,0.0,0.0,0.0
1695909685725,-1.3066406,-0.38183594,0.13085938,-46.5,97.4375,36.4375,0.0,0.0,0.0
1695909685765,-1.2871094,-0.33984375,0.06542969,-33.0,92.625,43.40625,0.0,0.0,0.0
1695909685805,-0.984375,-0.2265625,0.13867188,-24.875,80.84375,22.71875,0.0,0.0,0.0
1695909685845,-0.9824219,-0.3330078,-0.15429688,-98.125,14.1875,10.8125,0.0,0.0,0.0
1695909685885,-1.1035156,-0.19042969,-0.0546875,-101.59375,12.6875,5.25,0.0,0.0,0.0
1695909685925,-1.0517578,-0.2109375,-0.11035156,-114.0625,2.96875,16.375,0.0,0.0,0.0
1695909685965,-1.0888672,-0.31933594,-0.0703125,-133.96875,-10.34375,15.125,0.0,0.0,0.0
1695909686005,-1.5253906,-0.24707031,0.07421875,-146.03125,-31.75,-17.34375,0.0,0.0,0.0
1695909686045,-1.3193359,0.20898438,0.38671875,-147.9375,-101.875,-38.75,0.0,0.0,0.0
1695909686085,-1.0449219,0.26171875,-0.22949219,-178.09375,-140.84375,-29.0,0.0,0.0,0.0
1695909686125,-1.2373047,0.06542969,-0.5576172,-185.46875,-90.40625,-36.25,0.0,0.0,0.0
1695909686165,-1.2363281,-0.19238281,-0.016601562,-216.0,-46.34375,-63.28125,0.0,0.0,0.0
1695909686205,-1.0097656,-0.16601562,0.052734375,-81.15625,-60.25,-54.25,-21.4375,26.5625,-49.6875
1695909686245,-1.0986328,-0.28808594,-0.16308594,-38.0625,-69.40625,-66.78125,0.0,0.0,0.0
1695909686285,-1.1640625,-0.12011719,0.37890625,37.625,-116.21875,-35.6875,0.0,0.0,0.0
1695909686325,-0.95703125,0.25683594,0.45898438,-46.1875,-92.71875,-30.03125,0.0,0.0,0.0
1695909686365,-1.0390625,-0.4091797,0.2578125,-111.5625,-64.0625,-58.40625,0.0,0.0,0.0
1695909686405,-1.0224609,-0.8378906,0.32617188,3.0625,-107.9375,-48.8125,0.0,0.0,0.0
1695909686445,-0.88183594,-0.57421875,0.3486328,102.1875,-113.0,-18.78125,0.0,0.0,0.0
1695909686485,-0.7285156,-0.107421875,0.43652344,107.875,-101.09375,-9.46875,0.0,0.0,0.0
1695909686525,-0.73535156,-0.171875,0.5136719,41.09375,-79.5625,-4.03125,0.0,0.0,0.0
1695909686565,-0.68066406,-0.25,0.49804688,44.75,-71.0,-16.46875,0.0,0.0,0.0
1695909686605,-0.50683594,-0.296875,0.46875,45.0,-59.34375,-6.59375,0.0,0.0,0.0
1695909686645,-0.4501953,-0.22167969,0.50097656,47.03125,-42.0625,-11.21875,0.0,0.0,0.0
1695909686685,-0.26367188,-0.095703125,0.5107422,32.5625,-8.03125,-9.625,0.0,0.0,0.0
1695909686725,-0.3076172,-0.21484375,0.6347656,16.8125,38.375,-11.65625,-12.625,24.0625,-25.6875
1695909686765,-0.38671875,-0.171875,0.8417969,-90.5,110.5,5.0625,0.0,0.0,0.0
1695909686805,-2.0410156,-0.5566406,1.8017578,49.46875,24.21875,14.28125,0.0,0.0,0.0
1695909686845,-0.81152344,0.5722656,0.67871094,60.75,59.78125,37.71875,0.0,0.0,0.0
1695909686885,-1.4257812,-0.107421875,0.23242188,-80.5,119.84375,23.0625,0.0,0.0,0.0
1695909686925,-1.4375,-0.6455078,0.17773438,-53.9375,96.53125,53.53125,0.0,0.0,0.0
1695909686965,-0.89160156,-0.234375,0.10058594,-37.9375,116.0625,29.65625,0.0,0.0,0.0
1695909687005,-1.0380859,-0.18164062,0.109375,-43.4375,114.65625,27.65625,0.0,0.0,0.0
1695909687045,-0.88378906,-0.119140625,0.115234375,-44.46875,92.8125,51.28125,0.0,0.0,0.0
1695909687085,-0.7597656,-0.20507812,0.013671875,-97.875,81.53125,60.96875,0.0,0.0,0.0
1695909687125,-1.1650391,-0.36621094,-0.030273438,1.125,47.9375,53.84375,0.0,0.0,0.0
1695909687165,-0.9707031,-0.3984375,0.10058594,61.46875,51.96875,43.46875,0.0,0.0,0.0
1695909687205,-0.9560547,-0.20214844,0.0146484375,65.09375,55.59375,10.0625,-23.25,28.0625,-48.6875
1695909687245,-1.0917969,-0.10449219,0.041015625,4.15625,52.78125,-10.0,0.0,0.0,0.0
1695909687285,-1.0263672,0.0703125,0.026367188,-1.15625,48.875,-14.875,0.0,0.0,0.0
1695909687325,-1.0498047,-0.005859375,0.018554688,-52.46875,28.84375,-0.5,0.0,0.0,0.0
1695909687365,-0.95996094,-0.23925781,0.05859375,-31.71875,21.53125,11.21875,0.0,0.0,0.0
1695909687405,-1.1513672,-0.38964844,0.0048828125,-47.59375,24.28125,17.9375,0.0,0.0,0.0
1695909687445,-1.2939453,-0.123046875,-0.0234375,-42.28125,40.1875,19.28125,0.0,0.0,0.0
1695909687485,-1.5214844,-0.1171875,-0.12597656,-69.75,10.71875,18.25,0.0,0.0,0.0
1695909687525,-1.4394531,-0.06542969,-0.1484375,-21.21875,-7.53125,7.15625,0.0,0.0,0.0
1695909687565,-1.3173828,-0.060546875,0.01953125,35.3125,-43.0625,9.21875,0.0,0.0,0.0
1695909687605,-1.4404297,-0.20898438,0.21875,8.9375,-70.75,-17.8125,0.0,0.0,0.0
1695909687645,-1.25,-0.07324219,0.3017578,-7.125,-142.21875,-38.03125,0.0,0.0,0.0
1695909687685,-1.328125,-0.36816406,-0.3232422,-143.0625,-72.15625,-100.875,0.0,0.0,0.0
1695909687725,-1.0019531,0.06640625,0.16796875,-2.3125,-157.84375,-54.625,-21.625,26.4375,-45.6875
1695909687765,-1.0488281,-0.24804688,0.057617188,0.1875,-106.46875,-84.03125,0.0,0.0,0.0
1695909687805,-0.9189453,-0.12109375,-0.13769531,68.0625,-136.125,-61.6875,0.0,0.0,0.0
1695909687845,-0.9628906,-0.24902344,0.15527344,80.59375,-156.40625,-67.9375,0.0,0.0,0.0
1695909687885,-0.6201172,0.057617188,0.11816406,106.15625,-130.09375,-57.90625,0.0,0.0,0.0
1695909687925,-0.51660156,0.046875,0.18847656,80.09375,-96.8125,-44.375,0.0,0.0,0.0
1695909687965,-0.5703125,-0.06640625,0.18164062,69.84375,-64.0,-21.71875,0.0,0.0,0.0
1695909688005,-0.3857422,-0.23144531,0.22460938,33.59375,-13.4375,-8.0625,0.0,0.0,0.0
1695909688045,-0.28027344,-0.28125,0.3876953,38.71875,41.59375,-21.0625,0.0,0.0,0.0
1695909688085,-0.2529297,-0.42089844,0.49023438,-88.1875,99.21875,-22.40625,0.0,0.0,0.0
1695909688125,-1.2382812,-0.52246094,0.84277344,13.5625,89.9375,4.8125,0.0,0.0,0.0
1695909688165,-2.0410156,-0.23339844,-0.0068359375,13.8125,69.625,54.6875,0.0,0.0,0.0
1695909688205,-0.4970703,-0.0078125,0.31445312,-38.625,82.3125,-0.90625,-19.5,19.0625,-31.5625
1695909688245,-1.3222656,-0.48339844,0.12695312,-51.8125,101.90625,33.5625,0.0,0.0,0.0
1695909688285,-1.1728516,-0.35546875,0.13085938,-40.375,97.4375,37.25,0.0,0.0,0.0
1695909688325,-1.1533203,-0.32617188,0.07421875,-31.96875,91.65625,23.4375,0.0,0.0,0.0
1695909688365,-0.91796875,-0.07421875,0.14257812,-10.96875,88.78125,44.9375,0.0,0.0,0.0
1695909688405,-0.8964844,-0.056640625,0.030273438,-43.25,93.375,43.9375,0.0,0.0,0.0
1695909688445,-1.0849609,-0.24902344,-0.013671875,-22.5,64.3125,41.15625,0.0,0.0,0.0
1695909688485,-0.9404297,-0.29101562,-0.0146484375,12.03125,59.25,50.1875,0.0,0.0,0.0
1695909688525,-0.9873047,-0.42871094,-0.036132812,75.9375,46.625,55.5,0.0,0.0,0.0
1695909688565,-1.046875,-0.5263672,-0.016601562,90.96875,58.28125,10.25,0.0,0.0,0.0
1695909688605,-0.94433594,-0.0107421875,-0.06640625,-47.90625,75.53125,-45.15625,0.0,0.0,0.0
1695909688645,-0.8515625,0.3544922,0.09277344,11.875,61.375,-7.0625,0.0,0.0,0.0
1695909688685,-0.9765625,-0.296875,-0.046875,0.5,24.15625,13.90625,0.0,0.0,0.0
1695909688725,-1.0371094,-0.3154297,0.11425781,-17.125,13.15625,9.59375,-27.3125,26.4375,-59.1875
1695909688765,-1.0400391,-0.28808594,-0.13183594,-36.0625,8.09375,3.53125,0.0,0.0,0.0
1695909688805,-1.0947266,-0.15332031,-0.076171875,-15.4375,12.5,12.53125,0.0,0.0,0.0
1695909688845,-1.2841797,0.047851562,-0.041992188,-33.6875,16.65625,7.28125,0.0,0.0,0.0
1695909688885,-1.546875,-0.0859375,-0.35839844,-79.75,-1.84375,21.71875,0.0,0.0,0.0
1695909688925,-1.4091797,-0.046875,-0.4482422,-34.34375,9.8125,15.6875,0.0,0.0,0.0
1695909688965,-1.4394531,-0.20703125,-0.06933594,-1.8125,13.03125,29.25,0.0,0.0,0.0
1695909689005,-0.953125,-0.13769531,-0.06347656,-59.4375,-10.875,11.65625,0.0,0.0,0.0
1695909689045,-1.2353516,-0.20898438,-0.115234375,-109.34375,-51.21875,-31.0625,0.0,0.0,0.0
1695909689085,-1.3632812,-0.06933594,0.3359375,-17.125,-73.375,-80.5625,0.0,0.0,0.0
1695909689125,-1.0048828,0.3798828,-0.2265625,-96.21875,-131.90625,-46.25,0.0,0.0,0.0
1695909689165,-1.2285156,0.28710938,0.20214844,-70.21875,-139.3125,-27.34375,0.0,0.0,0.0
1695909689205,-0.8642578,0.48632812,-0.4638672,-145.0625,-71.75,-36.96875,-24.875,23.3125,-41.9375
1695909689245,-0.85058594,-0.20898438,-0.23242188,-11.40625,-106.53125,-22.09375,0.0,0.0,0.0
1695909689285,-1.0400391,-0.13183594,-0.036132812,-26.90625,-96.53125,-12.625,0.0,0.0,0.0
1695909689325,-1.0458984,-0.32617188,0.3330078,86.5,-100.25,-24.65625,0.0,0.0,0.0
1695909689365,-0.9238281,-0.091796875,0.43066406,87.71875,-102.1875,-25.5625,-8.125,-0.125,-20.9375
1695909689405,-0.7480469,-0.049804688,0.42871094,74.3125,-89.5,-22.21875,0.0,0.0,0.0
1695909689445,-0.6191406,0.0146484375,0.40625,41.9375,-68.5,-9.75,0.0,0.0,0.0
1695909689485,-0.5126953,-0.19726562,0.37597656,24.6875,-39.8125,-4.09375,0.0,0.0,0.0
1695909689525,-0.30664062,-0.28222656,0.40625,40.53125,-4.125,-5.25,0.0,0.0,0.0
1695909689565,-0.20800781,-0.3017578,0.6230469,-5.15625,48.5,-12.75,0.0,0.0,0.0
1695909689605,-0.9189453,0.0625,0.703125,-15.375,14.03125,29.375,0.0,0.0,0.0
1695909689645,-1.1962891,-0.36328125,0.4091797,-29.53125,79.1875,11.0625,0.0,0.0,0.0
1695909689685,-0.7890625,0.14746094,0.4794922,-62.96875,74.625,12.03125,0.0,0.0,0.0
1695909689725,-1.5302734,-0.5107422,0.2705078,-80.375,96.59375,22.65625,0.0,0.0,0.0
1695909689765,-1.3447266,-0.5253906,0.24902344,-8.96875,97.09375,39.625,0.0,0.0,0.0
1695909689805,-0.98339844,-0.12988281,0.11230469,-14.8125,107.59375,29.0625,0.0,0.0,0.0
1695909689845,-0.9951172,-0.16699219,0.12988281,-43.0625,115.40625,28.09375,-15.625,1.6875,-24.6875
1695909689885,-0.8769531,-0.12890625,0.14160156,-74.6875,111.5,43.46875,0.0,0.0,0.0
1695909689925,-0.96972656,-0.2998047,0.0146484375,-31.71875,81.65625,45.59375,0.0,0.0,0.0
1695909689965,-0.9042969,-0.32910156,0.0390625,16.4375,75.25,51.625,0.0,0.0,0.0
1695909690005,-0.8730469,-0.24804688,0.21191406,83.625,65.28125,31.75,0.0,0.0,0.0
1695909690045,-1.0908203,-0.29589844,0.08105469,18.4375,44.09375,-6.34375,0.0,0.0,0.0
1695909690085,-0.9511719,0.021484375,0.08203125,-40.875,52.15625,-29.28125,0.0,0.0,0.0
1695909690125,-1.0224609,-0.03125,0.1328125,-30.25,48.9375,7.15625,0.0,0.0,0.0
1695909690165,-1.0556641,-0.45703125,0.1171875,-14.5,26.59375,26.0,0.0,0.0,0.0
1695909690205,-1.046875,-0.27148438,0.061523438,-24.875,25.75,22.90625,0.0,0.0,0.0
1695909690245,-1.2548828,-0.18457031,-0.06738281,-35.3125,17.6875,28.625,0.0,0.0,0.0
1695909690285,-1.3339844,-0.06640625,-0.17382812,-62.96875,7.375,17.8125,0.0,0.0,0.0
1695909690325,-1.6943359,-0.30273438,-0.27148438,-39.15625,-15.65625,26.375,0.0,0.0,0.0
1695909690365,-1.4755859,0.18457031,-0.072265625,-32.15625,-24.625,3.375,-26.375,7.0625,-44.9375
1695909690405,-1.2539062,-0.20996094,0.234375,19.0625,-41.78125,0.84375,0.0,0.0,0.0
1695909690445,-1.3847656,-0.34277344,0.4716797,24.96875,-95.84375,-50.84375,0.0,0.0,0.0
1695909690485,-1.2783203,0.12988281,-0.5878906,-116.5,-68.625,-51.625,0.0,0.0,0.0
1695909690525,-1.4453125,0.17285156,0.5800781,-48.03125,-239.21875,-60.375,0.0,0.0,0.0
1695909690565,-1.0576172,-0.21484375,-0.099609375,-91.65625,-92.84375,-95.09375,0.0,0.0,0.0
1695909690605,-0.9423828,-0.3232422,-0.3310547,92.71875,-123.0625,-85.3125,0.0,0.0,0.0
1695909690645,-0.91796875,-0.35546875,0.23339844,119.90625,-170.4375,-55.40625,0.0,0.0,0.0
1695909690685,-0.63378906,0.16894531,0.087890625,97.4375,-131.1875,-54.0625,0.0,0.0,0.0
1695909690725,-0.3623047,-0.0087890625,0.1796875,78.4375,-94.875,-49.1875,0.0,0.0,0.0
1695909690765,-0.484375,-0.024414062,0.2421875,56.21875,-54.53125,-16.65625,0.0,0.0,0.0
1695909690805,-0.36523438,-0.12207031,0.29003906,40.1875,-2.28125,-17.9375,0.0,0.0,0.0
1695909690845,-0.33984375,-0.18457031,0.4326172,-8.59375,39.21875,-33.4375,0.125,3.0625,-13.6875
1695909690885,-0.24414062,-0.42285156,0.47851562,-7.625,77.875,-14.78125,0.0,0.0,0.0
1695909690925,-0.81347656,-0.049804688,0.21972656,-72.84375,62.0,11.65625,0.0,0.0,0.0
1695909690965,-2.0410156,-0.7128906,0.08300781,-77.96875,129.625,-6.84375,0.0,0.0,0.0
1695909691005,-0.8095703,-0.09472656,0.51660156,24.8125,83.46875,-9.8125,0.0,0.0,0.0
1695909691045,-1.1699219,-0.203125,0.11425781,-16.65625,97.5625,32.15625,0.0,0.0,0.0
1695909691085,-1.3613281,-0.17382812,0.09082031,-38.875,98.1875,51.625,0.0,0.0,0.0
1695909691125,-1.0810547,-0.2626953,0.041015625,-60.84375,96.46875,33.34375,0.0,0.0,0.0
1695909691165,-0.8925781,-0.21679688,0.09082031,-65.34375,82.1875,40.78125,0.0,0.0,0.0
1695909691205,-0.9003906,-0.2841797,0.0126953125,-63.34375,71.09375,55.125,0.0,0.0,0.0
1695909691245,-0.8330078,-0.23535156,0.029296875,30.53125,54.65625,43.21875,0.0,0.0,0.0
1695909691285,-0.9169922,-0.2861328,-0.0107421875,-9.3125,68.875,35.84375,0.0,0.0,0.0
1695909691325,-1.03125,-0.4873047,0.03125,62.34375,61.8125,24.53125,-24.625,5.3125,-37.25
1695909691365,-1.0371094,-0.03515625,0.13476562,66.0625,49.59375,4.875,0.0,0.0,0.0
1695909691405,-1.1005859,-0.053710938,0.040039062,1.25,42.59375,-7.6875,0.0,0.0,0.0
1695909691445,-0.8964844,-0.041015625,-0.026367188,-30.625,50.21875,-13.84375,0.0,0.0,0.0
1695909691485,-0.94628906,-0.43359375,-0.059570312,-14.1875,28.65625,18.8125,0.0,0.0,0.0
1695909691525,-1.0732422,-0.41308594,0.036132812,-24.875,47.78125,17.03125,0.0,0.0,0.0
1695909691565,-1.2861328,-0.20410156,-0.055664062,-59.125,31.65625,17.71875,0.0,0.0,0.0
1695909691605,-1.4375,0.009765625,-0.11035156,-64.5,4.6875,-4.03125,0.0,0.0,0.0
1695909691645,-1.7705078,-0.0029296875,-0.24414062,-50.34375,-17.90625,0.5,0.0,0.0,0.0
1695909691685,-1.4638672,-0.055664062,0.08691406,27.0,-52.6875,6.0,0.0,0.0,0.0
1695909691725,-1.3505859,-0.125,0.39648438,7.53125,-110.75,-8.71875,0.0,0.0,0.0
1695909691765,-1.4013672,-0.25976562,0.6582031,-43.6875,-155.28125,-36.5,0.0,0.0,0.0
1695909691805,-1.3310547,-0.48242188,-0.8203125,-163.125,-105.5,-113.78125,0.0,0.0,0.0
1695909691845,-1.0673828,-0.12695312,0.009765625,53.59375,-176.46875,-58.84375,-21.625,-0.125,-33.9375
1695909691885,-1.1035156,-0.08886719,0.17675781,65.3125,-152.78125,-66.71875,0.0,0.0,0.0
1695909691925,-0.83496094,-0.07519531,-0.07519531,105.125,-129.0625,-65.375,0.0,0.0,0.0
1695909691965,-0.88378906,0.08105469,0.14257812,87.0625,-145.15625,-59.6875,0.0,0.0,0.0
1695909692005,-0.59472656,-0.005859375,0.16894531,55.0,-107.125,-53.59375,0.0,0.0,0.0
1695909692045,-0.4111328,0.0009765625,0.23925781,47.03125,-72.34375,-33.375,0.0,0.0,0.0
1695909692085,-0.4609375,-0.15917969,0.19433594,29.25,-33.96875,-7.375,0.0,0.0,0.0
1695909692125,-0.35546875,-0.26660156,0.1953125,44.28125,17.75,-3.96875,0.0,0.0,0.0
1695909692165,-0.31933594,-0.1484375,0.4873047,-15.96875,57.46875,-20.625,0.0,0.0,0.0
1695909692205,-0.5371094,-0.62109375,0.75683594,-53.5625,34.84375,-18.5,0.0,0.0,0.0
1695909692245,-1.1982422,0.1484375,1.0605469,-70.96875,71.5625,18.9375,0.0,0.0,0.0
1695909692285,-1.7080078,-0.25,0.35351562,-3.71875,61.875,35.71875,0.0,0.0,0.0
1695909692325,-1.0263672,-0.09472656,0.26660156,-25.4375,64.125,50.65625,0.0,0.0,0.0
1695909692365,-1.1738281,-0.46191406,0.123046875,-39.28125,70.34375,44.8125,-6.625,2.0,-19.125
1695909692405,-1.3115234,-0.3359375,0.04296875,-41.125,87.5,31.9375,0.0,0.0,0.0
1695909692445,-1.0214844,-0.24316406,0.13867188,-33.71875,92.09375,26.6875,0.0,0.0,0.0
1695909692485,-0.8984375,-0.11230469,0.11035156,-36.1875,97.625,50.125,0.0,0.0,0.0
1695909692525,-0.9980469,-0.30371094,-0.045898438,-11.28125,84.875,61.59375,0.0,0.0,0.0
1695909692565,-0.91503906,-0.32128906,0.080078125,6.625,76.9375,56.03125,0.0,0.0,0.0
1695909692605,-0.8457031,-0.33203125,0.099609375,20.53125,68.40625,31.4375,0.0,0.0,0.0
1695909692645,-0.8925781,-0.44726562,0.14453125,75.34375,58.5,2.9375,0.0,0.0,0.0
1695909692685,-0.9765625,-0.18652344,0.057617188,-0.40625,71.09375,-38.9375,0.0,0.0,0.0
1695909692725,-1.0283203,0.2578125,0.1640625,7.21875,67.65625,-14.53125,0.0,0.0,0.0
1695909692765,-1.0341797,-0.24316406,0.1640625,-19.09375,46.4375,20.6875,0.0,0.0,0.0
1695909692805,-1.0517578,-0.29882812,0.17773438,-11.875,27.3125,16.0625,0.0,0.0,0.0
1695909692845,-1.1826172,-0.2607422,0.09863281,-12.1875,17.8125,19.84375,-25.5,5.125,-40.875
1695909692885,-1.0537109,-0.23144531,0.10644531,-6.6875,21.03125,3.71875,0.0,0.0,0.0
1695909692925,-1.3271484,-0.15429688,-0.07128906,-55.40625,0.84375,15.1875,0.0,0.0,0.0
1695909692965,-1.7382812,-0.28710938,-0.27734375,-9.625,-14.84375,16.59375,0.0,0.0,0.0
1695909693005,-1.5683594,0.095703125,-0.15527344,-1.625,-26.03125,-11.15625,0.0,0.0,0.0
1695909693045,-1.3349609,-0.060546875,0.3388672,32.25,-66.65625,-2.8125,0.0,0.0,0.0
1695909693085,-1.3720703,-0.08886719,0.3388672,5.75,-103.34375,-10.25,0.0,0.0,0.0
1695909693125,-1.2441406,-0.3154297,-0.4111328,-172.28125,-90.53125,-56.15625,0.0,0.0,0.0
1695909693165,-1.3730469,-0.30078125,0.18457031,-20.78125,-172.6875,-73.0,0.0,0.0,0.0
1695909693205,-1.0703125,-0.24511719,0.1171875,44.6875,-136.9375,-54.625,0.0,0.0,0.0
1695909693245,-0.9248047,-0.1328125,-0.015625,57.6875,-129.0,-58.84375,0.0,0.0,0.0
1695909693285,-0.75390625,-0.17089844,0.022460938,48.0,-131.90625,-58.59375,0.0,0.0,0.0
1695909693325,-0.8535156,-0.14941406,0.099609375,85.96875,-137.03125,-52.375,0.0,0.0,0.0
1695909693365,-0.5830078,-0.049804688,0.18261719,83.09375,-102.375,-50.59375,-3.4375,2.3125,-18.8125
1695909693405,-0.5253906,0.017578125,0.20703125,56.21875,-71.0625,-41.4375,0.0,0.0,0.0
1695909693445,-0.5605469,-0.091796875,0.2265625,39.21875,-38.03125,-26.1875,0.0,0.0,0.0
1695909693485,-0.4345703,-0.265625,0.3046875,36.9375,13.03125,-33.1875,0.0,0.0,0.0
1695909693525,-0.31835938,-0.19335938,0.5830078,-1.1875,55.75,-34.40625,0.0,0.0,0.0
1695909693565,-0.18652344,-0.6152344,0.39648438,-67.3125,107.78125,-14.40625,0.0,0.0,0.0
1695909693605,-1.0595703,-0.9199219,0.7783203,-15.375,51.4375,-1.875,0.0,0.0,0.0
1695909693645,-2.0410156,-0.036132812,0.30273438,29.75,110.03125,57.875,0.0,0.0,0.0
1695909693685,-0.23242188,0.0546875,0.16601562,-31.0625,91.15625,-20.5,0.0,0.0,0.0
1695909693725,-1.5107422,-0.4248047,0.18652344,-39.71875,98.90625,38.03125,0.0,0.0,0.0
1695909693765,-1.2832031,-0.2734375,0.12109375,-28.0,100.3125,35.09375,0.0,0.0,0.0
1695909693805,-1.0166016,-0.2548828,0.07128906,-33.3125,94.09375,19.40625,0.0,0.0,0.0
1695909693845,-0.8955078,-0.08203125,0.11230469,-45.5625,95.0,42.84375,-15.3125,4.25,-28.6875
1695909693885,-0.9638672,-0.24609375,0.02734375,-27.5,93.4375,37.46875,0.0,0.0,0.0
1695909693925,-0.94433594,-0.18066406,0.08203125,3.875,83.0625,34.5,0.0,0.0,0.0
1695909693965,-0.8798828,-0.119140625,0.08300781,-3.59375,76.8125,45.96875,0.0,0.0,0.0
1695909694005,-0.98828125,-0.30664062,0.041992188,39.15625,49.28125,46.625,0.0,0.0,0.0
1695909694045,-1.0820312,-0.44335938,0.06347656,40.0625,47.40625,20.21875,0.0,0.0,0.0
1695909694085,-1.0009766,-0.23730469,0.032226562,0.25,65.65625,-14.78125,0.0,0.0,0.0
1695909694125,-1.0351562,0.056640625,0.06933594,-31.21875,33.5,5.5,0.0,0.0,0.0
1695909694165,-1.0556641,-0.24609375,0.021484375,-11.03125,7.96875,12.9375,0.0,0.0,0.0
1695909694205,-1.0205078,-0.37695312,0.0107421875,-7.90625,19.5625,18.8125,0.0,0.0,0.0
1695909694245,-1.109375,-0.19726562,-0.17675781,-23.34375,24.15625,19.53125,0.0,0.0,0.0
1695909694285,-1.3984375,-0.01171875,-0.18164062,-60.40625,21.28125,21.4375,0.0,0.0,0.0
1695909694325,-1.7236328,-0.08105469,-0.032226562,-34.53125,3.65625,15.625,0.0,0.0,0.0
1695909694365,-1.5458984,0.045898438,-0.15332031,-18.0,-37.375,5.75,-26.5625,9.5,-46.6875
1695909694405,-1.3417969,-0.08203125,0.20800781,-13.96875,-63.4375,-3.28125,0.0,0.0,0.0
1695909694445,-1.3847656,-0.27441406,0.34179688,-23.59375,-107.6875,-33.625,0.0,0.0,0.0
1695909694485,-1.1103516,-0.123046875,-0.7548828,-134.125,-75.21875,-36.8125,0.0,0.0,0.0
1695909694525,-1.4970703,-0.48046875,0.71875,-49.53125,-213.15625,-93.0,0.0,0.0,0.0
1695909694565,-1.0771484,0.08496094,-0.051757812,18.4375,-135.6875,-47.84375,0.0,0.0,0.0
1695909694605,-0.97265625,0.0859375,-0.12402344,37.6875,-135.875,-61.875,0.0,0.0,0.0
1695909694645,-1.0205078,-0.0546875,0.28808594,63.75,-179.90625,-68.0625,0.0,0.0,0.0
1695909694685,-0.8671875,-0.15917969,0.15527344,79.5,-141.75,-66.40625,0.0,0.0,0.0
1695909694725,-0.4921875,0.0546875,0.17285156,74.96875,-115.6875,-40.21875,0.0,0.0,0.0
1695909694765,-0.5498047,-0.061523438,0.27441406,38.40625,-90.59375,-22.03125,0.0,0.0,0.0
1695909694805,-0.5292969,-0.22363281,0.2548828,38.71875,-61.53125,-5.84375,0.0,0.0,0.0
1695909694845,-0.4169922,-0.16796875,0.2890625,54.84375,-27.65625,-8.53125,4.5,3.3125,-12.6875
1695909694885,-0.59765625,-0.3486328,1.1494141,-25.75,20.59375,-7.375,0.0,0.0,0.0
1695909694925,-1.3115234,-0.072265625,0.7841797,8.75,31.78125,2.9375,0.0,0.0,0.0
1695909694965,-0.38183594,0.55859375,1.2695312,50.5,82.0,-10.96875,0.0,0.0,0.0
1695909695005,-1.2949219,0.051757812,0.32617188,-57.46875,73.03125,31.875,0.0,0.0,0.0
1695909695045,-1.4394531,-0.40429688,0.36328125,-83.71875,90.1875,60.0,-1.0625,-12.125,-29.0
1695909695085,-1.0380859,-0.20019531,0.2861328,-76.03125,103.0625,35.65625,0.0,0.0,0.0
1695909695125,-1.1015625,-0.39257812,0.14160156,-75.125,118.21875,32.40625,0.0,0.0,0.0
1695909695165,-1.1611328,-0.29101562,0.10546875,-74.8125,116.9375,33.21875,0.0,0.0,0.0
1695909695205,-0.95996094,-0.2841797,0.068359375,-68.53125,100.4375,33.03125,0.0,0.0,0.0
1695909695245,-0.8183594,-0.17089844,-0.00390625,-90.125,89.6875,59.5625,0.0,0.0,0.0
1695909695285,-1.0625,-0.28515625,-0.09082031,-68.65625,73.15625,75.1875,0.0,0.0,0.0
1695909695325,-0.96484375,-0.33496094,-0.018554688,15.03125,51.375,63.40625,0.0,0.0,0.0
1695909695365,-0.9941406,-0.328125,0.13964844,53.375,49.40625,26.8125,0.0,0.0,0.0
1695909695405,-1.0283203,-0.15527344,0.1171875,14.0,58.6875,-10.0,0.0,0.0,0.0
1695909695445,-0.93652344,0.026367188,0.02734375,-9.0,60.46875,-21.59375,0.0,0.0,0.0
1695909695485,-1.0009766,-0.13476562,0.19042969,-25.0625,53.1875,-4.5,0.0,0.0,0.0
1695909695525,-1.0703125,-0.30664062,0.07714844,-47.15625,34.71875,12.53125,0.0,0.0,0.0
1695909695565,-1.0966797,-0.2919922,0.123046875,-45.8125,36.1875,21.375,-16.5,-6.6875,-60.375
1695909695605,-1.2890625,-0.064453125,0.12207031,-46.6875,13.34375,12.5625,0.0,0.0,0.0
1695909695645,-1.4726562,-0.021484375,-0.203125,-72.25,-9.0625,-4.9375,0.0,0.0,0.0
1695909695685,-1.5644531,-0.19433594,-0.27148438,-11.46875,-17.96875,18.9375,0.0,0.0,0.0
1695909695725,-1.3261719,-0.16113281,0.1171875,17.21875,0.71875,9.46875,0.0,0.0,0.0
1695909695765,-1.4335938,-0.296875,0.24023438,22.84375,-52.9375,-14.875,0.0,0.0,0.0
1695909695805,-1.3769531,-0.09765625,0.39648438,9.40625,-131.6875,-45.40625,0.0,0.0,0.0
1695909695845,-1.6191406,-0.3828125,-0.20996094,-122.125,-128.625,-98.15625,0.0,0.0,0.0
1695909695885,-1.0029297,0.13476562,0.038085938,-55.09375,-161.03125,-63.46875,0.0,0.0,0.0
1695909695925,-0.8935547,-0.0390625,-0.16503906,30.78125,-113.4375,-84.84375,0.0,0.0,0.0
1695909695965,-1.1787109,-0.33789062,-0.020507812,106.46875,-171.90625,-96.125,0.0,0.0,0.0
1695909696005,-0.8095703,-0.030273438,0.11816406,94.5,-161.09375,-52.90625,0.0,0.0,0.0
1695909696045,-0.53515625,0.051757812,0.12207031,73.75,-122.21875,-65.1875,-7.1875,-14.5,-41.75
1695909696085,-0.39648438,-0.23535156,0.12011719,56.71875,-89.5,-34.65625,0.0,0.0,0.0
1695909696125,-0.34277344,-0.15234375,0.18847656,64.90625,-38.21875,-11.53125,0.0,0.0,0.0
1695909696165,-0.18359375,-0.20214844,0.2763672,51.03125,20.1875,-11.09375,0.0,0.0,0.0
1695909696205,-0.03515625,-0.08984375,0.3955078,-20.375,82.6875,-17.875,0.0,0.0,0.0
1695909696245,-0.52734375,-0.30371094,1.8291016,-91.90625,65.96875,-4.75,0.0,0.0,0.0
1695909696285,-2.0410156,-0.3359375,-0.044921875,-94.53125,137.25,52.75,0.0,0.0,0.0
1695909696325,-0.4873047,-0.09082031,0.23339844,-70.53125,75.65625,16.96875,0.0,0.0,0.0
1695909696365,-1.4472656,-0.43164062,0.2919922,-17.1875,94.53125,16.3125,0.0,0.0,0.0
1695909696405,-1.2753906,-0.203125,0.15527344,-34.65625,99.78125,61.78125,0.0,0.0,0.0
1695909696445,-1.0869141,-0.37402344,0.11230469,-56.5,105.3125,30.34375,0.0,0.0,0.0
1695909696485,-1.0546875,-0.40234375,0.06933594,-46.71875,103.4375,52.25,0.0,0.0,0.0
1695909696525,-0.9199219,-0.22460938,0.10253906,-14.6875,101.25,58.90625,0.0,0.0,0.0
1695909696565,-1.0,-0.15136719,-0.045898438,-14.75,82.3125,64.75,-13.8125,-8.375,-57.0625
1695909696605,-0.8779297,-0.09765625,0.0126953125,48.84375,79.875,46.9375,0.0,0.0,0.0
1695909696645,-0.99902344,-0.020507812,0.2578125,83.40625,-193.875,-63.40625,0.0,0.0,0.0
1695909696685,-0.7158203,0.05859375,0.21289062,70.6875,-147.3125,-65.71875,0.0,0.0,0.0
1695909696725,-0.4609375,-0.033203125,0.103515625,57.34375,-108.90625,-44.25,0.0,0.0,0.0
1695909696765,-0.4013672,-0.01171875,0.22167969,68.125,-62.65625,-22.6875,0.0,0.0,0.0
1695909696805,-0.41210938,-0.35253906,0.12695312,29.8125,-20.40625,-8.25,0.0,0.0,0.0
1695909696845,-0.2529297,-0.20507812,0.37304688,28.34375,18.34375,-7.125,0.0,0.0,0.0
1695909696885,-0.29003906,-0.22363281,0.2783203,-11.09375,52.90625,-12.6875,0.0,0.0,0.0
1695909696925,-0.8496094,-0.44921875,0.58496094,-18.0625,75.28125,-7.375,0.0,0.0,0.0
1695909696965,-1.96875,-0.91308594,0.0107421875,-24.34375,99.40625,7.21875,0.0,0.0,0.0
1695909697005,-0.7529297,0.00390625,0.7607422,-1.5,69.3125,17.9375,0.0,0.0,0.0
1695909697045,-1.3554688,-0.27929688,0.20019531,-25.375,85.90625,26.96875,0.0,0.0,0.0
1695909697085,-1.3417969,-0.30371094,0.123046875,-31.0625,80.3125,47.96875,0.0,0.0,0.0
1695909697125,-1.0683594,-0.38867188,0.10644531,-39.15625,86.34375,20.28125,-22.375,7.25,-53.625
1695909697165,-0.9765625,-0.3203125,0.15625,-35.4375,97.03125,26.90625,0.0,0.0,0.0
1695909697205,-0.9169922,-0.20410156,0.083984375,-65.71875,108.4375,51.75,0.0,0.0,0.0
1695909697245,-1.0253906,-0.32617188,-0.107421875,-51.3125,85.84375,68.59375,0.0,0.0,0.0
1695909697285,-0.91308594,-0.3203125,0.07421875,30.59375,73.59375,52.0625,0.0,0.0,0.0
1695909697325,-0.8544922,-0.15234375,0.20605469,106.71875,73.90625,58.84375,0.0,0.0,0.0
1695909697365,-1.0019531,-0.22851562,0.10839844,31.875,62.53125,19.03125,0.0,0.0,0.0
1695909697405,-1.0488281,-0.13964844,0.11816406,-6.375,51.3125,-14.34375,0.0,0.0,0.0
1695909697445,-0.8876953,0.20019531,0.045898438,-24.40625,51.90625,-8.25,0.0,0.0,0.0
1695909697485,-1.0410156,-0.40234375,0.14257812,1.78125,30.6875,37.46875,0.0,0.0,0.0
1695909697525,-1.1142578,-0.33398438,0.1015625,-26.96875,20.71875,20.6875,0.0,0.0,0.0
1695909697565,-1.2265625,-0.14453125,-0.018554688,-29.15625,-8.8125,10.1875,0.0,0.0,0.0
1695909697605,-1.1845703,0.049804688,-0.16308594,-76.15625,0.84375,9.03125,-14.375,16.25,-75.9375
1695909697645,-1.6230469,-0.12792969,-0.296875,-71.28125,-16.5,18.875,0.0,0.0,0.0
1695909697685,-1.4355469,0.1484375,-0.19628906,-38.0625,5.03125,6.84375,0.0,0.0,0.0
1695909697725,-1.296875,-0.13574219,0.26367188,15.28125,-20.96875,3.90625,0.0,0.0,0.0
1695909697765,-1.3466797,-0.26464844,0.44433594,36.8125,-79.6875,-37.78125,0.0,0.0,0.0
1695909697805,-1.3144531,-0.038085938,0.02734375,-52.28125,-112.21875,-28.8125,0.0,0.0,0.0
1695909697845,-1.6708984,-0.4189453,0.25976562,-125.21875,-164.28125,-99.46875,0.0,0.0,0.0
1695909697885,-1.0556641,0.08496094,-0.10253906,-53.4375,-110.96875,-65.125,0.0,0.0,0.0
1695909697925,-1.1171875,-0.46484375,-0.20800781,11.875,-114.40625,-101.5625,0.0,0.0,0.0
1695909697965,-1.1347656,-0.1875,0.07910156,148.75,-228.15625,-60.46875,0.0,0.0,0.0
1695909698005,-0.8876953,0.39160156,0.28710938,113.46875,-152.0625,-79.28125,0.0,0.0,0.0
1695909698045,-0.47265625,0.030273438,0.12597656,55.9375,-110.75,-77.375,0.0,0.0,0.0
1695909698085,-0.34765625,-0.16699219,0.16796875,33.96875,-77.78125,-51.6875,0.0,0.0,0.0
1695909698125,-0.45117188,-0.14257812,0.17480469,55.25,-42.0,-22.34375,-19.375,4.25,-40.6875
1695909698165,-0.17675781,-0.22070312,0.29101562,50.3125,9.9375,-21.71875,0.0,0.0,0.0
1695909698205,-0.28222656,-0.19628906,0.6923828,-14.6875,50.03125,-26.53125,0.0,0.0,0.0
1695909698245,-0.1796875,-0.23828125,0.09667969,-52.09375,127.40625,1.15625,0.0,0.0,0.0
1695909698285,-1.8388672,-0.91015625,2.0,-22.0625,65.09375,-23.6875,0.0,0.0,0.0
1695909698325,-1.8271484,-0.3876953,0.6220703,56.78125,69.3125,52.0625,0.0,0.0,0.0
1695909698365,-0.44921875,0.33496094,0.11816406,-22.625,76.625,19.96875,0.0,0.0,0.0
1695909698405,-1.3867188,-0.36328125,0.13867188,-78.28125,94.40625,51.6875,0.0,0.0,0.0
1695909698445,-1.1669922,-0.50683594,0.041015625,-43.3125,86.15625,44.1875,0.0,0.0,0.0
1695909698485,-1.1083984,-0.484375,0.078125,-52.53125,94.8125,25.6875,0.0,0.0,0.0
1695909698525,-0.9140625,-0.17382812,0.15917969,-22.125,91.28125,44.25,0.0,0.0,0.0
1695909698565,-0.9404297,-0.12109375,0.044921875,-57.46875,86.84375,47.3125,0.0,0.0,0.0
1695909698605,-0.9472656,-0.1484375,-0.017578125,-19.03125,73.65625,49.75,-23.375,10.0625,-66.375
1695909698645,-0.96777344,-0.24414062,-0.07519531,19.5,76.28125,46.375,0.0,0.0,0.0
1695909698685,-0.9892578,-0.31054688,0.06640625,108.71875,60.65625,60.25,0.0,0.0,0.0
1695909698725,-0.9892578,-0.119140625,0.0068359375,80.34375,66.375,26.5625,0.0,0.0,0.0
1695909698765,-0.9716797,-0.19042969,-0.076171875,-38.5625,68.21875,-6.03125,0.0,0.0,0.0
1695909698805,-0.8730469,0.18847656,0.0078125,-9.875,74.75,-1.15625,0.0,0.0,0.0
1695909698845,-1.0576172,-0.3544922,0.0126953125,-5.34375,43.0625,36.5625,0.0,0.0,0.0
1695909698885,-1.3886719,-0.5263672,0.36035156,-5.0625,21.28125,21.96875,0.0,0.0,0.0
1695909698925,-1.1894531,-0.24902344,0.09277344,-20.375,-22.375,7.75,0.0,0.0,0.0
1695909698965,-1.4511719,-0.026367188,-0.4140625,-95.5625,-31.03125,-6.96875,0.0,0.0,0.0
1695909699005,-1.7958984,0.16113281,-0.33984375,-67.0,-2.65625,-6.71875,0.0,0.0,0.0
1695909699045,-1.4619141,0.072265625,0.15527344,-6.21875,-55.6875,4.03125,0.0,0.0,0.0
1695909699085,-1.2832031,-0.28125,0.33203125,1.125,-106.96875,-38.09375,0.0,0.0,0.0
1695909699125,-1.4003906,-0.11621094,0.45117188,-15.4375,-161.65625,-36.75,-20.6875,17.125,-72.375
1695909699165,-1.5361328,-0.5625,0.17480469,-118.9375,-143.5,-108.625,0.0,0.0,0.0
1695909699205,-0.84472656,0.21679688,-0.0068359375,-19.09375,-135.59375,-49.9375,0.0,0.0,0.0
1695909699245,-1.1044922,-0.19433594,0.020507812,33.59375,-126.1875,-105.40625,0.0,0.0,0.0
1695909699285,-1.0107422,-0.35839844,0.07519531,96.625,-159.3125,-80.1875,0.0,0.0,0.0
1695909699325,-0.7480469,0.08886719,0.078125,107.0,-139.90625,-52.0,0.0,0.0,0.0
1695909699365,-0.50097656,-0.0078125,0.25683594,69.40625,-113.84375,-48.8125,0.0,0.0,0.0
1695909699405,-0.4814453,-0.0546875,0.20117188,59.65625,-84.375,-29.125,0.0,0.0,0.0
1695909699445,-0.45214844,-0.12402344,0.203125,57.625,-45.5625,-12.15625,0.0,0.0,0.0
1695909699485,-0.30273438,-0.18652344,0.34179688,49.34375,4.5625,-20.625,0.0,0.0,0.0
1695909699525,-0.2578125,-0.26660156,0.6542969,-44.0625,41.125,-24.96875,0.0,0.0,0.0
1695909699565,-0.21777344,-0.5654297,0.21484375,-34.09375,94.03125,3.84375,0.0,0.0,0.0
1695909699605,-1.4785156,-0.78125,1.2626953,-68.875,74.3125,-8.1875,-21.4375,3.9375,-42.5
1695909699645,-1.5195312,-0.35058594,0.07324219,-22.5,85.0625,52.0,0.0,0.0,0.0
1695909699685,-0.49316406,-0.048828125,0.28515625,-46.1875,96.0625,-7.6875,0.0,0.0,0.0
1695909699725,-1.4326172,-0.32617188,0.18847656,-12.5,104.21875,27.59375,0.0,0.0,0.0
1695909699765,-1.2109375,-0.087890625,0.17578125,-5.34375,106.59375,43.09375,0.0,0.0,0.0
1695909699805,-1.1513672,-0.16699219,0.0546875,-23.65625,106.375,30.71875,0.0,0.0,0.0
1695909699845,-0.95703125,-0.1171875,0.07714844,-37.34375,100.5625,47.3125,0.0,0.0,0.0
1695909699885,-0.9316406,-0.18554688,-0.043945312,-67.0625,103.6875,51.34375,0.0,0.0,0.0
1695909699925,-1.0292969,-0.31152344,0.06933594,10.34375,72.25,44.1875,0.0,0.0,0.0
1695909699965,-0.9042969,-0.20703125,0.076171875,39.21875,60.84375,60.0625,0.0,0.0,0.0
1695909700005,-0.9316406,-0.35742188,0.05078125,84.625,51.8125,45.28125,0.0,0.0,0.0
1695909700045,-1.0761719,-0.21777344,0.119140625,-2.78125,59.0625,-10.75,0.0,0.0,0.0
1695909700085,-0.95214844,0.09082031,-0.040039062,-49.3125,64.75,-21.1875,0.0,0.0,0.0
1695909700125,-0.9394531,-0.032226562,0.06738281,-33.71875,42.8125,20.8125,-19.0625,14.4375,-75.9375
1695909700165,-1.1181641,-0.4716797,0.103515625,-32.6875,21.34375,33.28125,0.0,0.0,0.0
1695909700205,-1.1914062,-0.31152344,-0.053710938,-44.28125,14.875,25.03125,0.0,0.0,0.0
1695909700245,-1.4277344,-0.12890625,-0.16210938,-38.125,8.65625,0.8125,0.0,0.0,0.0
1695909700285,-1.7158203,-0.08984375,-0.1640625,-56.4375,-1.3125,-4.625,0.0,0.0,0.0
1695909700325,-1.4648438,0.12890625,0.109375,-20.71875,-38.34375,-14.15625,0.0,0.0,0.0
1695909700365,-1.3251953,-0.07519531,0.4326172,11.875,-102.4375,-28.4375,0.0,0.0,0.0
1695909700405,-1.3779297,-0.1640625,0.3876953,-26.71875,-162.875,-26.0,0.0,0.0,0.0
1695909700445,-1.4443359,-0.67871094,-0.625,-148.46875,-31.09375,-106.1875,0.0,0.0,0.0
1695909700485,-1.0263672,-0.068359375,0.28710938,1.78125,-176.96875,-67.75,0.0,0.0,0.0
1695909700525,-1.0683594,0.044921875,-0.11230469,30.46875,-107.6875,-73.25,0.0,0.0,0.0
1695909700565,-0.98828125,-0.099609375,0.09667969,80.53125,-145.40625,-74.9375,0.0,0.0,0.0
1695909700605,-0.75683594,-0.1171875,0.20410156,62.34375,-143.03125,-60.65625,-27.4375,11.4375,-54.5
1695909700645,-0.6279297,0.001953125,0.15722656,77.46875,-105.125,-57.3125,0.0,0.0,0.0
1695909700685,-0.6640625,-0.13769531,0.2763672,61.46875,-84.3125,-54.4375,0.0,0.0,0.0
1695909700725,-0.46972656,-0.13085938,0.28808594,35.0,-62.28125,-29.125,0.0,0.0,0.0
1695909700765,-0.34765625,-0.2685547,0.12988281,37.875,-21.09375,-22.625,0.0,0.0,0.0
1695909700805,-0.23925781,-0.24902344,0.47460938,35.3125,12.125,-18.5,0.0,0.0,0.0
1695909700845,-0.44140625,-0.29589844,0.5234375,-26.34375,37.875,-28.375,0.0,0.0,0.0
1695909700885,-0.4267578,-0.42773438,0.359375,-17.375,82.25,-3.53125,0.0,0.0,0.0
1695909700925,-1.3271484,-1.1708984,1.5527344,-59.0625,64.0,-35.03125,0.0,0.0,0.0
1695909700965,-1.0634766,-0.076171875,0.4560547,-9.75,72.5625,52.5625,0.0,0.0,0.0
1695909701005,-0.81933594,0.11230469,0.0068359375,-94.09375,98.78125,13.84375,0.0,0.0,0.0
1695909701045,-1.5263672,-0.41992188,0.24511719,-39.65625,100.6875,35.78125,0.0,0.0,0.0
1695909701085,-1.1767578,-0.15234375,0.087890625,-18.78125,94.03125,44.375,0.0,0.0,0.0
1695909701125,-1.0791016,-0.21484375,0.029296875,-38.875,99.90625,48.34375,-27.875,5.3125,-56.1875
1695909701165,-1.0175781,-0.234375,0.12988281,-50.28125,98.96875,50.53125,0.0,0.0,0.0
1695909701205,-0.92578125,-0.18164062,0.047851562,-91.40625,101.125,64.59375,0.0,0.0,0.0
1695909701245,-0.9140625,-0.30273438,0.07519531,-0.03125,72.25,50.34375,0.0,0.0,0.0
1695909701285,-0.8486328,-0.27148438,0.033203125,41.65625,65.03125,67.15625,0.0,0.0,0.0
1695909701325,-1.0126953,-0.22265625,0.11621094,75.40625,57.34375,41.15625,0.0,0.0,0.0
1695909701365,-1.1425781,-0.36132812,0.06933594,18.03125,40.3125,-2.5625,0.0,0.0,0.0
1695909701405,-0.92089844,0.14746094,0.09667969,-41.3125,49.125,-45.59375,0.0,0.0,0.0
1695909701445,-1.0029297,0.013671875,-0.01171875,-39.78125,21.40625,6.90625,0.0,0.0,0.0
1695909701485,-0.8876953,-0.4921875,-0.10546875,-22.0,18.84375,9.59375,0.0,0.0,0.0
1695909701525,-1.0410156,-0.26464844,-0.024414062,-6.875,28.0,9.28125,0.0,0.0,0.0
1695909701565,-1.0351562,-0.16894531,-0.0087890625,-24.9375,23.65625,14.28125,0.0,0.0,0.0
1695909701605,-1.2314453,0.0107421875,-0.048828125,-26.84375,24.875,17.09375,-19.8125,16.8125,-77.0
1695909701645,-1.3847656,0.099609375,-0.17675781,-74.375,28.3125,15.75,0.0,0.0,0.0
1695909701685,-1.5791016,-0.28222656,-0.28515625,-24.9375,25.25,34.1875,0.0,0.0,0.0
1695909701725,-1.4335938,-0.04296875,0.017578125,-13.71875,9.75,17.53125,0.0,0.0,0.0
1695909701765,-1.2226562,-0.13769531,0.17480469,-40.3125,-53.375,3.375,0.0,0.0,0.0
1695909701805,-1.2998047,-0.21972656,0.07128906,-56.4375,-106.03125,-47.90625,0.0,0.0,0.0
1695909701845,-1.1494141,-0.0068359375,-0.06933594,-85.75,-67.71875,-73.40625,0.0,0.0,0.0
1695909701885,-1.1953125,-0.13867188,0.27734375,-63.40625,-100.84375,-72.5625,0.0,0.0,0.0
1695909701925,-1.0703125,0.16796875,-0.047851562,-66.8125,-135.46875,-48.46875,0.0,0.0,0.0
1695909701965,-0.8564453,0.18652344,-0.5566406,0.625,-78.03125,-57.0625,0.0,0.0,0.0
1695909702005,-1.0283203,-0.1171875,0.453125,3.375,-110.75,-44.25,0.0,0.0,0.0
1695909702045,-0.94921875,0.07128906,-0.2109375,-36.46875,-59.53125,-36.375,0.0,0.0,0.0
1695909702085,-0.68847656,0.076171875,0.1484375,-13.65625,-51.59375,-26.0625,0.0,0.0,0.0
1695909702125,-0.78125,-0.09472656,0.01953125,-27.4375,-28.59375,-5.5,-26.375,15.625,-52.4375
1695909702165,-0.6904297,0.030273438,0.083984375,-36.0,-9.59375,17.21875,0.0,0.0,0.0
1695909702205,-0.6933594,0.087890625,0.05078125,-45.6875,14.375,19.34375,0.0,0.0,0.0
1695909702245,-0.6855469,0.037109375,0.051757812,-34.28125,22.8125,8.96875,0.0,0.0,0.0
1695909702285,-0.81640625,-0.29492188,0.1484375,-53.375,38.96875,3.71875,0.0,0.0,0.0
1695909702325,-1.1005859,-0.9296875,0.5390625,-4.0,33.96875,18.1875,0.0,0.0,0.0
1695909702365,-0.9658203,-1.1132812,0.5234375,-25.875,34.71875,12.9375,0.0,0.0,0.0
1695909702405,-0.93652344,-0.53222656,0.21972656,-35.75,51.0,0.90625,0.0,0.0,0.0
1695909702445,-1.6582031,-0.18652344,0.32421875,-63.15625,60.9375,12.5625,0.0,0.0,0.0
1695909702485,-2.0410156,0.051757812,0.4814453,5.28125,-42.6875,38.53125,0.0,0.0,0.0
1695909702525,0.048828125,0.8144531,-0.72265625,-104.78125,-33.40625,-19.65625,0.0,0.0,0.0
1695909702565,-0.5966797,0.27441406,-0.37695312,10.28125,48.3125,60.625,0.0,0.0,0.0
1695909702605,-1.8662109,-0.8066406,-0.01171875,30.40625,111.0,58.84375,-26.25,21.5,-57.0625
1695909702645,-1.3613281,-0.39160156,0.08691406,-63.8125,-111.71875,-11.15625,-25.625,26.3125,-54.1875
1695909702685,-1.3154297,-0.14648438,-0.3251953,-68.9375,-69.78125,-28.5,0.0,0.0,0.0
1695909702725,-1.3955078,-0.28320312,0.18652344,-123.75,-135.59375,-96.375,0.0,0.0,0.0
1695909702765,-1.3847656,-0.24414062,0.00390625,42.9375,-120.125,-73.25,0.0,0.0,0.0
1695909702805,-0.8886719,0.0625,0.015625,15.71875,-117.9375,-65.90625,0.0,0.0,0.0
1695909702845,-0.94921875,-0.11230469,0.09375,35.0625,-143.28125,-79.40625,0.0,0.0,0.0
1695909702885,-0.9082031,-0.20996094,0.053710938,63.8125,-157.0,-60.84375,0.0,0.0,0.0
1695909702925,-0.6464844,-0.11035156,0.07910156,114.875,-138.4375,-60.84375,0.0,0.0,0.0
1695909702965,-0.54589844,-0.045898438,0.20214844,78.03125,-99.25,-45.90625,0.0,0.0,0.0
1695909703005,-0.4423828,-0.07519531,0.09277344,58.125,-62.71875,-31.6875,0.0,0.0,0.0
1695909703045,-0.44335938,-0.11328125,0.19824219,74.3125,-21.1875,-16.40625,0.0,0.0,0.0
1695909703085,-0.29785156,-0.087890625,0.47070312,28.65625,25.5625,-14.9375,0.0,0.0,0.0
1695909703125,-0.30664062,-0.47070312,0.46777344,-62.59375,59.5625,-29.96875,0.0,0.0,0.0
1695909703165,-0.5185547,-0.50878906,0.52441406,-65.15625,146.65625,19.96875,-15.0,16.375,-26.3125
1695909703205,-2.0410156,-0.6542969,0.4423828,34.8125,65.71875,-21.40625,0.0,0.0,0.0
1695909703245,-1.0185547,0.029296875,0.8496094,55.3125,103.96875,17.28125,0.0,0.0,0.0
1695909703285,-0.84375,0.041015625,0.15527344,-29.15625,88.53125,39.4375,0.0,0.0,0.0
1695909703325,-1.5351562,-0.3984375,0.13574219,-44.40625,88.25,57.375,0.0,0.0,0.0
1695909703365,-0.99609375,-0.22753906,0.080078125,-31.34375,103.8125,39.0,0.0,0.0,0.0
1695909703405,-0.9638672,-0.13671875,0.11035156,-41.4375,104.78125,43.53125,0.0,0.0,0.0
1695909703445,-0.875,-0.17089844,0.001953125,-72.84375,97.5625,62.0625,0.0,0.0,0.0
1695909703485,-1.1416016,-0.31152344,-0.045898438,6.96875,51.6875,51.8125,0.0,0.0,0.0
1695909703525,-0.8310547,-0.2265625,-0.032226562,64.21875,67.90625,65.8125,0.0,0.0,0.0
1695909703565,-0.9140625,-0.3486328,0.047851562,131.125,64.125,48.09375,0.0,0.0,0.0
1695909703605,-1.0556641,-0.29492188,0.055664062,31.5625,63.6875,-10.4375,0.0,0.0,0.0
1695909703645,-1.0175781,0.33789062,0.0625,8.0625,62.46875,-25.4375,-25.625,27.3125,-54.5
1695909703685,-1.0253906,-0.08203125,0.018554688,-31.09375,38.375,25.625,0.0,0.0,0.0
1695909703725,-1.0732422,-0.35253906,0.06738281,-19.75,31.28125,22.03125,0.0,0.0,0.0
1695909703765,-1.1123047,-0.32617188,0.055664062,-23.46875,11.8125,22.71875,0.0,0.0,0.0
1695909703805,-1.2900391,-0.234375,-0.13476562,-36.84375,9.4375,17.53125,0.0,0.0,0.0
1695909703845,-1.3710938,0.038085938,-0.15136719,-58.6875,18.78125,4.53125,0.0,0.0,0.0
1695909703885,-1.8349609,-0.1328125,-0.20117188,-25.1875,-23.28125,6.53125,0.0,0.0,0.0
1695909703925,-1.4628906,0.21289062,0.024414062,-1.8125,-47.3125,-9.40625,0.0,0.0,0.0
1695909703965,-1.4033203,-0.1328125,0.38867188,-23.71875,-95.0,-35.875,0.0,0.0,0.0
1695909704005,-1.2470703,-0.19628906,0.61035156,-13.65625,-179.71875,-37.90625,0.0,0.0,0.0
1695909704045,-1.4833984,-0.31152344,-0.48339844,-168.75,-79.1875,-94.59375,0.0,0.0,0.0
1695909704085,-0.953125,0.14550781,0.36523438,-6.8125,-190.15625,-49.0,0.0,0.0,0.0
1695909704125,-1.0683594,-0.19335938,-0.15234375,0.625,-137.65625,-83.375,0.0,0.0,0.0
1695909704165,-0.9609375,-0.091796875,0.14746094,117.34375,-184.46875,-63.09375,-20.875,18.3125,-35.0
1695909704205,-0.77246094,0.0234375,0.16992188,91.5625,-156.03125,-46.0625,0.0,0.0,0.0
