timestamp,accel_x,accel_y,accel_z,gyro_x,gyro_y,gyro_z,ind
1695653656886,0.09448242,-0.9937134,0.10345459,-1.765625,-0.875,0.421875,11
1695653656926,0.0859375,-1.0005493,0.09539795,-1.25,-0.46875,0.421875,12
1695653656966,0.09765625,-1.0252075,0.029724121,-13.546875,0.046875,-1.40625,13
1695653657006,0.11669922,-1.1226196,0.074401855,-8.21875,-0.34375,-8.125,14
1695653657046,0.053466797,-0.8755493,0.22601318,-6.84375,4.890625,-1.53125,15
1695653657086,0.07446289,-0.9277954,0.17254639,-4.484375,0.796875,2.015625,16
1695653657126,0.03149414,-1.0198364,0.15545654,0.0625,3.8125,1.578125,17
1695653657166,0.07421875,-1.0166626,0.13104248,-0.421875,4.859375,2.0625,18
1695653657206,0.039794922,-0.9859009,0.12054443,-3.78125,0.921875,0.453125,19
1695653657246,0.099365234,-0.9973755,0.15911865,-5.6875,3.78125,-0.328125,20
1695653657286,0.14501953,-1.0215454,0.18939209,-3.859375,3.328125,-0.234375,21
1695653657326,0.037353516,-0.9949341,0.12640381,1.0,3.625,-1.828125,22
1695653657366,0.030761719,-0.9661255,0.18060303,-3.484375,5.578125,-2.453125,23
1695653657406,0.10986328,-1.005188,0.20404053,-0.5,0.578125,0.546875,24
1695653657446,0.026611328,-0.913147,0.14984131,10.3125,-2.9375,6.4375,25
1695653657486,0.1105957,-0.9546509,0.14959717,0.8125,1.796875,1.90625,26
1695653657526,0.052734375,-1.048645,0.14984131,2.984375,-0.28125,2.484375,27
1695653657566,0.044921875,-1.0005493,0.17279053,6.3125,-3.4375,5.65625,28
1695653657606,0.08544922,-0.9273071,0.20965576,19.984375,-10.375,6.546875,29
1695653657646,0.12719727,-0.9158325,0.09246826,19.1875,-13.4375,6.6875,30
1695653657686,0.17041016,-1.1057739,0.02532959,-2.40625,-0.875,1.109375,31
1695653657726,0.08618164,-1.0940552,0.097595215,1.296875,-2.40625,-2.0,32
1695653657766,0.10668945,-0.9417114,0.17303467,9.25,-3.828125,-2.6875,33
1695653657806,0.07373047,-0.9151001,0.12298584,9.8125,-7.5625,3.640625,34
1695653657846,0.072021484,-0.9907837,0.061706543,2.359375,-6.296875,2.875,35
1695653657886,0.10498047,-1.0994263,-0.06719971,11.453125,0.421875,1.84375,36
1695653657926,0.09277344,-1.0149536,0.019714355,0.84375,2.1875,0.40625,37
1695653657966,0.1459961,-0.91119385,0.09490967,-6.65625,0.203125,1.203125,38
1695653658006,0.08520508,-0.95391846,0.043395996,-18.03125,0.109375,-2.296875,39
1695653658046,0.08935547,-1.0505981,0.06781006,-17.453125,-0.234375,-2.0,40
1695653658086,0.072021484,-1.0046997,0.19085693,-10.96875,-2.90625,1.71875,41
1695653658126,0.10522461,-0.93585205,0.18450928,-6.109375,2.6875,0.046875,42
1695653658166,0.10205078,-1.0256958,0.12762451,-2.625,4.234375,-2.109375,43
1695653658206,0.06738281,-1.005188,0.15496826,0.96875,2.578125,0.25,44
1695653658246,0.15673828,-0.9741821,0.13861084,-6.46875,3.84375,-2.09375,45
1695653658286,0.028076172,-0.98516846,0.17572021,-5.6875,3.421875,-2.59375,46
1695653658326,0.08935547,-1.0115356,0.19378662,-1.828125,3.390625,-1.546875,47
1695653658366,0.072753906,-0.9758911,0.17059326,5.421875,-1.296875,3.484375,48
1695653658406,0.07910156,-0.9475708,0.16790771,4.859375,1.78125,0.28125,49
1695653658446,0.04248047,-1.0127563,0.19818115,8.84375,0.71875,2.84375,50
1695653658486,0.049072266,-0.97613525,0.036315918,14.625,-2.078125,5.609375,51
1695653658526,0.12719727,-1.0161743,0.120788574,4.84375,1.359375,3.40625,52
1695653658566,0.11645508,-1.0083618,0.10345459,-0.5625,-1.40625,0.109375,53
1695653658606,0.053466797,-0.986145,0.16229248,8.15625,-3.796875,-0.140625,54
1695653658646,0.07348633,-0.9602661,0.137146,15.25,-7.296875,3.40625,55
1695653658686,0.13745117,-1.0083618,0.0770874,6.765625,-5.65625,3.421875,56
1695653658726,0.099853516,-1.0100708,0.05218506,-5.875,-4.546875,-0.328125,57
1695653658766,0.10449219,-1.0213013,0.04534912,6.9375,2.890625,0.859375,58
1695653658806,0.08325195,-1.0239868,0.07928467,2.890625,2.71875,1.609375,59
1695653658846,0.13110352,-0.9727173,0.02947998,2.5,-0.140625,2.609375,60
1695653658886,0.14916992,-0.9612427,0.036315918,-11.609375,2.609375,-1.140625,61
1695653658926,0.10253906,-0.99176025,0.04095459,-17.703125,6.3125,-3.796875,62
1695653658966,0.060791016,-0.9776001,0.17303467,-15.296875,1.296875,-3.953125,63
1695653659006,0.067871094,-1.0012817,0.16131592,-9.046875,-5.890625,2.71875,64
1695653659046,0.064208984,-0.9692993,0.16253662,-11.03125,0.84375,-0.5,65
1695653659086,0.10058594,-1.0337524,0.16619873,-3.96875,4.59375,-4.109375,66
1695653659126,0.060546875,-0.9819946,0.15325928,3.421875,2.796875,-0.234375,67
1695653659166,0.044921875,-0.9204712,0.17327881,-1.609375,-4.296875,3.125,68
1695653659206,0.15600586,-0.9927368,0.14154053,-5.0,2.0625,-1.203125,69
1695653659246,0.049072266,-1.0315552,0.18621826,-0.578125,-0.21875,-1.546875,70
1695653659286,0.020751953,-0.973938,0.19281006,3.875,3.421875,0.828125,71
1695653659326,0.10229492,-1.0066528,0.1461792,7.234375,2.34375,1.625,72
1695653659366,0.15063477,-0.9993286,0.11663818,1.71875,2.921875,-0.546875,73
1695653659406,0.055419922,-0.9817505,0.14349365,-2.921875,1.65625,-2.6875,74
1695653659446,0.018310547,-0.9968872,0.20599365,-0.15625,1.28125,-0.421875,75
1695653659486,0.06542969,-1.0203247,0.15350342,4.796875,0.921875,0.75,76
1695653659526,0.07763672,-0.93463135,0.13543701,7.875,3.578125,4.640625,77
1695653659566,0.11816406,-0.9866333,0.11126709,-2.90625,5.375,-1.171875,78
1695653659606,0.052978516,-1.0422974,0.18377686,-1.046875,0.75,-0.8125,79
1695653659646,0.008300781,-0.9998169,0.17840576,1.375,0.625,1.1875,80
1695653659686,0.06274414,-0.9585571,0.17596436,6.484375,-1.703125,4.0625,81
1695653659726,0.122558594,-0.94781494,0.0848999,2.203125,3.359375,1.328125,82
1695653659766,0.09057617,-1.0586548,0.121032715,-3.515625,3.359375,-0.859375,83
1695653659806,0.052246094,-1.0247192,0.15911865,-3.25,0.953125,-1.859375,84
1695653659846,0.041748047,-0.97979736,0.18450928,2.25,-2.578125,2.59375,85
1695653659886,0.056640625,-0.9390259,0.15765381,4.4375,-1.390625,2.375,86
1695653659926,0.099853516,-0.9727173,0.08001709,2.078125,3.703125,1.4375,87
1695653659966,0.11352539,-1.1148071,0.15179443,-4.765625,2.515625,-4.1875,88
1695653660006,0.025146484,-0.98321533,0.15106201,-0.34375,-1.078125,2.734375,89
1695653660046,0.09082031,-0.89385986,0.14227295,1.125,0.21875,2.984375,90
1695653660086,0.091796875,-0.98931885,0.11419678,-2.171875,0.203125,0.484375,91
1695653660126,0.084228516,-1.0801392,0.16864014,-1.25,-0.40625,0.390625,92
1695653660166,0.075927734,-1.0115356,0.16448975,-1.515625,-1.921875,1.28125,93
1695653660206,0.06347656,-0.92974854,0.17279053,8.453125,-1.953125,2.859375,94
1695653660246,0.088378906,-0.9241333,0.12176514,-0.953125,-2.5625,1.84375,95
1695653660286,0.1003418,-1.0825806,0.13641357,-0.84375,0.234375,-2.09375,96
1695653660326,0.076416016,-1.03302,0.16888428,0.171875,-3.3125,1.46875,97
1695653660366,0.05883789,-0.8867798,0.16668701,3.4375,-5.703125,3.296875,98
1695653660406,0.06665039,-0.93927,0.14324951,9.6875,-5.375,1.875,99
1695653660446,0.040283203,-0.9768677,0.18450928,10.484375,-13.265625,6.0,100
1695653660486,0.06762695,-1.100647,0.078063965,15.421875,-8.59375,5.78125,101
1695653660526,0.15844727,-1.0422974,0.00018310547,11.828125,-5.046875,5.15625,102
1695653660566,0.11816406,-0.9553833,0.07757568,3.6875,-1.5625,-0.578125,103
1695653660606,0.11816406,-1.0244751,0.09686279,1.46875,-1.328125,0.953125,104
1695653660646,0.08691406,-1.0254517,0.093688965,2.71875,-0.8125,-1.0,105
1695653660686,0.08984375,-0.96173096,0.05682373,6.640625,-1.546875,0.15625,106
1695653660726,0.08544922,-0.9180298,0.07904053,8.0625,-4.46875,2.296875,107
1695653660766,0.06298828,-1.0076294,0.08441162,0.59375,-6.203125,1.375,108
1695653660806,0.11645508,-1.010315,-0.034973145,1.390625,8.28125,0.8125,109
1695653660846,0.13085938,-0.9783325,0.029968262,-5.328125,4.859375,-0.59375,110
1695653660886,0.067871094,-1.000061,0.07171631,-4.625,-1.71875,-0.296875,111
1695653660926,0.103027344,-0.9697876,0.089782715,1.40625,-4.203125,3.859375,112
1695653660966,0.103759766,-1.000061,0.06439209,2.140625,0.671875,2.171875,113
1695653661006,0.118896484,-1.0059204,0.074157715,0.796875,0.015625,0.984375,114
1695653661046,0.11425781,-1.0037231,0.07489014,-2.265625,-1.53125,0.0625,115
1695653661086,0.092041016,-0.9859009,0.058044434,-1.796875,-0.46875,0.65625,116
1695653661126,0.08959961,-0.9920044,0.07147217,-1.34375,-0.109375,0.546875,117
1695653661166,0.08862305,-0.9824829,0.07196045,1.265625,0.21875,2.890625,118
1695653661206,0.09667969,-0.9834595,0.049743652,-0.875,-0.421875,1.875,119
1695653661246,0.110839844,-1.031311,0.0758667,1.390625,0.546875,0.921875,120
1695653661286,0.10888672,-0.9846802,0.06951904,-1.421875,0.90625,-0.15625,121
1695653661326,0.106933594,-0.94415283,0.06341553,1.5,-0.6875,0.140625,122
1695653661366,0.11694336,-0.9607544,0.04071045,-1.4375,0.578125,0.46875,123
1695653661406,0.09667969,-1.046936,0.06829834,-5.3125,2.5625,-1.265625,124
1695653661446,0.095458984,-1.0349731,0.08416748,-5.6875,2.171875,-2.421875,125
1695653661486,0.07714844,-0.98443604,0.101989746,-7.71875,0.5625,-1.59375,126
1695653661526,0.09277344,-0.90802,0.11151123,-4.515625,-0.171875,0.703125,127
1695653661566,0.072021484,-1.0149536,0.10394287,-2.453125,1.78125,0.28125,128
1695653661606,0.08325195,-1.0462036,0.057800293,-2.203125,2.4375,-0.3125,129
1695653661646,0.110839844,-1.0230103,0.14422607,-7.25,0.21875,-2.234375,130
1695653661686,0.07470703,-0.9343872,0.14935303,-3.40625,-1.4375,2.28125,131
1695653661726,0.092285156,-0.97369385,0.07244873,-3.84375,4.3125,-1.5625,132
1695653661766,0.049072266,-1.0437622,0.19110107,-7.625,1.796875,-3.21875,133
1695653661806,0.10229492,-1.02594,0.1564331,-4.375,1.421875,-1.203125,134
1695653661846,0.030517578,-0.9819946,0.13909912,2.953125,0.703125,2.359375,135
1695653661886,0.08129883,-0.8743286,0.13470459,1.1875,0.1875,3.1875,136
1695653661926,0.10522461,-1.0481567,0.15692139,-5.96875,0.46875,-3.03125,137
1695653661966,0.012451172,-1.079895,0.168396,-1.640625,1.765625,-0.984375,138
1695653662006,0.084472656,-0.9746704,0.1749878,7.5625,-1.171875,3.78125,139
1695653662046,0.1237793,-0.8574829,0.11126709,-0.78125,2.234375,3.515625,140
1695653662086,0.08325195,-1.045227,0.16668701,-4.484375,-0.78125,-2.34375,141
1695653662126,0.013671875,-1.0532837,0.17547607,-4.90625,-0.921875,-0.046875,142
1695653662166,0.13745117,-1.0552368,0.22601318,8.84375,2.34375,0.8125,143
1695653662206,0.036132812,-0.8179321,0.081970215,0.765625,-6.234375,7.328125,144
1695653662246,0.13989258,-0.960022,0.1251831,-8.421875,3.078125,-4.5625,145
1695653662286,-0.0034179688,-1.0852661,0.2543335,-9.21875,-5.28125,-0.625,146
1695653662326,0.118652344,-1.038147,0.13885498,-9.328125,-3.796875,1.125,147
1695653662366,0.16381836,-0.9326782,0.1828003,-4.3125,-4.546875,0.109375,148
1695653662406,0.015625,-0.9487915,0.18890381,0.84375,0.0625,2.65625,149
1695653662446,0.016845703,-1.0881958,0.21966553,-6.6875,5.25,-7.625,150
1695653662486,0.11279297,-1.0671997,0.20965576,0.578125,0.25,2.46875,151
1695653662526,0.100097656,-0.8179321,0.21990967,4.03125,-2.546875,8.140625,152
1695653662566,0.09863281,-0.9248657,0.14300537,-7.203125,-4.59375,-0.4375,153
1695653662606,-0.032958984,-1.0828247,0.29632568,-2.671875,0.84375,-1.234375,154
1695653662646,0.15478516,-1.1099243,0.17132568,5.375,3.46875,-3.3125,155
1695653662686,0.056152344,-0.92193604,0.19818115,-1.59375,-3.078125,7.265625,156
1695653662726,0.14013672,-0.87945557,0.21990967,-6.65625,-2.140625,0.234375,157
1695653662766,0.0107421875,-0.98101807,0.24456787,-8.296875,-1.25,-2.578125,158
1695653662806,0.029541016,-1.1340942,0.24920654,-4.671875,-0.359375,-1.140625,159
1695653662846,0.03466797,-0.95977783,0.23553467,10.609375,3.21875,5.578125,160
1695653662886,0.18310547,-0.8225708,0.17010498,-1.859375,2.890625,0.421875,161
1695653662926,0.06518555,-1.0442505,0.2501831,-5.28125,2.0,-4.265625,162
1695653662966,0.0014648438,-1.1326294,0.29559326,7.984375,2.640625,1.125,163
1695653663006,0.061523438,-0.96539307,0.21087646,17.171875,-0.546875,7.8125,164
1695653663046,0.1340332,-0.7732544,0.17132568,0.234375,3.765625,2.171875,165
1695653663086,0.1262207,-1.0603638,0.20233154,-5.40625,-3.59375,-0.609375,166
1695653663126,0.0,-1.1421509,0.24554443,0.078125,0.59375,0.0,167
1695653663166,0.103515625,-0.9714966,0.2411499,6.328125,-1.5625,3.734375,168
1695653663206,0.09057617,-0.84259033,0.18963623,7.171875,-2.421875,5.109375,169
1695653663246,0.083984375,-0.94537354,0.20379639,8.0,-2.21875,1.453125,170
1695653663286,0.04321289,-1.03302,0.22406006,7.265625,-7.609375,3.328125,171
1695653663326,0.01977539,-1.0337524,0.22064209,7.578125,-13.046875,7.546875,172
1695653663366,0.11254883,-1.0095825,0.17059326,3.640625,-13.65625,3.484375,173
1695653663406,0.1430664,-0.9998169,0.12957764,-0.015625,-14.828125,0.609375,174
1695653663446,0.1381836,-0.98760986,0.17791748,1.6875,-8.9375,0.953125,175
1695653663486,0.12133789,-0.9990845,0.13372803,9.375,-1.4375,0.984375,176
1695653663526,0.06689453,-1.0042114,0.14422607,4.171875,-1.09375,-0.734375,177
1695653663566,0.07836914,-0.98883057,0.13568115,3.578125,-1.71875,-0.40625,178
1695653663606,0.08959961,-0.97076416,0.12445068,2.84375,0.296875,0.0625,179
1695653663646,0.1184082,-0.9751587,0.031433105,2.578125,7.546875,0.0,180
1695653663686,0.14501953,-1.0396118,0.039733887,-16.5625,13.390625,-5.75,181
1695653663726,0.14233398,-1.128479,0.0770874,-16.265625,5.1875,-13.109375,182
1695653663766,-0.067871094,-0.8880005,0.36444092,-5.390625,-3.453125,-0.828125,183
1695653663806,0.12158203,-0.8110962,0.2020874,-2.21875,6.421875,5.546875,184
1695653663846,0.064941406,-1.008606,0.25775146,9.109375,-4.578125,0.515625,185
1695653663886,0.12866211,-1.0942993,0.0524292,-0.546875,4.4375,1.53125,186
1695653663926,0.018554688,-1.0759888,0.24700928,-6.046875,4.78125,-7.09375,187
1695653663966,0.12573242,-0.96661377,0.1828003,-6.5625,0.265625,1.265625,188
1695653664006,0.035888672,-0.94854736,0.18914795,2.953125,3.359375,2.96875,189
1695653664046,0.056640625,-0.8999634,0.16351318,-3.71875,4.28125,-0.03125,190
1695653664086,-0.0024414062,-1.0908813,0.27752686,-9.03125,4.09375,-5.625,191
1695653664126,0.119384766,-1.0493774,0.24017334,-1.203125,3.71875,-2.65625,192
1695653664166,-0.013427734,-0.8855591,0.09637451,2.84375,-0.71875,8.46875,193
1695653664206,0.12182617,-0.9324341,0.22625732,-2.234375,5.796875,-3.234375,194
1695653664246,0.04638672,-1.0376587,0.25531006,0.890625,-1.6875,0.8125,195
1695653664286,0.011230469,-1.0479126,0.18475342,-5.34375,0.953125,0.203125,196
1695653664326,0.1171875,-0.99346924,0.22113037,-3.328125,1.3125,-0.421875,197
1695653664366,0.0793457,-0.87750244,0.23065186,3.96875,-4.390625,4.890625,198
1695653664406,0.034179688,-0.9595337,0.19769287,-1.78125,4.875,1.125,199
1695653664446,0.049804688,-1.1211548,0.2243042,-0.671875,5.234375,-5.796875,200
1695653664486,-0.0041503906,-0.9468384,0.29266357,3.984375,3.171875,6.4375,201
1695653664526,0.06542969,-0.8423462,0.20355225,4.84375,3.25,5.140625,202
1695653664566,0.08886719,-1.0222778,0.16033936,6.546875,5.984375,2.375,203
1695653664606,0.095458984,-1.1514282,0.19818115,0.09375,3.046875,-4.71875,204
1695653664646,0.0625,-0.97125244,0.24066162,4.40625,-1.578125,4.03125,205
1695653664686,0.016357422,-0.90460205,0.13470459,11.625,2.15625,5.5,206
1695653664726,0.13012695,-0.92633057,0.17425537,-2.21875,0.09375,0.84375,207
1695653664766,0.115234375,-1.08844,0.22601318,3.34375,-6.953125,1.546875,208
1695653664806,0.02709961,-0.9500122,0.26068115,17.40625,-13.375,5.140625,209
1695653664846,-0.045898438,-0.928772,0.109069824,14.703125,-5.421875,11.671875,210
1695653664886,0.23901367,-1.0559692,0.012634277,16.359375,1.0625,4.875,211
1695653664926,0.115234375,-1.071106,0.14300537,-1.25,-4.84375,0.4375,212
1695653664966,0.09057617,-0.9661255,0.11566162,-1.859375,-0.9375,-2.390625,213
1695653665006,0.08984375,-1.0115356,0.12615967,-0.609375,-1.546875,-1.015625,214
1695653665046,0.09399414,-0.95635986,0.16937256,2.734375,-6.34375,2.359375,215
1695653665086,0.07373047,-0.9224243,0.19403076,-1.125,-14.515625,1.21875,216
1695653665126,0.03491211,-0.9949341,0.1593628,-0.84375,-18.140625,3.953125,217
1695653665166,0.10595703,-1.0977173,0.13787842,-3.140625,-13.25,3.8125,218
1695653665206,0.19946289,-1.0159302,0.06414795,-2.09375,-3.640625,-1.484375,219
1695653665246,0.08935547,-0.95147705,0.09979248,-1.484375,1.6875,-2.015625,220
1695653665286,0.06640625,-0.93707275,0.16400146,-1.703125,-0.625,-0.5,221
1695653665326,0.07788086,-1.0105591,0.17889404,8.375,-0.828125,1.59375,222
1695653665366,0.1550293,-1.0078735,0.066589355,5.859375,4.390625,0.3125,223
1695653665406,0.1171875,-1.0418091,0.05609131,-9.8125,5.09375,-3.84375,224
1695653665446,0.10644531,-1.0437622,0.19696045,-9.078125,0.015625,-7.578125,225
1695653665486,-0.005859375,-0.9048462,0.23553467,-9.71875,1.328125,-0.5,226
1695653665526,0.06665039,-0.94195557,0.21820068,-1.796875,4.546875,1.84375,227
1695653665566,0.099609375,-1.0134888,0.13372803,-1.859375,5.296875,0.828125,228
1695653665606,0.02319336,-0.99591064,0.21331787,-2.921875,2.984375,-2.203125,229
1695653665646,0.15283203,-1.0071411,0.14813232,-4.5625,5.875,0.375,230
1695653665686,0.07495117,-1.0271606,0.16619873,-5.859375,1.875,-1.625,231
1695653665726,0.0715332,-0.9336548,0.22625732,-2.703125,1.703125,0.75,232
1695653665766,0.10424805,-1.0025024,0.21380615,1.34375,5.453125,-0.75,233
1695653665806,-0.049072266,-0.9795532,0.22064209,-3.84375,-0.21875,-0.34375,234
1695653665846,0.13989258,-1.034729,0.21551514,-4.078125,2.328125,-0.484375,235
1695653665886,0.099365234,-0.9585571,0.14886475,4.84375,-0.171875,4.15625,236
1695653665926,0.05908203,-0.9429321,0.21063232,-2.875,4.953125,-3.25,237
1695653665966,0.040039062,-1.0481567,0.2592163,-1.703125,2.875,-1.671875,238
1695653666006,0.03930664,-1.0342407,0.12567139,3.015625,-2.75,3.921875,239
1695653666046,0.060546875,-0.9143677,0.2399292,-3.640625,3.09375,-0.390625,240
1695653666086,0.14453125,-0.97491455,0.18963623,-1.65625,1.296875,1.078125,241
1695653666126,-0.0009765625,-1.0256958,0.23260498,-1.5,1.328125,0.640625,242
1695653666166,0.080322266,-1.0342407,0.21234131,-3.25,3.890625,-2.125,243
1695653666206,0.09277344,-0.97491455,0.26068115,6.9375,-0.046875,2.609375,244
1695653666246,0.0390625,-0.87213135,0.16473389,0.890625,-2.78125,5.546875,245
1695653666286,0.055419922,-1.0745239,0.2255249,-3.234375,1.40625,-4.203125,246
1695653666326,0.06933594,-1.0288696,0.2008667,-2.625,-0.203125,0.390625,247
1695653666366,0.07910156,-0.9780884,0.2255249,1.234375,0.09375,1.25,248
1695653666406,0.034423828,-0.87994385,0.20648193,2.78125,-0.640625,5.234375,249
1695653666446,0.05029297,-1.0149536,0.25286865,-4.515625,2.09375,-3.859375,250
1695653666486,0.040039062,-1.0418091,0.19598389,-3.203125,1.8125,-1.171875,251
1695653666526,0.056396484,-1.0237427,0.19281006,4.375,0.890625,-0.21875,252
1695653666566,0.12182617,-0.8928833,0.24017334,-1.125,-0.484375,2.09375,253
1695653666606,0.095458984,-0.93927,0.16571045,-0.609375,-0.90625,-0.640625,254
1695653666646,-0.004638672,-1.0286255,0.26434326,3.1875,-0.625,0.28125,255
1695653666686,0.011230469,-1.0303345,0.23162842,10.21875,0.203125,4.859375,256
1695653666726,0.09106445,-0.9390259,0.19720459,1.453125,5.34375,5.734375,257
1695653666766,0.119628906,-0.9624634,0.19866943,2.234375,0.34375,2.125,258
1695653666806,-0.0126953125,-0.9985962,0.20037842,3.625,6.609375,1.703125,259
1695653666846,0.1003418,-1.1282349,0.19036865,3.609375,4.8125,1.3125,260
1695653666886,0.14257812,-0.95928955,0.1852417,1.140625,4.4375,0.546875,261
1695653666926,0.12402344,-0.85601807,0.17279053,2.3125,4.484375,-0.90625,262
1695653666966,-0.029052734,-1.0317993,0.23406982,-4.859375,0.796875,-2.765625,263
1695653667006,0.06982422,-1.0596313,0.22747803,-2.875,-2.703125,1.421875,264
1695653667046,0.18847656,-0.95635986,0.1359253,0.75,-2.03125,3.375,265
1695653667086,0.080078125,-0.9807739,0.16522217,-5.796875,-3.390625,-2.078125,266
1695653667126,0.052246094,-0.987854,0.2584839,1.625,-5.78125,1.5625,267
1695653667166,0.033935547,-0.98150635,0.1786499,4.734375,-2.625,2.40625,268
1695653667206,0.059326172,-0.9854126,0.20770264,5.046875,-5.3125,1.609375,269
1695653667246,0.12426758,-0.9807739,0.18890381,0.609375,-11.171875,0.8125,270
1695653667286,0.08618164,-1.0061646,0.1552124,-8.421875,-5.78125,-2.125,271
1695653667326,-0.057617188,-1.0427856,0.22698975,1.1875,-2.171875,1.609375,272
1695653667366,0.18798828,-1.0022583,0.215271,3.484375,-2.65625,4.125,273
1695653667406,0.068603516,-0.92071533,0.07537842,-7.59375,-2.9375,-0.46875,274
1695653667446,0.080322266,-1.0388794,0.26800537,-9.125,-5.109375,-0.78125,275
1695653667486,0.045898438,-0.9585571,0.26434326,4.5,-0.046875,2.90625,276
1695653667526,0.016357422,-0.95098877,0.27752686,16.203125,1.015625,6.640625,277
1695653667566,0.0769043,-1.0059204,0.30316162,17.984375,-2.53125,6.1875,278
1695653667606,0.09375,-0.9522095,-0.047912598,0.453125,-4.484375,3.140625,279
1695653667646,0.2541504,-1.0227661,0.13470459,-10.359375,3.078125,-5.328125,280
1695653667686,-0.04345703,-1.0957642,0.2086792,-3.546875,-5.015625,-4.9375,281
1695653667726,-0.0007324219,-0.9053345,0.27215576,-0.546875,-4.4375,7.453125,282
1695653667766,0.10522461,-0.8760376,0.16595459,-0.484375,-0.09375,1.265625,283
1695653667806,0.04321289,-1.0137329,0.18939209,2.234375,3.96875,-2.03125,284
1695653667846,0.13720703,-1.085022,0.101745605,3.296875,10.25,1.125,285
1695653667886,0.14086914,-1.0842896,0.14007568,-20.453125,-0.421875,-3.5,286
1695653667926,0.021484375,-0.85235596,0.29901123,-0.546875,3.03125,1.6875,287
1695653667966,0.06665039,-0.92193604,0.3217163,2.375,4.375,2.578125,288
1695653668006,0.061035156,-1.050354,0.11224365,-1.6875,1.609375,-0.5,289
1695653668046,0.1003418,-1.0232544,0.24798584,0.1875,2.46875,0.453125,290
1695653668086,0.08105469,-0.90338135,0.24383545,7.78125,1.28125,3.28125,291
1695653668126,0.014160156,-0.99835205,0.14666748,10.296875,7.84375,1.375,292
1695653668166,0.21020508,-1.0859985,0.13543701,-6.046875,2.328125,-3.765625,293
1695653668206,0.09716797,-0.9385376,0.2140503,0.109375,-2.8125,1.046875,294
1695653668246,-0.021484375,-0.9006958,0.2140503,-0.234375,-1.84375,2.546875,295
1695653668286,0.08569336,-1.041565,0.21429443,0.3125,2.40625,0.40625,296
1695653668326,0.1459961,-1.0418091,0.2008667,2.421875,-0.140625,0.46875,297
1695653668366,0.041748047,-0.9146118,0.21844482,3.09375,-3.921875,1.359375,298
1695653668406,0.028076172,-0.9475708,0.17669678,4.625,4.015625,-0.28125,299
1695653668446,0.09863281,-1.0650024,0.20037842,0.671875,-0.375,-1.4375,300
1695653668486,0.059570312,-1.0105591,0.18133545,3.625,-4.65625,-0.015625,301
1695653668526,0.026855469,-0.9180298,0.2111206,9.421875,-10.25,5.921875,302
1695653668566,0.07006836,-0.9529419,0.17816162,6.796875,-17.421875,7.65625,303
1695653668606,0.10180664,-1.0755005,0.18060303,1.171875,-14.390625,-1.4375,304
1695653668646,0.05810547,-1.1213989,0.1642456,-2.375,-6.46875,-2.6875,305
1695653668686,0.10888672,-0.99005127,0.14569092,2.78125,0.15625,-1.21875,306
1695653668726,0.12451172,-0.9343872,0.16033936,5.8125,-1.1875,-4.546875,307
1695653668766,0.037841797,-0.98883057,0.1293335,0.640625,-3.8125,-3.140625,308
1695653668806,0.017089844,-1.0095825,0.14764404,0.609375,-2.96875,-1.796875,309
1695653668846,0.08984375,-0.9837036,0.14813232,-0.078125,-0.140625,-1.84375,310
1695653668886,0.07788086,-0.987854,0.13128662,-4.953125,1.765625,-1.1875,311
1695653668926,0.103759766,-1.034729,0.08123779,-8.703125,10.4375,-5.3125,312
1695653668966,0.091796875,-1.02594,0.07757568,-7.984375,2.703125,-7.96875,313
1695653669006,-0.080566406,-0.9121704,0.2909546,-9.75,-2.734375,-1.859375,314
1695653669046,0.025878906,-0.92071533,0.33050537,-1.984375,8.375,3.921875,315
1695653669086,0.052490234,-1.0325317,0.18060303,0.203125,3.734375,-0.6875,316
1695653669126,0.029296875,-1.0022583,0.20697021,0.84375,2.828125,-0.953125,317
1695653669166,0.091796875,-1.0557251,0.1564331,-2.21875,5.125,-1.40625,318
1695653669206,0.024414062,-0.9783325,0.19598389,-2.984375,5.5,-5.34375,319
1695653669246,0.08984375,-0.989563,0.2538452,1.28125,4.90625,-0.34375,320
1695653669286,-0.0073242188,-0.95684814,0.16351318,2.234375,1.703125,-2.046875,321
1695653669326,-0.057373047,-0.98321533,0.2645874,1.484375,1.25,0.65625,322
1695653669366,0.048828125,-1.0481567,0.21746826,0.953125,0.65625,1.21875,323
1695653669406,-0.016845703,-0.9768677,0.19281006,4.078125,-1.296875,1.71875,324
1695653669446,0.046875,-0.954895,0.23260498,3.78125,1.328125,3.140625,325
1695653669486,0.055664062,-0.98272705,0.14959717,4.671875,0.21875,3.078125,326
1695653669526,-0.06762695,-1.0127563,0.16912842,-2.625,4.328125,-1.046875,327
1695653669566,0.087402344,-1.0361938,0.2255249,-1.375,4.59375,1.28125,328
1695653669606,-0.0053710938,-0.9048462,0.2218628,2.234375,-2.484375,4.671875,329
1695653669646,-0.0012207031,-0.91729736,0.19329834,1.109375,0.59375,4.796875,330
1695653669686,0.068603516,-1.0462036,0.18060303,5.859375,3.3125,2.25,331
1695653669726,0.05126953,-1.0413208,0.11859131,2.671875,5.46875,0.5625,332
1695653669766,0.08325195,-0.99884033,0.15838623,1.640625,8.859375,-0.125,333
1695653669806,0.028564453,-0.94854736,0.20233154,1.921875,-0.4375,3.75,334
1695653669846,0.010009766,-0.94415283,0.17791748,5.640625,-0.5,3.296875,335
1695653669886,-0.019042969,-1.0564575,0.17767334,7.3125,1.71875,1.40625,336
1695653669926,0.1418457,-1.0359497,0.12982178,1.765625,3.984375,-1.21875,337
1695653669966,0.03881836,-0.954895,0.21087646,5.890625,-6.203125,4.78125,338
1695653670006,0.06323242,-0.92681885,0.054382324,2.375,4.796875,2.0625,339
1695653670046,0.056884766,-1.0303345,0.15008545,-2.3125,0.609375,0.15625,340
1695653670086,0.016357422,-1.0757446,0.18353271,1.46875,0.046875,0.21875,341
1695653670126,-0.008544922,-0.9932251,0.16693115,6.34375,1.046875,3.71875,342
1695653670166,0.07324219,-0.9031372,0.16033936,-0.578125,1.296875,3.4375,343
1695653670206,0.083984375,-1.0532837,0.11199951,2.96875,2.03125,-0.953125,344
1695653670246,0.072509766,-1.0269165,0.14422607,-8.640625,0.484375,0.890625,345
1695653670286,0.10205078,-1.0557251,0.16229248,-6.40625,-1.703125,-3.046875,346
1695653670326,0.01586914,-0.9194946,0.22943115,4.3125,-4.46875,6.28125,347
1695653670366,0.033935547,-0.897522,0.12005615,3.125,-0.640625,4.671875,348
1695653670406,0.11035156,-1.0447388,0.13079834,-13.5,-3.59375,-3.984375,349
1695653670446,0.08325195,-1.1079712,0.21453857,-6.171875,-6.578125,-2.15625,350
1695653670486,-0.02709961,-0.9429321,0.18548584,-4.78125,-6.421875,3.234375,351
1695653670526,0.11621094,-0.92266846,0.17572021,-6.046875,1.484375,0.1875,352
1695653670566,0.11352539,-1.0393677,0.17034912,-4.265625,-2.796875,-3.203125,353
1695653670606,-0.014404297,-1.038147,0.29852295,7.40625,-2.90625,1.984375,354
1695653670646,0.011230469,-0.864563,0.18206787,2.75,-4.28125,8.03125,355
1695653670686,0.11791992,-0.9866333,0.17791748,2.765625,0.546875,-1.984375,356
1695653670726,0.017822266,-1.0408325,0.18841553,-1.921875,-6.203125,3.234375,357
1695653670766,0.045166016,-1.0401001,0.19354248,-6.359375,1.75,-1.296875,358
1695653670806,0.119140625,-1.0535278,0.24163818,4.921875,-0.390625,0.765625,359
1695653670846,0.028320312,-0.7888794,0.2086792,2.59375,-4.5625,7.96875,360
1695653670886,0.1184082,-1.0200806,0.13787842,-2.34375,-2.953125,-3.859375,361
1695653670926,0.010986328,-1.1192017,0.23040771,3.71875,-0.890625,-0.515625,362
1695653670966,0.034179688,-1.0044556,0.20550537,6.75,0.046875,3.171875,363
1695653671006,0.09790039,-0.86065674,0.18963623,-1.25,-1.109375,5.34375,364
1695653671046,0.1237793,-0.97076416,0.13275146,-0.703125,-0.0625,-1.46875,365
1695653671086,-0.0012207031,-1.0269165,0.18597412,-1.3125,0.015625,1.703125,366
1695653671126,0.034423828,-1.1008911,0.20501709,1.875,5.46875,-1.453125,367
1695653671166,0.06201172,-0.9507446,0.21868896,8.09375,3.03125,3.421875,368
1695653671206,0.15209961,-0.89385986,0.097351074,1.46875,2.609375,1.15625,369
1695653671246,0.0715332,-1.0215454,0.15789795,-3.28125,-0.625,-4.65625,370
1695653671286,-0.011962891,-1.0369263,0.24505615,-0.140625,0.359375,-0.828125,371
1695653671326,0.040527344,-1.0161743,0.16229248,4.0625,-4.90625,2.1875,372
1695653671366,0.05493164,-0.8850708,0.13616943,5.0,1.140625,4.140625,373
1695653671406,0.15991211,-0.98101807,0.15472412,-2.609375,-0.171875,0.53125,374
1695653671446,-0.017578125,-1.0252075,0.2140503,0.71875,-2.34375,0.53125,375
1695653671486,-0.041259766,-1.0918579,0.15472412,4.984375,4.21875,1.15625,376
1695653671526,0.049804688,-0.9319458,0.21014404,6.0625,2.0625,8.859375,377
1695653671566,0.25683594,-0.8596802,0.066101074,-3.5625,0.765625,2.34375,378
1695653671606,0.0063476562,-1.052063,0.13665771,-3.53125,-2.046875,-4.859375,379
1695653671646,-0.037353516,-1.0576782,0.1774292,1.859375,3.0,2.234375,380
1695653671686,0.1550293,-1.0493774,0.18841553,6.578125,4.59375,0.078125,381
1695653671726,0.06201172,-0.9026489,0.15911865,8.1875,-3.75,3.078125,382
1695653671766,0.14526367,-0.89923096,0.04071045,-0.40625,0.09375,0.328125,383
1695653671806,0.055419922,-1.0689087,0.14569092,-3.546875,-0.703125,-2.609375,384
1695653671846,-0.00390625,-1.0947876,0.20721436,1.8125,-1.78125,1.4375,385
1695653671886,0.09033203,-0.9783325,0.1564331,7.6875,-0.71875,3.78125,386
1695653671926,0.0949707,-0.8694458,0.16278076,3.296875,-8.484375,3.25,387
1695653671966,0.1081543,-0.9993286,0.018737793,1.046875,0.046875,-0.578125,388
1695653672006,0.040039062,-1.0713501,0.16229248,-9.0625,-2.265625,-2.125,389
1695653672046,0.03564453,-1.0877075,0.16741943,0.65625,2.140625,-2.1875,390
1695653672086,0.04663086,-0.9710083,0.19134521,10.0,0.8125,5.703125,391
1695653672126,0.09301758,-0.8206177,0.06829834,0.859375,1.78125,3.734375,392
1695653672166,0.099365234,-1.0623169,0.12005615,-3.5625,5.03125,-2.9375,393
1695653672206,0.025634766,-1.0803833,0.15740967,-0.4375,-0.5625,0.953125,394
1695653672246,0.075927734,-0.9846802,0.16497803,6.828125,2.46875,5.875,395
1695653672286,0.12109375,-0.8850708,0.06903076,-0.0625,1.234375,3.21875,396
1695653672326,0.099853516,-1.0200806,0.13861084,-4.78125,-0.328125,-2.5,397
1695653672366,0.021484375,-1.0806274,0.1408081,-2.8125,-1.109375,-0.09375,398
1695653672406,0.071777344,-1.0261841,0.15716553,7.109375,0.984375,1.921875,399
1695653672446,0.10644531,-0.85772705,0.12176514,3.015625,-4.046875,3.75,400
1695653672486,0.13305664,-0.9805298,0.10760498,-8.890625,-1.234375,-4.375,401
1695653672526,-0.06298828,-1.0923462,0.15985107,-3.796875,-3.078125,-2.859375,402
1695653672566,0.060791016,-1.0635376,0.16888428,3.453125,4.21875,0.5,403
1695653672606,0.12036133,-0.9273071,0.15594482,0.71875,-2.8125,3.328125,404
1695653672646,0.12524414,-0.9026489,0.09637451,-3.171875,-2.53125,-0.796875,405
1695653672686,0.0031738281,-1.0125122,0.15863037,-2.453125,-3.65625,-2.703125,406
1695653672726,0.009765625,-1.0366821,0.18182373,3.890625,-2.140625,2.09375,407
1695653672766,0.13671875,-1.0122681,0.1395874,3.890625,-5.546875,4.546875,408
1695653672806,0.08886719,-0.93096924,0.16864014,7.65625,-15.125,3.40625,409
1695653672846,0.0546875,-1.0247192,0.11590576,11.203125,-13.078125,-2.578125,410
1695653672886,0.080322266,-1.1231079,-0.12310791,6.25,9.953125,-2.078125,411
1695653672926,0.19067383,-0.9939575,0.03729248,-10.953125,8.90625,-0.90625,412
1695653672966,0.047607422,-0.9898071,0.22894287,-9.640625,-7.5625,-2.1875,413
1695653673006,-0.03491211,-0.88238525,0.22210693,-2.359375,-2.171875,7.140625,414
1695653673046,0.06958008,-0.9829712,0.089782715,-3.53125,-3.46875,3.515625,415
1695653673086,0.05102539,-0.9561157,0.18426514,-16.5,-9.515625,-0.734375,416
1695653673126,0.084472656,-1.1309204,0.22235107,-9.109375,-0.609375,-3.796875,417
1695653673166,0.01171875,-1.0603638,0.11956787,-0.96875,-3.59375,2.25,418
1695653673206,0.11621094,-0.9026489,0.21209717,-11.90625,-3.40625,1.296875,419
1695653673246,0.1665039,-0.9692993,0.15618896,-7.265625,2.75,-6.546875,420
1695653673286,-0.017333984,-0.97369385,0.2711792,0.265625,4.5625,-3.59375,421
1695653673326,-0.018066406,-0.9961548,0.1906128,-3.40625,2.890625,1.875,422
1695653673366,0.06958008,-1.1045532,0.25872803,-4.578125,5.859375,-4.890625,423
1695653673406,0.11694336,-0.8740845,0.18182373,-0.90625,2.109375,0.90625,424
1695653673446,0.0012207031,-0.94244385,0.19281006,6.25,0.21875,3.4375,425
1695653673486,0.0017089844,-0.98565674,0.21209717,-5.140625,6.15625,2.796875,426
1695653673526,0.072509766,-1.1184692,0.23065186,-5.390625,6.640625,-0.640625,427
1695653673566,0.07128906,-0.9541626,0.27215576,3.21875,3.765625,4.203125,428
1695653673606,0.033447266,-0.8772583,0.20062256,10.828125,1.0625,5.921875,429
1695653673646,0.109375,-1.0005493,0.17156982,2.46875,6.40625,-1.28125,430
1695653673686,0.03149414,-1.0493774,0.21185303,9.625,9.40625,-0.078125,431
1695653673726,0.025878906,-1.0620728,0.17376709,4.671875,1.78125,2.671875,432
1695653673766,0.06762695,-0.95196533,0.21966553,-1.921875,-0.78125,1.125,433
1695653673806,0.11645508,-0.9246216,0.19158936,-0.78125,-6.765625,2.578125,434
1695653673846,-0.001953125,-0.96051025,0.24749756,-0.15625,-12.875,1.015625,435
1695653673886,0.032226562,-1.0696411,0.11883545,9.5625,-1.671875,-4.9375,436
1695653673926,0.095703125,-1.0061646,0.15472412,-10.546875,-0.15625,-2.046875,437
1695653673966,0.07885742,-0.9849243,0.20379639,-11.109375,-12.65625,-7.625,438
1695653674006,-0.0061035156,-0.9348755,0.28607178,0.203125,-5.125,1.65625,439
1695653674046,-0.095703125,-0.97979736,0.23236084,5.25,-0.484375,3.9375,440
1695653674086,0.09472656,-1.0112915,0.16082764,-0.421875,9.40625,0.40625,441
1695653674126,0.11303711,-0.96417236,0.21942139,-0.3125,2.890625,-0.421875,442
1695653674166,-0.04663086,-0.9866333,0.260437,3.46875,1.734375,0.140625,443
1695653674206,0.0925293,-1.0881958,0.081970215,7.625,8.890625,2.765625,444
1695653674246,0.17773438,-0.95318604,0.14324951,-1.359375,5.09375,-2.09375,445
1695653674286,-0.010498047,-0.96173096,0.23699951,0.234375,-2.0625,0.28125,446
1695653674326,-0.1303711,-1.0667114,0.29852295,8.953125,2.6875,2.78125,447
1695653674366,0.020996094,-1.0108032,0.1864624,5.5625,5.1875,6.203125,448
1695653674406,0.24682617,-0.9060669,0.073913574,-3.75,9.546875,0.359375,449
1695653674446,0.08959961,-1.0862427,0.17694092,-2.84375,-0.578125,-2.609375,450
1695653674486,-0.008544922,-0.9758911,0.22845459,-4.296875,1.84375,0.484375,451
1695653674526,0.072509766,-0.93341064,0.22454834,4.59375,0.765625,3.625,452
1695653674566,0.11791992,-1.0015259,0.10638428,-4.640625,-3.046875,-1.734375,453
1695653674606,0.12060547,-1.0193481,0.20697021,-4.34375,-6.5625,-4.140625,454
1695653674646,-0.06347656,-0.9331665,0.26678467,1.40625,-11.5625,1.359375,455
1695653674686,-0.099365234,-1.0606079,0.20550537,4.59375,-0.21875,5.96875,456
1695653674726,0.23754883,-0.97198486,0.1317749,0.59375,3.203125,-0.546875,457
1695653674766,0.12426758,-0.9187622,0.20428467,-3.984375,-10.609375,-1.234375,458
1695653674806,-0.18164062,-1.0911255,0.2189331,-2.265625,-5.984375,1.78125,459
1695653674846,0.06689453,-0.97198486,0.23724365,-2.28125,2.875,2.1875,460
1695653674886,0.09057617,-0.9639282,0.20477295,0.9375,-2.15625,0.234375,461
1695653674926,0.004638672,-0.9678345,0.17108154,2.984375,2.703125,1.546875,462
1695653674966,0.084472656,-0.99786377,0.17816162,-4.6875,3.40625,-0.953125,463
1695653675006,0.06933594,-1.0081177,0.21551514,-0.96875,1.1875,-1.859375,464
1695653675046,0.010498047,-0.9690552,0.2189331,4.203125,-0.78125,1.296875,465
1695653675086,0.0063476562,-0.96661377,0.19158936,5.828125,-2.1875,3.59375,466
1695653675126,0.111572266,-1.0164185,0.14959717,-1.609375,1.671875,-0.484375,467
1695653675166,0.048339844,-0.9824829,0.19500732,2.265625,-1.296875,0.328125,468
1695653675206,0.033691406,-0.9800415,0.21575928,4.484375,0.21875,-0.203125,469
1695653675246,0.05444336,-0.897522,0.20941162,13.25,-4.171875,2.46875,470
1695653675286,-0.06518555,-0.9824829,0.17767334,11.015625,-5.25,4.65625,471
1695653675326,0.13476562,-1.1897583,0.0138549805,-1.640625,2.9375,-4.1875,472
1695653675366,0.12646484,-0.9944458,0.054382324,1.984375,8.046875,-1.359375,473
1695653675406,0.051757812,-0.97320557,0.1383667,-10.546875,9.0,-0.453125,474
1695653675446,0.10961914,-1.1358032,0.17059326,-10.40625,0.9375,-4.15625,475
1695653675486,0.038330078,-0.923645,0.29901123,-5.25,-11.03125,2.578125,476
1695653675526,0.06298828,-0.9458618,0.16937256,1.578125,-9.390625,2.3125,477
1695653675566,-0.033691406,-0.9668579,0.17279053,-8.359375,-9.1875,1.65625,478
1695653675606,0.11230469,-1.0584106,0.21551514,-7.046875,-9.25,-1.828125,479
1695653675646,-0.014892578,-1.0327759,0.20550537,-8.828125,-10.484375,-3.90625,480
1695653675686,-0.0024414062,-0.85357666,0.24383545,-1.984375,-7.296875,3.171875,481
1695653675726,0.009521484,-0.92803955,0.262146,7.640625,-10.28125,7.6875,482
1695653675766,0.004638672,-1.0840454,0.22650146,3.734375,-7.578125,-0.953125,483
1695653675806,0.1237793,-0.8735962,0.14788818,1.578125,10.09375,2.96875,484
1695653675846,0.013427734,-1.1096802,0.1593628,4.8125,6.140625,-1.65625,485
1695653675886,0.07861328,-0.9859009,0.12030029,-7.546875,1.0625,-1.90625,486
1695653675926,0.012207031,-0.9685669,0.3156128,-1.765625,0.125,2.265625,487
1695653675966,-0.091308594,-0.9446411,0.2970581,7.46875,-4.890625,5.0,488
1695653676006,-0.09448242,-0.9536743,0.18865967,11.359375,6.359375,6.5,489
1695653676046,0.25195312,-1.0181274,0.18011475,0.875,8.359375,-1.9375,490
1695653676086,-0.099853516,-1.0654907,0.16131592,3.125,4.4375,0.75,491
1695653676126,0.025146484,-0.9512329,0.20159912,4.546875,4.703125,5.078125,492
1695653676166,0.025390625,-0.84991455,0.2387085,8.171875,-6.375,11.609375,493
1695653676206,0.07739258,-0.88067627,0.15887451,13.921875,-11.71875,14.140625,494
1695653676246,0.080322266,-1.0830688,0.137146,10.953125,-12.203125,4.171875,495
1695653676286,0.05102539,-1.1902466,0.13690186,-3.1875,-11.6875,-1.140625,496
1695653676326,0.12597656,-1.0982056,0.11590576,-0.5,-5.015625,0.3125,497
1695653676366,0.15673828,-0.9788208,0.090026855,-1.71875,-2.203125,-2.40625,498
1695653676406,0.12817383,-0.9702759,0.0836792,2.515625,0.109375,-1.6875,499
1695653676446,0.09399414,-0.9673462,0.15814209,-0.765625,1.15625,-0.234375,500
1695653676486,0.05419922,-0.9890747,0.1593628,-1.59375,1.046875,-0.90625,501
1695653676526,0.025390625,-1.0154419,0.15692139,0.1875,0.5625,-0.71875,502
1695653676566,0.068603516,-0.9985962,0.13397217,2.953125,-1.265625,-1.4375,503
1695653676606,0.076660156,-0.9795532,0.12347412,2.546875,-0.234375,-0.984375,504
1695653676646,0.08081055,-0.96661377,0.097595215,-1.03125,-0.0625,0.265625,505
1695653676686,0.0715332,-1.0142212,0.055603027,-17.203125,3.4375,-2.25,506
1695653676726,0.17114258,-1.1397095,-0.017150879,1.8125,-0.96875,-10.109375,507
1695653676766,-0.057861328,-0.78619385,0.38616943,-6.84375,1.3125,0.28125,508
1695653676806,0.0793457,-0.89141846,0.19281006,-12.125,7.265625,0.140625,509
1695653676846,0.008544922,-1.1148071,0.24847412,-2.0,-1.640625,-1.328125,510
1695653676886,0.040527344,-0.9883423,0.15716553,8.171875,-0.25,3.90625,511
1695653676926,0.0126953125,-0.9109497,0.13739014,3.078125,8.09375,-0.890625,512
1695653676966,0.14282227,-1.0418091,0.13421631,-4.96875,8.65625,0.75,513
1695653677006,0.043701172,-1.0986938,0.20599365,-8.609375,5.9375,-6.21875,514
1695653677046,0.057128906,-0.95196533,0.20599365,-3.15625,-0.34375,0.203125,515
1695653677086,-0.027832031,-0.9043579,0.2994995,9.546875,-3.4375,5.625,516
1695653677126,0.017578125,-0.92071533,0.1383667,0.640625,1.0,2.546875,517
1695653677166,-0.055664062,-1.2024536,0.24139404,-5.203125,1.265625,-1.5625,518
1695653677206,0.17407227,-0.99664307,0.15081787,-7.25,3.78125,-3.3125,519
1695653677246,0.033935547,-0.956604,0.32855225,8.765625,-0.40625,3.796875,520
1695653677286,-0.011230469,-0.8179321,0.11663818,-1.734375,-3.265625,6.8125,521
1695653677326,0.051513672,-1.0610962,0.23919678,-2.65625,0.984375,-4.5,522
1695653677366,0.115722656,-1.0650024,0.2074585,-4.453125,-0.984375,0.171875,523
1695653677406,-0.016601562,-1.0159302,0.27972412,6.890625,-2.421875,2.03125,524
1695653677446,0.02368164,-0.87628174,0.19012451,5.0625,-4.140625,4.140625,525
1695653677486,0.10913086,-0.9241333,0.18426514,3.171875,4.9375,0.84375,526
1695653677526,-0.043701172,-1.0332642,0.21014404,8.40625,4.375,1.828125,527
1695653677566,-0.022705078,-1.0466919,0.19671631,8.234375,8.484375,6.078125,528
1695653677606,0.11303711,-0.98028564,0.1696167,9.84375,-0.359375,8.703125,529
1695653677646,0.1459961,-0.90704346,0.18182373,7.859375,-10.484375,6.140625,530
1695653677686,0.1105957,-1.0015259,0.0836792,3.703125,-5.734375,-0.953125,531
1695653677726,0.07885742,-1.1365356,0.113464355,-1.609375,-1.0,-4.234375,532
1695653677766,0.09838867,-1.0322876,0.14349365,0.8125,-2.328125,-5.8125,533
1695653677806,0.020751953,-0.9470825,0.18499756,-2.109375,-3.5,-2.03125,534
1695653677846,0.015136719,-0.9109497,0.18377686,-1.546875,-4.71875,1.515625,535
1695653677886,0.043701172,-0.9500122,0.19940186,2.578125,-5.5,2.328125,536
1695653677926,0.0048828125,-1.0557251,0.10369873,7.0625,-4.1875,5.984375,537
1695653677966,0.0625,-1.0877075,0.113464355,5.140625,-3.359375,4.546875,538
1695653678006,0.13647461,-0.9981079,0.11273193,2.046875,-2.71875,2.390625,539
1695653678046,0.092285156,-0.9324341,0.14764404,-1.015625,1.171875,1.015625,540
1695653678086,0.048339844,-0.9795532,0.1720581,2.9375,2.390625,0.4375,541
1695653678126,0.04638672,-1.0186157,0.09564209,3.484375,-1.515625,1.796875,542
1695653678166,0.08203125,-1.0261841,0.08734131,3.515625,-1.953125,0.78125,543
1695653678206,0.09741211,-0.97735596,0.11151123,-4.96875,-1.625,-0.234375,544
1695653678246,0.0847168,-0.9819946,0.04852295,-17.015625,-0.28125,-4.15625,545
1695653678286,0.09716797,-1.1226196,0.16448975,-7.609375,2.046875,-7.953125,546
1695653678326,-0.051757812,-0.8399048,0.27288818,-4.34375,0.046875,1.578125,547
1695653678366,0.07373047,-0.96661377,0.23358154,-5.859375,5.5625,1.671875,548
1695653678406,0.015625,-1.0669556,0.124938965,3.09375,-1.28125,0.578125,549
1695653678446,0.07104492,-1.0195923,0.15374756,-3.703125,7.21875,-1.03125,550
1695653678486,0.09375,-0.9824829,0.18890381,-5.703125,6.0625,-3.28125,551
1695653678526,0.03564453,-1.0230103,0.27630615,0.5,4.25,-1.125,552
1695653678566,-0.018310547,-0.91192627,0.16619873,2.8125,-4.34375,6.390625,553
1695653678606,0.11010742,-0.97979736,0.19622803,-2.5,5.234375,-3.328125,554
1695653678646,-0.014160156,-1.0293579,0.22454834,-2.609375,0.671875,0.609375,555
1695653678686,0.064453125,-1.0640259,0.21087646,5.890625,4.234375,-0.796875,556
1695653678726,0.06274414,-0.91119385,0.21917725,-2.484375,-1.453125,5.09375,557
1695653678766,0.12817383,-0.95440674,0.17523193,-1.515625,1.25,-0.890625,558
1695653678806,-0.04248047,-0.9783325,0.22479248,-1.1875,0.1875,1.484375,559
1695653678846,0.045166016,-1.0432739,0.21575928,-0.46875,5.078125,0.65625,560
1695653678886,0.08862305,-1.0464478,0.22625732,6.296875,2.46875,1.265625,561
1695653678926,0.026855469,-0.8587036,0.23968506,14.625,-3.1875,7.65625,562
1695653678966,0.0234375,-0.90802,0.06121826,10.796875,0.9375,7.578125,563
1695653679006,0.10986328,-1.0994263,0.15374756,2.1875,4.796875,-1.75,564
1695653679046,0.08496094,-1.1360474,0.16400146,0.484375,-0.515625,-1.453125,565
1695653679086,0.076660156,-0.9697876,0.14300537,2.046875,-0.484375,0.28125,566
1695653679126,0.045654297,-0.87457275,0.18328857,7.0625,-5.703125,5.015625,567
1695653679166,0.080566406,-0.90216064,0.17254639,10.5,-11.28125,5.25,568
1695653679206,0.07763672,-1.0447388,0.11053467,7.125,-10.671875,4.078125,569
1695653679246,0.06347656,-1.1838989,0.09954834,4.046875,-4.671875,2.25,570
1695653679286,0.11425781,-1.0132446,0.08465576,-0.3125,-7.375,-1.390625,571
1695653679326,0.079833984,-0.88531494,0.116882324,-0.765625,-3.859375,-0.375,572
1695653679366,0.07519531,-0.92315674,0.14666748,-0.3125,-1.734375,-0.25,573
1695653679406,0.037109375,-1.0474243,0.11077881,2.953125,-0.625,1.21875,574
1695653679446,0.05126953,-1.065979,0.10101318,4.25,-0.6875,1.625,575
1695653679486,0.068603516,-1.0281372,0.11566162,1.703125,1.640625,1.0,576
1695653679526,0.068847656,-0.94415283,0.11199951,2.03125,3.203125,0.875,577
1695653679566,0.07885742,-0.92559814,0.105163574,-4.015625,1.671875,1.328125,578
1695653679606,0.09350586,-0.98760986,0.12298584,-2.53125,2.859375,0.5625,579
1695653679646,0.119140625,-1.0215454,0.101501465,-9.03125,0.890625,-0.84375,580
1695653679686,0.09301758,-1.0264282,0.1618042,-5.15625,0.296875,-0.6875,581
1695653679726,0.05419922,-1.0540161,0.08319092,-13.484375,2.78125,-2.890625,582
1695653679766,0.06298828,-1.0769653,0.18963623,-12.890625,-10.3125,-8.03125,583
1695653679806,0.07373047,-0.7661743,0.1828003,-2.296875,4.28125,4.515625,584
1695653679846,-0.0063476562,-1.0567017,0.25506592,-6.453125,0.96875,-2.859375,585
1695653679886,0.028564453,-1.0596313,0.2008667,7.96875,1.703125,-0.078125,586
1695653679926,0.01586914,-0.92266846,0.13519287,2.59375,6.96875,5.84375,587
1695653679966,0.07543945,-0.8945923,0.12957764,-0.578125,8.4375,-0.21875,588
1695653680006,0.044189453,-1.0230103,0.20233154,-5.25,3.921875,3.0625,589
1695653680046,0.08618164,-1.0877075,0.1720581,-3.828125,3.09375,1.09375,590
1695653680086,0.06225586,-1.0371704,0.19573975,-2.734375,-1.015625,-0.25,591
1695653680126,0.072753906,-0.8928833,0.27044678,6.203125,0.703125,3.375,592
1695653680166,0.055664062,-0.9561157,0.0836792,6.1875,-2.25,1.78125,593
1695653680206,0.03466797,-1.0496216,0.1329956,-5.109375,4.078125,-1.90625,594
1695653680246,0.122558594,-1.1011353,0.19451904,-8.640625,0.453125,-1.4375,595
1695653680286,-0.0073242188,-0.92974854,0.21575928,-5.203125,-2.109375,0.484375,596
1695653680326,0.09863281,-0.90826416,0.20037842,7.03125,2.390625,2.171875,597
1695653680366,0.009765625,-0.9417114,0.1461792,-0.703125,0.203125,2.859375,598
1695653680406,0.14257812,-1.1087036,0.16107178,-5.8125,3.765625,-2.359375,599
1695653680446,0.009277344,-1.0186157,0.25091553,-3.90625,-2.6875,2.765625,600
1695653680486,0.0871582,-0.8687134,0.21380615,4.671875,2.109375,3.0625,601
1695653680526,0.0637207,-0.9541626,0.14251709,8.140625,-1.53125,1.96875,602
1695653680566,0.067871094,-1.0498657,0.16864014,2.515625,7.484375,1.875,603
1695653680606,0.09814453,-1.1187134,0.19085693,-2.015625,3.390625,-3.171875,604
1695653680646,0.036376953,-0.9338989,0.21917725,2.03125,-3.0,1.171875,605
1695653680686,0.028564453,-0.89727783,0.20233154,6.359375,-5.875,2.625,606
1695653680726,0.020751953,-0.9614868,0.124938965,7.046875,1.84375,3.125,607
1695653680766,0.1237793,-1.0737915,0.113464355,-1.0,4.890625,1.125,608
1695653680806,0.11743164,-1.0994263,0.15252686,-2.328125,0.015625,-1.328125,609
1695653680846,0.009277344,-0.88653564,0.19036865,1.859375,-3.90625,4.03125,610
1695653680886,0.092041016,-0.8826294,0.16595459,5.578125,-1.328125,2.296875,611
1695653680926,0.039794922,-1.0108032,0.13079834,0.5,0.671875,1.59375,612
1695653680966,0.052001953,-1.114563,0.16888428,2.046875,0.078125,1.0625,613
1695653681006,0.14672852,-1.0610962,0.14520264,0.640625,-3.1875,0.921875,614
1695653681046,0.05444336,-0.8826294,0.13983154,1.90625,-8.921875,4.875,615
1695653681086,0.099365234,-0.8508911,0.16229248,5.125,-11.265625,4.3125,616
1695653681126,0.091308594,-1.038147,0.13153076,13.453125,-12.4375,2.953125,617
1695653681166,0.0017089844,-1.1489868,0.101501465,14.828125,-1.515625,2.140625,618
1695653681206,0.08325195,-1.0767212,0.121276855,7.84375,-1.59375,1.171875,619
1695653681246,0.1237793,-0.9512329,0.07537842,6.046875,-0.796875,-0.625,620
1695653681286,0.11254883,-0.90704346,0.041931152,-1.640625,0.3125,0.0,621
1695653681326,0.07006836,-0.97979736,0.097351074,-1.953125,-1.1875,0.65625,622
1695653681366,0.07739258,-0.9976196,0.12615967,-1.21875,0.40625,0.90625,623
1695653681406,0.12792969,-0.99176025,0.058044434,-7.0,-0.265625,-0.859375,624
1695653681446,0.103515625,-1.0249634,0.070739746,-8.1875,-0.9375,-1.015625,625
1695653681486,0.06640625,-1.0252075,0.04852295,-13.765625,1.0,-0.625,626
1695653681526,0.12451172,-1.0715942,0.14691162,-4.75,0.125,-6.375,627
1695653681566,0.01928711,-0.8135376,0.24285889,-2.75,-1.71875,0.953125,628
1695653681606,0.09033203,-1.0300903,0.21478271,-5.609375,4.171875,2.09375,629
1695653681646,-0.01953125,-1.0786743,0.113708496,5.59375,-4.140625,1.28125,630
1695653681686,0.1394043,-0.96588135,0.14154053,2.78125,4.09375,2.171875,631
1695653681726,0.08203125,-1.0012817,0.11956787,-2.75,-3.6875,2.125,632
1695653681766,0.01977539,-1.0393677,0.22503662,-3.234375,0.53125,-4.3125,633
1695653681806,0.14282227,-0.9570923,0.2020874,-2.859375,2.078125,0.125,634
1695653681846,-0.055908203,-0.9307251,0.10491943,1.21875,-7.234375,3.890625,635
1695653681886,0.11010742,-0.9793091,0.11810303,-5.90625,2.21875,0.4375,636
1695653681926,0.08569336,-1.1074829,0.17303467,-2.140625,2.1875,-3.796875,637
1695653681966,0.07446289,-0.9763794,0.19647217,0.453125,1.875,-2.0,638
1695653682006,0.00390625,-0.90167236,0.23504639,5.75,-0.546875,2.40625,639
1695653682046,0.053710938,-0.8804321,0.09515381,-0.421875,-3.015625,7.296875,640
1695653682086,0.11669922,-1.0994263,0.22039795,-6.875,1.765625,-3.1875,641
1695653682126,0.025390625,-0.9949341,0.14935303,-5.265625,2.421875,1.125,642
1695653682166,0.079833984,-0.9973755,0.1786499,-6.140625,5.453125,-1.078125,643
1695653682206,0.091552734,-0.9602661,0.246521,-1.578125,4.15625,1.3125,644
1695653682246,0.05126953,-0.9182739,0.20306396,10.75,8.1875,4.625,645
1695653682286,0.037597656,-1.0193481,0.17352295,13.40625,12.96875,5.3125,646
1695653682326,0.05419922,-1.0388794,0.15301514,7.578125,3.609375,0.125,647
1695653682366,0.122802734,-1.0357056,0.15594482,1.6875,-0.21875,-0.9375,648
1695653682406,0.09008789,-0.94976807,0.1593628,-2.1875,-5.96875,1.421875,649
1695653682446,0.04711914,-0.8936157,0.17889404,5.46875,-12.953125,4.953125,650
1695653682486,0.08325195,-0.9729614,0.13226318,-1.34375,-14.390625,6.609375,651
1695653682526,0.103271484,-1.0911255,0.14227295,-2.953125,-9.9375,2.265625,652
1695653682566,0.09106445,-1.0618286,0.14666748,-5.171875,-10.703125,-0.75,653
1695653682606,0.11669922,-0.9932251,0.19989014,0.0,-9.359375,0.359375,654
1695653682646,0.11279297,-0.97198486,0.13250732,6.9375,-1.484375,2.28125,655
1695653682686,0.08544922,-1.0073853,0.13006592,1.71875,0.015625,1.34375,656
1695653682726,0.064453125,-1.003479,0.13885498,5.359375,-1.984375,1.4375,657
1695653682766,0.10961914,-0.9817505,0.14666748,3.15625,0.15625,0.328125,658
1695653682806,0.09375,-0.9937134,0.13934326,1.09375,2.71875,-1.265625,659
1695653682846,0.05517578,-0.99591064,0.13323975,0.59375,1.140625,-1.46875,660
1695653682886,0.07495117,-1.0020142,0.11419678,3.515625,0.875,-0.125,661
1695653682926,0.10522461,-0.95269775,0.086120605,-0.859375,0.984375,0.078125,662
1695653682966,0.10229492,-0.97979736,0.10003662,-8.90625,0.0,-2.5625,663
1695653683006,0.10205078,-1.0125122,0.08343506,-13.21875,2.34375,-1.59375,664
1695653683046,0.11645508,-1.1873169,0.19158936,-5.28125,0.28125,-6.890625,665
1695653683086,-0.02734375,-0.78302,0.27386475,-4.359375,6.75,-3.484375,666
1695653683126,0.079589844,-0.9024048,0.25360107,-6.53125,4.015625,0.484375,667
1695653683166,-0.055908203,-1.071106,0.20941162,10.734375,-1.109375,4.8125,668
1695653683206,0.11279297,-0.96173096,0.11444092,4.6875,2.96875,3.765625,669
1695653683246,0.09692383,-1.0730591,0.12445068,-3.0,-1.9375,-0.5,670
1695653683286,0.11987305,-1.0664673,0.16766357,-0.328125,4.34375,-6.796875,671
1695653683326,0.060302734,-0.9241333,0.20477295,-1.65625,0.375,0.375,672
1695653683366,0.029785156,-0.8753052,0.2753296,8.5,-2.140625,2.03125,673
1695653683406,-0.012939453,-0.88531494,0.1227417,9.21875,-2.21875,6.421875,674
1695653683446,0.1538086,-1.0925903,0.13031006,-6.53125,2.5625,-0.734375,675
1695653683486,0.056152344,-1.0823364,0.18695068,-6.796875,8.421875,-1.171875,676
1695653683526,0.068603516,-0.96343994,0.18084717,-3.796875,3.21875,2.203125,677
1695653683566,0.06347656,-0.88946533,0.2518921,1.53125,3.4375,4.140625,678
1695653683606,0.04663086,-0.95806885,0.16912842,17.0,5.375,2.71875,679
1695653683646,0.044189453,-1.0401001,0.16156006,10.015625,3.109375,5.265625,680
1695653683686,0.107421875,-1.0803833,0.1317749,1.046875,-1.109375,-1.15625,681
1695653683726,0.119628906,-0.9717407,0.16766357,1.34375,-4.796875,0.5625,682
1695653683766,0.024658203,-0.8897095,0.13470459,7.296875,-10.171875,5.515625,683
1695653683806,0.08251953,-0.9614868,0.113708496,3.59375,-1.9375,2.046875,684
1695653683846,0.10620117,-1.0886841,0.15106201,0.125,2.234375,-0.015625,685
1695653683886,0.060546875,-1.048645,0.17596436,4.25,-0.328125,1.625,686
1695653683926,0.08276367,-1.0010376,0.093444824,-0.8125,-2.125,-0.375,687
1695653683966,0.09643555,-0.9458618,0.121032715,2.359375,-3.109375,1.875,688
1695653684006,0.08203125,-0.9631958,0.17547607,10.90625,-5.296875,1.796875,689
1695653684046,0.064941406,-1.0098267,0.116882324,6.625,-7.96875,2.4375,690
1695653684086,0.09716797,-1.053772,0.07513428,3.3125,-7.09375,1.328125,691
1695653684126,0.107177734,-1.0232544,0.06536865,4.90625,-3.3125,0.046875,692
1695653684166,0.080322266,-0.94122314,0.09637451,1.734375,-1.28125,-0.078125,693
1695653684206,0.07788086,-0.975647,0.109069824,-1.359375,0.921875,-0.84375,694
1695653684246,0.068603516,-1.0147095,0.09710693,-1.0,1.265625,-0.34375,695
1695653684286,0.08300781,-0.9795532,0.08343506,-1.8125,2.109375,0.28125,696
1695653684326,0.08569336,-0.9951782,0.09832764,-7.859375,1.109375,0.71875,697
1695653684366,0.103027344,-0.99591064,0.12322998,-7.859375,-0.21875,-0.09375,698
1695653684406,0.095214844,-1.0471802,0.015563965,-14.734375,6.0625,-3.25,699
1695653684446,0.024414062,-1.0405884,0.34710693,-17.375,0.8125,-7.09375,700
1695653684486,0.16601562,-0.82476807,0.12298584,-7.46875,4.671875,0.859375,701
1695653684526,-0.05029297,-1.041565,0.24993896,3.59375,-0.140625,0.96875,702
1695653684566,0.04321289,-0.9338989,0.13006592,4.734375,-0.34375,5.4375,703
1695653684606,0.14257812,-1.065979,0.06854248,-4.265625,0.90625,-0.28125,704
1695653684646,0.051757812,-1.123352,0.23431396,-1.75,3.40625,-8.90625,705
1695653684686,0.08544922,-0.8508911,0.14642334,-2.609375,1.078125,-0.28125,706
1695653684726,0.04272461,-0.91607666,0.293396,9.0,-0.875,2.828125,707
1695653684766,-0.05908203,-0.9771118,0.02532959,12.265625,-1.640625,6.875,708
1695653684806,0.19311523,-1.0857544,0.101989746,-7.515625,6.0625,-1.5625,709
1695653684846,0.05493164,-1.1765747,0.15789795,-15.078125,3.046875,-2.453125,710
1695653684886,0.08984375,-0.9417114,0.19403076,-3.109375,5.359375,-5.015625,711
1695653684926,0.025390625,-0.81500244,0.23895264,-1.890625,-0.1875,5.15625,712
1695653684966,0.020263672,-0.9524536,0.2748413,12.5625,-2.125,6.0,713
1695653685006,-0.01977539,-0.97052,0.12445068,10.375,2.453125,10.28125,714
1695653685046,0.15234375,-1.149231,0.06976318,7.1875,9.90625,3.140625,715
1695653685086,0.12231445,-1.0540161,0.13250732,-3.921875,2.875,-0.5625,716
1695653685126,0.071777344,-0.8916626,0.15911865,0.25,-0.734375,0.984375,717
1695653685166,0.032714844,-0.89727783,0.17156982,3.03125,-2.71875,4.125,718
1695653685206,0.08251953,-0.99102783,0.12591553,3.109375,-0.984375,3.9375,719
1695653685246,0.09814453,-1.1065063,0.13812256,0.609375,0.0625,3.265625,720
1695653685286,0.13793945,-1.0369263,0.1618042,2.890625,-5.21875,1.6875,721
1695653685326,0.09350586,-0.944397,0.10296631,1.046875,-4.21875,0.046875,722
1695653685366,0.08959961,-0.91900635,0.11639404,0.078125,-4.421875,2.03125,723
1695653685406,0.07885742,-1.0066528,0.14544678,0.59375,-3.390625,0.734375,724
1695653685446,0.08300781,-1.0586548,0.13787842,0.484375,-1.96875,1.734375,725
1695653685486,0.103027344,-1.0298462,0.15985107,3.09375,-4.375,0.359375,726
1695653685526,0.071777344,-0.9470825,0.1515503,10.828125,-7.046875,1.109375,727
1695653685566,0.064941406,-0.9360962,0.13323975,11.953125,-8.6875,2.046875,728
1695653685606,0.1003418,-1.0039673,0.105407715,4.8125,-8.625,2.390625,729
1695653685646,0.107421875,-1.0405884,0.09051514,-3.75,-6.171875,0.9375,730
1695653685686,0.119628906,-0.9961548,0.11444092,-1.5,-2.953125,-0.140625,731
1695653685726,0.10522461,-0.9817505,0.097839355,3.4375,-0.75,1.0,732
1695653685766,0.075927734,-1.0066528,0.06854248,3.078125,-3.40625,0.109375,733
1695653685806,0.08129883,-1.0112915,0.1005249,2.4375,-1.984375,-0.265625,734
1695653685846,0.08300781,-0.9859009,0.09124756,0.875,0.203125,0.015625,735
1695653685886,0.08154297,-0.96881104,0.07928467,-3.46875,1.09375,-1.0,736
1695653685926,0.087890625,-0.99224854,0.0836792,-6.390625,0.0625,-1.734375,737
1695653685966,0.09741211,-1.006897,0.12420654,-6.390625,1.328125,-1.421875,738
1695653686006,0.06762695,-1.0115356,0.09637451,-5.75,4.09375,0.015625,739
1695653686046,0.10473633,-1.067688,-0.020080566,-7.609375,5.90625,-6.234375,740
1695653686086,0.04272461,-0.9998169,0.32147217,-20.21875,8.84375,-11.640625,741
1695653686126,0.083984375,-0.77716064,0.18182373,-4.59375,4.921875,5.296875,742
1695653686166,0.03881836,-1.0256958,0.27874756,-1.53125,3.8125,0.15625,743
1695653686206,0.0036621094,-1.0518188,0.13934326,12.53125,0.953125,5.734375,744
1695653686246,0.12451172,-1.0303345,0.07513428,-3.125,2.46875,2.296875,745
1695653686286,0.13745117,-1.0420532,0.15325928,-4.421875,7.109375,-6.921875,746
1695653686326,0.0703125,-0.9151001,0.17181396,-4.4375,1.78125,0.96875,747
1695653686366,0.04736328,-0.9307251,0.25531006,9.46875,-6.265625,3.234375,748
1695653686406,-0.016113281,-0.9260864,0.08929443,-2.25,0.890625,5.640625,749
1695653686446,0.06542969,-1.185852,0.15374756,-8.15625,0.28125,-1.140625,750
1695653686486,0.12646484,-1.0496216,0.199646,-6.9375,4.609375,-3.921875,751
1695653686526,0.08154297,-0.9175415,0.16619873,-3.671875,3.46875,-0.921875,752
1695653686566,-0.016357422,-0.9224243,0.2074585,10.25,-3.34375,5.203125,753
1695653686606,0.05883789,-0.923645,0.10662842,1.640625,6.265625,3.921875,754
1695653686646,0.109375,-1.1726685,0.16864014,-8.21875,3.96875,-5.40625,755
1695653686686,0.042236328,-0.9993286,0.18988037,-3.453125,3.625,0.546875,756
1695653686726,0.087646484,-0.91485596,0.25091553,3.484375,2.578125,2.59375,757
1695653686766,0.041015625,-0.8574829,0.17596436,7.328125,-7.0625,5.734375,758
1695653686806,-0.017089844,-0.98516846,0.09832764,9.65625,-1.40625,4.078125,759
1695653686846,0.076416016,-1.1670532,0.17767334,12.28125,2.9375,4.484375,760
1695653686886,0.17773438,-1.0320435,0.11419678,1.0625,-2.0,2.328125,761
1695653686926,0.09448242,-0.9439087,0.113464355,0.28125,-1.640625,-3.0,762
1695653686966,0.022705078,-0.9182739,0.15130615,2.984375,-5.3125,1.78125,763
1695653687006,0.064697266,-0.9585571,0.1552124,5.8125,-7.078125,2.234375,764
1695653687046,0.09375,-1.0772095,0.09564209,0.46875,-5.09375,2.1875,765
1695653687086,0.0859375,-1.0794067,0.12200928,0.140625,-4.421875,1.359375,766
1695653687126,0.0847168,-0.97491455,0.11810303,2.53125,-6.9375,0.828125,767
1695653687166,0.10839844,-0.9668579,0.09539795,2.78125,-3.984375,1.734375,768
1695653687206,0.1015625,-1.0046997,0.13446045,5.234375,-2.578125,0.328125,769
1695653687246,0.0871582,-1.0073853,0.08807373,1.828125,-1.359375,0.234375,770
