,timestamp,accel_x,accel_y,accel_z,gyro_x,gyro_y,gyro_z,mag_x,mag_y,mag_z,ind
0,1695991862251,-0.9785156,-0.10644531,-0.0859375,-0.4375,-0.3125,-0.5,0.0,0.0,0.0,36
1,1695991862291,-0.9902344,-0.07714844,-0.08886719,1.40625,-0.25,-0.5,0.0,0.0,0.0,37
2,1695991862331,-0.9892578,-0.08886719,-0.091796875,1.21875,-0.34375,0.0,0.0,0.0,0.0,38
3,1695991862371,-0.98339844,-0.09472656,-0.09765625,2.3125,-0.40625,0.28125,0.0,0.0,0.0,39
4,1695991862411,-0.9873047,-0.09765625,-0.11035156,2.75,-0.3125,-0.0625,0.0,0.0,0.0,40
5,1695991862451,-0.9794922,-0.0859375,-0.08105469,1.09375,-0.40625,0.03125,-26.125,-51.3125,-29.25,41
6,1695991862491,-0.9863281,-0.08105469,-0.0859375,1.21875,-0.53125,0.15625,0.0,0.0,0.0,42
7,1695991862531,-0.9794922,-0.09082031,-0.09667969,1.09375,-0.3125,0.0,0.0,0.0,0.0,43
8,1695991862571,-1.0019531,-0.087890625,-0.09667969,0.65625,-0.25,-0.375,0.0,0.0,0.0,44
9,1695991862611,-1.0,-0.09082031,-0.1015625,0.25,-0.59375,-0.1875,0.0,0.0,0.0,45
10,1695991862651,-0.99609375,-0.0859375,-0.0859375,0.1875,-1.15625,-0.0625,0.0,0.0,0.0,46
11,1695991862691,-0.9824219,-0.09277344,-0.10546875,-1.59375,-1.28125,-0.5625,0.0,0.0,0.0,47
12,1695991862731,-0.98828125,-0.09082031,-0.083984375,-1.15625,-0.71875,-0.5,0.0,0.0,0.0,48
13,1695991862771,-0.9892578,-0.091796875,-0.09667969,0.65625,-0.40625,0.09375,0.0,0.0,0.0,49
14,1695991862811,-0.99609375,-0.08105469,-0.07714844,2.25,0.125,0.59375,0.0,0.0,0.0,50
15,1695991862851,-0.9951172,-0.08105469,-0.10253906,1.09375,-0.125,0.28125,0.0,0.0,0.0,51
16,1695991862891,-0.9863281,-0.06738281,-0.08203125,-0.3125,-0.34375,-0.5625,0.0,0.0,0.0,52
17,1695991862931,-0.9824219,-0.10253906,-0.07519531,0.375,-0.46875,0.0,-26.875,-51.0,-28.6875,53
18,1695991862971,-0.984375,-0.09765625,-0.08105469,-0.84375,-0.125,-0.0625,0.0,0.0,0.0,54
19,1695991863011,-0.9863281,-0.095703125,-0.091796875,0.3125,0.0,0.03125,0.0,0.0,0.0,55
20,1695991863051,-0.9892578,-0.09082031,-0.0859375,1.34375,0.375,0.28125,0.0,0.0,0.0,56
21,1695991863091,-0.9921875,-0.099609375,-0.091796875,0.84375,0.3125,0.34375,0.0,0.0,0.0,57
22,1695991863131,-0.9941406,-0.1015625,-0.0859375,0.5625,1.28125,0.09375,0.0,0.0,0.0,58
23,1695991863171,-0.99121094,-0.091796875,-0.0703125,-0.1875,0.625,-0.25,0.0,0.0,0.0,59
24,1695991863211,-0.98535156,-0.10058594,-0.087890625,0.3125,-0.40625,-0.0625,0.0,0.0,0.0,60
25,1695991863251,-0.9902344,-0.10253906,-0.09667969,1.21875,0.125,-0.125,0.0,0.0,0.0,61
26,1695991863291,-0.9863281,-0.09667969,-0.09375,1.15625,0.375,0.03125,0.0,0.0,0.0,62
27,1695991863331,-0.99121094,-0.09765625,-0.09082031,1.40625,0.5625,0.0,0.0,0.0,0.0,63
28,1695991863371,-0.9921875,-0.07519531,-0.08496094,0.0625,0.375,0.03125,0.0,0.0,0.0,64
29,1695991863411,-0.99316406,-0.09863281,-0.083984375,0.4375,0.25,0.0,0.0,0.0,0.0,65
30,1695991863451,-0.99121094,-0.09765625,-0.080078125,-0.375,-0.0625,-0.25,-26.375,-51.75,-27.9375,66
31,1695991863491,-0.9873047,-0.09667969,-0.08984375,-0.78125,0.125,0.03125,0.0,0.0,0.0,67
32,1695991863531,-0.99609375,-0.09863281,-0.09277344,-0.1875,0.5,-0.125,0.0,0.0,0.0,68
33,1695991863571,-0.9902344,-0.09375,-0.099609375,-0.375,0.3125,-0.1875,0.0,0.0,0.0,69
34,1695991863611,-0.9892578,-0.09375,-0.08984375,-0.5,0.125,0.0,0.0,0.0,0.0,70
35,1695991863651,-0.9892578,-0.09375,-0.099609375,0.84375,0.75,0.09375,0.0,0.0,0.0,71
36,1695991863691,-0.99121094,-0.09667969,-0.11035156,-0.375,0.625,0.09375,0.0,0.0,0.0,72
37,1695991863731,-0.9902344,-0.095703125,-0.09863281,-0.625,0.375,-0.1875,0.0,0.0,0.0,73
38,1695991863771,-0.9921875,-0.09667969,-0.08886719,0.0625,0.25,0.03125,0.0,0.0,0.0,74
39,1695991863811,-0.99121094,-0.10253906,-0.09863281,0.0,0.375,0.15625,0.0,0.0,0.0,75
40,1695991863851,-0.9902344,-0.08886719,-0.09472656,-0.6875,0.5,0.0,0.0,0.0,0.0,76
41,1695991863891,-0.9863281,-0.083984375,-0.07128906,-0.5,0.0,0.15625,0.0,0.0,0.0,77
42,1695991863931,-0.984375,-0.09277344,-0.08203125,0.0625,0.375,0.03125,-25.8125,-50.6875,-29.25,78
43,1695991863971,-0.9892578,-0.09375,-0.09667969,0.0625,0.25,0.03125,0.0,0.0,0.0,79
44,1695991864011,-0.98828125,-0.091796875,-0.091796875,0.59375,0.375,0.03125,0.0,0.0,0.0,80
45,1695991864051,-0.9892578,-0.09375,-0.08691406,-0.1875,0.0,0.03125,0.0,0.0,0.0,81
46,1695991864091,-0.98535156,-0.09082031,-0.08496094,0.5625,-0.125,0.0,0.0,0.0,0.0,82
47,1695991864131,-0.98535156,-0.091796875,-0.1015625,-0.0625,-0.25,-0.3125,0.0,0.0,0.0,83
48,1695991864171,-0.99316406,-0.09863281,-0.09375,1.03125,-0.0625,-0.0625,0.0,0.0,0.0,84
49,1695991864211,-0.9814453,-0.08105469,-0.0859375,0.96875,0.0,0.40625,0.0,0.0,0.0,85
50,1695991864251,-0.9892578,-0.08300781,-0.11035156,0.5,0.25,0.09375,0.0,0.0,0.0,86
51,1695991864291,-0.98828125,-0.09667969,-0.09765625,0.125,0.0,0.09375,0.0,0.0,0.0,87
52,1695991864331,-0.98535156,-0.095703125,-0.08300781,-1.34375,-0.125,0.21875,0.0,0.0,0.0,88
53,1695991864371,-0.98535156,-0.09765625,-0.091796875,-0.78125,-0.40625,0.03125,0.0,0.0,0.0,89
54,1695991864411,-0.9970703,-0.09863281,-0.08691406,-0.78125,0.0,0.09375,0.0,0.0,0.0,90
55,1695991864451,-0.9863281,-0.083984375,-0.091796875,-0.90625,0.0,0.03125,-26.5625,-50.8125,-27.75,91
56,1695991864491,-0.9892578,-0.09765625,-0.08691406,-1.21875,-0.40625,0.09375,0.0,0.0,0.0,92
57,1695991864531,-0.98535156,-0.08496094,-0.08886719,-0.3125,-0.125,0.21875,0.0,0.0,0.0,93
58,1695991864571,-0.9941406,-0.09375,-0.091796875,-0.4375,0.0,0.03125,0.0,0.0,0.0,94
59,1695991864611,-0.9951172,-0.080078125,-0.07128906,-1.28125,-0.125,0.09375,0.0,0.0,0.0,95
60,1695991864651,-0.9863281,-0.09277344,-0.0859375,0.4375,-0.40625,0.03125,0.0,0.0,0.0,96
61,1695991864691,-0.98339844,-0.09082031,-0.09667969,-0.4375,-0.34375,-0.125,0.0,0.0,0.0,97
62,1695991864731,-0.9863281,-0.09082031,-0.083984375,-0.125,-0.40625,0.03125,0.0,0.0,0.0,98
63,1695991864771,-0.9921875,-0.08105469,-0.09082031,0.0,-0.34375,0.0,0.0,0.0,0.0,99
64,1695991864811,-0.98535156,-0.087890625,-0.10058594,0.25,-0.59375,0.03125,0.0,0.0,0.0,100
65,1695991864851,-0.99609375,-0.09375,-0.083984375,0.0,-0.53125,0.03125,0.0,0.0,0.0,101
66,1695991864891,-0.9863281,-0.10546875,-0.09863281,0.59375,-0.1875,0.15625,0.0,0.0,0.0,102
67,1695991864931,-0.99902344,-0.0859375,-0.08691406,0.125,-0.46875,0.0,-26.25,-50.5625,-28.8125,103
68,1695991864971,-0.9902344,-0.083984375,-0.080078125,1.34375,-0.40625,0.09375,0.0,0.0,0.0,104
69,1695991865011,-0.98828125,-0.09472656,-0.11230469,0.84375,-0.53125,0.03125,0.0,0.0,0.0,105
70,1695991865051,-0.9902344,-0.08984375,-0.09863281,0.3125,-0.53125,-0.25,0.0,0.0,0.0,106
71,1695991865091,-0.9970703,-0.08984375,-0.07519531,0.65625,-0.78125,0.03125,0.0,0.0,0.0,107
72,1695991865131,-0.984375,-0.08886719,-0.08496094,0.84375,-0.40625,-0.125,0.0,0.0,0.0,108
73,1695991865171,-0.98535156,-0.08886719,-0.08691406,0.0,-0.46875,-0.0625,0.0,0.0,0.0,109
74,1695991865211,-0.99121094,-0.10058594,-0.083984375,0.4375,-0.46875,-0.0625,0.0,0.0,0.0,110
75,1695991865251,-0.9824219,-0.0859375,-0.103515625,0.5,-0.1875,0.03125,0.0,0.0,0.0,111
76,1695991865291,-0.9921875,-0.09765625,-0.08105469,0.0,-0.3125,0.03125,0.0,0.0,0.0,112
77,1695991865331,-0.98828125,-0.08496094,-0.0859375,-0.90625,-0.25,-0.125,0.0,0.0,0.0,113
78,1695991865371,-1.0,-0.09082031,-0.08300781,-0.375,0.125,-0.1875,0.0,0.0,0.0,114
79,1695991865411,-0.9892578,-0.091796875,-0.083984375,-1.21875,-1.09375,0.0,-26.5625,-50.5625,-27.0,115
80,1695991865451,-0.984375,-0.09765625,-0.08984375,-1.21875,-0.65625,-0.25,0.0,0.0,0.0,116
81,1695991865491,-0.98535156,-0.087890625,-0.080078125,-0.75,0.25,-0.375,0.0,0.0,0.0,117
82,1695991865531,-0.9970703,-0.10546875,-0.06933594,-0.25,-0.25,0.0,0.0,0.0,0.0,118
83,1695991865571,-0.98828125,-0.103515625,-0.09082031,-0.25,-0.40625,0.28125,0.0,0.0,0.0,119
84,1695991865611,-0.9873047,-0.09863281,-0.08691406,0.71875,0.1875,-0.1875,0.0,0.0,0.0,120
85,1695991865651,-0.98828125,-0.10058594,-0.08203125,0.78125,0.0625,0.0,0.0,0.0,0.0,121
86,1695991865691,-1.0,-0.09277344,-0.061523438,1.53125,0.25,0.09375,0.0,0.0,0.0,122
87,1695991865731,-0.98339844,-0.09375,-0.07519531,0.25,0.0,-0.125,0.0,0.0,0.0,123
88,1695991865771,-0.98828125,-0.08886719,-0.09863281,0.4375,0.0,0.03125,0.0,0.0,0.0,124
89,1695991865811,-0.99316406,-0.10546875,-0.064453125,0.1875,0.0625,0.03125,0.0,0.0,0.0,125
90,1695991865851,-0.9863281,-0.095703125,-0.0859375,0.1875,0.375,-0.1875,0.0,0.0,0.0,126
91,1695991865891,-0.9921875,-0.09082031,-0.083984375,-0.3125,-0.0625,-0.125,0.0,0.0,0.0,127
92,1695991865931,-0.98535156,-0.09765625,-0.09667969,0.0625,-0.0625,0.15625,-25.5,-51.5625,-28.8125,128
93,1695991865971,-0.9902344,-0.11035156,-0.09667969,0.71875,0.0625,0.15625,0.0,0.0,0.0,129
94,1695991866011,-0.98828125,-0.09667969,-0.080078125,0.0625,0.375,0.09375,0.0,0.0,0.0,130
95,1695991866051,-0.9951172,-0.08984375,-0.078125,0.1875,0.3125,0.03125,0.0,0.0,0.0,131
96,1695991866091,-0.9824219,-0.09863281,-0.08886719,-0.5625,0.0,0.09375,0.0,0.0,0.0,132
97,1695991866131,-0.9863281,-0.09375,-0.08105469,-0.0625,0.125,0.09375,0.0,0.0,0.0,133
98,1695991866171,-0.9824219,-0.103515625,-0.08886719,-0.5625,0.375,0.03125,0.0,0.0,0.0,134
99,1695991866211,-0.9941406,-0.08886719,-0.083984375,0.84375,0.625,0.09375,0.0,0.0,0.0,135
100,1695991866251,-0.99902344,-0.091796875,-0.095703125,-0.4375,0.1875,0.09375,0.0,0.0,0.0,136
101,1695991866291,-0.98339844,-0.09472656,-0.076171875,-0.78125,0.1875,-0.125,0.0,0.0,0.0,137
102,1695991866331,-0.98535156,-0.08984375,-0.09082031,-0.625,0.0,-0.125,0.0,0.0,0.0,138
103,1695991866371,-0.9892578,-0.08886719,-0.08496094,-0.5625,0.375,0.03125,0.0,0.0,0.0,139
104,1695991866411,-0.9892578,-0.095703125,-0.08984375,-0.5,0.3125,0.15625,-27.3125,-51.5625,-28.0625,140
105,1695991866451,-0.9824219,-0.09863281,-0.10058594,-0.625,0.125,0.03125,0.0,0.0,0.0,141
106,1695991866491,-0.9941406,-0.091796875,-0.08691406,-0.75,0.1875,0.0,0.0,0.0,0.0,142
107,1695991866531,-0.9921875,-0.095703125,-0.08203125,-0.0625,0.625,0.21875,0.0,0.0,0.0,143
108,1695991866571,-0.984375,-0.099609375,-0.08496094,-0.4375,0.3125,0.09375,0.0,0.0,0.0,144
109,1695991866611,-0.99609375,-0.09667969,-0.07910156,-0.125,0.5625,0.28125,0.0,0.0,0.0,145
110,1695991866651,-0.99121094,-0.09667969,-0.09375,-0.125,0.875,0.03125,0.0,0.0,0.0,146
111,1695991866691,-0.98535156,-0.09277344,-0.08496094,-0.5,0.5,0.15625,0.0,0.0,0.0,147
112,1695991866731,-0.9863281,-0.09667969,-0.08203125,0.4375,0.25,0.21875,0.0,0.0,0.0,148
113,1695991866771,-0.9873047,-0.095703125,-0.099609375,-0.84375,-0.125,-0.0625,0.0,0.0,0.0,149
114,1695991866811,-0.9785156,-0.09375,-0.09765625,-0.78125,0.5625,0.03125,0.0,0.0,0.0,150
115,1695991866851,-0.9863281,-0.09863281,-0.08496094,0.0,0.5625,0.09375,0.0,0.0,0.0,151
116,1695991866891,-0.9921875,-0.091796875,-0.08886719,-0.375,0.375,0.21875,0.0,0.0,0.0,152
117,1695991866931,-0.9941406,-0.10449219,-0.08886719,-0.84375,0.4375,0.03125,-25.1875,-52.625,-28.0625,153
118,1695991866971,-0.98535156,-0.09082031,-0.10644531,-1.03125,0.375,0.03125,0.0,0.0,0.0,154
119,1695991867011,-0.9902344,-0.10058594,-0.08984375,0.90625,0.75,0.15625,0.0,0.0,0.0,155
120,1695991867051,-0.98535156,-0.08984375,-0.091796875,-0.0625,0.3125,0.15625,0.0,0.0,0.0,156
121,1695991867091,-0.9951172,-0.08984375,-0.091796875,0.0,0.125,0.09375,0.0,0.0,0.0,157
122,1695991867131,-0.9814453,-0.078125,-0.095703125,0.125,-0.0625,0.09375,0.0,0.0,0.0,158
123,1695991867171,-0.97753906,-0.10644531,-0.1015625,0.1875,0.0625,0.15625,0.0,0.0,0.0,159
124,1695991867211,-0.99316406,-0.09082031,-0.11425781,0.0,0.5625,0.0,0.0,0.0,0.0,160
125,1695991867251,-0.98535156,-0.09082031,-0.09375,0.71875,-0.0625,0.28125,0.0,0.0,0.0,161
126,1695991867291,-0.98339844,-0.099609375,-0.083984375,0.65625,0.0625,0.03125,0.0,0.0,0.0,162
127,1695991867331,-0.9921875,-0.08105469,-0.087890625,1.34375,0.1875,0.09375,0.0,0.0,0.0,163
128,1695991867371,-0.9941406,-0.08691406,-0.09667969,0.96875,0.0,0.03125,0.0,0.0,0.0,164
129,1695991867411,-0.98535156,-0.09472656,-0.10058594,0.5,-0.34375,0.0,-25.9375,-51.5625,-28.5,165
130,1695991867451,-0.9941406,-0.08984375,-0.10644531,1.21875,0.0,0.28125,0.0,0.0,0.0,166
131,1695991867491,-0.9824219,-0.09277344,-0.091796875,0.90625,0.0,0.0,0.0,0.0,0.0,167
132,1695991867531,-0.9902344,-0.08496094,-0.09277344,-0.1875,-0.84375,-0.0625,0.0,0.0,0.0,168
133,1695991867571,-0.99316406,-0.0859375,-0.10546875,0.1875,-0.40625,-0.3125,0.0,0.0,0.0,169
134,1695991867611,-0.9892578,-0.08886719,-0.1015625,-0.84375,-0.96875,-0.0625,0.0,0.0,0.0,170
135,1695991867651,-0.9941406,-0.083984375,-0.08496094,-0.25,-0.71875,-0.3125,0.0,0.0,0.0,171
136,1695991867691,-0.9814453,-0.078125,-0.10058594,-0.4375,-0.40625,0.03125,0.0,0.0,0.0,172
137,1695991867731,-0.9951172,-0.1015625,-0.09667969,-0.5,-0.84375,0.15625,0.0,0.0,0.0,173
138,1695991867771,-0.9873047,-0.08886719,-0.08105469,-0.5,0.125,-0.1875,0.0,0.0,0.0,174
139,1695991867811,-0.98339844,-0.08886719,-0.07714844,-0.125,-0.40625,0.15625,0.0,0.0,0.0,175
140,1695991867851,-0.99316406,-0.099609375,-0.09472656,0.0625,-0.1875,-0.125,0.0,0.0,0.0,176
141,1695991867891,-0.9824219,-0.08886719,-0.08300781,-0.125,-1.03125,-0.375,0.0,0.0,0.0,177
142,1695991867931,-1.0009766,-0.09667969,-0.08203125,-0.96875,-0.78125,-0.625,-26.5625,-49.8125,-27.75,178
143,1695991867971,-0.98828125,-0.09667969,-0.080078125,-0.0625,-0.90625,-0.5,0.0,0.0,0.0,179
144,1695991868011,-0.9970703,-0.091796875,-0.08886719,-0.0625,-0.53125,-0.4375,0.0,0.0,0.0,180
145,1695991868051,-0.98828125,-0.09667969,-0.11816406,0.0,-0.65625,-0.4375,0.0,0.0,0.0,181
146,1695991868091,-0.984375,-0.083984375,-0.087890625,0.3125,-0.40625,0.0,0.0,0.0,0.0,182
147,1695991868131,-1.0009766,-0.09765625,-0.091796875,0.5625,-0.1875,0.0,0.0,0.0,0.0,183
148,1695991868171,-0.9863281,-0.08886719,-0.08105469,-1.09375,-0.46875,-0.1875,0.0,0.0,0.0,184
149,1695991868211,-0.9980469,-0.107421875,-0.09863281,-0.6875,-0.53125,-0.375,0.0,0.0,0.0,185
150,1695991868251,-0.9892578,-0.095703125,-0.076171875,-0.375,-0.78125,0.03125,0.0,0.0,0.0,186
151,1695991868291,-1.0,-0.107421875,-0.08886719,0.375,-0.25,0.03125,0.0,0.0,0.0,187
152,1695991868331,-0.9902344,-0.10253906,-0.095703125,0.71875,-0.1875,0.03125,0.0,0.0,0.0,188
153,1695991868371,-0.99316406,-0.08886719,-0.09082031,0.65625,-0.46875,-0.125,0.0,0.0,0.0,189
154,1695991868411,-0.99609375,-0.083984375,-0.07714844,0.84375,-0.59375,-0.25,-26.125,-52.0625,-29.0,190
155,1695991868451,-0.9892578,-0.09472656,-0.08105469,0.375,-1.03125,0.28125,0.0,0.0,0.0,191
156,1695991868491,-0.9892578,-0.09375,-0.07519531,-0.5,-0.3125,-0.3125,0.0,0.0,0.0,192
157,1695991868531,-0.984375,-0.1015625,-0.08886719,0.25,-0.71875,-0.1875,0.0,0.0,0.0,193
158,1695991868571,-0.99121094,-0.09765625,-0.080078125,0.3125,-0.40625,-0.0625,0.0,0.0,0.0,194
159,1695991868611,-0.99316406,-0.095703125,-0.078125,0.25,-0.46875,-0.0625,0.0,0.0,0.0,195
160,1695991868651,-0.9873047,-0.09765625,-0.08203125,0.0,-0.46875,0.15625,0.0,0.0,0.0,196
161,1695991868691,-0.98828125,-0.09082031,-0.1015625,-0.0625,-0.71875,-0.0625,0.0,0.0,0.0,197
162,1695991868731,-0.99316406,-0.103515625,-0.09472656,-0.3125,-0.65625,0.21875,0.0,0.0,0.0,198
163,1695991868771,-0.9921875,-0.10253906,-0.087890625,-0.3125,-0.53125,0.09375,0.0,0.0,0.0,199
164,1695991868811,-0.9941406,-0.09472656,-0.076171875,-0.625,-0.71875,0.28125,0.0,0.0,0.0,200
165,1695991868851,-0.99121094,-0.09863281,-0.076171875,-0.25,-0.71875,0.21875,0.0,0.0,0.0,201
166,1695991868891,-1.0019531,-0.10449219,-0.07910156,-0.75,-0.40625,0.21875,0.0,0.0,0.0,202
167,1695991868931,-0.99316406,-0.1015625,-0.0859375,0.5,-0.1875,0.40625,-26.375,-51.3125,-27.625,203
168,1695991868971,-0.99121094,-0.08691406,-0.072265625,0.125,-0.1875,0.15625,0.0,0.0,0.0,204
169,1695991869011,-0.99316406,-0.09863281,-0.072265625,-0.0625,-0.59375,0.0,0.0,0.0,0.0,205
170,1695991869051,-0.99121094,-0.09277344,-0.07128906,-0.25,-0.65625,-0.0625,0.0,0.0,0.0,206
171,1695991869091,-0.9814453,-0.10449219,-0.07128906,-0.0625,-0.0625,-0.0625,0.0,0.0,0.0,207
172,1695991869131,-0.99121094,-0.091796875,-0.07714844,0.375,0.1875,0.21875,0.0,0.0,0.0,208
173,1695991869171,-0.9902344,-0.09765625,-0.072265625,-0.5,0.375,-0.0625,0.0,0.0,0.0,209
174,1695991869211,-0.99121094,-0.080078125,-0.07910156,-0.4375,-0.53125,-0.25,0.0,0.0,0.0,210
175,1695991869251,-0.9892578,-0.10644531,-0.08984375,-0.6875,-0.71875,-0.25,0.0,0.0,0.0,211
176,1695991869291,-0.99609375,-0.10058594,-0.078125,0.5625,-0.125,-0.25,0.0,0.0,0.0,212
177,1695991869331,-0.98535156,-0.08984375,-0.08886719,1.09375,-0.34375,0.03125,0.0,0.0,0.0,213
178,1695991869371,-0.99316406,-0.083984375,-0.08496094,0.71875,0.4375,0.09375,0.0,0.0,0.0,214
179,1695991869411,-0.9951172,-0.103515625,-0.09667969,0.375,0.0625,0.03125,-25.5,-51.5625,-27.0,215
180,1695991869451,-0.9980469,-0.08691406,-0.078125,-0.78125,-0.0625,-0.125,0.0,0.0,0.0,216
181,1695991869491,-0.9892578,-0.103515625,-0.0703125,0.0,-0.25,0.15625,0.0,0.0,0.0,217
182,1695991869531,-0.9951172,-0.09082031,-0.06738281,-0.375,-0.3125,-0.375,0.0,0.0,0.0,218
183,1695991869571,-0.9785156,-0.107421875,-0.08300781,0.71875,-0.40625,0.03125,0.0,0.0,0.0,219
184,1695991869611,-0.9921875,-0.095703125,-0.08886719,1.21875,0.4375,0.03125,0.0,0.0,0.0,220
185,1695991869651,-0.9921875,-0.09863281,-0.080078125,-0.1875,-0.40625,-0.0625,0.0,0.0,0.0,221
186,1695991869691,-0.9970703,-0.09472656,-0.083984375,0.5,-0.34375,0.0,0.0,0.0,0.0,222
187,1695991869731,-0.98339844,-0.08105469,-0.056640625,0.25,-0.34375,0.03125,0.0,0.0,0.0,223
188,1695991869771,-0.9951172,-0.10058594,-0.0703125,-0.25,-0.1875,0.03125,0.0,0.0,0.0,224
189,1695991869811,-0.9921875,-0.091796875,-0.080078125,-0.75,-0.3125,-0.25,0.0,0.0,0.0,225
190,1695991869851,-0.99121094,-0.09667969,-0.07421875,-0.375,-0.25,0.15625,0.0,0.0,0.0,226
191,1695991869891,-0.99121094,-0.09863281,-0.095703125,0.125,0.3125,0.34375,0.0,0.0,0.0,227
192,1695991869931,-0.9902344,-0.1015625,-0.064453125,-0.5625,0.0,0.21875,-25.5,-52.9375,-28.8125,228
193,1695991869971,-0.9921875,-0.09375,-0.060546875,-0.0625,0.625,0.09375,0.0,0.0,0.0,229
194,1695991870011,-0.9902344,-0.09765625,-0.072265625,-0.4375,-0.3125,0.15625,0.0,0.0,0.0,230
195,1695991870051,-0.99121094,-0.103515625,-0.08496094,0.0,0.125,0.09375,0.0,0.0,0.0,231
196,1695991870091,-0.98828125,-0.083984375,-0.08496094,-0.3125,0.125,-0.0625,0.0,0.0,0.0,232
197,1695991870131,-0.98339844,-0.09765625,-0.07714844,0.59375,0.25,0.21875,0.0,0.0,0.0,233
198,1695991870171,-0.9980469,-0.091796875,-0.078125,-0.4375,0.4375,0.03125,0.0,0.0,0.0,234
199,1695991870211,-0.9863281,-0.08886719,-0.095703125,0.0,-0.25,0.21875,0.0,0.0,0.0,235
200,1695991870251,-0.9921875,-0.10839844,-0.09472656,0.0,0.25,0.03125,0.0,0.0,0.0,236
201,1695991870291,-0.9863281,-0.08300781,-0.07910156,-0.125,0.25,0.03125,0.0,0.0,0.0,237
202,1695991870331,-0.99121094,-0.09765625,-0.072265625,-0.5625,0.1875,0.03125,0.0,0.0,0.0,238
203,1695991870371,-0.9902344,-0.09375,-0.07421875,-0.3125,0.125,-0.0625,0.0,0.0,0.0,239
204,1695991870411,-0.984375,-0.099609375,-0.068359375,-0.3125,0.375,0.15625,-25.375,-51.75,-28.6875,240
205,1695991870451,-0.99316406,-0.09082031,-0.08105469,0.0,0.5,-0.125,0.0,0.0,0.0,241
206,1695991870491,-0.984375,-0.095703125,-0.06640625,0.1875,0.5625,0.28125,0.0,0.0,0.0,242
207,1695991870531,-0.984375,-0.09375,-0.07128906,0.4375,0.75,0.03125,0.0,0.0,0.0,243
208,1695991870571,-0.9892578,-0.103515625,-0.072265625,0.1875,0.3125,0.09375,0.0,0.0,0.0,244
209,1695991870611,-0.9785156,-0.08984375,-0.076171875,0.78125,0.25,0.0,0.0,0.0,0.0,245
210,1695991870651,-0.984375,-0.091796875,-0.083984375,0.59375,0.25,0.0,0.0,0.0,0.0,246
211,1695991870691,-0.9970703,-0.087890625,-0.08300781,0.65625,0.375,-0.0625,0.0,0.0,0.0,247
212,1695991870731,-0.9921875,-0.083984375,-0.09667969,0.375,0.25,-0.125,0.0,0.0,0.0,248
213,1695991870771,-0.9873047,-0.08984375,-0.091796875,0.0625,0.1875,0.21875,0.0,0.0,0.0,249
214,1695991870811,-0.9892578,-0.08691406,-0.07421875,0.125,0.25,0.0,0.0,0.0,0.0,250
215,1695991870851,-0.99609375,-0.10449219,-0.08105469,-0.625,0.125,0.09375,0.0,0.0,0.0,251
216,1695991870891,-0.98046875,-0.087890625,-0.09375,-0.4375,0.3125,0.0,0.0,0.0,0.0,252
217,1695991870931,-0.9921875,-0.09375,-0.08496094,-0.0625,0.4375,-0.0625,-25.5,-50.0625,-28.0625,253
218,1695991870971,-0.9873047,-0.095703125,-0.09375,0.125,0.1875,0.09375,0.0,0.0,0.0,254
219,1695991871011,-0.9902344,-0.08886719,-0.07421875,-0.5625,0.0,-0.3125,0.0,0.0,0.0,255
220,1695991871051,-0.9785156,-0.08496094,-0.10058594,-0.375,-0.1875,-0.375,0.0,0.0,0.0,256
221,1695991871091,-0.99316406,-0.107421875,-0.09667969,-0.0625,-0.0625,0.09375,0.0,0.0,0.0,257
222,1695991871131,-0.9921875,-0.09082031,-0.09082031,-0.375,-0.0625,0.03125,0.0,0.0,0.0,258
223,1695991871171,-0.99316406,-0.091796875,-0.08300781,0.0625,-0.25,0.0,0.0,0.0,0.0,259
224,1695991871211,-0.984375,-0.0859375,-0.08691406,-0.0625,-0.34375,-0.1875,0.0,0.0,0.0,260
225,1695991871251,-0.984375,-0.08984375,-0.08984375,-0.0625,-0.71875,0.09375,0.0,0.0,0.0,261
226,1695991871291,-0.9970703,-0.10449219,-0.08984375,0.0,-0.1875,0.15625,0.0,0.0,0.0,262
227,1695991871331,-0.99609375,-0.09863281,-0.061523438,0.4375,-0.125,0.28125,0.0,0.0,0.0,263
228,1695991871371,-0.98828125,-0.09472656,-0.07421875,-0.5,-0.25,0.15625,0.0,0.0,0.0,264
229,1695991871411,-0.99609375,-0.08300781,-0.064453125,-0.1875,-0.25,-0.3125,-26.25,-51.125,-28.5,265
230,1695991871451,-0.99121094,-0.09667969,-0.08496094,-0.375,-0.78125,-0.1875,0.0,0.0,0.0,266
231,1695991871491,-0.9814453,-0.10839844,-0.07910156,-0.0625,-0.34375,0.03125,0.0,0.0,0.0,267
232,1695991871531,-0.9902344,-0.083984375,-0.0859375,0.125,0.4375,0.03125,0.0,0.0,0.0,268
233,1695991871571,-0.99316406,-0.09863281,-0.07714844,-0.625,-0.3125,-0.0625,0.0,0.0,0.0,269
234,1695991871611,-0.9941406,-0.08203125,-0.0859375,-0.0625,-0.25,-0.375,0.0,0.0,0.0,270
235,1695991871651,-0.97753906,-0.10449219,-0.10839844,-0.25,-0.65625,0.0,0.0,0.0,0.0,271
236,1695991871691,-0.9951172,-0.091796875,-0.07910156,0.59375,-0.0625,-0.0625,0.0,0.0,0.0,272
237,1695991871731,-0.99121094,-0.091796875,-0.08886719,0.375,-0.40625,-0.125,0.0,0.0,0.0,273
238,1695991871771,-0.98828125,-0.09082031,-0.09863281,0.4375,-0.46875,-0.1875,0.0,0.0,0.0,274
239,1695991871811,-0.984375,-0.10449219,-0.095703125,0.5625,-0.78125,-0.125,0.0,0.0,0.0,275
240,1695991871851,-0.9873047,-0.083984375,-0.091796875,0.59375,-0.59375,-0.0625,0.0,0.0,0.0,276
241,1695991871891,-0.99121094,-0.09375,-0.07421875,1.34375,-0.71875,0.15625,0.0,0.0,0.0,277
242,1695991871931,-0.9863281,-0.10058594,-0.08984375,0.90625,-0.65625,0.21875,-25.375,-52.0625,-27.9375,278
243,1695991871971,-0.9941406,-0.095703125,-0.08691406,0.84375,-0.46875,0.03125,0.0,0.0,0.0,279
244,1695991872011,-0.9902344,-0.099609375,-0.08691406,0.71875,-0.90625,0.15625,0.0,0.0,0.0,280
245,1695991872051,-0.9824219,-0.08886719,-0.076171875,1.40625,-0.78125,0.03125,0.0,0.0,0.0,281
246,1695991872091,-0.99902344,-0.09082031,-0.07128906,0.96875,-0.71875,0.0,0.0,0.0,0.0,282
247,1695991872131,-0.99121094,-0.10253906,-0.06640625,-0.3125,-0.90625,-0.0625,0.0,0.0,0.0,283
248,1695991872171,-1.0009766,-0.091796875,-0.06933594,-0.1875,-1.03125,-0.1875,0.0,0.0,0.0,284
249,1695991872211,-0.98828125,-0.107421875,-0.07519531,0.1875,-0.90625,0.09375,0.0,0.0,0.0,285
250,1695991872251,-0.9892578,-0.09375,-0.06347656,0.0,-0.84375,-0.125,0.0,0.0,0.0,286
251,1695991872291,-0.9941406,-0.08886719,-0.07324219,-0.125,-0.96875,-0.1875,0.0,0.0,0.0,287
252,1695991872331,-0.9824219,-0.0859375,-0.07421875,-0.375,-1.28125,-0.25,0.0,0.0,0.0,288
253,1695991872371,-0.99609375,-0.107421875,-0.083984375,-0.0625,-1.09375,-0.125,0.0,0.0,0.0,289
254,1695991872411,-0.99316406,-0.09082031,-0.07519531,-0.25,-0.78125,-0.25,-26.25,-52.1875,-27.75,290
255,1695991872451,-0.9892578,-0.095703125,-0.06640625,0.125,-0.71875,0.03125,0.0,0.0,0.0,291
256,1695991872491,-0.98535156,-0.08691406,-0.061523438,0.0,-0.78125,0.0,0.0,0.0,0.0,292
257,1695991872531,-0.99902344,-0.09863281,-0.06347656,-0.75,-0.40625,-0.0625,0.0,0.0,0.0,293
258,1695991872571,-0.9970703,-0.091796875,-0.07324219,0.0,-0.65625,-0.1875,0.0,0.0,0.0,294
259,1695991872611,-0.99316406,-0.10058594,-0.064453125,-1.15625,-0.90625,-0.25,0.0,0.0,0.0,295
260,1695991872651,-0.99609375,-0.09667969,-0.06640625,0.3125,-0.53125,-0.0625,0.0,0.0,0.0,296
261,1695991872691,-0.9941406,-0.10058594,-0.0703125,-0.1875,-0.25,-0.125,0.0,0.0,0.0,297
262,1695991872731,-0.9970703,-0.091796875,-0.064453125,-0.4375,-0.3125,0.0,0.0,0.0,0.0,298
263,1695991872771,-0.9902344,-0.09375,-0.0703125,0.0625,-0.78125,-0.0625,0.0,0.0,0.0,299
264,1695991872811,-0.9941406,-0.09863281,-0.06738281,0.1875,-0.46875,-0.0625,0.0,0.0,0.0,300
265,1695991872851,-0.98046875,-0.09667969,-0.076171875,-0.0625,-0.59375,0.0,0.0,0.0,0.0,301
266,1695991872891,-0.9902344,-0.09667969,-0.0703125,0.125,-0.0625,-0.125,0.0,0.0,0.0,302
267,1695991872931,-0.99121094,-0.091796875,-0.055664062,-0.25,-0.46875,0.03125,-27.0,-52.9375,-26.75,303
268,1695991872971,-0.99316406,-0.1015625,-0.07421875,0.5625,-0.46875,0.03125,0.0,0.0,0.0,304
269,1695991873011,-0.9951172,-0.10644531,-0.06933594,0.25,-0.25,0.03125,0.0,0.0,0.0,305
270,1695991873051,-0.9902344,-0.087890625,-0.0546875,0.84375,0.3125,0.0,0.0,0.0,0.0,306
271,1695991873091,-0.98828125,-0.09277344,-0.06347656,-0.5,-0.40625,0.34375,0.0,0.0,0.0,307
272,1695991873131,-0.984375,-0.09375,-0.06640625,0.375,-0.1875,-0.125,0.0,0.0,0.0,308
273,1695991873171,-0.9941406,-0.091796875,-0.076171875,-0.0625,0.125,0.03125,0.0,0.0,0.0,309
274,1695991873211,-0.9970703,-0.087890625,-0.06347656,0.0,0.125,0.21875,0.0,0.0,0.0,310
275,1695991873251,-0.99121094,-0.10253906,-0.08105469,0.3125,-0.1875,0.15625,0.0,0.0,0.0,311
276,1695991873291,-0.98535156,-0.10839844,-0.06640625,-0.0625,0.125,0.21875,0.0,0.0,0.0,312
277,1695991873331,-0.9951172,-0.10058594,-0.06933594,-0.84375,-0.125,-0.0625,0.0,0.0,0.0,313
278,1695991873371,-0.9921875,-0.09667969,-0.06640625,0.1875,-0.125,0.21875,-25.8125,-52.0625,-28.25,314
279,1695991873411,-0.9892578,-0.09375,-0.07519531,0.125,0.1875,0.0,0.0,0.0,0.0,315
280,1695991873451,-0.9941406,-0.09863281,-0.068359375,-0.1875,0.125,0.0,0.0,0.0,0.0,316
281,1695991873491,-0.9951172,-0.1015625,-0.06542969,0.5625,-0.0625,0.21875,0.0,0.0,0.0,317
282,1695991873531,-0.99316406,-0.09375,-0.08203125,-0.0625,0.1875,-0.1875,0.0,0.0,0.0,318
283,1695991873571,-0.99121094,-0.09863281,-0.059570312,0.125,0.0625,0.09375,0.0,0.0,0.0,319
284,1695991873611,-0.9921875,-0.09667969,-0.072265625,0.1875,0.1875,0.15625,0.0,0.0,0.0,320
285,1695991873651,-0.9863281,-0.08984375,-0.060546875,0.25,0.25,0.03125,0.0,0.0,0.0,321
286,1695991873691,-1.0009766,-0.111328125,-0.06933594,-0.3125,0.3125,0.0,0.0,0.0,0.0,322
287,1695991873731,-0.9941406,-0.08984375,-0.064453125,0.0,0.125,-0.1875,0.0,0.0,0.0,323
288,1695991873771,-0.9970703,-0.09082031,-0.078125,-0.375,0.0625,-0.1875,0.0,0.0,0.0,324
289,1695991873811,-0.98339844,-0.10058594,-0.080078125,0.5,0.0,-0.0625,0.0,0.0,0.0,325
290,1695991873851,-0.9892578,-0.10449219,-0.061523438,0.0625,0.125,0.21875,0.0,0.0,0.0,326
291,1695991873891,-0.99121094,-0.099609375,-0.08105469,0.25,0.5,0.09375,0.0,0.0,0.0,327
292,1695991873931,-0.9980469,-0.095703125,-0.05078125,-0.0625,0.0625,0.03125,-26.25,-52.1875,-27.0,328
293,1695991873971,-0.9921875,-0.09863281,-0.06933594,-0.3125,-0.125,-0.125,0.0,0.0,0.0,329
294,1695991874011,-0.99316406,-0.09472656,-0.0390625,-0.1875,-0.3125,-0.0625,0.0,0.0,0.0,330
295,1695991874051,-0.98339844,-0.10546875,-0.078125,-0.0625,-0.3125,0.03125,0.0,0.0,0.0,331
296,1695991874091,-0.984375,-0.08984375,-0.06347656,-0.1875,0.125,0.0,0.0,0.0,0.0,332
297,1695991874131,-0.99316406,-0.08691406,-0.059570312,-0.125,-0.40625,0.03125,0.0,0.0,0.0,333
298,1695991874171,-0.9902344,-0.10253906,-0.06933594,0.0,-0.125,0.09375,0.0,0.0,0.0,334
299,1695991874211,-0.9980469,-0.09765625,-0.06347656,-0.5,-0.1875,-0.0625,0.0,0.0,0.0,335
300,1695991874251,-0.9902344,-0.09082031,-0.06347656,-0.3125,-0.25,-0.0625,0.0,0.0,0.0,336
301,1695991874291,-0.9892578,-0.0859375,-0.0703125,-0.25,-0.1875,-0.125,0.0,0.0,0.0,337
302,1695991874331,-0.9863281,-0.09667969,-0.0703125,-0.0625,-0.25,0.15625,0.0,0.0,0.0,338
303,1695991874371,-0.9951172,-0.09667969,-0.068359375,-0.5,-0.34375,-0.1875,0.0,0.0,0.0,339
304,1695991874411,-0.99316406,-0.091796875,-0.07324219,-0.1875,-0.40625,0.15625,-25.9375,-51.5625,-28.5,340
305,1695991874451,-0.9980469,-0.107421875,-0.06933594,-0.4375,-0.25,0.28125,0.0,0.0,0.0,341
306,1695991874491,-0.99316406,-0.10058594,-0.056640625,-0.5,0.0625,0.09375,0.0,0.0,0.0,342
307,1695991874531,-0.9921875,-0.10058594,-0.060546875,-0.5,-0.3125,0.03125,0.0,0.0,0.0,343
308,1695991874571,-0.9980469,-0.099609375,-0.076171875,-0.375,-0.46875,0.03125,0.0,0.0,0.0,344
309,1695991874611,-0.9902344,-0.095703125,-0.07519531,0.1875,-0.25,0.03125,0.0,0.0,0.0,345
310,1695991874651,-0.9902344,-0.09863281,-0.068359375,-0.0625,0.0,0.09375,0.0,0.0,0.0,346
311,1695991874691,-0.9970703,-0.08300781,-0.07910156,0.3125,0.1875,0.03125,0.0,0.0,0.0,347
312,1695991874731,-0.99609375,-0.08984375,-0.061523438,0.0625,0.0,0.28125,0.0,0.0,0.0,348
313,1695991874771,-0.98535156,-0.099609375,-0.07421875,0.1875,0.125,0.15625,0.0,0.0,0.0,349
314,1695991874811,-0.9902344,-0.091796875,-0.064453125,-0.125,0.1875,0.03125,0.0,0.0,0.0,350
315,1695991874851,-0.98535156,-0.09765625,-0.0703125,-0.0625,0.0625,0.28125,0.0,0.0,0.0,351
316,1695991874891,-0.9921875,-0.099609375,-0.053710938,-0.125,0.5,0.03125,0.0,0.0,0.0,352
317,1695991874931,-0.98828125,-0.09472656,-0.064453125,-0.25,0.0,0.03125,-25.375,-52.8125,-27.625,353
318,1695991874971,-0.99121094,-0.083984375,-0.08203125,0.65625,0.4375,0.0,0.0,0.0,0.0,354
319,1695991875011,-0.98828125,-0.09277344,-0.06933594,0.1875,0.0625,0.34375,0.0,0.0,0.0,355
320,1695991875051,-0.9941406,-0.083984375,-0.076171875,0.0,0.375,0.03125,0.0,0.0,0.0,356
321,1695991875091,-0.99316406,-0.09082031,-0.07910156,0.0,0.5625,0.15625,0.0,0.0,0.0,357
322,1695991875131,-0.9921875,-0.08984375,-0.07421875,-0.4375,0.3125,0.15625,0.0,0.0,0.0,358
323,1695991875171,-0.9941406,-0.103515625,-0.06738281,0.0,0.1875,0.28125,0.0,0.0,0.0,359
324,1695991875211,-0.99316406,-0.09472656,-0.06347656,-0.375,0.3125,0.21875,0.0,0.0,0.0,360
325,1695991875251,-0.98339844,-0.10058594,-0.080078125,0.0625,0.3125,0.09375,0.0,0.0,0.0,361
326,1695991875291,-0.9921875,-0.10058594,-0.072265625,0.5,0.3125,0.34375,0.0,0.0,0.0,362
327,1695991875331,-0.9921875,-0.09375,-0.07519531,0.3125,0.75,0.28125,0.0,0.0,0.0,363
328,1695991875371,-0.99121094,-0.095703125,-0.06640625,1.03125,0.5,0.15625,0.0,0.0,0.0,364
329,1695991875411,-0.9941406,-0.099609375,-0.08691406,0.125,0.4375,0.09375,-26.125,-50.6875,-27.9375,365
330,1695991875451,-0.9902344,-0.09472656,-0.076171875,1.28125,0.375,0.0,0.0,0.0,0.0,366
331,1695991875491,-0.9892578,-0.095703125,-0.07519531,0.4375,0.4375,0.0,0.0,0.0,0.0,367
332,1695991875531,-0.98535156,-0.08984375,-0.083984375,0.375,0.625,0.0,0.0,0.0,0.0,368
333,1695991875571,-0.9863281,-0.08496094,-0.07128906,0.90625,0.4375,0.21875,0.0,0.0,0.0,369
334,1695991875611,-0.99316406,-0.087890625,-0.06347656,0.3125,0.5,0.0,0.0,0.0,0.0,370
335,1695991875651,-0.9892578,-0.08203125,-0.076171875,0.65625,0.5625,0.15625,0.0,0.0,0.0,371
336,1695991875691,-0.9921875,-0.09277344,-0.06933594,0.0,0.5625,0.34375,0.0,0.0,0.0,372
337,1695991875731,-0.99316406,-0.091796875,-0.07128906,-0.0625,0.5625,0.03125,0.0,0.0,0.0,373
338,1695991875771,-0.98339844,-0.11035156,-0.076171875,0.0,0.5625,0.34375,0.0,0.0,0.0,374
339,1695991875811,-0.984375,-0.09277344,-0.068359375,0.65625,0.9375,0.03125,0.0,0.0,0.0,375
340,1695991875851,-0.99121094,-0.099609375,-0.0703125,-0.1875,0.3125,0.09375,0.0,0.0,0.0,376
341,1695991875891,-0.9921875,-0.095703125,-0.076171875,0.5,0.5,-0.0625,0.0,0.0,0.0,377
342,1695991875931,-1.0,-0.103515625,-0.072265625,0.0625,0.625,0.15625,-24.875,-50.5625,-28.8125,378
343,1695991875971,-0.9902344,-0.09375,-0.06347656,0.375,0.75,0.15625,0.0,0.0,0.0,379
344,1695991876011,-0.99121094,-0.095703125,-0.072265625,-0.6875,0.3125,0.0,0.0,0.0,0.0,380
345,1695991876051,-0.9863281,-0.09277344,-0.08691406,0.0,0.125,0.21875,0.0,0.0,0.0,381
346,1695991876091,-0.9951172,-0.087890625,-0.068359375,0.1875,0.5625,0.03125,0.0,0.0,0.0,382
347,1695991876131,-0.9765625,-0.09277344,-0.08300781,-0.84375,0.3125,0.09375,0.0,0.0,0.0,383
348,1695991876171,-0.99121094,-0.095703125,-0.08496094,0.375,0.3125,0.0,0.0,0.0,0.0,384
349,1695991876211,-0.9824219,-0.099609375,-0.07324219,0.125,-0.125,0.03125,0.0,0.0,0.0,385
350,1695991876251,-0.9892578,-0.09082031,-0.07714844,0.5625,0.0625,0.03125,0.0,0.0,0.0,386
351,1695991876291,-0.99316406,-0.09277344,-0.083984375,0.3125,0.1875,0.0,0.0,0.0,0.0,387
352,1695991876331,-0.9902344,-0.099609375,-0.0703125,0.5,0.0625,0.09375,0.0,0.0,0.0,388
353,1695991876371,-0.99316406,-0.09082031,-0.076171875,-0.5,-0.40625,0.0,0.0,0.0,0.0,389
354,1695991876411,-0.99316406,-0.095703125,-0.07714844,-0.125,-0.1875,0.0,-25.5,-51.5625,-28.8125,390
355,1695991876451,-0.9921875,-0.08203125,-0.08300781,0.4375,-0.25,0.15625,0.0,0.0,0.0,391
356,1695991876491,-0.98828125,-0.08984375,-0.0625,-0.25,-0.40625,-0.3125,0.0,0.0,0.0,392
357,1695991876531,-0.99121094,-0.09277344,-0.087890625,-0.4375,-0.65625,0.0,0.0,0.0,0.0,393
358,1695991876571,-0.9892578,-0.08984375,-0.061523438,0.5625,-0.125,0.03125,0.0,0.0,0.0,394
359,1695991876611,-0.9863281,-0.087890625,-0.076171875,-0.75,-0.53125,0.09375,0.0,0.0,0.0,395
360,1695991876651,-0.9824219,-0.080078125,-0.060546875,-0.5,-0.40625,-0.1875,0.0,0.0,0.0,396
361,1695991876691,-0.99316406,-0.09277344,-0.0859375,-0.3125,-0.65625,-0.125,0.0,0.0,0.0,397
362,1695991876731,-0.98535156,-0.09863281,-0.087890625,-1.09375,-0.59375,-0.0625,0.0,0.0,0.0,398
363,1695991876771,-0.9980469,-0.09765625,-0.072265625,-0.84375,-0.40625,-0.0625,0.0,0.0,0.0,399
364,1695991876811,-0.99902344,-0.08496094,-0.07128906,-0.1875,-0.59375,-0.3125,0.0,0.0,0.0,400
365,1695991876851,-0.9951172,-0.095703125,-0.06542969,-0.78125,-0.59375,0.09375,0.0,0.0,0.0,401
366,1695991876891,-0.98828125,-0.09765625,-0.07910156,0.5,-0.34375,-0.125,0.0,0.0,0.0,402
367,1695991876931,-0.99316406,-0.095703125,-0.07910156,-0.75,-0.71875,-0.0625,-25.0625,-52.0625,-27.3125,403
368,1695991876971,-0.99316406,-0.09082031,-0.068359375,-0.4375,-0.25,0.0,0.0,0.0,0.0,404
369,1695991877011,-0.9873047,-0.0859375,-0.06347656,0.0625,-0.59375,0.09375,0.0,0.0,0.0,405
370,1695991877051,-0.9892578,-0.09765625,-0.080078125,0.5,-0.1875,-0.0625,0.0,0.0,0.0,406
371,1695991877091,-0.99121094,-0.08984375,-0.053710938,-0.25,-0.34375,-0.125,0.0,0.0,0.0,407
372,1695991877131,-0.98535156,-0.091796875,-0.076171875,0.90625,-0.40625,0.03125,0.0,0.0,0.0,408
373,1695991877171,-0.99316406,-0.08203125,-0.06542969,0.1875,-0.0625,-0.125,0.0,0.0,0.0,409
374,1695991877211,-0.99609375,-0.09667969,-0.072265625,-0.4375,-0.40625,-0.25,0.0,0.0,0.0,410
375,1695991877251,-0.9902344,-0.07910156,-0.056640625,0.125,-0.34375,-0.125,0.0,0.0,0.0,411
376,1695991877291,-0.9902344,-0.11230469,-0.06640625,0.125,-0.84375,-0.0625,0.0,0.0,0.0,412
377,1695991877331,-0.98828125,-0.09667969,-0.072265625,0.90625,-0.1875,-0.0625,0.0,0.0,0.0,413
378,1695991877371,-0.9873047,-0.087890625,-0.07128906,0.125,-0.34375,-0.25,0.0,0.0,0.0,414
379,1695991877411,-0.9980469,-0.10058594,-0.08203125,0.59375,-0.78125,0.03125,-26.875,-51.75,-28.25,415
380,1695991877451,-0.984375,-0.083984375,-0.080078125,-0.4375,-0.53125,-0.125,0.0,0.0,0.0,416
381,1695991877491,-0.984375,-0.08886719,-0.08300781,-0.0625,-0.46875,-0.1875,0.0,0.0,0.0,417
382,1695991877531,-0.9902344,-0.1015625,-0.05859375,-0.4375,-0.34375,-0.0625,0.0,0.0,0.0,418
383,1695991877571,-0.9941406,-0.0859375,-0.072265625,-0.4375,-0.53125,-0.125,0.0,0.0,0.0,419
384,1695991877611,-0.99316406,-0.09667969,-0.06640625,0.65625,-0.71875,0.15625,0.0,0.0,0.0,420
385,1695991877651,-0.9921875,-0.091796875,-0.076171875,0.25,-0.1875,-0.0625,0.0,0.0,0.0,421
386,1695991877691,-0.9951172,-0.09375,-0.06347656,0.1875,-0.0625,0.0,0.0,0.0,0.0,422
387,1695991877731,-0.98828125,-0.083984375,-0.060546875,0.0,-0.34375,0.15625,0.0,0.0,0.0,423
388,1695991877771,-0.9873047,-0.095703125,-0.076171875,0.5,-0.25,0.09375,0.0,0.0,0.0,424
389,1695991877811,-0.9902344,-0.08984375,-0.06933594,-0.5625,-0.34375,-0.125,0.0,0.0,0.0,425
390,1695991877851,-0.9980469,-0.095703125,-0.068359375,-0.4375,-0.53125,0.15625,0.0,0.0,0.0,426
391,1695991877891,-0.99316406,-0.08886719,-0.06933594,0.65625,-0.1875,0.28125,0.0,0.0,0.0,427
392,1695991877931,-0.98828125,-0.099609375,-0.060546875,-0.6875,-0.0625,0.09375,-25.9375,-52.9375,-27.5,428
393,1695991877971,-0.9863281,-0.087890625,-0.064453125,-1.09375,-0.1875,-0.1875,0.0,0.0,0.0,429
394,1695991878011,-0.98339844,-0.09765625,-0.06542969,-0.5625,-0.40625,0.09375,0.0,0.0,0.0,430
395,1695991878051,-0.99316406,-0.09863281,-0.07910156,-0.6875,-0.1875,0.21875,0.0,0.0,0.0,431
396,1695991878091,-0.99609375,-0.09863281,-0.06640625,-0.78125,-0.0625,0.0,0.0,0.0,0.0,432
397,1695991878131,-0.9970703,-0.09277344,-0.06347656,-0.4375,0.4375,0.15625,0.0,0.0,0.0,433
398,1695991878171,-0.99316406,-0.087890625,-0.06738281,0.4375,0.125,0.0,0.0,0.0,0.0,434
399,1695991878211,-0.9863281,-0.103515625,-0.06933594,0.4375,0.5,0.03125,0.0,0.0,0.0,435
400,1695991878251,-0.9892578,-0.09082031,-0.0703125,0.0,0.5,-0.125,0.0,0.0,0.0,436
401,1695991878291,-0.98535156,-0.08886719,-0.06347656,0.71875,0.375,0.15625,0.0,0.0,0.0,437
402,1695991878331,-0.9863281,-0.099609375,-0.08105469,0.71875,0.3125,-0.0625,0.0,0.0,0.0,438
403,1695991878371,-0.99609375,-0.091796875,-0.05859375,-0.0625,0.4375,-0.0625,0.0,0.0,0.0,439
404,1695991878411,-0.9892578,-0.08984375,-0.076171875,0.71875,0.25,0.09375,-27.125,-51.0,-28.25,440
405,1695991878451,-0.99121094,-0.09082031,-0.07128906,0.59375,0.4375,0.09375,0.0,0.0,0.0,441
406,1695991878491,-0.99609375,-0.09082031,-0.078125,0.1875,0.3125,-0.0625,0.0,0.0,0.0,442
407,1695991878531,-0.9824219,-0.091796875,-0.072265625,0.5,0.4375,-0.1875,0.0,0.0,0.0,443
408,1695991878571,-0.9892578,-0.0859375,-0.068359375,0.25,0.3125,-0.125,0.0,0.0,0.0,444
409,1695991878611,-0.984375,-0.08691406,-0.07714844,0.375,0.1875,0.03125,0.0,0.0,0.0,445
410,1695991878651,-0.98339844,-0.08886719,-0.0703125,-0.1875,0.375,0.0,0.0,0.0,0.0,446
411,1695991878691,-0.9980469,-0.09667969,-0.06542969,0.125,0.5625,-0.125,0.0,0.0,0.0,447
412,1695991878731,-0.9873047,-0.09375,-0.06933594,0.125,0.1875,0.09375,0.0,0.0,0.0,448
413,1695991878771,-0.9892578,-0.1015625,-0.07324219,0.3125,0.5,0.0,0.0,0.0,0.0,449
414,1695991878811,-0.9921875,-0.083984375,-0.06640625,0.0,0.125,-0.0625,0.0,0.0,0.0,450
415,1695991878851,-0.99121094,-0.09863281,-0.068359375,0.5625,0.375,0.09375,0.0,0.0,0.0,451
416,1695991878891,-0.98339844,-0.099609375,-0.0703125,-0.375,0.5,0.03125,0.0,0.0,0.0,452
417,1695991878931,-0.99316406,-0.09765625,-0.07714844,-0.3125,0.125,0.09375,-26.125,-51.0,-29.25,453
418,1695991878971,-0.9980469,-0.09667969,-0.06347656,-0.375,0.375,0.21875,0.0,0.0,0.0,454
419,1695991879011,-0.99121094,-0.09082031,-0.0703125,-0.84375,0.375,0.0,0.0,0.0,0.0,455
420,1695991879051,-0.9785156,-0.09863281,-0.068359375,-0.84375,0.125,0.15625,0.0,0.0,0.0,456
421,1695991879091,-0.98828125,-0.0859375,-0.07519531,-0.25,0.375,0.03125,0.0,0.0,0.0,457
422,1695991879131,-0.9902344,-0.10058594,-0.072265625,0.0625,0.3125,0.21875,0.0,0.0,0.0,458
423,1695991879171,-0.9892578,-0.095703125,-0.07128906,0.65625,0.4375,0.34375,0.0,0.0,0.0,459
424,1695991879211,-0.984375,-0.08496094,-0.076171875,0.65625,0.4375,-0.0625,0.0,0.0,0.0,460
425,1695991879251,-0.9951172,-0.10546875,-0.06542969,0.375,0.0625,0.09375,0.0,0.0,0.0,461
426,1695991879291,-0.99121094,-0.087890625,-0.06933594,0.78125,0.4375,0.03125,0.0,0.0,0.0,462
427,1695991879331,-0.99316406,-0.09863281,-0.07910156,0.125,-0.0625,0.15625,0.0,0.0,0.0,463
428,1695991879371,-0.9921875,-0.08886719,-0.06542969,0.65625,0.375,-0.1875,0.0,0.0,0.0,464
429,1695991879411,-0.98828125,-0.083984375,-0.08496094,0.5625,-0.0625,0.09375,-26.125,-51.75,-27.3125,465
430,1695991879451,-0.9892578,-0.09277344,-0.07519531,0.0625,-0.1875,0.09375,0.0,0.0,0.0,466
431,1695991879491,-0.9902344,-0.0859375,-0.07910156,0.25,-0.1875,0.03125,0.0,0.0,0.0,467
432,1695991879531,-0.9970703,-0.08105469,-0.06933594,0.4375,-0.125,-0.125,0.0,0.0,0.0,468
433,1695991879571,-0.9921875,-0.08496094,-0.06640625,0.125,-0.3125,-0.0625,0.0,0.0,0.0,469
434,1695991879611,-0.99609375,-0.08203125,-0.0703125,0.4375,-0.1875,-0.0625,0.0,0.0,0.0,470
435,1695991879651,-1.0,-0.09277344,-0.064453125,-0.4375,-0.125,-0.1875,0.0,0.0,0.0,471
436,1695991879691,-0.9863281,-0.10058594,-0.064453125,-0.5625,-0.46875,-0.125,0.0,0.0,0.0,472
437,1695991879731,-0.9941406,-0.08300781,-0.06738281,-0.375,-0.1875,-0.1875,0.0,0.0,0.0,473
438,1695991879771,-0.99316406,-0.08300781,-0.07421875,-0.75,-0.46875,-0.25,0.0,0.0,0.0,474
439,1695991879811,-0.9892578,-0.103515625,-0.064453125,-1.46875,-0.25,-0.125,0.0,0.0,0.0,475
440,1695991879851,-0.9873047,-0.08886719,-0.06542969,-0.90625,-0.125,-0.1875,0.0,0.0,0.0,476
441,1695991879891,-0.99902344,-0.10546875,-0.060546875,-1.21875,-0.40625,-0.1875,0.0,0.0,0.0,477
442,1695991879931,-0.98828125,-0.09863281,-0.07910156,-0.5625,-0.1875,-0.1875,-25.8125,-51.3125,-29.0,478
443,1695991879971,-0.98828125,-0.08886719,-0.08203125,-0.6875,-0.25,-0.1875,0.0,0.0,0.0,479
444,1695991880011,-0.9892578,-0.09472656,-0.08203125,-0.5625,-0.1875,-0.1875,0.0,0.0,0.0,480
445,1695991880051,-0.9951172,-0.09472656,-0.064453125,-0.25,-0.1875,-0.3125,0.0,0.0,0.0,481
446,1695991880091,-0.98046875,-0.09667969,-0.07421875,-0.625,-0.40625,-0.375,0.0,0.0,0.0,482
447,1695991880131,-0.98828125,-0.103515625,-0.0625,-0.0625,-0.34375,-0.3125,0.0,0.0,0.0,483
448,1695991880171,-0.9892578,-0.091796875,-0.06347656,-0.5625,-0.125,-0.1875,0.0,0.0,0.0,484
449,1695991880211,-0.9941406,-0.1015625,-0.07128906,-0.1875,-0.40625,-0.1875,0.0,0.0,0.0,485
450,1695991880251,-0.98828125,-0.09277344,-0.060546875,0.3125,-0.53125,-0.125,0.0,0.0,0.0,486
451,1695991880291,-0.9941406,-0.09863281,-0.07128906,-0.1875,-0.3125,-0.1875,0.0,0.0,0.0,487
452,1695991880331,-0.99316406,-0.08496094,-0.053710938,0.90625,-0.3125,0.03125,0.0,0.0,0.0,488
453,1695991880371,-0.9941406,-0.08984375,-0.0625,0.1875,-0.53125,0.0,0.0,0.0,0.0,489
454,1695991880411,-1.0,-0.095703125,-0.056640625,0.1875,-0.25,-0.125,-25.8125,-50.25,-29.0,490
455,1695991880451,-0.9892578,-0.095703125,-0.055664062,0.1875,-0.65625,-0.125,0.0,0.0,0.0,491
456,1695991880491,-0.9941406,-0.111328125,-0.06933594,-0.0625,-0.53125,0.09375,0.0,0.0,0.0,492
457,1695991880531,-0.9921875,-0.095703125,-0.06347656,0.4375,-0.34375,0.03125,0.0,0.0,0.0,493
458,1695991880571,-0.99121094,-0.09765625,-0.041992188,0.84375,-0.53125,0.15625,0.0,0.0,0.0,494
459,1695991880611,-0.9892578,-0.09375,-0.052734375,0.375,-0.25,0.0,0.0,0.0,0.0,495
460,1695991880651,-1.0,-0.09375,-0.06542969,0.5625,-0.1875,0.03125,0.0,0.0,0.0,496
461,1695991880691,-0.9951172,-0.08496094,-0.04296875,0.0,-0.46875,0.03125,0.0,0.0,0.0,497
462,1695991880731,-0.9873047,-0.09667969,-0.0625,-0.125,-0.34375,0.0,0.0,0.0,0.0,498
463,1695991880771,-0.9902344,-0.09765625,-0.0625,0.1875,-0.1875,0.15625,0.0,0.0,0.0,499
464,1695991880811,-0.9863281,-0.09082031,-0.07519531,-0.0625,-0.34375,0.15625,0.0,0.0,0.0,500
465,1695991880851,-0.99121094,-0.08691406,-0.055664062,0.59375,-0.125,0.0,0.0,0.0,0.0,501
466,1695991880891,-0.9902344,-0.08984375,-0.05859375,-0.0625,-0.46875,0.03125,0.0,0.0,0.0,502
467,1695991880931,-0.99121094,-0.095703125,-0.07910156,0.1875,-0.53125,0.09375,-25.375,-52.5,-25.5,503
468,1695991880971,-0.98828125,-0.09082031,-0.057617188,-0.25,0.0,0.03125,0.0,0.0,0.0,504
469,1695991881011,-0.9951172,-0.08203125,-0.06640625,0.1875,-0.25,0.09375,0.0,0.0,0.0,505
470,1695991881051,-0.984375,-0.09667969,-0.060546875,0.0,-0.65625,0.21875,0.0,0.0,0.0,506
471,1695991881091,-0.9970703,-0.095703125,-0.072265625,-0.25,-0.59375,-0.125,0.0,0.0,0.0,507
472,1695991881131,-0.98828125,-0.08984375,-0.056640625,0.0,-0.40625,0.09375,0.0,0.0,0.0,508
473,1695991881171,-1.0,-0.099609375,-0.0703125,-0.5,-0.125,0.15625,0.0,0.0,0.0,509
474,1695991881211,-0.99121094,-0.09667969,-0.049804688,-0.375,-0.53125,-0.125,0.0,0.0,0.0,510
475,1695991881251,-0.9951172,-0.09863281,-0.056640625,-0.0625,-0.46875,0.03125,0.0,0.0,0.0,511
476,1695991881291,-0.99609375,-0.087890625,-0.041015625,-0.1875,-0.40625,-0.1875,0.0,0.0,0.0,512
477,1695991881331,-0.99609375,-0.10058594,-0.051757812,0.3125,-0.53125,0.0,0.0,0.0,0.0,513
478,1695991881371,-0.99121094,-0.09277344,-0.052734375,0.0625,-0.40625,0.0,0.0,0.0,0.0,514
479,1695991881411,-0.9980469,-0.08984375,-0.06640625,0.0625,-0.34375,0.03125,-24.4375,-51.125,-27.5,515
480,1695991881451,-0.98828125,-0.09082031,-0.051757812,1.09375,-0.34375,0.40625,0.0,0.0,0.0,516
481,1695991881491,-0.9921875,-0.10253906,-0.05859375,0.0625,0.0,0.15625,0.0,0.0,0.0,517
482,1695991881531,-0.9980469,-0.09375,-0.041992188,-0.1875,0.375,-0.125,0.0,0.0,0.0,518
483,1695991881571,-0.9824219,-0.08984375,-0.061523438,0.0,-0.34375,0.15625,0.0,0.0,0.0,519
484,1695991881611,-0.9814453,-0.111328125,-0.07128906,-0.125,-0.46875,0.34375,0.0,0.0,0.0,520
485,1695991881651,-0.99316406,-0.08984375,-0.064453125,-0.5,0.125,-0.125,0.0,0.0,0.0,521
486,1695991881691,-0.9785156,-0.087890625,-0.06347656,-0.3125,-0.0625,-0.125,0.0,0.0,0.0,522
487,1695991881731,-0.9941406,-0.09765625,-0.056640625,-0.1875,0.125,0.21875,0.0,0.0,0.0,523
488,1695991881771,-0.984375,-0.09082031,-0.05078125,-0.125,0.0,-0.1875,0.0,0.0,0.0,524
489,1695991881811,-0.9892578,-0.09667969,-0.048828125,-0.5,-0.125,-0.1875,0.0,0.0,0.0,525
490,1695991881851,-0.99609375,-0.08886719,-0.059570312,0.0,0.3125,-0.0625,0.0,0.0,0.0,526
491,1695991881891,-0.9980469,-0.09375,-0.0546875,-0.4375,-0.0625,0.03125,0.0,0.0,0.0,527
492,1695991881931,-0.984375,-0.09375,-0.06738281,-0.84375,0.0,-0.4375,-26.875,-51.3125,-27.9375,528
493,1695991881971,-1.0,-0.091796875,-0.05859375,-0.84375,-0.1875,-0.25,0.0,0.0,0.0,529
494,1695991882011,-0.9941406,-0.10449219,-0.05859375,-0.1875,0.0625,0.53125,0.0,0.0,0.0,530
495,1695991882051,-0.99902344,-0.099609375,-0.0546875,-1.09375,0.0625,0.09375,0.0,0.0,0.0,531
496,1695991882091,-0.9951172,-0.09863281,-0.055664062,-0.25,0.1875,-0.125,0.0,0.0,0.0,532
497,1695991882131,-0.99316406,-0.095703125,-0.064453125,0.1875,-0.40625,0.03125,0.0,0.0,0.0,533
498,1695991882171,-0.9892578,-0.099609375,-0.053710938,0.25,-0.0625,0.03125,0.0,0.0,0.0,534
499,1695991882211,-0.98828125,-0.091796875,-0.047851562,0.1875,-0.125,-0.1875,0.0,0.0,0.0,535
500,1695991882251,-0.99609375,-0.1015625,-0.061523438,0.4375,-0.125,0.03125,0.0,0.0,0.0,536
501,1695991882291,-0.99121094,-0.09082031,-0.05078125,0.3125,0.3125,0.03125,0.0,0.0,0.0,537
502,1695991882331,-0.9941406,-0.09667969,-0.05859375,0.0,-0.0625,-0.125,0.0,0.0,0.0,538
503,1695991882371,-0.9921875,-0.091796875,-0.060546875,0.25,0.125,0.0,0.0,0.0,0.0,539
504,1695991882411,-0.99902344,-0.103515625,-0.07324219,-0.375,0.0625,0.09375,-26.25,-51.5625,-26.75,540
505,1695991882451,-0.9941406,-0.10449219,-0.045898438,-0.125,0.4375,-0.125,0.0,0.0,0.0,541
506,1695991882491,-0.9921875,-0.103515625,-0.053710938,-0.375,0.375,0.21875,0.0,0.0,0.0,542
507,1695991882531,-0.99902344,-0.09375,-0.051757812,0.0625,0.5625,0.21875,0.0,0.0,0.0,543
508,1695991882571,-0.9873047,-0.08300781,-0.051757812,-0.1875,0.0,0.03125,0.0,0.0,0.0,544
509,1695991882611,-0.9951172,-0.107421875,-0.064453125,-0.1875,0.1875,0.03125,0.0,0.0,0.0,545
510,1695991882651,-0.99121094,-0.095703125,-0.060546875,0.0625,0.3125,0.21875,0.0,0.0,0.0,546
511,1695991882691,-0.99902344,-0.10253906,-0.06738281,0.0625,0.0625,0.09375,0.0,0.0,0.0,547
512,1695991882731,-0.99902344,-0.103515625,-0.061523438,0.5,0.625,0.0,0.0,0.0,0.0,548
513,1695991882771,-0.99609375,-0.08886719,-0.045898438,-0.1875,-0.0625,0.03125,0.0,0.0,0.0,549
514,1695991882811,-0.9902344,-0.095703125,-0.0546875,0.4375,0.0625,0.03125,0.0,0.0,0.0,550
515,1695991882851,-0.9873047,-0.09375,-0.08105469,0.4375,0.5,-0.125,0.0,0.0,0.0,551
516,1695991882891,-0.9863281,-0.087890625,-0.045898438,0.71875,0.5,0.21875,0.0,0.0,0.0,552
517,1695991882931,-0.99316406,-0.09082031,-0.040039062,0.375,0.3125,0.03125,-26.375,-52.8125,-27.3125,553
518,1695991882971,-0.984375,-0.095703125,-0.057617188,0.0625,0.1875,-0.25,0.0,0.0,0.0,554
519,1695991883011,-0.9951172,-0.1015625,-0.060546875,0.3125,0.375,-0.25,0.0,0.0,0.0,555
520,1695991883051,-0.9921875,-0.087890625,-0.053710938,0.0,0.0625,0.0,0.0,0.0,0.0,556
521,1695991883091,-0.9863281,-0.09277344,-0.0703125,0.3125,-0.34375,-0.125,0.0,0.0,0.0,557
522,1695991883131,-0.99121094,-0.08691406,-0.076171875,0.0,0.1875,-0.3125,0.0,0.0,0.0,558
523,1695991883171,-0.99121094,-0.10449219,-0.064453125,-0.0625,-0.0625,-0.0625,0.0,0.0,0.0,559
524,1695991883211,-0.99121094,-0.09375,-0.06738281,-0.5625,-0.1875,-0.1875,0.0,0.0,0.0,560
525,1695991883251,-0.9892578,-0.09765625,-0.060546875,-0.125,-0.34375,-0.25,0.0,0.0,0.0,561
526,1695991883291,-0.9902344,-0.09082031,-0.051757812,0.0,0.0,-0.1875,0.0,0.0,0.0,562
527,1695991883331,-0.9980469,-0.10058594,-0.06347656,-0.3125,-0.1875,0.03125,0.0,0.0,0.0,563
528,1695991883371,-0.99121094,-0.095703125,-0.049804688,-0.1875,0.0,-0.0625,0.0,0.0,0.0,564
529,1695991883411,-0.9941406,-0.10058594,-0.048828125,-0.6875,-0.1875,0.03125,-25.9375,-51.875,-27.5,565
530,1695991883451,-0.98828125,-0.10449219,-0.07128906,-0.3125,-0.46875,-0.1875,0.0,0.0,0.0,566
531,1695991883491,-0.9921875,-0.09375,-0.04296875,-1.21875,-0.3125,-0.25,0.0,0.0,0.0,567
532,1695991883531,-0.984375,-0.095703125,-0.060546875,-0.75,-0.3125,-0.125,0.0,0.0,0.0,568
533,1695991883571,-0.98828125,-0.09765625,-0.05859375,-0.3125,-0.40625,-0.1875,0.0,0.0,0.0,569
534,1695991883611,-0.9863281,-0.09082031,-0.06542969,-0.78125,-0.34375,-0.125,0.0,0.0,0.0,570
535,1695991883651,-0.9863281,-0.09667969,-0.056640625,-0.5,-0.34375,0.03125,0.0,0.0,0.0,571
536,1695991883691,-0.9980469,-0.0859375,-0.064453125,-0.25,-0.25,0.09375,0.0,0.0,0.0,572
537,1695991883731,-0.98828125,-0.103515625,-0.055664062,-1.03125,-0.25,0.21875,0.0,0.0,0.0,573
538,1695991883771,-0.98535156,-0.087890625,-0.056640625,-0.90625,-0.46875,0.15625,0.0,0.0,0.0,574
539,1695991883811,-0.99609375,-0.10253906,-0.068359375,-0.84375,-0.46875,0.21875,0.0,0.0,0.0,575
540,1695991883851,-0.98828125,-0.09863281,-0.034179688,-0.1875,-0.125,0.09375,0.0,0.0,0.0,576
541,1695991883891,-0.9980469,-0.09082031,-0.068359375,-0.0625,-0.34375,0.09375,0.0,0.0,0.0,577
542,1695991883931,-0.99121094,-0.091796875,-0.034179688,0.375,-0.0625,0.15625,-27.4375,-50.6875,-28.6875,578
543,1695991883971,-0.98535156,-0.095703125,-0.055664062,0.4375,0.0,0.28125,0.0,0.0,0.0,579
544,1695991884011,-0.9921875,-0.09863281,-0.048828125,0.4375,0.125,0.34375,0.0,0.0,0.0,580
545,1695991884051,-0.99316406,-0.10058594,-0.06738281,0.1875,0.0,0.34375,0.0,0.0,0.0,581
546,1695991884091,-0.99121094,-0.08984375,-0.05078125,0.0625,0.1875,0.40625,0.0,0.0,0.0,582
547,1695991884131,-0.9873047,-0.08984375,-0.0546875,0.0625,0.0,0.28125,0.0,0.0,0.0,583
548,1695991884171,-0.99121094,-0.08984375,-0.041015625,0.0,0.375,0.34375,0.0,0.0,0.0,584
549,1695991884211,-0.9785156,-0.09082031,-0.064453125,0.375,-0.0625,0.53125,0.0,0.0,0.0,585
550,1695991884251,-0.98828125,-0.08691406,-0.06542969,0.25,0.5,0.59375,0.0,0.0,0.0,586
551,1695991884291,-0.98828125,-0.107421875,-0.051757812,-0.125,0.625,0.28125,0.0,0.0,0.0,587
552,1695991884331,-0.98828125,-0.09472656,-0.040039062,-0.0625,0.25,0.34375,0.0,0.0,0.0,588
553,1695991884371,-0.9921875,-0.099609375,-0.05078125,0.71875,0.375,0.65625,0.0,0.0,0.0,589
554,1695991884411,-0.98339844,-0.08203125,-0.0390625,-0.3125,0.75,0.28125,-24.875,-52.625,-26.4375,590
555,1695991884451,-0.9951172,-0.083984375,-0.046875,0.59375,0.5,0.40625,0.0,0.0,0.0,591
556,1695991884491,-0.9921875,-0.09082031,-0.053710938,0.125,0.5625,0.46875,0.0,0.0,0.0,592
557,1695991884531,-1.0,-0.08984375,-0.06347656,0.3125,0.9375,0.40625,0.0,0.0,0.0,593
558,1695991884571,-0.9941406,-0.08984375,-0.053710938,0.0625,0.9375,0.46875,0.0,0.0,0.0,594
559,1695991884611,-0.9921875,-0.08691406,-0.051757812,-0.4375,0.75,0.34375,0.0,0.0,0.0,595
560,1695991884651,-0.9921875,-0.09277344,-0.06347656,0.0,0.5625,0.40625,0.0,0.0,0.0,596
561,1695991884691,-0.99316406,-0.083984375,-0.060546875,-0.4375,0.625,0.0,0.0,0.0,0.0,597
562,1695991884731,-1.0,-0.08691406,-0.0546875,-0.25,0.3125,-0.0625,0.0,0.0,0.0,598
563,1695991884771,-0.9873047,-0.08105469,-0.053710938,0.5625,0.25,0.15625,0.0,0.0,0.0,599
564,1695991884811,-0.9873047,-0.09277344,-0.06347656,0.65625,0.3125,0.15625,0.0,0.0,0.0,600
565,1695991884851,-0.98828125,-0.08496094,-0.055664062,-0.3125,0.9375,-0.1875,0.0,0.0,0.0,601
566,1695991884891,-0.9892578,-0.0859375,-0.053710938,0.0,0.5625,-0.0625,0.0,0.0,0.0,602
567,1695991884931,-0.98828125,-0.09375,-0.06933594,0.125,0.3125,0.21875,-27.75,-52.1875,-28.0625,603
568,1695991884971,-0.9970703,-0.09082031,-0.060546875,0.125,0.625,-0.3125,0.0,0.0,0.0,604
569,1695991885011,-0.99121094,-0.08984375,-0.07324219,0.4375,0.625,0.0,0.0,0.0,0.0,605
570,1695991885051,-0.9970703,-0.08203125,-0.06347656,0.59375,0.5,0.03125,0.0,0.0,0.0,606
571,1695991885091,-0.9892578,-0.09375,-0.072265625,0.96875,0.375,-0.0625,0.0,0.0,0.0,607
572,1695991885131,-0.98535156,-0.07910156,-0.0625,0.90625,0.6875,-0.1875,0.0,0.0,0.0,608
573,1695991885171,-0.9941406,-0.083984375,-0.0625,1.09375,0.375,0.0,0.0,0.0,0.0,609
574,1695991885211,-0.9921875,-0.09277344,-0.059570312,0.25,0.4375,0.0,0.0,0.0,0.0,610
575,1695991885251,-0.98828125,-0.09667969,-0.06640625,-0.0625,0.1875,-0.0625,0.0,0.0,0.0,611
576,1695991885291,-0.9970703,-0.09375,-0.053710938,-0.625,0.0625,-0.25,0.0,0.0,0.0,612
577,1695991885331,-0.98535156,-0.091796875,-0.043945312,0.0,0.125,0.21875,0.0,0.0,0.0,613
578,1695991885371,-1.0029297,-0.091796875,-0.059570312,-0.375,0.125,-0.125,0.0,0.0,0.0,614
579,1695991885411,-0.99121094,-0.10449219,-0.0703125,0.125,0.125,-0.3125,-26.25,-51.5625,-29.875,615
580,1695991885451,-0.984375,-0.10058594,-0.064453125,0.5,0.1875,0.0,0.0,0.0,0.0,616
581,1695991885491,-0.9873047,-0.09277344,-0.08203125,0.125,0.3125,0.03125,0.0,0.0,0.0,617
582,1695991885531,-0.99121094,-0.083984375,-0.080078125,1.09375,0.1875,0.03125,0.0,0.0,0.0,618
583,1695991885571,-0.9902344,-0.0859375,-0.06933594,-0.4375,0.0,-0.125,0.0,0.0,0.0,619
584,1695991885611,-0.9980469,-0.091796875,-0.0703125,0.125,0.1875,0.09375,0.0,0.0,0.0,620
585,1695991885651,-0.9941406,-0.09863281,-0.06933594,0.3125,0.0625,0.15625,0.0,0.0,0.0,621
586,1695991885691,-0.99609375,-0.09667969,-0.053710938,-0.25,0.125,-0.0625,0.0,0.0,0.0,622
587,1695991885731,-1.0,-0.095703125,-0.064453125,0.25,0.25,0.09375,0.0,0.0,0.0,623
588,1695991885771,-0.9892578,-0.08984375,-0.0546875,0.0625,0.1875,0.0,0.0,0.0,0.0,624
589,1695991885811,-0.99609375,-0.1015625,-0.057617188,-0.75,-0.125,-0.125,0.0,0.0,0.0,625
590,1695991885851,-0.98828125,-0.09277344,-0.0703125,0.5,0.125,0.09375,0.0,0.0,0.0,626
591,1695991885891,-0.99316406,-0.09667969,-0.07910156,-0.4375,-0.125,0.09375,0.0,0.0,0.0,627
592,1695991885931,-0.9892578,-0.087890625,-0.060546875,0.0625,0.3125,0.21875,-25.9375,-50.8125,-27.75,628
593,1695991885971,-0.99316406,-0.09863281,-0.048828125,-0.125,-0.1875,0.09375,0.0,0.0,0.0,629
594,1695991886011,-0.98828125,-0.09082031,-0.068359375,0.1875,0.0,0.15625,0.0,0.0,0.0,630
595,1695991886051,-0.98339844,-0.08984375,-0.064453125,-0.1875,0.0625,0.09375,0.0,0.0,0.0,631
596,1695991886091,-0.9902344,-0.09277344,-0.07128906,0.5,0.0,0.15625,0.0,0.0,0.0,632
597,1695991886131,-1.0,-0.09277344,-0.064453125,0.90625,0.1875,0.03125,0.0,0.0,0.0,633
598,1695991886171,-0.9941406,-0.09082031,-0.06640625,-0.25,0.0,0.03125,0.0,0.0,0.0,634
599,1695991886211,-0.9902344,-0.08203125,-0.064453125,0.125,0.3125,0.0,0.0,0.0,0.0,635
600,1695991886251,-0.9941406,-0.087890625,-0.064453125,0.3125,0.0625,-0.125,0.0,0.0,0.0,636
601,1695991886291,-0.9902344,-0.087890625,-0.07714844,0.4375,0.3125,-0.0625,0.0,0.0,0.0,637
602,1695991886331,-0.99609375,-0.08496094,-0.05859375,0.25,0.125,0.0,0.0,0.0,0.0,638
603,1695991886371,-0.9941406,-0.08984375,-0.06347656,0.5,0.4375,0.0,0.0,0.0,0.0,639
604,1695991886411,-0.98828125,-0.09082031,-0.076171875,0.0625,0.125,0.03125,-27.0,-52.9375,-27.75,640
605,1695991886451,-0.9892578,-0.08984375,-0.06640625,-0.375,0.0,0.0,0.0,0.0,0.0,641
606,1695991886491,-0.9892578,-0.07910156,-0.06542969,0.5,0.4375,0.03125,0.0,0.0,0.0,642
607,1695991886531,-0.984375,-0.09667969,-0.0703125,0.0,0.25,0.09375,0.0,0.0,0.0,643
608,1695991886571,-0.9902344,-0.09082031,-0.059570312,-0.125,0.25,0.03125,0.0,0.0,0.0,644
609,1695991886611,-0.9970703,-0.09375,-0.072265625,0.375,0.25,0.03125,0.0,0.0,0.0,645
610,1695991886651,-0.9941406,-0.08886719,-0.0703125,-0.75,0.125,0.09375,0.0,0.0,0.0,646
611,1695991886691,-0.9902344,-0.09277344,-0.05859375,0.0625,0.1875,-0.125,0.0,0.0,0.0,647
612,1695991886731,-0.99609375,-0.09277344,-0.07421875,-0.1875,0.0,0.0,0.0,0.0,0.0,648
613,1695991886771,-0.9941406,-0.087890625,-0.056640625,0.5625,0.5625,0.09375,0.0,0.0,0.0,649
614,1695991886811,-0.9941406,-0.08496094,-0.068359375,-0.1875,0.0,0.03125,0.0,0.0,0.0,650
615,1695991886851,-0.99609375,-0.08886719,-0.076171875,0.4375,-0.0625,-0.0625,0.0,0.0,0.0,651
616,1695991886891,-0.99121094,-0.08984375,-0.083984375,0.5,0.3125,0.0,0.0,0.0,0.0,652
617,1695991886931,-0.9941406,-0.09277344,-0.051757812,-0.3125,0.1875,0.0,-26.875,-51.75,-26.875,653
618,1695991886971,-0.9863281,-0.08984375,-0.060546875,0.65625,0.25,0.03125,0.0,0.0,0.0,654
619,1695991887011,-1.0009766,-0.09082031,-0.06542969,-0.125,0.0,0.03125,0.0,0.0,0.0,655
620,1695991887051,-0.99316406,-0.08886719,-0.0703125,0.78125,0.4375,-0.125,0.0,0.0,0.0,656
621,1695991887091,-0.98046875,-0.10058594,-0.0859375,-0.6875,-0.3125,0.21875,0.0,0.0,0.0,657
622,1695991887131,-1.0019531,-0.091796875,-0.080078125,0.0625,0.125,-0.0625,0.0,0.0,0.0,658
623,1695991887171,-0.98828125,-0.09765625,-0.07421875,-0.1875,-0.34375,0.21875,0.0,0.0,0.0,659
624,1695991887211,-0.9902344,-0.09667969,-0.0546875,0.59375,0.25,0.03125,0.0,0.0,0.0,660
625,1695991887251,-0.9892578,-0.087890625,-0.068359375,0.375,-0.125,0.15625,0.0,0.0,0.0,661
626,1695991887291,-1.0039062,-0.09472656,-0.07910156,0.5,0.0,0.15625,0.0,0.0,0.0,662
627,1695991887331,-0.9902344,-0.083984375,-0.055664062,0.4375,0.0,0.03125,0.0,0.0,0.0,663
628,1695991887371,-0.99121094,-0.08496094,-0.07324219,0.0,-0.3125,0.0,0.0,0.0,0.0,664
629,1695991887411,-0.9970703,-0.09375,-0.072265625,0.125,-0.0625,0.15625,-25.9375,-51.5625,-26.75,665
630,1695991887451,-0.9902344,-0.091796875,-0.080078125,0.3125,-0.125,0.28125,0.0,0.0,0.0,666
631,1695991887491,-1.0029297,-0.09375,-0.06542969,-0.1875,0.1875,0.0,0.0,0.0,0.0,667
632,1695991887531,-0.98535156,-0.09375,-0.07128906,-0.375,-0.3125,0.0,0.0,0.0,0.0,668
633,1695991887571,-0.9921875,-0.09765625,-0.0625,0.0625,-0.46875,0.09375,0.0,0.0,0.0,669
634,1695991887611,-0.984375,-0.0859375,-0.056640625,0.78125,-0.1875,0.15625,0.0,0.0,0.0,670
635,1695991887651,-0.9902344,-0.0859375,-0.060546875,-0.125,-0.40625,0.09375,0.0,0.0,0.0,671
636,1695991887691,-0.99609375,-0.08886719,-0.07128906,-0.0625,-0.25,0.09375,0.0,0.0,0.0,672
637,1695991887731,-0.98828125,-0.09863281,-0.06738281,-0.5,-0.90625,-0.0625,0.0,0.0,0.0,673
638,1695991887771,-0.9814453,-0.08496094,-0.0703125,-0.3125,-0.65625,-0.0625,0.0,0.0,0.0,674
639,1695991887811,-0.9892578,-0.08984375,-0.061523438,0.71875,-0.46875,0.03125,0.0,0.0,0.0,675
640,1695991887851,-0.9951172,-0.095703125,-0.06640625,0.65625,-0.53125,0.0,0.0,0.0,0.0,676
641,1695991887891,-0.9921875,-0.08886719,-0.060546875,0.375,-0.90625,-0.3125,0.0,0.0,0.0,677
642,1695991887931,-0.98828125,-0.09277344,-0.061523438,1.03125,-0.71875,-0.0625,-26.125,-52.5,-27.3125,678
643,1695991887971,-0.9921875,-0.09765625,-0.060546875,1.03125,-0.71875,-0.375,0.0,0.0,0.0,679
644,1695991888011,-0.9970703,-0.09375,-0.055664062,-0.125,-0.65625,-0.25,0.0,0.0,0.0,680
645,1695991888051,-0.9824219,-0.08984375,-0.057617188,0.5625,-0.78125,-0.125,0.0,0.0,0.0,681
646,1695991888091,-0.9941406,-0.09375,-0.068359375,-0.0625,-0.59375,-0.25,0.0,0.0,0.0,682
647,1695991888131,-0.99316406,-0.087890625,-0.06347656,-0.96875,-0.53125,-0.0625,0.0,0.0,0.0,683
648,1695991888171,-0.99121094,-0.087890625,-0.06347656,-0.4375,-0.59375,0.09375,0.0,0.0,0.0,684
649,1695991888211,-0.9921875,-0.09082031,-0.06933594,-0.4375,-0.65625,-0.0625,0.0,0.0,0.0,685
650,1695991888251,-1.0019531,-0.087890625,-0.060546875,-1.03125,-0.40625,-0.375,0.0,0.0,0.0,686
651,1695991888291,-0.99121094,-0.09277344,-0.055664062,-0.0625,-0.78125,0.0,0.0,0.0,0.0,687
652,1695991888331,-0.99609375,-0.09667969,-0.05859375,0.25,-0.71875,-0.125,0.0,0.0,0.0,688
653,1695991888371,-0.9951172,-0.083984375,-0.055664062,0.125,-0.46875,-0.375,0.0,0.0,0.0,689
654,1695991888411,-0.9921875,-0.09765625,-0.0546875,-0.5,-0.78125,-0.1875,-24.875,-51.125,-28.0625,690
655,1695991888451,-1.0009766,-0.09375,-0.06542969,0.4375,-0.40625,-0.0625,0.0,0.0,0.0,691
656,1695991888491,-0.9892578,-0.09667969,-0.051757812,-0.4375,-0.46875,-0.3125,0.0,0.0,0.0,692
657,1695991888531,-0.99316406,-0.09667969,-0.056640625,-0.1875,-0.40625,-0.25,0.0,0.0,0.0,693
658,1695991888571,-0.98339844,-0.08984375,-0.05859375,0.25,-0.1875,0.09375,0.0,0.0,0.0,694
659,1695991888611,-0.9980469,-0.09863281,-0.05859375,-0.0625,-0.125,0.21875,0.0,0.0,0.0,695
660,1695991888651,-0.9863281,-0.09375,-0.05859375,-0.75,-0.1875,-0.3125,0.0,0.0,0.0,696
661,1695991888691,-0.9794922,-0.09667969,-0.060546875,-0.375,-0.46875,-0.1875,0.0,0.0,0.0,697
662,1695991888731,-0.9921875,-0.08984375,-0.045898438,-0.0625,-0.1875,-0.0625,0.0,0.0,0.0,698
663,1695991888771,-0.99902344,-0.10644531,-0.051757812,-0.0625,0.0625,-0.0625,0.0,0.0,0.0,699
664,1695991888811,-1.0,-0.0859375,-0.041992188,-0.96875,-0.125,-0.3125,0.0,0.0,0.0,700
665,1695991888851,-0.98535156,-0.10644531,-0.068359375,-0.375,-0.59375,0.0,0.0,0.0,0.0,701
666,1695991888891,-0.9902344,-0.08886719,-0.06640625,0.125,-0.125,0.03125,0.0,0.0,0.0,702
667,1695991888931,-0.99902344,-0.10253906,-0.056640625,-0.375,-0.0625,-0.1875,-26.5625,-50.8125,-28.5,703
668,1695991888971,-0.99609375,-0.08300781,-0.060546875,0.125,-0.1875,0.15625,0.0,0.0,0.0,704
669,1695991889011,-0.99316406,-0.091796875,-0.07519531,0.0,-0.0625,0.03125,0.0,0.0,0.0,705
670,1695991889051,-0.984375,-0.08691406,-0.046875,-0.5,-0.3125,0.03125,0.0,0.0,0.0,706
671,1695991889091,-0.9970703,-0.10253906,-0.06542969,-0.25,-0.59375,-0.125,0.0,0.0,0.0,707
672,1695991889131,-0.98339844,-0.09277344,-0.051757812,-0.125,-0.0625,-0.0625,0.0,0.0,0.0,708
673,1695991889171,-0.9863281,-0.10449219,-0.051757812,0.0,-0.46875,0.09375,0.0,0.0,0.0,709
674,1695991889211,-0.9941406,-0.09375,-0.05859375,0.5625,0.125,-0.125,0.0,0.0,0.0,710
675,1695991889251,-0.9941406,-0.08496094,-0.06347656,0.1875,-0.46875,0.28125,0.0,0.0,0.0,711
676,1695991889291,-0.9863281,-0.087890625,-0.057617188,-0.0625,-0.1875,0.03125,0.0,0.0,0.0,712
677,1695991889331,-0.9941406,-0.09082031,-0.048828125,0.1875,-0.25,0.03125,0.0,0.0,0.0,713
678,1695991889371,-0.9892578,-0.09082031,-0.047851562,-0.25,-0.3125,-0.0625,0.0,0.0,0.0,714
679,1695991889411,-0.9921875,-0.09765625,-0.07324219,0.4375,-0.53125,0.21875,-25.1875,-51.5625,-27.5,715
680,1695991889451,-0.9921875,-0.099609375,-0.064453125,-0.0625,-0.1875,-0.0625,0.0,0.0,0.0,716
681,1695991889491,-0.99121094,-0.08984375,-0.060546875,-0.25,-0.1875,-0.0625,0.0,0.0,0.0,717
682,1695991889531,-0.9814453,-0.10449219,-0.051757812,0.0,0.0,0.15625,0.0,0.0,0.0,718
683,1695991889571,-0.9892578,-0.09375,-0.05078125,0.5,0.25,0.03125,0.0,0.0,0.0,719
684,1695991889611,-0.9902344,-0.10449219,-0.051757812,-0.375,-0.1875,-0.0625,0.0,0.0,0.0,720
685,1695991889651,-0.98828125,-0.087890625,-0.059570312,0.0625,-0.1875,0.09375,0.0,0.0,0.0,721
686,1695991889691,-0.9970703,-0.09375,-0.056640625,0.375,0.4375,-0.0625,0.0,0.0,0.0,722
687,1695991889731,-0.9921875,-0.09667969,-0.061523438,-0.3125,0.0,0.0,0.0,0.0,0.0,723
688,1695991889771,-0.9824219,-0.09863281,-0.061523438,0.65625,-0.0625,-0.1875,0.0,0.0,0.0,724
689,1695991889811,-0.984375,-0.087890625,-0.057617188,0.5,0.1875,0.15625,0.0,0.0,0.0,725
690,1695991889851,-0.9892578,-0.09667969,-0.0625,0.1875,0.1875,0.09375,0.0,0.0,0.0,726
691,1695991889891,-0.9863281,-0.09277344,-0.044921875,0.1875,0.125,-0.1875,-27.4375,-51.3125,-27.3125,727
692,1695991889931,-0.97753906,-0.10449219,-0.055664062,0.0625,-0.1875,0.0,0.0,0.0,0.0,728
693,1695991889971,-0.98828125,-0.10449219,-0.06347656,1.03125,0.4375,-0.25,0.0,0.0,0.0,729
694,1695991890011,-0.99121094,-0.08203125,-0.043945312,0.375,-0.25,0.0,0.0,0.0,0.0,730
695,1695991890051,-0.9970703,-0.09765625,-0.049804688,0.3125,-0.0625,-0.375,0.0,0.0,0.0,731
696,1695991890091,-0.9892578,-0.095703125,-0.05859375,0.78125,0.0625,0.0,0.0,0.0,0.0,732
697,1695991890131,-1.0039062,-0.08886719,-0.040039062,0.4375,0.0,0.0,0.0,0.0,0.0,733
698,1695991890171,-0.9941406,-0.09667969,-0.049804688,0.0,0.0,-0.25,0.0,0.0,0.0,734
699,1695991890211,-0.9941406,-0.08984375,-0.05078125,-0.0625,-0.3125,-0.3125,0.0,0.0,0.0,735
700,1695991890251,-0.9921875,-0.10449219,-0.061523438,-0.1875,-0.3125,-0.5625,0.0,0.0,0.0,736
701,1695991890291,-0.9892578,-0.099609375,-0.061523438,-0.625,-0.78125,-0.4375,0.0,0.0,0.0,737
702,1695991890331,-0.9941406,-0.08300781,-0.04296875,-1.03125,-0.71875,-0.75,0.0,0.0,0.0,738
703,1695991890371,-0.9921875,-0.08984375,-0.0703125,-0.5,-0.90625,-0.25,0.0,0.0,0.0,739
704,1695991890411,-0.9902344,-0.107421875,-0.08105469,-0.625,0.0625,0.15625,-25.5,-51.125,-28.0625,740
705,1695991890451,-0.984375,-0.09082031,-0.05859375,-0.1875,0.0625,-0.0625,0.0,0.0,0.0,741
706,1695991890491,-0.98828125,-0.0859375,-0.040039062,-1.40625,-0.25,0.21875,0.0,0.0,0.0,742
707,1695991890531,-1.0009766,-0.091796875,-0.06738281,-0.6875,-0.25,-0.25,0.0,0.0,0.0,743
708,1695991890571,-0.9951172,-0.10253906,-0.044921875,-0.78125,-0.40625,-0.125,0.0,0.0,0.0,744
709,1695991890611,-0.98828125,-0.09863281,-0.064453125,-0.3125,-0.46875,-0.125,0.0,0.0,0.0,745
710,1695991890651,-0.99316406,-0.09277344,-0.0625,0.25,-0.40625,0.03125,0.0,0.0,0.0,746
711,1695991890691,-0.99609375,-0.09277344,-0.056640625,0.3125,-0.1875,0.21875,0.0,0.0,0.0,747
712,1695991890731,-0.9863281,-0.091796875,-0.059570312,0.0625,-0.34375,-0.0625,0.0,0.0,0.0,748
713,1695991890771,-0.99316406,-0.10058594,-0.051757812,0.1875,-0.1875,0.09375,0.0,0.0,0.0,749
714,1695991890811,-0.99316406,-0.10058594,-0.040039062,-0.3125,-0.125,0.28125,0.0,0.0,0.0,750
715,1695991890851,-0.9941406,-0.095703125,-0.056640625,-0.5625,-0.40625,0.03125,0.0,0.0,0.0,751
716,1695991890891,-0.98535156,-0.08886719,-0.051757812,0.125,-0.25,0.03125,-25.9375,-51.875,-29.125,752
717,1695991890931,-0.99609375,-0.09667969,-0.046875,-0.1875,0.0,0.15625,0.0,0.0,0.0,753
718,1695991890971,-0.9941406,-0.09863281,-0.05859375,0.375,0.125,0.09375,0.0,0.0,0.0,754
719,1695991891011,-0.99609375,-0.09082031,-0.051757812,-0.5,-0.3125,0.21875,0.0,0.0,0.0,755
720,1695991891051,-0.9892578,-0.099609375,-0.061523438,-0.125,-0.0625,0.34375,0.0,0.0,0.0,756
721,1695991891091,-0.99121094,-0.099609375,-0.060546875,0.0,0.0625,0.28125,0.0,0.0,0.0,757
722,1695991891131,-0.99316406,-0.08496094,-0.048828125,0.4375,0.0625,0.15625,0.0,0.0,0.0,758
723,1695991891171,-0.9980469,-0.095703125,-0.049804688,0.1875,0.3125,0.40625,0.0,0.0,0.0,759
724,1695991891211,-0.9941406,-0.09765625,-0.056640625,0.5,0.4375,0.21875,0.0,0.0,0.0,760
725,1695991891251,-0.99316406,-0.10839844,-0.060546875,-0.625,0.0,0.09375,0.0,0.0,0.0,761
726,1695991891291,-0.98828125,-0.095703125,-0.059570312,0.0,0.0625,0.09375,0.0,0.0,0.0,762
727,1695991891331,-0.9921875,-0.09667969,-0.059570312,0.4375,0.375,0.09375,0.0,0.0,0.0,763
728,1695991891371,-0.99121094,-0.08984375,-0.055664062,-0.4375,0.0,-0.0625,0.0,0.0,0.0,764
729,1695991891411,-0.9970703,-0.087890625,-0.048828125,0.125,0.0,0.09375,-25.375,-49.9375,-28.25,765
730,1695991891451,-0.97753906,-0.09277344,-0.07519531,0.5,0.0,0.34375,0.0,0.0,0.0,766
731,1695991891491,-0.9951172,-0.095703125,-0.059570312,0.0625,0.375,0.28125,0.0,0.0,0.0,767
732,1695991891531,-0.99609375,-0.09277344,-0.049804688,0.0,0.8125,0.34375,0.0,0.0,0.0,768
733,1695991891571,-0.9902344,-0.09277344,-0.061523438,0.125,0.0625,0.15625,0.0,0.0,0.0,769
734,1695991891611,-0.9902344,-0.10546875,-0.06347656,-0.3125,0.125,0.03125,0.0,0.0,0.0,770
735,1695991891651,-0.9921875,-0.09082031,-0.052734375,-0.0625,0.3125,0.0,0.0,0.0,0.0,771
736,1695991891691,-0.99902344,-0.09667969,-0.05078125,0.78125,0.5,0.21875,0.0,0.0,0.0,772
737,1695991891731,-0.9892578,-0.099609375,-0.060546875,0.5625,0.75,0.21875,0.0,0.0,0.0,773
738,1695991891771,-0.9863281,-0.08496094,-0.049804688,0.59375,0.625,-0.0625,0.0,0.0,0.0,774
739,1695991891811,-1.0058594,-0.09765625,-0.056640625,0.1875,0.5625,0.21875,0.0,0.0,0.0,775
740,1695991891851,-0.984375,-0.08886719,-0.06347656,0.375,0.96875,0.21875,0.0,0.0,0.0,776
741,1695991891891,-0.9941406,-0.091796875,-0.0546875,0.0625,0.6875,0.34375,-26.5625,-51.125,-27.5,777
742,1695991891931,-0.98828125,-0.09082031,-0.064453125,-0.625,0.8125,0.03125,0.0,0.0,0.0,778
743,1695991891971,-0.9902344,-0.091796875,-0.05859375,-0.0625,0.625,0.15625,0.0,0.0,0.0,779
744,1695991892011,-0.9980469,-0.091796875,-0.06542969,0.59375,0.9375,0.34375,0.0,0.0,0.0,780
745,1695991892051,-0.9863281,-0.10644531,-0.05859375,0.0,1.40625,0.21875,0.0,0.0,0.0,781
746,1695991892091,-0.9921875,-0.10058594,-0.061523438,0.0,1.03125,0.15625,0.0,0.0,0.0,782
747,1695991892131,-0.9902344,-0.083984375,-0.056640625,0.3125,0.8125,0.53125,0.0,0.0,0.0,783
748,1695991892171,-0.99316406,-0.09863281,-0.07714844,-0.125,1.34375,0.28125,0.0,0.0,0.0,784
749,1695991892211,-0.99121094,-0.087890625,-0.048828125,0.4375,1.28125,0.40625,0.0,0.0,0.0,785
750,1695991892251,-1.0,-0.09082031,-0.083984375,0.4375,1.21875,0.46875,0.0,0.0,0.0,786
751,1695991892291,-0.9941406,-0.09375,-0.059570312,0.1875,1.53125,0.46875,0.0,0.0,0.0,787
752,1695991892331,-0.9921875,-0.091796875,-0.07519531,0.0625,1.21875,0.46875,0.0,0.0,0.0,788
753,1695991892371,-0.98339844,-0.09082031,-0.06640625,0.3125,1.46875,0.34375,0.0,0.0,0.0,789
754,1695991892411,-0.9970703,-0.08984375,-0.051757812,0.1875,1.59375,0.28125,-26.375,-49.9375,-27.9375,790
755,1695991892451,-0.98828125,-0.09667969,-0.061523438,0.25,1.15625,0.03125,0.0,0.0,0.0,791
756,1695991892491,-0.9921875,-0.087890625,-0.061523438,0.0,1.46875,0.34375,0.0,0.0,0.0,792
757,1695991892531,-0.98535156,-0.091796875,-0.060546875,0.96875,1.21875,0.65625,0.0,0.0,0.0,793
758,1695991892571,-0.9863281,-0.099609375,-0.07519531,1.875,1.65625,0.84375,0.0,0.0,0.0,794
759,1695991892611,-0.9873047,-0.0859375,-0.068359375,1.28125,2.75,0.65625,0.0,0.0,0.0,795
