# Sensor type: Thingy
# Activity type: Sitting
# Activity subtype: Normal
# Subject id: s1979034
# Notes: 
timestamp,accel_x,accel_y,accel_z,gyro_x,gyro_y,gyro_z,mag_x,mag_y,mag_z
1695991761388,-0.15039062,-0.107421875,0.98535156,-0.53125,0.75,-0.0625,0.0,0.0,0.0
1695991761418,-0.15917969,-0.10839844,0.97558594,-0.40625,0.6875,0.3125,0.3125,-49.625,9.5625
1695991761448,-0.15917969,-0.10839844,0.98339844,-0.40625,0.375,0.25,0.0,0.0,0.0
1695991761479,-0.15039062,-0.1171875,0.984375,-0.09375,0.0,0.65625,0.0,0.0,0.0
1695991761539,-0.16113281,-0.109375,0.98046875,-0.28125,-0.21875,0.78125,0.0,0.0,0.0
1695991761568,-0.15625,-0.12011719,0.9970703,0.1875,-0.03125,0.96875,0.0,0.0,0.0
1695991761629,-0.1640625,-0.11035156,1.0009766,0.25,0.9375,0.53125,0.0,0.0,0.0
1695991761659,-0.14746094,-0.111328125,0.97558594,0.1875,0.0625,0.65625,0.0,0.0,0.0
1695991761689,-0.1640625,-0.09375,0.9785156,-0.46875,-0.28125,0.71875,0.0,0.0,0.0
1695991761719,-0.16796875,-0.103515625,0.98828125,0.25,-2.0625,0.53125,0.0,0.0,0.0
1695991761779,-0.15917969,-0.09863281,0.9873047,0.125,-1.625,0.25,0.0,0.0,0.0
1695991761809,-0.14746094,-0.11230469,0.9824219,-0.65625,-1.5625,0.53125,0.0,0.0,0.0
1695991761840,-0.15136719,-0.103515625,0.97265625,-0.46875,-1.09375,1.40625,0.0,0.0,0.0
1695991761901,-0.15722656,-0.10253906,0.9785156,-1.8125,-3.90625,1.53125,0.125,-51.5625,7.75
1695991761930,-0.1328125,-0.115234375,1.0,-2.1875,-2.5625,1.03125,0.0,0.0,0.0
1695991761960,-0.14550781,-0.13085938,1.0009766,-3.09375,1.25,-0.75,0.0,0.0,0.0
1695991762021,-0.14160156,-0.12988281,0.99902344,-2.625,-1.375,-1.96875,0.0,0.0,0.0
1695991762050,-0.14355469,-0.13769531,1.0175781,-0.21875,0.375,-2.4375,0.0,0.0,0.0
1695991762080,-0.15136719,-0.109375,0.9667969,-1.21875,0.8125,-2.15625,0.0,0.0,0.0
1695991762139,-0.140625,-0.10058594,0.9824219,-1.03125,-3.40625,-0.96875,0.0,0.0,0.0
1695991762170,-0.12890625,-0.09863281,0.97265625,0.0,-0.28125,0.96875,0.0,0.0,0.0
1695991762200,-0.14746094,-0.091796875,0.984375,-2.90625,-1.09375,0.96875,0.0,0.0,0.0
1695991762259,-0.14355469,-0.107421875,0.9941406,-0.09375,0.5625,1.09375,0.0,0.0,0.0
1695991762289,-0.21875,-0.13378906,0.9736328,-3.78125,1.84375,0.78125,0.0,0.0,0.0
1695991762320,-0.13183594,-0.13183594,0.95703125,-4.375,1.71875,-0.25,0.0,0.0,0.0
1695991762380,-0.14453125,-0.12792969,1.0,-3.71875,2.8125,-0.75,0.0,0.0,0.0
1695991762411,-0.171875,-0.15625,0.96777344,-4.1875,-0.15625,-1.65625,0.0,-51.0,8.5
1695991762442,-0.14453125,-0.15332031,0.98339844,-0.21875,-1.28125,-1.46875,0.0,0.0,0.0
1695991762500,-0.14746094,-0.13378906,1.0253906,-5.0,2.09375,-2.03125,0.0,0.0,0.0
1695991762530,-0.13867188,-0.12597656,0.96972656,0.125,4.84375,-1.15625,0.0,0.0,0.0
1695991762560,-0.13574219,-0.091796875,0.9824219,0.625,3.4375,1.21875,0.0,0.0,0.0
1695991762621,-0.14648438,-0.09667969,0.9970703,-0.53125,2.46875,0.96875,0.0,0.0,0.0
1695991762650,-0.14160156,-0.14648438,0.98535156,-3.46875,6.78125,0.25,0.0,0.0,0.0
1695991762679,-0.15039062,-0.13769531,0.96777344,-0.90625,6.125,1.875,0.0,0.0,0.0
1695991762739,-0.1640625,-0.15917969,0.96972656,-0.71875,5.09375,2.125,0.0,0.0,0.0
1695991762770,-0.16796875,-0.16308594,1.0,4.09375,5.375,1.46875,0.0,0.0,0.0
1695991762799,-0.17285156,-0.16210938,0.9667969,5.4375,5.25,0.0625,0.0,0.0,0.0
1695991762859,-0.21582031,-0.14453125,0.94921875,5.9375,4.59375,0.25,0.0,0.0,0.0
1695991762890,-0.18847656,-0.11328125,0.9863281,3.90625,0.75,-1.59375,0.75,-51.75,8.25
1695991762919,-0.18261719,-0.09277344,0.9785156,2.5625,1.0625,-2.21875,0.0,0.0,0.0
1695991762979,-0.17773438,-0.091796875,0.98828125,0.0,1.25,-2.4375,0.0,0.0,0.0
1695991763010,-0.1875,-0.09082031,0.9951172,-2.78125,0.9375,-3.1875,0.0,0.0,0.0
1695991763040,-0.18359375,-0.08984375,0.9765625,-5.46875,0.9375,-4.28125,0.0,0.0,0.0
1695991763130,-0.1875,-0.09667969,0.9765625,-5.78125,0.375,-2.875,0.0,0.0,0.0
1695991763135,-0.18261719,-0.099609375,0.9716797,-0.59375,-3.03125,0.25,0.0,0.0,0.0
1695991763160,-0.16796875,-0.11230469,0.9746094,1.84375,-5.0,3.03125,0.0,0.0,0.0
1695991763220,-0.1953125,-0.12207031,0.9794922,2.28125,-6.46875,5.375,0.0,0.0,0.0
1695991763250,-0.16308594,-0.13671875,0.96972656,-0.09375,-5.0,6.34375,0.0,0.0,0.0
1695991763280,-0.17480469,-0.13769531,0.98339844,-0.0625,-4.125,6.03125,0.0,0.0,0.0
1695991763339,-0.15917969,-0.14160156,0.9716797,-2.96875,-0.90625,3.84375,0.0,0.0,0.0
1695991763370,-0.17871094,-0.15625,0.98535156,-2.125,0.1875,0.1875,0.0,0.0,0.0
1695991763400,-0.17285156,-0.14941406,0.98046875,-3.15625,1.40625,-3.65625,-0.125,-49.3125,8.6875
1695991763460,-0.16210938,-0.14453125,0.96777344,-2.5625,2.8125,-4.9375,0.0,0.0,0.0
1695991763489,-0.16210938,-0.13574219,0.99316406,-1.4375,2.40625,-4.59375,0.0,0.0,0.0
1695991763519,-0.16503906,-0.12207031,0.96777344,0.1875,2.21875,-3.3125,0.0,0.0,0.0
1695991763579,-0.171875,-0.123046875,0.98535156,-0.84375,1.96875,-1.90625,0.0,0.0,0.0
1695991763611,-0.17675781,-0.11230469,0.9628906,0.125,1.25,-1.09375,0.0,0.0,0.0
1695991763640,-0.17871094,-0.125,0.9873047,-0.09375,0.6875,-0.1875,0.0,0.0,0.0
1695991763701,-0.17773438,-0.13378906,0.984375,-0.78125,0.0,0.40625,0.0,0.0,0.0
1695991763730,-0.16992188,-0.11621094,0.9794922,0.6875,-1.28125,1.03125,0.0,0.0,0.0
1695991763761,-0.16113281,-0.12597656,0.9707031,0.8125,-1.28125,1.65625,0.0,0.0,0.0
1695991763848,-0.17578125,-0.13085938,0.9863281,-0.09375,-0.28125,0.96875,0.0,0.0,0.0
1695991763851,-0.16894531,-0.123046875,0.98046875,-0.21875,-0.03125,0.0625,0.0,0.0,0.0
1695991763879,-0.16796875,-0.11621094,0.97558594,-0.78125,0.3125,-0.1875,-1.625,-50.8125,7.75
1695991763940,-0.15917969,-0.12597656,0.9814453,-1.03125,0.75,-0.4375,0.0,0.0,0.0
1695991763971,-0.17480469,-0.12695312,0.9658203,-1.21875,1.25,-0.375,0.0,0.0,0.0
1695991764000,-0.16894531,-0.13183594,0.9746094,-1.09375,0.4375,-0.5625,0.0,0.0,0.0
1695991764090,-0.17285156,-0.13183594,0.9980469,0.0625,1.0,-0.3125,0.0,0.0,0.0
1695991764094,-0.17578125,-0.123046875,0.9736328,0.0,0.625,-0.1875,0.0,0.0,0.0
1695991764119,-0.16992188,-0.12207031,0.97558594,-0.09375,-0.03125,-0.125,0.0,0.0,0.0
1695991764180,-0.17773438,-0.12988281,0.9824219,-0.21875,-0.09375,-0.25,0.0,0.0,0.0
1695991764210,-0.17773438,-0.13085938,0.96875,-0.28125,0.375,-0.125,0.0,0.0,0.0
1695991764240,-0.17773438,-0.12890625,0.99316406,-0.15625,-0.03125,0.125,0.0,0.0,0.0
1695991764300,-0.17382812,-0.12890625,0.99609375,-0.09375,-0.09375,0.25,0.0,0.0,0.0
1695991764331,-0.17480469,-0.12402344,0.9638672,-0.15625,0.4375,-0.0625,0.0,0.0,0.0
1695991764361,-0.17675781,-0.13085938,0.9814453,-0.09375,0.3125,-0.1875,0.0,0.0,0.0
1695991764420,-0.17382812,-0.11816406,0.96972656,-0.15625,0.25,-0.3125,0.125,-51.5625,8.6875
1695991764480,-0.17675781,-0.125,0.9785156,-0.34375,0.1875,-0.25,0.0,0.0,0.0
1695991764484,-0.18457031,-0.11816406,0.97265625,-0.15625,0.25,-0.1875,0.0,0.0,0.0
1695991764540,-0.17382812,-0.11816406,0.9736328,-0.46875,-0.09375,0.0,0.0,0.0,0.0
1695991764570,-0.17675781,-0.11816406,0.9902344,-0.84375,0.1875,-0.1875,0.0,0.0,0.0
1695991764600,-0.17480469,-0.12011719,0.99609375,-0.71875,0.25,0.0,0.0,0.0,0.0
1695991764660,-0.171875,-0.12207031,0.97558594,-0.65625,0.125,0.0,0.0,0.0,0.0
1695991764718,-0.17675781,-0.12890625,0.9794922,-0.78125,0.3125,0.0,0.0,0.0,0.0
1695991764722,-0.18164062,-0.12792969,0.9667969,-0.84375,0.125,-0.125,0.0,0.0,0.0
1695991764780,-0.16503906,-0.12890625,0.9765625,-0.96875,0.25,-0.5625,0.0,0.0,0.0
1695991764810,-0.18066406,-0.12890625,0.98339844,-1.15625,0.0625,-0.3125,0.0,0.0,0.0
1695991764842,-0.18066406,-0.13085938,0.9716797,-0.78125,0.0625,-0.125,0.0,0.0,0.0
1695991764900,-0.17773438,-0.12011719,0.98535156,-0.96875,-0.34375,-0.5,-0.3125,-50.6875,7.5
1695991764961,-0.18066406,-0.1328125,0.98339844,-1.03125,-0.03125,-0.375,0.0,0.0,0.0
1695991764965,-0.17578125,-0.13476562,0.9863281,-0.96875,0.375,-0.375,0.0,0.0,0.0
1695991765021,-0.18164062,-0.13378906,0.96875,-0.78125,0.125,-0.3125,0.0,0.0,0.0
1695991765050,-0.16601562,-0.12695312,0.98339844,-0.46875,0.1875,-0.1875,0.0,0.0,0.0
1695991765082,-0.16796875,-0.13476562,0.96875,-0.59375,0.1875,-0.125,0.0,0.0,0.0
1695991765140,-0.17871094,-0.12597656,0.9814453,-0.90625,0.375,-0.3125,0.0,0.0,0.0
1695991765200,-0.1875,-0.13378906,0.9785156,-0.90625,-0.03125,-0.25,0.0,0.0,0.0
1695991765203,-0.17675781,-0.12792969,0.9716797,-0.34375,0.0,-0.5,0.0,0.0,0.0
1695991765260,-0.19335938,-0.13085938,0.96875,0.0,-0.09375,-0.125,0.0,0.0,0.0
1695991765289,-0.16894531,-0.12890625,0.9609375,-1.09375,0.1875,-0.5,0.0,0.0,0.0
1695991765319,-0.18847656,-0.12207031,0.9794922,-0.46875,0.4375,-0.125,0.0,0.0,0.0
1695991765381,-0.19238281,-0.13085938,0.9814453,-1.28125,0.3125,-0.6875,0.0,0.0,0.0
1695991765409,-0.18164062,-0.14550781,0.9902344,-1.03125,0.25,-0.3125,0.0,-51.3125,6.5625
1695991765440,-0.17871094,-0.125,0.9746094,-0.84375,-0.21875,-0.375,0.0,0.0,0.0
1695991765499,-0.18359375,-0.13671875,0.99121094,-1.34375,0.0625,-0.625,0.0,0.0,0.0
1695991765530,-0.18164062,-0.13671875,0.96777344,-1.875,0.375,-0.875,0.0,0.0,0.0
1695991765560,-0.17578125,-0.13378906,0.9628906,-1.875,0.5,-1.15625,0.0,0.0,0.0
1695991765620,-0.171875,-0.14746094,0.9785156,-0.59375,0.3125,-1.15625,0.0,0.0,0.0
1695991765650,-0.18066406,-0.14257812,0.9716797,0.5,1.28125,-0.875,0.0,0.0,0.0
1695991765681,-0.19238281,-0.12988281,0.9667969,0.3125,1.34375,-0.625,0.0,0.0,0.0
1695991765740,-0.18945312,-0.13476562,0.9765625,0.125,0.75,-0.0625,0.0,0.0,0.0
1695991765771,-0.18164062,-0.13476562,0.97265625,-0.34375,1.28125,0.1875,0.0,0.0,0.0
1695991765800,-0.18164062,-0.13867188,0.98535156,-0.84375,0.9375,0.46875,0.0,0.0,0.0
1695991765859,-0.18066406,-0.140625,0.9863281,-1.15625,0.4375,0.90625,0.0,0.0,0.0
1695991765890,-0.18847656,-0.13085938,0.9667969,-0.78125,0.6875,1.03125,-0.125,-50.8125,7.75
1695991765919,-0.18164062,-0.15136719,0.96972656,-0.40625,0.6875,0.0625,0.0,0.0,0.0
1695991765979,-0.21679688,-0.14941406,0.9628906,0.375,0.4375,-0.125,0.0,0.0,0.0
1695991766009,-0.203125,-0.13964844,0.95996094,0.0,1.1875,-0.3125,0.0,0.0,0.0
1695991766040,-0.19042969,-0.12597656,0.97558594,-0.53125,0.5625,-0.6875,0.0,0.0,0.0
1695991766099,-0.19921875,-0.12695312,0.9707031,-1.6875,0.3125,-0.5625,0.0,0.0,0.0
1695991766130,-0.20214844,-0.12890625,0.98046875,-2.375,-0.15625,-0.25,0.0,0.0,0.0
1695991766159,-0.19921875,-0.13574219,0.9716797,-4.4375,-0.21875,-0.5625,0.0,0.0,0.0
1695991766220,-0.18945312,-0.14257812,0.9501953,-4.125,-0.90625,-0.0625,0.0,0.0,0.0
1695991766249,-0.18164062,-0.13964844,0.97558594,-3.90625,-1.5,0.0,0.0,0.0,0.0
1695991766283,-0.17675781,-0.1484375,0.9794922,-4.75,-1.5625,-0.6875,0.0,0.0,0.0
1695991766340,-0.171875,-0.15039062,0.98046875,-3.46875,-1.4375,-0.8125,0.0,0.0,0.0
1695991766369,-0.17285156,-0.16308594,0.9716797,-2.3125,-1.4375,-0.25,0.0,0.0,0.0
1695991766400,-0.17382812,-0.1640625,0.9707031,-1.03125,-1.09375,0.0625,-0.125,-51.5625,9.4375
1695991766461,-0.17285156,-0.15820312,0.9892578,-0.78125,0.625,-0.5625,0.0,0.0,0.0
1695991766490,-0.1875,-0.16308594,0.9765625,-1.40625,0.9375,-0.5625,0.0,0.0,0.0
1695991766520,-0.1796875,-0.16308594,0.9628906,0.25,0.5625,-0.625,0.0,0.0,0.0
1695991766581,-0.17285156,-0.15820312,0.9716797,0.4375,0.3125,-0.75,0.0,0.0,0.0
1695991766610,-0.19335938,-0.14941406,0.9785156,0.4375,0.1875,-0.75,0.0,0.0,0.0
1695991766645,-0.1875,-0.1484375,0.94921875,0.5625,0.25,-0.5625,0.0,0.0,0.0
1695991766700,-0.18554688,-0.14355469,0.9658203,0.0,0.25,-0.3125,0.0,0.0,0.0
1695991766730,-0.1875,-0.1484375,0.9707031,0.0625,-0.15625,0.1875,0.0,0.0,0.0
1695991766791,-0.18066406,-0.14648438,0.98046875,2.15625,0.125,0.59375,0.0,0.0,0.0
1695991766820,-0.17675781,-0.1484375,0.97558594,0.8125,0.25,0.65625,0.0,0.0,0.0
1695991766850,-0.18066406,-0.140625,0.96972656,0.375,0.25,-0.3125,0.0,0.0,0.0
1695991766881,-0.18359375,-0.13769531,0.99609375,-0.0625,0.875,-0.625,-2.125,-50.6875,8.5
1695991766940,-0.18554688,-0.140625,0.9716797,-0.09375,1.0,-0.6875,0.0,0.0,0.0
1695991766970,-0.18066406,-0.14550781,0.96777344,0.3125,0.75,-0.4375,0.0,0.0,0.0
1695991767001,-0.18847656,-0.14257812,0.96484375,0.125,0.375,0.375,0.0,0.0,0.0
1695991767060,-0.18945312,-0.14453125,0.9628906,0.625,0.1875,0.40625,0.0,0.0,0.0
1695991767090,-0.19824219,-0.15332031,0.9736328,0.875,0.375,0.3125,0.0,0.0,0.0
1695991767120,-0.18945312,-0.14160156,0.96875,0.75,0.125,0.40625,0.0,0.0,0.0
1695991767179,-0.18945312,-0.14257812,0.9746094,0.125,-0.09375,0.125,0.0,0.0,0.0
1695991767209,-0.19042969,-0.14355469,0.9873047,-0.59375,1.0,-0.25,0.0,0.0,0.0
1695991767240,-0.18945312,-0.14355469,0.96191406,-1.5,1.53125,-0.25,0.0,0.0,0.0
1695991767300,-0.1796875,-0.14160156,0.9707031,-0.84375,0.4375,-0.5,0.0,0.0,0.0
1695991767331,-0.18359375,-0.12988281,0.97558594,-0.53125,0.5625,-0.375,0.0,0.0,0.0
1695991767360,-0.19238281,-0.13085938,0.9824219,-0.96875,0.25,-0.5,0.0,0.0,0.0
1695991767420,-0.19433594,-0.13378906,0.97558594,-0.59375,0.75,-0.375,-1.1875,-51.125,8.0625
1695991767450,-0.19238281,-0.13964844,0.9707031,-0.40625,0.0625,-0.125,0.0,0.0,0.0
1695991767485,-0.22265625,-0.14453125,0.96777344,-0.0625,0.5,0.25,0.0,0.0,0.0
1695991767540,-0.18652344,-0.14941406,0.96777344,0.0,0.875,0.125,0.0,0.0,0.0
1695991767571,-0.17285156,-0.14355469,0.9746094,-0.21875,-1.9375,-0.125,0.0,0.0,0.0
1695991767601,-0.19726562,-0.14550781,0.96972656,-0.71875,-0.28125,-0.1875,0.0,0.0,0.0
1695991767660,-0.19042969,-0.14160156,0.9785156,-1.6875,-0.90625,-0.75,0.0,0.0,0.0
1695991767690,-0.18457031,-0.15136719,0.9785156,-1.5625,-0.96875,-0.4375,0.0,0.0,0.0
1695991767720,-0.19726562,-0.14648438,0.9814453,-1.5,-0.78125,-0.4375,0.0,0.0,0.0
1695991767780,-0.1875,-0.14355469,0.97753906,-2.125,-0.84375,-0.625,0.0,0.0,0.0
1695991767809,-0.18945312,-0.1328125,0.97265625,-2.0625,-1.75,-0.75,0.0,0.0,0.0
1695991767840,-0.18945312,-0.15917969,0.98535156,-1.6875,-0.78125,-0.5625,0.0,0.0,0.0
1695991767899,-0.18457031,-0.16210938,0.96777344,-1.9375,0.0,0.0,0.0,-52.0625,7.9375
1695991767930,-0.19042969,-0.16015625,0.9736328,-0.65625,-0.40625,0.59375,0.0,0.0,0.0
1695991767960,-0.18359375,-0.15429688,0.9716797,-0.15625,-0.34375,0.25,0.0,0.0,0.0
1695991768020,-0.18652344,-0.16015625,0.9716797,-0.15625,0.125,-0.0625,0.0,0.0,0.0
1695991768050,-0.19042969,-0.15722656,0.9658203,0.0,0.1875,-0.5,0.0,0.0,0.0
1695991768081,-0.18359375,-0.14746094,0.9707031,-0.09375,0.5625,-0.3125,0.0,0.0,0.0
1695991768140,-0.18652344,-0.1484375,0.97753906,-0.71875,0.75,-0.1875,0.0,0.0,0.0
1695991768170,-0.18261719,-0.14160156,0.9794922,0.0625,0.6875,-0.1875,0.0,0.0,0.0
1695991768200,-0.1875,-0.15722656,0.9765625,0.5625,1.46875,-0.1875,0.0,0.0,0.0
1695991768260,-0.18652344,-0.14453125,0.9609375,0.375,1.0625,-0.25,0.0,0.0,0.0
1695991768289,-0.1875,-0.14453125,0.9785156,-0.21875,0.4375,-0.5625,0.0,0.0,0.0
1695991768320,-0.19140625,-0.15234375,0.98339844,-0.15625,0.9375,-0.6875,0.0,0.0,0.0
1695991768380,-0.18066406,-0.14746094,0.9746094,0.0,0.4375,-0.625,0.0,0.0,0.0
1695991768440,-0.17578125,-0.13671875,0.96484375,-0.21875,0.0,-0.0625,0.0,-50.6875,9.0
1695991768444,-0.18847656,-0.1328125,0.97753906,-0.40625,0.125,-0.1875,0.0,0.0,0.0
1695991768500,-0.27734375,-0.16113281,0.9785156,-0.96875,-0.15625,-0.125,0.0,0.0,0.0
1695991768533,-0.20898438,-0.15429688,0.9638672,1.28125,0.0,1.03125,0.0,0.0,0.0
1695991768560,-0.19238281,-0.15136719,0.9765625,0.75,0.0625,0.90625,0.0,0.0,0.0
1695991768620,-0.18945312,-0.15234375,0.9785156,0.5,0.25,1.09375,0.0,0.0,0.0
1695991768651,-0.17285156,-0.14941406,0.98046875,-0.0625,-0.15625,0.40625,0.0,0.0,0.0
1695991768680,-0.1953125,-0.15722656,0.9628906,0.25,0.625,0.375,0.0,0.0,0.0
1695991768740,-0.19726562,-0.14160156,0.9707031,-1.09375,-0.15625,-0.4375,0.0,0.0,0.0
1695991768770,-0.20703125,-0.14160156,0.9824219,-1.21875,-0.28125,-0.3125,0.0,0.0,0.0
1695991768800,-0.19433594,-0.13378906,0.9902344,0.25,-0.53125,0.125,0.0,0.0,0.0
1695991768859,-0.19042969,-0.14160156,0.96972656,-0.15625,-0.03125,0.375,0.0,0.0,0.0
1695991768918,-0.1953125,-0.14941406,0.9785156,-1.875,-0.78125,0.59375,-1.375,-51.3125,7.1875
1695991768921,-0.18945312,-0.15332031,0.99121094,-0.21875,-0.53125,0.46875,0.0,0.0,0.0
1695991768980,-0.18945312,-0.14160156,0.9785156,-0.53125,-0.71875,0.25,0.0,0.0,0.0
1695991769010,-0.19238281,-0.15917969,0.9765625,-0.59375,-0.21875,0.125,0.0,0.0,0.0
1695991769041,-0.19042969,-0.14355469,0.96484375,-0.15625,0.0625,-0.4375,0.0,0.0,0.0
1695991769100,-0.18652344,-0.15917969,0.9667969,0.0,-0.03125,-0.5,0.0,0.0,0.0
1695991769162,-0.18847656,-0.14941406,0.9716797,0.0,0.0625,-0.5,0.0,0.0,0.0
1695991769167,-0.18261719,-0.15332031,0.9453125,-0.15625,0.1875,-0.625,0.0,0.0,0.0
1695991769220,-0.1875,-0.14746094,0.97265625,-0.21875,0.0,-0.375,0.0,0.0,0.0
1695991769250,-0.18261719,-0.15527344,0.9863281,-0.34375,0.125,-0.4375,0.0,0.0,0.0
1695991769280,-0.19140625,-0.14941406,0.97265625,-0.40625,0.1875,-0.375,0.0,0.0,0.0
1695991769340,-0.18945312,-0.14257812,0.98046875,-0.71875,0.1875,-0.25,0.0,0.0,0.0
1695991769371,-0.19628906,-0.14355469,0.9658203,-0.53125,0.1875,-0.0625,-1.0625,-51.0,6.875
1695991769401,-0.1796875,-0.15039062,0.96972656,-0.71875,0.1875,-0.1875,0.0,0.0,0.0
1695991769460,-0.18652344,-0.15039062,0.9716797,-0.40625,0.0,0.125,0.0,0.0,0.0
1695991769490,-0.19433594,-0.15039062,0.96777344,-0.71875,0.0,0.0,0.0,0.0,0.0
1695991769524,-0.18847656,-0.15332031,0.9863281,-1.15625,0.0,-0.125,0.0,0.0,0.0
1695991769580,-0.18847656,-0.16015625,0.96777344,-0.78125,0.0625,-0.25,0.0,0.0,0.0
1695991769611,-0.18457031,-0.15136719,0.96777344,-0.59375,0.0625,-0.125,0.0,0.0,0.0
1695991769641,-0.18359375,-0.14355469,0.98535156,-0.59375,-0.09375,-0.1875,0.0,0.0,0.0
1695991769700,-0.18847656,-0.14453125,0.9824219,-0.71875,-0.09375,-0.3125,0.0,0.0,0.0
1695991769731,-0.18945312,-0.1484375,0.9765625,-1.4375,-0.09375,-0.3125,0.0,0.0,0.0
1695991769790,-0.19335938,-0.14453125,0.9638672,-1.4375,-0.65625,-0.1875,0.0,0.0,0.0
1695991769820,-0.19824219,-0.15625,0.9707031,-1.4375,-0.59375,0.0,0.0,0.0,0.0
1695991769880,-0.1875,-0.14941406,0.97558594,-1.34375,-0.53125,0.25,0.0,0.0,0.0
1695991769909,-0.1953125,-0.14453125,0.97558594,-1.28125,-0.53125,0.125,-0.3125,-52.0625,7.9375
1695991769940,-0.19238281,-0.16210938,0.9824219,-0.59375,-0.28125,0.0625,0.0,0.0,0.0
1695991769970,-0.18847656,-0.15625,0.97265625,-0.53125,-0.03125,-0.25,0.0,0.0,0.0
1695991770029,-0.1953125,-0.15234375,0.97558594,-0.40625,0.25,-0.4375,0.0,0.0,0.0
1695991770060,-0.18554688,-0.15234375,0.9609375,-0.59375,0.4375,-0.4375,0.0,0.0,0.0
1695991770120,-0.18066406,-0.15332031,0.96972656,-0.59375,0.1875,-0.5,0.0,0.0,0.0
1695991770123,-0.19335938,-0.15234375,0.9863281,-0.53125,0.0625,-0.375,0.0,0.0,0.0
1695991770180,-0.19238281,-0.15429688,0.96484375,-0.46875,-0.03125,-0.4375,0.0,0.0,0.0
1695991770210,-0.18945312,-0.15234375,0.9580078,-1.28125,0.0,-0.0625,0.0,0.0,0.0
1695991770241,-0.18652344,-0.15722656,0.9785156,-0.28125,-0.09375,0.0625,0.0,0.0,0.0
1695991770300,-0.19628906,-0.15917969,0.984375,-0.21875,0.1875,0.0,0.0,0.0,0.0
1695991770330,-0.18652344,-0.15332031,0.984375,-0.34375,0.0625,0.0,0.0,0.0,0.0
1695991770360,-0.19726562,-0.15527344,0.98339844,-0.46875,0.125,-0.375,-1.8125,-52.0625,6.5625
1695991770420,-0.19628906,-0.15722656,0.9707031,-0.90625,0.375,-0.5625,0.0,0.0,0.0
1695991770449,-0.19140625,-0.14941406,0.9765625,-0.65625,0.125,-0.75,0.0,0.0,0.0
1695991770480,-0.18457031,-0.15625,0.9609375,0.0,0.0625,-0.375,0.0,0.0,0.0
1695991770539,-0.19042969,-0.15136719,0.9765625,-0.28125,-0.03125,-0.1875,0.0,0.0,0.0
1695991770570,-0.19042969,-0.15625,0.9638672,-0.59375,-0.34375,-0.25,0.0,0.0,0.0
1695991770600,-0.18847656,-0.15625,0.9658203,-0.90625,-0.28125,0.0625,0.0,0.0,0.0
1695991770661,-0.19238281,-0.15722656,0.98339844,-1.34375,0.0,0.0625,0.0,0.0,0.0
1695991770690,-0.18164062,-0.15625,0.9765625,-0.78125,-0.03125,-0.0625,0.0,0.0,0.0
1695991770720,-0.1875,-0.14648438,0.9667969,-0.53125,-0.03125,-0.0625,0.0,0.0,0.0
1695991770780,-0.19628906,-0.15136719,0.9511719,-0.40625,0.0625,-0.25,0.0,0.0,0.0
1695991770810,-0.18457031,-0.15722656,0.9716797,-0.65625,0.0,-0.0625,0.0,0.0,0.0
1695991770900,-0.18847656,-0.15429688,0.98339844,-0.65625,-0.15625,-0.0625,-1.1875,-52.1875,7.3125
1695991770904,-0.19824219,-0.15917969,0.9667969,-0.84375,-0.15625,-0.0625,0.0,0.0,0.0
1695991770931,-0.19628906,-0.16113281,0.96972656,-0.46875,-0.21875,0.125,0.0,0.0,0.0
1695991770991,-0.18554688,-0.16308594,0.96484375,-0.78125,-0.34375,0.0625,0.0,0.0,0.0
1695991771020,-0.19140625,-0.14648438,0.9716797,-0.40625,-0.15625,-0.125,0.0,0.0,0.0
1695991771049,-0.19042969,-0.15917969,0.96191406,-0.0625,0.1875,0.0,0.0,0.0,0.0
1695991771080,-0.18457031,-0.15234375,0.9628906,-0.46875,-0.15625,0.1875,0.0,0.0,0.0
1695991771140,-0.19628906,-0.1484375,0.96484375,-0.59375,-0.09375,-0.1875,0.0,0.0,0.0
1695991771170,-0.19042969,-0.15527344,0.953125,-0.96875,-0.15625,-0.4375,0.0,0.0,0.0
1695991771229,-0.18164062,-0.14941406,0.97753906,-0.46875,-0.53125,-0.4375,0.0,0.0,0.0
1695991771289,-0.18945312,-0.15527344,0.96777344,0.125,-0.21875,0.0,0.0,0.0,0.0
1695991771294,-0.18457031,-0.15136719,0.97265625,-0.09375,0.0,0.25,0.0,0.0,0.0
1695991771321,-0.1875,-0.16015625,0.9658203,-0.53125,-0.21875,0.0625,0.0,0.0,0.0
1695991771381,-0.18164062,-0.15332031,0.9716797,-0.71875,-0.15625,0.0,-1.1875,-51.5625,7.75
1695991771409,-0.18066406,-0.15625,0.9658203,-0.46875,0.0,-0.0625,0.0,0.0,0.0
1695991771440,-0.18457031,-0.15722656,0.9716797,-0.34375,0.25,-0.125,0.0,0.0,0.0
1695991771500,-0.1953125,-0.15234375,0.9736328,0.0,-0.03125,-0.25,0.0,0.0,0.0
1695991771533,-0.1875,-0.14550781,0.96972656,-0.15625,0.0,-0.375,0.0,0.0,0.0
1695991771562,-0.18457031,-0.15429688,0.9667969,-0.34375,0.125,-0.1875,0.0,0.0,0.0
1695991771620,-0.19140625,-0.15136719,0.97558594,-0.46875,-0.09375,0.0,0.0,0.0,0.0
1695991771650,-0.1875,-0.15332031,0.9785156,-0.71875,-0.03125,-0.125,0.0,0.0,0.0
1695991771709,-0.19042969,-0.16113281,0.98046875,-0.65625,-0.46875,0.0625,0.0,0.0,0.0
1695991771769,-0.19628906,-0.15917969,0.98339844,-0.28125,-0.21875,0.0,0.0,0.0,0.0
1695991771772,-0.1875,-0.15429688,0.97753906,-0.28125,-0.15625,-0.1875,0.0,0.0,0.0
1695991771830,-0.1796875,-0.16601562,0.9794922,-0.21875,0.0,0.0,0.0,0.0,0.0
1695991771860,-0.18457031,-0.14941406,0.95996094,-0.46875,0.125,0.0,0.0,0.0,0.0
1695991771889,-0.18945312,-0.15332031,0.96972656,-0.53125,0.1875,-0.25,-1.8125,-52.5,7.1875
1695991771950,-0.19238281,-0.15625,0.9863281,-0.65625,0.125,-0.3125,0.0,0.0,0.0
1695991772009,-0.19042969,-0.15234375,0.9716797,0.0625,-0.09375,0.0625,0.0,0.0,0.0
1695991772015,-0.1875,-0.14941406,0.97753906,0.0625,-0.15625,0.125,0.0,0.0,0.0
1695991772100,-0.18457031,-0.16015625,0.984375,-0.34375,-0.40625,0.0625,0.0,0.0,0.0
1695991772105,-0.19238281,-0.16699219,0.9873047,-0.21875,-0.03125,-0.125,0.0,0.0,0.0
1695991772130,-0.1953125,-0.15820312,0.96777344,-0.21875,0.0,0.0,0.0,0.0,0.0
1695991772191,-0.18847656,-0.16699219,0.99121094,0.0625,0.0,0.0,0.0,0.0,0.0
1695991772252,-0.19140625,-0.16796875,0.96972656,0.0,0.25,0.0,0.0,0.0,0.0
1695991772256,-0.18261719,-0.15917969,0.95996094,0.0625,0.1875,-0.1875,0.0,0.0,0.0
1695991772341,-0.19335938,-0.15527344,0.96191406,-0.15625,0.1875,-0.1875,0.0,0.0,0.0
1695991772348,-0.20019531,-0.14453125,0.97265625,-0.15625,0.125,-0.0625,0.0,0.0,0.0
1695991772372,-0.19042969,-0.15136719,0.9707031,-0.0625,-0.03125,0.1875,-2.125,-50.6875,7.9375
1695991772429,-0.19726562,-0.15625,0.98339844,0.0625,-0.09375,0.25,0.0,0.0,0.0
1695991772461,-0.1875,-0.15820312,0.9794922,0.125,-0.46875,0.0,0.0,0.0,0.0
1695991772489,-0.18945312,-0.15039062,0.9765625,0.1875,-0.09375,0.125,0.0,0.0,0.0
1695991772579,-0.18554688,-0.15820312,0.9716797,-0.09375,0.0625,0.0625,0.0,0.0,0.0
1695991772583,-0.18847656,-0.1484375,0.96972656,0.3125,0.125,-0.125,0.0,0.0,0.0
1695991772610,-0.1953125,-0.14550781,0.9667969,0.125,0.25,-0.25,0.0,0.0,0.0
1695991772670,-0.18554688,-0.15234375,0.97265625,0.0625,0.3125,-0.5,0.0,0.0,0.0
1695991772700,-0.19726562,-0.15527344,0.97265625,0.0,0.125,-0.0625,0.0,0.0,0.0
1695991772731,-0.19140625,-0.1484375,0.9667969,0.0625,0.0,0.25,0.0,0.0,0.0
1695991772790,-0.1796875,-0.14941406,0.9716797,-0.09375,-0.15625,0.25,0.0,0.0,0.0
1695991772821,-0.18847656,-0.14746094,0.9716797,-0.09375,-0.03125,-0.0625,0.0,0.0,0.0
1695991772851,-0.19335938,-0.15527344,0.9765625,-0.28125,-0.03125,0.0,0.0,0.0,0.0
1695991772910,-0.19921875,-0.15527344,0.9765625,0.0,0.125,-0.125,-0.75,-50.6875,6.875
1695991772939,-0.18652344,-0.13671875,0.98046875,0.0625,-0.09375,0.125,0.0,0.0,0.0
1695991772969,-0.1953125,-0.15136719,0.9716797,0.1875,0.125,0.0,0.0,0.0,0.0
1695991773029,-0.18554688,-0.14257812,0.9746094,-0.0625,0.1875,-0.3125,0.0,0.0,0.0
1695991773061,-0.19042969,-0.14746094,0.9716797,0.0625,0.1875,-0.125,0.0,0.0,0.0
1695991773120,-0.18457031,-0.14453125,0.9765625,0.0,0.1875,-0.125,0.0,0.0,0.0
1695991773151,-0.18847656,-0.14453125,0.97558594,-0.28125,-0.15625,-0.25,0.0,0.0,0.0
1695991773209,-0.1953125,-0.1484375,0.984375,0.25,0.0625,0.0,0.0,0.0,0.0
1695991773213,-0.18066406,-0.140625,0.9658203,0.25,-0.03125,0.0,0.0,0.0,0.0
1695991773270,-0.1875,-0.14257812,0.97558594,0.125,0.0625,0.1875,0.0,0.0,0.0
1695991773301,-0.19042969,-0.14550781,0.9560547,-0.15625,0.3125,-0.1875,0.0,0.0,0.0
1695991773360,-0.19726562,-0.15136719,0.97753906,-0.34375,-0.15625,-0.25,0.0,0.0,0.0
1695991773390,-0.19042969,-0.14160156,0.97558594,-0.21875,0.0625,-0.0625,-2.125,-52.0625,7.9375
1695991773450,-0.1875,-0.14257812,0.9736328,0.0,0.125,-0.1875,0.0,0.0,0.0
1695991773453,-0.1875,-0.13964844,0.9814453,0.125,0.0625,-0.0625,0.0,0.0,0.0
1695991773511,-0.18261719,-0.14160156,0.96777344,0.1875,0.3125,-0.1875,0.0,0.0,0.0
1695991773540,-0.19433594,-0.13476562,0.97753906,0.0625,0.3125,-0.3125,0.0,0.0,0.0
1695991773600,-0.1953125,-0.13183594,0.9746094,-0.0625,0.4375,-0.4375,0.0,0.0,0.0
1695991773661,-0.18847656,-0.140625,0.9736328,-0.28125,0.4375,-0.4375,0.0,0.0,0.0
1695991773666,-0.19335938,-0.14550781,0.97265625,-0.40625,0.25,-0.375,0.0,0.0,0.0
1695991773690,-0.1875,-0.14648438,0.9785156,-0.28125,0.1875,-0.4375,0.0,0.0,0.0
1695991773749,-0.18554688,-0.13769531,0.9785156,-0.28125,0.0,-0.0625,0.0,0.0,0.0
1695991773781,-0.18847656,-0.13574219,0.99121094,-0.6875,-0.0625,-0.125,0.0,0.0,0.0
1695991773811,-0.18945312,-0.14550781,0.9863281,-0.8125,-0.1875,-0.1875,0.0,0.0,0.0
1695991773870,-0.18652344,-0.14453125,0.97558594,-0.125,0.25,0.3125,0.0,0.0,0.0
1695991773900,-0.19042969,-0.14453125,0.9814453,0.1875,0.1875,0.0,0.3125,-50.25,7.9375
1695991773937,-0.18945312,-0.13671875,0.9736328,-0.4375,0.375,-0.125,0.0,0.0,0.0
1695991773990,-0.19238281,-0.14355469,0.9589844,-0.8125,0.375,-0.5,0.0,0.0,0.0
1695991774020,-0.19238281,-0.140625,0.98535156,-1.28125,0.0625,-0.5,0.0,0.0,0.0
1695991774050,-0.18554688,-0.15234375,0.9765625,-1.09375,0.0,-0.125,0.0,0.0,0.0
1695991774110,-0.19726562,-0.14355469,0.98046875,-0.5625,-0.375,0.0625,0.0,0.0,0.0
1695991774140,-0.19628906,-0.13964844,0.9716797,-0.75,-0.375,0.0,0.0,0.0,0.0
1695991774171,-0.19140625,-0.14648438,0.9794922,-1.28125,-0.3125,-0.1875,0.0,0.0,0.0
1695991774230,-0.19433594,-0.15234375,0.9716797,-1.15625,-0.375,0.125,0.0,0.0,0.0
1695991774260,-0.19335938,-0.14746094,0.96777344,-1.0625,-0.25,0.1875,0.0,0.0,0.0
1695991774320,-0.19824219,-0.15332031,0.9785156,-0.875,-0.0625,0.1875,0.0,0.0,0.0
1695991774350,-0.18554688,-0.14257812,0.9707031,-0.9375,-0.0625,-0.0625,0.0,0.0,0.0
1695991774380,-0.1875,-0.1484375,0.97558594,-0.6875,-0.125,0.0,-1.0625,-51.0,8.25
1695991774414,-0.19238281,-0.14257812,0.9667969,-1.0,-0.25,-0.0625,0.0,0.0,0.0
1695991774470,-0.19042969,-0.14355469,0.9667969,-1.09375,-0.1875,-0.0625,0.0,0.0,0.0
1695991774500,-0.19628906,-0.15234375,0.9736328,-1.15625,-0.4375,0.0625,0.0,0.0,0.0
1695991774559,-0.20117188,-0.15039062,0.9814453,-0.5,-0.5,0.25,0.0,0.0,0.0
1695991774590,-0.19042969,-0.15039062,0.9765625,-0.625,-0.0625,0.0625,0.0,0.0,0.0
1695991774620,-0.19824219,-0.1484375,0.9707031,-0.8125,-0.25,0.25,0.0,0.0,0.0
1695991774650,-0.20410156,-0.14746094,0.97265625,-0.75,-0.25,0.0625,0.0,0.0,0.0
1695991774710,-0.19140625,-0.14550781,0.9746094,-0.625,-0.3125,-0.0625,0.0,0.0,0.0
1695991774740,-0.19433594,-0.14355469,0.9785156,-0.625,-0.4375,0.1875,0.0,0.0,0.0
1695991774770,-0.19726562,-0.14941406,0.9707031,-0.375,-0.5,0.25,0.0,0.0,0.0
1695991774860,-0.19140625,-0.14746094,0.96191406,-0.6875,-0.3125,0.0625,0.0,0.0,0.0
1695991774863,-0.18945312,-0.14941406,0.9873047,-0.8125,-0.5,-0.0625,0.0,0.0,0.0
1695991774890,-0.19042969,-0.15722656,0.9736328,-0.625,-0.4375,0.125,-1.625,-50.8125,9.125
1695991774950,-0.19628906,-0.15136719,0.9628906,-0.625,-0.375,0.25,0.0,0.0,0.0
1695991774980,-0.20117188,-0.15820312,0.97265625,-0.5,-0.3125,0.1875,0.0,0.0,0.0
1695991775011,-0.1953125,-0.15625,0.9628906,-0.625,-0.25,0.0625,0.0,0.0,0.0
1695991775100,-0.18945312,-0.14941406,0.98046875,-0.375,-0.1875,0.0,0.0,0.0,0.0
1695991775103,-0.18847656,-0.15234375,0.9873047,-0.375,-0.3125,0.125,0.0,0.0,0.0
1695991775130,-0.19140625,-0.15527344,0.98535156,-0.4375,-0.3125,0.125,0.0,0.0,0.0
1695991775192,-0.18847656,-0.15234375,0.98339844,-0.875,-0.375,0.1875,0.0,0.0,0.0
1695991775221,-0.1875,-0.16210938,0.9873047,-0.4375,-0.3125,0.1875,0.0,0.0,0.0
1695991775254,-0.1875,-0.15136719,0.9560547,-0.1875,0.0625,0.0625,0.0,0.0,0.0
1695991775339,-0.19042969,-0.14941406,0.96875,-0.125,-0.0625,0.3125,0.0,0.0,0.0
1695991775343,-0.19335938,-0.15527344,0.9658203,-0.125,-0.1875,0.125,0.0,0.0,0.0
1695991775370,-0.18652344,-0.15136719,0.9667969,-0.8125,-0.375,-0.0625,0.125,-51.5625,7.3125
1695991775431,-0.19335938,-0.15722656,0.9736328,-0.875,-0.25,0.0,0.0,0.0,0.0
1695991775460,-0.1875,-0.15332031,0.9707031,-0.375,-0.5,0.1875,0.0,0.0,0.0
1695991775490,-0.19335938,-0.14160156,0.9658203,-0.5625,-0.625,0.0625,0.0,0.0,0.0
1695991775549,-0.19042969,-0.1484375,0.9814453,-0.625,-0.625,0.1875,0.0,0.0,0.0
1695991775580,-0.18945312,-0.15429688,0.97558594,-0.5,-0.4375,0.25,0.0,0.0,0.0
1695991775610,-0.19335938,-0.15917969,0.96875,-0.4375,-0.4375,0.25,0.0,0.0,0.0
1695991775670,-0.19335938,-0.15136719,0.97558594,-0.5,-0.25,0.125,0.0,0.0,0.0
1695991775701,-0.18359375,-0.16210938,0.9560547,-0.3125,-0.125,0.125,0.0,0.0,0.0
1695991775730,-0.19921875,-0.15625,0.96484375,-0.25,-0.125,0.125,0.0,0.0,0.0
1695991775790,-0.18945312,-0.15917969,0.95214844,-0.1875,-0.125,0.0625,0.0,0.0,0.0
1695991775820,-0.1953125,-0.15527344,0.9580078,-0.1875,-0.0625,0.125,0.0,0.0,0.0
1695991775851,-0.19140625,-0.15917969,0.9550781,-0.75,-0.4375,0.1875,0.0,0.0,0.0
1695991775912,-0.18945312,-0.15625,0.95996094,-0.0625,-0.375,0.25,-0.875,-52.1875,7.75
1695991775941,-0.18847656,-0.15917969,0.9736328,0.1875,-0.125,0.0625,0.0,0.0,0.0
1695991775970,-0.19238281,-0.15429688,0.9628906,0.0,-0.25,0.375,0.0,0.0,0.0
1695991776030,-0.19238281,-0.15625,0.9746094,-0.3125,-0.125,0.0625,0.0,0.0,0.0
1695991776060,-0.1875,-0.16503906,0.9550781,-0.375,0.0,-0.125,0.0,0.0,0.0
1695991776090,-0.1953125,-0.15332031,0.96191406,-0.25,-0.25,-0.0625,0.0,0.0,0.0
1695991776149,-0.19335938,-0.15429688,0.9716797,0.1875,-0.375,0.25,0.0,0.0,0.0
1695991776210,-0.19140625,-0.16113281,0.9667969,0.1875,-0.1875,0.0625,0.0,0.0,0.0
1695991776213,-0.19921875,-0.16210938,0.96777344,-0.1875,-0.25,0.125,0.0,0.0,0.0
1695991776299,-0.19628906,-0.15722656,0.9609375,-0.1875,-0.125,0.125,0.0,0.0,0.0
1695991776302,-0.1875,-0.15625,0.9638672,0.0,-0.0625,0.25,0.0,0.0,0.0
1695991776329,-0.19042969,-0.15136719,0.97558594,0.1875,0.0,0.25,0.0,0.0,0.0
1695991776390,-0.18457031,-0.15722656,0.95996094,0.1875,-0.125,0.125,-0.625,-51.875,8.6875
1695991776451,-0.18847656,-0.15136719,0.9736328,0.125,-0.0625,0.0,0.0,0.0,0.0
1695991776455,-0.1875,-0.15136719,0.96972656,0.125,-0.0625,-0.0625,0.0,0.0,0.0
1695991776539,-0.19824219,-0.16210938,0.95996094,0.125,0.0,-0.0625,0.0,0.0,0.0
1695991776542,-0.19238281,-0.14257812,0.9667969,-0.25,-0.1875,0.25,0.0,0.0,0.0
1695991776570,-0.19238281,-0.16210938,0.97753906,0.46875,-0.1875,0.375,0.0,0.0,0.0
1695991776655,-0.19628906,-0.15039062,0.97558594,0.53125,0.0,0.3125,0.0,0.0,0.0
1695991776689,-0.18554688,-0.14941406,0.96972656,0.0625,-0.0625,0.3125,0.0,0.0,0.0
1695991776695,-0.19824219,-0.16015625,0.96777344,-0.125,-0.0625,0.125,0.0,0.0,0.0
1695991776780,-0.18945312,-0.15722656,0.96191406,-0.25,-0.25,-0.0625,0.0,0.0,0.0
1695991776783,-0.19238281,-0.16113281,0.9736328,0.125,-0.5,0.125,0.0,0.0,0.0
1695991776809,-0.19238281,-0.15332031,0.9736328,0.1875,-0.5,0.3125,0.0,0.0,0.0
1695991776870,-0.19042969,-0.15332031,0.9716797,-0.125,-0.3125,0.25,0.0,0.0,0.0
1695991776929,-0.18359375,-0.1640625,0.98535156,-0.3125,-0.375,0.125,-1.0625,-51.3125,8.5
1695991776933,-0.18847656,-0.15136719,0.9707031,-0.1875,-0.25,0.1875,0.0,0.0,0.0
1695991776990,-0.18847656,-0.15722656,0.96191406,0.125,-0.125,0.3125,0.0,0.0,0.0
1695991777019,-0.19335938,-0.15722656,0.97265625,0.0625,0.0,0.375,0.0,0.0,0.0
1695991777050,-0.18359375,-0.15820312,0.96777344,0.0625,0.0,0.0625,0.0,0.0,0.0
1695991777141,-0.1875,-0.15332031,0.96777344,0.0625,-0.25,0.125,0.0,0.0,0.0
1695991777146,-0.19628906,-0.15332031,0.9560547,-0.125,-0.0625,0.125,0.0,0.0,0.0
1695991777170,-0.18554688,-0.14257812,0.9550781,-0.3125,-0.4375,0.25,0.0,0.0,0.0
1695991777230,-0.1953125,-0.15527344,0.9716797,0.53125,-0.25,0.3125,0.0,0.0,0.0
1695991777262,-0.18457031,-0.15527344,0.9736328,0.125,-0.125,0.25,0.0,0.0,0.0
1695991777290,-0.18457031,-0.14746094,0.9785156,0.28125,-0.125,0.3125,0.0,0.0,0.0
1695991777350,-0.19628906,-0.14453125,0.9814453,-0.25,0.0,0.0625,0.0,0.0,0.0
1695991777381,-0.18066406,-0.15234375,0.9511719,-0.25,-0.25,-0.125,-1.9375,-52.625,8.0625
1695991777410,-0.19042969,-0.15332031,0.96484375,-0.125,-0.3125,0.1875,0.0,0.0,0.0
1695991777470,-0.19335938,-0.15136719,0.9716797,0.125,-0.25,0.3125,0.0,0.0,0.0
1695991777500,-0.19824219,-0.1484375,0.9707031,-0.1875,-0.375,0.1875,0.0,0.0,0.0
1695991777564,-0.18945312,-0.15136719,0.9736328,-0.1875,-0.25,0.125,0.0,0.0,0.0
1695991777598,-0.19335938,-0.15136719,0.98046875,-0.1875,-0.125,0.0,0.0,0.0,0.0
1695991777619,-0.19238281,-0.14746094,0.9824219,0.0,-0.1875,0.1875,0.0,0.0,0.0
1695991777650,-0.19140625,-0.1484375,0.96777344,0.125,0.0,0.0625,0.0,0.0,0.0
1695991777710,-0.1796875,-0.15917969,0.97558594,0.09375,0.03125,-0.1875,0.0,0.0,0.0
1695991777740,-0.19140625,-0.14453125,0.9794922,-0.21875,0.09375,-0.0625,0.0,0.0,0.0
1695991777770,-0.18945312,-0.15136719,0.9746094,-0.15625,0.15625,-0.125,0.0,0.0,0.0
1695991777830,-0.19042969,-0.16113281,0.95996094,-0.34375,-0.1875,-0.0625,0.0,0.0,0.0
1695991777889,-0.19238281,-0.15820312,0.9824219,0.28125,0.21875,0.0,0.0,0.0,0.0
1695991777894,-0.18457031,-0.14941406,0.97558594,0.40625,0.03125,0.0625,-0.125,-52.625,8.375
1695991777950,-0.1953125,-0.14550781,0.96191406,-0.15625,0.03125,-0.0625,0.0,0.0,0.0
1695991777981,-0.19140625,-0.14746094,0.9638672,-0.40625,0.34375,-0.46875,0.0,0.0,0.0
1695991778041,-0.19042969,-0.15039062,0.984375,-0.53125,0.0,-0.25,0.0,0.0,0.0
1695991778072,-0.18847656,-0.15039062,0.9628906,0.03125,0.0,-0.0625,0.0,0.0,0.0
1695991778100,-0.18945312,-0.15234375,0.98046875,-0.21875,-0.125,-0.125,0.0,0.0,0.0
1695991778130,-0.19042969,-0.15136719,0.9716797,-0.15625,-0.1875,-0.0625,0.0,0.0,0.0
1695991778190,-0.203125,-0.15429688,0.96972656,-0.6875,-0.125,-0.0625,0.0,0.0,0.0
1695991778220,-0.19628906,-0.15527344,0.9667969,-0.59375,0.03125,-0.0625,0.0,0.0,0.0
1695991778250,-0.19433594,-0.14550781,0.97558594,-0.21875,-0.0625,-0.125,0.0,0.0,0.0
1695991778311,-0.18066406,-0.14648438,0.9667969,-0.15625,0.09375,-0.125,0.0,0.0,0.0
1695991778340,-0.19335938,-0.15332031,0.9716797,-0.59375,0.09375,-0.1875,0.0,0.0,0.0
1695991778370,-0.20214844,-0.1484375,0.9550781,-0.8125,0.03125,-0.3125,-2.25,-52.1875,8.6875
1695991778430,-0.19238281,-0.15332031,0.9667969,-0.59375,-0.3125,-0.1875,0.0,0.0,0.0
1695991778461,-0.19335938,-0.15332031,0.9628906,-1.125,-0.3125,0.0,0.0,0.0,0.0
1695991778490,-0.18554688,-0.16015625,0.9794922,-0.40625,-0.1875,0.0625,0.0,0.0,0.0
1695991778550,-0.1953125,-0.15820312,0.9707031,-0.40625,-0.125,-0.125,0.0,0.0,0.0
1695991778580,-0.19921875,-0.15527344,0.98339844,-0.40625,-0.0625,0.0,0.0,0.0,0.0
1695991778610,-0.20605469,-0.15722656,0.95996094,-0.75,0.03125,-0.25,0.0,0.0,0.0
1695991778670,-0.20117188,-0.14453125,0.97265625,-0.9375,0.03125,-0.25,0.0,0.0,0.0
1695991778701,-0.19628906,-0.15722656,0.9736328,-1.0,0.09375,-0.3125,0.0,0.0,0.0
1695991778729,-0.18847656,-0.15625,0.9667969,-0.34375,-0.125,0.0,0.0,0.0,0.0
1695991778790,-0.18945312,-0.15722656,0.96777344,-0.53125,-0.1875,0.0,0.0,0.0,0.0
1695991778820,-0.18652344,-0.15625,0.9667969,-0.46875,-0.1875,-0.125,0.0,0.0,0.0
1695991778852,-0.19042969,-0.14550781,0.97265625,-0.8125,-0.0625,-0.1875,0.0,0.0,0.0
1695991778910,-0.19628906,-0.16210938,0.9716797,-0.65625,-0.1875,-0.1875,0.3125,-50.25,7.5
1695991778942,-0.19140625,-0.15625,0.97753906,-0.53125,-0.125,0.0,0.0,0.0,0.0
1695991779000,-0.19335938,-0.15332031,0.96972656,-0.21875,0.0,0.0,0.0,0.0,0.0
1695991779030,-0.19140625,-0.1484375,0.96777344,-0.28125,-0.0625,-0.1875,0.0,0.0,0.0
1695991779060,-0.19140625,-0.15820312,0.96777344,-0.46875,-0.0625,-0.0625,0.0,0.0,0.0
1695991779090,-0.19042969,-0.16308594,0.9638672,-0.28125,0.15625,-0.25,0.0,0.0,0.0
1695991779150,-0.1875,-0.15820312,0.97265625,-0.6875,-0.1875,-0.0625,0.0,0.0,0.0
1695991779179,-0.1953125,-0.16113281,0.9580078,0.21875,-0.0625,-0.0625,0.0,0.0,0.0
1695991779210,-0.18359375,-0.15820312,0.9863281,0.28125,0.21875,0.0,0.0,0.0,0.0
1695991779271,-0.203125,-0.14941406,0.96972656,-0.15625,0.0,-0.0625,0.0,0.0,0.0
1695991779302,-0.19042969,-0.14941406,0.9707031,-0.34375,-0.0625,-0.125,0.0,0.0,0.0
1695991779330,-0.18847656,-0.15917969,0.9746094,-0.65625,0.03125,-0.1875,0.0,0.0,0.0
1695991779420,-0.1953125,-0.15039062,0.9658203,-0.28125,-0.0625,-0.1875,0.0,-51.75,7.5
1695991779424,-0.19335938,-0.15039062,0.95703125,0.03125,-0.375,0.125,0.0,0.0,0.0
1695991779452,-0.1875,-0.15917969,0.97558594,-0.15625,0.03125,0.0,0.0,0.0,0.0
1695991779540,-0.19140625,-0.15820312,0.9658203,-0.40625,-0.25,-0.0625,0.0,0.0,0.0
1695991779544,-0.18945312,-0.15820312,0.9736328,-0.21875,0.0,-0.0625,0.0,0.0,0.0
1695991779569,-0.18359375,-0.15527344,0.9873047,-0.28125,0.03125,-0.0625,0.0,0.0,0.0
1695991779630,-0.18945312,-0.15332031,0.9628906,-0.15625,0.09375,-0.0625,0.0,0.0,0.0
1695991779661,-0.20214844,-0.15625,0.9628906,-0.15625,0.09375,-0.1875,0.0,0.0,0.0
1695991779690,-0.20019531,-0.15820312,0.9736328,-0.21875,0.0,-0.1875,0.0,0.0,0.0
1695991779780,-0.19726562,-0.15527344,0.96777344,-0.15625,0.03125,-0.125,0.0,0.0,0.0
1695991779784,-0.1875,-0.15917969,0.9736328,-0.28125,-0.0625,0.0,0.0,0.0,0.0
1695991779811,-0.19433594,-0.15625,0.97558594,-0.65625,-0.1875,0.0625,0.0,0.0,0.0
1695991779870,-0.18261719,-0.15820312,0.9658203,0.03125,-0.125,0.0625,0.0,0.0,0.0
1695991779900,-0.18945312,-0.15917969,0.9736328,0.21875,0.03125,0.0,-1.1875,-52.9375,7.75
1695991779930,-0.19824219,-0.16015625,0.96484375,-0.03125,0.09375,0.0,0.0,0.0,0.0
1695991779990,-0.18359375,-0.16113281,0.96191406,-0.15625,0.09375,-0.125,0.0,0.0,0.0
1695991780021,-0.19726562,-0.16503906,0.9628906,-0.28125,0.09375,-0.25,0.0,0.0,0.0
1695991780050,-0.1875,-0.16699219,0.9589844,-0.59375,0.0,-0.1875,0.0,0.0,0.0
1695991780110,-0.19140625,-0.15722656,0.96191406,-0.09375,-0.0625,0.0,0.0,0.0,0.0
1695991780140,-0.18359375,-0.15917969,0.96972656,-0.09375,-0.1875,0.0625,0.0,0.0,0.0
1695991780170,-0.18261719,-0.14355469,0.9736328,-0.34375,-0.3125,0.0,0.0,0.0,0.0
1695991780259,-0.19140625,-0.16113281,0.97558594,-0.15625,-0.1875,-0.125,0.0,0.0,0.0
1695991780263,-0.18847656,-0.1640625,0.98339844,0.03125,0.09375,-0.0625,0.0,0.0,0.0
1695991780290,-0.19140625,-0.16308594,0.9794922,0.03125,0.03125,0.0,0.0,0.0,0.0
1695991780350,-0.19238281,-0.15332031,0.95996094,0.25,0.0625,0.15625,0.0,0.0,0.0
1695991780409,-0.18652344,-0.15820312,0.97265625,0.125,0.125,-0.125,-1.0625,-51.75,6.125
1695991780418,-0.18945312,-0.15625,0.9638672,0.0,0.0625,0.03125,0.0,0.0,0.0
1695991780470,-0.19140625,-0.15039062,0.97753906,0.25,0.25,0.09375,0.0,0.0,0.0
1695991780500,-0.19238281,-0.15039062,0.9589844,0.25,-0.3125,0.15625,0.0,0.0,0.0
1695991780530,-0.1953125,-0.14941406,0.96777344,0.3125,0.0625,0.03125,0.0,0.0,0.0
1695991780590,-0.18359375,-0.16601562,0.97753906,-0.40625,-0.3125,0.03125,0.0,0.0,0.0
1695991780650,-0.19628906,-0.15332031,0.9628906,0.5625,0.125,0.15625,0.0,0.0,0.0
1695991780655,-0.18847656,-0.15039062,0.9667969,0.5,-0.0625,0.09375,0.0,0.0,0.0
1695991780713,-0.18652344,-0.15625,0.9667969,0.375,0.3125,0.03125,0.0,0.0,0.0
1695991780740,-0.19726562,-0.15527344,0.9736328,0.125,0.125,-0.1875,0.0,0.0,0.0
1695991780770,-0.1953125,-0.14941406,0.9716797,0.125,0.125,-0.125,0.0,0.0,0.0
1695991780830,-0.19042969,-0.15820312,0.96777344,-0.0625,-0.0625,-0.0625,0.0,0.0,0.0
1695991780890,-0.19726562,-0.15527344,0.9628906,0.3125,-0.1875,0.15625,0.0,0.0,0.0
1695991780898,-0.18847656,-0.15625,0.96972656,0.3125,-0.1875,0.09375,0.125,-50.8125,6.75
1695991780979,-0.19433594,-0.16210938,0.96972656,-0.09375,-0.375,0.03125,0.0,0.0,0.0
1695991780985,-0.18945312,-0.15625,0.9736328,-0.0625,0.0,0.0,0.0,0.0,0.0
1695991781010,-0.19824219,-0.15136719,0.9824219,-0.0625,0.0,0.15625,0.0,0.0,0.0
1695991781072,-0.20019531,-0.15332031,0.98828125,0.1875,0.0,0.0,0.0,0.0,0.0
1695991781131,-0.18652344,-0.15136719,0.9609375,0.25,0.0625,0.03125,0.0,0.0,0.0
1695991781135,-0.18261719,-0.15332031,0.98339844,0.0625,0.0,0.03125,0.0,0.0,0.0
1695991781219,-0.18945312,-0.15917969,0.98046875,-0.0625,0.125,-0.125,0.0,0.0,0.0
1695991781225,-0.19824219,-0.15820312,0.9716797,-0.0625,-0.0625,0.03125,0.0,0.0,0.0
1695991781250,-0.20117188,-0.15234375,0.97558594,0.25,-0.25,0.09375,0.0,0.0,0.0
1695991781310,-0.19140625,-0.15429688,0.96484375,0.25,0.0,0.21875,0.0,0.0,0.0
1695991781369,-0.19433594,-0.15332031,0.9707031,0.4375,0.0,0.15625,0.0,0.0,0.0
1695991781373,-0.1875,-0.14941406,0.95996094,-0.09375,0.0625,0.09375,-1.625,-51.5625,8.0625
1695991781430,-0.20214844,-0.15234375,0.9716797,-0.21875,0.0625,-0.0625,0.0,0.0,0.0
1695991781462,-0.1953125,-0.15625,0.96875,-0.0625,-0.1875,-0.125,0.0,0.0,0.0
1695991781490,-0.18554688,-0.15332031,0.9785156,0.1875,-0.125,0.09375,0.0,0.0,0.0
1695991781550,-0.19140625,-0.15136719,0.97265625,0.125,-0.1875,0.21875,0.0,0.0,0.0
1695991781583,-0.19628906,-0.15722656,0.96972656,-0.0625,-0.1875,0.0,0.0,0.0,0.0
1695991781609,-0.19921875,-0.15722656,0.97558594,-0.21875,0.125,-0.0625,0.0,0.0,0.0
1695991781699,-0.19824219,-0.14746094,0.96777344,-0.09375,-0.0625,-0.0625,0.0,0.0,0.0
1695991781703,-0.19824219,-0.15429688,0.9785156,0.0625,0.0,-0.125,0.0,0.0,0.0
1695991781730,-0.18652344,-0.15527344,0.9814453,0.0625,0.0,0.0,0.0,0.0,0.0
1695991781790,-0.1875,-0.15039062,0.9667969,-0.15625,0.0625,0.0,0.0,0.0,0.0
1695991781821,-0.18652344,-0.15039062,0.9765625,-0.21875,-0.125,-0.125,0.0,0.0,0.0
1695991781851,-0.19628906,-0.15527344,0.96484375,-0.15625,0.0,0.03125,0.0,0.0,0.0
1695991781910,-0.19140625,-0.14941406,0.9707031,-0.34375,0.0,-0.1875,-0.75,-51.75,8.5
1695991781940,-0.19335938,-0.15136719,0.97753906,-0.0625,0.0,-0.0625,0.0,0.0,0.0
1695991781999,-0.19628906,-0.15917969,0.9716797,0.125,0.3125,0.15625,0.0,0.0,0.0
1695991782030,-0.19238281,-0.15625,0.98046875,0.125,0.125,0.0,0.0,0.0,0.0
1695991782060,-0.19335938,-0.1484375,0.9785156,-0.53125,0.125,-0.1875,0.0,0.0,0.0
1695991782090,-0.19824219,-0.14453125,0.97558594,-0.53125,0.0625,-0.375,0.0,0.0,0.0
1695991782151,-0.1875,-0.15527344,0.9609375,-0.34375,-0.3125,-0.25,0.0,0.0,0.0
1695991782180,-0.19335938,-0.1484375,0.97558594,-0.40625,0.0625,-0.1875,0.0,0.0,0.0
1695991782211,-0.1875,-0.15527344,0.9658203,-0.40625,0.0,0.0,0.0,0.0,0.0
1695991782270,-0.1875,-0.15722656,0.9628906,-0.53125,-0.125,0.0,0.0,0.0,0.0
1695991782334,-0.19335938,-0.15625,0.9736328,-0.65625,-0.3125,-0.0625,0.0,0.0,0.0
1695991782338,-0.19628906,-0.15527344,0.9707031,-0.28125,-0.125,-0.0625,0.0,0.0,0.0
1695991782391,-0.19433594,-0.15136719,0.9658203,-0.40625,0.125,0.09375,-1.375,-51.75,7.9375
1695991782421,-0.18457031,-0.15722656,0.9736328,-0.34375,0.1875,0.0,0.0,0.0,0.0
1695991782450,-0.18945312,-0.15136719,0.9550781,-0.34375,0.0,-0.0625,0.0,0.0,0.0
1695991782510,-0.19726562,-0.15722656,0.9658203,-0.15625,0.1875,0.0,0.0,0.0,0.0
1695991782540,-0.19140625,-0.15429688,0.96777344,-0.53125,0.0,-0.0625,0.0,0.0,0.0
1695991782570,-0.19140625,-0.15136719,0.9628906,-0.34375,-0.0625,-0.0625,0.0,0.0,0.0
1695991782630,-0.19628906,-0.15332031,0.9609375,-0.71875,-0.3125,0.0,0.0,0.0,0.0
1695991782660,-0.19140625,-0.15820312,0.9765625,-0.0625,-0.1875,0.09375,0.0,0.0,0.0
1695991782720,-0.18164062,-0.15917969,0.9580078,-0.0625,0.0,0.09375,0.0,0.0,0.0
1695991782750,-0.19726562,-0.15820312,0.9785156,-0.0625,0.0,0.15625,0.0,0.0,0.0
1695991782780,-0.19140625,-0.16015625,0.96191406,-0.34375,0.0,0.03125,0.0,0.0,0.0
1695991782809,-0.19042969,-0.15332031,0.9609375,-0.53125,0.0625,-0.1875,0.0,0.0,0.0
1695991782869,-0.19238281,-0.15917969,0.96777344,-0.46875,-0.0625,0.03125,0.0,0.0,0.0
1695991782900,-0.18945312,-0.16308594,0.9707031,-0.09375,0.0,0.09375,-0.3125,-52.5,7.5
1695991782930,-0.19433594,-0.15722656,0.9873047,-0.09375,-0.3125,0.15625,0.0,0.0,0.0
1695991782990,-0.19042969,-0.15722656,0.96484375,-0.34375,-0.1875,0.0,0.0,0.0,0.0
1695991783020,-0.18554688,-0.15917969,0.96875,-0.21875,-0.0625,-0.0625,0.0,0.0,0.0
1695991783050,-0.18945312,-0.16503906,0.9658203,-0.09375,-0.1875,0.03125,0.0,0.0,0.0
1695991783110,-0.19628906,-0.16308594,0.9785156,-0.0625,0.0625,0.15625,0.0,0.0,0.0
1695991783141,-0.19042969,-0.16601562,0.9667969,-0.0625,0.0,0.0,0.0,0.0,0.0
1695991783170,-0.19140625,-0.15820312,0.9785156,-0.0625,0.125,0.03125,0.0,0.0,0.0
1695991783230,-0.19726562,-0.15429688,0.9785156,-0.0625,-0.0625,0.0,0.0,0.0,0.0
1695991783260,-0.19042969,-0.16308594,0.9736328,0.0,0.3125,0.09375,0.0,0.0,0.0
1695991783290,-0.1875,-0.16210938,0.96875,-0.40625,0.0625,0.09375,0.0,0.0,0.0
1695991783349,-0.19824219,-0.16796875,0.9658203,0.4375,0.0,0.09375,0.0,0.0,0.0
1695991783381,-0.1875,-0.16503906,0.9550781,0.25,0.125,0.0,-1.1875,-50.5625,7.3125
1695991783441,-0.19140625,-0.15820312,0.97265625,0.0625,0.1875,0.03125,0.0,0.0,0.0
1695991783473,-0.19238281,-0.15527344,0.96972656,-0.09375,0.1875,0.03125,0.0,0.0,0.0
1695991783501,-0.19824219,-0.15917969,0.9765625,-0.15625,0.0625,-0.125,0.0,0.0,0.0
1695991783530,-0.1875,-0.1640625,0.9707031,-0.15625,-0.1875,-0.125,0.0,0.0,0.0
1695991783590,-0.1953125,-0.16796875,0.9658203,0.1875,-0.3125,0.03125,0.0,0.0,0.0
1695991783621,-0.18164062,-0.15820312,0.97753906,0.375,-0.25,0.03125,0.0,0.0,0.0
1695991783651,-0.18945312,-0.16308594,0.9628906,-0.15625,0.125,-0.0625,0.0,0.0,0.0
1695991783710,-0.19238281,-0.15234375,0.9628906,-0.15625,0.0,0.0,0.0,0.0,0.0
1695991783740,-0.19824219,-0.16015625,0.96875,0.3125,0.0,0.15625,0.0,0.0,0.0
1695991783771,-0.18359375,-0.15039062,0.9658203,0.0,0.25,0.0,0.0,0.0,0.0
1695991783830,-0.19433594,-0.15234375,0.9785156,0.125,0.25,0.0,0.0,0.0,0.0
1695991783860,-0.19140625,-0.15625,0.96875,-0.09375,0.0625,-0.1875,0.0,0.0,0.0
1695991783920,-0.19726562,-0.15820312,0.98046875,-0.21875,0.0625,-0.125,-1.0625,-52.0625,5.5
1695991783981,-0.1875,-0.15039062,0.97753906,-0.09375,0.0,-0.0625,0.0,0.0,0.0
1695991783986,-0.19433594,-0.16503906,0.9501953,0.0625,-0.1875,0.09375,0.0,0.0,0.0
1695991784010,-0.18554688,-0.15039062,0.97558594,-0.15625,-0.3125,0.09375,0.0,0.0,0.0
1695991784070,-0.19140625,-0.15332031,0.9736328,0.3125,0.1875,0.09375,0.0,0.0,0.0
1695991784105,-0.19140625,-0.15917969,0.9550781,0.5,0.3125,0.03125,0.0,0.0,0.0
1695991784159,-0.18457031,-0.15527344,0.9716797,0.5625,0.125,0.21875,0.0,0.0,0.0
1695991784219,-0.19140625,-0.16308594,0.9589844,0.0,0.25,0.03125,0.0,0.0,0.0
1695991784223,-0.20019531,-0.15625,0.9707031,-0.09375,0.1875,-0.125,0.0,0.0,0.0
1695991784280,-0.19335938,-0.15722656,0.9560547,-0.0625,-0.1875,-0.0625,0.0,0.0,0.0
1695991784309,-0.20019531,-0.16015625,0.96191406,0.375,-0.375,0.15625,0.0,0.0,0.0
1695991784341,-0.18945312,-0.16015625,0.9892578,0.0625,0.0,0.09375,0.0,0.0,0.0
1695991784399,-0.1953125,-0.15429688,0.97265625,-0.0625,-0.25,0.09375,-0.875,-51.5625,7.0
1695991784431,-0.1953125,-0.16308594,0.9667969,0.125,-0.125,0.15625,0.0,0.0,0.0
1695991784460,-0.18359375,-0.15234375,0.9628906,0.1875,0.125,0.21875,0.0,0.0,0.0
1695991784550,-0.18359375,-0.16210938,0.97753906,0.125,0.25,0.03125,0.0,0.0,0.0
1695991784554,-0.19238281,-0.16503906,0.9707031,0.3125,0.0625,0.03125,0.0,0.0,0.0
1695991784580,-0.203125,-0.15722656,0.96777344,0.125,0.25,-0.125,0.0,0.0,0.0
1695991784640,-0.19238281,-0.15722656,0.9814453,0.1875,0.25,-0.0625,0.0,0.0,0.0
1695991784670,-0.1953125,-0.15332031,0.9667969,0.0625,0.125,0.03125,0.0,0.0,0.0
1695991784701,-0.19335938,-0.15820312,0.9736328,0.125,-0.125,0.03125,0.0,0.0,0.0
1695991784760,-0.19140625,-0.15820312,0.98046875,-0.09375,-0.3125,0.03125,0.0,0.0,0.0
1695991784791,-0.1953125,-0.15917969,0.97753906,0.5,0.0625,0.28125,0.0,0.0,0.0
1695991784820,-0.18261719,-0.14941406,0.9716797,0.5,-0.0625,0.21875,0.0,0.0,0.0
1695991784880,-0.19140625,-0.15332031,0.96972656,0.0625,0.1875,0.09375,0.0,0.0,0.0
1695991784910,-0.19726562,-0.16210938,0.95214844,0.0,0.25,-0.1875,-1.375,-50.6875,7.5
1695991784941,-0.19628906,-0.15625,0.9550781,0.0,0.125,-0.0625,0.0,0.0,0.0
1695991785000,-0.18945312,-0.14941406,0.9609375,0.5,0.1875,0.03125,0.0,0.0,0.0
1695991785031,-0.19140625,-0.14746094,0.97558594,0.25,0.0,0.21875,0.0,0.0,0.0
1695991785061,-0.19238281,-0.15917969,0.984375,0.1875,-0.125,0.09375,0.0,0.0,0.0
1695991785123,-0.19140625,-0.15625,0.9580078,0.0625,-0.0625,0.03125,0.0,0.0,0.0
1695991785149,-0.19042969,-0.15625,0.9716797,-0.28125,0.125,-0.0625,0.0,0.0,0.0
1695991785181,-0.1953125,-0.15625,0.96777344,0.0625,0.0625,0.09375,0.0,0.0,0.0
1695991785240,-0.19824219,-0.15039062,0.96777344,0.125,0.0625,0.09375,0.0,0.0,0.0
1695991785270,-0.19140625,-0.15722656,0.97753906,0.3125,0.0,0.0,0.0,0.0,0.0
1695991785330,-0.19726562,-0.1484375,0.96777344,0.0,0.1875,0.03125,0.0,0.0,0.0
1695991785361,-0.20214844,-0.15332031,0.98046875,0.0625,0.1875,0.0,0.0,0.0,0.0
1695991785419,-0.18945312,-0.15527344,0.9658203,0.125,-0.0625,0.0,-0.3125,-52.0625,6.875
1695991785426,-0.203125,-0.15625,0.97753906,0.1875,0.3125,0.09375,0.0,0.0,0.0
1695991785481,-0.19824219,-0.15136719,0.9707031,0.5625,-0.0625,0.03125,0.0,0.0,0.0
1695991785512,-0.1875,-0.14941406,0.9746094,0.0625,0.25,0.0,0.0,0.0,0.0
1695991785570,-0.20507812,-0.15527344,0.97753906,-0.71875,0.0625,-0.375,0.0,0.0,0.0
1695991785602,-0.19140625,-0.16015625,0.9707031,-0.40625,-0.0625,-0.1875,0.0,0.0,0.0
1695991785658,-0.19140625,-0.15234375,0.9658203,-0.21875,0.125,-0.125,0.0,0.0,0.0
1695991785661,-0.18554688,-0.15234375,0.9707031,-0.28125,0.0625,0.0,0.0,0.0,0.0
1695991785721,-0.18945312,-0.15625,0.97753906,-0.09375,-0.125,0.0,0.0,0.0,0.0
1695991785750,-0.18847656,-0.14941406,0.96777344,-0.34375,0.0,-0.0625,0.0,0.0,0.0
1695991785780,-0.1875,-0.16113281,0.97265625,-0.15625,0.125,0.0,0.0,0.0,0.0
1695991785840,-0.18847656,-0.15820312,0.9550781,-0.21875,0.25,0.03125,0.0,0.0,0.0
1695991785870,-0.19042969,-0.15917969,0.96972656,0.0,0.0625,0.0,0.0,0.0,0.0
1695991785901,-0.19628906,-0.14746094,0.9638672,-0.09375,0.125,0.0,-0.75,-52.0625,9.0
1695991785989,-0.19238281,-0.16210938,0.96191406,-0.40625,0.0625,-0.125,0.0,0.0,0.0
1695991785996,-0.19726562,-0.15917969,0.9667969,-0.53125,0.0625,0.0,0.0,0.0,0.0
1695991786026,-0.18945312,-0.16210938,0.9658203,-0.28125,-0.0625,-0.0625,0.0,0.0,0.0
1695991786081,-0.19238281,-0.16503906,0.97265625,-0.21875,-0.1875,0.09375,0.0,0.0,0.0
1695991786111,-0.1953125,-0.15527344,0.9707031,-0.09375,0.0625,0.03125,0.0,0.0,0.0
1695991786141,-0.19628906,-0.15820312,0.97558594,-0.09375,0.0,0.15625,0.0,0.0,0.0
1695991786201,-0.19921875,-0.15332031,0.9785156,-0.40625,0.125,0.0,0.0,0.0,0.0
1695991786260,-0.20019531,-0.16015625,0.9580078,-0.59375,0.0,-0.125,0.0,0.0,0.0
1695991786263,-0.1953125,-0.15625,0.9785156,-0.59375,-0.1875,0.0,0.0,0.0,0.0
1695991786321,-0.18945312,-0.15234375,0.96777344,-0.21875,-0.1875,0.03125,0.0,0.0,0.0
1695991786350,-0.18652344,-0.15722656,0.9716797,-0.34375,-0.1875,0.09375,0.0,0.0,0.0
1695991786380,-0.19042969,-0.15820312,0.9716797,-0.46875,-0.0625,0.03125,-0.3125,-51.3125,7.9375
1695991786440,-0.19824219,-0.15722656,0.9716797,-0.78125,-0.3125,0.0,0.0,0.0,0.0
1695991786470,-0.1875,-0.16015625,0.96972656,-0.0625,-0.3125,0.09375,0.0,0.0,0.0
1695991786500,-0.19238281,-0.16992188,0.9609375,0.625,-0.3125,0.53125,0.0,0.0,0.0
1695991786560,-0.19140625,-0.16015625,0.9667969,1.0,-0.4375,0.59375,0.0,0.0,0.0
1695991786590,-0.19238281,-0.15625,0.9746094,2.09375,0.0,0.65625,0.0,0.0,0.0
1695991786626,-0.19433594,-0.15527344,0.9716797,2.875,-1.46875,1.8125,0.0,0.0,0.0
1695991786681,-0.19042969,-0.14746094,0.9824219,3.96875,-2.0,2.5625,0.0,0.0,0.0
1695991786709,-0.18261719,-0.13476562,0.99121094,3.75,-1.15625,1.6875,0.0,0.0,0.0
1695991786739,-0.1953125,-0.14648438,0.9765625,-0.84375,-1.15625,0.46875,0.0,0.0,0.0
1695991786800,-0.16796875,-0.14453125,0.95996094,-2.0,-0.84375,-1.0,0.0,0.0,0.0
1695991786833,-0.17773438,-0.15332031,0.9814453,0.25,-1.53125,-0.3125,0.0,0.0,0.0
1695991786861,-0.18652344,-0.15820312,0.9814453,1.53125,-2.25,0.03125,0.0,0.0,0.0
1695991786923,-0.18164062,-0.14746094,0.9638672,-0.71875,-1.40625,-1.0625,-1.1875,-50.5625,8.375
1695991786951,-0.1875,-0.16894531,0.9736328,-0.15625,-1.59375,-2.40625,0.0,0.0,0.0
1695991786981,-0.1796875,-0.16308594,0.97558594,1.21875,-0.84375,-3.375,0.0,0.0,0.0
1695991787041,-0.17871094,-0.14355469,0.9824219,0.6875,-1.03125,-3.375,0.0,0.0,0.0
1695991787070,-0.16699219,-0.1328125,0.96484375,1.40625,-0.5,-2.53125,0.0,0.0,0.0
1695991787099,-0.1796875,-0.13574219,0.9658203,2.28125,-0.25,-1.53125,0.0,0.0,0.0
1695991787160,-0.17675781,-0.12695312,0.9824219,1.78125,-1.34375,-1.0,0.0,0.0,0.0
1695991787190,-0.17675781,-0.13574219,0.9873047,-0.09375,-0.25,-0.1875,0.0,0.0,0.0
1695991787220,-0.1796875,-0.14453125,0.9736328,-0.65625,0.0625,1.03125,0.0,0.0,0.0
1695991787281,-0.18359375,-0.15039062,0.9736328,0.375,-0.65625,1.3125,0.0,0.0,0.0
1695991787310,-0.17675781,-0.16308594,0.9765625,0.625,-1.03125,0.96875,0.0,0.0,0.0
1695991787340,-0.18359375,-0.15625,0.9589844,1.1875,-1.46875,1.09375,0.0,0.0,0.0
1695991787401,-0.17773438,-0.15820312,0.96484375,1.71875,-1.84375,0.78125,-0.3125,-50.25,6.5625
1695991787430,-0.16992188,-0.15722656,0.9814453,0.4375,-0.5,0.53125,0.0,0.0,0.0
1695991787460,-0.17578125,-0.14746094,0.9814453,0.5,0.71875,-0.1875,0.0,0.0,0.0
1695991787520,-0.16796875,-0.13769531,0.9785156,0.9375,1.15625,-0.75,0.0,0.0,0.0
1695991787550,-0.17773438,-0.13671875,0.97558594,0.0,0.71875,-0.4375,0.0,0.0,0.0
1695991787581,-0.17285156,-0.1328125,0.96191406,-0.90625,0.78125,-0.25,0.0,0.0,0.0
1695991787641,-0.18066406,-0.13769531,0.9707031,-0.78125,0.1875,-0.125,0.0,0.0,0.0
1695991787670,-0.18261719,-0.13867188,0.9628906,0.25,-0.84375,0.0,0.0,0.0,0.0
1695991787699,-0.17285156,-0.13769531,0.9746094,-0.28125,0.5,0.46875,0.0,0.0,0.0
1695991787790,-0.18359375,-0.15722656,0.9628906,-0.09375,-0.0625,1.3125,0.0,0.0,0.0
1695991787794,-0.18066406,-0.15722656,0.9941406,1.0,-0.3125,0.90625,0.0,0.0,0.0
1695991787820,-0.171875,-0.15527344,0.97265625,-0.09375,1.09375,-0.375,0.0,0.0,0.0
1695991787881,-0.17382812,-0.15625,0.9814453,-0.84375,1.59375,-1.0,0.0,0.0,0.0
1695991787911,-0.17773438,-0.14746094,0.97753906,0.0,1.03125,-1.0,-1.0625,-52.0625,9.0
1695991787940,-0.17773438,-0.14453125,0.9628906,-0.34375,1.40625,-1.125,0.0,0.0,0.0
1695991788029,-0.17871094,-0.13378906,0.97265625,-0.53125,1.40625,-1.3125,0.0,0.0,0.0
1695991788032,-0.17578125,-0.125,0.97753906,0.0,0.71875,-0.8125,0.0,0.0,0.0
1695991788061,-0.19042969,-0.13964844,0.96972656,0.1875,0.375,0.03125,0.0,0.0,0.0
1695991788118,-0.18359375,-0.13671875,0.97265625,-0.15625,-0.4375,0.28125,0.0,0.0,0.0
1695991788149,-0.18066406,-0.14746094,0.97558594,0.5,-0.4375,0.90625,0.0,0.0,0.0
1695991788179,-0.18164062,-0.14160156,0.9707031,0.4375,-0.5,0.78125,0.0,0.0,0.0
1695991788239,-0.18164062,-0.15039062,0.9785156,-0.09375,-0.0625,0.46875,0.0,0.0,0.0
1695991788269,-0.18847656,-0.15625,0.9658203,-0.96875,0.25,-0.3125,0.0,0.0,0.0
1695991788299,-0.18066406,-0.13964844,0.984375,-0.90625,0.0625,-0.4375,0.0,0.0,0.0
1695991788358,-0.17773438,-0.15332031,0.97753906,-0.53125,-0.0625,-0.1875,0.0,0.0,0.0
1695991788389,-0.18847656,-0.140625,0.9873047,-0.53125,-0.125,0.03125,-0.125,-51.5625,9.125
1695991788418,-0.17480469,-0.14355469,0.98046875,-0.65625,-0.1875,0.03125,0.0,0.0,0.0
1695991788538,-0.19140625,-0.13671875,0.9824219,-0.53125,-0.4375,0.28125,0.0,0.0,0.0
1695991788541,-0.18945312,-0.14355469,0.9667969,-0.90625,-0.4375,0.40625,0.0,0.0,0.0
1695991788542,-0.17871094,-0.15917969,0.9765625,-1.03125,-0.125,0.40625,0.0,0.0,0.0
1695991788599,-0.18261719,-0.15527344,0.96777344,-0.65625,0.0625,0.21875,0.0,0.0,0.0
1695991788629,-0.18164062,-0.15234375,0.9785156,-0.28125,0.5,-0.5,0.0,0.0,0.0
1695991788659,-0.17675781,-0.15234375,0.9785156,-0.28125,0.5625,-0.625,0.0,0.0,0.0
1695991788720,-0.18164062,-0.14550781,0.9707031,0.125,0.125,-0.4375,0.0,0.0,0.0
1695991788749,-0.1796875,-0.14746094,0.96875,0.0,0.3125,0.0,0.0,0.0,0.0
1695991788779,-0.19042969,-0.14160156,0.95703125,-0.28125,0.1875,0.0,0.0,0.0,0.0
1695991788839,-0.18847656,-0.16015625,0.9550781,-0.0625,0.125,0.28125,0.0,0.0,0.0
1695991788869,-0.17089844,-0.15136719,0.9707031,0.3125,0.3125,0.15625,0.0,0.0,0.0
1695991788899,-0.17382812,-0.14355469,0.96777344,0.3125,0.125,0.0,-0.75,-51.0,7.9375
1695991788959,-0.18554688,-0.14355469,0.9736328,0.1875,-0.0625,-0.0625,0.0,0.0,0.0
1695991788988,-0.18261719,-0.15820312,0.9716797,-0.0625,0.375,-0.1875,0.0,0.0,0.0
1695991789019,-0.18945312,-0.14746094,0.9746094,-0.09375,0.25,0.0,0.0,0.0,0.0
1695991789079,-0.18261719,-0.14746094,0.97753906,0.125,0.25,-0.0625,0.0,0.0,0.0
1695991789109,-0.17675781,-0.14355469,0.9667969,-0.21875,0.125,0.03125,0.0,0.0,0.0
1695991789138,-0.17578125,-0.1484375,0.9794922,-0.0625,-0.125,-0.125,0.0,0.0,0.0
1695991789199,-0.17675781,-0.14355469,0.96972656,0.375,-0.5,-0.3125,0.0,0.0,0.0
1695991789229,-0.1796875,-0.14257812,0.9863281,0.0,-0.1875,-0.1875,0.0,0.0,0.0
1695991789259,-0.17382812,-0.14941406,0.9824219,0.125,-0.25,-0.125,0.0,0.0,0.0
1695991789319,-0.1796875,-0.13671875,0.9873047,0.1875,0.0,-0.1875,0.0,0.0,0.0
1695991789349,-0.17480469,-0.1484375,0.98339844,-0.0625,0.0,-0.3125,0.0,0.0,0.0
1695991789379,-0.17773438,-0.14941406,0.97558594,0.1875,-0.0625,0.0,-0.625,-51.125,7.3125
1695991789440,-0.17382812,-0.14160156,0.9785156,0.375,-0.125,0.03125,0.0,0.0,0.0
1695991789469,-0.16503906,-0.14746094,0.97558594,-0.28125,0.0625,0.0,0.0,0.0,0.0
1695991789500,-0.18359375,-0.15722656,0.9951172,0.0,0.25,0.03125,0.0,0.0,0.0
1695991789559,-0.18261719,-0.15039062,0.96191406,0.0,0.0625,0.0,0.0,0.0,0.0
1695991789589,-0.18359375,-0.15039062,0.96972656,0.375,-0.25,0.03125,0.0,0.0,0.0
1695991789619,-0.17382812,-0.14453125,0.9667969,0.0625,-0.25,0.09375,0.0,0.0,0.0
1695991789679,-0.17675781,-0.14941406,0.96191406,0.0625,-0.125,0.09375,0.0,0.0,0.0
1695991789738,-0.18066406,-0.15332031,0.9794922,-0.15625,-0.25,0.09375,0.0,0.0,0.0
1695991789740,-0.18359375,-0.15234375,0.96777344,0.0,0.0625,0.03125,0.0,0.0,0.0
1695991789799,-0.17773438,-0.15136719,0.9746094,0.0,0.25,0.03125,0.0,0.0,0.0
1695991789858,-0.17578125,-0.14941406,0.96777344,0.125,-0.125,0.0,0.0,0.0,0.0
1695991789860,-0.17675781,-0.15136719,0.96972656,0.375,0.0625,0.03125,0.0,0.0,0.0
1695991789919,-0.18457031,-0.15234375,0.9785156,0.1875,0.125,0.09375,-1.0625,-51.75,8.5
1695991789950,-0.17382812,-0.14746094,0.9785156,0.125,0.125,0.03125,0.0,0.0,0.0
1695991789979,-0.18066406,-0.14941406,0.96191406,0.1875,-0.0625,0.09375,0.0,0.0,0.0
1695991790039,-0.17871094,-0.14453125,0.9628906,0.25,0.0625,0.09375,0.0,0.0,0.0
1695991790070,-0.17871094,-0.14257812,0.96972656,0.1875,0.0,0.09375,0.0,0.0,0.0
1695991790100,-0.18457031,-0.140625,0.9736328,0.125,0.0,-0.125,0.0,0.0,0.0
1695991790159,-0.17773438,-0.14648438,0.97558594,-0.34375,0.0625,-0.0625,0.0,0.0,0.0
1695991790190,-0.18066406,-0.15722656,0.9863281,0.5,-0.1875,0.15625,0.0,0.0,0.0
1695991790219,-0.16601562,-0.14453125,0.97265625,0.5625,0.0,0.15625,0.0,0.0,0.0
1695991790279,-0.19238281,-0.14746094,0.9902344,0.375,-0.125,0.09375,0.0,0.0,0.0
1695991790309,-0.18847656,-0.14160156,0.97265625,0.0625,0.25,-0.25,0.0,0.0,0.0
1695991790338,-0.1875,-0.14746094,0.9707031,0.0625,-0.3125,-0.125,0.0,0.0,0.0
1695991790400,-0.17675781,-0.140625,0.9716797,0.25,0.0,0.15625,-0.875,-51.875,6.75
1695991790429,-0.1796875,-0.14257812,0.97753906,0.1875,0.0,0.03125,0.0,0.0,0.0
1695991790459,-0.17285156,-0.14355469,0.9667969,0.1875,0.25,-0.0625,0.0,0.0,0.0
1695991790519,-0.17773438,-0.14453125,0.9892578,-0.15625,0.1875,-0.125,0.0,0.0,0.0
1695991790549,-0.17675781,-0.14160156,0.9785156,-0.15625,0.25,-0.25,0.0,0.0,0.0
1695991790579,-0.18359375,-0.14160156,0.96484375,-0.15625,0.3125,0.0,0.0,0.0,0.0
1695991790640,-0.1875,-0.14160156,0.9716797,-0.28125,0.0,0.0,0.0,0.0,0.0
1695991790669,-0.17382812,-0.14550781,0.9736328,-0.53125,0.15625,-0.09375,0.0,0.0,0.0
1695991790729,-0.18164062,-0.15234375,0.9824219,-0.28125,0.15625,-0.03125,0.0,0.0,0.0
1695991790759,-0.17578125,-0.14550781,0.9765625,-0.15625,-0.15625,-0.09375,0.0,0.0,0.0
1695991790818,-0.18164062,-0.14160156,0.96777344,-0.28125,0.3125,-0.15625,0.0,0.0,0.0
1695991790820,-0.17382812,-0.15625,0.9707031,-0.8125,0.4375,-0.65625,0.0,0.0,0.0
1695991790878,-0.18164062,-0.15332031,0.9785156,-0.15625,0.15625,-0.21875,0.0,0.0,0.0
1695991790909,-0.18066406,-0.140625,0.98535156,-0.59375,0.15625,-0.34375,-0.625,-51.125,9.4375
1695991790969,-0.18066406,-0.14746094,0.98046875,-0.28125,-0.21875,-0.09375,0.0,0.0,0.0
1695991791000,-0.18554688,-0.13574219,0.96777344,-0.15625,-0.09375,-0.21875,0.0,0.0,0.0
1695991791029,-0.18066406,-0.14941406,0.9658203,-0.34375,-0.34375,0.125,0.0,0.0,0.0
1695991791059,-0.18164062,-0.15039062,0.96484375,-0.46875,-0.15625,0.125,0.0,0.0,0.0
1695991791120,-0.18261719,-0.15332031,0.9873047,-0.28125,0.15625,-0.09375,0.0,0.0,0.0
1695991791150,-0.1796875,-0.15039062,0.9667969,-0.625,-0.03125,-0.53125,0.0,0.0,0.0
1695991791179,-0.18847656,-0.15039062,0.9716797,-0.59375,0.21875,-0.53125,0.0,0.0,0.0
1695991791239,-0.19042969,-0.14453125,0.9628906,-0.46875,0.09375,-0.46875,0.0,0.0,0.0
1695991791269,-0.18164062,-0.14941406,0.9667969,-0.28125,-0.03125,-0.34375,0.0,0.0,0.0
1695991791300,-0.18164062,-0.15234375,0.97265625,-0.28125,-0.03125,-0.03125,0.0,0.0,0.0
1695991791359,-0.17675781,-0.14257812,0.9638672,-0.15625,-0.09375,-0.03125,0.0,0.0,0.0
1695991791389,-0.17675781,-0.15039062,0.97753906,-0.34375,-0.03125,-0.09375,-2.25,-50.5625,7.75
1695991791420,-0.1875,-0.14648438,0.9667969,-0.40625,0.03125,-0.21875,0.0,0.0,0.0
1695991791479,-0.18359375,-0.15039062,0.9765625,-0.09375,0.15625,-0.15625,0.0,0.0,0.0
1695991791509,-0.18457031,-0.15234375,0.96777344,-0.03125,0.03125,-0.09375,0.0,0.0,0.0
1695991791538,-0.1796875,-0.15332031,0.9707031,-0.625,0.21875,-0.28125,0.0,0.0,0.0
1695991791599,-0.18359375,-0.15136719,0.99316406,-0.21875,0.09375,-0.09375,0.0,0.0,0.0
1695991791629,-0.17773438,-0.15332031,0.9707031,-0.40625,0.28125,-0.03125,0.0,0.0,0.0
1695991791659,-0.18945312,-0.14453125,0.9814453,-0.03125,-0.09375,0.0,0.0,0.0,0.0
1695991791719,-0.1796875,-0.15527344,0.97753906,-0.15625,0.03125,-0.09375,0.0,0.0,0.0
1695991791749,-0.18066406,-0.15917969,0.9824219,-0.34375,0.03125,-0.03125,0.0,0.0,0.0
1695991791778,-0.19042969,-0.14941406,0.96875,-0.34375,-0.03125,-0.15625,0.0,0.0,0.0
1695991791840,-0.18261719,-0.15332031,0.98339844,-0.34375,-0.03125,-0.15625,0.0,0.0,0.0
1695991791869,-0.18066406,-0.14355469,0.9863281,-0.46875,0.15625,-0.21875,0.0,0.0,0.0
1695991791900,-0.18066406,-0.15136719,0.9873047,-0.15625,-0.03125,-0.21875,-0.875,-50.0625,8.6875
1695991791989,-0.18066406,-0.14453125,0.98046875,-0.15625,0.09375,-0.09375,0.0,0.0,0.0
1695991791992,-0.18261719,-0.15234375,0.9736328,-0.34375,-0.09375,0.0,0.0,0.0,0.0
1695991792019,-0.18359375,-0.16503906,0.9785156,-0.09375,0.09375,0.0625,0.0,0.0,0.0
1695991792079,-0.18261719,-0.14257812,0.9765625,-0.15625,-0.03125,0.0,0.0,0.0,0.0
1695991792109,-0.17871094,-0.15527344,0.9794922,-0.34375,-0.03125,-0.09375,0.0,0.0,0.0
1695991792139,-0.18066406,-0.15429688,0.98339844,-0.15625,-0.09375,-0.09375,0.0,0.0,0.0
1695991792199,-0.18554688,-0.15332031,0.9863281,-0.28125,0.28125,-0.09375,0.0,0.0,0.0
1695991792229,-0.18261719,-0.14355469,0.97558594,-0.03125,-0.09375,0.0625,0.0,0.0,0.0
1695991792259,-0.18066406,-0.14941406,0.96972656,-0.03125,0.03125,-0.15625,0.0,0.0,0.0
1695991792319,-0.18164062,-0.15332031,0.97753906,-0.6875,-0.09375,-0.03125,0.0,0.0,0.0
1695991792349,-0.18359375,-0.16015625,0.97558594,-0.15625,0.03125,-0.03125,0.0,0.0,0.0
1695991792379,-0.17578125,-0.14941406,0.96191406,0.03125,0.09375,-0.03125,-0.125,-50.8125,8.0625
1695991792439,-0.1796875,-0.1484375,0.96875,0.03125,0.09375,0.125,0.0,0.0,0.0
1695991792469,-0.18066406,-0.15136719,0.98046875,-0.21875,0.09375,0.0625,0.0,0.0,0.0
1695991792499,-0.18359375,-0.15136719,0.97753906,-0.625,-0.09375,-0.09375,0.0,0.0,0.0
1695991792560,-0.1796875,-0.14746094,0.9785156,-0.75,-0.15625,-0.03125,0.0,0.0,0.0
1695991792590,-0.18554688,-0.15039062,0.95996094,-0.40625,-0.28125,0.25,0.0,0.0,0.0
1695991792620,-0.18457031,-0.1484375,0.9785156,-0.46875,-0.21875,0.1875,0.0,0.0,0.0
1695991792679,-0.18652344,-0.15332031,0.97558594,-0.6875,-0.21875,0.0,0.0,0.0,0.0
1695991792709,-0.17871094,-0.15820312,0.96191406,-0.875,-0.53125,-0.34375,0.0,0.0,0.0
1695991792739,-0.18359375,-0.14941406,0.9707031,-1.375,-0.53125,-0.34375,0.0,0.0,0.0
1695991792798,-0.17578125,-0.16015625,0.9716797,-0.75,-0.15625,-0.09375,0.0,0.0,0.0
1695991792829,-0.18457031,-0.15722656,0.9765625,-0.59375,0.09375,-0.15625,0.0,0.0,0.0
1695991792858,-0.17382812,-0.15527344,0.9765625,-0.15625,-0.34375,0.125,0.0,-50.25,9.5625
1695991792919,-0.17773438,-0.15722656,0.984375,0.03125,-0.21875,-0.09375,0.0,0.0,0.0
1695991792949,-0.18164062,-0.15429688,0.9814453,0.09375,-0.21875,0.125,0.0,0.0,0.0
1695991792980,-0.17675781,-0.1640625,0.9824219,0.15625,0.03125,0.125,0.0,0.0,0.0
1695991793038,-0.18066406,-0.16503906,0.9765625,-0.46875,-0.15625,0.0,0.0,0.0,0.0
1695991793098,-0.17382812,-0.16015625,0.98828125,-0.09375,0.15625,0.0,0.0,0.0,0.0
1695991793101,-0.16894531,-0.15917969,0.96972656,-0.15625,0.03125,-0.09375,0.0,0.0,0.0
1695991793159,-0.18164062,-0.14257812,0.9609375,0.40625,-0.15625,0.0,0.0,0.0,0.0
1695991793189,-0.1796875,-0.14257812,0.9824219,-0.09375,0.09375,-0.09375,0.0,0.0,0.0
1695991793219,-0.17773438,-0.14941406,0.9658203,-0.03125,-0.03125,-0.15625,0.0,0.0,0.0
1695991793279,-0.18164062,-0.15917969,0.9716797,-0.34375,-0.21875,0.125,0.0,0.0,0.0
1695991793309,-0.18847656,-0.15234375,0.9765625,-0.03125,-0.09375,0.125,0.0,0.0,0.0
1695991793339,-0.18457031,-0.14550781,0.97265625,0.15625,-0.03125,-0.09375,0.0,0.0,0.0
1695991793400,-0.17382812,-0.15820312,0.9716797,-0.03125,-0.03125,-0.09375,-0.875,-51.5625,7.3125
1695991793429,-0.18359375,-0.15527344,0.9707031,0.15625,0.09375,-0.09375,0.0,0.0,0.0
1695991793459,-0.17382812,-0.16210938,0.9716797,-0.09375,0.28125,-0.03125,0.0,0.0,0.0
1695991793519,-0.17578125,-0.1484375,0.97753906,0.03125,0.09375,-0.15625,0.0,0.0,0.0
1695991793550,-0.17675781,-0.16015625,0.98535156,-0.09375,-0.03125,-0.03125,0.0,0.0,0.0
1695991793578,-0.17285156,-0.1484375,0.96484375,-0.03125,0.09375,-0.03125,0.0,0.0,0.0
1695991793638,-0.171875,-0.16308594,0.96777344,0.09375,0.03125,0.25,0.0,0.0,0.0
1695991793669,-0.19335938,-0.14746094,0.9638672,0.59375,-0.15625,0.3125,0.0,0.0,0.0
1695991793699,-0.17773438,-0.14453125,0.97265625,1.125,-2.0,0.1875,0.0,0.0,0.0
1695991793759,-0.17773438,-0.1484375,0.99121094,1.9375,-0.96875,1.34375,0.0,0.0,0.0
1695991793789,-0.18359375,-0.15527344,0.9736328,0.03125,0.15625,2.625,0.0,0.0,0.0
1695991793819,-0.16601562,-0.15332031,0.96972656,0.59375,-0.21875,2.625,0.0,0.0,0.0
1695991793879,-0.16308594,-0.15820312,0.9736328,-0.03125,0.8125,0.875,-0.625,-51.5625,7.3125
1695991793909,-0.17773438,-0.16113281,0.9667969,-1.6875,1.78125,-1.4375,0.0,0.0,0.0
1695991793939,-0.18066406,-0.16308594,0.96191406,-1.125,1.0,-2.71875,0.0,0.0,0.0
1695991793999,-0.17871094,-0.14160156,0.9716797,0.75,-0.03125,-2.78125,0.0,0.0,0.0
1695991794058,-0.17480469,-0.13085938,0.9716797,0.59375,-0.84375,-1.5,0.0,0.0,0.0
1695991794060,-0.17773438,-0.13378906,0.9794922,0.53125,-1.125,-0.15625,0.0,0.0,0.0
1695991794119,-0.17675781,-0.14160156,0.98339844,1.6875,-1.625,0.75,0.0,0.0,0.0
1695991794150,-0.16992188,-0.14453125,0.9667969,0.40625,-0.28125,1.125,0.0,0.0,0.0
1695991794209,-0.16699219,-0.15917969,0.97265625,0.53125,0.28125,1.1875,0.0,0.0,0.0
1695991794240,-0.17773438,-0.16113281,0.9736328,1.8125,0.09375,0.375,0.0,0.0,0.0
1695991794270,-0.18261719,-0.15039062,0.96777344,0.59375,0.4375,-0.71875,0.0,0.0,0.0
1695991794299,-0.17089844,-0.15722656,0.96875,0.53125,0.8125,-0.78125,0.0,0.0,0.0
1695991794361,-0.17285156,-0.14941406,0.98339844,0.53125,1.25,-0.90625,0.0,0.0,0.0
1695991794391,-0.19433594,-0.14160156,0.9736328,0.28125,1.25,-1.21875,0.75,-50.25,7.9375
1695991794421,-0.17382812,-0.12597656,0.96777344,0.65625,0.5625,-1.15625,0.0,0.0,0.0
1695991794480,-0.17578125,-0.12792969,0.9658203,0.875,0.3125,-0.09375,0.0,0.0,0.0
1695991794510,-0.171875,-0.13574219,0.9667969,0.59375,-0.28125,0.4375,0.0,0.0,0.0
1695991794541,-0.18554688,-0.13964844,0.98828125,0.875,0.28125,0.5625,0.0,0.0,0.0
1695991794601,-0.18359375,-0.14746094,0.9707031,-0.40625,0.875,-0.09375,0.0,0.0,0.0
1695991794630,-0.1796875,-0.14355469,0.97558594,0.40625,-0.03125,-0.46875,0.0,0.0,0.0
1695991794661,-0.16894531,-0.14648438,0.9765625,-0.34375,0.15625,-0.53125,0.0,0.0,0.0
1695991794719,-0.17285156,-0.14648438,0.96484375,-0.40625,0.15625,-0.28125,0.0,0.0,0.0
1695991794751,-0.1875,-0.13574219,0.96972656,0.03125,0.21875,-0.34375,0.0,0.0,0.0
1695991794781,-0.18359375,-0.14746094,0.96972656,0.09375,0.3125,-0.15625,0.0,0.0,0.0
1695991794841,-0.18945312,-0.14160156,0.9785156,-0.46875,0.375,0.1875,0.0,0.0,0.0
1695991794871,-0.1875,-0.140625,0.97265625,-0.21875,0.375,-0.03125,-0.875,-51.875,9.125
1695991794899,-0.18457031,-0.13378906,0.9658203,-0.53125,0.21875,-0.46875,0.0,0.0,0.0
1695991794960,-0.18652344,-0.13769531,0.9716797,-0.8125,0.03125,-0.21875,0.0,0.0,0.0
1695991794989,-0.18554688,-0.14453125,0.9746094,-0.15625,-0.65625,0.4375,0.0,0.0,0.0
