,timestamp,accel_x,accel_y,accel_z,gyro_x,gyro_y,gyro_z
0,1697605965,0.13964844,-0.9961548,-0.014709473,-7.09375,2.21875,-1.0625
1,1697606005,0.10620117,-0.93341064,0.070495605,-0.5,-0.421875,0.421875
2,1697606045,0.103759766,-1.0298462,0.10272217,1.953125,2.71875,-1.453125
3,1697606085,0.1003418,-0.99005127,0.1618042,7.125,0.671875,-2.453125
4,1697606125,0.10180664,-0.9780884,-0.078430176,5.71875,-0.453125,0.640625
5,1697606165,0.16967773,-0.9800415,-0.018859863,-6.0625,-0.953125,-0.109375
6,1697606205,0.13623047,-0.9439087,0.04119873,-2.65625,-3.328125,1.21875
7,1697606245,0.09643555,-1.0090942,0.12567139,4.953125,-1.46875,0.984375
8,1697606285,0.125,-0.9951782,0.16619873,0.859375,4.59375,-0.59375
9,1697606325,0.07104492,-1.0132446,0.12567139,-5.140625,18.75,-2.46875
10,1697606365,0.09423828,-0.99957275,-0.03302002,-18.453125,7.890625,-4.5625
11,1697606405,0.08886719,-0.97247314,-0.0076293945,-27.125,-11.015625,-6.234375
12,1697606445,0.08105469,-0.87628174,-0.058410645,-3.15625,-5.0625,-4.453125
13,1697606485,0.091796875,-0.9446411,0.0053100586,3.28125,-9.234375,-1.046875
14,1697606525,0.044921875,-0.97125244,0.05633545,15.109375,-1.6875,4.59375
15,1697606565,0.09838867,-1.0303345,-0.01739502,21.609375,3.921875,14.078125
16,1697606605,0.21508789,-0.9517212,0.1329956,-15.671875,-12.0625,-1.421875
17,1697606645,-0.0087890625,-0.95196533,0.22796631,3.734375,-7.96875,4.203125
18,1697606685,0.13330078,-1.0859985,0.17694092,2.625,3.4375,-2.25
19,1697606725,0.07128906,-0.9517212,0.024353027,5.90625,1.375,1.90625
20,1697606765,0.123291016,-1.0134888,-0.12432861,-3.828125,3.53125,0.265625
21,1697606805,0.16772461,-0.89556885,0.109558105,-0.484375,-0.203125,0.3125
22,1697606845,0.10620117,-1.0818481,0.13812256,0.0,5.234375,-0.515625
23,1697606885,0.115234375,-0.9673462,0.10321045,-0.03125,3.390625,-0.046875
24,1697606925,0.08984375,-0.99468994,0.046569824,-3.765625,3.859375,-0.78125
25,1697606965,0.14501953,-0.9265747,0.042663574,-7.796875,-1.5,-0.671875
26,1697607005,0.095703125,-1.0171509,0.105895996,-3.8125,0.609375,0.515625
27,1697607045,0.12231445,-0.9990845,0.124694824,-2.109375,3.484375,0.65625
28,1697607085,0.1015625,-0.94976807,0.09857178,0.671875,0.828125,-0.203125
29,1697607125,0.099121094,-0.97613525,0.12591553,7.375,-2.484375,-0.859375
30,1697607165,0.11645508,-0.9661255,0.082214355,9.265625,-2.484375,0.125
31,1697607205,0.08203125,-0.99005127,0.09954834,12.078125,1.03125,0.671875
32,1697607245,0.09692383,-0.97320557,0.058776855,13.75,3.140625,3.578125
33,1697607285,0.14746094,-1.0552368,-0.082092285,3.109375,5.59375,4.671875
34,1697607325,0.18432617,-0.97125244,0.027526855,-3.46875,-1.484375,-0.546875
35,1697607365,0.08935547,-1.0261841,0.168396,5.421875,1.984375,2.09375
36,1697607405,0.047851562,-0.9949341,0.3060913,16.171875,20.3125,0.515625
37,1697607445,-0.010009766,-1.0149536,-0.054016113,4.953125,25.609375,-2.1875
38,1697607485,0.14257812,-0.92974854,-0.15362549,0.15625,13.359375,-6.28125
39,1697607525,0.28198242,-0.9692993,-0.2234497,0.65625,-9.671875,-6.015625
40,1697607565,0.07714844,-0.9146118,-0.13604736,-14.140625,-13.421875,-5.234375
41,1697607605,0.12817383,-1.0127563,-0.022766113,-9.796875,-11.375,1.421875
42,1697607645,0.14160156,-1.0811157,-0.034484863,-19.921875,-18.28125,3.5625
43,1697607685,0.10180664,-0.80914307,0.20819092,-11.625,-17.671875,-0.734375
44,1697607725,0.025634766,-1.067688,0.19403076,-2.234375,-1.6875,-1.859375
45,1697607765,0.1237793,-0.9649048,0.17718506,-1.515625,3.484375,-0.609375
46,1697607805,0.048583984,-0.9793091,0.055603027,11.359375,5.125,-1.265625
47,1697607845,0.099365234,-0.98101807,0.078552246,7.09375,1.25,1.46875
48,1697607885,0.1484375,-1.0010376,-0.057678223,-5.921875,-8.40625,2.84375
49,1697607925,0.15820312,-0.9221802,0.14154053,-0.921875,-3.140625,-0.109375
50,1697607965,0.061279297,-1.0928345,0.184021,5.171875,3.828125,1.078125
51,1697608005,0.11425781,-0.923645,0.11151123,2.59375,3.5,-0.21875
52,1697608045,0.1027832,-1.0025024,-0.050598145,-0.8125,0.015625,0.84375
53,1697608085,0.14672852,-0.894104,0.11468506,-7.28125,-5.234375,0.8125
54,1697608125,0.12890625,-1.0669556,0.13885498,3.125,3.3125,0.796875
55,1697608165,0.10839844,-0.9619751,0.12884521,3.375,5.28125,0.625
56,1697608205,0.100097656,-0.93951416,-0.0056762695,6.515625,1.25,0.234375
57,1697608245,0.16040039,-1.0166626,-0.016418457,1.5625,-2.890625,1.828125
58,1697608285,0.12036133,-0.9065552,0.10028076,-2.8125,-3.6875,0.3125
59,1697608325,0.13305664,-1.0791626,0.12762451,5.5625,2.234375,0.984375
60,1697608365,0.0847168,-0.93756104,0.121276855,2.46875,0.59375,-0.296875
61,1697608405,0.071777344,-0.96661377,-0.006652832,12.328125,-1.65625,-0.03125
62,1697608445,0.16625977,-1.0527954,-0.09185791,0.390625,-0.828125,1.046875
63,1697608485,0.12988281,-0.84820557,0.13739014,-2.734375,-5.65625,1.46875
64,1697608525,0.1105957,-1.0879517,0.13323975,6.375,2.046875,1.875
65,1697608565,0.1159668,-0.9439087,0.13519287,4.375,2.734375,0.09375
66,1697608605,0.11450195,-0.9734497,-0.12799072,8.640625,1.8125,-0.71875
67,1697608645,0.15576172,-1.048645,-0.1116333,-0.71875,1.40625,1.109375
68,1697608685,0.15454102,-0.861145,0.08880615,-8.3125,-1.84375,1.75
69,1697608725,0.15551758,-1.0645142,0.13568115,4.125,2.96875,1.765625
70,1697608765,0.0949707,-0.95928955,0.085876465,0.796875,2.703125,1.140625
71,1697608805,0.1418457,-0.9776001,-0.13238525,3.078125,1.125,0.140625
72,1697608845,0.17016602,-0.9483032,-0.016174316,-7.4375,-6.375,-0.046875
73,1697608885,0.16333008,-0.97906494,0.1317749,2.03125,-1.765625,2.125
74,1697608925,0.10644531,-1.0205688,0.049987793,0.921875,1.328125,1.234375
75,1697608965,0.14208984,-0.9351196,-0.08331299,3.21875,-0.328125,-0.28125
76,1697609005,0.14257812,-0.9944458,-0.015930176,-1.828125,-6.640625,-0.234375
77,1697609045,0.15454102,-0.9468384,0.10076904,1.28125,-1.3125,1.453125
78,1697609085,0.13964844,-1.0418091,0.12615967,2.90625,0.625,0.578125
79,1697609125,0.09643555,-0.9338989,0.09661865,2.046875,1.375,-1.0625
80,1697609165,0.15942383,-1.0144653,-0.0803833,1.953125,-1.171875,-0.453125
81,1697609205,0.16137695,-0.9204712,0.043151855,-1.640625,-3.265625,0.4375
82,1697609245,0.15014648,-1.039856,0.12689209,1.34375,0.5625,1.75
83,1697609285,0.10913086,-0.954895,0.117614746,0.65625,1.21875,-0.5625
84,1697609325,0.13720703,-0.9920044,-0.13800049,6.96875,0.015625,-0.453125
85,1697609365,0.19042969,-1.0195923,-0.07989502,-2.78125,-3.453125,-0.46875
86,1697609405,0.1616211,-0.8792114,0.09320068,-0.234375,-3.71875,1.921875
87,1697609445,0.16186523,-1.0684204,0.12225342,0.9375,-0.078125,1.625
88,1697609485,0.115722656,-0.92926025,0.12786865,-2.0,-0.90625,-1.5
89,1697609525,0.12548828,-0.99835205,-0.0413208,10.5625,0.828125,-1.859375
90,1697609565,0.1340332,-1.0523071,-0.043273926,4.734375,-3.546875,-1.421875
91,1697609605,0.17626953,-0.8777466,-0.028381348,-6.109375,-1.859375,-0.609375
92,1697609645,0.16796875,-0.99298096,0.07562256,4.0625,-0.390625,0.09375
93,1697609685,0.13330078,-1.0005493,0.090026855,1.1875,-2.59375,-2.671875
94,1697609725,0.10864258,-0.9536743,0.09710693,7.15625,-5.6875,-3.609375
95,1697609765,0.10864258,-0.9924927,0.054870605,11.5625,-2.125,-6.359375
96,1697609805,0.09741211,-1.0540161,0.08123779,4.84375,4.703125,-4.671875
97,1697609845,0.11010742,-1.0488892,0.0067749023,-17.109375,5.328125,-4.6875
98,1697609885,0.1430664,-0.96588135,-0.090148926,-32.671875,-1.03125,-3.046875
99,1697609925,0.1381836,-0.9602661,-0.042785645,-19.65625,-4.28125,-4.71875
100,1697609965,0.100097656,-0.958313,0.06414795,-7.796875,-1.9375,-4.625
101,1697610005,0.114990234,-0.9116821,0.03338623,3.8125,-1.515625,-0.609375
102,1697610045,0.100097656,-0.95977783,-0.030334473,11.078125,-1.296875,-0.6875
103,1697610085,0.10986328,-0.99591064,0.06121826,11.546875,-3.765625,1.796875
104,1697610125,0.080322266,-1.0115356,0.12762451,16.265625,1.96875,4.53125
105,1697610165,0.11010742,-0.9968872,-0.055480957,13.046875,8.484375,4.96875
106,1697610205,0.18823242,-0.9627075,0.08343506,1.921875,7.15625,3.6875
107,1697610245,0.07006836,-0.9365845,0.05291748,0.640625,1.5625,2.640625
108,1697610285,0.13085938,-1.050354,0.12005615,2.390625,2.921875,-0.453125
109,1697610325,0.09716797,-0.9143677,0.046569824,4.625,0.359375,-0.046875
110,1697610365,0.107421875,-1.0264282,-0.1741333,4.328125,2.59375,3.046875
111,1697610405,0.18823242,-0.94244385,0.009216309,0.75,-1.78125,0.546875
112,1697610445,0.07104492,-1.0037231,0.07318115,5.28125,-0.75,1.625
113,1697610485,0.1184082,-0.96710205,0.07318115,3.421875,1.359375,-0.015625
114,1697610525,0.13745117,-0.9834595,-0.029846191,3.921875,-0.8125,1.015625
115,1697610565,0.12084961,-1.0020142,-0.033996582,0.65625,-0.375,-0.875
116,1697610605,0.15136719,-0.99346924,-0.019104004,-1.25,2.28125,-0.90625
117,1697610645,0.15454102,-0.9800415,0.0026245117,-0.953125,1.65625,-0.8125
118,1697610685,0.12890625,-0.98565674,0.047302246,2.59375,3.03125,-0.640625
119,1697610725,0.1394043,-0.9924927,0.03753662,1.46875,5.890625,-1.03125
120,1697610765,0.122558594,-1.0064087,-0.19390869,5.96875,4.25,-0.03125
121,1697610805,0.16870117,-0.95269775,-0.08453369,-2.109375,1.125,2.3125
122,1697610845,0.15966797,-0.9920044,0.016296387,-3.921875,-0.625,1.171875
123,1697610885,0.09790039,-0.9258423,0.066345215,-0.796875,-0.046875,0.8125
124,1697610925,0.12182617,-1.0298462,0.18548584,8.703125,5.71875,-0.640625
125,1697610965,0.17260742,-1.048645,0.105407715,-0.359375,17.03125,-5.359375
126,1697611005,0.053222656,-0.9763794,-0.2029419,-11.765625,9.53125,-6.15625
127,1697611045,0.12768555,-0.90509033,-0.07598877,-5.09375,2.453125,-6.3125
128,1697611085,0.080078125,-0.97052,-0.018615723,-4.28125,0.625,-4.84375
129,1697611125,0.10473633,-0.9319458,-0.11505127,-9.71875,-8.59375,-0.59375
130,1697611165,0.10839844,-0.99102783,0.010437012,1.5,-19.375,-0.84375
131,1697611205,0.059570312,-0.99884033,0.117614746,12.09375,-17.625,2.765625
132,1697611245,0.11230469,-1.0320435,0.09051514,6.1875,-5.46875,2.734375
133,1697611285,0.08520508,-0.9751587,-0.002746582,3.1875,-1.90625,-1.1875
134,1697611325,0.10449219,-0.99591064,-0.022766113,4.671875,-0.640625,-1.546875
135,1697611365,0.103027344,-1.0300903,-0.22906494,-2.359375,7.890625,2.8125
136,1697611405,0.23632812,-0.93170166,-0.01373291,-17.796875,-11.859375,-0.203125
137,1697611445,0.07128906,-0.9512329,0.13641357,-13.609375,-3.46875,2.484375
138,1697611485,0.11401367,-1.0298462,0.098083496,-9.578125,3.171875,0.890625
139,1697611525,0.12109375,-0.95391846,0.13201904,-2.234375,3.65625,-0.90625
140,1697611565,0.06298828,-0.97613525,0.12884521,5.75,5.921875,-0.90625
141,1697611605,0.107177734,-0.9734497,0.019470215,13.296875,7.75,0.4375
142,1697611645,0.1628418,-1.0029907,-0.018859863,7.375,2.328125,2.859375
143,1697611685,0.19335938,-1.0054321,-0.08087158,-7.921875,-5.25,1.265625
144,1697611725,0.12451172,-0.9216919,0.11151123,-0.8125,-6.578125,0.109375
145,1697611765,0.09277344,-1.0845337,0.1317749,1.703125,-0.28125,-0.125
146,1697611805,0.07763672,-0.9102173,0.12054443,7.078125,2.5625,-0.140625
147,1697611845,0.09057617,-1.0327759,-0.10675049,4.390625,0.890625,3.21875
148,1697611885,0.19873047,-0.9402466,-0.003479004,-15.75,-5.328125,-1.875
149,1697611925,0.11791992,-0.9817505,0.07342529,-0.4375,-3.109375,2.1875
150,1697611965,0.08300781,-1.0308228,0.168396,2.015625,4.1875,0.765625
151,1697612005,0.08886719,-0.9385376,0.0680542,13.234375,5.578125,0.328125
152,1697612045,0.13696289,-1.0669556,-0.07598877,0.328125,3.28125,4.46875
153,1697612085,0.1352539,-0.9006958,-0.051086426,-10.265625,-3.953125,1.09375
154,1697612125,0.12597656,-1.0557251,0.112976074,-0.546875,2.0625,2.71875
155,1697612165,0.12011719,-0.9619751,0.08709717,0.484375,4.296875,1.75
156,1697612205,0.14770508,-0.9295044,0.03704834,6.40625,-3.25,-0.5625
157,1697612245,0.14819336,-1.0161743,0.05633545,3.84375,1.28125,-4.453125
158,1697612285,0.11669922,-0.9673462,0.014099121,2.578125,0.734375,-5.796875
159,1697612325,0.16186523,-0.99786377,-0.061340332,-2.40625,-0.15625,-3.140625
160,1697612365,0.17236328,-0.9854126,0.026062012,-3.796875,-5.4375,-4.6875
161,1697612405,0.10913086,-1.0200806,0.17767334,9.984375,6.125,-2.40625
162,1697612445,0.05834961,-1.0391235,0.101501465,-1.59375,29.109375,-6.578125
163,1697612485,0.15991211,-0.89630127,-0.0635376,-21.015625,1.828125,-5.59375
164,1697612525,0.084228516,-0.9834595,-0.05596924,-3.96875,-9.515625,-4.078125
165,1697612565,0.09350586,-0.92266846,-0.09625244,-0.46875,-7.171875,-2.484375
166,1697612605,0.08496094,-0.9434204,-0.04058838,-1.109375,-13.96875,1.1875
167,1697612645,0.11328125,-1.0044556,0.117614746,7.375,-10.09375,4.34375
168,1697612685,0.08325195,-0.9951782,0.13812256,8.859375,-8.421875,3.984375
169,1697612725,0.100097656,-0.9783325,0.081726074,7.3125,-6.140625,2.375
170,1697612765,0.10644531,-1.0261841,0.0289917,5.046875,-3.609375,1.265625
171,1697612805,0.12182617,-0.9915161,-0.10650635,-2.84375,-6.171875,4.09375
172,1697612845,0.21020508,-1.0203247,0.008728027,-22.8125,-5.5,-1.53125
173,1697612885,0.103759766,-0.8381958,0.09564209,-16.546875,-12.953125,2.90625
174,1697612925,0.067871094,-1.076477,0.21038818,-4.25,3.890625,2.328125
175,1697612965,0.17285156,-1.0056763,0.1828003,0.171875,8.015625,-0.234375
176,1697613005,0.015625,-0.9673462,0.12298584,11.953125,9.453125,-1.796875
177,1697613045,0.11694336,-0.99468994,0.04925537,13.78125,9.75,-0.1875
178,1697613085,0.17211914,-1.0300903,-0.074279785,-5.40625,7.765625,1.4375
179,1697613125,0.15551758,-0.8088989,0.027770996,-14.15625,-2.265625,-3.578125
180,1697613165,0.10473633,-1.0615845,0.16888428,2.25,0.140625,1.78125
181,1697613205,0.028564453,-0.9421997,0.168396,4.796875,5.234375,-2.328125
182,1697613245,0.08251953,-1.0359497,-0.005432129,8.453125,4.0,-2.875
183,1697613285,0.20141602,-0.99786377,-0.07745361,-16.453125,-0.5625,-2.6875
184,1697613325,0.15771484,-0.86602783,0.18377686,-0.03125,-1.46875,-0.796875
185,1697613365,0.040039062,-1.0630493,0.17156982,5.078125,2.953125,-0.53125
186,1697613405,0.095947266,-0.9517212,0.11151123,9.625,5.296875,-2.265625
187,1697613445,0.12133789,-1.0059204,0.034118652,1.765625,5.078125,-0.03125
188,1697613485,0.15991211,-0.9573364,0.08831787,-1.09375,1.296875,-2.609375
189,1697613525,0.11254883,-1.0310669,0.12030029,2.9375,2.125,-1.75
190,1697613565,0.1262207,-0.9902954,0.07635498,-1.265625,2.640625,-3.625
191,1697613605,0.10864258,-0.9561157,0.0119018555,-1.28125,-7.0,-2.53125
192,1697613645,0.1027832,-0.9819946,0.06097412,-1.96875,-8.3125,0.3125
193,1697613685,0.08325195,-0.9866333,0.0914917,-0.375,-8.765625,0.359375
194,1697613725,0.06518555,-0.98687744,0.07977295,-0.5,-6.1875,-0.375
195,1697613765,0.0949707,-0.9944458,-0.0015258789,-5.953125,-5.71875,0.453125
196,1697613805,0.09863281,-0.9187622,0.058288574,-5.40625,-8.984375,-1.125
197,1697613845,0.08666992,-1.0071411,0.116882324,0.203125,-7.90625,0.484375
198,1697613885,0.06665039,-0.9324341,0.08270264,2.25,-5.421875,0.328125
199,1697613925,0.055664062,-1.0142212,0.042175293,0.5,-4.828125,2.21875
200,1697613965,0.09643555,-0.94537354,0.109558105,-0.296875,-3.4375,1.359375
201,1697614005,0.07519531,-0.9939575,0.215271,8.78125,-2.984375,2.09375
202,1697614045,0.050048828,-0.9673462,0.13153076,7.78125,-3.09375,1.5625
203,1697614085,0.12670898,-0.9866333,0.027526855,9.796875,-5.5625,3.28125
204,1697614125,0.10058594,-0.9973755,0.0680542,6.359375,-5.25,2.421875
205,1697614165,0.08911133,-0.9697876,0.08782959,5.6875,-2.25,2.484375
206,1697614205,0.10131836,-1.015686,0.04144287,5.859375,-1.484375,3.609375
207,1697614245,0.10644531,-1.0049438,0.06048584,2.546875,-0.828125,1.515625
208,1697614285,0.10571289,-1.0098267,0.06488037,2.515625,0.71875,1.78125
209,1697614325,0.122802734,-0.9788208,0.0524292,-0.46875,2.46875,0.28125
210,1697614365,0.09838867,-0.9649048,-0.020324707,1.875,2.296875,0.9375
211,1697614405,0.12036133,-1.0183716,0.051940918,0.34375,5.921875,-0.359375
212,1697614445,0.08666992,-0.97125244,0.05340576,0.25,6.4375,-0.640625
213,1697614485,0.115722656,-1.0046997,0.047302246,0.53125,9.546875,-1.09375
214,1697614525,0.10620117,-0.9661255,-0.02178955,-4.234375,3.5625,-0.703125
215,1697614565,0.13916016,-1.0100708,0.03363037,-6.6875,9.5,0.0
216,1697614605,0.10961914,-0.9463501,0.0680542,-2.34375,9.515625,-0.171875
217,1697614645,0.16992188,-1.0418091,0.17572021,0.609375,18.65625,-1.265625
218,1697614685,0.09887695,-1.0501099,0.074401855,-16.8125,20.03125,-7.109375
219,1697614725,0.18017578,-0.87384033,-0.046691895,-23.765625,-2.4375,-9.03125
220,1697614765,0.16577148,-0.9451294,0.07537842,-10.84375,-12.09375,-4.4375
221,1697614805,0.024169922,-0.9595337,0.0914917,-10.65625,-10.90625,-5.28125
222,1697614845,0.09106445,-0.9771118,0.086364746,4.15625,-4.71875,-2.40625
223,1697614885,0.092041016,-0.9898071,0.0770874,9.96875,-1.4375,-1.5
224,1697614925,0.09008789,-0.95806885,0.13323975,7.8125,-3.25,1.3125
225,1697614965,0.075683594,-0.9819946,0.12884521,10.1875,2.0625,2.59375
226,1697615005,0.10229492,-0.9961548,-0.051330566,9.828125,15.0625,5.03125
227,1697615045,0.15307617,-0.92510986,0.19744873,5.1875,-0.734375,1.84375
228,1697615085,0.10595703,-1.0657349,0.15496826,3.40625,0.78125,2.09375
229,1697615125,0.13989258,-0.92974854,-0.0029907227,6.875,3.875,-0.515625
230,1697615165,0.1171875,-1.0339966,-6.1035156e-05,0.234375,-1.296875,-0.46875
231,1697615205,0.099609375,-0.9512329,0.073913574,0.59375,-1.796875,0.515625
232,1697615245,0.12036133,-0.973938,0.08465576,3.453125,-0.828125,0.421875
233,1697615285,0.0859375,-0.99224854,0.043395996,3.15625,-3.140625,-0.328125
234,1697615325,0.13574219,-0.9697876,0.1071167,1.515625,-3.203125,-3.59375
235,1697615365,0.09399414,-0.9668579,0.04168701,-0.0625,-4.0,-5.609375
236,1697615405,0.064697266,-0.9692993,0.017028809,1.34375,2.265625,-5.015625
237,1697615445,0.08251953,-1.0418091,0.047302246,2.140625,3.21875,-3.34375
238,1697615485,0.039794922,-1.0032349,0.05267334,-4.421875,-0.6875,-2.046875
239,1697615525,0.09375,-0.9734497,0.058044434,-1.796875,2.890625,1.09375
240,1697615565,0.08666992,-0.9783325,0.08270264,-2.84375,1.546875,-1.921875
241,1697615605,0.05078125,-0.9458618,0.051208496,2.890625,1.40625,0.328125
242,1697615645,0.09277344,-1.0012817,0.06488037,2.875,4.109375,1.9375
243,1697615685,0.087890625,-0.9837036,0.081726074,4.421875,2.359375,2.109375
244,1697615725,0.07714844,-0.9949341,0.085876465,5.078125,2.421875,0.171875
245,1697615765,0.107910156,-1.0274048,0.08782959,3.546875,13.75,-0.078125
246,1697615805,0.13208008,-1.0132446,-0.00592041,-9.9375,-1.421875,-5.796875
247,1697615845,0.0026855469,-0.94415283,0.0848999,-9.1875,-12.578125,-5.625
248,1697615885,0.10571289,-0.94659424,0.043151855,5.125,-0.8125,-2.953125
249,1697615925,0.06689453,-0.9536743,-0.007385254,4.234375,-4.078125,-0.796875
250,1697615965,0.07739258,-0.9846802,0.0045776367,-2.59375,-7.1875,1.203125
251,1697616005,0.050048828,-0.9451294,0.08660889,3.515625,-10.96875,3.21875
252,1697616045,0.037353516,-1.0484009,0.105895996,9.328125,-1.359375,4.0
253,1697616085,0.064453125,-0.9854126,0.053894043,3.21875,5.6875,3.765625
254,1697616125,0.09448242,-0.99005127,-0.012268066,3.390625,2.59375,0.65625
255,1697616165,0.08178711,-0.96099854,0.039489746,2.734375,0.71875,-1.09375
256,1697616205,0.08911133,-0.9927368,-0.0012817383,3.71875,3.71875,-0.03125
257,1697616245,0.076416016,-1.0083618,-0.010803223,3.703125,2.75,1.15625
258,1697616285,0.056152344,-0.9631958,-0.0635376,5.453125,5.21875,1.203125
259,1697616325,0.15356445,-1.0376587,-0.15460205,1.328125,2.375,8.9375
260,1697616365,0.115478516,-0.9446411,0.097839355,-9.484375,-17.0625,4.171875
261,1697616405,0.05834961,-0.960022,0.105895996,-8.875,-0.875,4.53125
262,1697616445,0.14355469,-1.0354614,0.09832764,-4.203125,0.328125,0.953125
263,1697616485,0.08081055,-0.96343994,0.0927124,-0.078125,4.640625,-1.265625
264,1697616525,0.100097656,-0.9793091,0.08270264,11.203125,3.6875,-1.453125
265,1697616565,0.08984375,-0.9841919,0.019470215,12.59375,4.46875,-2.140625
266,1697616605,0.12475586,-0.9898071,-0.013977051,7.203125,2.578125,0.140625
267,1697616645,0.15307617,-0.98565674,-0.01373291,0.875,1.03125,-0.171875
268,1697616685,0.14624023,-0.97125244,-0.17120361,-8.46875,-12.21875,3.703125
269,1697616725,0.18701172,-0.8779907,0.066345215,-22.5625,-20.609375,-2.078125
270,1697616765,-0.030273438,-1.0435181,0.13690186,-7.515625,-3.796875,5.25
271,1697616805,0.17529297,-1.019104,0.16229248,2.6875,5.890625,-2.03125
272,1697616845,0.0107421875,-0.942688,0.11468506,17.125,8.375,-2.9375
273,1697616885,0.12060547,-0.99664307,-0.015197754,14.296875,4.65625,-0.046875
274,1697616925,0.18603516,-0.93951416,-0.047668457,3.515625,0.40625,3.046875
275,1697616965,0.16186523,-0.89508057,-0.2041626,-4.5625,-7.828125,2.875
276,1697617005,0.19384766,-1.0339966,0.12249756,-11.328125,-11.421875,2.796875
277,1697617045,0.009521484,-1.1033325,0.09686279,-4.046875,-9.234375,2.125
278,1697617085,0.19042969,-0.89434814,0.168396,-1.0625,6.03125,-1.421875
279,1697617125,0.0053710938,-0.96661377,0.034118652,25.78125,5.828125,-0.578125
280,1697617165,0.16308594,-1.0684204,-0.006164551,3.296875,9.078125,-1.5625
281,1697617205,0.14428711,-0.8340454,-0.10308838,-5.0625,-5.015625,-0.90625
282,1697617245,0.22387695,-1.0254517,-0.13995361,-2.859375,-6.484375,1.84375
283,1697617285,0.076416016,-0.98150635,0.215271,-7.65625,-9.375,4.390625
284,1697617325,0.030761719,-1.0125122,0.1539917,-2.484375,1.28125,0.203125
285,1697617365,0.13549805,-0.97491455,0.109069824,2.1875,1.921875,0.65625
286,1697617405,0.115234375,-1.0144653,0.03363037,8.75,-0.703125,-1.984375
287,1697617445,0.22314453,-0.94244385,-0.019348145,-3.453125,2.1875,-1.734375
288,1697617485,0.12133789,-0.923645,-0.10455322,1.390625,-0.53125,3.015625
289,1697617525,0.15454102,-0.97320557,0.109069824,0.9375,-2.4375,2.390625
290,1697617565,0.13867188,-1.0435181,0.117370605,1.59375,1.40625,0.9375
291,1697617605,0.12231445,-0.99176025,0.06878662,1.1875,2.234375,-0.609375
292,1697617645,0.16967773,-0.99713135,0.01751709,-1.640625,3.125,-2.71875
293,1697617685,0.13574219,-0.92681885,0.027282715,-0.421875,-0.640625,-0.890625
294,1697617725,0.14916992,-0.9644165,-0.077697754,-3.71875,-4.5,-2.515625
295,1697617765,0.13671875,-0.9788208,0.109558105,-2.546875,-2.015625,-0.859375
296,1697617805,0.14746094,-0.9990845,0.066345215,-3.125,0.515625,-1.484375
297,1697617845,0.08178711,-1.0203247,0.051696777,1.578125,-3.03125,-2.515625
298,1697617885,0.14526367,-0.9500122,0.04949951,-3.484375,-3.5,-2.59375
299,1697617925,0.0029296875,-0.95806885,-0.12896729,-2.28125,-3.53125,-1.6875
300,1697617965,0.21582031,-0.9714966,0.101257324,-2.40625,-6.40625,-5.546875
301,1697618005,-0.026123047,-1.045227,0.089782715,-5.5,0.484375,-6.0
302,1697618045,0.18774414,-0.95880127,0.07757568,-8.515625,0.03125,-6.828125
303,1697618085,-0.012939453,-1.0015259,0.06903076,-3.59375,-1.3125,-6.265625
304,1697618125,0.11669922,-0.9495239,-0.008850098,-3.984375,0.859375,-3.8125
305,1697618165,0.100097656,-0.9439087,0.0119018555,-0.234375,2.78125,-1.78125
306,1697618205,0.052734375,-0.97979736,0.11468506,5.53125,3.734375,2.03125
307,1697618245,0.08129883,-1.0210571,0.09515381,4.34375,6.4375,1.703125
308,1697618285,0.107910156,-0.9536743,0.1552124,8.953125,3.46875,0.328125
309,1697618325,0.017333984,-0.9546509,0.062194824,10.484375,5.078125,5.765625
310,1697618365,0.2043457,-1.0371704,0.04534912,7.6875,2.640625,3.640625
311,1697618405,0.05517578,-1.0249634,0.012634277,5.6875,0.28125,3.84375
312,1697618445,0.13867188,-0.9651489,0.06976318,3.15625,1.375,1.5625
313,1697618485,0.040283203,-1.0093384,0.12884521,6.5,5.828125,1.3125
314,1697618525,0.060546875,-1.0374146,0.23919678,16.4375,25.875,-0.75
315,1697618565,0.052734375,-1.0222778,0.058288574,9.265625,35.53125,-3.0625
316,1697618605,0.0925293,-0.9661255,-0.07891846,-1.6875,27.03125,-9.890625
317,1697618645,0.13183594,-0.96343994,-0.13458252,-20.09375,10.109375,-10.3125
318,1697618685,0.12158203,-0.9072876,-0.1765747,-10.171875,-8.125,-6.5
319,1697618725,0.022705078,-0.9495239,-0.109191895,-8.0625,-8.734375,-1.390625
320,1697618765,0.025634766,-0.9771118,0.07757568,1.375,-10.109375,3.359375
321,1697618805,0.11767578,-1.0579224,0.10809326,3.734375,-3.265625,8.546875
322,1697618845,0.0043945312,-0.909729,0.06829834,-3.765625,-4.484375,3.171875
323,1697618885,0.15600586,-0.9312134,0.0006713867,-14.8125,-9.734375,0.234375
324,1697618925,-0.100097656,-1.0879517,0.25457764,11.90625,6.265625,5.734375
325,1697618965,0.2668457,-0.99786377,0.047546387,-12.703125,18.390625,-8.421875
326,1697619005,0.07104492,-0.9277954,0.049987793,-0.625,1.796875,-4.84375
327,1697619045,0.15722656,-0.958313,-0.14678955,4.578125,-0.640625,-3.234375
328,1697619085,0.087646484,-0.9690552,0.10687256,4.84375,-4.890625,-0.078125
329,1697619125,0.11303711,-0.9421997,-0.10211182,-8.6875,-11.34375,0.859375
330,1697619165,0.13305664,-1.0440063,0.1408081,-2.78125,-7.578125,1.34375
331,1697619205,0.07348633,-1.0122681,0.14129639,-6.015625,-1.921875,-1.4375
332,1697619245,0.021728516,-0.9299927,0.14276123,3.890625,0.953125,1.0625
333,1697619285,0.1328125,-1.008606,0.035827637,5.421875,-0.0625,2.34375
334,1697619325,0.055908203,-0.9602661,0.12225342,6.234375,-3.640625,3.984375
335,1697619365,0.12207031,-0.95318604,-0.011779785,-5.671875,-2.09375,2.625
336,1697619405,0.088134766,-1.0144653,0.16351318,2.71875,-5.234375,2.546875
337,1697619445,0.08300781,-1.0291138,0.06585693,-1.421875,1.21875,3.953125
338,1697619485,0.095703125,-1.0215454,0.06463623,-5.59375,-1.28125,0.578125
339,1697619525,0.06689453,-0.8909302,0.14593506,2.125,-0.640625,-2.609375
340,1697619565,0.059814453,-1.024231,0.09442139,14.421875,-0.875,-1.140625
341,1697619605,0.1081543,-1.0254517,0.046325684,9.953125,2.640625,-0.671875
342,1697619645,0.11816406,-0.95977783,0.027526855,5.859375,-6.53125,2.96875
343,1697619685,0.07373047,-0.986145,0.05731201,5.5625,-4.21875,1.140625
344,1697619725,0.099853516,-1.0122681,0.13861084,9.875,9.84375,0.15625
345,1697619765,-0.017089844,-1.0667114,0.13739014,9.953125,24.09375,-1.015625
346,1697619805,0.15942383,-0.9541626,-0.10406494,-10.59375,21.4375,-4.703125
347,1697619845,0.20263672,-0.93536377,-0.08306885,-26.078125,-8.265625,-9.375
348,1697619885,0.14111328,-0.90167236,-0.09136963,4.890625,-14.640625,-5.640625
349,1697619925,0.016845703,-0.925354,-0.0256958,4.53125,-2.421875,0.84375
350,1697619965,0.12841797,-0.9727173,0.026306152,2.84375,-1.828125,8.421875
351,1697620005,0.05883789,-1.024231,0.19915771,0.421875,-7.296875,7.546875
352,1697620045,0.059814453,-0.9421997,0.12664795,4.953125,-6.171875,3.53125
353,1697620085,0.12915039,-1.0994263,0.03778076,-0.28125,-4.15625,0.1875
354,1697620125,0.1159668,-0.97540283,-0.06768799,-4.484375,-20.875,1.796875
355,1697620165,0.16137695,-0.86968994,0.062683105,-8.09375,-12.84375,1.6875
356,1697620205,0.072509766,-1.0664673,0.20379639,4.796875,-10.1875,5.421875
357,1697620245,0.040771484,-0.9849243,0.17181396,-0.234375,-1.65625,-0.015625
358,1697620285,0.11425781,-1.0244751,0.05682373,9.75,3.703125,0.71875
359,1697620325,0.09765625,-0.9734497,0.02166748,3.875,0.21875,-3.015625
360,1697620365,0.15478516,-0.8867798,0.062683105,2.546875,-3.9375,-0.046875
361,1697620405,0.15014648,-1.0588989,-0.081604004,-5.875,0.390625,0.640625
362,1697620445,0.079589844,-0.9585571,0.16107178,-3.765625,-12.1875,1.671875
363,1697620485,0.10131836,-1.02594,0.15325928,-5.21875,1.859375,0.8125
364,1697620525,0.099609375,-0.9373169,0.093933105,1.4375,-0.703125,1.3125
365,1697620565,0.15551758,-1.038147,0.050476074,7.484375,2.984375,0.640625
366,1697620605,0.08081055,-0.96343994,0.078552246,5.03125,-2.140625,0.140625
367,1697620645,0.12524414,-0.96832275,0.016784668,-0.53125,0.09375,0.984375
368,1697620685,0.12719727,-1.0098267,0.050720215,5.140625,2.359375,2.828125
369,1697620725,0.13500977,-0.9924927,0.0368042,-6.96875,-1.25,4.46875
370,1697620765,-0.009277344,-0.98443604,0.16009521,4.234375,4.46875,6.953125
371,1697620805,0.17016602,-0.989563,0.055358887,-5.15625,14.8125,4.1875
372,1697620845,0.13720703,-0.940979,0.031433105,-0.15625,8.328125,2.796875
373,1697620885,0.16259766,-0.9273071,0.10369873,-0.328125,6.40625,1.96875
374,1697620925,0.10864258,-1.0681763,0.04071045,-1.8125,8.484375,-0.75
375,1697620965,0.18847656,-0.9434204,0.06951904,-4.390625,5.6875,-1.6875
376,1697621005,0.08935547,-1.0149536,0.042175293,-0.515625,5.453125,1.0
377,1697621045,0.16723633,-0.98809814,0.07366943,-4.53125,8.453125,2.578125
378,1697621085,0.18969727,-0.95928955,0.07269287,-0.046875,4.390625,-0.375
379,1697621125,0.14794922,-0.9602661,0.097839355,-0.390625,4.171875,-2.265625
380,1697621165,0.13867188,-0.986145,0.1161499,2.484375,10.03125,-5.8125
381,1697621205,0.16137695,-0.97784424,0.16278076,6.90625,11.0,-9.15625
382,1697621245,0.16308594,-0.99420166,0.13519287,9.65625,5.6875,-7.953125
383,1697621285,0.12524414,-0.95758057,-0.02130127,0.546875,-0.09375,-0.421875
384,1697621325,0.2446289,-0.95928955,-0.078430176,1.953125,-15.953125,0.3125
385,1697621365,0.15209961,-0.9829712,0.008972168,5.75,-19.765625,-3.640625
386,1697621405,0.08081055,-0.98565674,-0.003479004,15.1875,-12.390625,-0.265625
387,1697621445,0.11816406,-0.9277954,-0.144104,6.6875,-10.640625,3.203125
388,1697621485,0.10864258,-0.96954346,-0.046447754,-0.640625,-7.21875,4.890625
389,1697621525,0.15771484,-1.0054321,0.16815186,-1.953125,-13.765625,1.09375
390,1697621565,0.05493164,-0.99346924,0.12835693,3.6875,-4.921875,1.421875
391,1697621605,0.12768555,-1.0281372,0.0446167,3.9375,0.984375,-1.03125
392,1697621645,0.1274414,-0.99786377,0.010925293,1.75,0.671875,-0.9375
393,1697621685,0.13867188,-0.9807739,-0.014221191,0.140625,3.8125,-0.265625
394,1697621725,0.18676758,-1.0481567,-0.19390869,-10.125,-5.546875,0.953125
395,1697621765,0.2084961,-0.7678833,0.22747803,-8.140625,-3.328125,0.375
396,1697621805,0.06933594,-1.1685181,0.14276123,-0.875,4.28125,-0.671875
397,1697621845,0.095947266,-0.9019165,0.13226318,-5.1875,1.46875,0.703125
398,1697621885,0.14038086,-0.9883423,0.04046631,-0.90625,10.265625,-2.515625
399,1697621925,0.19799805,-0.9812622,0.07244873,5.109375,3.078125,-2.890625
400,1697621965,0.091552734,-1.0120239,0.0004272461,7.03125,0.921875,-3.578125
401,1697622005,0.16699219,-0.95513916,0.0038452148,1.25,-2.9375,-1.5
402,1697622045,0.1340332,-0.8670044,0.02947998,-9.125,-5.171875,-1.40625
403,1697622085,0.17529297,-1.1001587,0.2345581,1.578125,-9.8125,1.3125
404,1697622125,0.045166016,-0.9763794,0.08416748,-6.59375,1.78125,-1.40625
405,1697622165,0.10058594,-0.9048462,0.09124756,9.6875,5.890625,0.0
406,1697622205,0.07836914,-1.0657349,0.015808105,10.34375,-0.671875,-1.859375
407,1697622245,0.1743164,-0.92315674,-0.042053223,-2.0,-0.71875,-1.5
408,1697622285,0.17211914,-0.89312744,-0.01763916,-6.34375,-3.84375,-0.40625
409,1697622325,0.11816406,-1.0960083,0.20257568,0.765625,-5.140625,1.953125
410,1697622365,0.044921875,-0.9480591,0.10345459,1.34375,1.484375,-0.59375
411,1697622405,0.23999023,-1.0349731,0.008483887,11.15625,-0.734375,0.265625
412,1697622445,0.11254883,-0.9302368,0.0014038086,3.75,-4.0625,0.34375
413,1697622485,0.14135742,-0.9368286,-0.17193604,2.1875,-16.15625,2.203125
414,1697622525,0.18823242,-1.0012817,0.032165527,-3.296875,-11.78125,0.03125
415,1697622565,0.09375,-1.006897,0.14129639,-0.59375,-9.84375,1.15625
416,1697622605,0.15991211,-1.0127563,0.06341553,5.265625,-7.96875,0.84375
417,1697622645,0.11645508,-0.9710083,0.059509277,5.625,-11.765625,-0.109375
418,1697622685,0.10864258,-0.99053955,0.0211792,3.640625,-10.53125,-2.125
419,1697622725,0.11791992,-0.95196533,-0.061340332,-4.171875,-18.0625,-1.203125
420,1697622765,0.084228516,-0.99420166,0.12640381,-0.796875,-10.828125,1.328125
421,1697622805,0.11254883,-0.99786377,0.07733154,-2.765625,-4.96875,-1.75
422,1697622845,0.06201172,-1.0117798,0.18426514,-1.65625,-2.75,-4.28125
423,1697622885,0.099121094,-0.9385376,-0.12164307,8.953125,2.71875,-4.921875
424,1697622925,0.07421875,-1.036438,0.025817871,7.5625,-5.53125,0.640625
425,1697622965,0.12573242,-0.9522095,-0.089416504,-11.3125,-5.46875,-0.046875
426,1697623005,0.13549805,-0.9751587,0.13543701,-2.484375,-3.21875,0.40625
427,1697623045,0.052246094,-1.0073853,0.08831787,-0.65625,7.328125,-1.453125
428,1697623085,0.1015625,-0.9976196,0.12567139,2.609375,7.953125,-2.984375
429,1697623125,0.07861328,-0.9902954,0.009216309,-3.921875,4.71875,-1.65625
430,1697623165,0.11279297,-0.9024048,-0.047912598,-9.96875,2.046875,-0.984375
431,1697623205,0.114990234,-1.0012817,0.09222412,-1.53125,3.203125,-0.71875
432,1697623245,0.09643555,-1.0288696,0.10882568,-2.96875,9.8125,-2.40625
433,1697623285,0.06982422,-0.99835205,0.1293335,-2.859375,12.65625,-3.390625
434,1697623325,0.10498047,-0.94537354,0.027282715,-1.640625,5.421875,0.46875
435,1697623365,0.106933594,-0.99298096,0.035583496,-7.9375,-1.1875,1.078125
436,1697623405,0.095214844,-0.97491455,0.12322998,-6.875,2.375,0.0625
437,1697623445,0.0703125,-0.9944458,0.1383667,-1.59375,10.65625,-3.28125
438,1697623485,0.049804688,-0.9837036,0.12225342,-2.859375,13.53125,-4.328125
439,1697623525,0.08081055,-0.9751587,0.058776855,-0.765625,10.984375,-2.890625
440,1697623565,0.1171875,-0.98760986,0.04486084,-8.953125,4.90625,-0.34375
441,1697623605,0.091552734,-0.9417114,0.19232178,-4.453125,5.578125,-1.125
442,1697623645,0.052734375,-0.99176025,0.15106201,0.109375,15.09375,-1.1875
443,1697623685,0.09790039,-1.0010376,0.15350342,1.28125,13.890625,-3.40625
444,1697623725,0.10522461,-0.9661255,0.029724121,1.734375,11.3125,-0.109375
445,1697623765,0.17553711,-0.9624634,0.020690918,-9.375,1.40625,-1.046875
446,1697623805,0.13671875,-0.9536743,0.19256592,-2.125,-2.53125,-0.703125
447,1697623845,0.05029297,-0.9817505,0.18817139,2.484375,3.734375,-1.828125
448,1697623885,0.099365234,-0.99884033,0.1593628,2.984375,3.5625,-4.0
449,1697623925,0.08642578,-0.9624634,0.06390381,5.28125,3.015625,-3.03125
450,1697623965,0.17529297,-0.9697876,0.007019043,-5.15625,-6.96875,0.3125
451,1697624005,0.10961914,-0.9854126,0.17523193,-0.921875,-9.78125,0.125
452,1697624045,0.044677734,-0.9717407,0.21331787,0.96875,-3.953125,-1.03125
453,1697624085,0.060791016,-0.9800415,0.22259521,3.9375,2.21875,-2.828125
454,1697624125,0.04321289,-0.97052,0.07342529,7.203125,2.46875,-2.46875
455,1697624165,0.10864258,-0.98565674,0.038269043,2.609375,-2.78125,0.90625
456,1697624205,0.099365234,-0.9717407,0.11224365,-3.328125,-5.734375,0.40625
457,1697624245,0.036865234,-1.0042114,0.17059326,1.03125,-3.953125,0.40625
458,1697624285,0.035888672,-0.9920044,0.16790771,2.421875,1.765625,-1.765625
459,1697624325,0.09863281,-0.96881104,0.049987793,4.6875,0.21875,-0.46875
460,1697624365,0.052978516,-0.9998169,0.06854248,-1.953125,-5.5,-0.390625
461,1697624405,0.095947266,-0.9685669,0.1359253,-2.953125,-3.921875,0.125
462,1697624445,0.036132812,-0.9805298,0.17230225,2.84375,-0.9375,-0.515625
463,1697624485,0.08544922,-0.9741821,0.12713623,1.421875,2.296875,-1.4375
464,1697624525,0.059814453,-0.98809814,0.07098389,3.921875,-1.234375,0.25
465,1697624565,0.083984375,-0.96710205,0.08343506,-1.6875,-3.5625,-0.125
466,1697624605,0.059814453,-0.973938,0.1149292,-1.296875,-2.859375,0.25
467,1697624645,0.06542969,-0.98443604,0.13006592,-0.46875,-2.390625,-0.09375
468,1697624685,0.056884766,-0.97784424,0.12298584,0.859375,-1.671875,-0.34375
469,1697624725,0.056640625,-0.9932251,0.16448975,1.90625,1.15625,-0.578125
470,1697624765,0.036621094,-0.9956665,0.18841553,0.625,13.640625,-2.453125
471,1697624805,0.08544922,-1.0232544,0.10028076,-4.53125,12.609375,-3.90625
472,1697624845,0.072265625,-0.97198486,0.070251465,-13.03125,0.65625,-2.59375
473,1697624885,0.079833984,-0.9480591,0.11639404,-9.921875,-1.484375,-0.25
474,1697624925,0.056396484,-0.9578247,0.10272217,-1.375,-6.59375,0.359375
475,1697624965,0.057373047,-0.9741821,0.14178467,3.125,-6.71875,-0.34375
476,1697625005,0.032470703,-0.97735596,0.16351318,6.9375,-5.125,0.375
477,1697625045,0.022705078,-0.9456177,0.10247803,8.046875,-5.296875,0.90625
478,1697625085,0.017333984,-0.9492798,0.07366943,18.140625,-0.640625,1.921875
479,1697625125,0.0703125,-0.98272705,0.054382324,9.203125,-1.734375,4.609375
480,1697625165,0.076660156,-0.9829712,0.13275146,8.21875,-8.859375,5.234375
481,1697625205,0.07104492,-1.0188599,0.16986084,9.03125,-3.5,3.640625
482,1697625245,0.09790039,-1.00177,0.06756592,9.390625,2.859375,2.90625
483,1697625285,0.11206055,-1.005188,0.0289917,6.390625,-0.46875,2.421875
484,1697625325,0.068603516,-0.9595337,0.058288574,6.984375,0.1875,3.09375
485,1697625365,0.10131836,-0.9973755,0.038024902,4.890625,0.46875,3.078125
486,1697625405,0.09008789,-0.97662354,0.013122559,5.921875,1.0625,3.9375
487,1697625445,0.09667969,-0.9690552,0.02557373,5.5,3.140625,3.34375
488,1697625485,0.12817383,-0.9924927,0.020935059,4.578125,4.125,4.359375
489,1697625525,0.13452148,-0.9536743,-0.074523926,0.65625,11.234375,6.921875
490,1697625565,0.10424805,-0.9907837,0.07904053,-8.203125,-6.46875,-0.1875
491,1697625605,0.10229492,-0.9661255,0.07147217,-6.984375,7.328125,-2.3125
492,1697625645,0.21704102,-1.0691528,0.022155762,-11.375,-0.140625,2.46875
493,1697625685,-0.025390625,-0.86798096,0.038757324,-6.5625,-1.671875,-4.46875
494,1697625725,0.27954102,-1.1377563,0.005065918,3.4375,0.234375,1.25
495,1697625765,0.052490234,-0.923645,0.06976318,6.359375,-6.421875,-1.3125
496,1697625805,0.08935547,-0.9939575,0.061950684,2.84375,-2.984375,-0.6875
497,1697625845,0.099853516,-0.91900635,0.07196045,0.1875,-8.65625,1.296875
498,1697625885,0.056884766,-1.0584106,0.014099121,-11.625,4.859375,0.359375
499,1697625925,0.1784668,-0.9685669,0.12835693,-3.203125,1.3125,1.46875
500,1697625965,0.079589844,-1.0308228,0.11004639,-3.046875,2.0625,-4.0625
501,1697626005,0.1081543,-0.9417114,0.1359253,3.265625,-0.171875,-3.234375
502,1697626045,0.076416016,-0.97247314,0.057556152,10.328125,0.828125,-2.15625
503,1697626085,0.111328125,-1.0056763,0.019958496,9.234375,3.296875,-0.96875
504,1697626125,0.09008789,-0.97491455,0.05657959,4.78125,5.546875,-2.265625
505,1697626165,0.09838867,-0.99102783,0.08856201,4.828125,10.71875,-0.5
506,1697626205,0.10083008,-1.0144653,0.08148193,4.0,12.84375,-0.015625
507,1697626245,0.09277344,-1.0315552,0.02557373,-8.34375,6.453125,-2.203125
508,1697626285,0.14575195,-0.960022,-0.028625488,-7.0,5.421875,-0.734375
509,1697626325,0.095703125,-0.96417236,0.026062012,-6.625,2.203125,-3.421875
510,1697626365,0.123535156,-0.99835205,0.0033569336,0.09375,2.109375,-1.578125
511,1697626405,0.10229492,-0.956604,0.018249512,3.984375,-4.234375,-1.5
512,1697626445,0.064208984,-0.9421997,0.026550293,9.140625,-4.140625,0.15625
513,1697626485,0.09863281,-0.93829346,-0.03375244,3.0625,-4.640625,3.75
514,1697626525,0.125,-0.97320557,0.0006713867,2.796875,-7.625,5.96875
515,1697626565,0.1003418,-1.0254517,0.10882568,4.078125,-11.15625,3.84375
516,1697626605,0.103271484,-1.0042114,0.061706543,5.546875,-3.9375,3.09375
517,1697626645,0.0949707,-1.0012817,0.038269043,8.171875,1.15625,1.796875
518,1697626685,0.10839844,-0.97906494,0.013122559,6.609375,1.078125,1.4375
519,1697626725,0.123046875,-0.9768677,-0.030578613,5.171875,2.4375,2.3125
520,1697626765,0.17211914,-0.96759033,-0.07550049,-2.890625,1.703125,3.09375
521,1697626805,0.16772461,-1.036438,-0.09674072,-14.453125,-10.9375,0.109375
522,1697626845,0.076416016,-0.831604,0.17230225,-10.3125,-7.78125,2.265625
523,1697626885,0.111572266,-1.1604614,0.04949951,-6.28125,2.078125,-2.46875
524,1697626925,0.16430664,-0.90289307,0.12200928,-5.984375,0.328125,-1.421875
525,1697626965,0.072753906,-1.0247192,0.08465576,4.796875,4.625,-2.484375
526,1697627005,0.16894531,-0.9692993,-0.015930176,5.40625,1.6875,-1.546875
527,1697627045,0.11767578,-0.97979736,0.070495605,2.515625,1.140625,0.25
528,1697627085,0.13623047,-0.9651489,-0.0068969727,-2.46875,2.59375,-0.03125
529,1697627125,0.14331055,-1.0293579,-0.039611816,-12.421875,-4.53125,-0.3125
530,1697627165,0.15258789,-0.9277954,0.09613037,-4.984375,-4.515625,1.640625
531,1697627205,0.09692383,-1.0530396,0.14276123,-4.15625,0.671875,-1.828125
532,1697627245,0.08911133,-0.92559814,0.074645996,2.25,4.359375,1.296875
533,1697627285,0.13110352,-1.0508423,0.02166748,3.109375,2.984375,-0.078125
534,1697627325,0.12451172,-0.9116821,0.015563965,-0.484375,-2.9375,0.171875
535,1697627365,0.14428711,-1.0210571,0.03387451,-1.65625,-0.109375,-0.03125
536,1697627405,0.1628418,-0.98272705,0.168396,-3.484375,0.5625,-0.5625
537,1697627445,0.004638672,-0.9685669,0.105163574,1.8125,3.1875,0.625
538,1697627485,0.19677734,-0.99835205,0.09613037,-0.6875,0.859375,-1.03125
539,1697627525,0.0847168,-0.96295166,0.017028809,-0.421875,2.8125,0.59375
540,1697627565,0.12719727,-0.9795532,0.1473999,-0.9375,-1.375,0.328125
541,1697627605,0.10522461,-1.0239868,0.13201904,-5.4375,8.015625,1.3125
542,1697627645,0.07324219,-0.94976807,0.06829834,-2.9375,9.171875,1.4375
543,1697627685,0.122802734,-0.9871216,0.057556152,-1.953125,13.078125,-0.640625
544,1697627725,0.08081055,-0.9522095,0.109313965,-0.421875,12.5625,1.734375
545,1697627765,0.119140625,-0.9768677,0.06097412,-3.8125,13.96875,-0.515625
546,1697627805,0.08862305,-0.97076416,0.18743896,1.875,14.4375,0.203125
547,1697627845,0.17578125,-1.0090942,0.048034668,-1.625,17.890625,-5.0625
548,1697627885,0.13085938,-0.9246216,0.06756592,3.6875,9.484375,-3.359375
549,1697627925,0.17626953,-0.98565674,0.003112793,-0.59375,12.9375,-3.078125
550,1697627965,0.1616211,-0.9817505,0.04876709,1.015625,6.40625,-1.203125
551,1697628005,0.15722656,-0.9692993,0.101257324,-1.75,8.03125,-1.9375
552,1697628045,0.15014648,-1.0100708,0.101257324,2.5625,6.296875,-1.296875
553,1697628085,0.15551758,-1.0039673,0.17572021,1.734375,8.46875,-1.703125
554,1697628125,0.15307617,-0.9834595,-0.05645752,7.625,4.578125,-4.265625
555,1697628165,0.19433594,-0.9456177,-0.050109863,15.96875,-9.953125,-2.421875
556,1697628205,0.11376953,-0.9702759,0.005554199,2.015625,-6.6875,-0.390625
557,1697628245,0.17871094,-0.9795532,0.017028809,-0.390625,-9.015625,-0.015625
558,1697628285,0.08154297,-0.9480591,0.13275146,6.40625,0.40625,1.296875
559,1697628325,0.14086914,-1.0339966,0.14300537,1.625,12.578125,0.453125
560,1697628365,0.079833984,-0.960022,0.007751465,-14.578125,12.28125,-0.96875
561,1697628405,0.092285156,-0.9570923,0.011657715,-17.6875,4.828125,-2.75
562,1697628445,0.20288086,-0.93536377,-0.050598145,9.03125,-0.203125,4.265625
563,1697628485,0.07788086,-1.0015259,-0.04888916,6.5625,-17.78125,2.53125
564,1697628525,0.10913086,-0.95196533,0.16937256,5.515625,-19.984375,0.46875
565,1697628565,0.084472656,-1.0276489,0.168396,8.984375,-13.265625,1.453125
566,1697628605,0.122802734,-1.024231,0.17327881,3.546875,-1.96875,-1.359375
567,1697628645,0.11645508,-1.0078735,0.18792725,3.90625,13.421875,-0.234375
568,1697628685,0.12768555,-1.0679321,0.026306152,-7.8125,6.28125,-3.359375
569,1697628725,0.10595703,-0.9817505,-0.09918213,-13.09375,-2.0625,-5.203125
570,1697628765,0.17529297,-0.9182739,0.039978027,-4.375,-7.828125,-0.234375
571,1697628805,0.107910156,-0.95391846,0.04095459,4.3125,-16.90625,-0.765625
572,1697628845,0.11645508,-0.91241455,-0.112854004,8.234375,-21.53125,1.328125
573,1697628885,0.111328125,-0.95318604,-0.028625488,12.34375,-25.484375,6.78125
574,1697628925,0.05883789,-1.0708618,0.3163452,23.421875,-22.640625,8.4375
575,1697628965,0.14355469,-1.0098267,0.09124756,-0.96875,-5.09375,3.09375
576,1697629005,0.10644531,-0.9378052,0.047058105,7.65625,-8.0625,-0.140625
577,1697629045,0.13452148,-1.041565,-0.006164551,3.546875,-6.9375,-1.5
578,1697629085,0.15698242,-0.93292236,0.019470215,1.265625,-3.484375,-1.4375
579,1697629125,0.15136719,-1.0227661,-0.13726807,-3.21875,-8.734375,-0.046875
580,1697629165,0.12548828,-0.86138916,0.19451904,-4.328125,-9.609375,0.984375
581,1697629205,0.12573242,-1.1238403,0.058532715,-7.65625,0.359375,-0.390625
582,1697629245,0.096191406,-0.9085083,0.070251465,-8.921875,1.75,-0.71875
583,1697629285,0.13452148,-1.0317993,0.04046631,4.234375,8.421875,-1.25
584,1697629325,0.12915039,-0.9673462,0.031921387,10.125,-1.546875,-5.75
585,1697629365,0.09375,-0.99053955,0.022644043,-0.5,2.796875,-1.3125
586,1697629405,0.15307617,-0.88067627,-0.08111572,-6.421875,-14.34375,-2.0625
587,1697629445,0.17993164,-1.0025024,-0.023254395,-6.453125,1.328125,0.671875
588,1697629485,0.05102539,-1.0442505,0.1942749,-4.859375,1.671875,2.203125
589,1697629525,0.040039062,-0.9661255,0.08441162,0.03125,6.984375,-3.34375
590,1697629565,0.19995117,-0.9951782,0.043640137,6.625,-0.984375,-3.234375
591,1697629605,0.09423828,-0.9846802,0.001159668,-5.5,5.359375,0.0
592,1697629645,0.13183594,-0.8821411,0.17962646,-6.578125,-5.625,-1.625
593,1697629685,0.061767578,-1.0635376,0.070739746,-5.71875,6.5625,-0.421875
594,1697629725,0.13354492,-0.9558716,0.02142334,-2.34375,1.265625,1.78125
595,1697629765,0.11254883,-0.9746704,0.12860107,3.09375,3.171875,1.15625
596,1697629805,0.11254883,-0.99102783,0.1293335,1.390625,1.015625,1.984375
597,1697629845,0.06640625,-1.0198364,0.06121826,-2.25,2.34375,-0.6875
598,1697629885,0.2019043,-0.9168091,0.13201904,-6.375,0.625,-4.40625
599,1697629925,0.051513672,-1.045227,0.00018310547,0.0,0.375,-2.265625
600,1697629965,0.16088867,-0.9404907,0.050720215,-1.484375,-2.984375,-2.28125
601,1697630005,0.08935547,-0.9795532,0.11785889,1.421875,-3.84375,-1.28125
602,1697630045,0.107666016,-0.97247314,0.1281128,1.359375,-0.84375,-0.34375
603,1697630085,0.10131836,-1.0042114,0.12542725,1.28125,2.109375,-0.953125
604,1697630125,0.08300781,-1.019104,0.18743896,3.96875,16.453125,-3.796875
605,1697630165,0.049804688,-0.9631958,0.18231201,14.828125,22.03125,-4.21875
606,1697630205,0.087646484,-0.98516846,-0.089416504,11.578125,10.59375,-9.640625
607,1697630245,0.13574219,-0.94537354,-0.07183838,6.953125,-9.5625,-4.546875
608,1697630285,0.051757812,-0.9558716,-0.008117676,7.453125,-10.375,1.109375
609,1697630325,0.095703125,-0.9871216,-0.045959473,-5.53125,-5.609375,4.671875
610,1697630365,0.091552734,-0.9483032,0.059265137,-5.421875,-10.265625,5.0
611,1697630405,0.0690918,-1.0283813,0.13250732,-0.03125,2.375,5.9375
612,1697630445,0.10205078,-0.95880127,0.09539795,1.859375,-4.8125,4.5
613,1697630485,0.10449219,-0.9783325,0.15911865,1.921875,6.171875,-1.6875
614,1697630525,0.1303711,-1.0081177,-0.12799072,7.0625,-1.0625,-1.046875
615,1697630565,0.15161133,-1.0012817,-0.05596924,-6.203125,-4.515625,-0.53125
616,1697630605,0.14453125,-0.9170532,0.043151855,-4.703125,-5.84375,0.828125
617,1697630645,0.14355469,-1.008606,0.08880615,1.53125,-2.015625,0.8125
618,1697630685,0.14160156,-0.9710083,0.008483887,4.609375,-2.125,-1.234375
619,1697630725,0.12402344,-0.99005127,-0.0015258789,5.15625,-6.265625,0.09375
620,1697630765,0.15209961,-0.93096924,-0.010559082,-4.5,-5.859375,1.625
621,1697630805,0.12963867,-0.94903564,0.14569092,5.46875,-5.1875,5.21875
622,1697630845,0.115478516,-1.0137329,0.05706787,8.9375,-0.4375,4.046875
623,1697630885,0.13232422,-0.9751587,0.034118652,11.328125,-2.265625,2.703125
624,1697630925,0.12597656,-1.0213013,-0.07183838,-3.09375,-1.046875,3.703125
625,1697630965,0.16308594,-0.9155884,0.1083374,-0.671875,-3.78125,3.515625
626,1697631005,0.12109375,-1.0108032,0.08148193,6.53125,-0.59375,3.1875
627,1697631045,0.15161133,-0.9976196,0.08514404,5.640625,1.53125,0.09375
628,1697631085,0.13110352,-0.9990845,-0.04449463,6.65625,-2.0,-0.5
629,1697631125,0.16967773,-1.0022583,-0.011291504,-0.65625,-3.578125,-1.3125
630,1697631165,0.15307617,-0.940979,0.038757324,-0.484375,-3.09375,0.875
631,1697631205,0.14916992,-1.0020142,0.059265137,1.796875,-0.96875,-0.859375
632,1697631245,0.13330078,-0.96539307,0.040222168,4.078125,0.65625,-2.078125
633,1697631285,0.14526367,-0.97906494,-0.054504395,3.265625,-1.890625,-0.625
634,1697631325,0.16870117,-1.0093384,-0.042053223,-4.296875,-1.171875,-0.875
635,1697631365,0.15283203,-0.9260864,0.048034668,-0.015625,-1.3125,-0.734375
636,1697631405,0.12182617,-1.0005493,0.012878418,1.421875,1.671875,-1.390625
637,1697631445,0.15942383,-0.9585571,0.020202637,1.984375,2.078125,-2.21875
638,1697631485,0.14453125,-0.9963989,-0.049621582,-0.6875,1.5,0.65625
639,1697631525,0.16870117,-0.9680786,-0.003479004,-3.34375,0.671875,-0.890625
640,1697631565,0.13549805,-0.9841919,0.051940918,1.625,2.046875,-0.296875
641,1697631605,0.13330078,-0.98321533,0.044128418,1.65625,3.78125,-2.078125
642,1697631645,0.18066406,-0.9570923,-0.057922363,2.375,2.0,-1.6875
643,1697631685,0.14282227,-1.0339966,-0.07208252,-14.75,4.375,-0.734375
644,1697631725,0.18603516,-0.9265747,0.030944824,-12.203125,0.25,-2.71875
645,1697631765,0.11035156,-0.9949341,0.09515381,-0.859375,1.75,-2.171875
646,1697631805,0.13720703,-0.9890747,0.07342529,2.84375,3.6875,-2.1875
647,1697631845,0.14868164,-0.9746704,-0.023010254,4.578125,1.53125,-1.265625
648,1697631885,0.16088867,-1.0093384,-0.10357666,1.921875,-2.609375,-1.140625
649,1697631925,0.15991211,-0.92852783,0.07537842,-6.09375,-0.90625,-1.296875
650,1697631965,0.1184082,-0.9837036,0.06414795,2.265625,-0.5,0.421875
651,1697632005,0.118652344,-0.98394775,0.07684326,0.625,-0.96875,-2.40625
652,1697632045,0.14111328,-0.9678345,0.043395996,2.265625,-1.3125,-2.8125
653,1697632085,0.1027832,-1.0222778,-0.09112549,0.8125,0.5,-0.40625
654,1697632125,0.18164062,-0.9951782,-0.0076293945,-5.796875,-1.6875,-1.1875
655,1697632165,0.11621094,-0.9151001,0.08343506,1.578125,-1.984375,0.828125
656,1697632205,0.09350586,-1.0374146,0.11907959,5.4375,2.125,0.09375
657,1697632245,0.12866211,-0.99102783,0.2748413,7.296875,14.78125,-5.21875
658,1697632285,0.08569336,-0.9924927,-0.11798096,4.125,13.25,-5.96875
659,1697632325,0.13916016,-0.96099854,-0.1260376,-9.96875,4.4375,-6.984375
660,1697632365,0.08862305,-0.9663696,-0.13677979,-2.640625,-0.640625,-5.21875
661,1697632405,0.12963867,-0.9507446,-0.066711426,-9.109375,-1.1875,-0.21875
662,1697632445,0.06591797,-1.0020142,0.05340576,2.703125,-0.484375,5.546875
663,1697632485,0.14257812,-1.0508423,0.020935059,0.078125,-12.28125,8.15625
664,1697632525,0.11230469,-0.8477173,0.16668701,-10.5625,-11.28125,3.703125
665,1697632565,0.06542969,-1.0222778,0.14300537,-0.234375,4.5625,2.84375
666,1697632605,0.16137695,-0.97320557,0.15325928,-2.0625,5.046875,1.640625
667,1697632645,0.07373047,-1.000061,0.109802246,5.84375,6.59375,-1.125
668,1697632685,0.17211914,-1.0110474,-0.041809082,2.90625,2.421875,-0.921875
669,1697632725,0.111083984,-0.9456177,0.109802246,3.078125,2.59375,0.078125
670,1697632765,0.15161133,-0.97979736,-0.03253174,-6.546875,-7.0,-0.484375
671,1697632805,0.09790039,-1.0081177,0.12762451,-1.046875,2.484375,2.75
672,1697632845,0.20117188,-1.060852,0.066345215,-11.28125,7.484375,-4.109375
673,1697632885,0.08520508,-0.87823486,0.059753418,-4.75,2.125,-4.859375
674,1697632925,0.1484375,-0.9837036,0.0028686523,2.046875,-0.265625,-2.578125
675,1697632965,0.123291016,-0.9902954,0.0602417,-1.796875,-2.703125,-1.90625
676,1697633005,0.10595703,-0.94488525,0.17962646,-3.375,-0.84375,-0.671875
677,1697633045,0.095458984,-1.0344849,0.08319092,-2.796875,3.15625,-1.53125
678,1697633085,0.115478516,-0.9468384,0.1083374,-3.109375,1.375,-1.625
679,1697633125,0.096191406,-0.9793091,0.12225342,0.203125,3.609375,-2.5
680,1697633165,0.1171875,-0.9800415,0.08905029,5.265625,3.65625,-0.640625
681,1697633205,0.14160156,-0.9727173,0.0770874,4.53125,1.34375,-1.625
682,1697633245,0.09838867,-0.9644165,0.16253662,7.515625,4.15625,-3.390625
683,1697633285,0.078125,-1.0352173,0.16082764,5.359375,17.203125,-5.078125
684,1697633325,0.08496094,-0.9949341,0.047302246,-11.53125,7.3125,-3.96875
685,1697633365,0.1616211,-0.92633057,0.019714355,-10.375,6.21875,-1.796875
686,1697633405,0.07788086,-1.0281372,0.0004272461,-5.046875,-7.953125,-3.21875
687,1697633445,0.072265625,-0.9834595,0.13616943,-10.90625,-10.828125,-4.265625
688,1697633485,0.02368164,-0.9338989,0.13421631,-0.171875,-11.34375,-4.25
689,1697633525,0.08691406,-0.9234009,0.054138184,8.96875,-7.296875,0.234375
690,1697633565,0.07373047,-0.9702759,0.08465576,5.921875,-10.9375,2.625
691,1697633605,0.07470703,-1.0125122,0.18743896,5.125,-16.171875,3.203125
692,1697633645,0.052734375,-1.0144653,0.16253662,5.84375,-1.53125,2.046875
693,1697633685,0.07299805,-0.9702759,0.07171631,4.5,0.375,0.390625
694,1697633725,0.068115234,-0.9981079,0.11663818,4.390625,2.5,-0.734375
695,1697633765,0.07519531,-0.9932251,0.061462402,8.375,2.484375,-0.71875
696,1697633805,0.08300781,-0.97320557,0.057800293,6.796875,5.4375,-0.046875
697,1697633845,0.1081543,-0.9849243,0.046081543,2.109375,7.171875,2.015625
698,1697633885,0.14648438,-0.93707275,-0.05279541,-16.515625,-3.828125,1.359375
699,1697633925,0.030029297,-0.9795532,0.18084717,-2.765625,1.9375,4.390625
700,1697633965,0.13427734,-0.96954346,0.11419678,-6.9375,1.703125,-3.09375
701,1697634005,-0.0009765625,-1.0200806,0.17572021,-1.65625,4.484375,-0.171875
702,1697634045,0.17626953,-1.0025024,0.117614746,2.390625,7.140625,1.3125
703,1697634085,0.051757812,-0.9639282,0.11907959,5.328125,3.96875,0.171875
704,1697634125,0.12939453,-0.9649048,0.08416748,1.671875,5.578125,1.328125
705,1697634165,0.09790039,-1.003479,-0.078430176,-3.90625,-5.8125,1.71875
706,1697634205,0.14575195,-0.9492798,0.112976074,-1.71875,-2.25,2.359375
707,1697634245,0.10644531,-1.0405884,0.23431396,-2.609375,-0.5625,-0.796875
708,1697634285,0.01171875,-0.9126587,0.17596436,3.25,0.21875,0.15625
709,1697634325,0.1418457,-1.0388794,-0.0012817383,13.328125,0.984375,0.484375
710,1697634365,0.10253906,-0.95758057,0.0993042,2.796875,-0.890625,1.734375
711,1697634405,0.08129883,-0.93341064,0.093444824,2.109375,-9.71875,1.9375
712,1697634445,0.15795898,-0.98687744,0.057556152,-7.65625,5.421875,-1.578125
713,1697634485,0.07299805,-1.0203247,0.14129639,0.9375,-1.5625,0.328125
714,1697634525,0.027832031,-0.9639282,0.10028076,3.984375,-1.796875,-0.65625
715,1697634565,0.1340332,-0.9644165,0.05291748,3.53125,-3.46875,0.671875
716,1697634605,0.11669922,-1.0247192,0.04949951,2.8125,-3.59375,3.203125
717,1697634645,0.08154297,-0.9505005,0.1149292,-2.46875,-5.203125,2.03125
718,1697634685,0.03955078,-1.0430298,0.21331787,3.640625,-2.046875,3.171875
719,1697634725,0.15429688,-1.00177,0.05291748,-2.859375,4.125,-1.4375
720,1697634765,0.10522461,-0.9631958,0.1329956,0.25,-0.6875,-2.765625
721,1697634805,0.053222656,-0.9685669,0.17791748,7.828125,-5.40625,-4.296875
722,1697634845,0.10644531,-0.97442627,0.00970459,18.0,-1.71875,-2.15625
723,1697634885,0.17993164,-0.98394775,-0.11431885,-5.40625,3.984375,-2.953125
724,1697634925,0.072509766,-0.9060669,0.09075928,8.96875,6.34375,-1.453125
725,1697634965,0.07836914,-1.1333618,0.12249756,12.859375,13.921875,2.0625
726,1697635005,0.036132812,-1.0108032,0.105895996,8.203125,3.375,4.390625
727,1697635045,0.09887695,-0.958313,-0.15484619,13.78125,-6.984375,-2.0625
728,1697635085,0.12158203,-0.97125244,-0.058166504,6.140625,-8.0,-6.515625
729,1697635125,0.24243164,-0.9505005,-0.13482666,3.8125,0.3125,-3.25
730,1697635165,0.09741211,-0.9036255,-0.058654785,-11.390625,-4.390625,-6.96875
731,1697635205,0.06713867,-0.9951782,0.14129639,-1.09375,-3.28125,-3.53125
732,1697635245,0.005859375,-1.0220337,0.14447021,2.546875,-3.421875,0.671875
733,1697635285,0.07788086,-1.013977,-0.043518066,4.265625,4.21875,3.234375
734,1697635325,0.12133789,-0.97003174,-0.06060791,-0.09375,-0.828125,1.8125
735,1697635365,0.10522461,-1.0095825,-0.0064086914,2.078125,-4.296875,1.03125
736,1697635405,0.114990234,-0.9780884,-0.04937744,-9.96875,5.796875,1.828125
737,1697635445,0.09301758,-0.93463135,0.06585693,-4.71875,-1.8125,2.328125
738,1697635485,0.1328125,-1.0684204,-0.050842285,-15.65625,-1.421875,4.46875
739,1697635525,0.099609375,-0.9331665,0.1930542,-9.65625,-4.265625,3.265625
740,1697635565,0.079833984,-1.1184692,0.094177246,-10.875,3.046875,-1.578125
741,1697635605,0.076660156,-0.9314575,0.10003662,-5.1875,2.671875,0.4375
742,1697635645,0.12207031,-1.0007935,0.031921387,3.875,6.703125,-2.328125
743,1697635685,0.13232422,-0.9492798,-0.026428223,4.859375,-4.84375,-1.59375
744,1697635725,0.15917969,-1.0078735,-0.0049438477,0.046875,-0.109375,-0.4375
745,1697635765,0.08520508,-0.90704346,0.07318115,1.78125,-6.578125,1.859375
746,1697635805,0.08691406,-0.98687744,0.078063965,-8.234375,-3.734375,1.53125
747,1697635845,0.09472656,-1.0186157,0.18572998,-1.265625,-5.140625,2.953125
748,1697635885,0.07006836,-1.0027466,0.08050537,0.90625,0.84375,-0.078125
749,1697635925,0.1430664,-0.98223877,0.082458496,3.734375,-0.015625,-1.59375
750,1697635965,0.09033203,-0.97320557,0.012390137,-2.859375,0.9375,-1.703125
751,1697636005,0.119628906,-0.93218994,0.0053100586,0.125,-4.75,0.28125
752,1697636045,0.122558594,-0.9656372,0.07366943,-7.984375,-2.734375,0.828125
753,1697636085,0.09423828,-0.9932251,0.19720459,2.640625,-2.53125,4.375
754,1697636125,0.052734375,-1.0029907,0.066833496,2.859375,1.328125,2.046875
755,1697636165,0.17529297,-1.0007935,0.02142334,4.75,-1.109375,1.3125
756,1697636205,0.09887695,-0.954895,0.09442139,5.734375,-4.5,0.234375
757,1697636245,0.10961914,-1.0213013,0.070251465,2.6875,-6.0,-1.109375
758,1697636285,0.114990234,-0.9854126,0.06317139,-3.859375,-8.359375,-2.296875
759,1697636325,0.07104492,-0.96173096,0.11126709,0.125,-5.65625,-1.078125
