timestamp,accel_x,accel_y,accel_z,gyro_x,gyro_y,gyro_z,ind
1696246062208,0.39868164,-0.9710083,0.24334717,-10.625,1.3125,5.953125,0
1696246062248,0.46557617,-0.8377075,0.17669678,0.90625,4.046875,9.5,1
1696246062288,0.17041016,-0.770813,0.27093506,-2.6875,3.0625,10.8125,2
1696246062328,0.36621094,-0.8616333,0.38616943,2.515625,-0.34375,-3.3125,3
1696246062368,0.2097168,-1.4414673,0.5790405,4.40625,12.71875,15.03125,4
1696246062408,0.17480469,-1.1506958,0.5314331,-2.25,21.203125,4.015625,5
1696246062448,0.2253418,-0.5640259,0.26190186,2.765625,11.3125,-10.109375,6
1696246062488,0.25732422,-0.4463501,0.23846436,13.0625,11.859375,3.4375,7
1696246062528,0.30419922,-0.6436157,0.31341553,14.140625,5.078125,5.578125,8
1696246062568,0.34570312,-0.8753052,0.4376831,6.1875,-8.171875,7.890625,9
1696246062608,0.4489746,-1.2525024,0.52874756,2.515625,-19.515625,7.203125,10
1696246062648,0.39624023,-1.3008423,0.3060913,24.4375,-10.5,-10.109375,11
1696246062688,0.49291992,-1.4172974,0.3439331,32.03125,-23.1875,-2.1875,12
1696246062728,0.65063477,-2.0,0.010192871,46.796875,-18.453125,-11.484375,13
1696246062768,0.69262695,-1.050354,-0.15899658,12.40625,22.59375,13.1875,14
1696246062808,0.44482422,-0.7139282,-0.12579346,-13.765625,26.65625,8.921875,15
1696246062848,0.3317871,-0.55010986,-0.21832275,26.8125,-4.71875,19.09375,16
1696246062888,0.10546875,-0.9458618,0.07928467,17.046875,-6.0,19.578125,17
1696246062928,0.07006836,-0.89312744,0.20135498,17.8125,-8.34375,3.515625,18
1696246062968,0.088134766,-0.77471924,0.02557373,38.109375,-0.59375,-1.375,19
1696246063008,0.20141602,-0.6062622,0.046813965,3.890625,27.640625,-0.875,20
1696246063048,0.28344727,-0.64019775,-0.010559082,-8.4375,12.28125,2.21875,21
1696246063088,0.37890625,-1.098938,-0.12017822,-19.484375,-7.0,-3.796875,22
1696246063128,0.49487305,-1.5137329,0.1293335,-50.46875,18.078125,-11.3125,23
1696246063168,0.4560547,-1.2305298,0.26190186,-17.8125,16.59375,3.078125,24
1696246063208,0.29711914,-1.1633911,-0.25860596,-24.140625,-26.375,-1.90625,25
1696246063248,0.39892578,-1.2112427,-0.1987915,-5.0,-15.78125,-0.953125,26
1696246063288,0.9001465,-0.77056885,-0.1194458,-0.59375,-9.84375,-8.953125,27
1696246063328,0.4572754,-0.5791626,-0.003967285,8.5625,5.578125,-5.46875,28
1696246063368,0.49267578,-0.48321533,0.21453857,14.484375,6.421875,-16.703125,29
1696246063408,0.001953125,-0.5881958,0.08538818,-8.125,-0.015625,-2.09375,30
1696246063448,-0.15722656,-0.4487915,0.19158936,4.53125,-19.484375,5.921875,31
1696246063488,-0.037353516,-0.43218994,0.07513428,8.421875,-12.3125,4.203125,32
1696246063528,0.29223633,-0.66851807,0.11224365,-7.0,-17.34375,-4.375,33
1696246063568,0.41259766,-1.2332153,0.24212646,10.1875,-17.65625,-17.046875,34
1696246063608,1.0041504,-1.8652954,0.508728,20.765625,-13.15625,0.328125,35
1696246063648,0.5102539,-1.2966919,0.19378662,-17.109375,-2.609375,9.453125,36
1696246063688,0.10839844,-1.2324829,-0.022033691,-21.0625,-0.0625,-1.5,37
1696246063728,0.22924805,-1.1809692,-0.16070557,35.90625,-8.3125,-15.6875,38
1696246063768,0.7331543,-1.3677368,-0.16436768,31.828125,-18.125,7.921875,39
1696246063808,0.18188477,-0.75323486,0.013366699,-26.359375,49.421875,14.375,40
1696246063848,-0.044677734,-0.6021118,-0.0178833,7.71875,33.578125,7.6875,41
1696246063888,-0.07373047,-0.5757446,0.07928467,8.046875,-1.59375,-2.328125,42
1696246063928,-0.041015625,-0.55352783,-0.13092041,27.453125,0.765625,-10.390625,43
1696246063968,0.119628906,-0.5772095,-0.003967285,-2.734375,34.828125,5.75,44
1696246064008,0.40234375,-0.85528564,0.08831787,6.609375,13.390625,17.203125,45
1696246064048,0.39135742,-1.123352,0.06390381,-18.109375,13.671875,8.796875,46
1696246064088,0.33032227,-1.4690552,-0.0056762695,-20.96875,20.609375,-0.359375,47
1696246064128,0.55493164,-1.6970825,0.24407959,-15.859375,14.765625,0.90625,48
1696246064168,0.46801758,-1.4495239,-0.29522705,-33.96875,-22.71875,-4.484375,49
1696246064208,0.26342773,-1.5838013,-0.12921143,-0.75,-0.390625,14.46875,50
1696246064248,1.2731934,-0.9194946,-0.31744385,-11.984375,-12.953125,3.875,51
1696246064288,0.28173828,-0.5689087,-0.08380127,-2.859375,-27.15625,-12.34375,52
1696246064328,0.48828125,-0.32647705,0.012145996,-6.265625,-24.71875,-24.0625,53
1696246064368,0.07080078,-0.4439087,0.19329834,4.0,-24.40625,3.40625,54
1696246064408,-0.27905273,-0.704895,0.28045654,-6.125,-30.09375,-9.078125,55
1696246064448,-0.19873047,-0.5857544,0.2098999,3.140625,-10.921875,12.0625,56
1696246064488,0.12866211,-0.6279907,0.09637451,-3.140625,-9.296875,2.640625,57
1696246064528,0.33862305,-0.8323364,0.06829834,-5.953125,-2.859375,-14.96875,58
1696246064568,0.65625,-1.2415161,0.41522217,21.484375,0.453125,-22.1875,59
1696246064608,0.79907227,-1.6577759,0.5453491,-12.40625,-11.640625,-4.828125,60
1696246064648,0.33911133,-1.1035767,0.3475952,-12.96875,9.25,13.03125,61
1696246064688,0.17626953,-1.4197388,0.003112793,9.078125,-21.578125,-1.671875,62
1696246064728,0.3166504,-1.4729614,-0.03668213,4.3125,-16.5,-1.015625,63
1696246064768,0.44311523,-0.97979736,-0.08673096,-11.625,39.53125,15.046875,64
1696246064808,-0.08862305,-0.6548462,0.11883545,-13.734375,41.484375,4.65625,65
1696246064848,-0.15209961,-0.52545166,0.23138428,20.453125,8.4375,1.328125,66
1696246064888,-0.119384766,-0.44073486,0.059020996,18.28125,0.3125,0.21875,67
1696246064928,0.1928711,-0.4668579,-0.0049438477,1.1875,-2.921875,7.734375,68
1696246064968,0.3178711,-0.67974854,0.05706787,14.875,2.15625,5.9375,69
1696246065008,0.43066406,-0.9636841,0.10101318,0.5,26.53125,4.65625,70
1696246065048,0.23510742,-1.4111938,0.14666748,-7.703125,22.125,3.28125,71
1696246065088,0.32739258,-1.539856,0.3131714,-3.34375,10.59375,-6.984375,72
1696246065128,0.49072266,-1.3687134,-0.035217285,-9.640625,-2.0625,0.890625,73
1696246065168,0.4440918,-1.5794067,-0.0051879883,-8.078125,-5.890625,4.6875,74
1696246065208,0.97680664,-1.3911743,0.0036010742,-9.640625,5.453125,11.359375,75
1696246065248,0.6069336,-0.63726807,-0.08917236,-6.671875,-16.984375,3.359375,76
1696246065288,0.2956543,-0.5303345,0.09564209,13.546875,-1.265625,-7.96875,77
1696246065328,0.044189453,-0.6296997,0.1605835,5.734375,-9.15625,-5.34375,78
1696246065368,-0.14477539,-0.56866455,0.27581787,-4.234375,-21.984375,9.0,79
1696246065408,-0.04272461,-0.47442627,0.073913574,4.953125,-15.359375,3.09375,80
1696246065448,0.17651367,-0.5889282,0.17010498,5.015625,-4.90625,-1.796875,81
1696246065488,0.3137207,-0.76153564,0.093933105,-7.03125,-1.65625,-10.359375,82
1696246065528,0.40356445,-1.0252075,0.33465576,7.03125,-13.046875,-16.390625,83
1696246065568,0.6804199,-1.4055786,0.402771,11.265625,-31.5625,-11.5625,84
1696246065608,0.484375,-1.3599243,0.3847046,6.921875,-16.25,7.390625,85
1696246065648,0.15283203,-1.4414673,-0.09283447,-9.6875,-10.328125,2.671875,86
1696246065688,0.26611328,-1.5842896,-0.03302002,20.1875,-10.03125,0.25,87
1696246065728,0.4243164,-1.0803833,-0.16656494,4.984375,13.28125,10.359375,88
1696246065768,0.07763672,-0.7647095,0.11517334,-12.6875,38.1875,-0.109375,89
1696246065808,-0.0715332,-0.5298462,0.08514404,-2.515625,19.015625,7.515625,90
1696246065848,-0.1015625,-0.5274048,0.073913574,23.640625,4.671875,-4.71875,91
1696246065888,0.025390625,-0.44732666,0.0018920898,9.0625,37.953125,3.421875,92
1696246065928,0.22680664,-0.5979614,0.13250732,3.6875,14.65625,13.078125,93
1696246065968,0.36499023,-0.81427,0.07342529,2.25,7.109375,10.53125,94
1696246066008,0.23876953,-1.0913696,0.038513184,-29.375,21.796875,10.203125,95
1696246066048,0.2475586,-1.8987427,0.20062256,15.921875,26.28125,13.78125,96
1696246066088,0.42407227,-1.3713989,0.1954956,-12.25,17.84375,-1.5625,97
1696246066128,0.64941406,-1.4534302,-0.27838135,-32.46875,-30.75,-12.359375,98
1696246066168,0.60961914,-1.5430298,-0.11651611,3.078125,9.921875,11.140625,99
1696246066208,1.088623,-0.70196533,-0.121398926,-49.28125,-18.3125,-2.109375,100
1696246066248,0.38989258,-0.522522,-0.058654785,27.3125,-23.515625,-8.296875,101
1696246066288,0.43798828,-0.5059204,0.09710693,5.75,-8.484375,-12.859375,102
1696246066328,0.07470703,-0.57647705,0.2062378,12.125,-18.109375,-9.796875,103
1696246066368,-0.2084961,-0.59820557,0.18548584,-2.921875,-23.109375,-15.109375,104
1696246066408,-0.0146484375,-0.45733643,0.20159912,5.375,-5.875,9.8125,105
1696246066448,0.16357422,-0.5808716,0.050964355,-13.171875,-18.671875,0.15625,106
1696246066488,0.39868164,-0.7637329,0.09906006,-12.5,-14.421875,-17.890625,107
1696246066528,0.63378906,-1.2229614,0.49456787,16.4375,0.234375,-8.8125,108
1696246066568,0.63549805,-1.6831665,0.3661499,-2.8125,-20.03125,12.140625,109
1696246066608,0.21728516,-1.3677368,0.21209717,-6.84375,2.78125,6.625,110
1696246066648,0.2890625,-1.3665161,0.0289917,17.578125,-16.796875,-4.09375,111
1696246066688,0.43676758,-1.30719,-0.077941895,21.765625,-8.328125,8.328125,112
1696246066728,0.32348633,-0.7888794,-0.06915283,-20.015625,37.109375,9.34375,113
1696246066768,0.17138672,-0.53204346,0.17254639,-8.6875,31.359375,3.234375,114
1696246066808,0.01977539,-0.5310669,0.101501465,1.859375,-3.734375,1.28125,115
1696246066848,-0.14941406,-0.55718994,0.09979248,14.421875,-2.0625,-8.984375,116
1696246066888,0.015136719,-0.60894775,0.22503662,5.125,14.84375,5.40625,117
1696246066928,0.34301758,-0.69244385,0.1251831,15.828125,-0.15625,10.375,118
1696246066968,0.3310547,-0.8543091,0.03729248,-4.65625,11.71875,7.0,119
1696246067008,0.22021484,-1.1668091,0.109558105,-14.984375,28.015625,-1.234375,120
1696246067048,0.24438477,-1.6306763,0.3463745,9.015625,23.109375,-6.734375,121
1696246067088,0.44458008,-1.4024048,0.21453857,-21.390625,-2.4375,-4.109375,122
1696246067128,0.46142578,-1.4629517,0.004333496,-8.921875,-14.5625,8.59375,123
1696246067168,0.8679199,-1.411438,-0.008117676,-6.46875,10.28125,1.8125,124
1696246067208,0.7927246,-0.73028564,-0.124572754,-12.03125,-11.46875,14.234375,125
1696246067248,0.18041992,-0.70806885,0.050476074,14.1875,-13.8125,11.328125,126
1696246067288,0.29785156,-0.54571533,0.11151123,11.796875,-16.796875,-15.421875,127
1696246067328,-0.047851562,-0.5527954,0.1005249,10.21875,-30.078125,-25.78125,128
1696246067368,-0.13061523,-0.6777954,0.20843506,-0.484375,-17.796875,-9.171875,129
1696246067408,0.08911133,-0.6856079,0.30633545,-6.703125,0.78125,4.703125,130
1696246067448,0.20751953,-0.6604614,0.15252686,5.5,11.171875,-1.046875,131
1696246067488,0.38891602,-0.6380005,0.13983154,-1.796875,7.21875,-9.8125,132
1696246067528,0.37329102,-0.8386841,0.26898193,4.53125,-16.765625,-5.71875,133
1696246067568,0.3503418,-1.1785278,0.26409912,2.109375,-20.859375,8.296875,134
1696246067608,0.5505371,-1.703186,0.46820068,15.5,-10.546875,14.875,135
1696246067648,0.32226562,-1.5227661,0.039489746,17.515625,-10.71875,4.28125,136
1696246067688,0.56640625,-1.6304321,0.001159668,15.109375,-12.703125,-3.625,137
1696246067728,0.44750977,-1.0278931,-0.117492676,-17.671875,17.015625,7.9375,138
1696246067768,0.19750977,-0.6453247,-0.028625488,-17.859375,28.796875,-9.765625,139
1696246067808,-0.014160156,-0.39361572,-0.012756348,-8.703125,5.046875,3.265625,140
1696246067848,-0.0925293,-0.64068604,0.117126465,31.0,0.90625,-9.96875,141
1696246067888,0.05883789,-0.7112427,0.14642334,4.65625,29.625,9.296875,142
1696246067928,0.29418945,-0.7407837,0.24627686,34.046875,4.34375,9.0625,143
1696246067968,0.22827148,-0.6565552,-0.0635376,31.6875,12.59375,4.984375,144
1696246068008,0.21704102,-0.8953247,-0.019348145,-16.890625,25.59375,7.53125,145
1696246068048,0.08154297,-1.2136841,0.08856201,-13.59375,23.96875,11.828125,146
1696246068088,0.29052734,-1.250061,0.20184326,15.0,16.328125,0.53125,147
1696246068128,0.5979004,-1.1707153,0.006286621,5.90625,1.25,2.09375,148
1696246068168,0.63012695,-1.5698853,-0.046936035,-20.5,-38.90625,5.84375,149
1696246068208,0.20727539,-1.2056274,0.4196167,-0.265625,-3.171875,-0.484375,150
1696246068248,0.27539062,-1.2402954,0.56243896,-2.953125,-12.828125,-14.171875,151
1696246068288,0.3022461,-1.4158325,0.5307007,-6.84375,-17.734375,-20.828125,152
1696246068328,0.43920898,-1.5813599,0.10394287,8.484375,-42.46875,-17.859375,153
1696246068368,1.064209,-1.4695435,-0.27886963,114.40625,-33.796875,28.625,154
1696246068408,0.5366211,-1.1082153,-0.23614502,17.84375,29.859375,41.28125,155
1696246068448,0.46240234,-0.56866455,-0.17315674,-58.203125,41.625,3.09375,156
1696246068488,0.042236328,-0.59039307,0.28094482,22.03125,23.359375,10.203125,157
1696246068528,0.04663086,-0.4968872,0.06561279,35.53125,7.34375,-10.140625,158
1696246068568,-0.03930664,-0.5264282,0.10345459,12.390625,3.1875,-5.71875,159
1696246068608,-0.019042969,-0.5137329,0.07147217,0.171875,-2.640625,7.28125,160
1696246068648,0.24731445,-0.7908325,-0.10675049,-5.65625,-20.203125,6.5,161
1696246068688,0.42211914,-1.2061157,-0.066223145,-27.6875,15.828125,-8.671875,162
1696246068728,0.52319336,-1.5925903,0.28753662,18.8125,41.734375,10.8125,163
1696246068768,0.38476562,-1.3909302,0.24481201,-21.6875,7.265625,-1.90625,164
1696246068808,0.5461426,-1.2783813,-0.25054932,-17.75,-43.265625,0.515625,165
1696246068848,0.40771484,-1.3010864,-0.15509033,-8.265625,-13.671875,4.375,166
1696246068888,1.1176758,-0.76763916,0.0018920898,-17.46875,-1.09375,-1.828125,167
1696246068928,0.35180664,-0.6104126,0.06707764,11.90625,-15.09375,5.390625,168
1696246068968,0.16894531,-0.78741455,0.008972168,3.203125,-14.265625,2.09375,169
1696246069008,-0.025878906,-0.710022,0.19354248,-6.078125,2.90625,-8.53125,170
1696246069048,-0.010986328,-0.47320557,0.13934326,9.4375,-12.265625,-10.75,171
1696246069088,0.11254883,-0.5071411,0.17230225,4.484375,-9.859375,-2.171875,172
1696246069128,0.26391602,-0.54766846,0.15081787,-2.109375,0.421875,0.984375,173
1696246069168,0.3540039,-0.6724243,0.13568115,-8.046875,-1.734375,-5.21875,174
1696246069208,0.4963379,-0.97052,0.31854248,2.125,-27.484375,-6.9375,175
1696246069248,0.49316406,-1.6074829,0.3414917,10.71875,-26.4375,8.59375,176
1696246069288,0.5456543,-1.888977,0.37860107,7.890625,-5.671875,-0.34375,177
1696246069328,0.47314453,-1.3850708,0.03729248,15.390625,-2.890625,4.984375,178
1696246069368,0.5786133,-1.1560669,-0.17071533,10.609375,-8.5625,11.265625,179
1696246069408,0.23242188,-0.83599854,0.09564209,-23.375,40.671875,4.28125,180
1696246069448,0.19140625,-0.5130005,-0.0154418945,1.46875,25.109375,5.703125,181
1696246069488,0.045654297,-0.6511841,0.006286621,13.015625,-5.109375,2.78125,182
1696246069528,-0.0021972656,-0.52423096,0.04852295,20.046875,10.03125,-12.140625,183
1696246069568,0.09008789,-0.54034424,0.17108154,-9.234375,42.453125,-3.28125,184
1696246069608,0.109375,-0.6748657,0.17840576,22.0625,-0.984375,6.046875,185
1696246069648,0.18261719,-0.8323364,-0.046447754,1.390625,2.828125,1.90625,186
1696246069688,0.22021484,-1.2454224,-0.057922363,-33.5,13.15625,-5.703125,187
1696246069728,0.58081055,-1.7822876,0.33172607,9.0,31.03125,-5.375,188
1696246069768,0.5522461,-1.3616333,0.19671631,-5.5,13.59375,-0.6875,189
1696246069808,0.29174805,-1.552063,-0.07232666,-13.125,-13.890625,6.640625,190
1696246069848,0.5617676,-1.274231,0.010681152,-3.28125,-4.03125,-6.21875,191
1696246069888,0.9206543,-0.6902466,-0.120910645,-4.71875,-8.5,-6.03125,192
1696246069928,0.39379883,-0.5552368,0.12347412,-0.40625,-10.578125,-12.0,193
1696246069968,0.34399414,-0.6790161,0.06561279,-18.328125,-2.109375,-8.40625,194
1696246070008,0.11010742,-0.61016846,0.3126831,-11.1875,-17.953125,9.75,195
1696246070048,-0.025146484,-0.5913696,0.24749756,4.328125,-29.265625,17.984375,196
1696246070088,0.046875,-0.6560669,0.18817139,6.390625,-16.421875,13.96875,197
1696246070128,0.16015625,-0.6421509,0.14959717,4.296875,0.84375,-5.453125,198
1696246070168,0.3479004,-0.75128174,0.2609253,3.671875,-8.4375,-17.28125,199
1696246070208,0.38232422,-1.1079712,0.40838623,17.8125,-26.734375,-14.0,200
1696246070248,0.6557617,-1.4387817,0.47039795,0.21875,-6.53125,3.71875,201
1696246070288,0.4790039,-1.3247681,0.14227295,-11.4375,-15.828125,-4.484375,202
1696246070328,0.3713379,-1.479065,0.007019043,12.375,-18.5,-3.65625,203
1696246070368,0.36499023,-1.192688,0.03778076,17.8125,11.875,8.328125,204
1696246070408,0.0625,-0.89971924,0.048034668,-19.5,39.34375,15.875,205
1696246070448,-0.05078125,-0.54644775,0.0524292,5.25,15.203125,8.96875,206
1696246070488,0.028076172,-0.6279907,0.06585693,16.546875,-22.265625,-9.390625,207
1696246070528,0.099365234,-0.5706177,0.05633545,22.21875,-0.625,-10.828125,208
1696246070568,0.2626953,-0.5886841,0.15325928,21.046875,22.109375,6.5625,209
1696246070608,0.2290039,-0.66607666,0.038757324,35.1875,14.859375,14.578125,210
1696246070648,0.19360352,-0.8377075,0.032165527,-1.796875,18.421875,10.53125,211
1696246070688,0.010498047,-1.2095337,0.1449585,-28.5,20.796875,4.296875,212
1696246070728,0.39282227,-1.7078247,0.30999756,5.125,2.59375,-10.25,213
1696246070768,0.6105957,-1.4060669,0.030212402,-17.015625,-1.515625,-2.125,214
1696246070808,0.654541,-1.6592407,-0.144104,-6.484375,-23.078125,9.21875,215
1696246070848,0.5710449,-1.3748169,-0.04473877,-7.21875,5.96875,7.234375,216
1696246070888,0.91186523,-0.6187134,-0.1362915,-13.0625,-11.65625,4.109375,217
1696246070928,0.3227539,-0.66485596,0.023376465,19.546875,-14.15625,-10.375,218
1696246070968,0.16186523,-0.6199341,0.10028076,-1.640625,-17.765625,-12.9375,219
1696246071008,-0.22192383,-0.6489868,0.18963623,-5.59375,-21.625,-3.765625,220
1696246071048,-0.067871094,-0.45489502,0.184021,3.421875,-15.0625,4.0,221
1696246071088,0.1472168,-0.57037354,0.11566162,-0.6875,-9.71875,3.0,222
1696246071128,0.35424805,-0.6878052,0.11541748,-10.203125,-6.296875,-5.5,223
1696246071168,0.42797852,-0.9624634,0.26190186,4.4375,5.796875,-8.671875,224
1696246071208,0.42236328,-1.3547974,0.42132568,10.75,-21.3125,3.84375,225
1696246071248,0.5385742,-1.3579712,0.42108154,-9.390625,-15.515625,3.5,226
1696246071288,0.38745117,-1.2876587,0.0211792,-9.984375,-14.46875,-9.03125,227
1696246071328,0.32055664,-1.4216919,-0.028869629,43.609375,10.40625,11.078125,228
1696246071368,0.46484375,-1.2227173,0.0018920898,-0.671875,16.515625,19.25,229
1696246071408,0.021728516,-0.8250122,0.070495605,-15.0,24.921875,-3.46875,230
1696246071448,-0.09423828,-0.63531494,0.03314209,-3.796875,20.328125,-11.671875,231
1696246071488,-0.14160156,-0.48590088,0.019714355,12.734375,1.578125,-14.234375,232
1696246071528,0.084472656,-0.46881104,-0.0881958,11.953125,17.5625,-12.890625,233
1696246071568,0.3112793,-0.5581665,0.16204834,-9.59375,37.078125,12.859375,234
1696246071608,0.3461914,-0.8374634,0.08538818,12.65625,9.046875,18.25,235
1696246071648,0.2084961,-1.0476685,0.031921387,-26.90625,27.90625,12.828125,236
1696246071688,0.12646484,-1.3862915,0.19622803,0.28125,27.171875,18.5,237
1696246071728,0.4272461,-1.4605103,0.26483154,-6.703125,-0.3125,-4.140625,238
1696246071768,0.67993164,-1.5437622,-0.1675415,-19.96875,-29.15625,-2.6875,239
1696246071808,0.44750977,-1.5112915,0.04827881,-1.796875,8.0,10.046875,240
1696246071848,0.8618164,-0.95806885,0.01361084,-8.078125,1.65625,1.28125,241
1696246071888,0.5710449,-0.57696533,-0.15167236,-1.875,-24.90625,-0.984375,242
1696246071928,0.33691406,-0.5923462,0.070495605,11.109375,-7.125,-9.25,243
1696246071968,0.24291992,-0.64385986,0.15985107,1.921875,-20.09375,-7.125,244
1696246072008,-0.068115234,-0.56085205,0.18255615,5.21875,-18.921875,5.875,245
1696246072048,0.020507812,-0.50909424,0.14935303,-0.984375,-8.125,10.796875,246
1696246072088,0.14672852,-0.5430298,0.2062378,-6.140625,1.9375,0.015625,247
1696246072128,0.26293945,-0.65997314,0.15423584,-7.875,-7.921875,-15.15625,248
1696246072168,0.45239258,-0.86602783,0.30267334,2.828125,-20.34375,-14.328125,249
1696246072208,0.51000977,-1.2561646,0.32684326,9.609375,-20.5625,-3.796875,250
1696246072248,0.5437012,-1.6384888,0.47943115,2.40625,-17.03125,-6.671875,251
1696246072288,0.3564453,-1.4795532,0.08734131,-4.53125,-10.453125,-14.53125,252
1696246072328,0.32714844,-1.3467407,-0.022766113,39.4375,-2.59375,-2.1875,253
1696246072368,0.4255371,-1.0657349,-0.10479736,-0.546875,9.34375,8.0625,254
1696246072408,0.15039062,-0.7346802,0.047058105,-27.734375,45.34375,7.140625,255
1696246072448,0.10058594,-0.50787354,0.028015137,4.796875,11.640625,10.875,256
1696246072488,-0.0017089844,-0.59503174,0.04510498,3.359375,-12.21875,-3.34375,257
1696246072528,0.047851562,-0.6030884,0.08538818,13.71875,8.3125,-4.6875,258
1696246072568,0.16186523,-0.5532837,0.22210693,16.53125,26.203125,5.640625,259
1696246072608,0.20507812,-0.6008911,0.062927246,22.3125,1.84375,10.0,260
1696246072648,0.13378906,-0.8467407,-0.038391113,-4.9375,9.359375,4.078125,261
1696246072688,0.0703125,-1.1521606,0.047546387,-13.59375,12.0625,-2.796875,262
1696246072728,0.47753906,-1.6455688,0.27679443,9.375,21.546875,-8.1875,263
1696246072768,0.4621582,-1.3945923,0.13153076,-7.8125,4.28125,0.375,264
1696246072808,0.33911133,-1.6155396,-0.09429932,-22.046875,3.375,5.5625,265
1696246072848,0.545166,-1.3618774,-0.028381348,-21.8125,3.0625,-3.046875,266
1696246072888,0.6376953,-0.97198486,-0.06060791,-17.96875,2.703125,-1.15625,267
1696246072928,0.26245117,-0.767395,-0.12554932,-13.390625,6.203125,-0.546875,268
1696246072968,0.31933594,-0.66070557,0.0006713867,-24.40625,9.609375,-8.421875,269
1696246073008,0.13378906,-1.0244751,0.21453857,-7.734375,28.6875,6.828125,270
1696246073048,0.111572266,-1.1082153,0.28533936,-13.9375,25.71875,6.09375,271
1696246073088,0.10961914,-1.147522,0.37542725,-23.0625,18.484375,2.734375,272
1696246073128,0.19921875,-1.1653442,0.29388428,-30.09375,7.4375,0.4375,273
1696246073168,0.11303711,-1.5247192,-0.097229004,-7.75,-2.28125,-9.671875,274
1696246073208,0.38110352,-1.0234985,-0.058898926,4.578125,13.0,-7.21875,275
1696246073248,0.86035156,-0.7905884,-0.12213135,-29.859375,22.078125,-6.5,276
1696246073288,0.26831055,-0.95635986,0.08123779,-31.6875,56.71875,-7.328125,277
1696246073328,-0.17871094,-1.0933228,0.38031006,-16.453125,46.203125,11.296875,278
1696246073368,-0.1027832,-0.788147,0.35614014,-16.203125,40.625,-1.6875,279
1696246073408,0.1928711,-0.62945557,0.06951904,-20.09375,13.421875,-23.953125,280
1696246073448,0.38623047,-0.56744385,0.1329956,-12.84375,18.03125,-23.234375,281
1696246073488,0.40112305,-0.7971802,0.2994995,-8.234375,43.0,-8.65625,282
1696246073528,0.36621094,-0.7214966,0.42718506,-10.796875,58.78125,0.921875,283
1696246073568,0.16015625,-0.85528564,0.41448975,-2.9375,21.546875,3.359375,284
1696246073608,0.19824219,-1.0083618,0.51678467,-8.59375,-5.421875,-2.0,285
1696246073648,0.37890625,-1.1372681,0.50457764,-3.671875,-10.578125,-14.0625,286
1696246073688,0.53930664,-0.99884033,0.47650146,-8.0625,17.09375,-0.875,287
1696246073728,0.4104004,-1.0877075,0.33050537,-21.96875,14.546875,-6.125,288
1696246073768,0.045410156,-1.6465454,0.03387451,-19.84375,-0.015625,2.484375,289
1696246073808,-0.068359375,-1.1321411,0.050476074,19.109375,-4.4375,10.703125,290
1696246073848,0.16748047,-0.94610596,-0.070129395,4.734375,6.265625,7.875,291
1696246073888,0.2878418,-0.7896118,0.16253662,5.734375,32.46875,-9.703125,292
1696246073928,0.23632812,-0.7632446,0.33465576,12.46875,30.109375,-14.296875,293
1696246073968,0.27124023,-0.6902466,0.23553467,3.5,6.484375,3.03125,294
1696246074008,0.0146484375,-0.78302,0.13861084,14.125,-5.46875,14.09375,295
1696246074048,-0.0087890625,-0.80718994,0.054382324,4.46875,4.90625,5.734375,296
1696246074088,0.07543945,-0.9397583,0.18475342,-9.90625,23.671875,2.78125,297
1696246074128,0.15405273,-1.067688,0.38763428,3.546875,17.953125,-1.375,298
1696246074168,0.12597656,-1.0012817,0.38983154,3.015625,8.9375,-3.390625,299
1696246074208,0.06713867,-1.0757446,0.23675537,-9.140625,5.125,-1.46875,300
1696246074248,0.14672852,-1.1382446,0.24676514,-26.484375,-6.46875,-6.65625,301
1696246074288,0.3166504,-1.3775024,0.22137451,-21.328125,1.0625,-2.90625,302
1696246074328,0.63061523,-1.5039673,0.21136475,10.484375,-19.09375,5.6875,303
1696246074368,0.5107422,-0.784729,-0.059143066,4.5,16.75,-1.015625,304
1696246074408,0.5217285,-0.706604,-0.17120361,-45.703125,26.578125,-12.46875,305
1696246074448,0.07104492,-0.86724854,0.22845459,0.734375,10.21875,0.109375,306
1696246074488,-0.41186523,-1.1599731,0.24627686,-9.21875,31.890625,5.53125,307
1696246074528,0.07006836,-0.7398071,0.26361084,-6.328125,30.265625,-12.015625,308
1696246074568,0.28979492,-0.61724854,0.18719482,-16.734375,11.390625,-19.046875,309
1696246074608,0.41381836,-0.66485596,0.26483154,-11.984375,23.140625,-14.5,310
1696246074648,0.35205078,-0.7918091,0.38250732,-10.609375,36.578125,-6.421875,311
1696246074688,0.18554688,-0.8960571,0.39666748,-14.90625,31.59375,3.234375,312
1696246074728,0.060791016,-0.95977783,0.41937256,-8.625,5.8125,-0.265625,313
1696246074768,0.20336914,-0.99102783,0.36810303,-13.703125,-0.28125,-13.515625,314
1696246074808,0.47485352,-0.98760986,0.33392334,-20.421875,14.53125,-21.671875,315
1696246074848,0.30273438,-1.9500122,0.046569824,-10.59375,9.953125,-9.234375,316
1696246074888,-0.015136719,-1.4473267,0.18914795,9.359375,40.984375,16.09375,317
1696246074928,0.045654297,-0.77789307,-0.06085205,-45.296875,43.1875,-4.4375,318
1696246074968,0.040283203,-0.54766846,0.06976318,19.15625,33.15625,-18.46875,319
1696246075008,0.15722656,-0.4661255,0.2855835,8.09375,-8.53125,-8.0625,320
1696246075048,0.3491211,-0.5667114,0.31781006,14.34375,-7.5625,0.234375,321
1696246075088,0.40405273,-0.8765259,0.45257568,0.390625,-3.546875,9.375,322
1696246075128,0.33251953,-1.0481567,0.5199585,-7.125,1.46875,3.28125,323
1696246075168,0.17504883,-1.218811,0.5519409,7.515625,-9.90625,-3.0,324
1696246075208,0.3059082,-1.4002075,0.3842163,12.828125,-17.453125,-14.1875,325
1696246075248,0.5617676,-1.7905884,0.32977295,46.953125,-31.53125,-12.796875,326
1696246075288,1.0168457,-1.6484985,0.12567139,28.09375,-4.859375,5.203125,327
1696246075328,0.40649414,-0.96539307,-0.03326416,-4.96875,38.828125,17.09375,328
1696246075368,0.23632812,-0.6824341,-0.18536377,-9.765625,18.046875,16.078125,329
1696246075408,0.08935547,-0.7490845,-0.11480713,16.625,-5.171875,14.671875,330
1696246075448,-0.036376953,-0.9048462,0.19696045,31.765625,-6.046875,-3.828125,331
1696246075488,0.19799805,-0.69781494,0.12249756,25.578125,3.515625,-6.453125,332
1696246075528,0.18920898,-0.55718994,0.06561279,19.375,5.375,0.46875,333
1696246075568,0.091796875,-0.4817505,-0.061584473,-0.625,21.6875,-1.28125,334
1696246075608,0.22143555,-0.68756104,-0.0012817383,1.25,6.765625,3.734375,335
1696246075648,0.083496094,-1.2527466,-0.077697754,-35.875,0.84375,5.984375,336
1696246075688,0.63427734,-1.6126099,0.22454834,5.921875,12.984375,-14.8125,337
1696246075728,0.6213379,-1.2771606,-0.0017700195,-13.40625,-0.015625,0.984375,338
1696246075768,0.4008789,-1.3394165,-0.15045166,-15.453125,-7.59375,8.890625,339
1696246075808,0.43115234,-1.2302856,-0.09552002,-15.484375,2.5,-2.28125,340
1696246075848,0.96655273,-0.6343384,-0.0803833,-12.375,-29.75,-3.953125,341
1696246075888,0.4560547,-0.628479,0.11859131,12.828125,-27.90625,-3.078125,342
1696246075928,0.25512695,-0.70928955,0.1149292,6.859375,-29.8125,-1.78125,343
1696246075968,-0.09301758,-0.8386841,0.20037842,4.984375,-19.859375,-2.671875,344
1696246076008,-0.12890625,-0.5598755,0.1906128,2.359375,-4.21875,-1.953125,345
1696246076048,0.079833984,-0.54815674,0.24407959,13.28125,9.1875,3.71875,346
1696246076088,0.23754883,-0.4800415,0.043884277,-3.453125,4.015625,-5.71875,347
1696246076128,0.35009766,-0.57232666,0.15032959,6.203125,-4.578125,-11.78125,348
1696246076168,0.3466797,-0.9365845,0.3024292,13.59375,-27.96875,-8.125,349
1696246076208,0.47607422,-1.477356,0.27972412,-2.1875,-15.84375,3.921875,350
1696246076248,0.6274414,-1.9380493,0.27947998,19.40625,-3.90625,-3.796875,351
1696246076288,0.3400879,-1.3811646,-0.10040283,22.703125,11.140625,4.890625,352
1696246076328,0.50390625,-1.1900024,-0.20074463,19.921875,2.15625,17.265625,353
1696246076368,0.40234375,-0.86602783,-0.18829346,-20.640625,28.109375,6.09375,354
1696246076408,0.1328125,-0.5984497,0.06414795,3.984375,34.0625,7.078125,355
1696246076448,0.04638672,-0.642395,0.13250732,2.96875,7.59375,6.28125,356
1696246076488,-0.037841797,-0.61602783,0.05316162,28.078125,7.34375,4.734375,357
1696246076528,0.09863281,-0.59698486,0.09490967,15.75,28.375,15.609375,358
1696246076568,0.25976562,-0.6050415,-0.019348145,11.984375,3.6875,13.09375,359
1696246076608,0.32592773,-0.88287354,-0.12384033,-17.359375,14.78125,3.796875,360
1696246076648,0.22509766,-1.1738892,0.008972168,-35.875,18.671875,-3.515625,361
1696246076688,0.6188965,-1.6672974,0.32977295,-1.421875,19.625,-9.359375,362
1696246076728,0.4873047,-1.4129028,-0.07696533,-20.203125,3.046875,-2.421875,363
1696246076768,0.27148438,-1.4712524,-0.16192627,-10.671875,-20.5,16.28125,364
1696246076808,0.76123047,-1.2163696,-0.07672119,-5.71875,-9.15625,-8.140625,365
1696246076848,0.734375,-0.66192627,-0.19390869,-19.609375,-3.359375,-3.15625,366
1696246076888,0.4501953,-0.70196533,0.023376465,-13.6875,-3.8125,-22.34375,367
1696246076928,0.17626953,-0.552063,0.13494873,-15.421875,-10.875,-11.5,368
1696246076968,-0.18725586,-0.6795044,0.20501709,-9.265625,-18.796875,-12.625,369
1696246077008,-0.025878906,-0.6799927,0.28875732,-14.171875,-4.0625,-6.65625,370
1696246077048,0.099609375,-0.56451416,0.18426514,-5.265625,2.953125,5.625,371
1696246077088,0.17626953,-0.534729,0.029968262,6.40625,6.359375,1.078125,372
1696246077128,0.34179688,-0.64678955,0.14471436,-7.90625,13.359375,-10.578125,373
1696246077168,0.40283203,-0.87701416,0.34613037,5.546875,-4.328125,-5.0625,374
1696246077208,0.4248047,-1.2925415,0.50457764,-0.78125,-15.1875,15.75,375
1696246077248,0.25170898,-1.3445435,0.56707764,-0.359375,-4.21875,9.3125,376
1696246077288,0.11791992,-1.2495728,0.11102295,1.265625,-1.328125,-2.671875,377
1696246077328,0.27246094,-1.5025024,0.13519287,24.84375,-16.984375,-11.265625,378
1696246077368,0.5185547,-1.6755981,0.070007324,28.625,-8.171875,10.859375,379
1696246077408,0.47485352,-0.9126587,-0.13775635,-21.296875,50.359375,10.40625,380
1696246077448,0.20727539,-0.5430298,-0.1795044,-31.734375,36.28125,-2.890625,381
1696246077488,0.103515625,-0.60113525,-0.029846191,6.578125,37.609375,-12.0625,382
1696246077528,-0.056884766,-0.9104614,0.38494873,-23.1875,44.453125,-2.515625,383
1696246077568,-0.19995117,-0.817688,0.25091553,-9.375,19.484375,-1.53125,384
1696246077608,0.07763672,-0.6692505,-0.013244629,-9.03125,23.375,-5.5625,385
1696246077648,0.26293945,-0.58843994,-0.06817627,-22.46875,33.28125,-9.703125,386
1696246077688,0.24365234,-0.7385864,0.07244873,-28.65625,51.46875,-5.640625,387
1696246077728,0.016357422,-0.9385376,0.12835693,-25.1875,59.40625,-4.6875,388
1696246077768,-0.0690918,-1.0664673,0.25531006,-20.421875,48.109375,-8.671875,389
1696246077808,0.079833984,-1.0110474,0.31951904,-16.4375,31.984375,-14.375,390
1696246077848,0.24291992,-0.9541626,0.14300537,-42.515625,27.140625,-20.4375,391
1696246077888,0.28051758,-1.0269165,-0.14776611,-49.03125,15.15625,-22.46875,392
1696246077928,0.46826172,-1.9856567,0.21697998,22.703125,44.984375,-14.796875,393
1696246077968,1.3896484,-0.79815674,0.20648193,-20.5625,76.8125,-0.71875,394
1696246078008,0.46728516,-0.4151001,0.051208496,-24.78125,8.875,-8.140625,395
1696246078048,-0.6152344,-1.3479614,-0.06036377,38.265625,18.0,6.359375,396
1696246078088,-0.09423828,-0.7127075,0.3065796,-17.65625,65.21875,-0.578125,397
1696246078128,0.20727539,-0.6223755,-0.014465332,-28.5,6.359375,-25.6875,398
1696246078168,0.4267578,-0.86676025,-0.020812988,-27.71875,23.0625,-30.15625,399
1696246078208,1.3137207,-1.3765259,0.8378296,-18.3125,104.359375,29.34375,400
1696246078248,0.4958496,-0.86676025,0.13250732,-42.375,41.046875,26.203125,401
1696246078288,0.12646484,-0.66851807,0.13787842,4.4375,0.390625,-10.796875,402
1696246078328,-0.045410156,-0.8518677,0.25164795,-4.5,24.0,-32.28125,403
1696246078368,0.28466797,-0.88604736,0.47698975,-32.21875,30.515625,-30.515625,404
1696246078408,0.38256836,-1.7131958,0.09661865,-3.296875,-0.640625,23.390625,405
1696246078448,1.1010742,-1.548645,0.050964355,-8.421875,12.5,4.59375,406
1696246078488,0.37719727,-0.9429321,-0.109436035,3.375,2.953125,7.6875,407
1696246078528,0.27197266,-0.6260376,0.10736084,13.09375,8.671875,-6.6875,408
1696246078568,0.24267578,-0.54693604,0.08905029,-4.015625,-11.359375,-8.578125,409
1696246078608,0.123046875,-0.57403564,0.12371826,-7.640625,-16.296875,-1.65625,410
1696246078648,0.10522461,-0.63653564,0.16229248,2.609375,-15.140625,3.8125,411
1696246078688,0.10424805,-0.6668091,0.20135498,-8.625,9.515625,9.703125,412
1696246078728,0.10229492,-0.6321411,0.1449585,-1.734375,10.078125,2.78125,413
1696246078768,0.33642578,-0.62213135,0.117614746,-0.8125,-11.03125,-7.875,414
1696246078808,0.41357422,-0.96881104,0.24603271,-5.765625,-32.125,-19.5,415
1696246078848,0.6845703,-1.5264282,0.50531006,11.734375,-28.3125,-9.75,416
1696246078888,0.45458984,-1.4597778,0.25286865,-7.65625,2.75,0.296875,417
1696246078928,0.33862305,-1.4251099,0.039733887,15.109375,5.609375,3.75,418
1696246078968,0.42236328,-1.2630005,-0.081604004,15.9375,-11.09375,3.75,419
1696246079008,0.45532227,-0.87579346,0.023376465,-28.34375,24.1875,-0.171875,420
1696246079048,-0.06616211,-0.7324829,-0.022033691,5.25,21.484375,-1.171875,421
1696246079088,-0.10229492,-0.63360596,0.0067749023,8.703125,4.625,-15.75,422
1696246079128,-0.17163086,-0.5003052,0.14422607,20.390625,18.328125,-9.3125,423
1696246079168,0.1315918,-0.62042236,0.08270264,0.03125,43.65625,8.75,424
1696246079208,0.30151367,-0.86065674,0.230896,7.8125,17.078125,13.828125,425
1696246079248,0.35913086,-1.1016235,0.0021362305,-7.4375,17.84375,1.84375,426
1696246079288,0.2998047,-1.2261353,0.1473999,-7.0625,33.109375,5.296875,427
1696246079328,0.32421875,-1.4280396,0.27996826,-8.828125,20.40625,-1.859375,428
1696246079368,0.57373047,-1.2805786,-0.23516846,-23.296875,-16.296875,-3.875,429
1696246079408,0.15405273,-1.4141235,-0.032287598,15.09375,-21.5625,8.703125,430
1696246079448,1.2487793,-1.065979,0.030700684,-5.8125,-4.546875,7.359375,431
1696246079488,0.47558594,-0.5930786,0.036315918,15.1875,-31.9375,0.734375,432
1696246079528,0.25048828,-0.77960205,-0.003479004,2.40625,1.203125,7.0625,433
1696246079568,-0.016601562,-0.6902466,0.29852295,1.8125,-6.734375,-3.921875,434
1696246079608,-0.056640625,-0.647522,0.25726318,6.65625,-30.078125,-6.171875,435
1696246079648,0.07519531,-0.5479126,0.10076904,-0.4375,-24.0625,-4.40625,436
1696246079688,0.28759766,-0.5371704,0.10394287,-6.515625,-22.234375,-2.046875,437
1696246079728,0.35668945,-0.70440674,0.07220459,-11.984375,-12.0625,-10.9375,438
1696246079768,0.33740234,-1.0064087,0.385437,4.90625,-8.875,-13.25,439
1696246079808,0.45996094,-1.522522,0.43841553,5.984375,-23.796875,2.359375,440
1696246079848,0.35180664,-1.4060669,0.20501709,-3.5,-15.125,-3.578125,441
1696246079888,0.2644043,-1.4959106,0.168396,8.0625,-29.078125,-4.828125,442
1696246079928,0.30541992,-1.3218384,-0.057678223,23.71875,-6.90625,4.9375,443
1696246079968,0.25952148,-0.87506104,-0.10626221,-1.171875,24.21875,7.4375,444
1696246080008,0.17993164,-0.7883911,0.08465576,6.640625,28.234375,11.53125,445
1696246080048,0.16552734,-0.75372314,0.13861084,9.5625,-0.3125,6.703125,446
1696246080088,0.07495117,-0.6946411,0.124938965,15.875,0.84375,4.171875,447
1696246080128,0.049804688,-0.58673096,0.16668701,17.4375,25.65625,13.390625,448
1696246080168,0.11645508,-0.60357666,0.09686279,17.046875,7.046875,12.109375,449
1696246080208,0.1328125,-0.7576294,0.005065918,0.1875,15.265625,3.65625,450
1696246080248,0.095214844,-0.97784424,0.005554199,-11.953125,18.796875,-0.09375,451
1696246080288,0.21044922,-1.2700806,0.113708496,-19.953125,23.734375,6.078125,452
1696246080328,0.4892578,-1.4746704,0.25457764,-18.453125,-0.859375,-0.28125,453
1696246080368,0.51049805,-1.6192017,-0.10089111,-32.078125,-5.875,3.890625,454
1696246080408,0.18041992,-1.5723267,0.074401855,-2.296875,22.59375,9.828125,455
1696246080448,1.0056152,-0.85040283,-0.09820557,-16.984375,-11.75,-0.09375,456
1696246080488,0.42895508,-0.6409302,0.023376465,8.1875,-21.71875,-9.625,457
1696246080528,0.39233398,-0.54937744,0.12347412,6.5,-11.890625,-12.921875,458
1696246080568,0.11767578,-0.5628052,0.15423584,2.5,-10.578125,3.78125,459
1696246080608,0.017089844,-0.64849854,0.2584839,-4.921875,-22.46875,11.578125,460
1696246080648,-0.064208984,-0.74468994,0.22601318,-10.03125,-18.375,14.21875,461
1696246080688,0.11987305,-0.6345825,0.17132568,4.015625,4.78125,1.125,462
1696246080728,0.24316406,-0.7227173,0.15716553,-3.953125,4.453125,-16.109375,463
1696246080768,0.42456055,-0.87286377,0.33294678,0.734375,-11.53125,-17.09375,464
1696246080808,0.44482422,-1.3296509,0.38079834,3.78125,-22.390625,-3.140625,465
1696246080848,0.5437012,-1.6143188,0.3685913,9.5,-8.03125,7.4375,466
1696246080888,0.45385742,-1.5852661,0.04486084,22.125,1.421875,2.984375,467
1696246080928,0.30688477,-1.3875122,0.006286621,17.171875,13.421875,5.90625,468
1696246080968,0.2722168,-0.91241455,0.018005371,-20.46875,31.796875,-13.78125,469
1696246081008,0.12109375,-0.6790161,-0.030090332,-5.203125,28.75,-13.421875,470
1696246081048,0.07397461,-0.5239868,0.07611084,18.59375,-0.78125,-4.9375,471
1696246081088,0.13769531,-0.68463135,0.06561279,24.78125,8.890625,-3.09375,472
1696246081128,0.2861328,-0.6445923,0.26483154,-1.640625,39.296875,13.484375,473
1696246081168,0.16870117,-0.5615845,0.18255615,20.953125,9.078125,15.90625,474
1696246081208,0.0034179688,-0.6812134,-0.05670166,-3.40625,16.375,17.53125,475
1696246081248,-0.03564453,-1.0093384,-0.109680176,-27.578125,12.984375,22.171875,476
1696246081288,0.27783203,-1.8821411,0.27557373,-4.84375,0.34375,-1.125,477
1696246081328,0.8864746,-1.5530396,0.035583496,12.984375,-28.59375,-9.140625,478
1696246081368,0.5317383,-1.4038696,-0.07867432,-7.296875,-5.59375,4.515625,479
1696246081408,0.9536133,-1.2078247,-0.005432129,-19.4375,23.65625,-1.96875,480
1696246081448,0.6286621,-0.6951294,-0.07745361,-4.765625,-19.578125,6.421875,481
1696246081488,0.3659668,-0.6013794,0.0138549805,13.390625,-22.1875,-5.015625,482
1696246081528,0.2841797,-0.6565552,0.10369873,-7.3125,-5.296875,-9.15625,483
1696246081568,0.056396484,-0.7085571,0.2020874,2.4375,-15.453125,0.296875,484
1696246081608,-0.026123047,-0.69000244,0.22088623,-0.21875,-22.390625,7.296875,485
1696246081648,0.11791992,-0.56866455,0.18548584,-12.484375,-8.109375,0.765625,486
1696246081688,0.25146484,-0.55548096,0.11810303,-17.40625,6.953125,-13.359375,487
1696246081728,0.44067383,-0.6572876,0.31195068,5.28125,-15.75,-12.09375,488
1696246081768,0.51171875,-1.055481,0.3805542,8.46875,-27.703125,-1.453125,489
1696246081808,0.4711914,-1.4365845,0.42718506,-8.125,-24.578125,0.84375,490
1696246081848,0.27612305,-1.4363403,0.168396,-4.578125,-12.53125,-14.9375,491
1696246081888,0.1850586,-1.3831177,0.101745605,41.953125,3.71875,-5.5625,492
1696246081928,0.42651367,-1.3919067,0.05340576,5.34375,19.890625,-1.890625,493
1696246081968,0.1809082,-0.87506104,0.013366699,-25.3125,40.140625,0.359375,494
1696246082008,0.20947266,-0.6670532,0.0067749023,-7.15625,25.4375,-3.28125,495
1696246082048,0.08544922,-0.6482544,0.06561279,11.609375,-4.3125,-6.4375,496
1696246082088,0.19189453,-0.67510986,0.039489746,15.140625,21.40625,0.5625,497
1696246082128,0.25341797,-0.5930786,0.2230835,0.96875,33.375,18.109375,498
1696246082168,0.20117188,-0.63360596,0.12054443,10.09375,7.140625,21.8125,499
1696246082208,0.043701172,-0.92633057,0.15911865,-15.25,14.9375,14.25,500
1696246082248,0.0036621094,-1.1765747,0.15863037,11.171875,3.3125,4.375,501
1696246082288,0.32299805,-1.3574829,0.2399292,16.796875,7.96875,-9.953125,502
1696246082328,0.43017578,-1.2766724,0.17156982,-7.8125,8.859375,-5.203125,503
1696246082368,0.4580078,-1.3399048,-0.3098755,-30.65625,-12.578125,11.359375,504
1696246082408,0.12182617,-1.2463989,-0.17266846,-16.671875,17.671875,10.390625,505
1696246082448,0.9277344,-0.92266846,-0.13555908,-23.375,20.203125,-5.828125,506
1696246082488,0.23730469,-0.73443604,-0.093322754,-10.0,12.09375,-14.53125,507
1696246082528,0.4375,-0.7918091,0.042907715,-22.34375,34.5,-28.640625,508
1696246082568,0.1430664,-0.7163696,0.20159912,-39.25,20.703125,-19.703125,509
1696246082608,0.09350586,-0.66778564,0.20135498,-32.625,5.984375,-2.09375,510
1696246082648,0.1262207,-0.7295532,0.19696045,-21.671875,17.90625,3.6875,511
1696246082688,0.15234375,-0.6531372,0.15325928,-27.890625,32.875,-4.390625,512
1696246082728,0.26293945,-0.6482544,0.19573975,10.78125,20.03125,-20.421875,513
1696246082768,0.24975586,-0.71051025,0.28778076,2.25,21.75,-17.28125,514
1696246082808,0.23413086,-0.8621216,0.29656982,-21.03125,36.96875,-1.578125,515
1696246082848,0.2602539,-0.96539307,0.48602295,-7.40625,34.140625,5.0,516
1696246082888,0.19213867,-0.9522095,0.416687,-1.765625,21.703125,-0.1875,517
1696246082928,0.1171875,-0.9163208,0.34906006,-11.953125,16.265625,-5.84375,518
1696246082968,0.1081543,-1.0195923,0.29241943,-25.0,24.359375,-18.796875,519
1696246083008,0.2866211,-1.3650513,0.14154053,-18.71875,21.9375,-23.890625,520
1696246083048,0.47436523,-1.5198364,0.078308105,11.65625,25.921875,-5.8125,521
1696246083088,0.36889648,-1.0283813,0.05682373,-9.53125,61.734375,9.21875,522
1696246083128,-0.15356445,-0.5906372,0.109069824,2.046875,76.171875,-13.0,523
1696246083168,0.04321289,-0.50616455,-0.051574707,-3.140625,34.296875,-5.28125,524
1696246083208,0.07128906,-0.74591064,0.058044434,-41.34375,27.28125,-23.90625,525
1696246083248,-0.07446289,-1.347229,0.09906006,28.734375,41.890625,22.578125,526
1696246083288,0.2788086,-1.1135864,0.22332764,27.5625,49.09375,11.484375,527
1696246083328,0.03173828,-0.8032837,0.10614014,-3.296875,64.5,-4.546875,528
1696246083368,-0.07104492,-0.8772583,0.16448975,-13.6875,48.984375,-4.71875,529
1696246083408,0.0029296875,-0.9055786,0.19134521,-17.265625,23.75,-7.546875,530
1696246083448,0.23803711,-1.0254517,0.15057373,-18.796875,18.796875,-9.578125,531
1696246083488,0.3852539,-1.0855103,0.1161499,-21.890625,24.515625,-7.6875,532
1696246083528,0.3635254,-0.9824829,0.15496826,-28.578125,14.328125,-4.359375,533
1696246083568,0.4909668,-1.1885376,0.046813965,-22.46875,0.53125,-4.5,534
1696246083608,0.7910156,-0.9673462,0.1671753,3.59375,9.171875,11.046875,535
1696246083648,0.41748047,-0.78253174,0.14129639,-11.125,15.109375,5.1875,536
1696246083688,-0.20336914,-1.2202759,0.098083496,16.78125,-9.984375,11.15625,537
1696246083728,0.03173828,-1.006897,0.30194092,-0.46875,13.015625,-5.03125,538
1696246083768,0.29370117,-0.8587036,0.1605835,-7.515625,-11.71875,-16.953125,539
1696246083808,0.46362305,-0.81085205,0.12835693,0.71875,-5.6875,-20.984375,540
1696246083848,0.60375977,-0.8826294,0.38739014,-19.09375,22.8125,0.5,541
1696246083888,0.36938477,-0.8118286,0.29412842,-35.1875,18.296875,17.25,542
1696246083928,0.04711914,-0.80352783,0.2736206,5.203125,1.765625,4.453125,543
1696246083968,0.044921875,-0.99591064,0.2345581,-11.734375,2.53125,-18.15625,544
1696246084008,0.24902344,-1.2549438,0.24407959,14.578125,-9.0,-24.859375,545
1696246084048,0.5358887,-0.97540283,0.21575928,24.984375,-4.390625,-7.015625,546
1696246084088,0.49536133,-0.7842407,0.109069824,-7.515625,21.015625,16.140625,547
1696246084128,0.26464844,-0.7151489,0.20428467,-27.078125,21.734375,8.46875,548
1696246084168,-0.00024414062,-0.78863525,0.18353271,-2.203125,-0.375,-5.484375,549
1696246084208,0.035888672,-1.1084595,0.27679443,7.265625,-11.953125,-7.046875,550
1696246084248,0.23999023,-1.3081665,0.45599365,19.96875,-0.0625,-3.9375,551
1696246084288,0.37573242,-0.98638916,0.19573975,2.875,12.546875,6.359375,552
1696246084328,0.31982422,-0.7554321,0.13397217,-4.890625,20.25,-6.125,553
1696246084368,0.20654297,-0.8460083,0.21209717,-7.796875,3.78125,-5.859375,554
1696246084408,0.17041016,-0.90167236,0.3336792,3.65625,-5.359375,0.0,555
1696246084448,0.2475586,-1.1348267,0.34222412,4.796875,-4.6875,7.078125,556
1696246084488,0.2548828,-1.0176392,0.26898193,2.75,-6.015625,3.4375,557
1696246084528,0.2475586,-0.92266846,0.25726318,-0.625,-9.390625,-9.734375,558
1696246084568,0.22558594,-0.89263916,0.18328857,2.375,-10.203125,-7.890625,559
1696246084608,0.17773438,-0.8713989,0.23968506,15.75,-6.9375,-5.734375,560
1696246084648,0.1430664,-0.8616333,0.19647217,7.234375,14.15625,3.921875,561
1696246084688,0.01586914,-0.95880127,0.2670288,-9.5625,15.578125,6.625,562
1696246084728,0.036621094,-1.2783813,0.42010498,7.828125,-4.796875,-3.9375,563
1696246084768,0.19848633,-1.1641235,0.49066162,27.046875,-15.59375,2.453125,564
1696246084808,0.22265625,-0.9336548,0.28118896,39.015625,2.375,1.046875,565
1696246084848,0.20874023,-0.694397,0.13909912,29.515625,6.578125,10.109375,566
1696246084888,0.06274414,-0.81378174,-0.006652832,4.453125,12.140625,15.421875,567
1696246084928,0.009033203,-1.013977,0.18109131,-23.40625,23.515625,19.015625,568
1696246084968,0.11401367,-1.1853638,0.3546753,11.875,18.0,1.125,569
1696246085008,0.23608398,-1.1885376,0.37835693,6.28125,-0.375,1.6875,570
1696246085048,0.40283203,-1.3342896,0.41522217,-17.5625,-4.078125,-0.828125,571
1696246085088,0.36376953,-1.5227661,-0.20465088,-4.375,-1.125,13.6875,572
1696246085128,0.45629883,-1.4214478,-0.190979,8.203125,-4.765625,9.046875,573
1696246085168,1.3129883,-1.2659302,-0.04815674,0.859375,-3.328125,4.40625,574
1696246085208,0.31640625,-0.8401489,0.011657715,14.953125,8.90625,4.1875,575
1696246085248,0.3112793,-0.65753174,0.08026123,5.90625,-2.390625,-2.140625,576
1696246085288,0.2709961,-0.60040283,0.054138184,-10.5,-22.921875,-5.6875,577
1696246085328,0.015136719,-0.62384033,0.19744873,-7.671875,-22.078125,-2.765625,578
1696246085368,-0.115478516,-0.67193604,0.15765381,-2.125,-2.609375,2.40625,579
1696246085408,0.14086914,-0.61676025,0.12664795,4.921875,4.609375,-1.75,580
1696246085448,0.30493164,-0.58135986,0.09613037,2.59375,-6.34375,-4.65625,581
1696246085488,0.4675293,-0.6885376,0.15887451,4.34375,-18.3125,-6.71875,582
1696246085528,0.51220703,-0.99591064,0.29632568,7.265625,-20.265625,-1.1875,583
1696246085568,0.5036621,-1.4212036,0.4545288,7.125,-15.75,8.765625,584
1696246085608,0.35742188,-1.317688,0.21746826,7.796875,-16.6875,-6.171875,585
1696246085648,0.34643555,-1.5403442,-0.08673096,39.859375,-28.96875,-9.328125,586
1696246085688,0.5957031,-1.7920532,0.23822021,13.609375,-9.203125,4.578125,587
1696246085728,0.30151367,-0.8508911,-0.05670166,-33.53125,46.3125,5.09375,588
1696246085768,0.24682617,-0.57037354,-0.09527588,-32.796875,28.234375,-2.4375,589
1696246085808,0.140625,-0.40216064,-0.07574463,23.921875,-9.109375,1.6875,590
1696246085848,-0.06713867,-0.7654419,0.16815186,33.53125,-1.546875,-0.90625,591
1696246085888,0.09887695,-0.6050415,0.20037842,13.1875,22.0625,11.609375,592
1696246085928,0.12182617,-0.60772705,0.039733887,23.359375,8.125,9.328125,593
1696246085968,0.18676758,-0.678772,-0.0037231445,0.9375,18.140625,3.453125,594
1696246086008,0.119140625,-1.0044556,-0.018371582,-34.125,13.828125,1.640625,595
1696246086048,0.24584961,-1.4678345,0.32122803,1.46875,25.296875,2.9375,596
1696246086088,0.4609375,-1.4434204,0.22772217,-13.875,20.21875,0.125,597
1696246086128,0.4958496,-1.3723755,-0.28179932,-24.53125,-10.484375,-0.25,598
1696246086168,0.4633789,-1.5918579,-0.005432129,-21.21875,2.703125,-0.390625,599
1696246086208,1.1806641,-1.015686,0.0067749023,-6.75,-6.5625,5.421875,600
1696246086248,0.45092773,-0.6577759,0.070495605,8.0625,-21.1875,-10.328125,601
1696246086288,0.43603516,-0.67852783,0.0289917,1.984375,-19.34375,-7.859375,602
1696246086328,0.07910156,-0.6170044,0.097839355,1.15625,-12.359375,-0.875,603
1696246086368,0.0234375,-0.57891846,0.28997803,1.625,-27.484375,-1.015625,604
1696246086408,-0.03466797,-0.72491455,0.1876831,2.4375,-4.171875,1.046875,605
1696246086448,0.040771484,-0.68096924,0.21722412,0.40625,6.171875,6.921875,606
1696246086488,0.26123047,-0.52349854,0.11810303,2.921875,-0.09375,-8.75,607
1696246086528,0.40112305,-0.6465454,0.26605225,2.625,-8.9375,-15.828125,608
1696246086568,0.4736328,-1.0715942,0.3234253,10.609375,-33.3125,-8.484375,609
1696246086608,0.6533203,-1.5725708,0.54608154,0.828125,-14.265625,22.625,610
1696246086648,0.42895508,-1.3692017,0.13201904,0.265625,-23.328125,-9.46875,611
1696246086688,0.25756836,-1.6262817,0.0680542,17.046875,1.421875,-2.484375,612
1696246086728,0.28295898,-1.2039185,-0.06427002,12.09375,13.15625,4.890625,613
1696246086768,0.14868164,-0.8530884,0.06561279,-21.171875,40.859375,-4.3125,614
1696246086808,0.11694336,-0.67315674,0.053649902,-10.296875,8.328125,2.640625,615
1696246086848,0.14526367,-0.7366333,0.03265381,22.46875,-22.734375,-4.859375,616
1696246086888,0.26904297,-0.74957275,0.17938232,16.625,8.34375,3.125,617
1696246086928,0.20751953,-0.5437622,0.17230225,25.125,20.546875,7.171875,618
1696246086968,0.096191406,-0.46881104,0.055847168,17.671875,11.65625,13.78125,619
1696246087008,-0.06274414,-0.6655884,0.04510498,-11.984375,22.671875,16.71875,620
1696246087048,0.029052734,-1.1221313,0.047058105,-11.90625,10.90625,7.796875,621
1696246087088,0.35058594,-1.7488403,0.24945068,16.921875,8.5625,-19.40625,622
1696246087128,0.82006836,-1.3765259,0.45111084,-0.6875,-6.046875,-0.734375,623
1696246087168,0.6369629,-1.4585571,-0.34527588,-23.84375,-11.34375,9.203125,624
1696246087208,0.29907227,-1.4668579,-0.08477783,-26.703125,7.34375,12.5625,625
1696246087248,1.1516113,-0.7127075,-0.09674072,-24.015625,-4.09375,0.328125,626
1696246087288,0.111328125,-0.70098877,-0.008117676,14.125,-6.171875,-5.4375,627
1696246087328,0.30126953,-0.6712036,0.10394287,-2.171875,-9.546875,-12.234375,628
1696246087368,-0.037353516,-0.59454346,0.18792725,2.03125,-26.171875,-2.59375,629
1696246087408,-0.12524414,-0.803772,0.06536865,3.640625,2.203125,14.703125,630
1696246087448,0.075683594,-1.1777954,0.23480225,4.328125,12.0,2.8125,631
1696246087488,0.4729004,-1.4370728,0.49041748,7.875,16.8125,-3.0,632
1696246087528,0.46606445,-1.2571411,0.23797607,-4.765625,8.21875,0.328125,633
1696246087568,0.1015625,-1.4414673,-0.08258057,-0.21875,1.59375,9.875,634
1696246087608,0.57714844,-1.7200317,-0.16339111,-7.734375,2.25,8.375,635
1696246087648,1.232666,-1.1895142,-0.059631348,13.984375,4.140625,11.25,636
1696246087688,0.3515625,-0.7671509,-0.009338379,-2.375,18.015625,-7.140625,637
1696246087728,0.39038086,-0.51519775,0.038513184,5.453125,-13.328125,-20.59375,638
1696246087768,0.21679688,-0.58477783,0.07318115,-16.71875,-13.09375,-2.3125,639
1696246087808,0.21313477,-0.7317505,0.1708374,-2.546875,-28.859375,-2.828125,640
1696246087848,0.20532227,-0.81329346,0.12322998,-1.921875,-13.9375,6.78125,641
1696246087888,0.10083008,-0.73321533,0.22796631,-9.0625,19.015625,8.671875,642
1696246087928,0.2019043,-0.5874634,0.21942139,0.015625,3.5625,-11.203125,643
1696246087968,0.3713379,-0.59503174,0.15472412,-6.0625,-8.140625,-13.1875,644
1696246088008,0.41625977,-0.93829346,0.2880249,0.328125,-42.90625,-5.4375,645
1696246088048,0.61083984,-1.421936,0.46844482,0.515625,-33.015625,-3.734375,646
1696246088088,0.36547852,-1.3040161,0.07977295,-10.328125,-13.671875,-7.21875,647
1696246088128,0.27856445,-1.5125122,0.061706543,32.03125,16.171875,10.453125,648
1696246088168,0.42944336,-1.1587524,-0.065979004,4.09375,14.625,6.796875,649
1696246088208,0.24316406,-0.80426025,-0.014709473,-17.109375,29.140625,-11.609375,650
1696246088248,0.025146484,-0.6399536,-0.09844971,-3.625,13.625,-5.046875,651
1696246088288,-0.107910156,-0.8311157,0.07489014,38.4375,1.609375,-0.03125,652
1696246088328,0.1459961,-0.72979736,0.10076904,3.921875,25.3125,0.671875,653
1696246088368,0.3125,-0.5720825,0.14324951,24.515625,28.15625,9.34375,654
1696246088408,0.22509766,-0.62750244,0.024841309,19.453125,18.203125,18.609375,655
1696246088448,0.1328125,-0.76226807,0.058044434,-13.484375,22.28125,18.296875,656
1696246088488,0.072509766,-1.180481,0.081970215,-26.53125,14.25,14.75,657
1696246088528,0.24633789,-1.7178345,0.32733154,16.609375,8.421875,-5.9375,658
1696246088568,0.63671875,-1.3584595,0.30438232,-3.4375,5.734375,-0.140625,659
1696246088608,0.7897949,-1.3687134,-0.26055908,-19.375,-32.078125,2.140625,660
1696246088648,0.42211914,-1.3650513,-0.14703369,-1.625,9.359375,13.71875,661
1696246088688,1.0839844,-0.7085571,-0.03765869,-35.3125,0.0625,6.375,662
1696246088728,0.19726562,-0.5901489,-0.06866455,3.6875,-18.375,-4.78125,663
1696246088768,0.32348633,-0.6983032,0.074401855,3.21875,-18.375,-17.921875,664
1696246088808,0.07421875,-0.63531494,0.20941162,2.140625,-13.046875,-8.046875,665
1696246088848,0.061767578,-0.5418091,0.12615967,-8.84375,-12.796875,3.65625,666
1696246088888,0.16381836,-0.6248169,0.14666748,-12.53125,-14.328125,9.359375,667
1696246088928,0.19873047,-0.6604614,0.11834717,-2.0625,1.234375,-2.109375,668
1696246088968,0.34033203,-0.7398071,0.23529053,-8.375,7.078125,-12.59375,669
1696246089008,0.42944336,-0.93170166,0.30267334,5.75,-19.921875,-4.78125,670
1696246089048,0.4946289,-1.1924438,0.40252686,3.609375,-25.75,-3.78125,671
1696246089088,0.3881836,-1.2730103,0.30023193,-3.140625,-15.84375,-14.015625,672
1696246089128,0.38671875,-1.4380493,0.08514404,16.59375,-17.984375,-7.390625,673
1696246089168,0.49072266,-1.7634888,0.13104248,32.296875,6.671875,4.9375,674
1696246089208,0.08691406,-0.7527466,-0.11016846,34.265625,-19.34375,6.90625,766
1696246089248,0.13745117,-1.0210571,0.03363037,58.78125,-18.015625,-7.8125,767
1696246089288,0.40527344,-0.8699341,0.18450928,15.59375,15.796875,1.578125,768
1696246089328,0.35742188,-0.60113525,0.05267334,11.65625,13.96875,-14.03125,769
1696246089368,0.07006836,-0.4109497,0.14642334,-11.390625,17.28125,-1.359375,770
1696246089408,-0.140625,-0.57696533,-0.0178833,15.75,-4.25,18.625,771
1696246089448,-0.16259766,-1.0579224,0.07977295,23.765625,-9.484375,32.84375,772
1696246089488,0.3310547,-1.4519653,-0.0025024414,-9.84375,4.671875,-2.40625,773
1696246089528,0.9494629,-1.4939575,0.291687,-23.90625,-7.09375,2.578125,774
1696246089568,0.5683594,-1.1729126,-0.3164673,-47.46875,-11.8125,3.796875,775
1696246089608,0.1965332,-1.5413208,-0.18829346,-35.109375,-1.03125,14.28125,776
1696246089648,0.9033203,-0.9949341,-0.0095825195,-25.390625,-2.625,-3.859375,777
1696246089688,0.3840332,-0.65997314,-0.06036377,8.453125,-25.265625,-26.625,778
1696246089728,0.4033203,-0.5601196,0.024597168,3.796875,-11.28125,-18.921875,779
1696246089768,0.25512695,-0.51348877,0.17327881,-5.78125,-17.078125,-7.140625,780
1696246089808,0.11303711,-0.5125122,0.22381592,2.59375,-33.1875,8.609375,781
1696246089848,0.06542969,-0.66070557,0.22015381,10.078125,-25.296875,20.53125,782
1696246089888,-0.024414062,-0.8616333,0.19793701,-11.03125,11.109375,7.828125,783
1696246089928,0.103271484,-0.74102783,0.22381592,-2.28125,20.3125,-22.421875,784
1696246089968,0.29907227,-0.72979736,0.30194092,0.78125,-12.78125,-24.484375,785
1696246090008,0.41015625,-0.9714966,0.31781006,2.65625,-22.265625,-16.78125,786
1696246090048,0.7219238,-1.4483032,0.47943115,-1.734375,-12.109375,-1.578125,787
1696246090088,0.52905273,-1.447815,0.2177124,7.6875,-13.609375,4.625,788
1696246090128,0.17553711,-1.5515747,0.2008667,6.6875,18.25,9.90625,789
1696246090168,0.14477539,-1.3045044,0.08026123,11.265625,7.203125,4.21875,790
1696246090208,0.18945312,-0.866272,-0.029846191,-19.921875,27.15625,3.84375,791
1696246090248,0.21142578,-0.5823364,-0.10870361,-2.671875,13.25,-6.234375,792
1696246090288,-0.006591797,-0.848938,0.07562256,24.03125,2.515625,-7.21875,793
1696246090328,0.17675781,-0.7781372,0.18865967,16.546875,20.78125,2.578125,794
1696246090368,0.29345703,-0.6277466,0.10418701,33.0625,29.921875,8.96875,795
1696246090408,0.052734375,-0.51885986,0.09051514,23.453125,1.59375,8.78125,796
1696246090448,0.09765625,-0.4673462,0.07269287,11.359375,15.546875,6.453125,797
1696246090488,0.07128906,-0.84259033,0.0524292,-15.515625,17.328125,10.65625,798
1696246090528,0.2241211,-1.4749146,0.097839355,-34.390625,10.40625,5.9375,799
1696246090568,0.8725586,-1.765686,0.50286865,5.65625,3.203125,-2.125,800
1696246090608,0.5888672,-1.4539185,-0.15167236,-14.625,-7.296875,5.328125,801
1696246090648,0.14550781,-1.4199829,-0.3760376,-10.234375,2.984375,24.140625,802
1696246090688,0.8347168,-1.0488892,-0.12213135,-9.65625,-2.03125,-5.484375,803
1696246090728,0.51660156,-0.67071533,0.038269043,5.15625,-9.5,-11.65625,804
1696246090768,0.39038086,-0.6868286,0.05218506,6.46875,-13.40625,-9.21875,805
1696246090808,0.14477539,-0.6445923,0.10101318,2.4375,-20.296875,-0.109375,806
1696246090848,0.013427734,-0.6514282,0.21453857,-14.84375,-23.046875,-5.75,807
1696246090888,-0.0026855469,-0.36627197,0.11004639,-12.5,-19.140625,-7.265625,808
1696246090928,0.06982422,-0.54937744,0.13934326,-14.546875,14.921875,2.75,809
1696246090968,0.24389648,-0.5784302,0.18084717,-12.21875,13.28125,-10.578125,810
1696246091008,0.3486328,-0.7647095,0.32684326,2.8125,-4.71875,-9.453125,811
1696246091048,0.49731445,-1.1126099,0.34466553,16.15625,-23.296875,-6.265625,812
1696246091088,0.7207031,-1.8301392,0.371521,16.703125,-12.84375,30.796875,813
1696246091128,0.50561523,-1.3076782,0.13104248,-6.859375,-6.578125,9.921875,814
1696246091168,0.32080078,-1.3428345,-0.078430176,7.90625,-5.71875,-12.28125,815
1696246091208,0.30297852,-1.3713989,0.17547607,19.015625,-2.859375,-6.84375,816
1696246091248,0.31030273,-1.0125122,-0.09503174,-18.40625,23.546875,8.203125,817
1696246091288,0.14208984,-0.5527954,0.004333496,-23.34375,26.1875,2.875,818
1696246091328,0.107421875,-0.5491333,-0.03717041,3.640625,-0.84375,2.140625,819
1696246091368,0.022216797,-0.6917114,0.07244873,18.671875,-8.1875,-0.421875,820
1696246091408,0.16455078,-0.6917114,0.18255615,8.09375,35.421875,6.46875,821
1696246091448,0.18945312,-0.6734009,0.24041748,31.765625,12.125,7.203125,822
1696246091488,0.19311523,-0.61676025,0.03363037,11.703125,12.03125,6.0625,823
1696246091528,0.16748047,-0.96588135,-0.031555176,-24.09375,10.59375,6.203125,824
1696246091568,0.09082031,-1.2805786,0.13128662,-15.078125,17.4375,2.265625,825
1696246091608,0.6022949,-1.534729,0.37469482,-12.484375,1.53125,-3.296875,826
1696246091648,0.6801758,-1.3665161,-0.116760254,-24.921875,-19.484375,-2.515625,827
1696246091688,0.15722656,-1.5264282,-0.06915283,-15.609375,-9.609375,6.609375,828
1696246091728,0.87768555,-1.0169067,0.042907715,-18.3125,6.109375,0.84375,829
1696246091768,0.5498047,-0.66363525,0.090270996,-0.640625,-14.609375,-6.0625,830
1696246091808,0.52612305,-0.6433716,0.07757568,7.53125,-22.875,-26.359375,831
1696246091848,0.07519531,-0.725647,0.16888428,-9.5,-15.171875,-5.25,832
1696246091888,0.07128906,-0.67388916,0.34954834,7.484375,-17.046875,10.625,833
1696246091928,0.04321289,-0.7022095,0.15692139,9.484375,-3.828125,11.671875,834
1696246091968,0.119140625,-0.5640259,0.1395874,-7.953125,11.0,1.96875,835
1696246092008,0.17797852,-0.5430298,0.17889404,9.203125,6.234375,-20.078125,836
1696246092048,0.34643555,-0.5774536,0.2982788,4.875,1.15625,-13.65625,837
1696246092088,0.31689453,-0.9639282,0.33441162,3.15625,-19.921875,2.125,838
1696246092128,0.5871582,-1.4746704,0.44525146,13.96875,-17.515625,20.75,839
1696246092168,0.58496094,-1.690979,0.230896,13.578125,-9.828125,-4.59375,840
1696246092208,0.35302734,-1.5142212,0.016540527,16.203125,0.609375,0.265625,841
1696246092248,0.42504883,-1.3030396,0.08392334,5.78125,-14.46875,-0.9375,842
