# Sensor type: Thingy
# Activity type: Standing
# Activity subtype: Normal
# Subject id: s2104760
# Notes: 
timestamp,accel_x,accel_y,accel_z,gyro_x,gyro_y,gyro_z,mag_x,mag_y,mag_z
1695657786577,-1.0009766,0.025390625,-0.0107421875,-4.03125,1.1875,-0.3125,0.0,0.0,0.0
1695657786629,-0.9892578,0.0390625,-0.0029296875,-2.03125,1.5625,-0.3125,0.0,0.0,0.0
1695657786681,-0.99316406,0.049804688,-0.0048828125,-3.25,1.25,-0.6875,0.0,0.0,0.0
1695657786707,-0.99121094,0.032226562,0.0,-1.28125,1.4375,-0.125,0.0,0.0,0.0
1695657786732,-0.99121094,0.013671875,0.0048828125,-0.0625,2.71875,-0.84375,0.0,0.0,0.0
1695657786785,-0.9941406,0.041992188,0.0126953125,0.375,4.3125,-2.03125,-23.375,18.1875,-66.625
1695657786812,-0.9794922,0.038085938,-0.005859375,0.0625,5.875,-1.59375,0.0,0.0,0.0
1695657786892,-0.9902344,0.056640625,-0.009765625,-2.875,5.875,-0.5625,0.0,0.0,0.0
1695657786895,-0.9951172,0.059570312,-0.0048828125,-5.3125,4.25,-0.4375,0.0,0.0,0.0
1695657786943,-0.9716797,0.055664062,-0.01953125,-7.375,5.40625,0.125,0.0,0.0,0.0
1695657786995,-0.9580078,0.026367188,-0.055664062,-9.59375,13.28125,0.90625,0.0,0.0,0.0
1695657787023,-0.97753906,0.033203125,-0.033203125,-12.75,18.65625,1.71875,0.0,0.0,0.0
1695657787049,-1.0341797,0.049804688,-0.020507812,-13.90625,18.59375,1.9375,0.0,0.0,0.0
1695657787101,-0.9736328,0.026367188,-0.09082031,-11.46875,17.78125,2.4375,0.0,0.0,0.0
1695657787127,-1.0546875,0.07128906,-0.08984375,-11.40625,16.125,2.625,0.0,0.0,0.0
1695657787208,-1.0185547,0.087890625,-0.017578125,-10.6875,2.53125,1.53125,0.0,0.0,0.0
1695657787217,-1.0214844,0.09765625,-0.12792969,-11.15625,-4.6875,2.5625,0.0,0.0,0.0
1695657787259,-0.99121094,0.034179688,-0.11230469,-9.21875,-4.5,2.875,0.0,0.0,0.0
1695657787311,-0.95996094,0.07714844,-0.15039062,-13.5,-3.4375,4.34375,-24.0,19.0625,-68.625
1695657787338,-0.9785156,0.05078125,-0.26171875,-14.21875,-2.53125,7.6875,0.0,0.0,0.0
1695657787364,-1.0527344,0.12988281,-0.16210938,30.46875,-73.53125,38.03125,0.0,0.0,0.0
1695657787417,-0.9296875,0.11621094,0.123046875,-10.5625,2.28125,-1.28125,0.0,0.0,0.0
1695657787470,-1.0380859,-0.09667969,-0.20019531,-33.75,17.84375,18.625,0.0,0.0,0.0
1695657787521,-0.95703125,0.05859375,-0.08984375,3.125,-8.53125,14.65625,0.0,0.0,0.0
1695657787547,-1.0253906,0.16210938,0.059570312,17.5,-9.96875,16.78125,0.0,0.0,0.0
1695657787579,-1.0986328,0.11621094,0.33691406,-1.84375,-17.6875,7.75,0.0,0.0,0.0
1695657787627,-1.0166016,0.0068359375,-0.19824219,16.0,84.5,26.375,0.0,0.0,0.0
1695657787652,-0.9375,0.025390625,0.016601562,18.6875,-2.90625,6.90625,0.0,0.0,0.0
1695657787733,-1.1210938,0.203125,0.07910156,15.4375,-6.125,3.40625,0.0,0.0,0.0
1695657787738,-1.0322266,0.32128906,0.44433594,27.40625,17.71875,7.3125,0.0,0.0,0.0
1695657787785,-0.7314453,0.107421875,-0.41015625,-29.59375,6.1875,5.1875,-21.625,22.0625,-62.0
1695657787837,-0.9941406,0.037109375,0.14550781,0.25,-8.21875,6.59375,0.0,0.0,0.0
1695657787864,-1.0214844,0.07421875,0.13769531,13.3125,-10.40625,-3.53125,0.0,0.0,0.0
1695657787891,-1.1679688,0.115234375,0.3125,17.15625,32.3125,-12.15625,0.0,0.0,0.0
1695657787967,-0.98535156,0.23144531,0.045898438,25.3125,-9.875,3.96875,0.0,0.0,0.0
1695657787971,-1.0058594,0.19726562,0.0703125,21.84375,-1.875,-1.15625,0.0,0.0,0.0
1695657788048,-0.61816406,0.0859375,-1.8251953,-67.75,-92.9375,-4.75,0.0,0.0,0.0
1695657788052,-0.97558594,0.06933594,0.06347656,9.875,77.78125,-16.71875,0.0,0.0,0.0
1695657788099,-1.0078125,0.123046875,0.091796875,-17.6875,28.71875,-16.84375,0.0,0.0,0.0
1695657788151,-1.0478516,0.10839844,0.032226562,-19.03125,28.03125,-24.46875,0.0,0.0,0.0
1695657788178,-1.0556641,0.35546875,0.8017578,-12.5,10.65625,-25.75,0.0,0.0,0.0
1695657788256,-0.8769531,-0.16210938,-0.078125,34.96875,94.3125,-5.96875,0.0,0.0,0.0
1695657788259,-0.9970703,0.04296875,0.0087890625,24.59375,18.65625,-9.59375,0.0,0.0,0.0
1695657788309,-0.9736328,0.13867188,0.0087890625,18.125,11.9375,-6.09375,-21.4375,19.0625,-65.125
1695657788362,-0.9863281,-0.033203125,-0.052734375,8.78125,10.78125,-10.3125,0.0,0.0,0.0
1695657788389,-0.97265625,0.059570312,-0.107421875,17.28125,16.25,-11.53125,0.0,0.0,0.0
1695657788413,-1.0263672,0.1015625,-0.111328125,12.9375,16.25,-9.15625,0.0,0.0,0.0
1695657788467,-0.9404297,0.09863281,-0.091796875,10.125,20.15625,-9.71875,0.0,0.0,0.0
1695657788493,-1.0068359,0.12792969,-0.057617188,-5.8125,14.25,-0.96875,0.0,0.0,0.0
1695657788570,-0.96484375,0.005859375,-0.11035156,-14.46875,7.34375,-1.59375,0.0,0.0,0.0
1695657788573,-1.0878906,0.13867188,-0.09082031,-2.0625,5.40625,0.5,0.0,0.0,0.0
1695657788623,-0.99609375,0.095703125,-0.16699219,-12.03125,1.96875,1.09375,0.0,0.0,0.0
1695657788676,-0.96972656,0.083984375,-0.15332031,-1.03125,3.1875,-0.125,0.0,0.0,0.0
1695657788730,-1.0068359,0.048828125,-0.12988281,-13.78125,1.78125,2.1875,0.0,0.0,0.0
1695657788738,-1.015625,0.001953125,-0.0625,-4.28125,6.0625,-4.34375,0.0,0.0,0.0
1695657788781,-0.953125,0.041992188,-0.12597656,-8.4375,6.96875,-6.34375,-24.125,18.5,-68.75
1695657788807,-1.0361328,0.072265625,-0.11328125,1.78125,4.65625,-2.9375,0.0,0.0,0.0
1695657788887,-0.9902344,0.018554688,-0.111328125,4.03125,-0.21875,-7.25,0.0,0.0,0.0
1695657788893,-0.9628906,0.00390625,-0.14746094,13.59375,-2.53125,-4.59375,0.0,0.0,0.0
1695657788943,-0.99902344,0.09375,-0.16796875,17.625,-0.84375,-3.0625,0.0,0.0,0.0
1695657788991,-0.9716797,0.11230469,-0.15722656,7.75,-0.34375,3.125,0.0,0.0,0.0
1695657789019,-0.9824219,0.0703125,-0.10839844,-0.3125,-0.03125,0.90625,0.0,0.0,0.0
1695657789045,-1.0751953,0.025390625,-0.14160156,3.28125,2.03125,-0.625,0.0,0.0,0.0
1695657789099,-0.99121094,0.049804688,-0.095703125,2.0,-0.21875,-0.4375,0.0,0.0,0.0
1695657789200,-0.9892578,0.048828125,-0.09472656,1.65625,1.1875,1.71875,0.0,0.0,0.0
1695657789208,-0.9970703,0.026367188,-0.103515625,5.125,-0.40625,1.9375,0.0,0.0,0.0
1695657789229,-0.9902344,0.061523438,-0.11230469,6.78125,-1.9375,-0.1875,0.0,0.0,0.0
1695657789254,-1.0087891,0.0546875,-0.13183594,-0.25,1.125,1.09375,-23.375,18.9375,-70.875
1695657789306,-0.9550781,0.034179688,-0.12207031,0.1875,1.0,0.5625,0.0,0.0,0.0
1695657789332,-0.9970703,0.045898438,-0.12988281,1.59375,0.875,-0.78125,0.0,0.0,0.0
1695657789412,-0.9941406,0.037109375,-0.109375,-2.5,0.8125,-0.1875,0.0,0.0,0.0
1695657789415,-0.9902344,0.01953125,-0.12011719,-2.4375,-0.53125,0.1875,0.0,0.0,0.0
1695657789520,-0.9785156,9.765625E-4,-0.12988281,1.9375,0.15625,-0.375,0.0,0.0,0.0
1695657789524,-0.97265625,0.025390625,-0.1328125,4.5,0.28125,-0.375,0.0,0.0,0.0
1695657789542,-0.9814453,0.047851562,-0.12207031,7.6875,0.46875,-0.75,0.0,0.0,0.0
1695657789568,-0.9941406,0.06933594,-0.13476562,3.53125,0.21875,-0.125,0.0,0.0,0.0
1695657789621,-1.0126953,0.040039062,-0.10449219,-0.75,-1.625,-0.0625,0.0,0.0,0.0
1695657789646,-0.98828125,0.038085938,-0.12207031,-3.34375,-3.8125,-0.6875,0.0,0.0,0.0
1695657789726,-0.9658203,0.041992188,-0.11425781,-0.1875,-2.53125,-0.375,0.0,0.0,0.0
1695657789732,-0.99609375,0.020507812,-0.09472656,0.0,-0.21875,0.65625,0.0,0.0,0.0
1695657789778,-1.0107422,0.033203125,-0.10253906,1.15625,-0.46875,0.0625,-24.3125,18.625,-69.9375
1695657789835,-0.97558594,0.044921875,-0.09765625,2.0625,-2.53125,-0.96875,0.0,0.0,0.0
1695657789858,-0.9736328,0.041992188,-0.103515625,2.5,-1.5625,-0.375,0.0,0.0,0.0
1695657789938,-0.9716797,-0.0029296875,-0.10839844,4.40625,1.0625,-0.78125,0.0,0.0,0.0
1695657789940,-1.0058594,0.0234375,-0.099609375,7.6875,1.90625,-3.0625,0.0,0.0,0.0
1695657789989,-0.9824219,0.08105469,-0.11035156,6.03125,2.09375,-1.21875,0.0,0.0,0.0
1695657790042,-0.9941406,0.034179688,-0.109375,2.25,2.53125,-1.03125,0.0,0.0,0.0
1695657790067,-1.0009766,0.049804688,-0.11328125,2.625,2.46875,-1.53125,0.0,0.0,0.0
1695657790094,-0.9921875,0.0234375,-0.103515625,-0.5625,2.59375,0.1875,0.0,0.0,0.0
1695657790149,-0.9892578,0.030273438,-0.11816406,-0.3125,3.125,-0.90625,0.0,0.0,0.0
1695657790171,-0.98535156,0.036132812,-0.13476562,0.1875,4.0,0.0,0.0,0.0,0.0
1695657790251,-0.9794922,0.024414062,-0.12402344,1.65625,3.03125,-0.6875,0.0,0.0,0.0
1695657790254,-0.9873047,0.030273438,-0.12695312,2.5625,3.25,-0.625,-22.8125,18.3125,-71.3125
1695657790305,-0.98535156,0.03125,-0.1328125,-1.21875,2.65625,-0.6875,0.0,0.0,0.0
1695657790357,-1.0,0.0126953125,-0.115234375,0.5625,2.28125,0.1875,0.0,0.0,0.0
1695657790382,-0.98339844,0.00390625,-0.13183594,5.25,1.5,-0.375,0.0,0.0,0.0
1695657790414,-0.9824219,0.025390625,-0.13378906,3.78125,2.40625,-0.625,0.0,0.0,0.0
1695657790460,-0.98339844,0.025390625,-0.15917969,-0.3125,3.5625,-0.1875,0.0,0.0,0.0
1695657790487,-0.9970703,0.0078125,-0.119140625,1.40625,3.125,0.0,0.0,0.0,0.0
1695657790567,-1.0039062,0.028320312,-0.15917969,22.40625,-18.46875,-0.4375,0.0,0.0,0.0
1695657790575,-0.98535156,0.05078125,-0.13476562,18.25,-8.65625,1.46875,0.0,0.0,0.0
1695657790618,-0.9970703,0.021484375,-0.14160156,13.25,-9.875,0.3125,0.0,0.0,0.0
1695657790697,-0.9794922,0.060546875,-0.12207031,-1.09375,-4.3125,0.4375,0.0,0.0,0.0
1695657790702,-0.99316406,0.016601562,-0.107421875,-2.1875,-6.6875,0.71875,0.0,0.0,0.0
1695657790777,-0.99316406,0.009765625,-0.11035156,-4.65625,-0.59375,1.34375,0.0,0.0,0.0
1695657790781,-0.99121094,0.0087890625,-0.099609375,-1.96875,-2.84375,1.59375,-23.375,16.6875,-69.5
1695657790882,-0.9970703,0.025390625,-0.099609375,-3.53125,0.6875,1.59375,0.0,0.0,0.0
1695657790885,-0.9716797,0.04296875,-0.11230469,-2.75,-0.65625,1.59375,0.0,0.0,0.0
1695657790909,-0.98535156,0.037109375,-0.11328125,-5.9375,1.3125,1.40625,0.0,0.0,0.0
1695657790936,-0.9902344,0.033203125,-0.109375,-6.34375,1.78125,1.40625,0.0,0.0,0.0
1695657791011,-0.99316406,0.043945312,-0.10449219,-6.84375,1.96875,1.15625,0.0,0.0,0.0
1695657791016,-0.9873047,0.030273438,-0.109375,-3.59375,1.0625,1.09375,0.0,0.0,0.0
1695657791092,-0.98339844,0.0390625,-0.095703125,-1.59375,-0.09375,0.96875,0.0,0.0,0.0
1695657791098,-0.98535156,0.037109375,-0.11035156,0.5,-0.65625,0.78125,0.0,0.0,0.0
1695657791147,-0.9794922,0.05078125,-0.091796875,0.375,-0.15625,0.78125,0.0,0.0,0.0
1695657791196,-0.984375,0.06640625,-0.10644531,-0.375,-0.21875,0.59375,0.0,0.0,0.0
1695657791223,-0.99121094,0.024414062,-0.10546875,-0.75,0.46875,0.5,0.0,0.0,0.0
1695657791248,-0.9902344,0.043945312,-0.10839844,-1.53125,0.15625,0.375,-22.625,17.125,-69.8125
1695657791303,-0.9921875,0.047851562,-0.12207031,-0.75,0.34375,0.65625,0.0,0.0,0.0
1695657791328,-0.9902344,0.034179688,-0.10449219,0.0,-0.46875,1.28125,0.0,0.0,0.0
1695657791408,-0.9824219,0.041992188,-0.103515625,-0.3125,-0.59375,0.71875,0.0,0.0,0.0
1695657791413,-0.9863281,0.04296875,-0.107421875,-0.25,0.6875,-0.0625,0.0,0.0,0.0
1695657791462,-0.98339844,0.03515625,-0.11035156,0.375,0.75,-0.375,0.0,0.0,0.0
1695657791512,-0.99316406,0.036132812,-0.109375,-0.1875,1.125,-0.25,0.0,0.0,0.0
1695657791537,-0.9892578,0.036132812,-0.09863281,-1.28125,1.0625,0.0625,0.0,0.0,0.0
1695657791616,-0.9902344,0.0029296875,-0.107421875,-0.6875,0.46875,-0.375,0.0,0.0,0.0
1695657791625,-0.9863281,0.034179688,-0.10644531,-1.34375,0.34375,-0.5,0.0,0.0,0.0
1695657791670,-0.9794922,0.036132812,-0.11425781,-1.65625,0.8125,-0.25,0.0,0.0,0.0
1695657791721,-1.0039062,0.032226562,-0.11621094,-2.1875,1.0,-0.25,0.0,0.0,0.0
1695657791773,-0.98535156,0.040039062,-0.09863281,-1.03125,0.46875,-0.25,0.0,0.0,0.0
1695657791776,-0.984375,0.041015625,-0.1171875,-2.125,1.3125,-0.1875,-24.0,18.625,-69.625
1695657791827,-0.98828125,0.048828125,-0.12402344,-2.9375,2.28125,0.0,0.0,0.0,0.0
1695657791853,-0.9951172,0.05078125,-0.11816406,-0.0625,-0.46875,-0.0625,0.0,0.0,0.0
1695657791933,-0.98046875,0.037109375,-0.11816406,-0.3125,-0.78125,-0.0625,0.0,0.0,0.0
1695657791939,-0.99121094,0.033203125,-0.12011719,-0.0625,-1.0,-0.25,0.0,0.0,0.0
1695657791983,-0.98828125,0.033203125,-0.107421875,-0.0625,-0.78125,-0.0625,0.0,0.0,0.0
1695657792036,-0.9921875,0.043945312,-0.11816406,-0.375,-0.9375,-0.25,0.0,0.0,0.0
1695657792063,-0.9892578,0.034179688,-0.13085938,-0.125,-0.9375,-0.1875,0.0,0.0,0.0
1695657792091,-0.97558594,0.045898438,-0.10839844,0.125,-0.78125,-0.1875,0.0,0.0,0.0
1695657792143,-0.984375,0.034179688,-0.10644531,0.125,-0.53125,-0.1875,0.0,0.0,0.0
1695657792167,-0.98535156,0.0390625,-0.12109375,0.0,-0.21875,0.0625,0.0,0.0,0.0
1695657792248,-1.0,0.04296875,-0.10253906,-0.0625,-0.34375,-0.1875,0.0,0.0,0.0
1695657792257,-0.9921875,0.0390625,-0.10546875,-0.0625,-0.28125,0.0,-22.8125,19.0625,-70.25
1695657792301,-0.98046875,0.037109375,-0.11328125,0.0,-0.03125,0.0625,0.0,0.0,0.0
1695657792352,-0.9902344,0.041992188,-0.103515625,-0.1875,0.40625,-0.375,0.0,0.0,0.0
1695657792379,-0.98339844,0.044921875,-0.11035156,0.0,-0.03125,-0.375,0.0,0.0,0.0
1695657792456,-0.9863281,0.041992188,-0.11230469,0.0,-0.09375,-0.375,0.0,0.0,0.0
1695657792460,-0.9902344,0.040039062,-0.11230469,0.0,0.03125,-0.125,0.0,0.0,0.0
1695657792563,-0.98339844,0.041992188,-0.109375,0.1875,0.21875,-0.3125,0.0,0.0,0.0
1695657792568,-0.984375,0.041992188,-0.107421875,0.375,0.09375,-0.375,0.0,0.0,0.0
1695657792587,-0.984375,0.040039062,-0.107421875,0.1875,0.21875,-0.125,0.0,0.0,0.0
1695657792615,-0.9941406,0.03515625,-0.109375,0.3125,0.03125,0.0,0.0,0.0,0.0
1695657792667,-0.98828125,0.032226562,-0.11328125,0.125,0.03125,-0.25,0.0,0.0,0.0
1695657792693,-0.9863281,0.043945312,-0.10546875,0.5,0.34375,-0.125,0.0,0.0,0.0
1695657792771,-0.98535156,0.0390625,-0.11230469,0.0625,0.15625,0.125,0.0,0.0,0.0
1695657792778,-0.9892578,0.041992188,-0.10546875,0.96875,0.21875,-0.3125,-22.1875,18.0625,-69.625
1695657792825,-0.984375,0.049804688,-0.11621094,0.375,0.09375,-0.4375,0.0,0.0,0.0
1695657792878,-0.9824219,0.037109375,-0.1171875,0.1875,0.34375,-0.125,0.0,0.0,0.0
1695657792904,-0.9892578,0.037109375,-0.10253906,0.125,0.5,-0.1875,0.0,0.0,0.0
1695657792929,-0.9941406,0.034179688,-0.10449219,0.4375,0.15625,-0.3125,0.0,0.0,0.0
1695657792982,-0.9892578,0.043945312,-0.12597656,-0.125,0.21875,0.0,0.0,0.0,0.0
1695657793007,-0.98828125,0.0390625,-0.11425781,0.5,0.15625,-0.0625,0.0,0.0,0.0
1695657793087,-0.9863281,0.040039062,-0.123046875,0.65625,0.21875,-0.125,0.0,0.0,0.0
1695657793090,-0.9892578,0.043945312,-0.10253906,0.1875,0.40625,-0.1875,0.0,0.0,0.0
1695657793142,-0.98339844,0.036132812,-0.109375,0.25,0.40625,-0.0625,0.0,0.0,0.0
1695657793190,-0.9921875,0.040039062,-0.115234375,0.0,0.15625,-0.125,0.0,0.0,0.0
1695657793217,-0.9824219,0.022460938,-0.109375,0.0,0.09375,-0.1875,0.0,0.0,0.0
1695657793296,-0.9863281,0.038085938,-0.123046875,0.125,0.34375,-0.125,-23.5625,19.375,-69.625
1695657793299,-0.98535156,0.034179688,-0.11230469,0.125,0.5,-0.125,0.0,0.0,0.0
1695657793351,-0.98535156,0.038085938,-0.109375,0.3125,0.28125,-0.125,0.0,0.0,0.0
1695657793403,-0.984375,0.032226562,-0.111328125,-0.0625,0.09375,0.0,0.0,0.0,0.0
1695657793429,-0.99316406,0.040039062,-0.1171875,0.0625,-0.09375,-0.0625,0.0,0.0,0.0
1695657793460,-0.9902344,0.038085938,-0.11035156,-0.25,0.09375,-0.0625,0.0,0.0,0.0
1695657793508,-0.98535156,0.0390625,-0.10546875,0.0,-0.03125,-0.125,0.0,0.0,0.0
1695657793533,-0.99316406,0.033203125,-0.10449219,0.0,-0.28125,0.0625,0.0,0.0,0.0
1695657793612,-0.9863281,0.037109375,-0.115234375,0.0,-0.15625,0.0625,0.0,0.0,0.0
1695657793615,-0.97753906,0.04296875,-0.125,0.0,-0.15625,0.0,0.0,0.0,0.0
1695657793664,-0.9892578,0.030273438,-0.09765625,-0.375,-0.15625,0.125,0.0,0.0,0.0
1695657793717,-0.98339844,0.045898438,-0.115234375,-0.3125,-0.09375,-0.0625,0.0,0.0,0.0
1695657793743,-0.9941406,0.038085938,-0.1015625,-0.3125,-0.40625,0.0,0.0,0.0,0.0
1695657793769,-0.9902344,0.038085938,-0.119140625,-0.4375,-0.40625,0.0,-23.375,19.25,-69.8125
1695657793824,-0.98535156,0.036132812,-0.1015625,0.0,-0.40625,-0.125,0.0,0.0,0.0
1695657793848,-0.9824219,0.036132812,-0.12011719,0.1875,-0.46875,-0.125,0.0,0.0,0.0
1695657793931,-0.98535156,0.030273438,-0.11816406,0.3125,-0.71875,0.0625,0.0,0.0,0.0
1695657793935,-0.99121094,0.043945312,-0.11425781,0.5625,-0.15625,-0.0625,0.0,0.0,0.0
1695657793978,-0.9863281,0.040039062,-0.11425781,0.3125,-0.40625,0.0625,0.0,0.0,0.0
1695657794056,-0.9814453,0.046875,-0.109375,-0.0625,-0.65625,0.0625,0.0,0.0,0.0
1695657794058,-0.9794922,0.033203125,-0.11816406,-0.3125,-0.40625,-0.125,0.0,0.0,0.0
1695657794135,-0.9824219,0.03515625,-0.12402344,-0.4375,-0.34375,0.0,0.0,0.0,0.0
1695657794138,-0.99316406,0.030273438,-0.10839844,-0.375,-0.59375,0.1875,0.0,0.0,0.0
1695657794189,-0.9921875,0.041015625,-0.10449219,-0.375,-0.28125,-0.0625,0.0,0.0,0.0
1695657794241,-0.98339844,0.05078125,-0.09667969,-0.375,-0.28125,-0.0625,0.0,0.0,0.0
1695657794267,-0.984375,0.034179688,-0.111328125,-0.4375,-0.28125,-0.25,-23.125,18.9375,-70.5625
1695657794294,-0.98535156,0.041992188,-0.10449219,-0.375,-0.34375,-0.0625,0.0,0.0,0.0
1695657794346,-0.99316406,0.045898438,-0.11328125,-0.375,-0.28125,0.125,0.0,0.0,0.0
1695657794373,-0.98339844,0.034179688,-0.10058594,-0.125,-0.21875,0.0,0.0,0.0,0.0
1695657794450,-0.984375,0.0390625,-0.10546875,-0.0625,-0.28125,0.25,0.0,0.0,0.0
1695657794453,-0.98046875,0.033203125,-0.10546875,0.0,-0.21875,0.0,0.0,0.0,0.0
1695657794508,-0.98339844,0.036132812,-0.10644531,0.25,-0.21875,-0.0625,0.0,0.0,0.0
1695657794558,-0.9863281,0.037109375,-0.11035156,0.3125,-0.28125,0.125,0.0,0.0,0.0
1695657794582,-0.99121094,0.037109375,-0.09667969,0.125,-0.21875,-0.1875,0.0,0.0,0.0
1695657794612,-0.9892578,0.041992188,-0.111328125,-0.125,-0.09375,-0.125,0.0,0.0,0.0
1695657794665,-0.9736328,0.0390625,-0.107421875,-0.125,0.09375,-0.125,0.0,0.0,0.0
1695657794688,-0.99121094,0.037109375,-0.11425781,-0.4375,0.46875,-0.0625,0.0,0.0,0.0
1695657794768,-0.99609375,0.033203125,-0.111328125,-0.25,0.15625,-0.0625,0.0,0.0,0.0
1695657794774,-0.9863281,0.041015625,-0.0859375,0.0625,0.28125,-0.3125,-23.6875,18.5,-69.5
1695657794822,-0.98339844,0.037109375,-0.10644531,0.0625,0.28125,-0.125,0.0,0.0,0.0
1695657794873,-0.98535156,0.034179688,-0.10253906,0.0625,0.40625,-0.4375,0.0,0.0,0.0
1695657794897,-0.9794922,0.049804688,-0.10839844,0.1875,0.34375,-0.25,0.0,0.0,0.0
1695657794976,-0.98339844,0.040039062,-0.087890625,-0.3125,0.15625,-0.1875,0.0,0.0,0.0
1695657794978,-0.9794922,0.032226562,-0.08691406,0.0,0.21875,-0.375,0.0,0.0,0.0
1695657795028,-0.98828125,0.037109375,-0.1171875,0.1875,0.5625,-0.1875,0.0,0.0,0.0
1695657795083,-0.98535156,0.04296875,-0.10058594,-0.0625,0.28125,-0.25,0.0,0.0,0.0
1695657795109,-0.9941406,0.036132812,-0.099609375,0.375,0.21875,-0.25,0.0,0.0,0.0
1695657795134,-0.99902344,0.046875,-0.11425781,0.0625,0.46875,-0.1875,0.0,0.0,0.0
1695657795187,-0.9863281,0.037109375,-0.109375,0.0625,0.15625,-0.125,0.0,0.0,0.0
1695657795212,-0.99121094,0.038085938,-0.11425781,0.125,0.21875,-0.1875,0.0,0.0,0.0
1695657795293,-0.9873047,0.045898438,-0.10839844,0.4375,0.21875,-0.4375,-23.375,18.1875,-69.5
1695657795297,-0.98535156,0.038085938,-0.10058594,0.4375,0.09375,-0.25,0.0,0.0,0.0
1695657795348,-0.99121094,0.041992188,-0.109375,0.375,0.28125,-0.375,0.0,0.0,0.0
1695657795397,-0.9902344,0.034179688,-0.11621094,0.5,0.03125,-0.375,0.0,0.0,0.0
1695657795430,-0.98535156,0.0390625,-0.10546875,0.375,0.28125,-0.375,0.0,0.0,0.0
1695657795449,-0.9902344,0.033203125,-0.10253906,0.5,0.21875,-0.3125,0.0,0.0,0.0
1695657795502,-0.99609375,0.032226562,-0.10058594,0.71875,0.09375,-0.125,0.0,0.0,0.0
1695657795528,-0.9873047,0.032226562,-0.107421875,0.65625,-0.21875,-0.3125,0.0,0.0,0.0
1695657795605,-0.9873047,0.041992188,-0.10449219,0.90625,-0.03125,-0.125,0.0,0.0,0.0
1695657795609,-0.9902344,0.033203125,-0.103515625,0.90625,0.03125,-0.3125,0.0,0.0,0.0
1695657795661,-0.98339844,0.03125,-0.10449219,0.59375,0.09375,-0.4375,0.0,0.0,0.0
1695657795712,-0.98828125,0.030273438,-0.10449219,0.59375,0.09375,-0.125,0.0,0.0,0.0
1695657795738,-0.9970703,0.036132812,-0.10253906,0.375,-0.09375,-0.3125,0.0,0.0,0.0
1695657795816,-0.9824219,0.0390625,-0.10839844,0.5625,0.15625,-0.3125,-22.625,18.1875,-71.125
1695657795822,-0.9863281,0.036132812,-0.103515625,0.78125,0.28125,-0.125,0.0,0.0,0.0
1695657795868,-0.99609375,0.037109375,-0.10449219,0.3125,0.09375,-0.5,0.0,0.0,0.0
1695657795923,-0.9902344,0.028320312,-0.109375,0.5,-0.21875,0.0625,0.0,0.0,0.0
1695657795950,-0.98828125,0.038085938,-0.12011719,0.125,0.15625,-0.3125,0.0,0.0,0.0
1695657795974,-0.98828125,0.0390625,-0.099609375,0.25,-0.09375,-0.375,0.0,0.0,0.0
1695657796026,-0.98046875,0.045898438,-0.109375,0.25,0.28125,-0.3125,0.0,0.0,0.0
1695657796053,-0.99316406,0.036132812,-0.13183594,0.1875,0.15625,-0.4375,0.0,0.0,0.0
1695657796131,-0.9902344,0.030273438,-0.12011719,0.5,-0.15625,-0.3125,0.0,0.0,0.0
1695657796135,-0.99609375,0.038085938,-0.10546875,0.3125,-0.21875,-0.1875,0.0,0.0,0.0
1695657796184,-0.9873047,0.030273438,-0.10644531,0.0625,0.03125,-0.3125,0.0,0.0,0.0
1695657796240,-0.9863281,0.033203125,-0.1171875,0.4375,0.09375,-0.125,0.0,0.0,0.0
1695657796263,-0.9785156,0.018554688,-0.115234375,0.1875,0.03125,-0.1875,-23.125,18.1875,-69.0625
1695657796289,-0.9921875,0.030273438,-0.107421875,0.3125,0.03125,-0.0625,0.0,0.0,0.0
1695657796342,-0.98828125,0.034179688,-0.103515625,0.1875,-0.09375,0.0,0.0,0.0,0.0
1695657796368,-0.99121094,0.036132812,-0.103515625,0.1875,0.03125,-0.0625,0.0,0.0,0.0
1695657796446,-0.9824219,0.034179688,-0.109375,0.0,-0.09375,0.0625,0.0,0.0,0.0
1695657796451,-0.9892578,0.03125,-0.10644531,-0.0625,0.03125,-0.125,0.0,0.0,0.0
1695657796497,-0.9892578,0.036132812,-0.111328125,0.71875,0.03125,0.0625,0.0,0.0,0.0
1695657796551,-0.98046875,0.036132812,-0.1015625,0.0625,0.28125,0.0,0.0,0.0,0.0
1695657796580,-0.984375,0.034179688,-0.111328125,0.4375,-0.15625,0.125,0.0,0.0,0.0
1695657796657,-0.9863281,0.037109375,-0.10644531,0.0625,0.28125,0.0,0.0,0.0,0.0
1695657796660,-0.98828125,0.032226562,-0.11230469,-0.125,0.03125,0.1875,0.0,0.0,0.0
1695657796712,-0.98828125,0.030273438,-0.103515625,-0.0625,-0.03125,0.1875,0.0,0.0,0.0
1695657796765,-0.98828125,0.03125,-0.115234375,-0.25,-0.09375,0.1875,0.0,0.0,0.0
1695657796789,-0.9892578,0.032226562,-0.11035156,-0.0625,-0.21875,0.0,-24.0,18.0625,-70.6875
1695657796814,-0.98828125,0.024414062,-0.1015625,0.375,0.21875,0.0625,0.0,0.0,0.0
1695657796868,-0.9970703,0.032226562,-0.10253906,0.125,0.09375,-0.0625,0.0,0.0,0.0
1695657796893,-0.9892578,0.036132812,-0.11230469,0.4375,-0.15625,0.0625,0.0,0.0,0.0
1695657796972,-0.98535156,0.038085938,-0.09667969,-0.125,-0.15625,0.1875,0.0,0.0,0.0
1695657796976,-0.98535156,0.038085938,-0.10449219,-0.25,-0.09375,0.1875,0.0,0.0,0.0
1695657797025,-0.99316406,0.036132812,-0.11230469,-0.125,0.03125,0.25,0.0,0.0,0.0
1695657797080,-0.98339844,0.030273438,-0.10449219,-0.375,0.03125,0.1875,0.0,0.0,0.0
1695657797104,-0.9863281,0.034179688,-0.11425781,0.0,0.03125,0.0,0.0,0.0,0.0
1695657797130,-0.9863281,0.037109375,-0.125,0.0,-0.15625,0.0625,0.0,0.0,0.0
1695657797183,-0.9863281,0.034179688,-0.10644531,-0.0625,0.15625,0.0,0.0,0.0,0.0
1695657797208,-0.98828125,0.03515625,-0.11230469,0.0,-0.09375,0.25,0.0,0.0,0.0
1695657797287,-0.9902344,0.028320312,-0.10546875,-0.4375,0.15625,0.0625,-22.625,18.9375,-69.0625
1695657797291,-0.9824219,0.030273438,-0.10644531,-0.1875,0.15625,0.125,0.0,0.0,0.0
1695657797344,-0.9863281,0.038085938,-0.09863281,-0.125,-0.03125,0.375,0.0,0.0,0.0
1695657797391,-0.98339844,0.037109375,-0.10058594,-0.3125,-0.28125,0.1875,0.0,0.0,0.0
1695657797419,-0.9873047,0.036132812,-0.11328125,-0.0625,0.15625,0.125,0.0,0.0,0.0
1695657797496,-0.9941406,0.040039062,-0.10253906,-0.0625,0.03125,0.375,0.0,0.0,0.0
1695657797500,-0.98046875,0.041015625,-0.103515625,0.0,-0.03125,0.125,0.0,0.0,0.0
1695657797550,-0.98535156,0.0390625,-0.109375,0.0,0.15625,0.25,0.0,0.0,0.0
1695657797601,-0.98535156,0.030273438,-0.11230469,-0.25,0.15625,0.125,0.0,0.0,0.0
1695657797628,-0.9824219,0.038085938,-0.107421875,-0.25,0.21875,0.3125,0.0,0.0,0.0
1695657797654,-0.97753906,0.036132812,-0.103515625,-0.375,0.28125,0.0625,0.0,0.0,0.0
1695657797708,-0.9892578,0.038085938,-0.103515625,-0.5,0.40625,0.0,0.0,0.0,0.0
1695657797734,-1.0,0.036132812,-0.111328125,-0.125,0.40625,0.1875,0.0,0.0,0.0
1695657797813,-0.984375,0.034179688,-0.11425781,-0.6875,0.34375,0.0625,-24.625,17.3125,-71.0
1695657797818,-0.9824219,0.046875,-0.12695312,-0.25,0.40625,-0.0625,0.0,0.0,0.0
1695657797865,-0.9902344,0.034179688,-0.12109375,-0.1875,0.40625,0.1875,0.0,0.0,0.0
1695657797917,-0.9814453,0.032226562,-0.119140625,-0.5625,0.40625,-0.0625,0.0,0.0,0.0
1695657797944,-0.98339844,0.03125,-0.11328125,0.0,0.46875,0.0,0.0,0.0,0.0
1695657797970,-0.9873047,0.038085938,-0.12011719,-0.0625,0.15625,-0.0625,0.0,0.0,0.0
1695657798021,-0.9921875,0.033203125,-0.11230469,-0.3125,0.28125,-0.125,0.0,0.0,0.0
1695657798049,-0.98535156,0.041992188,-0.109375,0.125,0.21875,0.0625,0.0,0.0,0.0
1695657798128,-0.98535156,0.036132812,-0.10449219,0.0,0.46875,-0.1875,0.0,0.0,0.0
1695657798134,-0.9951172,0.038085938,-0.11230469,0.0625,0.28125,-0.125,0.0,0.0,0.0
1695657798180,-0.9892578,0.032226562,-0.11816406,0.25,0.40625,-0.125,0.0,0.0,0.0
1695657798232,-0.9921875,0.034179688,-0.12011719,0.0,0.21875,-0.3125,0.0,0.0,0.0
1695657798260,-0.984375,0.038085938,-0.12695312,0.0625,0.21875,0.0625,-22.8125,17.5625,-69.625
1695657798335,-0.99609375,0.03515625,-0.11035156,0.125,0.21875,-0.25,0.0,0.0,0.0
1695657798338,-0.9892578,0.03515625,-0.10839844,0.1875,0.15625,-0.125,0.0,0.0,0.0
1695657798390,-0.98535156,0.034179688,-0.123046875,0.25,0.15625,0.0,0.0,0.0,0.0
1695657798446,-0.98828125,0.0390625,-0.111328125,0.25,-0.03125,0.0,0.0,0.0,0.0
1695657798468,-0.9951172,0.037109375,-0.11816406,-0.1875,0.15625,-0.125,0.0,0.0,0.0
1695657798497,-1.0,0.032226562,-0.109375,0.28125,-0.125,-0.34375,0.0,0.0,0.0
1695657798548,-0.984375,0.037109375,-0.12011719,-0.03125,-0.125,-0.09375,0.0,0.0,0.0
1695657798574,-0.98828125,0.028320312,-0.11425781,0.03125,-0.1875,-0.15625,0.0,0.0,0.0
1695657798652,-0.9873047,0.0390625,-0.103515625,0.21875,-0.1875,-0.09375,0.0,0.0,0.0
1695657798658,-0.984375,0.041015625,-0.109375,0.09375,-0.375,-0.15625,0.0,0.0,0.0
1695657798705,-0.99121094,0.030273438,-0.12109375,0.75,-0.4375,-0.15625,0.0,0.0,0.0
1695657798756,-0.98828125,0.044921875,-0.111328125,0.8125,-0.375,-0.09375,0.0,0.0,0.0
1695657798781,-0.9951172,0.045898438,-0.11425781,0.6875,-0.0625,-0.09375,-24.0,18.0625,-69.625
1695657798809,-0.98828125,0.038085938,-0.11621094,0.8125,-0.3125,-0.21875,0.0,0.0,0.0
1695657798862,-0.98339844,0.041992188,-0.11425781,0.09375,-0.3125,-0.15625,0.0,0.0,0.0
1695657798889,-0.99121094,0.037109375,-0.111328125,-0.03125,-0.3125,0.09375,0.0,0.0,0.0
1695657798967,-0.9902344,0.0390625,-0.1171875,-0.09375,-0.125,-0.03125,0.0,0.0,0.0
1695657798970,-0.9863281,0.02734375,-0.10253906,0.09375,-0.1875,-0.09375,0.0,0.0,0.0
1695657799019,-0.9892578,0.037109375,-0.109375,0.21875,-0.1875,-0.03125,0.0,0.0,0.0
1695657799072,-0.9794922,0.03125,-0.095703125,0.21875,-0.1875,-0.09375,0.0,0.0,0.0
1695657799099,-0.9746094,0.033203125,-0.119140625,0.40625,-0.25,-0.28125,0.0,0.0,0.0
1695657799177,-0.99609375,0.037109375,-0.107421875,0.21875,-0.125,0.03125,0.0,0.0,0.0
1695657799180,-0.99316406,0.041015625,-0.11621094,0.21875,-0.375,-0.15625,0.0,0.0,0.0
1695657799229,-0.98046875,0.034179688,-0.12402344,0.28125,-0.1875,-0.15625,0.0,0.0,0.0
1695657799282,-0.98339844,0.034179688,-0.125,0.09375,0.125,-0.15625,-22.8125,18.625,-71.3125
1695657799307,-0.98828125,0.024414062,-0.11328125,0.34375,-0.0625,-0.09375,0.0,0.0,0.0
1695657799334,-0.99316406,0.034179688,-0.111328125,0.21875,-0.1875,-0.03125,0.0,0.0,0.0
1695657799388,-0.984375,0.040039062,-0.1171875,0.46875,-0.125,-0.09375,0.0,0.0,0.0
1695657799414,-0.9902344,0.033203125,-0.09863281,0.40625,-0.125,-0.09375,0.0,0.0,0.0
1695657799493,-0.9921875,0.037109375,-0.11621094,0.53125,0.0,-0.03125,0.0,0.0,0.0
1695657799497,-0.98046875,0.0390625,-0.11230469,0.46875,-0.125,-0.21875,0.0,0.0,0.0
1695657799544,-0.9824219,0.036132812,-0.115234375,-0.09375,0.0,-0.09375,0.0,0.0,0.0
1695657799598,-0.9892578,0.032226562,-0.11425781,0.21875,-0.125,-0.15625,0.0,0.0,0.0
1695657799623,-0.98535156,0.032226562,-0.12597656,0.09375,-0.0625,-0.15625,0.0,0.0,0.0
1695657799649,-0.984375,0.048828125,-0.12011719,-0.03125,-0.25,-0.09375,0.0,0.0,0.0
1695657799704,-0.9873047,0.04296875,-0.11621094,0.15625,-0.0625,0.09375,0.0,0.0,0.0
1695657799728,-0.9824219,0.037109375,-0.12792969,0.09375,-0.1875,-0.03125,0.0,0.0,0.0
1695657799806,-0.98046875,0.043945312,-0.119140625,0.15625,-0.125,-0.03125,-24.125,18.1875,-71.125
1695657799809,-0.9921875,0.033203125,-0.119140625,0.15625,-0.1875,0.09375,0.0,0.0,0.0
1695657799859,-0.98535156,0.038085938,-0.12011719,-0.03125,0.0,0.03125,0.0,0.0,0.0
1695657799911,-0.98046875,0.03125,-0.11230469,0.34375,-0.125,-0.09375,0.0,0.0,0.0
1695657799937,-0.98828125,0.040039062,-0.10449219,0.09375,0.0625,0.03125,0.0,0.0,0.0
1695657800017,-0.9873047,0.028320312,-0.10546875,0.34375,0.0625,-0.03125,0.0,0.0,0.0
1695657800021,-0.98535156,0.041992188,-0.11328125,0.40625,-0.0625,0.09375,0.0,0.0,0.0
1695657800069,-0.98828125,0.041992188,-0.11328125,0.40625,-0.25,0.09375,0.0,0.0,0.0
1695657800123,-0.99316406,0.038085938,-0.10644531,0.46875,-0.125,0.03125,0.0,0.0,0.0
1695657800148,-0.9794922,0.045898438,-0.111328125,0.15625,-0.0625,0.03125,0.0,0.0,0.0
1695657800175,-0.98828125,0.037109375,-0.11621094,0.21875,0.0,0.15625,0.0,0.0,0.0
1695657800227,-0.9824219,0.025390625,-0.11328125,0.21875,-0.0625,-0.21875,0.0,0.0,0.0
1695657800253,-0.99316406,0.038085938,-0.11425781,0.15625,0.0,0.03125,-22.8125,18.0625,-70.6875
1695657800330,-0.9863281,0.02734375,-0.11328125,0.28125,-0.1875,-0.09375,0.0,0.0,0.0
1695657800334,-0.97558594,0.024414062,-0.111328125,0.34375,-0.1875,-0.03125,0.0,0.0,0.0
1695657800385,-0.9794922,0.04296875,-0.11328125,0.03125,-0.125,0.03125,0.0,0.0,0.0
1695657800437,-0.98828125,0.034179688,-0.10839844,0.40625,-0.3125,0.15625,0.0,0.0,0.0
1695657800463,-0.9873047,0.040039062,-0.11621094,-0.15625,-0.5,-0.09375,0.0,0.0,0.0
1695657800491,-0.9863281,0.045898438,-0.1171875,0.21875,-0.5,0.09375,0.0,0.0,0.0
1695657800544,-0.98828125,0.034179688,-0.12207031,0.15625,-0.25,0.21875,0.0,0.0,0.0
1695657800568,-0.99316406,0.0390625,-0.13085938,0.09375,-0.3125,0.09375,0.0,0.0,0.0
1695657800646,-0.9941406,0.036132812,-0.12988281,0.09375,-0.5,0.09375,0.0,0.0,0.0
1695657800650,-0.98828125,0.034179688,-0.11230469,-0.46875,-0.4375,-0.09375,0.0,0.0,0.0
1695657800701,-0.99316406,0.033203125,-0.12011719,0.21875,-0.3125,0.03125,0.0,0.0,0.0
1695657800752,-0.9892578,0.036132812,-0.123046875,-0.03125,-0.4375,0.15625,0.0,0.0,0.0
1695657800782,-0.9863281,0.037109375,-0.123046875,-0.28125,-0.625,0.03125,-22.375,17.75,-70.5625
1695657800856,-0.9951172,0.041992188,-0.119140625,-0.03125,-0.4375,0.15625,0.0,0.0,0.0
1695657800863,-0.98535156,0.0390625,-0.115234375,0.03125,-0.4375,0.03125,0.0,0.0,0.0
1695657800909,-0.9824219,0.037109375,-0.11035156,-0.03125,-0.5,0.15625,0.0,0.0,0.0
1695657800963,-0.98046875,0.034179688,-0.11816406,-0.09375,-0.5625,0.03125,0.0,0.0,0.0
1695657800988,-0.98828125,0.041015625,-0.1171875,-0.09375,-0.375,0.03125,0.0,0.0,0.0
1695657801013,-0.9863281,0.037109375,-0.111328125,0.09375,-0.3125,0.09375,0.0,0.0,0.0
1695657801068,-0.9921875,0.0390625,-0.10449219,0.15625,-0.25,0.09375,0.0,0.0,0.0
1695657801092,-0.98828125,0.041992188,-0.107421875,-0.03125,-0.5,-0.09375,0.0,0.0,0.0
1695657801174,-0.9951172,0.038085938,-0.115234375,-0.03125,-0.3125,-0.09375,0.0,0.0,0.0
1695657801179,-0.9863281,0.038085938,-0.12011719,0.15625,-0.0625,-0.03125,0.0,0.0,0.0
1695657801225,-0.98339844,0.038085938,-0.12011719,-0.03125,-0.375,-0.03125,0.0,0.0,0.0
1695657801275,-0.9921875,0.03125,-0.1171875,0.09375,-0.4375,0.09375,-23.25,17.5625,-71.0
1695657801302,-0.99316406,0.040039062,-0.11328125,-0.09375,-0.25,0.03125,0.0,0.0,0.0
1695657801330,-0.9902344,0.038085938,-0.12402344,-0.40625,0.0625,-0.15625,0.0,0.0,0.0
1695657801381,-0.9980469,0.043945312,-0.115234375,0.21875,-0.25,0.09375,0.0,0.0,0.0
1695657801408,-0.9941406,0.037109375,-0.11425781,-0.03125,-0.375,0.03125,0.0,0.0,0.0
1695657801490,-0.98535156,0.036132812,-0.109375,0.21875,0.0625,0.03125,0.0,0.0,0.0
1695657801493,-0.99316406,0.046875,-0.10644531,0.15625,-0.3125,-0.09375,0.0,0.0,0.0
1695657801540,-0.9824219,0.034179688,-0.109375,0.21875,-0.375,-0.09375,0.0,0.0,0.0
1695657801592,-0.9921875,0.03125,-0.12207031,0.28125,-0.125,0.03125,0.0,0.0,0.0
1695657801618,-0.98828125,0.038085938,-0.111328125,0.15625,-0.1875,0.09375,0.0,0.0,0.0
1695657801696,-0.99121094,0.041992188,-0.10839844,0.34375,-0.1875,-0.03125,0.0,0.0,0.0
1695657801703,-0.99316406,0.047851562,-0.10058594,0.28125,-0.1875,-0.03125,0.0,0.0,0.0
1695657801749,-0.9951172,0.045898438,-0.11816406,0.21875,-0.3125,-0.09375,0.0,0.0,0.0
1695657801801,-0.9873047,0.0390625,-0.11328125,0.46875,-0.125,-0.09375,-24.3125,18.3125,-71.3125
1695657801829,-0.99316406,0.040039062,-0.10253906,0.40625,-0.0625,-0.09375,0.0,0.0,0.0
1695657801853,-0.99316406,0.040039062,-0.111328125,0.34375,-0.1875,0.03125,0.0,0.0,0.0
1695657801906,-0.99902344,0.0390625,-0.111328125,0.09375,-0.4375,-0.15625,0.0,0.0,0.0
1695657801933,-0.98339844,0.034179688,-0.1171875,0.21875,-0.1875,-0.09375,0.0,0.0,0.0
1695657802011,-0.98339844,0.041992188,-0.109375,0.28125,-0.125,-0.09375,0.0,0.0,0.0
1695657802015,-0.99316406,0.040039062,-0.109375,0.21875,-0.0625,-0.15625,0.0,0.0,0.0
1695657802065,-0.9902344,0.037109375,-0.109375,0.15625,-0.1875,-0.03125,0.0,0.0,0.0
1695657802119,-0.9980469,0.037109375,-0.11035156,0.28125,-0.375,0.15625,0.0,0.0,0.0
1695657802143,-0.9873047,0.041992188,-0.11816406,0.15625,-0.4375,0.09375,0.0,0.0,0.0
1695657802172,-0.9873047,0.037109375,-0.115234375,0.21875,-0.25,-0.03125,0.0,0.0,0.0
1695657802221,-0.99121094,0.03125,-0.11328125,0.28125,-0.125,-0.03125,0.0,0.0,0.0
1695657802248,-0.99316406,0.038085938,-0.10839844,0.34375,-0.125,-0.09375,-23.125,17.75,-70.5625
1695657802327,-0.9941406,0.041992188,-0.11230469,0.09375,-0.3125,-0.15625,0.0,0.0,0.0
1695657802381,-0.97753906,0.033203125,-0.11230469,0.46875,-0.3125,-0.09375,0.0,0.0,0.0
1695657802387,-0.9873047,0.028320312,-0.11230469,0.03125,-0.25,-0.21875,0.0,0.0,0.0
1695657802434,-0.99316406,0.034179688,-0.109375,0.0,0.03125,0.0,0.0,0.0,0.0
1695657802459,-0.9824219,0.038085938,-0.11425781,0.0625,-0.21875,-0.0625,0.0,0.0,0.0
1695657802536,-0.9921875,0.036132812,-0.115234375,-0.0625,-0.03125,0.0,0.0,0.0,0.0
1695657802543,-0.9863281,0.04296875,-0.111328125,-0.09375,-0.09375,0.0625,0.0,0.0,0.0
1695657802588,-0.9902344,0.03125,-0.11816406,-0.21875,-0.21875,-0.1875,0.0,0.0,0.0
1695657802642,-0.98535156,0.038085938,-0.111328125,-0.15625,-0.28125,-0.0625,0.0,0.0,0.0
1695657802668,-0.9863281,0.026367188,-0.10644531,-0.21875,0.03125,-0.125,0.0,0.0,0.0
1695657802697,-0.9951172,0.03515625,-0.11621094,0.125,0.0625,-0.0625,0.0,0.0,0.0
1695657802747,-0.9863281,0.03125,-0.1171875,0.125,-0.21875,0.0,0.0,0.0,0.0
1695657802772,-0.9902344,0.041015625,-0.10644531,-0.09375,-0.28125,0.0,-23.6875,17.75,-69.8125
1695657802853,-0.98339844,0.041015625,-0.12597656,0.0625,0.03125,-0.125,0.0,0.0,0.0
1695657802860,-0.99609375,0.02734375,-0.123046875,0.1875,-0.03125,0.125,0.0,0.0,0.0
1695657802905,-0.984375,0.033203125,-0.11621094,-0.0625,0.03125,-0.125,0.0,0.0,0.0
1695657802956,-0.984375,0.034179688,-0.11035156,-0.15625,-0.03125,-0.25,0.0,0.0,0.0
1695657802983,-0.9921875,0.045898438,-0.11816406,-0.09375,-0.21875,-0.0625,0.0,0.0,0.0
1695657803010,-0.9765625,0.036132812,-0.107421875,-0.09375,-0.03125,-0.0625,0.0,0.0,0.0
1695657803061,-0.9951172,0.033203125,-0.11621094,-0.09375,0.03125,0.0,0.0,0.0,0.0
1695657803089,-0.9941406,0.033203125,-0.1015625,0.25,-0.03125,0.0,0.0,0.0,0.0
1695657803166,-0.984375,0.036132812,-0.11035156,-0.21875,0.03125,-0.0625,0.0,0.0,0.0
1695657803170,-0.98828125,0.04296875,-0.11035156,-0.0625,0.03125,0.0,0.0,0.0,0.0
1695657803219,-0.9892578,0.04296875,-0.11816406,-0.09375,-0.09375,0.0625,0.0,0.0,0.0
1695657803273,-0.9863281,0.0390625,-0.11328125,-0.15625,0.03125,-0.0625,-22.5,18.0625,-70.6875
1695657803298,-0.99316406,0.033203125,-0.109375,0.0625,-0.03125,0.0,0.0,0.0,0.0
1695657803377,-0.98828125,0.041992188,-0.11425781,-0.09375,0.25,-0.125,0.0,0.0,0.0
1695657803381,-0.98828125,0.041015625,-0.12109375,0.1875,0.03125,-0.0625,0.0,0.0,0.0
1695657803430,-0.98828125,0.03515625,-0.10644531,-0.09375,-0.15625,0.0,0.0,0.0,0.0
1695657803482,-0.99609375,0.037109375,-0.10253906,-0.15625,-0.09375,-0.0625,0.0,0.0,0.0
1695657803507,-0.9902344,0.032226562,-0.11328125,-0.09375,-0.09375,-0.0625,0.0,0.0,0.0
1695657803534,-0.9951172,0.02734375,-0.1015625,0.0,-0.09375,-0.0625,0.0,0.0,0.0
1695657803586,-0.9970703,0.040039062,-0.119140625,-0.15625,-0.03125,-0.125,0.0,0.0,0.0
1695657803613,-0.9824219,0.040039062,-0.10253906,-0.09375,-0.03125,-0.3125,0.0,0.0,0.0
1695657803694,-0.9863281,0.037109375,-0.11035156,-0.34375,-0.21875,-0.125,0.0,0.0,0.0
1695657803697,-0.9863281,0.034179688,-0.12597656,-0.46875,0.03125,0.125,0.0,0.0,0.0
1695657803744,-0.98828125,0.034179688,-0.10644531,-0.40625,-0.03125,0.0,0.0,0.0,0.0
1695657803797,-0.98046875,0.04296875,-0.12597656,-0.28125,-0.03125,0.0625,-24.3125,18.3125,-71.3125
1695657803823,-0.9863281,0.033203125,-0.12207031,-0.0625,0.0625,0.0,0.0,0.0,0.0
1695657803848,-0.99121094,0.0390625,-0.12207031,0.0,0.0625,0.3125,0.0,0.0,0.0
1695657803928,-0.9902344,0.04296875,-0.107421875,-0.09375,-0.09375,0.0625,0.0,0.0,0.0
1695657803932,-0.9970703,0.04296875,-0.123046875,0.1875,-0.15625,0.1875,0.0,0.0,0.0
1695657804007,-0.9794922,0.046875,-0.103515625,-0.28125,0.0625,0.125,0.0,0.0,0.0
1695657804012,-0.984375,0.03125,-0.109375,-0.0625,0.03125,0.0,0.0,0.0,0.0
1695657804059,-0.98828125,0.034179688,-0.10546875,-0.09375,-0.03125,-0.0625,0.0,0.0,0.0
1695657804112,-0.9824219,0.036132812,-0.109375,-0.09375,-0.15625,0.0625,0.0,0.0,0.0
1695657804138,-0.98339844,0.041992188,-0.109375,0.0625,-0.03125,0.125,0.0,0.0,0.0
1695657804217,-0.98535156,0.04296875,-0.13085938,0.125,-0.09375,0.125,0.0,0.0,0.0
1695657804221,-0.9863281,0.037109375,-0.11035156,-0.21875,-0.09375,-0.0625,0.0,0.0,0.0
1695657804270,-0.99121094,0.040039062,-0.11425781,-0.15625,0.03125,-0.0625,-22.625,17.75,-69.5
1695657804325,-0.9921875,0.040039062,-0.11035156,-0.53125,-0.15625,-0.125,0.0,0.0,0.0
1695657804347,-0.9902344,0.037109375,-0.11425781,-0.84375,-0.21875,0.0,0.0,0.0,0.0
1695657804378,-0.98046875,0.032226562,-0.109375,-0.40625,-0.09375,0.125,0.0,0.0,0.0
1695657804427,-0.9921875,0.043945312,-0.103515625,-0.21875,-0.28125,0.0625,0.0,0.0,0.0
1695657804454,-0.98828125,0.038085938,-0.12695312,-0.15625,-0.28125,-0.0625,0.0,0.0,0.0
1695657804531,-0.98535156,0.03515625,-0.11425781,-0.09375,-0.21875,-0.0625,0.0,0.0,0.0
1695657804535,-0.99121094,0.034179688,-0.11425781,-0.15625,-0.09375,0.0625,0.0,0.0,0.0
1695657804584,-0.98339844,0.0390625,-0.115234375,-0.09375,-0.40625,0.0625,0.0,0.0,0.0
1695657804636,-0.98828125,0.037109375,-0.11425781,-0.09375,-0.15625,0.0,0.0,0.0,0.0
1695657804689,-0.98339844,0.033203125,-0.109375,-0.15625,-0.21875,-0.1875,0.0,0.0,0.0
1695657804692,-0.984375,0.038085938,-0.11425781,-0.40625,-0.34375,0.1875,0.0,0.0,0.0
1695657804742,-0.9941406,0.04296875,-0.1015625,-0.15625,-0.34375,-0.0625,0.0,0.0,0.0
1695657804768,-0.9902344,0.032226562,-0.10546875,-0.15625,-0.46875,-0.0625,-22.1875,17.5625,-70.6875
1695657804846,-0.9902344,0.024414062,-0.1015625,0.375,-0.34375,0.0,0.0,0.0,0.0
1695657804849,-0.9863281,0.0390625,-0.11230469,0.1875,-0.28125,-0.125,0.0,0.0,0.0
1695657804900,-0.98046875,0.041015625,-0.12109375,0.5625,-0.28125,0.0625,0.0,0.0,0.0
1695657804952,-0.99902344,0.0390625,-0.1171875,0.5625,-0.34375,-0.0625,0.0,0.0,0.0
1695657804977,-0.98828125,0.041992188,-0.10644531,-0.21875,-0.34375,-0.125,0.0,0.0,0.0
1695657805056,-0.9921875,0.033203125,-0.12207031,-0.09375,-0.34375,0.0625,0.0,0.0,0.0
1695657805061,-0.9892578,0.036132812,-0.10449219,0.0,-0.34375,-0.125,0.0,0.0,0.0
1695657805111,-0.9892578,0.043945312,-0.1015625,0.125,-0.34375,0.0,0.0,0.0,0.0
1695657805162,-0.9892578,0.041015625,-0.109375,0.0625,-0.34375,-0.125,0.0,0.0,0.0
1695657805189,-0.9873047,0.034179688,-0.109375,0.25,-0.34375,0.0,0.0,0.0,0.0
1695657805215,-0.9902344,0.03515625,-0.11230469,0.0625,-0.21875,-0.125,0.0,0.0,0.0
1695657805268,-0.9921875,0.045898438,-0.11035156,-0.09375,-0.40625,-0.25,-23.5625,18.0625,-70.6875
1695657805294,-0.9892578,0.043945312,-0.09765625,-0.15625,-0.09375,-0.25,0.0,0.0,0.0
1695657805371,-0.99902344,0.049804688,-0.103515625,-0.09375,-0.15625,-0.1875,0.0,0.0,0.0
1695657805375,-0.9873047,0.026367188,-0.11035156,0.0,-0.59375,-0.0625,0.0,0.0,0.0
1695657805479,-0.9951172,0.040039062,-0.1171875,0.1875,-0.21875,-0.25,0.0,0.0,0.0
1695657805486,-0.97753906,0.038085938,-0.123046875,0.25,-0.46875,-0.375,0.0,0.0,0.0
1695657805502,-0.9902344,0.040039062,-0.09765625,0.3125,-0.34375,-0.0625,0.0,0.0,0.0
1695657805529,-0.9892578,0.034179688,-0.10644531,0.0625,-0.28125,-0.25,0.0,0.0,0.0
1695657805582,-0.9863281,0.040039062,-0.109375,0.4375,-0.53125,-0.0625,0.0,0.0,0.0
1695657805609,-0.9921875,0.0390625,-0.103515625,0.125,-0.40625,-0.125,0.0,0.0,0.0
1695657805689,-0.98339844,0.038085938,-0.09472656,0.3125,-0.59375,-0.1875,0.0,0.0,0.0
1695657805694,-0.9873047,0.038085938,-0.1015625,0.1875,-0.40625,-0.1875,0.0,0.0,0.0
1695657805739,-0.9902344,0.038085938,-0.10546875,0.0,-0.53125,-0.25,0.0,0.0,0.0
1695657805791,-0.98046875,0.041015625,-0.10546875,0.25,-0.59375,-0.0625,-24.0,18.0625,-69.9375
1695657805817,-0.9863281,0.03515625,-0.107421875,0.0625,-0.59375,-0.0625,0.0,0.0,0.0
1695657805896,-0.9892578,0.03515625,-0.10644531,-0.0625,-0.59375,-0.3125,0.0,0.0,0.0
1695657805900,-0.99121094,0.029296875,-0.103515625,0.0625,-0.53125,-0.125,0.0,0.0,0.0
1695657805951,-0.99316406,0.034179688,-0.103515625,-0.09375,-0.03125,-0.125,0.0,0.0,0.0
1695657806005,-0.9892578,0.033203125,-0.107421875,0.5625,-0.28125,-0.1875,0.0,0.0,0.0
1695657806029,-0.9892578,0.03125,-0.1015625,0.125,-0.03125,-0.1875,0.0,0.0,0.0
1695657806056,-0.9951172,0.04296875,-0.11328125,0.3125,-0.09375,-0.1875,0.0,0.0,0.0
1695657806107,-1.0009766,0.038085938,-0.09863281,0.3125,-0.28125,-0.125,0.0,0.0,0.0
1695657806133,-0.99121094,0.037109375,-0.107421875,0.25,-0.21875,-0.125,0.0,0.0,0.0
1695657806213,-0.99121094,0.034179688,-0.099609375,0.0625,-0.34375,-0.1875,0.0,0.0,0.0
1695657806215,-0.98535156,0.025390625,-0.11230469,0.625,-0.15625,-0.125,0.0,0.0,0.0
1695657806263,-0.9941406,0.028320312,-0.099609375,0.125,-0.21875,-0.1875,-24.0,19.0625,-71.0
1695657806316,-0.98535156,0.032226562,-0.08984375,0.375,-0.15625,-0.25,0.0,0.0,0.0
1695657806343,-0.9814453,0.022460938,-0.10253906,0.0625,-0.46875,-0.1875,0.0,0.0,0.0
1695657806371,-0.99316406,0.025390625,-0.10449219,0.125,-0.46875,-0.1875,0.0,0.0,0.0
1695657806421,-0.99121094,0.03515625,-0.09277344,0.3125,-0.21875,-0.1875,0.0,0.0,0.0
1695657806447,-0.99316406,0.020507812,-0.111328125,0.5,-0.15625,-0.1875,0.0,0.0,0.0
1695657806528,-0.9765625,0.040039062,-0.10253906,-0.0625,-0.46875,0.0,0.0,0.0,0.0
1695657806554,-0.99902344,0.034179688,-0.10253906,0.125,-0.21875,-0.25,0.0,0.0,0.0
1695657806578,-0.9873047,0.024414062,-0.10253906,0.3125,-0.09375,-0.125,0.0,0.0,0.0
1695657806658,-0.9824219,0.029296875,-0.099609375,-0.09375,-0.03125,-0.25,0.0,0.0,0.0
1695657806662,-0.98828125,0.038085938,-0.10644531,0.3125,-0.15625,-0.1875,0.0,0.0,0.0
1695657806737,-0.9980469,0.03515625,-0.09765625,-0.0625,0.03125,-0.0625,0.0,0.0,0.0
1695657806741,-0.98339844,0.029296875,-0.111328125,-0.15625,-0.28125,-0.0625,0.0,0.0,0.0
1695657806789,-0.98339844,0.028320312,-0.09472656,0.1875,-0.28125,-0.125,-24.0,18.625,-69.625
1695657806841,-0.99609375,0.03125,-0.10058594,-0.09375,-0.09375,-0.375,0.0,0.0,0.0
1695657806870,-0.9746094,0.028320312,-0.09375,0.0,-0.03125,0.0625,0.0,0.0,0.0
1695657806896,-0.99316406,0.026367188,-0.10253906,-0.21875,-0.09375,0.125,0.0,0.0,0.0
1695657806972,-0.99316406,0.032226562,-0.10839844,-0.09375,-0.15625,-0.0625,0.0,0.0,0.0
1695657806974,-0.97753906,0.033203125,-0.1015625,-0.0625,-0.28125,0.0625,0.0,0.0,0.0
1695657807053,-0.9970703,0.02734375,-0.10546875,-0.0625,-0.28125,0.1875,0.0,0.0,0.0
1695657807058,-0.98535156,0.03125,-0.099609375,0.125,-0.28125,-0.125,0.0,0.0,0.0
1695657807104,-0.9892578,0.028320312,-0.09667969,0.125,-0.15625,-0.3125,0.0,0.0,0.0
1695657807157,-0.9892578,0.03125,-0.107421875,-0.09375,-0.28125,-0.1875,0.0,0.0,0.0
1695657807184,-0.99121094,0.03125,-0.11035156,-0.21875,-0.28125,0.0625,0.0,0.0,0.0
1695657807208,-0.98828125,0.021484375,-0.09765625,0.375,0.03125,0.125,0.0,0.0,0.0
1695657807263,-0.98828125,0.041992188,-0.10449219,0.1875,0.125,-0.125,-22.625,17.75,-68.4375
1695657807289,-0.9941406,0.026367188,-0.09082031,0.0625,0.0625,-0.0625,0.0,0.0,0.0
1695657807367,-0.99121094,0.026367188,-0.10253906,0.0,0.03125,-0.0625,0.0,0.0,0.0
1695657807393,-0.9902344,0.036132812,-0.09667969,0.0,-0.03125,-0.0625,0.0,0.0,0.0
1695657807420,-0.99316406,0.028320312,-0.099609375,0.0625,0.125,-0.125,0.0,0.0,0.0
1695657807471,-0.9951172,0.030273438,-0.10253906,0.0625,-0.15625,-0.0625,0.0,0.0,0.0
1695657807498,-0.99121094,0.018554688,-0.09472656,0.5,-0.09375,-0.1875,0.0,0.0,0.0
1695657807578,-0.9794922,0.025390625,-0.09375,0.8125,-0.15625,0.0,0.0,0.0,0.0
1695657807583,-0.97753906,0.0390625,-0.09082031,0.6875,0.03125,-0.125,0.0,0.0,0.0
1695657807628,-0.98535156,0.024414062,-0.10449219,0.6875,-0.09375,-0.125,0.0,0.0,0.0
1695657807682,-0.9824219,0.026367188,-0.09277344,0.3125,0.1875,-0.0625,0.0,0.0,0.0
1695657807733,-0.9892578,0.020507812,-0.09082031,0.5,0.03125,0.1875,0.0,0.0,0.0
1695657807738,-0.99316406,0.025390625,-0.09375,0.8125,-0.15625,-0.0625,0.0,0.0,0.0
1695657807790,-0.9794922,0.034179688,-0.09863281,1.65625,0.0625,-0.0625,-24.125,17.75,-70.125
1695657807813,-0.984375,0.028320312,-0.10253906,0.9375,0.0625,0.125,0.0,0.0,0.0
1695657807892,-0.99316406,0.022460938,-0.10449219,1.0625,-0.15625,0.1875,0.0,0.0,0.0
1695657807895,-0.9941406,0.028320312,-0.10058594,1.40625,0.125,0.125,0.0,0.0,0.0
1695657807946,-0.98535156,0.0234375,-0.09277344,1.125,0.0625,0.3125,0.0,0.0,0.0
1695657808003,-0.9794922,0.034179688,-0.111328125,0.1875,-0.03125,0.40625,0.0,0.0,0.0
1695657808025,-0.9951172,0.026367188,-0.10253906,0.5625,0.125,0.125,0.0,0.0,0.0
1695657808051,-0.9892578,0.020507812,-0.09375,0.8125,0.03125,0.34375,0.0,0.0,0.0
1695657808102,-0.9902344,0.025390625,-0.08886719,0.9375,0.125,0.0625,0.0,0.0,0.0
1695657808131,-0.9951172,0.028320312,-0.091796875,1.28125,0.03125,0.53125,0.0,0.0,0.0
1695657808209,-0.9873047,0.037109375,-0.10253906,0.5625,0.125,0.25,0.0,0.0,0.0
1695657808232,-0.9941406,0.038085938,-0.091796875,-0.34375,0.375,0.53125,0.0,0.0,0.0
1695657808262,-0.99316406,0.032226562,-0.10839844,-0.96875,0.125,0.53125,-23.6875,19.25,-71.125
1695657808314,-0.99609375,0.032226562,-0.09277344,-1.5625,0.1875,0.40625,0.0,0.0,0.0
1695657808339,-0.9824219,0.030273438,-0.095703125,-2.25,-0.09375,0.71875,0.0,0.0,0.0
1695657808417,-0.98535156,0.016601562,-0.091796875,-1.5625,-0.09375,0.84375,0.0,0.0,0.0
1695657808421,-0.9902344,0.026367188,-0.103515625,-1.34375,0.03125,0.34375,0.0,0.0,0.0
1695657808523,-0.9941406,0.03515625,-0.10449219,-1.5,-0.03125,0.59375,0.0,0.0,0.0
1695657808526,-0.9863281,0.036132812,-0.10253906,-1.28125,-0.03125,0.65625,0.0,0.0,0.0
1695657808552,-0.9902344,0.036132812,-0.0859375,-0.40625,0.0625,0.46875,0.0,0.0,0.0
1695657808573,-0.9902344,0.030273438,-0.09667969,-1.03125,0.0625,0.53125,0.0,0.0,0.0
1695657808627,-0.9892578,0.026367188,-0.10449219,0.6875,0.0625,0.40625,0.0,0.0,0.0
1695657808654,-0.9794922,0.034179688,-0.09472656,-0.09375,0.5,0.3125,0.0,0.0,0.0
1695657808733,-0.99316406,0.030273438,-0.09277344,-0.0625,0.8125,0.59375,0.0,0.0,0.0
1695657808737,-1.0,0.036132812,-0.099609375,-0.0625,0.03125,0.71875,0.0,0.0,0.0
1695657808784,-0.99316406,0.0234375,-0.09765625,-0.0625,-0.15625,0.65625,-24.125,17.4375,-70.875
1695657808835,-1.0039062,0.03125,-0.10449219,-0.09375,-0.03125,0.1875,0.0,0.0,0.0
1695657808863,-0.9863281,0.034179688,-0.08984375,0.0625,0.1875,0.53125,0.0,0.0,0.0
1695657808889,-0.99121094,0.04296875,-0.09472656,-0.34375,0.25,0.34375,0.0,0.0,0.0
1695657808943,-0.9824219,0.038085938,-0.091796875,-0.71875,0.3125,0.46875,0.0,0.0,0.0
1695657808969,-0.9873047,0.02734375,-0.08691406,-0.90625,0.1875,0.46875,0.0,0.0,0.0
1695657809047,-0.9892578,0.034179688,-0.10449219,-0.65625,-0.03125,0.40625,0.0,0.0,0.0
1695657809073,-0.99121094,0.02734375,-0.08300781,-0.96875,-0.03125,0.1875,0.0,0.0,0.0
1695657809099,-0.9921875,0.03125,-0.09765625,-0.09375,-0.40625,0.46875,0.0,0.0,0.0
1695657809151,-0.9824219,0.022460938,-0.10546875,-0.46875,0.0625,0.25,0.0,0.0,0.0
1695657809178,-0.9892578,0.030273438,-0.09667969,0.0625,0.4375,0.40625,0.0,0.0,0.0
1695657809258,-0.9941406,0.04296875,-0.10058594,-0.0625,0.3125,0.34375,0.0,0.0,0.0
1695657809261,-0.99316406,0.034179688,-0.09667969,0.25,0.1875,0.53125,-24.875,17.75,-70.125
1695657809309,-0.9951172,0.040039062,-0.09277344,-0.0625,0.1875,0.34375,0.0,0.0,0.0
1695657809363,-0.99316406,0.041992188,-0.10058594,1.0625,0.0625,0.34375,0.0,0.0,0.0
1695657809387,-0.9824219,0.03125,-0.09375,0.875,0.1875,0.25,0.0,0.0,0.0
1695657809418,-0.98535156,0.038085938,-0.08691406,0.8125,0.3125,0.1875,0.0,0.0,0.0
1695657809466,-0.9970703,0.038085938,-0.08984375,0.75,0.375,0.59375,0.0,0.0,0.0
1695657809493,-0.99609375,0.033203125,-0.10449219,0.125,0.0625,0.40625,0.0,0.0,0.0
1695657809573,-0.98535156,0.024414062,-0.10058594,0.0,0.375,0.34375,0.0,0.0,0.0
1695657809578,-0.98046875,0.03125,-0.09082031,0.1875,0.25,0.78125,0.0,0.0,0.0
1695657809625,-0.98339844,0.036132812,-0.09277344,-0.0625,0.25,0.53125,0.0,0.0,0.0
1695657809677,-0.98828125,0.038085938,-0.08984375,1.0625,0.375,0.71875,0.0,0.0,0.0
1695657809702,-0.9814453,0.04296875,-0.107421875,0.25,0.375,0.125,0.0,0.0,0.0
1695657809729,-0.98828125,0.036132812,-0.09863281,1.125,0.3125,0.46875,0.0,0.0,0.0
1695657809784,-0.9892578,0.038085938,-0.10449219,-0.28125,0.5,0.65625,-22.8125,18.625,-69.625
1695657809809,-0.99121094,0.034179688,-0.08691406,0.0,0.375,0.65625,0.0,0.0,0.0
1695657809888,-0.9902344,0.0390625,-0.10253906,0.4375,0.5625,0.90625,0.0,0.0,0.0
1695657809912,-0.99121094,0.048828125,-0.087890625,0.1875,0.6875,0.59375,0.0,0.0,0.0
1695657809941,-1.0009766,0.046875,-0.09472656,-1.40625,0.75,1.03125,0.0,0.0,0.0
1695657810016,-0.984375,0.047851562,-0.083984375,-1.28125,0.3125,0.96875,0.0,0.0,0.0
1695657810020,-0.9824219,0.043945312,-0.091796875,-0.90625,0.375,0.84375,0.0,0.0,0.0
1695657810098,-0.9921875,0.04296875,-0.09277344,-1.15625,0.5625,0.84375,0.0,0.0,0.0
1695657810102,-0.984375,0.046875,-0.09765625,-1.15625,0.5625,0.59375,0.0,0.0,0.0
1695657810151,-0.9863281,0.043945312,-0.09472656,-1.09375,0.8125,0.59375,0.0,0.0,0.0
1695657810202,-0.98535156,0.05078125,-0.09375,-1.6875,1.0625,0.90625,0.0,0.0,0.0
1695657810229,-0.99121094,0.043945312,-0.09667969,-1.28125,0.8125,1.03125,0.0,0.0,0.0
1695657810254,-0.98535156,0.040039062,-0.10253906,-1.5,0.8125,0.46875,-23.5625,18.0625,-69.375
1695657810309,-0.9863281,0.046875,-0.09765625,-0.65625,1.125,0.65625,0.0,0.0,0.0
1695657810334,-0.98535156,0.04296875,-0.111328125,-0.71875,0.9375,0.59375,0.0,0.0,0.0
1695657810411,-0.9951172,0.037109375,-0.095703125,-0.28125,1.1875,0.59375,0.0,0.0,0.0
1695657810414,-0.99316406,0.048828125,-0.099609375,-0.71875,1.0,0.3125,0.0,0.0,0.0
1695657810463,-0.9921875,0.05078125,-0.10546875,-1.34375,1.0625,0.53125,0.0,0.0,0.0
1695657810517,-0.98828125,0.053710938,-0.09277344,-1.15625,1.125,0.90625,0.0,0.0,0.0
1695657810543,-0.984375,0.041992188,-0.109375,-1.09375,0.875,0.46875,0.0,0.0,0.0
1695657810567,-0.9902344,0.0546875,-0.103515625,-0.78125,0.875,0.34375,0.0,0.0,0.0
1695657810629,-0.99609375,0.043945312,-0.11621094,-0.0625,1.0,0.53125,0.0,0.0,0.0
1695657810727,-0.98046875,0.052734375,-0.09765625,-0.15625,1.125,0.34375,0.0,0.0,0.0
1695657810729,-0.9892578,0.0546875,-0.115234375,-0.28125,1.0625,0.53125,0.0,0.0,0.0
1695657810782,-0.99316406,0.0546875,-0.109375,-1.40625,1.0,0.40625,0.0,0.0,0.0
1695657810784,-0.99609375,0.055664062,-0.09765625,-0.84375,0.8125,0.1875,-23.375,19.5625,-69.8125
1695657810832,-0.98828125,0.049804688,-0.09765625,-0.53125,0.4375,0.0,0.0,0.0,0.0
1695657810858,-0.9892578,0.045898438,-0.1015625,-0.96875,0.5,0.3125,0.0,0.0,0.0
1695657810938,-0.98535156,0.04296875,-0.099609375,0.0625,0.375,0.25,0.0,0.0,0.0
1695657810941,-0.98828125,0.047851562,-0.10546875,0.3125,0.4375,0.0625,0.0,0.0,0.0
1695657810989,-0.984375,0.048828125,-0.111328125,0.0625,0.1875,0.0625,0.0,0.0,0.0
1695657811048,-0.98828125,0.053710938,-0.10449219,0.1875,0.0625,0.1875,0.0,0.0,0.0
1695657811071,-0.9902344,0.045898438,-0.09863281,0.0,0.1875,0.0,0.0,0.0,0.0
1695657811094,-0.9863281,0.049804688,-0.09863281,0.375,0.125,0.0625,0.0,0.0,0.0
1695657811148,-0.9863281,0.0390625,-0.10449219,0.1875,0.0625,0.25,0.0,0.0,0.0
1695657811173,-0.9824219,0.04296875,-0.10449219,0.0,-0.09375,0.0,0.0,0.0,0.0
1695657811254,-0.98828125,0.06542969,-0.10449219,-0.09375,0.03125,0.1875,0.0,0.0,0.0
1695657811258,-0.9873047,0.047851562,-0.1015625,-0.15625,0.03125,0.125,-24.125,18.1875,-70.875
1695657811304,-0.9892578,0.043945312,-0.10058594,0.5,0.0625,0.25,0.0,0.0,0.0
1695657811356,-0.9873047,0.047851562,-0.11035156,0.25,-0.03125,0.125,0.0,0.0,0.0
1695657811383,-0.98535156,0.047851562,-0.09863281,0.4375,-0.40625,0.3125,0.0,0.0,0.0
1695657811411,-0.9814453,0.052734375,-0.12011719,-0.15625,-0.28125,0.0,0.0,0.0,0.0
1695657811461,-0.98828125,0.045898438,-0.11328125,-0.09375,-0.03125,0.1875,0.0,0.0,0.0
1695657811488,-0.98339844,0.038085938,-0.1015625,0.0,0.25,0.0,0.0,0.0,0.0
1695657811570,-0.9921875,0.051757812,-0.09472656,0.25,0.03125,0.0,0.0,0.0,0.0
1695657811593,-0.984375,0.043945312,-0.09472656,0.0,-0.15625,0.1875,0.0,0.0,0.0
1695657811622,-1.0,0.041992188,-0.10644531,-0.09375,-0.09375,0.1875,0.0,0.0,0.0
1695657811671,-0.98339844,0.052734375,-0.09765625,0.25,0.03125,0.125,0.0,0.0,0.0
1695657811699,-0.99316406,0.041015625,-0.119140625,-0.0625,0.125,0.34375,0.0,0.0,0.0
1695657811778,-0.97753906,0.04296875,-0.09765625,0.0,0.0625,0.0625,0.0,0.0,0.0
1695657811781,-0.9892578,0.049804688,-0.10253906,0.125,0.125,-0.0625,-24.875,18.5,-70.5625
1695657811830,-0.9941406,0.052734375,-0.09667969,-0.09375,-0.03125,0.3125,0.0,0.0,0.0
1695657811885,-0.98046875,0.04296875,-0.103515625,-0.15625,-0.03125,0.3125,0.0,0.0,0.0
1695657811908,-0.99316406,0.041992188,-0.10644531,-0.15625,0.3125,0.0,0.0,0.0,0.0
1695657811936,-0.9892578,0.049804688,-0.09765625,-0.40625,0.125,0.25,0.0,0.0,0.0
1695657811987,-0.9873047,0.045898438,-0.09765625,-0.15625,0.0625,0.40625,0.0,0.0,0.0
1695657812012,-0.99609375,0.047851562,-0.10253906,-0.53125,0.25,0.0625,0.0,0.0,0.0
1695657812092,-0.99609375,0.051757812,-0.099609375,-0.34375,0.125,0.25,0.0,0.0,0.0
1695657812097,-0.9824219,0.044921875,-0.10058594,-0.46875,0.125,0.25,0.0,0.0,0.0
1695657812149,-0.9863281,0.044921875,-0.099609375,-0.78125,0.3125,0.25,0.0,0.0,0.0
1695657812197,-0.984375,0.055664062,-0.09863281,-0.40625,0.375,0.1875,0.0,0.0,0.0
1695657812223,-0.98339844,0.044921875,-0.10449219,-0.78125,0.375,0.25,0.0,0.0,0.0
1695657812248,-0.9951172,0.0546875,-0.099609375,-0.96875,0.375,0.25,-25.375,20.125,-70.25
1695657812302,-0.98535156,0.053710938,-0.1015625,-1.03125,0.375,0.3125,0.0,0.0,0.0
1695657812328,-0.9902344,0.048828125,-0.09277344,-0.65625,0.5,0.125,0.0,0.0,0.0
1695657812407,-0.9873047,0.047851562,-0.1015625,0.0625,0.4375,0.25,0.0,0.0,0.0
1695657812435,-0.9941406,0.051757812,-0.11230469,-0.0625,0.5,0.3125,0.0,0.0,0.0
1695657812462,-0.99121094,0.049804688,-0.09472656,-0.15625,0.625,0.34375,0.0,0.0,0.0
1695657812513,-0.9824219,0.043945312,-0.10644531,-0.28125,1.0,0.46875,0.0,0.0,0.0
1695657812537,-0.9892578,0.045898438,-0.10546875,0.5,0.4375,0.3125,0.0,0.0,0.0
1695657812617,-0.9873047,0.05078125,-0.1015625,-0.15625,0.4375,0.3125,0.0,0.0,0.0
1695657812622,-0.99121094,0.041015625,-0.10644531,0.125,0.4375,0.34375,0.0,0.0,0.0
1695657812668,-0.9941406,0.057617188,-0.109375,0.0625,0.375,0.1875,0.0,0.0,0.0
1695657812721,-0.9814453,0.064453125,-0.10058594,-0.40625,0.25,0.1875,0.0,0.0,0.0
1695657812749,-0.99121094,0.049804688,-0.12597656,-0.28125,0.0625,0.40625,0.0,0.0,0.0
1695657812773,-0.9824219,0.0390625,-0.10546875,-0.71875,0.1875,0.25,-22.625,16.6875,-70.5625
1695657812828,-0.9892578,0.060546875,-0.1171875,0.125,0.3125,0.40625,0.0,0.0,0.0
1695657812855,-0.98339844,0.047851562,-0.107421875,-0.65625,0.25,0.25,0.0,0.0,0.0
1695657812932,-0.99316406,0.055664062,-0.11230469,-0.59375,-0.03125,0.0,0.0,0.0,0.0
1695657812936,-0.9902344,0.05078125,-0.107421875,-0.65625,0.5625,0.25,0.0,0.0,0.0
1695657812984,-0.98828125,0.05078125,-0.095703125,-0.46875,0.03125,0.125,0.0,0.0,0.0
1695657813037,-0.984375,0.057617188,-0.107421875,-0.34375,0.375,0.46875,0.0,0.0,0.0
1695657813065,-0.9824219,0.047851562,-0.09667969,-0.59375,0.1875,0.0625,0.0,0.0,0.0
1695657813091,-0.98535156,0.046875,-0.1015625,0.125,0.125,-0.1875,0.0,0.0,0.0
1695657813142,-0.99316406,0.049804688,-0.10644531,0.3125,0.3125,0.0,0.0,0.0,0.0
1695657813168,-0.984375,0.055664062,-0.107421875,-0.0625,0.4375,0.1875,0.0,0.0,0.0
1695657813248,-0.9902344,0.044921875,-0.10449219,0.25,0.125,-0.125,0.0,0.0,0.0
1695657813273,-0.9863281,0.056640625,-0.119140625,-0.40625,0.03125,-0.0625,-23.125,18.5,-71.4375
1695657813299,-0.98535156,0.05078125,-0.109375,-0.21875,-0.09375,0.25,0.0,0.0,0.0
1695657813352,-0.98339844,0.047851562,-0.1015625,-0.09375,-0.15625,0.125,0.0,0.0,0.0
1695657813379,-0.99609375,0.053710938,-0.1015625,-0.59375,0.375,-0.125,0.0,0.0,0.0
1695657813458,-0.9892578,0.047851562,-0.11035156,0.0625,-0.03125,0.0625,0.0,0.0,0.0
1695657813462,-0.98828125,0.047851562,-0.12207031,-0.46875,0.03125,0.125,0.0,0.0,0.0
1695657813509,-0.98046875,0.046875,-0.1171875,-0.21875,-0.09375,-0.0625,0.0,0.0,0.0
1695657813563,-0.9814453,0.05078125,-0.10644531,-0.21875,0.03125,-0.125,0.0,0.0,0.0
1695657813588,-0.9902344,0.045898438,-0.099609375,-0.28125,0.1875,0.0625,0.0,0.0,0.0
1695657813615,-0.99609375,0.043945312,-0.10253906,0.25,0.0625,-0.125,0.0,0.0,0.0
1695657813667,-0.9824219,0.046875,-0.10839844,-0.21875,-0.28125,0.0,0.0,0.0,0.0
1695657813693,-0.98828125,0.040039062,-0.10644531,0.0625,-0.21875,0.1875,0.0,0.0,0.0
1695657813773,-0.98535156,0.044921875,-0.1171875,0.0625,-0.21875,0.0625,0.0,0.0,0.0
1695657813776,-0.9873047,0.046875,-0.10839844,0.0,0.03125,0.0,-24.3125,19.375,-70.6875
1695657813825,-0.98828125,0.04296875,-0.10058594,-0.09375,-0.34375,-0.0625,0.0,0.0,0.0
1695657813879,-0.9941406,0.049804688,-0.09765625,0.5,-0.09375,0.125,0.0,0.0,0.0
1695657813903,-0.9863281,0.047851562,-0.10449219,0.1875,-0.09375,0.125,0.0,0.0,0.0
1695657813932,-0.9941406,0.047851562,-0.095703125,0.75,-0.28125,0.0,0.0,0.0,0.0
1695657813986,-0.98046875,0.053710938,-0.11035156,0.125,-0.21875,0.25,0.0,0.0,0.0
1695657814009,-0.9980469,0.044921875,-0.10058594,0.375,-0.15625,0.0,0.0,0.0,0.0
1695657814089,-0.9921875,0.051757812,-0.099609375,0.5625,-0.09375,-0.125,0.0,0.0,0.0
1695657814112,-0.984375,0.056640625,-0.10546875,0.8125,-0.21875,0.1875,0.0,0.0,0.0
1695657814138,-0.9814453,0.048828125,-0.10546875,0.3125,-0.28125,0.0625,0.0,0.0,0.0
1695657814192,-0.984375,0.0546875,-0.10058594,0.4375,-0.28125,0.1875,0.0,0.0,0.0
1695657814218,-0.98828125,0.048828125,-0.11035156,0.0625,-0.09375,0.0,0.0,0.0,0.0
1695657814296,-0.99121094,0.051757812,-0.09375,0.0625,-0.09375,0.0625,-23.25,18.625,-70.6875
1695657814300,-0.9863281,0.046875,-0.10253906,-0.21875,0.03125,0.0,0.0,0.0,0.0
1695657814349,-0.99316406,0.053710938,-0.103515625,0.0,-0.03125,0.0625,0.0,0.0,0.0
1695657814401,-0.984375,0.041992188,-0.103515625,-0.09375,-0.15625,0.125,0.0,0.0,0.0
1695657814428,-0.9863281,0.049804688,-0.099609375,-0.0625,-0.09375,0.1875,0.0,0.0,0.0
1695657814455,-0.98535156,0.046875,-0.09667969,0.0,-0.09375,0.125,0.0,0.0,0.0
1695657814509,-0.984375,0.0546875,-0.10058594,0.0,-0.09375,0.0625,0.0,0.0,0.0
1695657814535,-0.98535156,0.045898438,-0.10546875,-0.09375,-0.15625,0.0625,0.0,0.0,0.0
1695657814615,-0.9902344,0.047851562,-0.111328125,-0.0625,0.0625,0.0,0.0,0.0,0.0
1695657814617,-0.9951172,0.043945312,-0.10546875,-0.0625,0.03125,0.1875,0.0,0.0,0.0
1695657814664,-0.9863281,0.049804688,-0.10253906,-0.0625,-0.09375,-0.0625,0.0,0.0,0.0
1695657814719,-0.9970703,0.048828125,-0.11230469,0.0,0.125,0.0,0.0,0.0,0.0
1695657814743,-0.9892578,0.052734375,-0.095703125,-0.15625,0.0625,0.0625,0.0,0.0,0.0
1695657814771,-0.98828125,0.038085938,-0.09765625,0.125,0.0625,0.0625,-23.375,19.25,-70.875
1695657814823,-0.98828125,0.043945312,-0.10546875,-0.0625,0.125,0.1875,0.0,0.0,0.0
1695657814875,-0.9824219,0.049804688,-0.09667969,-0.34375,0.03125,0.25,0.0,0.0,0.0
1695657814930,-0.9873047,0.043945312,-0.099609375,-0.0625,0.1875,-0.0625,0.0,0.0,0.0
1695657814954,-0.99316406,0.057617188,-0.09667969,-0.09375,0.25,0.0625,0.0,0.0,0.0
1695657814979,-0.98828125,0.043945312,-0.095703125,-0.21875,0.3125,-0.0625,0.0,0.0,0.0
1695657815031,-0.98535156,0.053710938,-0.09375,0.25,0.25,0.0,0.0,0.0,0.0
1695657815058,-0.98828125,0.041992188,-0.10546875,-0.0625,0.0625,0.0,0.0,0.0,0.0
1695657815135,-0.98828125,0.041992188,-0.09375,0.3125,0.25,0.0,0.0,0.0,0.0
1695657815138,-0.99316406,0.051757812,-0.09863281,0.0625,0.4375,-0.0625,0.0,0.0,0.0
1695657815190,-0.9892578,0.055664062,-0.087890625,-0.34375,0.3125,-0.0625,0.0,0.0,0.0
1695657815243,-0.99121094,0.040039062,-0.09765625,0.0625,0.375,0.0,0.0,0.0,0.0
1695657815270,-0.9951172,0.038085938,-0.08984375,-0.0625,0.3125,-0.3125,-23.375,18.5,-70.5625
1695657815295,-0.9824219,0.053710938,-0.10449219,-0.21875,0.1875,-0.125,0.0,0.0,0.0
1695657815346,-0.9902344,0.0546875,-0.09277344,0.0,0.4375,0.0625,0.0,0.0,0.0
1695657815374,-0.9951172,0.048828125,-0.10253906,0.0625,0.3125,-0.125,0.0,0.0,0.0
1695657815453,-0.98828125,0.046875,-0.09375,0.0625,0.25,-0.3125,0.0,0.0,0.0
1695657815458,-0.9814453,0.0390625,-0.10058594,-0.40625,0.4375,-0.125,0.0,0.0,0.0
1695657815505,-0.98828125,0.046875,-0.099609375,-0.40625,0.1875,0.0625,0.0,0.0,0.0
1695657815557,-0.99316406,0.047851562,-0.10449219,-0.53125,0.375,-0.125,0.0,0.0,0.0
1695657815583,-0.984375,0.04296875,-0.10058594,-0.0625,0.3125,-0.0625,0.0,0.0,0.0
1695657815609,-0.9863281,0.049804688,-0.10546875,-0.21875,0.625,-0.125,0.0,0.0,0.0
1695657815663,-1.0,0.043945312,-0.109375,-0.09375,0.375,0.0,0.0,0.0,0.0
1695657815714,-0.99121094,0.048828125,-0.099609375,-0.28125,0.0625,-0.25,0.0,0.0,0.0
1695657815769,-0.9902344,0.047851562,-0.10449219,0.0625,0.25,0.0,0.0,0.0,0.0
1695657815794,-0.98828125,0.044921875,-0.109375,0.125,0.5625,-0.0625,-23.125,18.5,-70.5625
1695657815820,-0.9863281,0.048828125,-0.11035156,0.375,0.375,-0.125,0.0,0.0,0.0
1695657815873,-0.9863281,0.044921875,-0.10546875,0.125,0.5,-0.1875,0.0,0.0,0.0
1695657815899,-0.99316406,0.047851562,-0.11230469,-0.21875,0.25,-0.1875,0.0,0.0,0.0
1695657815979,-0.984375,0.041015625,-0.10839844,-0.0625,0.25,-0.25,0.0,0.0,0.0
1695657815987,-0.9824219,0.046875,-0.109375,-0.15625,0.125,-0.1875,0.0,0.0,0.0
1695657816028,-0.9892578,0.051757812,-0.09863281,0.125,0.3125,-0.25,0.0,0.0,0.0
1695657816081,-0.9824219,0.0390625,-0.11230469,0.25,0.3125,-0.125,0.0,0.0,0.0
1695657816109,-0.9892578,0.045898438,-0.107421875,0.0625,0.375,-0.25,0.0,0.0,0.0
1695657816135,-0.9863281,0.04296875,-0.091796875,0.1875,0.125,-0.125,0.0,0.0,0.0
1695657816188,-0.984375,0.041992188,-0.10253906,-0.21875,0.125,-0.0625,0.0,0.0,0.0
1695657816212,-0.9873047,0.040039062,-0.09863281,-0.0625,0.3125,0.0625,0.0,0.0,0.0
1695657816293,-0.9863281,0.038085938,-0.09863281,-0.15625,0.1875,-0.1875,-23.125,17.75,-70.125
1695657816295,-0.9863281,0.05078125,-0.111328125,-0.09375,0.25,-0.0625,0.0,0.0,0.0
1695657816343,-0.9794922,0.043945312,-0.1015625,-0.21875,0.0625,0.0,0.0,0.0,0.0
1695657816398,-0.9892578,0.038085938,-0.10058594,-0.09375,0.0625,0.0,0.0,0.0,0.0
1695657816424,-0.98828125,0.040039062,-0.09472656,-0.0625,0.0625,-0.125,0.0,0.0,0.0
1695657816448,-0.99121094,0.04296875,-0.11230469,-0.0625,0.125,-0.125,0.0,0.0,0.0
1695657816502,-0.98535156,0.040039062,-0.10253906,-0.0625,0.03125,-0.0625,0.0,0.0,0.0
1695657816556,-0.9892578,0.044921875,-0.111328125,-0.53125,0.0625,-0.0625,0.0,0.0,0.0
1695657816608,-0.98828125,0.05078125,-0.10253906,-0.46875,0.03125,0.0625,0.0,0.0,0.0
1695657816633,-0.98828125,0.037109375,-0.103515625,-0.34375,-0.03125,0.0,0.0,0.0,0.0
1695657816660,-0.98535156,0.041015625,-0.10644531,-0.15625,0.03125,0.125,0.0,0.0,0.0
1695657816712,-0.9892578,0.0390625,-0.10058594,-0.21875,-0.03125,-0.0625,0.0,0.0,0.0
1695657816737,-0.984375,0.045898438,-0.09863281,-0.21875,-0.09375,0.0625,0.0,0.0,0.0
1695657816818,-0.9921875,0.034179688,-0.11035156,-0.21875,0.125,0.25,-24.0,19.375,-72.0625
1695657816822,-0.99121094,0.043945312,-0.107421875,-0.15625,-0.09375,-0.0625,0.0,0.0,0.0
1695657816869,-0.9921875,0.037109375,-0.095703125,-0.21875,0.0625,0.125,0.0,0.0,0.0
1695657816922,-0.9941406,0.045898438,-0.09472656,0.0,0.0625,0.1875,0.0,0.0,0.0
1695657816950,-0.9921875,0.044921875,-0.08886719,-0.21875,-0.09375,0.0625,0.0,0.0,0.0
1695657816976,-0.9892578,0.038085938,-0.10546875,-0.34375,-0.09375,0.0,0.0,0.0,0.0
1695657817026,-0.9873047,0.043945312,-0.10253906,0.25,-0.03125,0.125,0.0,0.0,0.0
1695657817053,-0.98339844,0.044921875,-0.1015625,-0.28125,-0.03125,0.0625,0.0,0.0,0.0
1695657817133,-0.9892578,0.047851562,-0.109375,-0.34375,-0.09375,0.0625,0.0,0.0,0.0
1695657817137,-0.98339844,0.044921875,-0.10253906,-0.40625,-0.03125,0.0,0.0,0.0,0.0
1695657817185,-0.9951172,0.036132812,-0.10253906,-0.21875,-0.03125,0.0625,0.0,0.0,0.0
1695657817237,-0.98828125,0.04296875,-0.099609375,-0.46875,0.03125,0.125,0.0,0.0,0.0
1695657817263,-0.9951172,0.049804688,-0.1015625,-0.40625,0.0625,0.0625,-23.6875,20.0,-71.125
1695657817289,-0.98828125,0.049804688,-0.09765625,-0.28125,0.125,0.125,0.0,0.0,0.0
1695657817341,-0.984375,0.040039062,-0.09277344,-0.40625,0.0625,0.0625,0.0,0.0,0.0
1695657817395,-0.984375,0.047851562,-0.10058594,-0.71875,0.125,0.0625,0.0,0.0,0.0
1695657817448,-0.98046875,0.044921875,-0.091796875,0.0625,0.03125,0.0,0.0,0.0,0.0
1695657817499,-0.9892578,0.046875,-0.1015625,-0.53125,-0.09375,0.0,0.0,0.0,0.0
1695657817502,-0.99121094,0.047851562,-0.09277344,-0.28125,0.1875,0.0625,0.0,0.0,0.0
1695657817551,-0.98339844,0.0390625,-0.10253906,0.125,0.0625,0.1875,0.0,0.0,0.0
1695657817579,-0.9892578,0.047851562,-0.095703125,-0.34375,-0.03125,0.125,0.0,0.0,0.0
1695657817657,-0.9824219,0.056640625,-0.09863281,-0.0625,0.0625,0.0625,0.0,0.0,0.0
1695657817662,-0.9863281,0.041992188,-0.11035156,0.0,0.03125,0.0625,0.0,0.0,0.0
1695657817709,-0.9902344,0.045898438,-0.10546875,-0.0625,0.125,0.0625,0.0,0.0,0.0
1695657817762,-0.98339844,0.043945312,-0.095703125,-0.0625,0.0625,-0.1875,0.0,0.0,0.0
1695657817788,-0.99121094,0.045898438,-0.09375,0.1875,-0.03125,0.0,-23.25,19.0625,-71.0
1695657817814,-0.97753906,0.048828125,-0.099609375,-0.09375,-0.09375,0.0,0.0,0.0,0.0
1695657817867,-0.98339844,0.044921875,-0.1015625,-0.0625,0.125,-0.0625,0.0,0.0,0.0
1695657817894,-0.9941406,0.038085938,-0.10449219,0.0625,0.1875,-0.0625,0.0,0.0,0.0
1695657817972,-1.0019531,0.045898438,-0.103515625,0.25,-0.03125,0.0625,0.0,0.0,0.0
1695657817976,-0.9892578,0.029296875,-0.09277344,0.0625,-0.34375,0.34375,0.0,0.0,0.0
1695657818025,-0.99316406,0.045898438,-0.09667969,-0.34375,-0.21875,0.25,0.0,0.0,0.0
1695657818075,-0.9736328,0.049804688,-0.10546875,-0.21875,-0.21875,-0.0625,0.0,0.0,0.0
1695657818103,-0.99316406,0.048828125,-0.091796875,-0.71875,0.0625,0.1875,0.0,0.0,0.0
1695657818132,-0.98046875,0.034179688,-0.09082031,-0.09375,0.125,-0.125,0.0,0.0,0.0
1695657818182,-0.9921875,0.047851562,-0.10546875,-0.28125,-0.03125,0.0625,0.0,0.0,0.0
1695657818234,-0.99121094,0.046875,-0.095703125,-0.40625,0.0625,0.0625,0.0,0.0,0.0
1695657818289,-0.9921875,0.041992188,-0.09472656,-0.0625,0.4375,-0.125,-22.5,18.3125,-71.0
1695657818312,-0.9921875,0.048828125,-0.095703125,0.3125,0.1875,-0.25,0.0,0.0,0.0
1695657818339,-0.984375,0.040039062,-0.091796875,-0.40625,0.0625,0.125,0.0,0.0,0.0
1695657818391,-0.9951172,0.0390625,-0.11230469,-0.0625,-0.09375,0.25,0.0,0.0,0.0
1695657818419,-0.99121094,0.04296875,-0.09277344,0.25,-0.15625,-0.0625,0.0,0.0,0.0
1695657818497,-0.98046875,0.040039062,-0.087890625,-0.40625,0.25,0.0,0.0,0.0,0.0
1695657818503,-0.9824219,0.047851562,-0.0859375,-0.28125,0.0625,0.0625,0.0,0.0,0.0
1695657818550,-0.9892578,0.044921875,-0.09765625,-0.21875,0.125,0.125,0.0,0.0,0.0
1695657818602,-0.9892578,0.05078125,-0.09472656,-0.53125,0.0625,0.0,0.0,0.0,0.0
1695657818629,-0.9863281,0.038085938,-0.099609375,-0.15625,0.1875,0.0625,0.0,0.0,0.0
1695657818655,-0.99316406,0.045898438,-0.09765625,0.0625,0.25,-0.0625,0.0,0.0,0.0
1695657818708,-0.9921875,0.045898438,-0.1015625,-0.15625,0.0625,0.125,0.0,0.0,0.0
1695657818733,-0.98339844,0.045898438,-0.095703125,-0.40625,0.25,0.125,0.0,0.0,0.0
1695657818811,-0.99316406,0.038085938,-0.09375,-0.15625,0.1875,0.0625,-24.125,18.9375,-71.4375
1695657818818,-0.9941406,0.056640625,-0.103515625,-0.34375,0.03125,0.0625,0.0,0.0,0.0
1695657818865,-0.984375,0.043945312,-0.095703125,-0.28125,0.03125,0.1875,0.0,0.0,0.0
1695657818916,-0.9892578,0.048828125,-0.111328125,-0.09375,0.3125,-0.1875,0.0,0.0,0.0
1695657818945,-0.99121094,0.045898438,-0.109375,-0.28125,0.125,-0.125,0.0,0.0,0.0
1695657818968,-0.9892578,0.047851562,-0.09667969,-0.0625,0.1875,0.0,0.0,0.0,0.0
1695657819022,-0.9941406,0.048828125,-0.10644531,-0.28125,0.125,-0.125,0.0,0.0,0.0
1695657819074,-1.0068359,0.040039062,-0.09472656,-0.21875,0.125,-0.0625,0.0,0.0,0.0
1695657819127,-0.9951172,0.040039062,-0.10839844,-0.0625,0.3125,0.0625,0.0,0.0,0.0
1695657819152,-0.98339844,0.028320312,-0.111328125,0.0625,0.1875,0.0625,0.0,0.0,0.0
1695657819178,-0.9824219,0.048828125,-0.1015625,-0.0625,0.0625,-0.0625,0.0,0.0,0.0
1695657819232,-0.99316406,0.056640625,-0.099609375,-0.0625,0.3125,0.0625,0.0,0.0,0.0
1695657819260,-0.9892578,0.0390625,-0.099609375,-0.09375,0.03125,0.125,-23.25,19.375,-70.25
1695657819335,-0.98828125,0.048828125,-0.087890625,-0.0625,0.375,-0.0625,0.0,0.0,0.0
1695657819342,-0.9892578,0.049804688,-0.09375,-0.15625,0.25,0.125,0.0,0.0,0.0
1695657819389,-0.99121094,0.036132812,-0.09765625,-0.28125,0.3125,0.0625,0.0,0.0,0.0
1695657819442,-0.99316406,0.048828125,-0.09765625,-0.28125,0.25,0.0,0.0,0.0,0.0
1695657819468,-0.9892578,0.04296875,-0.09375,-0.28125,0.125,0.0625,0.0,0.0,0.0
1695657819495,-0.98828125,0.041992188,-0.09277344,-0.09375,0.25,0.0,0.0,0.0,0.0
1695657819547,-0.99316406,0.038085938,-0.11035156,0.0625,0.375,-0.125,0.0,0.0,0.0
1695657819575,-0.99121094,0.055664062,-0.109375,-0.0625,0.375,0.0,0.0,0.0,0.0
1695657819653,-0.9873047,0.034179688,-0.09667969,0.0625,0.1875,0.125,0.0,0.0,0.0
1695657819659,-0.984375,0.0546875,-0.10449219,-0.15625,0.25,0.0,0.0,0.0,0.0
1695657819705,-0.9941406,0.049804688,-0.10449219,-0.28125,0.1875,-0.125,0.0,0.0,0.0
1695657819757,-0.9941406,0.053710938,-0.09277344,-0.0625,0.375,-0.0625,0.0,0.0,0.0
1695657819785,-0.9941406,0.044921875,-0.11328125,-0.0625,0.1875,0.0,-24.3125,18.0625,-71.3125
1695657819809,-0.9863281,0.037109375,-0.09667969,-0.09375,0.0625,-0.1875,0.0,0.0,0.0
1695657819889,-0.98535156,0.049804688,-0.1015625,-0.09375,0.3125,-0.0625,0.0,0.0,0.0
1695657819915,-0.9824219,0.038085938,-0.09863281,-0.28125,0.125,0.0625,0.0,0.0,0.0
1695657819966,-0.99316406,0.044921875,-0.099609375,-0.21875,0.3125,0.0625,0.0,0.0,0.0
1695657819993,-0.9863281,0.043945312,-0.10839844,-0.0625,0.1875,-0.125,0.0,0.0,0.0
1695657820019,-0.9921875,0.043945312,-0.103515625,-0.09375,0.25,0.0,0.0,0.0,0.0
1695657820073,-0.99902344,0.041992188,-0.09863281,-0.21875,0.3125,-0.0625,0.0,0.0,0.0
1695657820098,-0.984375,0.056640625,-0.10546875,-0.09375,0.125,-0.125,0.0,0.0,0.0
1695657820177,-0.99316406,0.05078125,-0.107421875,-0.21875,0.1875,0.0625,0.0,0.0,0.0
1695657820183,-0.99121094,0.040039062,-0.11816406,-0.21875,0.3125,0.0625,0.0,0.0,0.0
1695657820231,-0.9951172,0.034179688,-0.091796875,0.3125,0.5,0.0625,0.0,0.0,0.0
1695657820284,-0.9824219,0.044921875,-0.10546875,0.4375,0.0625,-0.1875,-24.125,18.5,-70.875
1695657820308,-0.984375,0.040039062,-0.103515625,0.125,0.0625,0.0625,0.0,0.0,0.0
1695657820335,-1.0,0.044921875,-0.095703125,0.1875,0.03125,0.125,0.0,0.0,0.0
1695657820387,-0.9941406,0.051757812,-0.10449219,-0.0625,0.0625,0.125,0.0,0.0,0.0
1695657820413,-0.98339844,0.045898438,-0.09667969,-0.09375,0.0625,0.125,0.0,0.0,0.0
1695657820492,-0.9951172,0.044921875,-0.10839844,-0.15625,-0.03125,0.125,0.0,0.0,0.0
1695657820494,-0.984375,0.043945312,-0.115234375,-0.46875,0.0625,0.0,0.0,0.0,0.0
1695657820544,-0.9970703,0.044921875,-0.095703125,-0.59375,0.375,0.1875,0.0,0.0,0.0
1695657820598,-0.9873047,0.043945312,-0.1015625,-0.34375,0.0625,0.0625,0.0,0.0,0.0
1695657820651,-0.9873047,0.048828125,-0.10839844,-0.09375,0.0625,0.0,0.0,0.0,0.0
1695657820654,-0.9873047,0.043945312,-0.10644531,-0.28125,0.1875,0.125,0.0,0.0,0.0
1695657820704,-0.99902344,0.048828125,-0.103515625,-0.28125,0.125,0.125,0.0,0.0,0.0
1695657820757,-0.9863281,0.044921875,-0.10058594,-0.53125,0.25,0.125,0.0,0.0,0.0
1695657820806,-0.9892578,0.041015625,-0.09765625,-0.53125,0.375,0.125,-23.25,19.0625,-69.9375
1695657820833,-0.98828125,0.052734375,-0.11230469,-0.34375,0.125,-0.125,0.0,0.0,0.0
1695657820859,-0.98828125,0.044921875,-0.10839844,-0.40625,0.1875,0.0,0.0,0.0,0.0
1695657820912,-0.9814453,0.038085938,-0.1015625,0.0,0.3125,0.0625,0.0,0.0,0.0
1695657820938,-0.9814453,0.041015625,-0.09472656,-0.09375,0.3125,0.0,0.0,0.0,0.0
1695657821017,-0.99316406,0.052734375,-0.10449219,-0.0625,0.125,0.0,0.0,0.0,0.0
1695657821020,-0.98535156,0.049804688,-0.115234375,0.0,0.3125,0.125,0.0,0.0,0.0
1695657821069,-0.99121094,0.047851562,-0.11230469,-0.40625,0.3125,0.0625,0.0,0.0,0.0
1695657821121,-0.9892578,0.043945312,-0.103515625,-0.34375,0.25,0.0625,0.0,0.0,0.0
1695657821149,-0.9863281,0.044921875,-0.10644531,-0.34375,0.125,0.0625,0.0,0.0,0.0
1695657821176,-0.98339844,0.046875,-0.10449219,-0.53125,0.25,0.0625,0.0,0.0,0.0
1695657821227,-0.98828125,0.045898438,-0.11816406,-0.28125,0.125,0.0625,0.0,0.0,0.0
1695657821253,-0.984375,0.041015625,-0.11035156,-0.09375,0.5,-0.125,-23.25,19.8125,-70.25
1695657821332,-0.99121094,0.047851562,-0.09375,-0.28125,0.0625,0.0,0.0,0.0,0.0
1695657821336,-0.99121094,0.038085938,-0.10839844,-0.34375,0.0625,0.0,0.0,0.0,0.0
1695657821436,-0.9902344,0.040039062,-0.10449219,-0.21875,-0.03125,0.0625,0.0,0.0,0.0
1695657821440,-0.984375,0.05078125,-0.11230469,-0.28125,0.25,0.125,0.0,0.0,0.0
1695657821464,-0.9941406,0.041992188,-0.10546875,-0.34375,0.3125,0.0625,0.0,0.0,0.0
1695657821490,-0.98339844,0.041992188,-0.11328125,-0.46875,0.0625,0.0,0.0,0.0,0.0
1695657821542,-0.9921875,0.047851562,-0.103515625,-0.15625,0.1875,0.3125,0.0,0.0,0.0
1695657821595,-0.98828125,0.037109375,-0.09863281,0.0625,0.1875,0.1875,0.0,0.0,0.0
1695657821648,-0.9892578,0.041992188,-0.09863281,0.0,0.3125,0.0,0.0,0.0,0.0
1695657821674,-0.99316406,0.047851562,-0.09765625,0.125,0.0625,0.0,0.0,0.0,0.0
1695657821702,-0.98828125,0.045898438,-0.10644531,-0.0625,0.125,0.125,0.0,0.0,0.0
1695657821752,-0.9863281,0.03515625,-0.1015625,-0.09375,0.25,0.0625,0.0,0.0,0.0
1695657821779,-0.9951172,0.048828125,-0.115234375,-0.09375,0.3125,0.0625,-24.625,18.625,-71.0
1695657821856,-0.9863281,0.037109375,-0.111328125,-0.28125,0.3125,0.125,0.0,0.0,0.0
1695657821860,-0.98828125,0.03515625,-0.091796875,0.15625,-0.03125,0.15625,0.0,0.0,0.0
1695657821909,-0.98535156,0.05078125,-0.095703125,-0.09375,-0.09375,-0.25,0.0,0.0,0.0
1695657821961,-0.9785156,0.0546875,-0.107421875,-0.1875,0.15625,-0.03125,0.0,0.0,0.0
1695657821988,-0.9941406,0.05078125,-0.11816406,-0.3125,-0.09375,0.09375,0.0,0.0,0.0
1695657822014,-0.9892578,0.0390625,-0.09765625,-0.3125,0.09375,0.09375,0.0,0.0,0.0
1695657822067,-1.0,0.043945312,-0.11230469,-0.03125,0.09375,0.03125,0.0,0.0,0.0
1695657822093,-0.9892578,0.033203125,-0.09863281,-0.25,0.21875,-0.1875,0.0,0.0,0.0
1695657822172,-0.98339844,0.053710938,-0.1015625,0.03125,0.09375,-0.25,0.0,0.0,0.0
1695657822175,-0.99121094,0.038085938,-0.10058594,0.03125,-0.09375,0.03125,0.0,0.0,0.0
1695657822228,-0.9892578,0.044921875,-0.123046875,-0.1875,0.15625,0.15625,0.0,0.0,0.0
1695657822278,-0.99316406,0.048828125,-0.10644531,0.09375,0.09375,0.09375,-22.1875,18.0625,-71.3125
1695657822304,-0.98535156,0.046875,-0.11328125,0.28125,0.09375,0.03125,0.0,0.0,0.0
1695657822330,-0.9951172,0.049804688,-0.10644531,0.21875,0.34375,0.03125,0.0,0.0,0.0
1695657822385,-0.9863281,0.051757812,-0.119140625,-0.09375,0.09375,-0.09375,0.0,0.0,0.0
1695657822434,-0.9863281,0.043945312,-0.10839844,0.09375,0.09375,-0.15625,0.0,0.0,0.0
1695657822486,-0.9970703,0.05078125,-0.1015625,0.09375,0.34375,-0.03125,0.0,0.0,0.0
1695657822515,-0.9892578,0.046875,-0.10644531,-0.375,0.34375,-0.1875,0.0,0.0,0.0
1695657822541,-0.99316406,0.053710938,-0.10839844,0.03125,0.28125,-0.1875,0.0,0.0,0.0
1695657822592,-0.99316406,0.037109375,-0.119140625,0.15625,0.03125,-0.09375,0.0,0.0,0.0
1695657822619,-0.9921875,0.04296875,-0.12597656,0.71875,0.15625,-0.15625,0.0,0.0,0.0
1695657822698,-0.9902344,0.044921875,-0.10546875,0.59375,0.03125,-0.25,0.0,0.0,0.0
1695657822701,-0.9970703,0.053710938,-0.111328125,0.40625,0.09375,-0.09375,0.0,0.0,0.0
1695657822749,-0.9814453,0.05078125,-0.10839844,0.59375,-0.09375,0.09375,0.0,0.0,0.0
1695657822801,-0.9873047,0.046875,-0.12109375,-0.3125,0.09375,-0.1875,-23.25,17.3125,-71.75
1695657822829,-0.9892578,0.05078125,-0.11328125,0.03125,0.15625,-0.09375,0.0,0.0,0.0
1695657822855,-0.9941406,0.04296875,-0.091796875,-0.03125,-0.09375,0.21875,0.0,0.0,0.0
1695657822932,-0.9902344,0.0390625,-0.109375,0.21875,-0.15625,-0.15625,0.0,0.0,0.0
1695657822937,-0.98828125,0.047851562,-0.10839844,0.78125,0.03125,0.09375,0.0,0.0,0.0
1695657823012,-0.9863281,0.049804688,-0.11230469,1.09375,0.15625,0.03125,0.0,0.0,0.0
1695657823016,-0.984375,0.049804688,-0.1015625,0.65625,0.46875,-0.15625,0.0,0.0,0.0
1695657823063,-0.984375,0.05078125,-0.10839844,0.15625,0.28125,-0.15625,0.0,0.0,0.0
1695657823116,-0.99121094,0.056640625,-0.107421875,-0.5625,0.21875,-0.1875,0.0,0.0,0.0
1695657823145,-0.97753906,0.051757812,-0.103515625,-0.875,0.21875,-0.09375,0.0,0.0,0.0
1695657823222,-0.9794922,0.038085938,-0.11230469,-0.375,-0.03125,-0.1875,0.0,0.0,0.0
1695657823249,-0.9941406,0.040039062,-0.11621094,3.71875,-2.34375,0.15625,0.0,0.0,0.0
1695657823277,-0.9863281,0.041992188,-0.1171875,4.3125,-3.03125,0.34375,-23.5625,17.5625,-69.625
1695657823328,-0.9873047,0.044921875,-0.09375,2.71875,-2.28125,0.59375,0.0,0.0,0.0
1695657823353,-0.9892578,0.040039062,-0.111328125,1.875,-1.5,-0.3125,0.0,0.0,0.0
1695657823379,-0.99902344,0.044921875,-0.107421875,0.40625,-0.03125,-0.4375,0.0,0.0,0.0
1695657823432,-0.99609375,0.041015625,-0.1171875,-0.8125,0.53125,0.03125,0.0,0.0,0.0
1695657823458,-0.9941406,0.04296875,-0.119140625,-1.0625,0.28125,-0.25,0.0,0.0,0.0
1695657823537,-0.9970703,0.047851562,-0.1171875,-0.5,0.15625,-0.1875,0.0,0.0,0.0
1695657823540,-0.9941406,0.04296875,-0.10546875,-0.625,-0.09375,0.09375,0.0,0.0,0.0
1695657823590,-0.9892578,0.040039062,-0.10546875,-0.5625,0.21875,-0.03125,0.0,0.0,0.0
1695657823642,-0.98535156,0.033203125,-0.109375,-0.375,0.09375,-0.15625,0.0,0.0,0.0
1695657823694,-0.9794922,0.047851562,-0.11230469,-1.4375,0.40625,0.28125,0.0,0.0,0.0
1695657823697,-0.9951172,0.0546875,-0.107421875,-1.90625,0.75,0.15625,0.0,0.0,0.0
1695657823747,-0.9873047,0.040039062,-0.107421875,-2.15625,0.46875,-0.09375,0.0,0.0,0.0
1695657823773,-0.9902344,0.04296875,-0.115234375,-1.375,0.40625,-0.15625,-22.625,19.5625,-69.8125
1695657823853,-0.9902344,0.044921875,-0.119140625,-0.4375,0.09375,-0.03125,0.0,0.0,0.0
1695657823858,-0.9951172,0.046875,-0.10253906,0.21875,-0.40625,0.09375,0.0,0.0,0.0
1695657823905,-0.9873047,0.044921875,-0.10449219,0.40625,-0.46875,-0.09375,0.0,0.0,0.0
1695657823960,-0.98535156,0.053710938,-0.11035156,0.53125,-0.65625,0.03125,0.0,0.0,0.0
1695657823984,-0.9863281,0.046875,-0.11621094,0.15625,-0.34375,-0.03125,0.0,0.0,0.0
1695657824061,-0.9951172,0.043945312,-0.1171875,-0.375,-0.15625,-0.1875,0.0,0.0,0.0
1695657824064,-0.98828125,0.0390625,-0.11425781,-0.03125,-0.40625,-0.25,0.0,0.0,0.0
1695657824115,-0.98535156,0.045898438,-0.10839844,-0.09375,-0.34375,-0.09375,0.0,0.0,0.0
1695657824168,-0.99121094,0.045898438,-0.10839844,0.15625,-0.40625,-0.09375,0.0,0.0,0.0
1695657824192,-0.9863281,0.044921875,-0.11328125,0.15625,-0.59375,-0.03125,0.0,0.0,0.0
1695657824219,-0.99121094,0.041015625,-0.103515625,0.84375,-0.65625,-0.25,0.0,0.0,0.0
1695657824274,-0.9814453,0.046875,-0.111328125,0.28125,-0.53125,-0.5,-23.6875,17.75,-70.5625
1695657824301,-0.9863281,0.056640625,-0.11328125,0.21875,-0.59375,-0.03125,0.0,0.0,0.0
1695657824376,-0.9902344,0.047851562,-0.10449219,-0.5,-0.59375,0.21875,0.0,0.0,0.0
1695657824379,-0.99316406,0.038085938,-0.11230469,0.15625,-0.46875,-0.03125,0.0,0.0,0.0
1695657824485,-0.9873047,0.04296875,-0.10644531,0.03125,-0.59375,-0.25,0.0,0.0,0.0
1695657824488,-0.98535156,0.04296875,-0.107421875,0.15625,-0.59375,-0.09375,0.0,0.0,0.0
1695657824511,-0.99121094,0.037109375,-0.10644531,0.21875,-0.53125,-0.03125,0.0,0.0,0.0
1695657824533,-0.9892578,0.05078125,-0.10546875,0.34375,-0.59375,-0.1875,0.0,0.0,0.0
1695657824587,-0.9873047,0.044921875,-0.11230469,0.78125,-0.71875,0.03125,0.0,0.0,0.0
1695657824612,-0.9892578,0.049804688,-0.11230469,0.59375,-0.59375,-0.15625,0.0,0.0,0.0
1695657824691,-0.9892578,0.04296875,-0.11425781,0.53125,-0.71875,-0.03125,0.0,0.0,0.0
1695657824699,-0.9892578,0.048828125,-0.107421875,0.09375,-0.75,-0.03125,0.0,0.0,0.0
1695657824744,-0.9873047,0.04296875,-0.109375,0.65625,-0.59375,-0.03125,0.0,0.0,0.0
1695657824797,-0.9892578,0.046875,-0.11230469,0.09375,-0.65625,-0.1875,-22.625,19.25,-71.875
1695657824823,-0.9794922,0.044921875,-0.09667969,0.09375,-0.59375,-0.09375,0.0,0.0,0.0
1695657824900,-0.9921875,0.038085938,-0.10644531,0.28125,-0.8125,-0.25,0.0,0.0,0.0
1695657824904,-0.98535156,0.044921875,-0.111328125,0.28125,-0.65625,-0.25,0.0,0.0,0.0
1695657824957,-0.98339844,0.041992188,-0.09375,0.34375,-0.59375,-0.09375,0.0,0.0,0.0
1695657825006,-0.99609375,0.037109375,-0.109375,1.3125,-0.59375,-0.5,0.0,0.0,0.0
1695657825033,-0.984375,0.048828125,-0.11425781,0.53125,-0.59375,-0.4375,0.0,0.0,0.0
1695657825059,-0.97558594,0.045898438,-0.11816406,0.34375,-0.875,0.09375,0.0,0.0,0.0
1695657825112,-1.0029297,0.032226562,-0.111328125,0.84375,-1.0,0.09375,0.0,0.0,0.0
1695657825139,-0.99316406,0.048828125,-0.107421875,0.09375,-1.0,-0.3125,0.0,0.0,0.0
1695657825216,-0.984375,0.045898438,-0.10839844,0.34375,-0.875,-0.09375,0.0,0.0,0.0
1695657825221,-0.98828125,0.048828125,-0.09765625,0.90625,-0.71875,-0.15625,0.0,0.0,0.0
1695657825269,-0.98535156,0.045898438,-0.10644531,0.46875,-0.875,-0.1875,-23.6875,19.25,-69.5
1695657825322,-0.99316406,0.045898438,-0.11425781,0.71875,-0.875,-0.3125,0.0,0.0,0.0
1695657825348,-0.99121094,0.0546875,-0.10253906,1.03125,-0.8125,-0.375,0.0,0.0,0.0
1695657825374,-1.0019531,0.052734375,-0.099609375,0.65625,-0.65625,-0.4375,0.0,0.0,0.0
1695657825427,-0.99316406,0.044921875,-0.095703125,0.90625,-1.125,-0.25,0.0,0.0,0.0
1695657825456,-0.98535156,0.045898438,-0.11328125,0.46875,-0.9375,-0.1875,0.0,0.0,0.0
1695657825531,-1.0009766,0.043945312,-0.09765625,0.40625,-0.65625,-0.4375,0.0,0.0,0.0
1695657825534,-0.9892578,0.041992188,-0.09765625,0.65625,-0.75,-0.03125,0.0,0.0,0.0
1695657825585,-0.98535156,0.040039062,-0.099609375,0.53125,-1.0,-0.1875,0.0,0.0,0.0
1695657825637,-1.0,0.041992188,-0.111328125,0.84375,-0.875,-0.4375,0.0,0.0,0.0
1695657825663,-0.9863281,0.041992188,-0.09863281,0.78125,-0.9375,-0.375,0.0,0.0,0.0
1695657825742,-0.9863281,0.038085938,-0.1015625,0.96875,-1.0,-0.5625,0.0,0.0,0.0
1695657825745,-0.99316406,0.047851562,-0.107421875,0.78125,-1.1875,-0.375,0.0,0.0,0.0
1695657825795,-0.98535156,0.041015625,-0.09375,0.84375,-1.25,-0.375,-23.375,18.9375,-70.125
1695657825847,-0.9892578,0.037109375,-0.09375,1.03125,-1.1875,-0.4375,0.0,0.0,0.0
1695657825872,-0.9980469,0.032226562,-0.09375,1.09375,-1.1875,-0.625,0.0,0.0,0.0
1695657825900,-0.99121094,0.049804688,-0.09667969,1.03125,-1.5,-0.4375,0.0,0.0,0.0
1695657825977,-0.9970703,0.040039062,-0.083984375,1.375,-1.0,-0.5,0.0,0.0,0.0
1695657825980,-0.98046875,0.029296875,-0.095703125,1.3125,-0.46875,-0.5,0.0,0.0,0.0
1695657826058,-0.99902344,0.04296875,-0.09082031,1.03125,-0.875,-0.5625,0.0,0.0,0.0
1695657826085,-0.9902344,0.033203125,-0.08886719,1.09375,-1.25,-0.3125,0.0,0.0,0.0
1695657826109,-0.98828125,0.033203125,-0.09375,1.5,-1.0,-0.6875,0.0,0.0,0.0
1695657826163,-0.9892578,0.034179688,-0.07910156,1.125,-0.9375,-0.8125,0.0,0.0,0.0
1695657826189,-0.9873047,0.04296875,-0.091796875,1.8125,-0.8125,-0.5,0.0,0.0,0.0
1695657826214,-0.97753906,0.033203125,-0.078125,1.75,-1.0625,-0.5625,0.0,0.0,0.0
1695657826268,-0.9892578,0.038085938,-0.091796875,1.75,-1.0,-0.8125,-23.375,17.75,-69.8125
1695657826293,-0.98828125,0.033203125,-0.09082031,2.125,-1.25,-0.9375,0.0,0.0,0.0
1695657826370,-0.9785156,0.033203125,-0.103515625,1.8125,-1.1875,-0.8125,0.0,0.0,0.0
1695657826373,-0.99609375,0.029296875,-0.09667969,2.25,-0.09375,-0.625,0.0,0.0,0.0
1695657826425,-0.99609375,0.03515625,-0.08496094,1.5625,-0.28125,-0.875,0.0,0.0,0.0
1695657826478,-0.9970703,0.028320312,-0.07128906,1.5625,-0.75,-0.5,0.0,0.0,0.0
1695657826503,-0.99609375,0.02734375,-0.08496094,1.25,-0.9375,-0.625,0.0,0.0,0.0
1695657826582,-0.9941406,0.034179688,-0.087890625,1.6875,-0.75,-0.8125,0.0,0.0,0.0
1695657826588,-0.99902344,0.032226562,-0.076171875,1.875,-0.21875,-0.6875,0.0,0.0,0.0
1695657826635,-0.98046875,0.032226562,-0.095703125,1.875,-0.21875,-0.5,0.0,0.0,0.0
1695657826686,-0.9921875,0.034179688,-0.099609375,1.5625,-0.28125,-0.8125,0.0,0.0,0.0
1695657826715,-0.9785156,0.033203125,-0.09082031,1.3125,-0.75,-0.5625,0.0,0.0,0.0
1695657826739,-0.9941406,0.03125,-0.09277344,0.28125,0.21875,-0.375,0.0,0.0,0.0
1695657826792,-0.9921875,0.034179688,-0.09863281,1.25,-0.09375,-0.5,-23.5625,18.3125,-70.25
1695657826818,-0.98828125,0.018554688,-0.08886719,0.90625,-0.28125,-0.8125,0.0,0.0,0.0
1695657826897,-0.9863281,0.037109375,-0.09082031,1.1875,-0.09375,-0.6875,0.0,0.0,0.0
1695657826904,-0.9921875,0.024414062,-0.08203125,2.3125,0.34375,-0.5625,0.0,0.0,0.0
1695657826949,-0.984375,0.02734375,-0.08300781,1.5625,0.40625,-0.25,0.0,0.0,0.0
1695657827003,-0.99121094,0.02734375,-0.07421875,2.1875,0.34375,-0.25,0.0,0.0,0.0
1695657827027,-0.9970703,0.025390625,-0.08496094,2.0,0.15625,-0.4375,0.0,0.0,0.0
1695657827055,-0.99902344,0.029296875,-0.09667969,2.25,0.15625,-0.625,0.0,0.0,0.0
1695657827108,-0.9970703,0.0234375,-0.091796875,1.5625,0.03125,-0.5625,0.0,0.0,0.0
1695657827133,-0.98339844,0.034179688,-0.103515625,0.90625,0.15625,-0.6875,0.0,0.0,0.0
1695657827213,-0.9941406,0.022460938,-0.09765625,0.78125,0.28125,-0.875,0.0,0.0,0.0
1695657827215,-0.99609375,0.025390625,-0.09082031,0.71875,0.03125,-0.75,0.0,0.0,0.0
1695657827265,-0.9951172,0.018554688,-0.10058594,1.03125,0.15625,-0.375,-23.375,17.125,-71.4375
1695657827318,-0.9970703,0.015625,-0.09472656,1.1875,0.28125,-0.5625,0.0,0.0,0.0
1695657827344,-0.9824219,0.02734375,-0.10644531,0.71875,0.28125,-0.625,0.0,0.0,0.0
1695657827422,-0.99316406,0.015625,-0.09472656,0.84375,0.6875,-0.375,0.0,0.0,0.0
1695657827428,-0.99121094,0.021484375,-0.091796875,1.09375,0.9375,-0.4375,0.0,0.0,0.0
1695657827475,-0.9980469,0.016601562,-0.103515625,1.625,0.8125,-0.1875,0.0,0.0,0.0
1695657827529,-0.98535156,0.025390625,-0.09082031,1.5,0.46875,-0.5625,0.0,0.0,0.0
1695657827553,-0.99316406,0.022460938,-0.099609375,2.0,-0.15625,-0.25,0.0,0.0,0.0
1695657827581,-0.984375,0.01953125,-0.087890625,1.8125,0.15625,-0.25,0.0,0.0,0.0
1695657827631,-0.98535156,0.025390625,-0.09375,1.6875,0.40625,-0.1875,0.0,0.0,0.0
1695657827657,-0.9941406,0.020507812,-0.09375,1.625,0.8125,-0.1875,0.0,0.0,0.0
1695657827737,-0.99121094,0.028320312,-0.10546875,1.1875,0.875,-0.5,0.0,0.0,0.0
1695657827740,-0.9902344,0.017578125,-0.10058594,0.65625,0.40625,-0.4375,0.0,0.0,0.0
1695657827789,-0.9892578,0.018554688,-0.09863281,0.21875,0.40625,-0.4375,-23.5625,16.5625,-70.6875
1695657827841,-0.984375,0.0068359375,-0.103515625,0.09375,0.5625,-0.5625,0.0,0.0,0.0
1695657827868,-0.9863281,0.018554688,-0.109375,0.28125,0.40625,-0.5625,0.0,0.0,0.0
1695657827900,-0.99609375,0.020507812,-0.103515625,0.09375,0.5625,-0.6875,0.0,0.0,0.0
1695657827946,-0.98339844,0.025390625,-0.103515625,-0.375,0.21875,-0.5,0.0,0.0,0.0
1695657827973,-0.9902344,0.0078125,-0.091796875,-0.09375,0.34375,-0.375,0.0,0.0,0.0
1695657828052,-0.98339844,0.0146484375,-0.10644531,0.34375,0.34375,-1.0625,0.0,0.0,0.0
1695657828059,-0.9785156,0.025390625,-0.107421875,1.03125,0.09375,-0.625,0.0,0.0,0.0
1695657828104,-0.9892578,0.016601562,-0.115234375,0.78125,-0.28125,-0.75,0.0,0.0,0.0
1695657828156,-0.99316406,0.0146484375,-0.09472656,0.90625,0.09375,-0.625,0.0,0.0,0.0
1695657828182,-0.9873047,0.01953125,-0.115234375,1.25,-0.8125,-1.0625,0.0,0.0,0.0
