,timestamp,accel_x,accel_y,accel_z,gyro_x,gyro_y,gyro_z
0,1696250676103,-0.10205078,-0.99664307,-0.02130127,-0.640625,1.0625,0.984375
1,1696250676143,-0.10449219,-0.99835205,-0.042541504,-0.984375,1.71875,0.875
2,1696250676183,-0.08691406,-1.0003052,-0.043273926,-1.59375,1.453125,-0.09375
3,1696250676223,-0.09814453,-1.0076294,-0.0413208,-1.515625,0.265625,0.546875
4,1696250676263,-0.11694336,-0.9763794,-0.0037231445,-0.703125,-1.0,0.203125
5,1696250676303,-0.103515625,-1.0032349,-0.04083252,-1.28125,2.65625,0.484375
6,1696250676343,-0.103759766,-0.98883057,-0.016174316,-0.390625,2.140625,-0.078125
7,1696250676383,-0.09301758,-1.0134888,-0.023498535,-1.25,1.46875,0.5625
8,1696250676423,-0.11401367,-1.0147095,-0.018859863,-1.921875,1.828125,0.34375
9,1696250676463,-0.107910156,-0.9807739,-0.026184082,-1.625,2.0625,0.359375
10,1696250676503,-0.08911133,-0.98931885,-0.011779785,-1.390625,1.078125,0.765625
11,1696250676543,-0.087402344,-0.9890747,-0.010070801,-1.734375,0.46875,0.4375
12,1696250676583,-0.109375,-0.99346924,-0.0064086914,-0.59375,-0.375,0.65625
13,1696250676623,-0.09692383,-1.0046997,-0.003479004,-1.375,-0.265625,0.03125
14,1696250676663,-0.09057617,-0.99664307,-0.011291504,-1.65625,0.578125,-0.078125
15,1696250676703,-0.11401367,-0.9939575,-0.011047363,-1.375,0.203125,0.65625
16,1696250676743,-0.1015625,-0.99835205,-0.0134887695,-0.09375,1.40625,0.515625
17,1696250676783,-0.09106445,-1.0039673,-0.011047363,0.609375,1.0625,0.546875
18,1696250676823,-0.109375,-1.0032349,-0.015197754,-0.171875,1.890625,-0.28125
19,1696250676863,-0.11206055,-0.9993286,0.005554199,1.109375,-0.78125,0.296875
20,1696250676903,-0.08544922,-0.9961548,-0.019836426,-1.375,1.953125,-1.203125
21,1696250676943,-0.10620117,-0.9927368,-0.0056762695,0.109375,0.78125,-0.53125
22,1696250676983,-0.10571289,-0.9985962,-0.0032348633,-0.015625,0.5625,-0.0625
23,1696250677023,-0.119628906,-1.0151978,-0.009094238,-0.328125,0.78125,-0.078125
24,1696250677063,-0.10205078,-1.0007935,-0.024230957,-0.703125,0.03125,-0.859375
25,1696250677103,-0.107666016,-0.99542236,-0.013000488,-0.671875,0.0,-0.765625
26,1696250677143,-0.10424805,-0.9890747,-0.011047363,-0.5625,0.59375,-0.890625
27,1696250677183,-0.11816406,-0.986145,-0.015197754,-0.375,-0.609375,-0.140625
28,1696250677223,-0.123291016,-0.99835205,-0.022277832,-0.53125,-0.28125,-0.359375
29,1696250677263,-0.0925293,-0.98883057,-0.015686035,-0.484375,0.59375,-0.78125
30,1696250677303,-0.12207031,-0.99468994,-0.012512207,-0.359375,-0.84375,-0.5
31,1696250677343,-0.12719727,-1.0005493,-0.017150879,-0.03125,0.1875,-0.140625
32,1696250677383,-0.110839844,-1.0003052,-0.02130127,-0.59375,1.078125,-0.9375
33,1696250677423,-0.09716797,-1.0059204,-0.020812988,-1.40625,1.671875,-1.171875
34,1696250677463,-0.14013672,-0.98394775,0.0067749023,0.265625,-2.03125,-0.546875
35,1696250677503,-0.1184082,-0.9898071,-0.02935791,-1.4375,0.828125,-1.484375
36,1696250677543,-0.12426758,-0.99713135,-0.016174316,-0.28125,1.234375,-1.15625
37,1696250677583,-0.12915039,-0.9998169,-0.004211426,-0.25,0.90625,0.140625
38,1696250677623,-0.115234375,-0.99346924,-0.0056762695,-1.390625,1.90625,-0.453125
39,1696250677663,-0.12841797,-0.99664307,-0.01763916,-0.734375,0.421875,0.09375
40,1696250677703,-0.14575195,-1.0010376,-0.011291504,-0.953125,0.625,-0.109375
41,1696250677743,-0.106933594,-0.9976196,-0.004211426,-1.015625,1.0625,-0.34375
42,1696250677783,-0.14794922,-1.000061,-0.0025024414,-0.59375,-0.265625,0.6875
43,1696250677823,-0.13891602,-1.0078735,-0.003967285,-1.140625,0.671875,0.109375
44,1696250677863,-0.13061523,-0.9937134,-0.019836426,0.125,0.0625,0.640625
45,1696250677903,-0.15429688,-0.9902954,-0.0005493164,-0.09375,1.625,1.046875
46,1696250677943,-0.111328125,-1.0046997,-0.0051879883,0.21875,2.375,0.984375
47,1696250677983,-0.12670898,-0.9961548,-0.013000488,-0.390625,1.0625,0.546875
48,1696250678023,-0.13134766,-0.9973755,-0.025939941,-1.296875,2.53125,0.359375
49,1696250678063,-0.11303711,-0.99591064,-0.022033691,-0.640625,1.328125,0.328125
50,1696250678103,-0.10449219,-0.98443604,-0.0256958,-1.21875,1.09375,-0.953125
51,1696250678143,-0.1315918,-0.9976196,0.0045776367,-1.015625,1.28125,-0.078125
52,1696250678183,-0.13061523,-1.0044556,-0.012756348,-1.828125,1.515625,-0.3125
53,1696250678223,-0.12207031,-0.9898071,-0.0095825195,-2.453125,1.984375,-0.359375
54,1696250678263,-0.13574219,-1.0029907,-0.0044555664,-2.3125,0.5,-0.8125
55,1696250678303,-0.14477539,-0.9951782,-0.005432129,-2.0,0.875,-0.5625
56,1696250678343,-0.12768555,-0.99786377,0.006286621,-2.359375,1.484375,-1.0625
57,1696250678383,-0.1340332,-0.9932251,0.013122559,-1.53125,1.109375,-0.390625
58,1696250678423,-0.12060547,-0.9968872,0.0045776367,-2.890625,1.328125,-1.25
59,1696250678463,-0.14794922,-0.99176025,0.02166748,-1.328125,0.015625,-0.390625
60,1696250678503,-0.14892578,-0.9924927,0.0138549805,-2.359375,1.21875,-0.625
61,1696250678543,-0.14135742,-0.98272705,0.008728027,-1.390625,0.421875,-0.390625
62,1696250678583,-0.15820312,-0.9963989,0.038269043,-0.703125,0.421875,0.140625
63,1696250678623,-0.1352539,-1.0064087,0.0040893555,-1.328125,2.46875,-0.203125
64,1696250678663,-0.14916992,-1.0056763,0.009460449,-0.921875,-0.15625,0.3125
65,1696250678703,-0.14013672,-0.99005127,0.011657715,-1.390625,1.8125,-0.765625
66,1696250678743,-0.15917969,-0.9973755,0.026062012,-0.546875,1.984375,0.6875
67,1696250678783,-0.13500977,-0.989563,0.010437012,-0.859375,1.515625,0.046875
68,1696250678823,-0.14575195,-0.9907837,0.017028809,-1.4375,0.84375,0.3125
69,1696250678863,-0.15039062,-0.9985962,0.02508545,-1.015625,1.46875,0.4375
70,1696250678903,-0.13476562,-0.9854126,0.010925293,-1.875,1.359375,0.046875
71,1696250678943,-0.1550293,-0.9907837,0.02532959,-0.765625,-0.578125,0.34375
72,1696250678983,-0.15356445,-1.0078735,0.024597168,-1.4375,1.625,0.46875
73,1696250679023,-0.12963867,-1.0022583,0.0138549805,-0.640625,0.484375,0.3125
74,1696250679063,-0.15698242,-0.9976196,0.0289917,-0.546875,0.671875,0.65625
75,1696250679103,-0.13769531,-0.99053955,0.019958496,-0.578125,1.21875,0.359375
76,1696250679143,-0.15405273,-0.99835205,0.020446777,-0.265625,0.671875,1.0
77,1696250679183,-0.140625,-0.9924927,0.01776123,-0.328125,2.0,0.78125
78,1696250679223,-0.14550781,-0.9854126,0.04510498,1.046875,-1.03125,1.109375
79,1696250679263,-0.12988281,-0.9956665,-0.0056762695,-1.734375,1.9375,-0.25
80,1696250679303,-0.15356445,-0.99224854,0.035095215,-0.171875,0.609375,0.484375
81,1696250679343,-0.13354492,-0.9985962,0.023376465,-0.578125,0.921875,0.03125
82,1696250679383,-0.14672852,-0.9990845,0.026550293,-0.296875,1.09375,1.0625
83,1696250679423,-0.13378906,-0.98223877,0.0211792,0.3125,0.84375,0.3125
84,1696250679463,-0.14990234,-0.99591064,0.02947998,0.71875,-0.3125,1.03125
85,1696250679503,-0.13598633,-0.99298096,0.024597168,0.171875,0.25,-0.078125
86,1696250679543,-0.17358398,-0.991272,0.019226074,1.90625,0.296875,1.453125
87,1696250679583,-0.13232422,-1.0176392,0.030700684,0.65625,1.296875,1.109375
88,1696250679623,-0.11621094,-0.99713135,0.010681152,1.171875,0.640625,0.484375
89,1696250679663,-0.13989258,-1.0020142,0.014343262,0.703125,-0.6875,0.296875
90,1696250679703,-0.1496582,-0.9837036,0.006286621,1.5,-0.34375,0.671875
91,1696250679743,-0.1550293,-0.9837036,0.0021362305,2.046875,-1.265625,0.9375
92,1696250679783,-0.11376953,-0.99786377,-0.0010375977,0.828125,1.328125,0.5
93,1696250679823,-0.1694336,-1.0090942,-0.02178955,1.84375,-0.8125,1.875
94,1696250679863,-0.11816406,-0.98687744,-0.00982666,-0.671875,0.71875,0.03125
95,1696250679903,-0.15942383,-1.0083618,0.011657715,0.96875,1.078125,1.828125
96,1696250679943,-0.125,-1.0120239,0.0045776367,0.9375,1.703125,0.765625
97,1696250679983,-0.14208984,-1.0100708,0.0018920898,-0.1875,0.921875,1.0625
98,1696250680023,-0.13232422,-0.99835205,-0.002746582,0.34375,0.671875,0.34375
99,1696250680063,-0.13745117,-0.99053955,-0.016662598,0.59375,0.140625,1.234375
100,1696250680103,-0.13232422,-0.99176025,-0.015197754,0.40625,0.015625,0.609375
101,1696250680143,-0.114746094,-0.98760986,-0.010314941,0.15625,0.546875,0.765625
102,1696250680183,-0.14257812,-0.98565674,-0.012512207,0.4375,-1.390625,1.078125
103,1696250680223,-0.122802734,-1.00177,-0.009338379,-0.328125,-0.625,0.71875
104,1696250680263,-0.13183594,-0.9920044,-0.01739502,0.609375,-0.09375,1.359375
105,1696250680303,-0.1262207,-1.0149536,-0.02545166,-0.546875,1.015625,0.34375
106,1696250680343,-0.118896484,-1.0046997,-0.016906738,0.21875,2.609375,0.703125
107,1696250680383,-0.1315918,-0.9829712,0.028503418,2.453125,-1.078125,1.109375
108,1696250680423,-0.118652344,-0.99102783,-0.02130127,-0.546875,1.046875,0.109375
109,1696250680463,-0.1262207,-0.97906494,-0.015686035,0.203125,0.515625,-0.703125
110,1696250680503,-0.1381836,-0.9973755,-0.023742676,-0.109375,0.890625,-0.109375
111,1696250680543,-0.118896484,-0.989563,-0.018615723,0.21875,0.90625,0.0
112,1696250680583,-0.1274414,-1.0090942,-0.027893066,0.328125,0.390625,0.0
113,1696250680623,-0.13232422,-1.0066528,-0.016418457,-0.203125,0.3125,-0.46875
114,1696250680663,-0.13305664,-0.98272705,-0.019104004,-0.65625,-0.359375,-0.125
115,1696250680703,-0.13452148,-0.9834595,-0.024475098,-1.03125,0.046875,-0.765625
116,1696250680743,-0.13305664,-1.0071411,-0.0071411133,-1.109375,0.015625,0.21875
117,1696250680783,-0.15356445,-1.0029907,0.007507324,-1.84375,1.375,0.3125
118,1696250680823,-0.119140625,-0.99176025,-0.035705566,-2.296875,1.296875,0.046875
119,1696250680863,-0.14868164,-0.9902954,-0.02520752,-0.78125,0.265625,1.15625
120,1696250680903,-0.14038086,-0.99005127,-0.0068969727,-1.203125,1.421875,0.078125
121,1696250680943,-0.13354492,-0.99224854,-0.03668213,-2.0,2.390625,-0.375
122,1696250680983,-0.12817383,-0.98638916,-0.0071411133,-0.75,0.828125,0.09375
123,1696250681023,-0.1303711,-0.9890747,-0.016906738,-1.265625,2.359375,-0.8125
124,1696250681063,-0.14648438,-1.0020142,0.010681152,-0.71875,1.4375,0.21875
125,1696250681103,-0.13842773,-0.9937134,-0.012756348,-1.734375,1.53125,0.359375
126,1696250681143,-0.13476562,-0.9907837,-0.0020141602,-1.265625,0.96875,0.125
127,1696250681183,-0.15332031,-0.9973755,-0.002746582,-0.53125,0.59375,0.53125
128,1696250681223,-0.13500977,-0.99053955,-0.00079345703,-1.140625,0.5625,0.75
129,1696250681263,-0.14916992,-1.000061,0.0004272461,0.140625,0.078125,0.578125
130,1696250681303,-0.1418457,-1.0064087,0.0006713867,-0.0625,1.390625,1.0
131,1696250681343,-0.125,-0.99542236,-0.0068969727,-0.03125,0.421875,0.859375
132,1696250681383,-0.15234375,-0.9871216,-0.0025024414,-0.65625,0.203125,0.96875
133,1696250681423,-0.12524414,-0.99224854,-0.015686035,-0.0625,1.40625,0.875
134,1696250681463,-0.12573242,-0.9961548,-0.015930176,-0.109375,0.796875,0.84375
135,1696250681503,-0.13720703,-0.9963989,-0.011047363,-0.21875,1.21875,0.46875
136,1696250681543,-0.1303711,-0.98443604,0.00579834,0.125,-0.65625,0.671875
137,1696250681583,-0.119628906,-0.9915161,-0.028869629,-1.078125,2.1875,0.203125
138,1696250681623,-0.14697266,-0.99713135,0.008728027,0.234375,-0.046875,0.1875
139,1696250681663,-0.13793945,-0.986145,-0.011291504,-0.625,0.78125,0.890625
140,1696250681703,-0.13549805,-0.987854,-0.014221191,-0.703125,0.5625,1.265625
141,1696250681743,-0.11767578,-0.99102783,-0.0044555664,-0.6875,0.234375,0.203125
142,1696250681783,-0.1472168,-1.0049438,-0.015197754,-0.4375,-1.046875,1.078125
143,1696250681823,-0.12109375,-0.98638916,-0.011047363,-0.328125,0.359375,0.25
144,1696250681863,-0.1328125,-0.9932251,-0.01739502,0.609375,-0.140625,1.140625
145,1696250681903,-0.12841797,-0.9968872,-0.013244629,0.640625,-0.53125,0.75
146,1696250681943,-0.1315918,-0.9937134,-0.011291504,0.859375,-0.359375,1.0
147,1696250681983,-0.1303711,-1.0027466,-0.023010254,0.71875,-0.6875,1.046875
148,1696250682023,-0.12915039,-1.0064087,-0.022033691,0.125,0.078125,1.09375
149,1696250682063,-0.12524414,-1.0005493,-0.02545166,-0.078125,0.453125,0.5625
150,1696250682103,-0.115478516,-0.9915161,0.018005371,0.96875,-0.953125,0.515625
151,1696250682143,-0.13061523,-1.0020142,-0.032043457,-0.796875,0.65625,0.59375
152,1696250682183,-0.12402344,-0.98394775,-0.012512207,-0.015625,1.015625,-0.3125
153,1696250682223,-0.13232422,-1.0027466,-0.02154541,0.421875,0.78125,1.21875
154,1696250682263,-0.123046875,-0.99102783,-0.02178955,-0.0625,1.09375,0.546875
155,1696250682303,-0.12451172,-0.9927368,-0.025939941,0.015625,0.296875,0.71875
156,1696250682343,-0.13110352,-1.0054321,-0.030578613,0.34375,-0.015625,0.484375
157,1696250682383,-0.1027832,-0.9968872,-0.024719238,-0.421875,0.8125,0.5
158,1696250682423,-0.12573242,-0.9990845,-0.02520752,0.328125,0.15625,0.8125
159,1696250682463,-0.12719727,-0.9985962,-0.02960205,-0.390625,0.53125,0.46875
160,1696250682503,-0.11254883,-0.9883423,-0.02545166,0.109375,0.296875,0.5
161,1696250682543,-0.13720703,-1.0066528,-0.026428223,-0.53125,0.328125,0.328125
162,1696250682583,-0.115722656,-1.0032349,-0.03302002,-0.078125,1.140625,0.171875
163,1696250682623,-0.11743164,-0.9956665,-0.026428223,-0.515625,1.015625,0.265625
164,1696250682663,-0.12841797,-1.0061646,-0.023254395,0.078125,0.65625,-0.125
165,1696250682703,-0.12646484,-0.9937134,-0.008605957,0.90625,-1.125,0.65625
166,1696250682743,-0.123291016,-0.9890747,-0.041809082,-1.4375,1.1875,0.328125
167,1696250682783,-0.13012695,-0.99468994,-0.028625488,-0.296875,1.109375,-0.546875
168,1696250682823,-0.119140625,-0.99542236,-0.026184082,-0.140625,0.671875,0.296875
169,1696250682863,-0.13305664,-1.0025024,-0.024719238,-0.796875,0.859375,0.421875
170,1696250682903,-0.123291016,-0.99468994,-0.032287598,-1.375,0.796875,-0.1875
171,1696250682943,-0.1328125,-0.9951782,-0.02960205,-0.609375,0.96875,0.484375
172,1696250682983,-0.115478516,-1.0020142,-0.027404785,-1.3125,1.125,-0.109375
173,1696250683023,-0.12109375,-0.9907837,-0.023986816,-0.21875,-0.65625,-0.125
174,1696250683063,-0.14453125,-1.0066528,-0.016418457,-0.453125,0.171875,0.984375
175,1696250683103,-0.107666016,-0.9824829,-0.019836426,-0.515625,0.828125,0.03125
176,1696250683143,-0.13208008,-0.99420166,-0.022277832,-1.0,0.609375,0.234375
177,1696250683183,-0.1352539,-0.9998169,-0.020812988,0.140625,1.515625,0.65625
178,1696250683223,-0.114746094,-1.0020142,-0.0335083,-1.3125,2.015625,0.71875
179,1696250683263,-0.13232422,-0.99713135,-0.020568848,-0.53125,2.15625,-0.25
180,1696250683303,-0.13623047,-0.9993286,-0.01373291,1.1875,-0.375,1.203125
181,1696250683343,-0.11035156,-0.9800415,-0.032043457,-1.53125,1.578125,-0.390625
182,1696250683383,-0.15258789,-0.9993286,-0.018371582,0.171875,0.296875,0.28125
183,1696250683423,-0.11328125,-1.0042114,-0.035217285,-0.6875,1.578125,0.328125
184,1696250683463,-0.1315918,-0.991272,-0.01373291,-0.203125,0.28125,0.46875
185,1696250683503,-0.13916016,-1.0020142,-0.03765869,-0.96875,0.328125,0.03125
186,1696250683543,-0.12036133,-0.9834595,-0.034240723,-1.1875,1.078125,-0.3125
187,1696250683583,-0.14135742,-0.9985962,-0.006652832,-0.078125,0.78125,0.625
188,1696250683623,-0.13232422,-1.0064087,-0.024719238,-1.046875,2.046875,0.4375
189,1696250683663,-0.10205078,-0.99542236,-0.022033691,-1.8125,2.4375,-0.328125
190,1696250683703,-0.13842773,-1.0007935,-0.020812988,-1.3125,2.265625,0.109375
191,1696250683743,-0.11425781,-0.99957275,-0.02154541,-2.40625,3.46875,-0.078125
192,1696250683783,-0.12988281,-0.9949341,-0.019836426,-1.53125,1.265625,0.515625
193,1696250683823,-0.1484375,-0.99420166,-0.016662598,-1.546875,1.109375,0.3125
194,1696250683863,-0.12011719,-0.9939575,-0.008117676,-1.15625,1.828125,-0.296875
195,1696250683903,-0.13354492,-1.0066528,-0.018371582,-0.984375,1.796875,-0.171875
196,1696250683943,-0.13232422,-0.99224854,0.0067749023,-0.21875,-0.609375,0.03125
197,1696250683983,-0.11694336,-0.9854126,-0.026672363,-1.390625,1.375,-0.390625
198,1696250684023,-0.14208984,-1.0100708,-0.0025024414,0.109375,0.90625,0.359375
199,1696250684063,-0.12573242,-1.0010376,-0.015930176,-0.046875,1.015625,0.9375
200,1696250684103,-0.12207031,-0.9841919,-0.0037231445,-1.046875,1.53125,0.75
201,1696250684143,-0.13574219,-0.99542236,-0.007385254,0.03125,0.5,0.15625
202,1696250684183,-0.14160156,-0.9968872,-0.007873535,-0.34375,0.34375,1.21875
203,1696250684223,-0.119628906,-0.9961548,-0.016906738,-0.578125,0.6875,0.609375
204,1696250684263,-0.13061523,-1.0032349,-0.020324707,-0.359375,0.5,1.046875
205,1696250684303,-0.13745117,-0.9998169,-0.014465332,-0.125,0.03125,1.21875
206,1696250684343,-0.10083008,-0.99420166,-0.0056762695,-0.34375,1.40625,0.46875
207,1696250684383,-0.13061523,-0.99591064,-0.011779785,0.59375,-1.125,0.609375
208,1696250684423,-0.13916016,-1.0012817,-0.005432129,-0.0625,0.015625,1.421875
209,1696250684463,-0.11694336,-0.98687744,-0.014221191,0.1875,0.046875,0.828125
210,1696250684503,-0.12011719,-0.99542236,-0.013000488,-0.171875,-0.984375,0.96875
211,1696250684543,-0.11816406,-1.0056763,-0.02178955,0.171875,-0.703125,0.078125
212,1696250684583,-0.12670898,-0.9859009,-0.02911377,0.9375,-0.328125,0.71875
213,1696250684623,-0.12475586,-0.98565674,-0.019592285,1.015625,-0.140625,-0.359375
214,1696250684663,-0.1340332,-1.0066528,-0.024230957,0.921875,1.328125,1.140625
215,1696250684703,-0.103759766,-0.9932251,-0.025939941,1.40625,2.046875,0.875
216,1696250684743,-0.12646484,-1.0042114,-0.024963379,1.625,1.28125,0.9375
217,1696250684783,-0.119628906,-0.9939575,-0.024230957,0.484375,1.4375,0.65625
218,1696250684823,-0.10888672,-0.98760986,-0.030822754,0.140625,1.71875,0.640625
219,1696250684863,-0.122558594,-1.0012817,-0.034729004,-0.15625,-0.515625,0.0
220,1696250684903,-0.1171875,-0.9990845,-0.03692627,-1.453125,0.65625,-0.015625
221,1696250684943,-0.1184082,-1.0010376,-0.04425049,-0.9375,-0.390625,0.265625
222,1696250684983,-0.12988281,-0.99591064,-0.024719238,-0.6875,0.125,0.265625
223,1696250685023,-0.12841797,-1.0007935,-0.022033691,-0.796875,0.375,0.125
224,1696250685063,-0.11645508,-0.9873657,-0.047180176,-1.203125,1.625,-0.09375
225,1696250685103,-0.12426758,-0.9834595,-0.021057129,0.4375,0.15625,0.421875
226,1696250685143,-0.125,-0.99053955,-0.010314941,0.0,0.859375,0.5
227,1696250685183,-0.11401367,-0.99102783,-0.035461426,0.4375,2.46875,0.71875
228,1696250685223,-0.13085938,-0.9956665,-0.009338379,1.28125,0.421875,1.921875
229,1696250685263,-0.11621094,-0.9937134,-0.043273926,0.625,2.390625,0.921875
230,1696250685303,-0.12182617,-0.9924927,-0.03692627,1.5,3.046875,0.625
231,1696250685343,-0.11352539,-1.0083618,-0.024963379,1.6875,1.859375,0.890625
232,1696250685383,-0.13916016,-1.000061,-0.023986816,1.453125,0.890625,2.0625
233,1696250685423,-0.10449219,-0.9920044,-0.055725098,0.859375,2.3125,1.71875
234,1696250685463,-0.0859375,-0.9949341,-0.04840088,0.78125,-0.234375,0.984375
235,1696250685503,-0.09301758,-0.989563,-0.04815674,0.125,-1.375,0.140625
236,1696250685543,-0.11450195,-0.9924927,-0.04473877,-0.328125,-2.078125,0.5625
237,1696250685583,-0.11743164,-1.0027466,-0.040100098,-0.53125,-1.671875,0.375
238,1696250685623,-0.12548828,-0.99884033,-0.050842285,-0.0625,-0.59375,1.375
239,1696250685663,-0.103271484,-0.98394775,-0.0491333,-0.5,0.640625,0.375
240,1696250685703,-0.11621094,-1.0042114,-0.047668457,-0.25,0.8125,0.34375
241,1696250685743,-0.123291016,-0.99468994,-0.04937744,0.609375,0.515625,1.640625
242,1696250685783,-0.099121094,-0.98883057,-0.04156494,0.546875,0.65625,0.625
243,1696250685823,-0.08886719,-0.9924927,-0.066711426,-0.59375,1.375,0.40625
244,1696250685863,-0.11254883,-0.9849243,-0.047912598,0.859375,0.125,1.078125
245,1696250685903,-0.08544922,-0.9763794,-0.07476807,-0.71875,0.59375,-0.046875
246,1696250685943,-0.11767578,-0.99346924,-0.05206299,0.84375,-0.46875,0.640625
247,1696250685983,-0.099365234,-1.0076294,-0.051086426,0.1875,-0.078125,0.03125
248,1696250686023,-0.10839844,-0.9981079,-0.043762207,-0.1875,0.546875,0.21875
249,1696250686063,-0.10522461,-1.010315,-0.055480957,-0.703125,0.46875,-0.859375
250,1696250686103,-0.12207031,-1.003479,-0.046691895,-0.1875,0.546875,0.0
251,1696250686143,-0.10083008,-0.99346924,-0.051330566,-0.421875,0.53125,-0.234375
252,1696250686183,-0.10473633,-0.99884033,-0.058166504,-1.3125,0.625,-0.09375
253,1696250686223,-0.11450195,-0.9854126,-0.05303955,-0.234375,0.1875,-0.71875
254,1696250686263,-0.11645508,-0.987854,-0.05596924,-0.328125,0.90625,0.078125
255,1696250686303,-0.10473633,-0.9834595,-0.057678223,-0.265625,0.6875,-0.53125
256,1696250686343,-0.12133789,-1.0049438,-0.054748535,0.03125,0.734375,-0.1875
257,1696250686383,-0.10888672,-0.9963989,-0.06402588,-0.625,0.921875,-0.03125
258,1696250686423,-0.12451172,-1.0049438,-0.059387207,-0.296875,0.15625,-0.015625
259,1696250686463,-0.122802734,-1.003479,-0.039367676,-0.96875,0.109375,-0.015625
260,1696250686503,-0.11206055,-0.9990845,-0.07598877,-1.09375,2.046875,0.40625
261,1696250686543,-0.100097656,-0.9927368,-0.05279541,-1.34375,1.171875,-1.09375
262,1696250686583,-0.14257812,-1.0044556,-0.035705566,-1.125,2.265625,0.765625
263,1696250686623,-0.115722656,-0.98443604,-0.066711426,-1.609375,2.609375,0.828125
264,1696250686663,-0.115478516,-0.99542236,-0.05328369,-0.703125,1.265625,1.078125
265,1696250686703,-0.11816406,-1.0003052,-0.04473877,-0.9375,1.53125,0.3125
266,1696250686743,-0.09667969,-0.98687744,-0.050598145,-2.40625,2.453125,0.40625
267,1696250686783,-0.12524414,-0.9998169,-0.054992676,-0.90625,0.515625,0.1875
268,1696250686823,-0.119140625,-0.9907837,-0.047912598,-1.453125,1.328125,1.015625
269,1696250686863,-0.107666016,-0.9990845,-0.042053223,-1.1875,0.625,0.078125
270,1696250686903,-0.13256836,-1.0046997,-0.03692627,-0.40625,0.40625,0.796875
271,1696250686943,-0.1171875,-0.9846802,-0.04547119,-0.703125,1.84375,0.65625
272,1696250686983,-0.11694336,-0.9885864,-0.044006348,-0.203125,0.78125,0.875
273,1696250687023,-0.11010742,-0.9902954,-0.049621582,-0.375,1.03125,0.328125
274,1696250687063,-0.103515625,-0.9956665,-0.046203613,-0.296875,2.109375,0.84375
275,1696250687103,-0.110839844,-0.9985962,-0.047912598,-0.140625,-0.1875,0.484375
276,1696250687143,-0.095214844,-0.9885864,-0.055480957,-1.421875,2.703125,-0.359375
277,1696250687183,-0.13427734,-1.0003052,-0.038146973,-0.09375,1.234375,0.25
278,1696250687223,-0.10839844,-0.9976196,-0.04840088,-1.234375,1.671875,0.1875
279,1696250687263,-0.111572266,-0.9944458,-0.04547119,-0.921875,1.3125,0.390625
280,1696250687303,-0.11621094,-0.99005127,-0.043029785,-0.71875,0.796875,-0.015625
281,1696250687343,-0.12109375,-0.9990845,-0.03741455,-1.25,0.015625,0.515625
282,1696250687383,-0.10913086,-0.9968872,-0.0413208,-1.125,0.890625,0.109375
283,1696250687423,-0.119384766,-0.99420166,-0.03253174,-0.0625,-0.09375,0.265625
284,1696250687463,-0.11791992,-1.003479,-0.044006348,-0.28125,0.046875,0.484375
285,1696250687503,-0.111328125,-0.9981079,-0.03717041,-0.453125,0.296875,0.34375
286,1696250687543,-0.118652344,-0.9902954,-0.046447754,-0.65625,0.015625,0.5
287,1696250687583,-0.11767578,-0.99298096,-0.054016113,-0.046875,0.6875,0.84375
288,1696250687623,-0.110839844,-0.9932251,-0.039367676,0.546875,-0.453125,0.84375
289,1696250687663,-0.10449219,-0.9981079,-0.042541504,-0.6875,0.046875,0.046875
290,1696250687703,-0.119628906,-0.991272,-0.06036377,-0.40625,0.015625,0.296875
291,1696250687743,-0.1171875,-0.9961548,-0.045715332,-0.21875,0.46875,-0.109375
292,1696250687783,-0.123046875,-1.0025024,-0.04425049,-0.234375,0.875,0.171875
293,1696250687823,-0.10107422,-0.9944458,-0.05670166,-0.265625,0.71875,0.1875
294,1696250687863,-0.119140625,-0.9949341,-0.03692627,-0.640625,0.578125,0.328125
295,1696250687903,-0.12133789,-0.98394775,-0.039855957,-0.0625,0.78125,-0.078125
296,1696250687943,-0.11206055,-0.98809814,-0.05206299,-0.625,0.921875,0.5625
297,1696250687983,-0.11987305,-0.9951782,-0.05230713,-0.625,0.296875,-0.375
298,1696250688023,-0.119628906,-1.0003052,-0.04083252,-0.15625,0.515625,-0.1875
299,1696250688063,-0.119140625,-0.99346924,-0.051574707,-0.203125,-0.25,0.34375
300,1696250688103,-0.119628906,-0.99420166,-0.047180176,-0.125,0.53125,0.15625
301,1696250688143,-0.11010742,-0.99713135,-0.041809082,0.703125,0.28125,-0.171875
302,1696250688183,-0.12768555,-0.99884033,-0.047424316,-0.265625,1.171875,0.40625
303,1696250688223,-0.11230469,-0.99591064,-0.05279541,-0.390625,0.28125,0.5
304,1696250688263,-0.12670898,-0.99420166,-0.030090332,-1.53125,0.03125,0.375
305,1696250688303,-0.12890625,-0.99786377,-0.05987549,-0.421875,0.96875,0.484375
306,1696250688343,-0.103271484,-0.98760986,-0.058898926,0.0625,0.203125,-0.90625
307,1696250688383,-0.12890625,-1.0076294,-0.035461426,-0.78125,0.578125,0.328125
308,1696250688423,-0.11743164,-1.0049438,-0.050109863,-0.875,0.578125,-0.328125
309,1696250688463,-0.114990234,-1.005188,-0.057434082,-1.5625,0.828125,0.109375
310,1696250688503,-0.10595703,-0.99420166,-0.061584473,-2.390625,1.1875,-0.859375
311,1696250688543,-0.12011719,-0.9829712,-0.050354004,-2.21875,2.046875,-0.203125
312,1696250688583,-0.1159668,-0.975647,-0.049865723,-0.734375,0.21875,-0.578125
313,1696250688623,-0.14086914,-0.99346924,-0.019592285,0.078125,-1.140625,0.578125
314,1696250688663,-0.14477539,-1.0098267,-0.039123535,-0.9375,-0.078125,0.296875
315,1696250688703,-0.10644531,-0.99884033,-0.035461426,-1.640625,0.671875,-0.390625
316,1696250688743,-0.14868164,-1.0066528,-0.028137207,-0.671875,0.46875,0.65625
317,1696250688783,-0.12207031,-0.99713135,-0.03741455,-0.53125,1.125,1.0625
318,1696250688823,-0.12182617,-1.0044556,-0.03277588,0.75,0.953125,0.203125
319,1696250688863,-0.12207031,-1.0007935,-0.028381348,0.5625,-0.109375,0.703125
320,1696250688903,-0.11328125,-0.9751587,-0.05645752,-0.46875,1.265625,0.484375
321,1696250688943,-0.13354492,-0.9812622,-0.047912598,-0.171875,1.125,0.015625
322,1696250688983,-0.110839844,-0.9949341,-0.050842285,0.171875,1.046875,0.734375
323,1696250689023,-0.12158203,-0.99786377,-0.043029785,-0.375,0.4375,0.84375
324,1696250689063,-0.12133789,-1.0120239,-0.046203613,-0.984375,0.796875,0.328125
325,1696250689103,-0.12939453,-1.0059204,-0.04156494,-0.953125,0.8125,0.421875
326,1696250689143,-0.11401367,-1.0005493,-0.037902832,-0.875,1.3125,0.65625
327,1696250689183,-0.12573242,-0.9927368,-0.030578613,-0.578125,0.0625,0.203125
328,1696250689223,-0.119384766,-0.9951782,-0.04425049,-1.3125,0.484375,0.421875
329,1696250689263,-0.11401367,-0.98321533,-0.03692627,-1.03125,0.171875,0.171875
330,1696250689303,-0.13305664,-0.99713135,-0.04498291,-0.703125,-0.21875,0.75
331,1696250689343,-0.11767578,-0.9915161,-0.04425049,0.296875,1.0625,0.453125
332,1696250689383,-0.1262207,-0.9961548,-0.026672363,-0.078125,0.328125,0.625
333,1696250689423,-0.107421875,-0.99591064,-0.05328369,-1.0625,2.03125,0.109375
334,1696250689463,-0.12719727,-1.0022583,-0.035461426,0.1875,0.8125,0.796875
335,1696250689503,-0.10229492,-0.9873657,-0.04864502,-1.125,1.546875,-0.515625
336,1696250689543,-0.14282227,-0.99591064,-0.012023926,-0.984375,2.09375,0.328125
337,1696250689583,-0.12670898,-1.0066528,-0.042541504,-1.703125,1.703125,0.578125
338,1696250689623,-0.12573242,-0.9944458,-0.034484863,-1.640625,1.4375,0.96875
339,1696250689663,-0.11694336,-0.9907837,-0.035949707,-0.96875,1.515625,0.359375
340,1696250689703,-0.118896484,-0.99420166,-0.03277588,-1.578125,1.5,0.390625
341,1696250689743,-0.11425781,-0.99176025,-0.02960205,-1.671875,0.609375,-0.234375
342,1696250689783,-0.13574219,-0.98443604,-0.031066895,-1.703125,2.65625,0.578125
343,1696250689823,-0.11669922,-0.9968872,-0.02545166,-0.40625,2.4375,0.796875
344,1696250689863,-0.123046875,-1.0003052,-0.027893066,-0.03125,2.4375,1.5
345,1696250689903,-0.11694336,-1.006897,-0.03717041,-1.109375,2.203125,0.90625
346,1696250689943,-0.12084961,-1.0108032,-0.029846191,-0.28125,1.453125,0.5625
347,1696250689983,-0.11352539,-0.9985962,-0.021057129,-1.375,1.796875,0.46875
348,1696250690023,-0.1184082,-0.9873657,-0.03643799,-0.84375,2.28125,0.65625
349,1696250690063,-0.107421875,-0.99420166,-0.034240723,-0.9375,0.96875,0.375
350,1696250690103,-0.09448242,-0.98272705,-0.04058838,-2.015625,2.078125,-0.796875
351,1696250690143,-0.14160156,-0.99835205,-0.014709473,-0.34375,0.546875,0.59375
352,1696250690183,-0.10571289,-1.0049438,-0.016174316,-1.53125,1.921875,-0.25
353,1696250690223,-0.11450195,-0.9985962,-0.031311035,-1.3125,1.03125,0.640625
354,1696250690263,-0.109375,-1.0015259,-0.006652832,-0.59375,-0.359375,-0.171875
355,1696250690303,-0.1459961,-0.9963989,-0.018859863,-0.890625,-0.90625,0.765625
356,1696250690343,-0.1105957,-0.98443604,-0.028625488,-1.1875,0.46875,-0.5625
357,1696250690383,-0.12866211,-0.9976196,0.007751465,0.46875,-0.421875,0.828125
358,1696250690423,-0.11328125,-1.0003052,-0.030578613,-0.734375,0.75,0.484375
359,1696250690463,-0.11816406,-0.9890747,-0.025939941,-0.21875,-0.296875,0.21875
360,1696250690503,-0.10522461,-0.98931885,-0.012756348,-0.140625,0.671875,0.1875
361,1696250690543,-0.107666016,-0.99298096,-0.02911377,0.046875,0.25,0.296875
362,1696250690583,-0.1081543,-1.0049438,-0.042053223,-0.8125,0.578125,0.109375
363,1696250690623,-0.1159668,-0.9793091,0.0006713867,0.3125,-1.046875,0.28125
364,1696250690663,-0.13085938,-1.0090942,-0.034973145,-0.59375,1.578125,0.359375
365,1696250690703,-0.12768555,-0.989563,-0.022033691,0.71875,-0.140625,-0.078125
366,1696250690743,-0.13452148,-1.0037231,-0.027404785,1.140625,-0.5,1.265625
367,1696250690783,-0.11450195,-1.0007935,-0.013977051,-0.171875,0.34375,0.015625
368,1696250690823,-0.14501953,-0.986145,-0.04498291,2.0,0.453125,1.328125
369,1696250690863,-0.1159668,-1.0127563,-0.037902832,1.1875,1.3125,1.5
370,1696250690903,-0.08227539,-0.99591064,-0.039367676,1.25,0.921875,1.0
371,1696250690943,-0.10644531,-0.9854126,-0.05230713,0.09375,0.953125,0.203125
372,1696250690983,-0.11010742,-0.9993286,-0.03765869,-0.859375,0.484375,-0.015625
373,1696250691023,-0.13720703,-0.9788208,-0.042053223,0.984375,0.0625,1.1875
374,1696250691063,-0.11669922,-1.0151978,-0.03765869,-1.21875,1.984375,0.609375
375,1696250691103,-0.103027344,-1.0186157,-0.042541504,-1.21875,2.28125,0.34375
376,1696250691143,-0.10253906,-1.0015259,-0.04498291,-1.359375,1.84375,-0.640625
377,1696250691183,-0.10107422,-1.0015259,-0.035949707,-3.078125,1.984375,-0.28125
378,1696250691223,-0.103271484,-0.9751587,-0.009094238,-1.765625,0.0625,-0.375
379,1696250691263,-0.15209961,-0.9932251,-0.02911377,0.203125,-2.125,1.640625
380,1696250691303,-0.12768555,-1.0037231,-0.035949707,0.75,-1.515625,-0.03125
381,1696250691343,-0.12036133,-1.0142212,-0.0076293945,1.53125,0.515625,1.96875
382,1696250691383,-0.14038086,-1.0322876,-0.036193848,0.4375,0.71875,1.5
383,1696250691423,-0.115234375,-1.006897,-0.023254395,-0.546875,2.265625,-0.21875
384,1696250691463,-0.09790039,-0.9697876,-0.039611816,1.5625,1.109375,1.28125
385,1696250691503,-0.10107422,-0.97857666,-0.032043457,1.203125,0.09375,1.71875
386,1696250691543,-0.12573242,-0.9907837,-0.03741455,-0.0625,-0.859375,0.84375
387,1696250691583,-0.09667969,-0.99176025,-0.043518066,-0.84375,1.03125,1.125
388,1696250691623,-0.07885742,-0.97735596,-0.04156494,-1.03125,1.359375,0.578125
389,1696250691663,-0.12792969,-1.0064087,-0.038879395,0.59375,-1.0,0.296875
390,1696250691703,-0.111816406,-1.0039673,-0.040100098,-1.09375,1.453125,0.484375
391,1696250691743,-0.09765625,-0.99835205,-0.034973145,0.171875,1.328125,0.703125
392,1696250691783,-0.1171875,-1.00177,-0.045715332,-0.765625,1.484375,0.015625
393,1696250691823,-0.106933594,-0.9939575,-0.039123535,-1.484375,1.65625,-0.546875
394,1696250691863,-0.12133789,-0.98101807,-0.0178833,0.421875,0.265625,0.53125
395,1696250691903,-0.099609375,-0.9924927,-0.047668457,-1.1875,1.546875,0.09375
396,1696250691943,-0.12670898,-0.9920044,-0.0413208,-0.359375,1.0,0.359375
397,1696250691983,-0.11987305,-1.0149536,-0.038391113,-0.78125,2.0625,1.390625
398,1696250692023,-0.088378906,-1.0117798,-0.02935791,-1.9375,2.4375,-0.078125
399,1696250692063,-0.10424805,-1.0056763,-0.03668213,-2.109375,0.46875,0.296875
400,1696250692103,-0.109375,-1.0005493,-0.031066895,-1.703125,-0.265625,-0.5625
401,1696250692143,-0.114990234,-0.9968872,-0.019348145,-1.859375,0.453125,0.625
402,1696250692183,-0.10595703,-0.99957275,-0.021057129,-1.859375,0.609375,0.21875
403,1696250692223,-0.09692383,-0.9961548,-0.009338379,-2.5,0.78125,0.265625
404,1696250692263,-0.12792969,-0.9924927,-0.035217285,-1.890625,0.375,0.390625
405,1696250692303,-0.10131836,-0.9973755,-0.023254395,-1.859375,1.1875,0.34375
406,1696250692343,-0.11645508,-1.0020142,-0.016662598,-1.015625,0.75,-0.015625
407,1696250692383,-0.111083984,-0.9915161,-0.021057129,-1.390625,1.0625,-0.140625
408,1696250692423,-0.103515625,-0.9993286,-0.018859863,-1.578125,0.921875,-0.375
409,1696250692463,-0.122558594,-1.0022583,-0.012268066,-0.125,0.390625,0.578125
410,1696250692503,-0.1159668,-0.97735596,0.018005371,-0.328125,-0.25,0.3125
411,1696250692543,-0.114746094,-1.0059204,-0.039123535,-1.34375,3.0625,-0.015625
412,1696250692583,-0.111816406,-0.9890747,-0.00592041,0.484375,0.984375,-0.09375
413,1696250692623,-0.11791992,-1.0056763,-0.011047363,-0.65625,1.4375,-0.140625
414,1696250692663,-0.11010742,-0.9963989,-0.017150879,-0.6875,1.578125,-0.03125
415,1696250692703,-0.13549805,-0.98223877,-0.028869629,-0.59375,2.125,1.046875
416,1696250692743,-0.104003906,-0.9990845,-0.01739502,-0.296875,2.234375,0.453125
417,1696250692783,-0.103271484,-0.9937134,-0.016906738,-0.625,1.359375,0.625
418,1696250692823,-0.118652344,-0.9973755,-0.021057129,-0.828125,1.203125,-0.453125
419,1696250692863,-0.12182617,-1.0046997,-0.010559082,-1.078125,0.5625,0.328125
420,1696250692903,-0.10668945,-1.0022583,-0.021057129,-1.171875,0.484375,0.34375
421,1696250692943,-0.10839844,-0.99542236,-0.020568848,-1.265625,0.078125,0.078125
422,1696250692983,-0.122558594,-0.9924927,-0.013244629,-0.921875,-0.453125,0.796875
423,1696250693023,-0.12597656,-0.99346924,-0.010070801,-0.921875,0.796875,0.609375
424,1696250693063,-0.1184082,-1.0032349,-0.0029907227,-0.203125,-0.03125,0.984375
425,1696250693103,-0.09741211,-0.99786377,-0.018371582,-0.765625,0.390625,-0.296875
426,1696250693143,-0.11743164,-1.0003052,-0.02545166,-0.296875,0.90625,0.90625
427,1696250693183,-0.099121094,-0.9890747,-0.013000488,0.140625,0.5625,-0.046875
428,1696250693223,-0.1171875,-1.00177,-0.012756348,-0.53125,0.078125,0.53125
429,1696250693263,-0.115478516,-0.9998169,-0.016418457,-0.171875,0.84375,1.0625
430,1696250693303,-0.11645508,-1.0007935,-0.009094238,0.015625,1.09375,0.84375
431,1696250693343,-0.11010742,-0.9963989,0.0018920898,0.203125,0.4375,0.0625
432,1696250693383,-0.12817383,-0.9961548,-0.0095825195,-0.078125,0.453125,0.828125
433,1696250693423,-0.110839844,-1.003479,-0.03717041,-0.578125,1.59375,-0.1875
434,1696250693463,-0.09399414,-0.9990845,-0.0051879883,-0.109375,0.171875,0.15625
435,1696250693503,-0.12451172,-0.99591064,-0.008117676,0.046875,-0.671875,0.78125
436,1696250693543,-0.12402344,-1.0095825,-0.016174316,0.203125,-0.21875,0.953125
437,1696250693583,-0.109375,-0.9951782,-0.014953613,0.25,0.3125,0.390625
438,1696250693623,-0.10424805,-0.98760986,-0.015686035,0.09375,0.59375,0.359375
439,1696250693663,-0.10668945,-0.99005127,-0.013244629,-0.328125,0.40625,0.453125
440,1696250693703,-0.11816406,-0.98443604,-0.023742676,0.359375,1.609375,0.375
441,1696250693743,-0.11352539,-0.99786377,-0.0005493164,1.21875,-0.1875,1.359375
442,1696250693783,-0.10131836,-0.99884033,-0.031311035,-0.734375,2.234375,0.15625
443,1696250693823,-0.119384766,-0.9949341,-0.01763916,0.859375,1.28125,-0.234375
444,1696250693863,-0.107421875,-1.0095825,-0.020568848,0.03125,1.125,0.484375
445,1696250693903,-0.11010742,-0.9963989,-0.018859863,-0.34375,0.8125,0.4375
446,1696250693943,-0.118652344,-0.99420166,-0.027160645,0.265625,0.8125,0.609375
447,1696250693983,-0.11987305,-1.0037231,-0.014465332,0.453125,-0.09375,1.140625
448,1696250694023,-0.08935547,-0.99176025,-0.013000488,-1.28125,1.46875,0.390625
449,1696250694063,-0.12402344,-0.9907837,-0.03302002,0.234375,0.171875,1.25
450,1696250694103,-0.083740234,-1.0007935,-0.018371582,0.03125,0.203125,-0.546875
451,1696250694143,-0.12158203,-1.0025024,-0.034240723,0.921875,-0.546875,0.9375
452,1696250694183,-0.10253906,-0.9898071,-0.035217285,-0.390625,0.765625,-0.109375
453,1696250694223,-0.10644531,-0.99786377,-0.027160645,0.90625,-0.109375,0.375
454,1696250694263,-0.1237793,-0.9927368,-0.04107666,0.359375,0.703125,0.21875
455,1696250694303,-0.09008789,-0.9956665,-0.031799316,0.5625,1.609375,-0.53125
456,1696250694343,-0.118652344,-1.0032349,-0.019348145,1.953125,-0.46875,1.078125
457,1696250694383,-0.1003418,-0.9924927,-0.043518066,-0.40625,2.671875,-0.703125
458,1696250694423,-0.11669922,-0.9924927,-0.039855957,1.390625,0.578125,0.03125
459,1696250694463,-0.11206055,-0.9973755,-0.04156494,-0.1875,2.34375,-0.015625
460,1696250694503,-0.095214844,-0.9961548,-0.04156494,-0.40625,1.484375,-0.28125
461,1696250694543,-0.13110352,-0.9898071,-0.035461426,-0.015625,-0.046875,0.796875
462,1696250694583,-0.12915039,-1.0066528,-0.03765869,-0.640625,1.59375,0.171875
463,1696250694623,-0.08691406,-1.0061646,-0.037902832,-0.015625,1.078125,0.515625
464,1696250694663,-0.12426758,-0.99102783,-0.028381348,-0.765625,0.984375,0.296875
465,1696250694703,-0.11206055,-1.0064087,-0.030334473,-1.3125,1.453125,0.5625
466,1696250694743,-0.09277344,-0.99542236,-0.031799316,-1.765625,1.4375,0.953125
467,1696250694783,-0.123291016,-0.99468994,-0.039855957,-1.859375,0.078125,0.6875
468,1696250694823,-0.11645508,-1.0032349,-0.035949707,-1.421875,2.015625,0.96875
469,1696250694863,-0.119628906,-0.99053955,-0.019104004,-0.359375,0.765625,1.53125
470,1696250694903,-0.1105957,-1.0049438,-0.047180176,-1.25,2.625,0.65625
471,1696250694943,-0.10424805,-1.0049438,-0.02178955,-0.71875,1.3125,1.265625
472,1696250694983,-0.088134766,-0.9859009,-0.039855957,-1.59375,2.984375,0.203125
473,1696250695023,-0.118652344,-1.0005493,-0.0022583008,-0.515625,1.578125,0.484375
474,1696250695063,-0.10424805,-1.0061646,-0.03326416,-1.34375,1.796875,1.0625
475,1696250695103,-0.099853516,-0.99102783,-0.024963379,-0.8125,1.140625,0.984375
476,1696250695143,-0.103027344,-0.99591064,-0.010070801,-0.796875,0.875,0.859375
477,1696250695183,-0.10107422,-1.0003052,-0.03277588,-1.578125,1.078125,1.046875
478,1696250695223,-0.092041016,-0.9907837,-0.028137207,-0.765625,0.203125,0.265625
479,1696250695263,-0.11645508,-1.0046997,-0.020080566,-0.25,0.0,0.828125
480,1696250695303,-0.10595703,-0.9990845,-0.028625488,0.03125,0.9375,0.8125
481,1696250695343,-0.09277344,-0.9956665,-0.026672363,0.4375,0.8125,0.8125
482,1696250695383,-0.096191406,-1.0012817,-0.030578613,0.140625,0.578125,0.515625
483,1696250695423,-0.10888672,-0.987854,-0.018615723,0.125,-0.171875,0.59375
484,1696250695463,-0.09838867,-1.0134888,-0.028625488,-0.546875,0.984375,0.21875
485,1696250695503,-0.09765625,-0.9883423,-0.0335083,-0.796875,-0.296875,0.421875
486,1696250695543,-0.09448242,-0.9956665,-0.024475098,-0.375,0.265625,-0.484375
487,1696250695583,-0.118896484,-1.0132446,-0.019592285,-0.6875,0.6875,0.09375
488,1696250695623,-0.09082031,-0.99664307,-0.035461426,-0.09375,0.5625,0.3125
489,1696250695663,-0.10498047,-0.989563,-0.026428223,-0.4375,0.28125,0.265625
490,1696250695703,-0.10668945,-0.99102783,-0.019592285,0.390625,1.171875,0.046875
491,1696250695743,-0.10205078,-0.98565674,-0.027893066,0.015625,0.953125,0.46875
492,1696250695783,-0.107666016,-0.99713135,-0.03741455,-0.15625,0.09375,-0.28125
493,1696250695823,-0.104003906,-0.9968872,-0.02154541,-0.28125,-0.328125,0.34375
494,1696250695863,-0.11621094,-0.9961548,-0.034484863,-0.53125,0.546875,0.296875
495,1696250695903,-0.10546875,-0.9939575,-0.024719238,0.0625,0.484375,0.1875
496,1696250695943,-0.10180664,-1.0037231,-0.035949707,-0.359375,0.8125,0.109375
497,1696250695983,-0.10229492,-1.0122681,-0.047668457,-0.984375,0.921875,0.25
498,1696250696023,-0.107177734,-1.0025024,0.0060424805,0.34375,-0.359375,0.1875
499,1696250696063,-0.0925293,-0.9990845,-0.054016113,-0.921875,1.328125,0.109375
500,1696250696103,-0.10839844,-0.98638916,-0.027648926,-0.078125,0.0,-0.46875
501,1696250696143,-0.119628906,-1.0054321,-0.02154541,-1.03125,1.015625,-0.03125
502,1696250696183,-0.08959961,-0.9859009,-0.038635254,-0.9375,0.5625,-0.21875
503,1696250696223,-0.11621094,-1.0095825,-0.026184082,-1.328125,-0.328125,-0.125
504,1696250696263,-0.11206055,-1.0093384,-0.029846191,-1.3125,0.65625,-0.453125
505,1696250696303,-0.099365234,-0.9993286,-0.01763916,-0.953125,0.71875,0.046875
506,1696250696343,-0.12646484,-0.9951782,-0.028625488,-1.171875,0.78125,-0.3125
507,1696250696383,-0.118896484,-1.0044556,-0.024230957,0.03125,0.828125,0.21875
508,1696250696423,-0.11694336,-1.0015259,-0.030334473,-0.765625,1.203125,0.390625
509,1696250696463,-0.10839844,-1.0003052,-0.024230957,0.0625,0.953125,0.15625
510,1696250696503,-0.11035156,-1.010315,-0.018371582,-0.484375,1.703125,-0.0625
511,1696250696543,-0.111816406,-0.9981079,-0.028869629,-0.59375,2.078125,0.109375
512,1696250696583,-0.10498047,-0.99713135,-0.014465332,0.296875,-1.140625,0.203125
513,1696250696623,-0.095947266,-0.9849243,-0.03277588,-1.1875,0.859375,-0.734375
514,1696250696663,-0.12817383,-0.9927368,-0.01739502,0.109375,0.578125,-0.09375
515,1696250696703,-0.11401367,-0.99835205,-0.028869629,-0.4375,0.921875,-0.15625
516,1696250696743,-0.09863281,-0.9920044,-0.024230957,-0.609375,-0.046875,-0.71875
517,1696250696783,-0.10986328,-0.9998169,-0.021057129,-0.859375,-0.46875,-1.375
518,1696250696823,-0.14477539,-1.0039673,-0.017150879,0.1875,-0.875,-0.28125
519,1696250696863,-0.09814453,-0.98931885,-0.019836426,-0.515625,0.375,-0.921875
520,1696250696903,-0.12915039,-0.9924927,-0.018127441,-0.015625,0.1875,-0.8125
521,1696250696943,-0.12646484,-0.9951782,-0.028869629,0.46875,0.203125,-0.046875
522,1696250696983,-0.12670898,-0.9985962,-0.022766113,0.546875,0.734375,0.03125
523,1696250697023,-0.12402344,-1.0093384,-0.038146973,-0.03125,0.5625,-0.15625
524,1696250697063,-0.13891602,-0.99542236,-0.033996582,0.09375,0.390625,0.640625
525,1696250697103,-0.115722656,-1.000061,-0.03717041,-0.453125,1.484375,-0.21875
526,1696250697143,-0.13964844,-0.99542236,-0.03375244,-0.21875,0.484375,1.09375
527,1696250697183,-0.11376953,-0.9866333,-0.039611816,-1.03125,1.640625,-0.15625
528,1696250697223,-0.1381836,-1.0044556,-0.027160645,-0.0625,1.78125,1.0
529,1696250697263,-0.12890625,-1.0056763,-0.038879395,-0.828125,1.375,1.140625
530,1696250697303,-0.12109375,-0.9944458,-0.023742676,-0.859375,1.453125,0.625
531,1696250697343,-0.13085938,-0.99468994,-0.03302002,-0.109375,0.859375,0.6875
532,1696250697383,-0.122802734,-1.0012817,-0.020080566,-0.546875,1.359375,0.859375
533,1696250697423,-0.118896484,-0.9961548,-0.03692627,-0.921875,1.015625,0.765625
534,1696250697463,-0.13574219,-0.9890747,-0.027404785,-0.96875,0.984375,0.796875
535,1696250697503,-0.13110352,-0.9829712,-0.030822754,-0.421875,0.9375,0.828125
536,1696250697543,-0.08959961,-0.99957275,-0.027160645,-0.78125,1.53125,-0.453125
537,1696250697583,-0.14086914,-0.99884033,-0.0115356445,0.546875,-0.75,0.828125
538,1696250697623,-0.1538086,-0.9968872,-0.03668213,-1.28125,0.09375,1.34375
539,1696250697663,-0.079833984,-0.9866333,-0.031066895,-0.40625,0.828125,-0.046875
540,1696250697703,-0.15844727,-1.013977,-0.02178955,1.28125,-0.046875,0.6875
541,1696250697743,-0.10986328,-0.9949341,-0.04449463,0.265625,0.984375,0.234375
542,1696250697783,-0.11425781,-1.0039673,-0.028869629,0.15625,0.296875,0.53125
543,1696250697823,-0.14868164,-1.0037231,-0.04888916,0.15625,1.015625,1.546875
544,1696250697863,-0.1003418,-0.9998169,-0.05279541,-0.390625,2.34375,0.984375
545,1696250697903,-0.09838867,-0.99005127,-0.014221191,0.984375,0.515625,0.453125
546,1696250697943,-0.119628906,-0.9949341,-0.034729004,-0.65625,1.453125,1.453125
547,1696250697983,-0.11035156,-0.987854,-0.027648926,-1.203125,0.8125,1.140625
548,1696250698023,-0.13183594,-0.9932251,-0.035949707,-1.53125,0.703125,0.703125
549,1696250698063,-0.10229492,-0.9990845,-0.037902832,-1.765625,1.609375,0.125
550,1696250698103,-0.10986328,-1.0117798,-0.026916504,-0.484375,0.359375,0.296875
551,1696250698143,-0.14160156,-0.99542236,-0.04815674,-1.125,1.1875,1.21875
552,1696250698183,-0.092041016,-0.9871216,-0.025939941,0.140625,2.03125,1.0625
553,1696250698223,-0.12133789,-1.003479,-0.013000488,-0.03125,0.890625,0.75
554,1696250698263,-0.09301758,-0.9924927,-0.041809082,-1.765625,2.828125,0.28125
555,1696250698303,-0.10522461,-0.989563,-0.027648926,0.15625,-0.421875,0.984375
556,1696250698343,-0.095458984,-0.9976196,-0.03717041,-2.625,2.03125,-0.328125
557,1696250698383,-0.11621094,-0.9859009,-0.032287598,-0.421875,1.875,0.40625
558,1696250698423,-0.100097656,-0.9981079,-0.0335083,-0.78125,0.65625,-0.03125
559,1696250698463,-0.12646484,-1.0039673,-0.027893066,-0.921875,0.84375,0.203125
560,1696250698503,-0.114990234,-0.99884033,-0.023498535,-1.0,1.390625,-0.28125
561,1696250698543,-0.12011719,-0.99957275,-0.027648926,-1.359375,0.984375,0.84375
562,1696250698583,-0.104003906,-0.99346924,-0.023498535,-1.03125,1.765625,-0.046875
563,1696250698623,-0.1027832,-0.9985962,-0.012512207,-0.421875,0.640625,0.375
564,1696250698663,-0.12011719,-0.9993286,-0.031799316,-0.28125,0.140625,0.359375
565,1696250698703,-0.10522461,-0.991272,-0.024475098,-0.53125,1.078125,0.296875
566,1696250698743,-0.10864258,-0.9951782,-0.034484863,-0.203125,0.28125,0.171875
567,1696250698783,-0.12548828,-1.0027466,-0.02520752,-0.765625,0.921875,0.21875
568,1696250698823,-0.099609375,-0.9866333,-0.04083252,-1.109375,2.0,-0.265625
569,1696250698863,-0.12841797,-0.9937134,-0.029846191,0.40625,0.609375,0.34375
570,1696250698903,-0.12402344,-0.9920044,0.020935059,-0.21875,0.109375,0.6875
571,1696250698943,-0.10888672,-0.9944458,-0.046691895,-1.375,2.0625,-0.265625
572,1696250698983,-0.1328125,-1.0132446,0.003112793,0.75,-0.171875,-0.0625
573,1696250699023,-0.11425781,-1.0247192,-0.03277588,-0.828125,1.765625,0.15625
574,1696250699063,-0.10107422,-0.98638916,-0.024719238,-0.78125,0.53125,0.3125
575,1696250699103,-0.12182617,-0.99346924,-0.029846191,-1.171875,-0.140625,0.125
576,1696250699143,-0.12182617,-0.97540283,-0.031311035,-0.09375,-0.171875,0.046875
577,1696250699183,-0.11254883,-1.003479,-0.023986816,-0.125,0.15625,0.78125
578,1696250699223,-0.103515625,-0.9824829,-0.04473877,-1.03125,0.90625,0.21875
579,1696250699263,-0.10107422,-1.0025024,-0.027648926,-0.125,-0.21875,-0.09375
580,1696250699303,-0.1328125,-1.0059204,-0.031311035,-0.609375,0.921875,0.3125
581,1696250699343,-0.09472656,-1.0007935,-0.033996582,-0.90625,1.671875,0.34375
582,1696250699383,-0.12158203,-1.0046997,-0.02178955,0.0,0.578125,0.40625
583,1696250699423,-0.14501953,-1.0010376,-0.018615723,-0.34375,1.265625,0.703125
584,1696250699463,-0.1003418,-1.010315,-0.057434082,-2.0625,2.140625,0.5625
585,1696250699503,-0.095458984,-0.96759033,0.024841309,-0.03125,-0.734375,-0.515625
586,1696250699543,-0.15112305,-0.99884033,-0.04058838,-1.515625,0.640625,0.953125
587,1696250699583,-0.10449219,-0.9907837,-0.022766113,-0.140625,1.203125,0.234375
588,1696250699623,-0.11279297,-1.0044556,-0.014953613,0.1875,-0.265625,0.359375
589,1696250699663,-0.1394043,-1.0169067,-0.008117676,-0.90625,0.59375,0.578125
590,1696250699703,-0.109375,-0.9890747,-0.030334473,-0.390625,1.078125,0.15625
591,1696250699743,-0.12011719,-0.9924927,-0.012756348,1.171875,-0.078125,0.59375
592,1696250699783,-0.119384766,-1.0122681,-0.012268066,-0.171875,0.203125,0.921875
593,1696250699823,-0.12158203,-0.9939575,-0.04083252,-0.34375,0.40625,0.4375
594,1696250699863,-0.09008789,-0.9924927,-0.0154418945,-0.296875,1.28125,0.65625
595,1696250699903,-0.11645508,-0.99591064,-0.028137207,-0.125,0.140625,0.875
596,1696250699943,-0.111328125,-0.9993286,-0.020324707,-0.515625,-0.203125,0.015625
597,1696250699983,-0.11669922,-1.0039673,-0.028137207,-0.484375,0.40625,0.75
598,1696250700023,-0.118652344,-0.9968872,-0.028869629,-0.84375,0.578125,0.640625
599,1696250700063,-0.10668945,-0.98565674,-0.0134887695,-0.703125,0.390625,-0.140625
600,1696250700103,-0.111083984,-1.0110474,-0.04107666,-0.125,1.140625,0.140625
601,1696250700143,-0.12084961,-0.99591064,-0.0178833,0.546875,-0.046875,0.3125
602,1696250700183,-0.110839844,-0.9859009,-0.04107666,-0.78125,1.390625,-0.65625
603,1696250700223,-0.115234375,-0.9956665,-0.014953613,0.671875,1.671875,0.5
604,1696250700263,-0.110839844,-1.0049438,-0.035705566,0.609375,1.328125,0.90625
605,1696250700303,-0.114990234,-0.9985962,-0.0178833,-0.375,1.078125,0.53125
606,1696250700343,-0.12231445,-0.9915161,-0.031799316,-0.328125,1.25,0.234375
607,1696250700383,-0.119384766,-0.99835205,-0.020324707,0.109375,0.3125,0.59375
608,1696250700423,-0.11035156,-1.00177,-0.035705566,-0.640625,0.53125,0.265625
609,1696250700463,-0.12060547,-1.0066528,-0.02130127,0.015625,0.703125,0.421875
610,1696250700503,-0.11328125,-1.0010376,-0.028869629,0.265625,1.265625,0.96875
611,1696250700543,-0.11669922,-0.9885864,-0.036193848,0.265625,1.5625,0.828125
612,1696250700583,-0.10058594,-0.9981079,-0.031799316,0.203125,1.015625,0.734375
613,1696250700623,-0.10229492,-0.9924927,-0.031066895,0.671875,0.09375,0.828125
614,1696250700663,-0.111572266,-0.9976196,-0.03326416,0.078125,0.15625,0.578125
615,1696250700703,-0.119628906,-1.0056763,-0.035949707,-0.484375,1.21875,0.765625
616,1696250700743,-0.10961914,-0.9949341,-0.026428223,0.5625,0.234375,0.84375
617,1696250700783,-0.106933594,-0.98638916,-0.043029785,-0.0625,1.015625,0.40625
618,1696250700823,-0.12133789,-1.003479,-0.03765869,0.5,0.78125,0.328125
619,1696250700863,-0.09643555,-0.99420166,-0.035461426,0.734375,1.640625,0.625
620,1696250700903,-0.10424805,-0.99591064,-0.028381348,-0.421875,1.28125,0.765625
621,1696250700943,-0.12011719,-1.0010376,-0.038391113,-0.28125,1.25,1.109375
622,1696250700983,-0.0925293,-0.99884033,-0.04034424,0.015625,1.015625,0.421875
623,1696250701023,-0.10058594,-0.9932251,-0.038635254,-0.796875,0.6875,0.3125
624,1696250701063,-0.11645508,-0.98809814,-0.03375244,-0.703125,0.90625,0.109375
625,1696250701103,-0.10180664,-0.9998169,-0.046691895,-0.53125,1.125,0.6875
626,1696250701143,-0.10473633,-0.9985962,-0.050598145,-0.234375,1.40625,0.15625
627,1696250701183,-0.10229492,-1.0056763,-0.038635254,-0.265625,0.734375,-0.046875
628,1696250701223,-0.10839844,-0.99005127,-0.04449463,-0.921875,0.46875,0.328125
629,1696250701263,-0.11401367,-0.99786377,-0.04864502,-0.609375,1.4375,0.453125
630,1696250701303,-0.09887695,-1.0037231,-0.047424316,0.5,0.15625,0.671875
631,1696250701343,-0.11303711,-0.99053955,-0.014953613,-0.90625,0.265625,0.28125
632,1696250701383,-0.115722656,-1.0100708,-0.047424316,-1.296875,1.359375,0.390625
633,1696250701423,-0.10546875,-0.99420166,-0.034240723,-1.4375,0.921875,-0.390625
634,1696250701463,-0.10864258,-0.99786377,-0.02520752,-1.125,2.109375,0.484375
635,1696250701503,-0.1015625,-1.0007935,-0.03277588,-0.734375,1.609375,0.671875
636,1696250701543,-0.10888672,-1.0022583,-0.039123535,-1.53125,1.515625,0.765625
637,1696250701583,-0.11206055,-0.9902954,-0.028381348,-0.875,1.546875,0.015625
638,1696250701623,-0.111328125,-0.99664307,-0.03668213,-1.390625,2.109375,0.953125
639,1696250701663,-0.09814453,-0.9920044,-0.03692627,-1.234375,1.9375,0.140625
640,1696250701703,-0.10986328,-1.000061,-0.023742676,-1.265625,1.453125,-0.234375
641,1696250701743,-0.11425781,-0.9993286,-0.035217285,-0.890625,0.703125,0.515625
642,1696250701783,-0.10668945,-0.9939575,-0.027404785,-1.234375,1.640625,0.015625
643,1696250701823,-0.1105957,-0.9968872,-0.020080566,-0.328125,0.640625,0.796875
644,1696250701863,-0.110839844,-1.0093384,-0.039367676,-1.546875,1.421875,0.1875
645,1696250701903,-0.10058594,-1.0007935,-0.04156494,-0.625,0.640625,0.015625
646,1696250701943,-0.1105957,-0.99420166,-0.0015258789,-1.5625,0.703125,-0.40625
647,1696250701983,-0.115234375,-0.9932251,-0.04815674,-1.5625,2.234375,0.21875
648,1696250702023,-0.10620117,-0.97857666,-0.013000488,-0.1875,1.40625,-0.375
649,1696250702063,-0.109375,-1.015686,-0.027893066,-0.765625,1.375,0.171875
650,1696250702103,-0.110839844,-1.0020142,-0.031066895,-1.984375,1.671875,-0.125
651,1696250702143,-0.10986328,-1.0020142,-0.024963379,-1.1875,0.828125,0.125
652,1696250702183,-0.111572266,-0.9993286,-0.0134887695,-0.40625,0.734375,0.25
653,1696250702223,-0.11035156,-0.9968872,-0.027404785,-0.828125,1.09375,0.90625
654,1696250702263,-0.11254883,-0.98028564,-0.0134887695,-0.546875,0.53125,-0.21875
655,1696250702303,-0.11816406,-0.9883423,-0.019836426,-0.703125,0.4375,0.78125
656,1696250702343,-0.099853516,-0.98809814,-0.022766113,-0.171875,0.03125,0.390625
657,1696250702383,-0.114746094,-0.99786377,-0.012756348,0.34375,-0.828125,0.484375
658,1696250702423,-0.115722656,-1.0178833,-0.027648926,-0.203125,0.546875,0.75
659,1696250702463,-0.10546875,-0.99542236,-0.0056762695,0.296875,-0.75,0.21875
660,1696250702503,-0.10961914,-1.0037231,-0.03717041,-1.578125,1.96875,-0.328125
661,1696250702543,-0.107910156,-0.98687744,-0.020324707,0.625,-0.046875,0.40625
662,1696250702583,-0.09863281,-0.989563,-0.022277832,-0.390625,1.0625,-0.375
663,1696250702623,-0.123046875,-1.0046997,-0.016662598,-0.421875,0.703125,0.109375
664,1696250702663,-0.10571289,-0.99713135,-0.021057129,-0.25,0.8125,-0.09375
665,1696250702703,-0.11791992,-0.99420166,-0.023742676,-0.359375,0.265625,0.578125
666,1696250702743,-0.103027344,-0.9951782,-0.026916504,-0.921875,0.96875,-0.625
667,1696250702783,-0.11767578,-0.99420166,-0.01739502,-0.4375,0.3125,0.296875
668,1696250702823,-0.12548828,-1.000061,-0.033996582,-1.015625,0.9375,0.0625
669,1696250702863,-0.11425781,-0.9898071,-0.014953613,-0.34375,0.3125,-0.421875
670,1696250702903,-0.12133789,-0.99346924,-0.023742676,-0.40625,0.375,0.0
671,1696250702943,-0.11010742,-0.9976196,-0.014465332,0.078125,0.703125,-0.046875
672,1696250702983,-0.115234375,-1.0059204,-0.019592285,-0.15625,0.828125,0.0625
673,1696250703023,-0.114990234,-0.99591064,-0.027893066,-1.078125,1.34375,0.390625
674,1696250703063,-0.11352539,-0.99957275,-0.029846191,0.171875,0.125,0.65625
675,1696250703103,-0.11230469,-1.0032349,-0.010803223,-0.828125,0.3125,-0.125
676,1696250703143,-0.11425781,-1.0044556,-0.027893066,-0.140625,0.859375,-0.1875
677,1696250703183,-0.11645508,-0.98760986,-0.038146973,-0.84375,0.28125,-0.875
678,1696250703223,-0.13110352,-0.991272,-0.022033691,-0.40625,0.890625,0.34375
679,1696250703263,-0.103271484,-0.9998169,-0.020324707,-0.078125,1.03125,-0.078125
680,1696250703303,-0.13232422,-1.0010376,-0.020324707,-0.6875,0.78125,0.78125
681,1696250703343,-0.11279297,-0.99053955,-0.018859863,-0.421875,0.984375,-0.1875
682,1696250703383,-0.11401367,-0.9898071,-0.015930176,-0.5,1.484375,0.15625
683,1696250703423,-0.13134766,-0.99298096,-0.028381348,-0.421875,0.71875,0.375
684,1696250703463,-0.10888672,-0.99298096,-0.015930176,-0.1875,0.71875,0.15625
685,1696250703503,-0.118896484,-0.9961548,-0.014953613,-0.140625,0.484375,0.515625
686,1696250703543,-0.122802734,-1.0022583,-0.02154541,-0.328125,0.984375,0.5625
687,1696250703583,-0.11743164,-1.0059204,-0.018371582,0.265625,0.890625,0.453125
688,1696250703623,-0.13256836,-0.9961548,-0.021057129,-0.109375,0.6875,0.796875
689,1696250703663,-0.11328125,-0.99884033,-0.03326416,0.609375,0.96875,0.515625
690,1696250703703,-0.107666016,-1.0027466,-0.026428223,0.484375,-0.34375,0.328125
691,1696250703743,-0.107177734,-0.99176025,-0.04058838,-0.78125,-0.125,0.390625
692,1696250703783,-0.14379883,-0.9993286,-0.027893066,-1.0625,1.15625,0.84375
693,1696250703823,-0.09277344,-0.99298096,-0.023986816,-0.171875,1.375,0.28125
694,1696250703863,-0.114990234,-0.9924927,-0.022277832,-1.234375,1.09375,0.46875
695,1696250703903,-0.10449219,-0.989563,-0.03326416,-1.40625,1.0,-0.859375
696,1696250703943,-0.13330078,-0.9885864,-0.012268066,-0.78125,0.71875,0.328125
697,1696250703983,-0.13916016,-0.99420166,-0.027893066,-0.4375,1.09375,0.515625
698,1696250704023,-0.09716797,-0.9812622,-0.008605957,-0.234375,1.3125,0.265625
699,1696250704063,-0.14086914,-1.0127563,-0.018615723,0.25,0.203125,0.75
700,1696250704103,-0.118652344,-1.000061,-0.018615723,0.390625,0.234375,0.03125
701,1696250704143,-0.10961914,-1.0010376,-0.02911377,0.4375,0.109375,0.265625
702,1696250704183,-0.13134766,-1.0032349,-0.01763916,0.90625,-0.09375,1.453125
703,1696250704223,-0.111083984,-0.9883423,-0.042053223,1.109375,0.375,0.765625
704,1696250704263,-0.13793945,-1.0010376,-0.013977051,1.359375,-1.5,1.390625
705,1696250704303,-0.09326172,-0.9829712,-0.06524658,-0.59375,0.671875,-0.140625
706,1696250704343,-0.14746094,-0.98443604,-0.034240723,1.109375,-0.3125,0.84375
707,1696250704383,-0.10424805,-0.99664307,-0.057678223,0.359375,3.0625,0.515625
708,1696250704423,-0.09277344,-0.98687744,-0.030334473,2.375,0.828125,1.984375
709,1696250704463,-0.12963867,-1.0130005,-0.031555176,-0.140625,1.25,0.96875
710,1696250704503,-0.10131836,-1.003479,-0.035705566,-0.09375,0.765625,0.328125
711,1696250704543,-0.12402344,-0.99591064,-0.04888916,-0.328125,-0.03125,0.75
712,1696250704583,-0.12011719,-0.9951782,-0.02960205,-0.9375,1.4375,0.75
713,1696250704623,-0.10595703,-0.9890747,-0.059143066,-0.5,0.765625,1.125
714,1696250704663,-0.12719727,-0.9924927,-0.0413208,-1.171875,1.4375,1.140625
715,1696250704703,-0.09667969,-0.9924927,-0.04425049,-1.265625,2.34375,0.390625
716,1696250704743,-0.09008789,-1.0039673,-0.038391113,-1.375,1.71875,0.359375
717,1696250704783,-0.1159668,-1.003479,-0.057922363,-2.203125,0.890625,0.203125
718,1696250704823,-0.099121094,-0.97613525,-0.0025024414,-2.109375,0.109375,-0.1875
719,1696250704863,-0.125,-1.0029907,-0.042785645,-1.890625,1.21875,0.640625
720,1696250704903,-0.12597656,-0.99005127,-0.040100098,-0.28125,1.421875,0.203125
721,1696250704943,-0.10986328,-1.0147095,-0.023742676,-0.5625,1.859375,1.078125
722,1696250704983,-0.12133789,-1.0032349,-0.02960205,-1.1875,2.671875,0.125
723,1696250705023,-0.0949707,-0.98150635,-0.03326416,-0.328125,2.0625,0.359375
724,1696250705063,-0.11743164,-0.99346924,-0.0154418945,0.65625,0.46875,0.78125
725,1696250705103,-0.10473633,-0.99542236,-0.038635254,0.0625,0.625,0.96875
726,1696250705143,-0.08862305,-0.9812622,-0.023498535,0.390625,1.234375,0.234375
727,1696250705183,-0.11621094,-1.0066528,-0.024963379,0.765625,-0.390625,0.796875
728,1696250705223,-0.107910156,-1.0059204,-0.03277588,0.203125,-0.1875,0.953125
729,1696250705263,-0.11254883,-1.0110474,-0.036193848,-0.78125,0.234375,0.78125
730,1696250705303,-0.111328125,-1.0073853,-0.047668457,-1.421875,1.046875,0.640625
731,1696250705343,-0.11328125,-0.97857666,-0.04034424,0.546875,1.6875,0.5625
732,1696250705383,-0.11303711,-0.9849243,-0.030090332,0.609375,-0.109375,0.796875
733,1696250705423,-0.09350586,-0.9944458,-0.054016113,-0.796875,2.484375,0.25
734,1696250705463,-0.106933594,-1.0032349,-0.02178955,0.484375,1.1875,0.40625
735,1696250705503,-0.09667969,-1.0073853,-0.05255127,-2.0,1.296875,0.390625
736,1696250705543,-0.0949707,-0.9963989,-0.04522705,-2.078125,0.984375,0.078125
737,1696250705583,-0.09667969,-0.9898071,-0.03302002,-1.734375,0.640625,-0.28125
738,1696250705623,-0.103027344,-0.9968872,-0.045959473,-2.671875,-0.125,-0.1875
739,1696250705663,-0.091552734,-0.99224854,-0.04107666,-2.828125,0.453125,-0.9375
740,1696250705703,-0.09814453,-0.98272705,-0.031066895,-2.1875,0.3125,-1.09375
741,1696250705743,-0.1184082,-0.9805298,-0.014465332,-2.25,-0.0625,-0.140625
742,1696250705783,-0.13330078,-0.9800415,-0.004211426,-0.5625,0.0625,0.625
743,1696250705823,-0.10424805,-0.9990845,-0.025939941,-0.09375,0.828125,0.078125
744,1696250705863,-0.11987305,-1.0090942,-0.0154418945,0.3125,-0.546875,0.578125
745,1696250705903,-0.11621094,-1.0169067,-0.011779785,-0.1875,0.5,-0.609375
746,1696250705943,-0.111083984,-1.0095825,-0.046447754,0.03125,0.96875,0.78125
747,1696250705983,-0.09301758,-0.9973755,-0.03643799,0.625,0.46875,-0.296875
748,1696250706023,-0.12646484,-0.99053955,-0.01373291,0.6875,0.234375,1.53125
749,1696250706063,-0.103027344,-0.99176025,-0.03326416,0.203125,0.984375,0.9375
750,1696250706103,-0.10668945,-0.9829712,-0.030822754,0.203125,0.65625,0.234375
751,1696250706143,-0.11035156,-0.9963989,-0.026916504,-0.34375,0.234375,0.015625
752,1696250706183,-0.103515625,-1.00177,-0.02935791,0.078125,1.0625,0.5625
753,1696250706223,-0.10644531,-1.0037231,-0.02935791,0.015625,0.515625,-0.015625
754,1696250706263,-0.11206055,-1.0161743,-0.024230957,-0.21875,0.359375,0.53125
755,1696250706303,-0.11254883,-0.9981079,-0.028137207,0.140625,0.546875,0.734375
756,1696250706343,-0.11206055,-0.9937134,-0.0256958,0.1875,0.6875,1.125
757,1696250706383,-0.09765625,-0.9885864,-0.043762207,0.15625,1.28125,0.75
758,1696250706423,-0.111816406,-0.99053955,-0.04888916,0.578125,1.046875,1.109375
759,1696250706463,-0.107666016,-0.9890747,-0.0049438477,1.203125,-0.484375,0.9375
