,timestamp,accel_x,accel_y,accel_z,gyro_x,gyro_y,gyro_z
0,1697605965,-0.05493164,-0.9834595,0.17181396,0.40625,2.234375,-0.90625
1,1697606005,-0.032714844,-0.973938,0.18182373,2.015625,3.421875,-1.171875
2,1697606045,-0.021484375,-0.989563,0.15008545,2.53125,1.546875,-1.390625
3,1697606085,0.037841797,-0.99346924,0.17230225,0.21875,6.84375,-7.359375
4,1697606125,-0.07324219,-0.9385376,0.1876831,-3.21875,-1.75,-3.984375
5,1697606165,-0.17504883,-0.96954346,0.15203857,-0.875,-4.984375,6.328125
6,1697606205,-0.13012695,-1.0510864,0.17767334,1.453125,-3.125,5.1875
7,1697606245,-0.08642578,-1.0471802,0.18548584,1.015625,0.171875,3.09375
8,1697606285,-0.08618164,-1.0095825,0.17816162,-2.6875,0.65625,1.09375
9,1697606325,-0.096191406,-1.0066528,0.17767334,-2.671875,0.28125,0.484375
10,1697606365,-0.083740234,-0.99542236,0.15960693,0.15625,2.453125,-0.84375
11,1697606405,-0.05883789,-0.991272,0.17401123,-4.421875,5.328125,-0.59375
12,1697606445,-0.041992188,-0.9729614,0.17230225,-7.46875,6.71875,0.703125
13,1697606485,-0.026611328,-0.9578247,0.18182373,-4.09375,5.140625,2.125
14,1697606525,0.015380859,-0.9951782,0.18206787,4.3125,4.84375,-1.21875
15,1697606565,-0.0036621094,-0.9780884,0.20599365,4.625,0.5,-3.828125
16,1697606605,-0.10864258,-0.98101807,0.19940186,3.78125,-4.484375,1.40625
17,1697606645,-0.13476562,-1.0230103,0.17523193,5.59375,-6.28125,2.75
18,1697606685,-0.08276367,-1.0557251,0.15911865,-1.046875,-1.6875,3.046875
19,1697606725,-0.10913086,-1.0430298,0.17889404,-10.609375,1.890625,-0.109375
20,1697606765,-0.13867188,-0.975647,0.18890381,-5.578125,3.765625,-0.859375
21,1697606805,-0.057861328,-0.98321533,0.2086792,2.671875,6.15625,-1.4375
22,1697606845,-0.034423828,-0.97247314,0.19622803,4.890625,3.515625,-1.5
23,1697606885,-0.01928711,-0.9649048,0.19476318,6.796875,2.203125,-1.203125
24,1697606925,-0.016845703,-0.99957275,0.16400146,2.09375,-2.25,2.53125
25,1697606965,-0.032714844,-1.008606,0.15350342,-0.453125,-3.0,1.515625
26,1697607005,-0.051757812,-1.034729,0.1786499,-2.5625,0.109375,-3.09375
27,1697607045,-0.033935547,-0.96881104,0.20574951,-1.578125,0.484375,-9.421875
28,1697607085,-0.12548828,-0.93463135,0.19818115,1.15625,-1.921875,0.828125
29,1697607125,-0.15039062,-0.9924927,0.16497803,3.1875,-4.15625,4.171875
30,1697607165,-0.099365234,-1.0745239,0.17303467,1.546875,3.265625,1.734375
31,1697607205,-0.0715332,-1.0300903,0.19256592,-6.6875,2.5,0.203125
32,1697607245,-0.12084961,-0.9783325,0.16619873,-6.015625,1.296875,0.078125
33,1697607285,-0.080078125,-0.98321533,0.16644287,4.375,2.6875,-3.0
34,1697607325,-0.046875,-0.9834595,0.1918335,6.953125,2.46875,-2.796875
35,1697607365,-0.030273438,-0.96588135,0.17059326,1.71875,-0.890625,-1.78125
36,1697607405,-0.04736328,-0.9939575,0.14886475,-2.21875,-0.546875,-1.734375
37,1697607445,-0.061523438,-0.9651489,0.18475342,-3.875,-0.546875,-4.28125
38,1697607485,-0.12084961,-0.9990845,0.1786499,0.40625,-2.25,1.90625
39,1697607525,-0.15039062,-1.0466919,0.18865967,-0.859375,-2.953125,4.8125
40,1697607565,-0.119628906,-1.045227,0.17938232,-0.59375,0.296875,0.4375
41,1697607605,-0.10498047,-0.9859009,0.21209717,-4.0,-0.328125,-2.9375
42,1697607645,-0.13574219,-0.9378052,0.19476318,-0.703125,-0.78125,-2.671875
43,1697607685,-0.11767578,-0.99591064,0.1671753,2.390625,-1.140625,0.171875
44,1697607725,-0.091796875,-1.0005493,0.15765381,-0.265625,1.75,-0.953125
45,1697607765,-0.10839844,-1.0042114,0.19598389,-1.375,1.0625,1.21875
46,1697607805,-0.09863281,-1.0042114,0.17474365,-7.296875,-0.859375,2.734375
47,1697607845,-0.08911133,-1.0093384,0.18548584,-4.890625,1.578125,1.6875
48,1697607885,-0.068359375,-1.0112915,0.1618042,1.3125,3.53125,2.03125
49,1697607925,-0.053222656,-1.0027466,0.20184326,5.453125,1.90625,-1.75
50,1697607965,-0.064453125,-0.9614868,0.15716553,5.234375,2.3125,-0.4375
51,1697608005,-0.04638672,-1.0044556,0.18206787,11.921875,2.515625,2.171875
52,1697608045,-0.09008789,-1.0176392,0.20428467,6.390625,6.828125,1.171875
53,1697608085,-0.05053711,-0.99884033,0.16644287,-2.375,1.140625,-6.953125
54,1697608125,-0.020507812,-1.0127563,0.13446045,-3.46875,6.65625,-11.015625
55,1697608165,-0.15551758,-0.88946533,0.17010498,-3.203125,-2.375,-2.875
56,1697608205,-0.19628906,-1.0105591,0.15960693,-2.5,-3.078125,5.890625
57,1697608245,-0.14453125,-1.0618286,0.18084717,-4.140625,-1.25,2.046875
58,1697608285,-0.14038086,-1.0256958,0.20501709,-3.15625,0.0625,2.5
59,1697608325,-0.12963867,-0.9920044,0.17449951,-2.53125,-2.375,-0.328125
60,1697608365,-0.13916016,-0.96588135,0.17132568,5.53125,-2.53125,1.78125
61,1697608405,-0.14160156,-1.0232544,0.1605835,4.359375,-3.1875,0.875
62,1697608445,-0.06640625,-0.98272705,0.18988037,-1.3125,2.546875,-4.046875
63,1697608485,-0.07006836,-0.9932251,0.16619873,-1.546875,6.890625,-0.9375
64,1697608525,0.061767578,-1.0310669,0.15570068,-4.875,9.0625,-9.28125
65,1697608565,-0.099853516,-0.9158325,0.17181396,2.96875,-0.609375,2.15625
66,1697608605,-0.22094727,-0.9644165,0.20428467,4.65625,-2.96875,7.84375
67,1697608645,-0.1743164,-1.036438,0.19207764,-0.203125,1.40625,1.921875
68,1697608685,-0.11206055,-1.0046997,0.20526123,-3.171875,1.21875,7.71875
69,1697608725,-0.1352539,-1.020813,0.21673584,-4.859375,-0.6875,1.78125
70,1697608765,-0.115234375,-1.0286255,0.17352295,1.390625,-3.140625,-2.5
71,1697608805,-0.09716797,-0.9885864,0.1539917,8.390625,-0.375,-4.125
72,1697608845,-0.07055664,-1.0071411,0.16546631,4.609375,3.28125,-4.9375
73,1697608885,-0.05493164,-0.9949341,0.14715576,-2.953125,9.921875,-3.78125
74,1697608925,0.018066406,-0.9414673,0.1671753,-5.171875,5.078125,-3.21875
75,1697608965,-0.14575195,-0.9241333,0.16204834,1.296875,-1.9375,6.75
76,1697609005,-0.14697266,-1.0315552,0.21038818,3.46875,0.234375,4.65625
77,1697609045,-0.11694336,-1.0518188,0.1786499,-2.6875,-1.515625,3.984375
78,1697609085,-0.13964844,-0.9973755,0.2020874,-9.40625,-5.5625,3.703125
79,1697609125,-0.13793945,-0.99957275,0.1930542,-3.359375,-4.1875,0.25
80,1697609165,-0.15991211,-1.0059204,0.1876831,5.25,-3.890625,-1.046875
81,1697609205,-0.13110352,-0.99957275,0.19207764,6.59375,2.171875,-5.359375
82,1697609245,-0.09375,-0.9780884,0.17279053,-0.84375,5.59375,-4.28125
83,1697609285,-0.10205078,-0.95806885,0.14569092,1.03125,-0.09375,-0.5
84,1697609325,-0.0847168,-1.0061646,0.19207764,-0.15625,1.828125,5.234375
85,1697609365,-0.057617188,-1.0432739,0.14276123,1.09375,-0.3125,5.21875
86,1697609405,-0.08203125,-1.0010376,0.17327881,7.8125,-1.109375,5.40625
87,1697609445,-0.12451172,-1.0308228,0.1071167,14.75,-3.734375,7.765625
88,1697609485,-0.080322266,-1.0256958,0.10223389,5.90625,1.09375,4.09375
89,1697609525,-0.056884766,-0.98687744,0.101501465,-0.828125,5.90625,-2.046875
90,1697609565,-0.025146484,-0.972229,0.1515503,-4.5625,6.28125,-3.65625
91,1697609605,-0.09643555,-1.0025024,0.12200928,-4.96875,1.0,-4.21875
92,1697609645,-0.053955078,-1.0176392,0.16912842,-5.28125,2.046875,-8.453125
93,1697609685,-0.068603516,-1.0015259,0.12567139,-2.21875,8.578125,-6.046875
94,1697609725,0.05029297,-0.9807739,0.16741943,-8.65625,8.359375,-8.03125
95,1697609765,-0.15429688,-0.9026489,0.15057373,-5.234375,-5.609375,0.21875
96,1697609805,-0.2265625,-1.0232544,0.18914795,-2.546875,-3.140625,3.640625
97,1697609845,-0.16333008,-1.0388794,0.20184326,-1.421875,-4.5625,1.421875
98,1697609885,-0.15649414,-1.0244751,0.19671631,-1.453125,-2.546875,2.3125
99,1697609925,-0.14868164,-1.0098267,0.18011475,-3.671875,-2.828125,-0.59375
100,1697609965,-0.13085938,-0.99298096,0.18963623,-0.34375,0.28125,-1.984375
101,1697610005,-0.13061523,-0.98272705,0.18939209,-1.546875,1.671875,-2.640625
102,1697610045,-0.11206055,-0.9746704,0.18621826,0.640625,2.015625,-2.046875
103,1697610085,-0.080566406,-0.98150635,0.18841553,0.03125,3.515625,0.484375
104,1697610125,-0.07348633,-0.9944458,0.18206787,-1.453125,2.5625,1.8125
105,1697610165,-0.072021484,-0.9998169,0.1749878,-1.609375,3.359375,-0.1875
106,1697610205,-0.055908203,-1.0044556,0.1564331,1.578125,7.359375,-6.625
107,1697610245,-0.10449219,-0.91607666,0.19622803,-3.046875,0.8125,-6.921875
108,1697610285,-0.18579102,-0.93218994,0.21209717,-1.125,-4.515625,4.953125
109,1697610325,-0.17138672,-1.0195923,0.22991943,-0.5625,-5.65625,4.296875
110,1697610365,-0.16992188,-1.0567017,0.21942139,-0.765625,-1.1875,3.21875
111,1697610405,-0.15429688,-1.0003052,0.2164917,-4.96875,-1.59375,-0.671875
112,1697610445,-0.17553711,-1.0078735,0.24481201,-5.0,-0.21875,1.703125
113,1697610485,-0.1694336,-0.9788208,0.21942139,-5.140625,-0.796875,0.0625
114,1697610525,-0.15649414,-0.98101807,0.22235107,-0.265625,5.4375,-1.15625
115,1697610565,-0.115234375,-0.96881104,0.19891357,-1.890625,7.421875,2.453125
116,1697610605,-0.10424805,-0.9421997,0.17694092,4.9375,3.515625,8.859375
117,1697610645,-0.07885742,-1.0620728,0.19110107,13.25,5.8125,10.265625
118,1697610685,-0.057617188,-1.0281372,0.18475342,13.5625,0.65625,3.0625
119,1697610725,-0.052978516,-0.9915161,0.14202881,8.640625,1.765625,2.21875
120,1697610765,-0.06591797,-0.98638916,0.14910889,5.765625,2.875,3.109375
121,1697610805,-0.071777344,-0.98150635,0.13275146,4.03125,4.140625,1.203125
122,1697610845,-0.030029297,-1.0015259,0.11956787,3.9375,3.65625,-2.21875
123,1697610885,-0.06225586,-0.97979736,0.15057373,0.984375,-0.828125,0.953125
124,1697610925,-0.11328125,-1.0422974,0.17376709,-2.4375,-1.34375,0.5625
125,1697610965,-0.028320312,-0.99176025,0.18206787,-3.1875,5.09375,-5.671875
126,1697611005,-0.06982422,-1.0003052,0.15838623,-2.90625,5.203125,-5.90625
127,1697611045,-0.068359375,-0.9578247,0.17791748,-6.390625,-0.625,-7.484375
128,1697611085,-0.1430664,-0.93170166,0.11517334,-0.875,-7.5625,1.15625
129,1697611125,-0.15576172,-1.0427856,0.1630249,-4.4375,-0.03125,5.953125
130,1697611165,-0.14282227,-1.0447388,0.17840576,-3.046875,-2.6875,0.03125
131,1697611205,-0.1538086,-1.015686,0.17034912,-3.140625,-2.09375,-0.125
132,1697611245,-0.12402344,-0.9871216,0.19451904,1.953125,-1.140625,-2.203125
133,1697611285,-0.13549805,-1.0147095,0.17108154,1.390625,-0.328125,2.15625
134,1697611325,-0.13330078,-0.98687744,0.15667725,2.21875,-0.953125,1.03125
135,1697611365,-0.11279297,-0.9885864,0.16522217,4.046875,-0.765625,1.15625
136,1697611405,-0.040771484,-0.9915161,0.18109131,0.234375,3.78125,0.90625
137,1697611445,-0.057861328,-0.9944458,0.15716553,2.40625,4.28125,1.265625
138,1697611485,-0.028320312,-1.0105591,0.14813232,3.109375,9.875,-4.390625
139,1697611525,0.04296875,-0.9561157,0.19525146,-1.640625,5.546875,-8.46875
140,1697611565,-0.14526367,-0.8880005,0.17547607,-1.390625,-7.0625,2.640625
141,1697611605,-0.17260742,-0.9649048,0.16522217,-0.171875,-6.359375,4.6875
142,1697611645,-0.15258789,-1.0657349,0.15740967,3.46875,-3.015625,5.546875
143,1697611685,-0.12084961,-1.0637817,0.16326904,-1.953125,-1.328125,3.9375
144,1697611725,-0.12792969,-1.0300903,0.16082764,-5.59375,-2.40625,0.1875
145,1697611765,-0.14526367,-0.989563,0.14959717,1.75,-1.421875,-1.921875
146,1697611805,-0.13085938,-1.0117798,0.15911865,3.171875,1.125,-4.109375
147,1697611845,-0.07714844,-0.9763794,0.17449951,-0.4375,4.953125,-3.703125
148,1697611885,-0.08203125,-0.9505005,0.15594482,-4.9375,4.421875,1.265625
149,1697611925,-0.024658203,-0.99420166,0.14227295,-5.578125,11.375,0.46875
150,1697611965,-0.019042969,-1.0205688,0.18133545,-6.484375,10.578125,-1.390625
151,1697612005,-0.13549805,-0.91900635,0.21722412,-6.96875,0.34375,0.265625
152,1697612045,-0.15356445,-0.97003174,0.18182373,5.359375,-3.625,4.34375
153,1697612085,-0.11206055,-1.048645,0.20648193,9.078125,-3.71875,4.046875
154,1697612125,-0.099365234,-1.0432739,0.18572998,2.921875,-2.625,1.34375
155,1697612165,-0.12841797,-1.0110474,0.16473389,-4.921875,-2.234375,-1.5
156,1697612205,-0.15551758,-0.9817505,0.16766357,-0.296875,-0.046875,-1.828125
157,1697612245,-0.11791992,-0.99786377,0.17596436,2.21875,2.15625,-1.390625
158,1697612285,-0.087890625,-0.9800415,0.17694092,-2.078125,4.125,-0.265625
159,1697612325,-0.09448242,-0.98687744,0.16937256,-5.171875,5.796875,2.484375
160,1697612365,-0.047851562,-0.97735596,0.17816162,-3.796875,8.5,3.09375
161,1697612405,-0.023925781,-1.0064087,0.18817139,-1.703125,6.34375,-1.296875
162,1697612445,-0.06640625,-0.9456177,0.22259521,0.125,0.171875,-3.84375
163,1697612485,-0.13452148,-0.9536743,0.17791748,4.3125,-6.453125,2.15625
164,1697612525,-0.12866211,-1.0303345,0.18548584,7.171875,-6.921875,2.3125
165,1697612565,-0.10424805,-1.0454712,0.1798706,1.4375,-1.6875,-0.1875
166,1697612605,-0.11206055,-1.0198364,0.1828003,-7.3125,-2.875,-1.3125
167,1697612645,-0.15185547,-0.97906494,0.19085693,-1.78125,-0.171875,-1.234375
168,1697612685,-0.13647461,-0.98931885,0.19085693,3.6875,0.4375,1.359375
169,1697612725,-0.10107422,-0.9866333,0.21234131,1.1875,3.25,0.109375
170,1697612765,-0.0859375,-0.9668579,0.21356201,-3.578125,4.125,2.203125
171,1697612805,-0.115722656,-0.9837036,0.16790771,-4.359375,1.203125,5.625
172,1697612845,-0.076171875,-1.0076294,0.17938232,-2.453125,2.015625,3.375
173,1697612885,-0.056640625,-1.0161743,0.18084717,1.328125,1.859375,0.09375
174,1697612925,-0.048339844,-0.9993286,0.1852417,2.015625,-1.5,-1.96875
175,1697612965,-0.0769043,-0.9920044,0.1720581,3.671875,0.078125,-2.71875
176,1697613005,-0.068603516,-0.9805298,0.15179443,5.75,0.921875,-2.921875
177,1697613045,-0.06323242,-0.9915161,0.1449585,8.734375,2.90625,-3.515625
178,1697613085,-0.06567383,-1.0203247,0.18817139,2.796875,2.8125,-1.8125
179,1697613125,-0.07495117,-0.96539307,0.18621826,-3.4375,3.515625,-8.0
180,1697613165,-0.014404297,-1.0003052,0.16693115,-4.859375,6.796875,-10.84375
181,1697613205,-0.09082031,-0.9446411,0.16619873,-4.9375,-1.828125,-4.890625
182,1697613245,-0.2019043,-0.9505005,0.19622803,-7.28125,-4.046875,4.390625
183,1697613285,-0.19946289,-1.034729,0.20697021,-3.0625,-3.53125,2.828125
184,1697613325,-0.18945312,-1.0293579,0.19622803,1.78125,-4.328125,1.96875
185,1697613365,-0.18945312,-1.008606,0.20819092,0.65625,-3.40625,3.8125
186,1697613405,-0.16308594,-1.022522,0.17425537,-1.6875,-5.875,0.421875
187,1697613445,-0.15844727,-0.98809814,0.18133545,1.03125,-3.140625,-3.65625
188,1697613485,-0.15454102,-0.9649048,0.1774292,3.234375,1.140625,-4.9375
189,1697613525,-0.10864258,-0.9649048,0.1762085,2.46875,2.515625,-2.3125
190,1697613565,-0.088378906,-0.9741821,0.16668701,2.921875,4.828125,-0.203125
191,1697613605,-0.06518555,-0.9768677,0.1593628,5.09375,4.984375,-1.859375
192,1697613645,-0.021240234,-0.99591064,0.16546631,-2.65625,5.609375,-0.875
193,1697613685,-0.12695312,-0.95440674,0.19329834,-0.859375,-5.421875,0.140625
194,1697613725,-0.2109375,-0.99591064,0.15057373,-6.21875,-4.0625,4.046875
195,1697613765,-0.22949219,-1.0010376,0.15496826,-2.34375,-1.25,4.671875
196,1697613805,-0.18457031,-1.0396118,0.19232178,-1.078125,2.390625,2.890625
197,1697613845,-0.16479492,-1.0037231,0.19256592,-2.9375,0.984375,2.515625
198,1697613885,-0.16967773,-1.0161743,0.19207764,-1.734375,0.625,0.921875
199,1697613925,-0.122558594,-0.99224854,0.1930542,2.609375,1.625,-3.46875
200,1697613965,-0.10595703,-0.9663696,0.19012451,3.296875,1.75,-1.34375
201,1697614005,-0.06542969,-0.97369385,0.18353271,0.34375,2.046875,-2.0625
202,1697614045,-0.09057617,-0.9783325,0.15374756,-2.515625,2.578125,0.265625
203,1697614085,-0.0625,-0.9788208,0.21209717,-5.96875,6.046875,-0.765625
204,1697614125,-0.14257812,-0.9417114,0.17791748,2.25,-2.6875,3.03125
205,1697614165,-0.16479492,-1.0227661,0.20477295,-0.46875,-2.09375,5.296875
206,1697614205,-0.14770508,-1.0357056,0.20062256,-4.546875,-1.328125,4.796875
207,1697614245,-0.12646484,-0.9944458,0.2098999,-1.5625,1.125,-1.921875
208,1697614285,-0.16821289,-0.9727173,0.19403076,1.34375,-0.1875,0.296875
209,1697614325,-0.15063477,-1.0007935,0.199646,0.0625,1.0625,0.484375
210,1697614365,-0.12011719,-0.9859009,0.1930542,-0.703125,2.25,1.390625
211,1697614405,-0.09008789,-0.9990845,0.184021,0.40625,4.671875,1.65625
212,1697614445,-0.083984375,-0.973938,0.2020874,2.78125,3.703125,4.34375
213,1697614485,-0.049072266,-1.0100708,0.19525146,3.40625,4.96875,0.265625
214,1697614525,-0.07055664,-0.9570923,0.22088623,3.875,0.890625,-1.90625
215,1697614565,-0.12841797,-1.0056763,0.18255615,3.546875,-5.359375,0.34375
216,1697614605,-0.103271484,-0.9793091,0.20135498,-1.4375,-3.765625,-2.203125
217,1697614645,-0.15039062,-0.9793091,0.18206787,-3.28125,-2.46875,-1.359375
218,1697614685,-0.16186523,-0.9680786,0.17572021,-1.28125,-1.046875,-1.40625
219,1697614725,-0.13305664,-1.0169067,0.1864624,4.328125,0.453125,3.046875
220,1697614765,-0.08642578,-1.0396118,0.18499756,-0.90625,-0.078125,1.984375
221,1697614805,-0.10595703,-1.0056763,0.18133545,-0.890625,-1.734375,3.09375
222,1697614845,-0.140625,-1.0100708,0.19647217,-1.296875,-2.734375,2.671875
223,1697614885,-0.13452148,-0.99224854,0.19500732,-2.8125,-3.265625,1.34375
224,1697614925,-0.10424805,-0.99835205,0.20550537,-3.421875,-0.96875,1.25
225,1697614965,-0.107177734,-0.97125244,0.1828003,0.40625,0.515625,1.015625
226,1697615005,-0.08666992,-0.9717407,0.2062378,3.34375,0.4375,1.796875
227,1697615045,-0.075927734,-0.9939575,0.19134521,0.125,0.109375,2.8125
228,1697615085,-0.072021484,-1.0325317,0.17547607,-0.28125,1.984375,1.71875
229,1697615125,-0.07910156,-1.0125122,0.17547607,3.796875,2.640625,0.59375
230,1697615165,-0.09008789,-1.0205688,0.14007568,5.859375,0.296875,-0.875
231,1697615205,-0.09082031,-0.9976196,0.14935303,4.890625,-1.4375,-2.34375
232,1697615245,-0.10595703,-1.0044556,0.13861084,1.53125,0.578125,-3.390625
233,1697615285,-0.087890625,-0.9866333,0.14642334,-0.125,3.890625,-5.046875
234,1697615325,-0.11279297,-0.97979736,0.12786865,2.265625,2.359375,-0.203125
235,1697615365,-0.13232422,-1.0361938,0.17376709,9.484375,1.0625,1.6875
236,1697615405,-0.10180664,-1.0291138,0.215271,-0.046875,9.4375,-5.109375
237,1697615445,0.0073242188,-0.958313,0.13641357,-12.546875,8.6875,-13.765625
238,1697615485,-0.1381836,-0.83795166,0.17034912,-7.546875,-1.90625,-2.25
239,1697615525,-0.20507812,-0.96295166,0.18939209,-4.84375,-1.953125,9.109375
240,1697615565,-0.13867188,-1.0271606,0.2111206,-9.296875,-2.09375,3.09375
241,1697615605,-0.15942383,-1.0376587,0.1984253,-0.28125,1.90625,4.890625
242,1697615645,-0.1274414,-1.0161743,0.22064209,-2.453125,0.03125,2.859375
243,1697615685,-0.13696289,-1.019104,0.22210693,-1.578125,-2.796875,3.390625
244,1697615725,-0.14941406,-1.0315552,0.19866943,1.28125,-2.34375,0.90625
245,1697615765,-0.12988281,-0.97369385,0.20941162,4.375,-0.6875,-3.859375
246,1697615805,-0.10595703,-0.9429321,0.20159912,1.609375,1.453125,-0.640625
247,1697615845,-0.08862305,-0.96832275,0.1720581,-2.796875,0.9375,2.203125
248,1697615885,-0.06665039,-1.0095825,0.18353271,0.0,2.984375,0.84375
249,1697615925,-0.061279297,-1.013977,0.17474365,-0.984375,4.15625,-0.703125
250,1697615965,-0.012939453,-1.0286255,0.1749878,-4.3125,7.8125,-8.0625
251,1697616005,-0.109375,-0.88726807,0.21502686,-8.0625,2.265625,-5.59375
252,1697616045,-0.1875,-0.94317627,0.23529053,-2.96875,-1.953125,6.75
253,1697616085,-0.12768555,-0.9859009,0.25360107,-5.96875,-1.609375,5.40625
254,1697616125,-0.16333008,-0.99542236,0.2584839,-1.484375,2.234375,8.3125
255,1697616165,-0.15771484,-1.0078735,0.2699585,-0.75,5.859375,8.578125
256,1697616205,-0.084472656,-1.0540161,0.21697998,4.796875,2.234375,4.71875
257,1697616245,-0.091796875,-1.0540161,0.24066162,-4.390625,2.96875,-2.046875
258,1697616285,-0.1394043,-0.9439087,0.2086792,-9.140625,-0.578125,-7.078125
259,1697616325,-0.1340332,-0.97003174,0.23944092,1.125,-1.171875,-2.65625
260,1697616365,-0.09057617,-0.9685669,0.23553467,8.703125,0.9375,0.5625
261,1697616405,-0.07763672,-0.9751587,0.24676514,11.421875,1.53125,6.40625
262,1697616445,-0.0390625,-1.0513306,0.1774292,10.59375,-1.640625,6.84375
263,1697616485,-0.021484375,-1.0518188,0.20965576,0.953125,-0.84375,-0.1875
264,1697616525,-0.0041503906,-0.9067993,0.13201904,1.515625,1.078125,-4.703125
265,1697616565,-0.06665039,-0.9439087,0.20135498,0.328125,-1.875,4.453125
266,1697616605,-0.14892578,-1.0801392,0.23919678,-8.15625,-2.125,7.84375
267,1697616645,-0.08178711,-0.9668579,0.23553467,-3.921875,0.171875,-2.9375
268,1697616685,-0.047607422,-0.96466064,0.215271,-9.21875,6.84375,-1.953125
269,1697616725,-0.05029297,-0.97979736,0.17059326,-4.28125,5.53125,0.96875
270,1697616765,-0.017822266,-1.0940552,0.21917725,-4.90625,3.515625,-5.96875
271,1697616805,-0.08520508,-0.8916626,0.27386475,0.359375,-2.0,-6.796875
272,1697616845,-0.1796875,-0.9871216,0.22723389,-3.078125,-2.625,7.1875
273,1697616885,-0.1237793,-0.98687744,0.24261475,-3.84375,0.890625,1.96875
274,1697616925,-0.11230469,-0.9898071,0.2675171,3.390625,4.3125,4.921875
275,1697616965,-0.10522461,-1.0049438,0.2765503,2.015625,-2.703125,4.078125
276,1697617005,-0.09350586,-1.0054321,0.2230835,1.65625,-5.734375,1.9375
277,1697617045,-0.09008789,-1.0232544,0.22869873,2.0,-4.1875,1.15625
278,1697617085,-0.10229492,-1.0071411,0.23968506,-3.03125,-3.09375,-2.28125
279,1697617125,-0.037597656,-0.9783325,0.23040771,-5.296875,3.21875,-1.0
280,1697617165,-0.033447266,-0.97052,0.2218628,-1.390625,4.296875,1.640625
281,1697617205,-0.021484375,-0.9924927,0.22869873,1.890625,6.921875,0.734375
282,1697617245,0.044189453,-1.0474243,0.16497803,2.953125,7.9375,-6.65625
283,1697617285,-0.024414062,-0.8689575,0.23406982,0.828125,0.765625,-6.09375
284,1697617325,-0.13916016,-0.90411377,0.2831421,-0.921875,-2.609375,7.359375
285,1697617365,-0.14404297,-1.006897,0.2682495,-7.84375,-3.359375,6.78125
286,1697617405,-0.11694336,-1.0081177,0.230896,2.0625,2.359375,6.734375
287,1697617445,-0.088134766,-1.0410767,0.32562256,-3.203125,1.5625,2.046875
288,1697617485,-0.07910156,-1.0117798,0.2999878,-4.546875,-7.921875,-4.890625
289,1697617525,-0.09033203,-1.0105591,0.30999756,6.375,3.6875,-11.3125
290,1697617565,-0.103271484,-1.0154419,0.21185303,-0.890625,1.421875,-8.140625
291,1697617605,-0.106933594,-0.93292236,0.19915771,-2.984375,-0.28125,-8.5
292,1697617645,-0.07714844,-0.94195557,0.22235107,2.015625,-0.0625,-0.9375
293,1697617685,-0.080078125,-0.9981079,0.2489624,7.640625,1.6875,7.109375
294,1697617725,-0.068359375,-1.0361938,0.23382568,2.359375,0.78125,8.375
295,1697617765,-0.10864258,-1.0584106,0.22772217,7.71875,1.890625,3.859375
296,1697617805,-0.075683594,-0.9763794,0.17962646,0.046875,2.6875,-2.171875
297,1697617845,-0.027832031,-0.93341064,0.15057373,7.46875,3.28125,-3.640625
298,1697617885,-0.07397461,-0.92315674,0.23187256,14.75,4.1875,4.40625
299,1697617925,-0.12084961,-1.1052856,0.26385498,-0.734375,1.78125,6.390625
300,1697617965,-0.061767578,-0.9949341,0.20037842,-6.96875,3.234375,-8.34375
301,1697618005,-0.05834961,-0.9795532,0.18255615,-2.234375,6.90625,-3.265625
302,1697618045,-0.060302734,-0.9937134,0.21844482,-8.25,8.890625,-4.71875
303,1697618085,-0.16210938,-0.87701416,0.22161865,-0.265625,-4.78125,-1.15625
304,1697618125,-0.17480469,-1.0317993,0.22796631,1.6875,-1.671875,5.203125
305,1697618165,-0.10595703,-1.0305786,0.23699951,-2.890625,-2.03125,0.5
306,1697618205,-0.123535156,-0.9902954,0.22894287,2.671875,-1.765625,3.625
307,1697618245,-0.11376953,-0.98638916,0.24676514,3.578125,-3.390625,1.9375
308,1697618285,-0.09716797,-1.0247192,0.22601318,1.3125,-2.59375,1.984375
309,1697618325,-0.064941406,-0.99957275,0.20184326,-0.40625,4.4375,0.359375
310,1697618365,-0.06958008,-0.9883423,0.22796631,1.4375,6.484375,3.375
311,1697618405,-0.049072266,-0.97052,0.21331787,2.109375,4.09375,-1.875
312,1697618445,-0.08227539,-0.97662354,0.19403076,0.671875,6.046875,-0.953125
313,1697618485,-0.02758789,-0.97613525,0.17034912,-0.734375,9.171875,-0.640625
314,1697618525,0.0041503906,-1.0054321,0.20697021,-6.5625,6.9375,-5.46875
315,1697618565,-0.12548828,-0.89727783,0.18817139,-5.765625,-0.3125,0.328125
316,1697618605,-0.1743164,-0.99102783,0.2333374,-2.40625,-1.453125,4.8125
317,1697618645,-0.07421875,-1.0354614,0.26361084,-2.609375,-0.765625,2.15625
318,1697618685,-0.0925293,-1.0388794,0.24749756,-2.171875,-6.34375,3.5
319,1697618725,-0.091308594,-1.0090942,0.25823975,3.25,-8.078125,-1.578125
320,1697618765,-0.10229492,-1.0195923,0.2555542,5.34375,-1.96875,-0.9375
321,1697618805,-0.10644531,-0.9751587,0.23577881,7.15625,5.28125,-1.5625
322,1697618845,-0.083740234,-0.99664307,0.18890381,0.34375,6.0,-2.75
323,1697618885,-0.07714844,-0.9656372,0.19256592,-2.1875,5.984375,-2.046875
324,1697618925,-0.075683594,-0.96954346,0.21038818,-0.203125,8.765625,2.125
325,1697618965,-0.03466797,-0.99786377,0.17547607,-3.421875,8.171875,0.703125
326,1697619005,-0.0026855469,-0.99346924,0.21478271,-6.59375,2.625,-6.328125
327,1697619045,-0.091796875,-0.89019775,0.23504639,-5.796875,-3.6875,-0.875
328,1697619085,-0.13500977,-0.9890747,0.25653076,1.0625,-8.359375,2.9375
329,1697619125,-0.09375,-1.0315552,0.25164795,2.625,-3.109375,-0.6875
330,1697619165,-0.115478516,-1.0161743,0.26556396,1.359375,-3.484375,-1.640625
331,1697619205,-0.15527344,-0.9390259,0.30096436,-0.4375,-2.71875,-4.515625
332,1697619245,-0.16723633,-0.97442627,0.26116943,3.6875,0.28125,3.015625
333,1697619285,-0.15209961,-1.0198364,0.2111206,2.09375,9.0625,5.09375
334,1697619325,-0.14111328,-1.0410767,0.18377686,-2.984375,6.1875,2.125
335,1697619365,-0.106933594,-0.9968872,0.21307373,-4.421875,-0.53125,2.640625
336,1697619405,-0.06982422,-1.0183716,0.22113037,2.375,3.890625,6.375
337,1697619445,-0.017333984,-1.0078735,0.24139404,1.90625,4.875,0.15625
338,1697619485,-0.05126953,-0.97906494,0.2230835,6.453125,2.484375,-3.234375
339,1697619525,-0.05444336,-0.9505005,0.21722412,6.125,1.46875,-1.046875
340,1697619565,0.0007324219,-0.9439087,0.1906128,4.53125,0.9375,1.984375
341,1697619605,-0.012451172,-0.97076416,0.17694092,6.0,-0.546875,1.15625
342,1697619645,-0.044433594,-1.0203247,0.2243042,5.4375,0.359375,3.6875
343,1697619685,-0.088134766,-1.0183716,0.21746826,-2.015625,-4.1875,0.1875
344,1697619725,-0.079589844,-0.9973755,0.21087646,-3.90625,-1.09375,-4.28125
345,1697619765,-0.06958008,-0.9973755,0.20770264,-6.109375,1.015625,-4.640625
346,1697619805,-0.091552734,-0.9522095,0.20697021,-7.90625,-1.515625,-3.78125
347,1697619845,-0.11401367,-0.96221924,0.22747803,-6.09375,-0.515625,-3.125
348,1697619885,-0.08520508,-0.9824829,0.21258545,-3.953125,-4.265625,-5.03125
349,1697619925,-0.1159668,-0.9553833,0.24456787,0.421875,-2.53125,1.125
350,1697619965,-0.14990234,-1.0088501,0.2543335,-3.625,-2.3125,2.234375
351,1697620005,-0.14160156,-1.0115356,0.23065186,-0.890625,-1.953125,2.375
352,1697620045,-0.13256836,-1.0193481,0.24188232,3.125,1.265625,1.5625
353,1697620085,-0.114746094,-0.9968872,0.24578857,3.578125,-1.453125,0.265625
354,1697620125,-0.13623047,-0.98809814,0.2177124,2.03125,-1.265625,0.84375
355,1697620165,-0.12988281,-0.96343994,0.22503662,2.328125,2.859375,2.484375
356,1697620205,-0.11694336,-0.9998169,0.21038818,-1.59375,3.546875,5.46875
357,1697620245,-0.075683594,-0.99835205,0.22357178,-2.78125,4.234375,1.03125
358,1697620285,-0.05053711,-0.9985962,0.23260498,-2.75,5.34375,-1.546875
359,1697620325,-0.034179688,-0.9678345,0.24261475,1.828125,3.78125,-1.609375
360,1697620365,-0.02758789,-0.95880127,0.20550537,4.75,0.234375,-1.8125
361,1697620405,-0.01953125,-0.987854,0.21234131,3.203125,3.078125,-3.46875
362,1697620445,-0.06958008,-0.92559814,0.22625732,0.765625,-2.203125,-4.0625
363,1697620485,-0.15917969,-1.0176392,0.19915771,-1.421875,-4.90625,5.3125
364,1697620525,-0.099609375,-1.0215454,0.23260498,-0.1875,-3.3125,3.78125
365,1697620565,-0.1274414,-1.0444946,0.24285889,1.453125,-1.84375,2.0625
366,1697620605,-0.15332031,-1.0015259,0.23138428,-2.125,-2.28125,-1.5625
367,1697620645,-0.14941406,-0.9783325,0.2453003,-1.640625,3.359375,1.1875
368,1697620685,-0.11303711,-0.99176025,0.22235107,-6.0,3.296875,0.5
369,1697620725,-0.12084961,-0.9727173,0.2140503,-4.015625,2.5,-0.515625
370,1697620765,-0.099121094,-0.9834595,0.21917725,0.921875,5.4375,2.0
371,1697620805,-0.076171875,-0.99884033,0.24285889,4.953125,6.15625,4.953125
372,1697620845,-0.011474609,-1.03302,0.22991943,9.171875,4.71875,0.5625
373,1697620885,-0.016601562,-1.015686,0.17181396,7.546875,2.390625,-1.171875
374,1697620925,0.011962891,-0.9312134,0.23699951,0.265625,1.15625,-7.140625
375,1697620965,-0.091552734,-1.069397,0.16448975,-12.578125,-1.859375,4.25
376,1697621005,-0.04272461,-1.0349731,0.18865967,-11.265625,-3.140625,-6.765625
377,1697621045,-0.05444336,-0.99786377,0.12445068,-8.390625,-1.25,-6.984375
378,1697621085,-0.052978516,-0.9463501,0.1437378,-7.359375,2.765625,-4.578125
379,1697621125,-0.06982422,-1.0264282,0.1593628,-11.90625,-1.125,-5.03125
380,1697621165,-0.07519531,-0.89508057,0.21575928,-4.609375,-5.203125,-8.40625
381,1697621205,-0.18652344,-0.98565674,0.18499756,-0.890625,-5.265625,6.65625
382,1697621245,-0.15478516,-1.0117798,0.21014404,-0.828125,-5.125,4.6875
383,1697621285,-0.12817383,-1.0501099,0.18841553,5.03125,-1.3125,4.6875
384,1697621325,-0.10888672,-1.0137329,0.21014404,1.59375,-1.203125,1.25
385,1697621365,-0.11816406,-0.9985962,0.19207764,-1.90625,-3.328125,0.953125
386,1697621405,-0.14111328,-1.015686,0.17474365,-0.140625,-1.03125,1.140625
387,1697621445,-0.1015625,-0.99957275,0.16546631,1.734375,3.171875,-2.65625
388,1697621485,-0.056396484,-0.956604,0.17132568,1.515625,5.203125,-0.359375
389,1697621525,-0.044189453,-0.9541626,0.17010498,-0.390625,4.28125,2.71875
390,1697621565,-0.037353516,-1.0147095,0.13641357,4.328125,3.265625,2.4375
391,1697621605,0.037109375,-1.0984497,0.14837646,3.09375,10.375,-2.6875
392,1697621645,-0.032958984,-0.91607666,0.18719482,6.796875,-2.46875,-3.34375
393,1697621685,-0.15527344,-1.0147095,0.1630249,5.65625,-3.1875,6.03125
394,1697621725,-0.072753906,-0.92633057,0.24334717,-1.796875,-1.0,1.109375
395,1697621765,-0.079833984,-1.0178833,0.16668701,0.125,-2.546875,1.578125
396,1697621805,-0.14941406,-0.98760986,0.17156982,-2.828125,0.5,0.390625
397,1697621845,-0.13769531,-0.9920044,0.19036865,-3.265625,1.171875,0.015625
398,1697621885,-0.115722656,-1.0120239,0.18157959,-1.265625,-0.96875,-1.28125
399,1697621925,-0.07519531,-1.0291138,0.17645264,4.421875,2.859375,-3.125
400,1697621965,-0.07714844,-0.99542236,0.14300537,-2.9375,4.34375,0.578125
401,1697622005,-0.075927734,-0.9924927,0.13348389,-2.96875,1.984375,2.78125
402,1697622045,-0.051513672,-0.99835205,0.16668701,5.46875,3.140625,4.296875
403,1697622085,-0.042236328,-0.9944458,0.1852417,7.75,3.328125,2.671875
404,1697622125,-0.052978516,-1.008606,0.1720581,7.9375,1.265625,1.5
405,1697622165,-0.080566406,-1.017395,0.12957764,4.796875,2.96875,1.40625
406,1697622205,-0.04248047,-0.98394775,0.10638428,1.109375,0.328125,-1.8125
407,1697622245,-0.04638672,-0.99591064,0.120788574,1.03125,1.328125,-3.796875
408,1697622285,-0.048339844,-1.000061,0.1083374,1.609375,1.5625,-2.671875
409,1697622325,-0.051513672,-0.99102783,0.11395264,2.21875,1.71875,-0.546875
410,1697622365,-0.057128906,-1.0293579,0.14251709,-1.0625,0.28125,1.78125
411,1697622405,-0.091796875,-1.0064087,0.1515503,-10.40625,0.125,-4.953125
412,1697622445,-0.022216797,-1.0046997,0.13690186,-5.890625,-2.421875,-6.75
413,1697622485,-0.032470703,-0.9807739,0.17840576,-8.375,4.8125,-6.75
414,1697622525,-0.10180664,-0.92315674,0.18328857,-9.8125,-1.78125,-1.9375
415,1697622565,-0.18310547,-0.9927368,0.16082764,-5.375,-2.859375,3.1875
416,1697622605,-0.11694336,-1.0408325,0.17938232,0.796875,-0.65625,-2.484375
417,1697622645,-0.12109375,-1.0198364,0.19256592,-1.53125,-2.765625,0.96875
418,1697622685,-0.16601562,-0.9807739,0.18133545,-5.953125,-6.125,1.015625
419,1697622725,-0.16064453,-1.0005493,0.18035889,7.65625,-4.96875,-0.046875
420,1697622765,-0.1015625,-1.0549927,0.20501709,4.15625,-0.421875,-1.296875
421,1697622805,-0.111328125,-0.9885864,0.19769287,2.25,1.390625,-2.453125
422,1697622845,-0.057373047,-0.9710083,0.1708374,0.0,2.046875,-3.90625
423,1697622885,-0.08227539,-0.97857666,0.14715576,-0.375,3.53125,0.78125
424,1697622925,-0.07763672,-0.98443604,0.16693115,-1.671875,3.75,-0.53125
425,1697622965,-0.091308594,-1.0239868,0.14105225,-4.578125,3.671875,-3.125
426,1697623005,-0.060058594,-0.98516846,0.15838623,-6.65625,3.15625,-10.765625
427,1697623045,-0.13891602,-0.8982544,0.22698975,-4.328125,2.640625,0.65625
428,1697623085,-0.2319336,-0.96759033,0.24798584,-3.3125,-2.4375,13.8125
429,1697623125,-0.15332031,-1.0444946,0.21917725,0.609375,1.953125,8.203125
430,1697623165,-0.16479492,-0.98638916,0.26971436,1.921875,6.5625,5.796875
431,1697623205,-0.1652832,-0.96417236,0.2062378,8.28125,5.46875,8.203125
432,1697623245,-0.09838867,-1.0735474,0.19866943,4.421875,7.0,6.609375
433,1697623285,-0.080078125,-1.0462036,0.1251831,-3.46875,0.453125,-0.109375
434,1697623325,-0.060302734,-1.008606,0.17327881,4.046875,-2.1875,-4.421875
435,1697623365,-0.029785156,-0.9829712,0.17303467,8.921875,0.0625,-5.6875
436,1697623405,-0.013916016,-0.9890747,0.17938232,6.859375,-1.09375,-0.828125
437,1697623445,-0.061523438,-1.0288696,0.12200928,-3.015625,0.953125,0.421875
438,1697623485,-0.025146484,-0.9649048,0.101989746,-0.8125,0.484375,-0.828125
439,1697623525,-0.031982422,-0.9299927,0.12420654,3.53125,3.328125,-1.328125
440,1697623565,-0.091552734,-1.0547485,0.21185303,-1.078125,0.453125,5.578125
441,1697623605,-0.12866211,-1.0239868,0.2164917,-13.328125,-3.671875,-1.140625
442,1697623645,-0.072509766,-0.98516846,0.20672607,-8.59375,-1.671875,-6.671875
443,1697623685,-0.1184082,-0.9685669,0.19378662,-6.1875,3.546875,-3.953125
444,1697623725,-0.111083984,-1.0264282,0.15789795,-4.6875,2.015625,-4.875
445,1697623765,-0.057128906,-0.9585571,0.24139404,-0.09375,0.890625,-9.65625
446,1697623805,-0.114990234,-0.8928833,0.26556396,-0.890625,1.9375,-2.375
447,1697623845,-0.16967773,-0.96759033,0.26141357,-1.375,4.6875,10.1875
448,1697623885,-0.13989258,-0.97979736,0.16107178,3.59375,-0.828125,7.71875
449,1697623925,-0.17871094,-1.0418091,0.14788818,4.65625,5.1875,1.265625
450,1697623965,-0.14819336,-0.9717407,0.17816162,4.28125,4.265625,-4.5
451,1697624005,-0.12597656,-0.9951782,0.17352295,7.484375,4.140625,-1.515625
452,1697624045,-0.12158203,-0.9690552,0.11468506,3.734375,4.203125,0.578125
453,1697624085,-0.08251953,-0.9570923,0.11981201,2.375,10.78125,3.0
454,1697624125,-0.14624023,-0.9902954,0.15594482,-1.375,6.765625,6.125
455,1697624165,-0.171875,-1.053772,0.16375732,-9.734375,5.515625,1.84375
456,1697624205,-0.118652344,-1.0056763,0.16595459,-4.171875,6.890625,-3.40625
457,1697624245,-0.12866211,-0.98809814,0.16888428,-9.390625,4.078125,1.125
458,1697624285,-0.099121094,-0.95562744,0.18133545,-3.53125,4.078125,-2.375
459,1697624325,-0.091308594,-0.98809814,0.20599365,-2.625,-2.53125,-4.140625
460,1697624365,-0.06323242,-1.0342407,0.07879639,-7.359375,-4.5625,-8.671875
461,1697624405,-0.111572266,-0.90704346,0.21356201,0.28125,-2.03125,-9.84375
462,1697624445,-0.25878906,-0.92144775,0.23602295,1.171875,-3.859375,12.015625
463,1697624485,-0.2331543,-1.0413208,0.20404053,-10.078125,-3.296875,10.640625
464,1697624525,-0.18847656,-1.0449829,0.21478271,1.734375,0.875,7.8125
465,1697624565,-0.1706543,-0.99346924,0.24969482,0.609375,2.890625,4.265625
466,1697624605,-0.19213867,-0.9956665,0.21502686,-0.78125,-2.53125,5.046875
467,1697624645,-0.1418457,-1.0317993,0.19525146,-0.59375,-0.296875,-2.4375
468,1697624685,-0.08618164,-0.9768677,0.22039795,-3.25,2.09375,-8.109375
469,1697624725,-0.0769043,-0.96295166,0.2020874,-3.828125,1.640625,-6.703125
470,1697624765,-0.05444336,-0.9871216,0.20428467,-9.265625,7.046875,-6.15625
471,1697624805,-0.012207031,-1.0054321,0.105163574,1.625,6.203125,-8.484375
472,1697624845,-0.08251953,-0.91485596,0.19622803,12.734375,-3.34375,-2.1875
473,1697624885,-0.23486328,-0.94732666,0.22015381,13.578125,2.0625,11.0
474,1697624925,-0.18115234,-1.0650024,0.14593506,-10.984375,-3.421875,8.1875
475,1697624965,-0.1850586,-0.99468994,0.18426514,-4.6875,0.859375,7.484375
476,1697625005,-0.25073242,-0.98321533,0.28216553,4.28125,1.75,8.40625
477,1697625045,-0.048095703,-1.0349731,0.21575928,10.9375,3.46875,3.71875
478,1697625085,-0.038330078,-0.97613525,0.23162842,-0.34375,6.609375,-6.25
479,1697625125,-0.07714844,-0.9229126,0.16229248,-6.0625,-5.375,-6.03125
480,1697625165,-0.1340332,-0.95269775,0.1774292,2.171875,-2.265625,0.703125
481,1697625205,-0.14282227,-0.9800415,0.22943115,-3.8125,-4.78125,0.25
482,1697625245,-0.13989258,-1.0203247,0.20697021,-0.71875,-3.09375,0.640625
483,1697625285,-0.14404297,-0.9990845,0.20941162,1.625,0.21875,-1.34375
484,1697625325,-0.16064453,-1.006897,0.21160889,-0.453125,-4.9375,-0.53125
485,1697625365,-0.171875,-1.0159302,0.19525146,-1.421875,-3.359375,-2.53125
486,1697625405,-0.16748047,-0.99591064,0.19281006,-3.25,0.703125,-6.296875
487,1697625445,-0.1694336,-0.98516846,0.19866943,-4.796875,2.921875,-3.09375
488,1697625485,-0.14038086,-0.9607544,0.18499756,2.625,5.75,0.578125
489,1697625525,-0.08862305,-1.0222778,0.2411499,6.3125,10.828125,0.0625
490,1697625565,-0.11987305,-0.90216064,0.22039795,-1.4375,-0.6875,-2.546875
491,1697625605,-0.20581055,-0.9812622,0.18548584,1.6875,0.390625,3.140625
492,1697625645,-0.13867188,-0.99005127,0.23968506,0.84375,2.0625,-1.046875
493,1697625685,-0.14941406,-0.9985962,0.23651123,-4.640625,0.6875,-0.328125
494,1697625725,-0.1743164,-0.99884033,0.21185303,-2.71875,-2.4375,-2.0
495,1697625765,-0.17211914,-0.9741821,0.23577881,0.765625,-1.078125,-3.125
496,1697625805,-0.17919922,-0.9805298,0.21966553,0.203125,2.53125,-0.65625
497,1697625845,-0.18310547,-0.9939575,0.21136475,-0.671875,3.171875,-0.484375
498,1697625885,-0.16894531,-0.99176025,0.21820068,-2.546875,3.703125,0.890625
499,1697625925,-0.16821289,-0.9871216,0.21380615,-3.046875,4.203125,4.046875
500,1697625965,-0.17529297,-1.0039673,0.20574951,1.984375,2.34375,4.71875
501,1697626005,-0.15917969,-1.020813,0.19744873,5.046875,3.21875,2.0625
502,1697626045,-0.1394043,-0.99176025,0.20184326,8.40625,2.921875,1.453125
503,1697626085,-0.11743164,-0.96954346,0.18890381,7.328125,0.90625,0.890625
504,1697626125,-0.119384766,-0.9883423,0.16741943,7.640625,0.515625,-0.671875
505,1697626165,-0.115234375,-0.9866333,0.16131592,4.34375,1.875,-2.40625
506,1697626205,-0.1081543,-0.97857666,0.15423584,3.328125,0.984375,-1.1875
507,1697626245,-0.10546875,-0.9873657,0.13787842,3.96875,2.734375,-0.0625
508,1697626285,-0.118896484,-1.0098267,0.14935303,2.578125,2.8125,3.3125
509,1697626325,-0.13427734,-1.0200806,0.246521,-9.5,6.546875,1.40625
510,1697626365,-0.10107422,-0.95147705,0.18157959,-13.375,-3.546875,-7.078125
511,1697626405,-0.16552734,-0.9492798,0.18865967,-2.453125,-3.40625,-0.375
512,1697626445,-0.17529297,-0.9741821,0.2177124,-7.25,-2.9375,0.484375
513,1697626485,-0.19677734,-1.0022583,0.19573975,-7.78125,-6.28125,-0.359375
514,1697626525,-0.19921875,-1.0213013,0.2189331,0.46875,-0.078125,-0.5
515,1697626565,-0.16894531,-1.0112915,0.21746826,-0.15625,-3.78125,-0.265625
516,1697626605,-0.18408203,-1.0005493,0.18939209,1.609375,-5.15625,-1.375
517,1697626645,-0.1665039,-1.0042114,0.20159912,4.390625,1.015625,-3.859375
518,1697626685,-0.1538086,-0.9570923,0.19696045,0.609375,2.0625,-1.375
519,1697626725,-0.13867188,-0.96099854,0.20599365,-1.90625,5.25,-0.734375
520,1697626765,-0.15527344,-0.9758911,0.20159912,-2.78125,3.9375,0.625
521,1697626805,-0.15014648,-0.97906494,0.2008667,-4.1875,5.90625,-1.75
522,1697626845,-0.1628418,-0.958313,0.23382568,-0.15625,2.890625,-3.9375
523,1697626885,-0.18920898,-1.0100708,0.23040771,-3.84375,0.34375,3.859375
524,1697626925,-0.18359375,-1.017395,0.215271,-1.078125,0.1875,-0.609375
525,1697626965,-0.19042969,-0.9924927,0.22039795,1.3125,2.0625,-0.953125
526,1697627005,-0.19897461,-0.9434204,0.21697998,-3.453125,1.125,0.515625
527,1697627045,-0.21020508,-0.96881104,0.1984253,0.390625,-1.859375,3.765625
528,1697627085,-0.16821289,-1.0159302,0.20257568,3.734375,-1.75,-0.0625
529,1697627125,-0.14794922,-0.99005127,0.23480225,-1.296875,-0.8125,-4.21875
530,1697627165,-0.1730957,-0.97735596,0.22064209,-0.390625,-1.515625,-2.484375
531,1697627205,-0.16235352,-0.9846802,0.21795654,2.5,3.578125,-2.453125
532,1697627245,-0.12451172,-0.97003174,0.22161865,1.953125,4.046875,-2.109375
533,1697627285,-0.17773438,-0.95147705,0.24383545,-0.5625,3.953125,-0.953125
534,1697627325,-0.19067383,-0.9837036,0.16668701,-5.140625,1.859375,-0.53125
535,1697627365,-0.13183594,-0.9578247,0.29901123,-4.125,5.703125,-6.328125
536,1697627405,-0.26416016,-0.93536377,0.27703857,-2.890625,2.453125,4.53125
537,1697627445,-0.27807617,-1.0125122,0.21600342,-1.171875,-0.59375,8.765625
538,1697627485,-0.19067383,-1.0015259,0.22601318,3.78125,3.015625,1.3125
539,1697627525,-0.22802734,-0.96588135,0.24749756,4.296875,-6.15625,3.25
540,1697627565,-0.20727539,-0.9768677,0.23944092,10.515625,-6.25,1.984375
541,1697627605,-0.16821289,-1.0147095,0.22503662,8.765625,-4.765625,0.65625
542,1697627645,-0.15795898,-0.98760986,0.21136475,3.015625,-0.546875,-3.75
543,1697627685,-0.14575195,-0.9661255,0.18109131,-1.34375,0.046875,-6.546875
544,1697627725,-0.11230469,-0.9380493,0.18157959,3.359375,2.859375,-2.671875
545,1697627765,-0.122558594,-0.9854126,0.18621826,-0.515625,5.859375,0.25
546,1697627805,-0.10668945,-1.0073853,0.19696045,-2.78125,6.921875,1.1875
547,1697627845,-0.17895508,-0.9963989,0.168396,-6.15625,2.890625,-0.421875
548,1697627885,-0.12084961,-0.9546509,0.18157959,-6.3125,6.46875,-6.0
549,1697627925,-0.23388672,-0.90631104,0.2814331,-2.953125,-0.421875,0.671875
550,1697627965,-0.30566406,-1.0039673,0.20672607,-0.953125,-4.234375,10.65625
551,1697628005,-0.22265625,-1.0401001,0.22723389,1.75,-0.421875,2.171875
552,1697628045,-0.20166016,-1.0066528,0.23309326,1.78125,-6.0625,1.71875
553,1697628085,-0.2397461,-0.9714966,0.21624756,0.0625,-6.640625,-4.96875
554,1697628125,-0.21606445,-0.96539307,0.20111084,-1.21875,-0.765625,-5.84375
555,1697628165,-0.21508789,-0.9585571,0.17132568,0.8125,0.296875,-2.578125
556,1697628205,-0.19116211,-0.96417236,0.21478271,2.03125,4.203125,-1.125
557,1697628245,-0.15185547,-0.98272705,0.21356201,1.171875,4.5,3.234375
558,1697628285,-0.16479492,-1.0203247,0.19110107,-1.5,3.5,7.25
559,1697628325,-0.20605469,-1.0117798,0.19720459,3.703125,4.515625,6.203125
560,1697628365,-0.17529297,-1.03302,0.21624756,8.484375,5.84375,5.296875
561,1697628405,-0.15112305,-0.98101807,0.21795654,7.515625,2.46875,1.828125
562,1697628445,-0.17407227,-0.9805298,0.16278076,2.140625,0.71875,-0.875
563,1697628485,-0.14819336,-0.9138794,0.15960693,0.734375,0.296875,-3.5625
564,1697628525,-0.14746094,-0.9495239,0.14398193,0.625,-1.0,-1.984375
565,1697628565,-0.14233398,-0.98150635,0.15423584,0.65625,-0.203125,-1.359375
566,1697628605,-0.15332031,-1.0032349,0.17718506,1.359375,1.984375,1.125
567,1697628645,-0.15698242,-1.0662231,0.17376709,1.3125,-0.625,3.28125
568,1697628685,-0.16186523,-1.0144653,0.17156982,-3.65625,-0.609375,-1.5625
569,1697628725,-0.13476562,-0.9451294,0.21478271,-14.078125,7.0,-5.921875
570,1697628765,-0.08569336,-0.8557739,0.27801514,-13.421875,-4.328125,-7.0
571,1697628805,-0.25732422,-0.9495239,0.19158936,-6.78125,-4.15625,5.859375
572,1697628845,-0.18139648,-0.97076416,0.21722412,-5.3125,-3.875,1.390625
573,1697628885,-0.17993164,-1.0344849,0.2411499,3.234375,-3.703125,-3.40625
574,1697628925,-0.22192383,-0.99786377,0.21697998,1.734375,-4.6875,-1.515625
575,1697628965,-0.24853516,-0.9924927,0.20037842,3.234375,-4.71875,-0.703125
576,1697629005,-0.21166992,-0.9763794,0.19085693,2.71875,-0.4375,-0.53125
577,1697629045,-0.19873047,-0.98760986,0.23284912,1.96875,2.859375,-1.78125
578,1697629085,-0.19458008,-0.9656372,0.19940186,-3.390625,2.796875,1.34375
579,1697629125,-0.17041016,-0.97613525,0.18060303,0.4375,4.6875,4.953125
580,1697629165,-0.16601562,-0.9837036,0.22454834,-0.828125,8.65625,1.625
581,1697629205,-0.14086914,-0.9976196,0.24066162,-4.609375,6.59375,-4.625
582,1697629245,-0.15966797,-0.96173096,0.21844482,-7.75,-2.25,-5.734375
583,1697629285,-0.24633789,-0.9258423,0.20843506,1.1875,-2.15625,1.421875
584,1697629325,-0.20825195,-0.9524536,0.25579834,2.59375,-3.59375,3.015625
585,1697629365,-0.2055664,-1.0073853,0.23187256,5.328125,-6.140625,0.78125
586,1697629405,-0.25170898,-0.97784424,0.21209717,1.515625,-4.15625,0.953125
587,1697629445,-0.23779297,-0.97540283,0.20965576,-0.09375,-0.6875,1.96875
588,1697629485,-0.2121582,-1.0032349,0.21478271,0.515625,1.859375,1.734375
589,1697629525,-0.20141602,-0.99005127,0.230896,2.1875,2.828125,0.09375
590,1697629565,-0.18823242,-0.97784424,0.21551514,0.34375,3.53125,2.359375
591,1697629605,-0.17773438,-0.9573364,0.19769287,-2.234375,2.265625,2.609375
592,1697629645,-0.18945312,-0.9885864,0.18548584,3.25,3.828125,2.40625
593,1697629685,-0.18603516,-0.9866333,0.21307373,7.40625,3.78125,4.140625
594,1697629725,-0.16259766,-1.0061646,0.21575928,8.796875,2.359375,5.03125
595,1697629765,-0.18408203,-1.029602,0.16937256,7.46875,2.796875,2.21875
596,1697629805,-0.16699219,-0.9819946,0.1671753,5.34375,3.0,0.625
597,1697629845,-0.14892578,-0.9795532,0.14251709,3.96875,2.21875,-2.40625
598,1697629885,-0.13354492,-0.9639282,0.14276123,4.890625,2.078125,-3.53125
599,1697629925,-0.125,-0.97442627,0.13323975,2.375,2.625,-2.703125
600,1697629965,-0.1184082,-0.9446411,0.14984131,-1.609375,3.328125,-0.609375
601,1697630005,-0.16601562,-1.0366821,0.16546631,-5.84375,-0.296875,0.65625
602,1697630045,-0.14990234,-0.9817505,0.20770264,-12.21875,-0.296875,-5.734375
603,1697630085,-0.21191406,-0.9644165,0.16571045,-6.0625,-5.0625,-2.515625
604,1697630125,-0.22485352,-0.9932251,0.1942749,-4.671875,-1.765625,2.328125
605,1697630165,-0.24243164,-0.9932251,0.199646,-6.546875,2.578125,3.671875
606,1697630205,-0.23022461,-1.0142212,0.1852417,-4.8125,0.125,3.53125
607,1697630245,-0.21484375,-0.9871216,0.20965576,-0.390625,1.015625,0.9375
608,1697630285,-0.1977539,-0.9890747,0.21258545,-1.453125,-0.078125,0.09375
609,1697630325,-0.1652832,-0.9807739,0.22821045,1.609375,5.234375,-3.8125
610,1697630365,-0.13378906,-0.9224243,0.2098999,0.28125,-0.734375,-3.484375
611,1697630405,-0.22705078,-0.91778564,0.20306396,2.34375,1.28125,3.890625
612,1697630445,-0.20263672,-0.9898071,0.20916748,-9.890625,1.96875,5.1875
613,1697630485,-0.16479492,-1.0134888,0.21038818,-3.734375,-0.015625,3.078125
614,1697630525,-0.1928711,-1.0032349,0.22283936,-2.1875,2.421875,4.640625
615,1697630565,-0.1887207,-0.9834595,0.22625732,-0.78125,-0.640625,5.75
616,1697630605,-0.1665039,-1.0266724,0.20477295,2.015625,-2.265625,6.296875
617,1697630645,-0.17456055,-1.0110474,0.22747803,2.484375,-0.5625,0.375
618,1697630685,-0.14086914,-0.9678345,0.22088623,-0.0625,1.84375,-2.171875
619,1697630725,-0.13354492,-0.94000244,0.22698975,-1.640625,5.078125,1.125
620,1697630765,-0.1027832,-0.9746704,0.21868896,-0.546875,3.15625,0.765625
621,1697630805,-0.11035156,-0.9976196,0.20477295,-0.65625,3.921875,-2.6875
622,1697630845,-0.10498047,-0.9326782,0.22039795,0.3125,2.59375,-6.34375
623,1697630885,-0.16723633,-0.9126587,0.22406006,1.6875,2.25,3.953125
624,1697630925,-0.18237305,-1.0003052,0.2374878,-3.921875,-1.234375,8.796875
625,1697630965,-0.17651367,-1.0369263,0.2255249,0.421875,-1.609375,7.78125
626,1697631005,-0.17016602,-1.0349731,0.24993896,0.0,-1.296875,3.453125
627,1697631045,-0.19091797,-1.0122681,0.22650146,-4.96875,-1.796875,3.0625
628,1697631085,-0.17993164,-0.99346924,0.21551514,-0.234375,3.390625,0.578125
629,1697631125,-0.14770508,-0.96588135,0.21234131,2.265625,6.375,-0.296875
630,1697631165,-0.1303711,-0.9780884,0.22259521,-2.125,5.9375,1.625
631,1697631205,-0.110839844,-0.9624634,0.23114014,-1.75,5.625,1.21875
632,1697631245,-0.046875,-0.96466064,0.2255249,4.09375,7.578125,0.046875
633,1697631285,0.0014648438,-0.9805298,0.21185303,-0.1875,3.546875,-4.15625
634,1697631325,-0.10913086,-0.93048096,0.22503662,-0.4375,0.109375,2.671875
635,1697631365,-0.16308594,-0.9932251,0.22845459,-3.265625,-3.328125,5.453125
636,1697631405,-0.14672852,-1.0288696,0.24090576,0.828125,-1.390625,3.546875
637,1697631445,-0.14941406,-1.0164185,0.24847412,-0.34375,-0.6875,1.640625
638,1697631485,-0.17138672,-0.9976196,0.2616577,-2.90625,-2.0625,-0.296875
639,1697631525,-0.18041992,-0.9512329,0.24945068,5.03125,2.734375,-2.625
640,1697631565,-0.13842773,-0.9788208,0.25286865,8.0625,9.625,-0.5625
641,1697631605,-0.15991211,-0.9834595,0.24945068,-10.296875,-4.15625,-0.546875
642,1697631645,-0.18237305,-1.0151978,0.18133545,-2.21875,-4.078125,-0.875
643,1697631685,-0.1616211,-1.0344849,0.22332764,4.59375,2.0,-1.109375
644,1697631725,-0.13916016,-1.0054321,0.23919678,-0.34375,-2.640625,1.015625
645,1697631765,-0.16015625,-0.9990845,0.23675537,-0.109375,-3.5625,-1.234375
646,1697631805,-0.18603516,-1.0205688,0.20452881,2.265625,-3.0625,-2.125
647,1697631845,-0.1730957,-0.9702759,0.20355225,3.59375,-0.53125,-4.671875
648,1697631885,-0.12841797,-0.9483032,0.20721436,1.40625,2.546875,-1.96875
649,1697631925,-0.13745117,-0.96832275,0.19622803,1.859375,3.609375,2.3125
650,1697631965,-0.12011719,-0.99591064,0.2098999,0.640625,4.0625,0.1875
651,1697632005,-0.13598633,-1.0349731,0.17572021,-3.265625,4.015625,-1.4375
652,1697632045,-0.106933594,-0.99298096,0.20159912,-1.671875,3.421875,-4.65625
653,1697632085,-0.15454102,-0.9048462,0.21502686,-1.53125,-1.0625,-3.78125
654,1697632125,-0.19238281,-0.96661377,0.22454834,-3.765625,-1.578125,4.140625
655,1697632165,-0.20288086,-1.0108032,0.23162842,-2.03125,-1.796875,2.4375
656,1697632205,-0.1928711,-1.0217896,0.24749756,1.703125,0.265625,2.015625
657,1697632245,-0.19702148,-0.99346924,0.22943115,-1.6875,-2.265625,1.109375
658,1697632285,-0.18798828,-1.0125122,0.22381592,1.015625,-1.5625,2.453125
659,1697632325,-0.15893555,-0.9961548,0.22357178,3.1875,2.640625,-1.671875
660,1697632365,-0.14111328,-0.96417236,0.20428467,-0.5625,4.03125,-0.0625
661,1697632405,-0.12890625,-0.9295044,0.21966553,6.890625,5.734375,6.34375
662,1697632445,-0.09082031,-0.98272705,0.20037842,8.828125,7.109375,7.890625
663,1697632485,-0.06298828,-1.0064087,0.19451904,6.265625,2.703125,5.75
664,1697632525,-0.0690918,-0.9915161,0.16595459,3.234375,0.59375,-3.234375
665,1697632565,-0.115722656,-0.9480591,0.20306396,6.515625,-2.875,-3.828125
666,1697632605,-0.15551758,-0.98443604,0.16815186,1.640625,-6.8125,2.828125
667,1697632645,-0.14526367,-0.9956665,0.19451904,1.21875,-5.421875,0.6875
668,1697632685,-0.15673828,-1.0276489,0.16082764,2.6875,-3.734375,-1.203125
669,1697632725,-0.17944336,-0.99224854,0.1708374,-3.03125,-1.703125,0.4375
670,1697632765,-0.18310547,-1.0137329,0.15985107,-3.625,-0.046875,2.78125
671,1697632805,-0.16699219,-1.0134888,0.16546631,-0.828125,3.25,1.375
672,1697632845,-0.13354492,-1.0007935,0.17718506,-1.390625,6.21875,1.8125
673,1697632885,-0.09033203,-0.954895,0.17816162,-1.09375,7.1875,1.625
674,1697632925,-0.05859375,-0.9837036,0.17694092,4.703125,5.65625,3.53125
675,1697632965,-0.04345703,-0.9898071,0.1798706,3.109375,1.1875,-0.984375
676,1697633005,-0.0690918,-0.9883423,0.14666748,-4.671875,-1.125,-6.65625
677,1697633045,-0.14575195,-0.9331665,0.18133545,-1.421875,-0.296875,-6.796875
678,1697633085,-0.1730957,-0.99298096,0.16766357,-3.25,-0.90625,3.59375
679,1697633125,-0.16259766,-1.0337524,0.18377686,-3.390625,-1.53125,1.328125
680,1697633165,-0.16308594,-1.0042114,0.2033081,0.875,-0.9375,-1.96875
681,1697633205,-0.17675781,-1.008606,0.22088623,-3.140625,-3.0,0.359375
682,1697633245,-0.19116211,-1.0098267,0.2008667,-5.25,-1.328125,1.46875
683,1697633285,-0.1706543,-0.99713135,0.20257568,0.1875,6.484375,-1.046875
684,1697633325,-0.140625,-0.9937134,0.20306396,-0.390625,10.203125,1.1875
685,1697633365,-0.13916016,-0.9751587,0.18060303,-1.75,9.125,3.15625
686,1697633405,-0.12670898,-0.99053955,0.18597412,2.203125,6.875,3.890625
687,1697633445,-0.08105469,-1.0249634,0.16522217,5.734375,4.703125,1.671875
688,1697633485,-0.0847168,-1.0147095,0.20111084,4.09375,4.328125,-2.796875
689,1697633525,-0.11645508,-0.95977783,0.1749878,-3.875,0.890625,-1.75
690,1697633565,-0.10449219,-0.9534302,0.15960693,-0.328125,-0.65625,-0.328125
691,1697633605,-0.075927734,-0.9758911,0.17352295,3.71875,1.421875,0.125
692,1697633645,-0.07104492,-0.99298096,0.17156982,1.8125,-0.59375,-1.53125
693,1697633685,-0.09106445,-0.97857666,0.16595459,3.015625,-1.53125,-1.6875
694,1697633725,-0.13867188,-1.0466919,0.19696045,-1.890625,-3.28125,0.4375
695,1697633765,-0.12011719,-0.96710205,0.20819092,-9.140625,-0.34375,-7.703125
696,1697633805,-0.12207031,-0.9495239,0.20526123,-3.53125,-3.828125,-5.109375
697,1697633845,-0.16357422,-1.0083618,0.168396,-3.390625,1.03125,-1.5
698,1697633885,-0.12524414,-0.9343872,0.22528076,-10.5,-3.453125,-8.40625
699,1697633925,-0.19262695,-0.97076416,0.2062378,-4.765625,-4.203125,-0.8125
700,1697633965,-0.23486328,-1.0247192,0.21990967,-3.40625,-4.78125,-0.515625
701,1697634005,-0.19433594,-0.9990845,0.2267456,0.171875,-2.25,0.296875
702,1697634045,-0.21655273,-1.0215454,0.23284912,2.171875,0.171875,0.15625
703,1697634085,-0.21728516,-0.99591064,0.24578857,-1.34375,0.1875,1.6875
704,1697634125,-0.20678711,-0.97662354,0.22259521,0.65625,1.0,1.453125
705,1697634165,-0.18432617,-0.9661255,0.21990967,2.5,2.34375,-0.3125
706,1697634205,-0.14331055,-0.96466064,0.21942139,0.671875,3.359375,-0.578125
707,1697634245,-0.15454102,-0.97735596,0.2177124,1.09375,3.484375,1.84375
708,1697634285,-0.118652344,-0.9793091,0.22088623,1.421875,5.46875,1.09375
709,1697634325,-0.109375,-0.9812622,0.21868896,2.390625,0.8125,0.328125
710,1697634365,-0.13745117,-0.99224854,0.18011475,-2.53125,3.46875,-4.265625
711,1697634405,-0.1328125,-0.9307251,0.23260498,-0.203125,0.171875,-4.859375
712,1697634445,-0.19750977,-0.9636841,0.22381592,-3.8125,-2.296875,5.4375
713,1697634485,-0.22070312,-1.000061,0.21600342,-3.828125,-2.84375,3.828125
714,1697634525,-0.2084961,-1.0230103,0.23944092,-0.015625,0.359375,4.0
715,1697634565,-0.19946289,-1.0171509,0.23040771,-0.421875,-0.1875,2.765625
716,1697634605,-0.19262695,-1.0081177,0.22918701,0.390625,0.65625,2.9375
717,1697634645,-0.16772461,-0.9937134,0.22283936,1.046875,2.15625,0.609375
718,1697634685,-0.1459961,-0.98394775,0.21380615,-4.8125,2.578125,0.546875
719,1697634725,-0.16552734,-0.96759033,0.21307373,-6.0625,5.578125,1.21875
720,1697634765,-0.1303711,-0.9570923,0.24383545,-2.34375,10.78125,2.25
721,1697634805,-0.036132812,-0.91192627,0.28411865,-0.71875,9.859375,1.15625
722,1697634845,-0.0546875,-0.95318604,0.24822998,-1.203125,4.171875,2.171875
723,1697634885,-0.0871582,-0.9614868,0.2662964,0.359375,-0.015625,-2.578125
724,1697634925,-0.1652832,-0.9758911,0.25457764,0.625,-5.625,2.09375
725,1697634965,-0.1784668,-1.015686,0.2579956,-1.078125,-5.484375,1.46875
726,1697635005,-0.20483398,-1.0283813,0.25750732,2.546875,-1.09375,1.34375
727,1697635045,-0.20092773,-1.0149536,0.2538452,-1.171875,-0.984375,0.40625
728,1697635085,-0.18408203,-0.9902954,0.24285889,-1.578125,1.5625,-0.1875
729,1697635125,-0.1550293,-0.97076416,0.24578857,1.640625,5.3125,0.9375
730,1697635165,-0.13110352,-0.9649048,0.2411499,1.359375,5.40625,2.8125
731,1697635205,-0.091552734,-0.9846802,0.23260498,5.890625,6.109375,4.71875
732,1697635245,-0.053710938,-0.97540283,0.24554443,7.421875,5.3125,4.46875
733,1697635285,-0.08642578,-0.9795532,0.22943115,1.171875,1.515625,0.1875
734,1697635325,-0.060546875,-0.9927368,0.2321167,-1.75,0.234375,-5.34375
735,1697635365,-0.10571289,-0.94732666,0.21868896,-1.28125,-2.609375,0.71875
736,1697635405,-0.16723633,-1.0056763,0.23553467,-1.90625,-4.21875,1.53125
737,1697635445,-0.13793945,-0.9927368,0.2423706,1.578125,-1.59375,-2.5
738,1697635485,-0.15429688,-1.0003052,0.24139404,-1.453125,-2.96875,-3.0
739,1697635525,-0.19140625,-0.991272,0.26190186,-4.5625,-3.546875,-2.46875
740,1697635565,-0.16894531,-0.99346924,0.23480225,1.1875,-0.140625,-0.203125
741,1697635605,-0.15527344,-0.9944458,0.23675537,3.6875,7.296875,0.921875
742,1697635645,-0.14501953,-0.9819946,0.20916748,1.3125,8.8125,3.234375
743,1697635685,-0.13696289,-0.98394775,0.22357178,1.609375,3.953125,4.0
744,1697635725,-0.118896484,-0.99298096,0.24334717,10.5625,4.125,2.796875
745,1697635765,-0.16625977,-0.96051025,0.25091553,4.296875,3.96875,-2.609375
746,1697635805,-0.13696289,-0.95147705,0.23016357,-1.609375,2.765625,0.78125
747,1697635845,-0.092041016,-0.96954346,0.260437,-3.015625,7.96875,-1.109375
748,1697635885,-0.08081055,-0.9480591,0.23358154,-1.03125,3.359375,-3.875
749,1697635925,-0.16259766,-0.9692993,0.24871826,-2.140625,2.21875,1.0
750,1697635965,-0.13330078,-0.98101807,0.23626709,-5.703125,0.328125,-1.703125
751,1697636005,-0.1784668,-0.99591064,0.23699951,-5.25,1.71875,1.28125
752,1697636045,-0.21728516,-0.9973755,0.25115967,-5.859375,0.171875,2.75
753,1697636085,-0.18115234,-0.99468994,0.2514038,-1.671875,-2.9375,1.96875
754,1697636125,-0.18847656,-0.9824829,0.24188232,2.125,-1.578125,-1.171875
755,1697636165,-0.1796875,-0.98321533,0.25946045,6.203125,1.828125,-3.125
756,1697636205,-0.13720703,-0.9534302,0.28167725,10.984375,8.140625,-2.1875
757,1697636245,-0.1159668,-0.96099854,0.24554443,2.40625,5.703125,1.609375
758,1697636285,-0.15844727,-0.9727173,0.24920654,-4.34375,3.71875,3.265625
759,1697636325,-0.16357422,-0.9522095,0.23626709,-1.9375,-2.765625,1.328125
