,timestamp,accel_x,accel_y,accel_z,gyro_x,gyro_y,gyro_z
0,1695740731329,-0.22924805,-0.94610596,0.20794678,2.046875,-1.09375,2.171875
1,1695740731373,-0.21411133,-0.95440674,0.20062256,0.15625,-1.4375,2.125
2,1695740731403,-0.19140625,-0.94000244,0.19281006,-0.453125,-0.84375,1.296875
3,1695740731448,-0.18261719,-0.9180298,0.19451904,-0.4375,-1.375,0.140625
4,1695740731494,-0.19189453,-0.9331665,0.21307373,1.15625,-4.921875,-0.40625
5,1695740731524,-0.21289062,-0.9663696,0.20501709,-0.625,-4.921875,-1.375
6,1695740731568,-0.2006836,-0.93463135,0.20721436,-1.40625,-2.359375,-1.171875
7,1695740731613,-0.22705078,-0.9456177,0.26239014,3.015625,-2.609375,-0.15625
8,1695740731644,-0.22094727,-0.95684814,0.20965576,0.4375,-2.171875,-0.421875
9,1695740731689,-0.24511719,-0.9697876,0.18890381,0.390625,-4.65625,1.421875
10,1695740731718,-0.20825195,-0.9348755,0.17816162,-3.984375,-2.859375,0.34375
11,1695740731763,-0.23217773,-0.9351196,0.21038818,-1.0,-3.234375,1.390625
12,1695740731809,-0.22363281,-0.9507446,0.21185303,-2.1875,-3.328125,1.71875
13,1695740731839,-0.1977539,-0.927063,0.2296753,-1.890625,-3.890625,0.828125
14,1695740731883,-0.20751953,-0.9273071,0.22869873,-0.78125,-3.46875,-0.25
15,1695740731928,-0.20947266,-0.93585205,0.21209717,-0.515625,-2.921875,-0.828125
16,1695740731959,-0.21386719,-0.9260864,0.22894287,-0.71875,-2.0625,-1.25
17,1695740732003,-0.22827148,-0.93536377,0.2177124,0.875,-2.578125,-1.03125
18,1695740732065,-0.2290039,-0.95196533,0.20770264,1.28125,-2.296875,-0.53125
19,1695740732079,-0.23583984,-0.94976807,0.21453857,0.109375,-2.90625,0.40625
20,1695740732123,-0.24267578,-0.94488525,0.20599365,-1.328125,-3.765625,1.328125
21,1695740732169,-0.25610352,-0.93341064,0.2255249,-1.8125,-2.59375,1.84375
22,1695740732198,-0.23120117,-0.9312134,0.23187256,-1.296875,-1.90625,1.625
23,1695740732243,-0.1850586,-0.93878174,0.2477417,0.90625,-1.3125,0.75
24,1695740732289,-0.21777344,-0.9390259,0.2296753,1.296875,-1.328125,-0.21875
25,1695740732318,-0.22558594,-0.93707275,0.21575928,1.109375,-0.21875,-0.640625
26,1695740732364,-0.24389648,-0.92926025,0.21990967,0.328125,-0.953125,-0.75
27,1695740732409,-0.2541504,-0.96466064,0.16448975,-1.40625,-2.90625,0.6875
28,1695740732439,-0.23242188,-0.93463135,0.26385498,0.234375,-2.6875,0.265625
29,1695740732484,-0.23046875,-0.92437744,0.18157959,-5.21875,1.78125,0.078125
30,1695740732514,-0.234375,-0.8994751,0.24798584,-1.015625,0.296875,-0.03125
31,1695740732559,-0.22070312,-0.96221924,0.2682495,2.25,0.0625,-0.109375
32,1695740732619,-0.20043945,-0.9331665,0.21478271,-1.484375,2.71875,-1.0625
33,1695740732634,-0.23022461,-0.9273071,0.23504639,1.25,0.765625,-0.890625
34,1695740732679,-0.22460938,-0.9546509,0.22772217,0.09375,0.484375,-1.59375
35,1695740732739,-0.23876953,-0.9480591,0.22747803,-0.71875,0.53125,-0.953125
36,1695740732754,-0.23413086,-0.93292236,0.23236084,-0.703125,0.359375,-0.09375
37,1695740732814,-0.24731445,-0.9282837,0.24310303,0.609375,-1.078125,0.578125
38,1695740732844,-0.23730469,-0.9273071,0.22259521,-1.390625,-0.375,0.28125
39,1695740732874,-0.21850586,-0.9212036,0.23236084,-1.03125,-0.1875,0.390625
40,1695740732919,-0.22949219,-0.9534302,0.25482178,0.3125,-2.546875,0.40625
41,1695740732964,-0.24072266,-0.93096924,0.24383545,-1.203125,-1.25,0.484375
42,1695740732994,-0.22875977,-0.9265747,0.23919678,-1.015625,-0.09375,0.234375
43,1695740733039,-0.22851562,-0.913147,0.24603271,-1.265625,-2.25,-0.015625
44,1695740733084,-0.2265625,-0.9336548,0.26385498,0.421875,-0.75,-0.125
45,1695740733129,-0.22851562,-0.93096924,0.24139404,0.484375,-1.65625,-0.359375
46,1695740733160,-0.22924805,-0.9273071,0.2489624,0.15625,-2.65625,-0.34375
47,1695740733191,-0.25073242,-0.942688,0.2501831,-0.21875,-1.546875,-0.296875
48,1695740733249,-0.24853516,-0.9343872,0.24603271,-0.578125,-0.296875,0.328125
49,1695740733279,-0.24707031,-0.91851807,0.2748413,1.125,-1.046875,1.0625
50,1695740733311,-0.21899414,-0.9175415,0.24432373,-0.296875,-0.84375,0.3125
51,1695740733354,-0.24511719,-0.9529419,0.23724365,0.421875,-1.890625,0.71875
52,1695740733399,-0.20703125,-0.928772,0.22747803,-2.234375,-1.984375,0.09375
53,1695740733430,-0.23583984,-0.9302368,0.27923584,0.90625,-2.109375,-0.984375
54,1695740733474,-0.24291992,-0.9343872,0.25872803,-0.078125,-0.53125,-0.328125
55,1695740733521,-0.22924805,-0.9187622,0.26312256,0.078125,-0.09375,-0.4375
56,1695740733551,-0.25854492,-0.93170166,0.27166748,0.65625,-0.734375,-0.46875
57,1695740733609,-0.2421875,-0.92144775,0.24798584,-0.625,0.3125,-0.234375
58,1695740733654,-0.2487793,-0.9241333,0.24188232,-0.953125,-0.1875,-0.140625
59,1695740733672,-0.24169922,-0.9221802,0.2531128,0.59375,0.015625,0.375
60,1695740733729,-0.24414062,-0.9326782,0.24676514,0.40625,-0.984375,0.0
61,1695740733759,-0.24072266,-0.925354,0.24847412,0.765625,-0.515625,0.0
62,1695740733809,-0.24291992,-0.92803955,0.2506714,0.890625,0.3125,0.046875
63,1695740733836,-0.25268555,-0.9307251,0.2506714,0.8125,-0.078125,-0.078125
64,1695740733880,-0.25,-0.9229126,0.2531128,1.3125,-0.015625,0.125
65,1695740733911,-0.25219727,-0.9351196,0.25653076,1.6875,0.609375,0.703125
66,1695740733955,-0.25341797,-0.92852783,0.25457764,1.734375,0.609375,0.65625
67,1695740733984,-0.28759766,-0.94073486,0.25115967,0.9375,2.546875,0.859375
68,1695740734031,-0.26904297,-0.90875244,0.24285889,-0.140625,3.84375,0.203125
69,1695740734074,-0.23706055,-0.89971924,0.2526245,1.578125,5.984375,-1.390625
70,1695740734104,-0.22827148,-0.9348755,0.26116943,3.09375,6.4375,-2.703125
71,1695740734164,-0.24584961,-0.93634033,0.25360107,2.15625,7.140625,-2.765625
72,1695740734194,-0.23583984,-0.9290161,0.24432373,2.078125,7.84375,-3.203125
73,1695740734224,-0.24609375,-0.94073486,0.21820068,2.359375,6.265625,-1.984375
74,1695740734272,-0.23364258,-0.9234009,0.2850952,3.96875,4.390625,-1.78125
75,1695740734313,-0.2290039,-0.9541626,0.20501709,0.53125,5.4375,-1.015625
76,1695740734343,-0.2084961,-0.9258423,0.24066162,0.65625,2.75,-1.1875
77,1695740734390,-0.24560547,-0.93707275,0.2682495,3.421875,1.3125,-0.75
78,1695740734434,-0.2265625,-0.9356079,0.24603271,1.3125,1.5625,-0.671875
79,1695740734464,-0.2175293,-0.925354,0.23602295,1.21875,-0.28125,-0.84375
80,1695740734511,-0.2290039,-0.93829346,0.26190186,0.9375,-1.765625,-0.734375
81,1695740734554,-0.24121094,-0.9314575,0.24700928,-0.453125,-2.375,-0.296875
82,1695740734586,-0.2446289,-0.9258423,0.23846436,-0.75,-3.40625,0.046875
83,1695740734635,-0.23706055,-0.92022705,0.2423706,0.609375,-4.78125,0.5625
84,1695740734659,-0.2578125,-0.93292236,0.2399292,-0.046875,-5.5625,0.875
85,1695740734704,-0.25878906,-0.9307251,0.24993896,-0.390625,-5.328125,0.75
86,1695740734750,-0.25390625,-0.9331665,0.2399292,0.28125,-5.65625,1.5625
87,1695740734794,-0.26464844,-0.93536377,0.24383545,-0.734375,-5.375,1.21875
88,1695740734827,-0.25024414,-0.92559814,0.24481201,-1.25,-4.265625,0.546875
89,1695740734871,-0.26757812,-0.93463135,0.25115967,-1.0625,-4.984375,1.34375
90,1695740734899,-0.26733398,-0.9224243,0.24383545,-1.265625,-3.078125,1.15625
91,1695740734944,-0.25683594,-0.923645,0.24261475,-1.15625,-2.765625,1.265625
92,1695740734990,-0.26342773,-0.92755127,0.23773193,-1.421875,-3.1875,0.765625
93,1695740735019,-0.25708008,-0.9158325,0.25164795,-1.171875,-2.6875,1.265625
94,1695740735064,-0.26513672,-0.92633057,0.24163818,-0.09375,-2.140625,1.21875
95,1695740735110,-0.26416016,-0.9187622,0.2645874,-0.640625,-1.453125,0.84375
96,1695740735139,-0.27246094,-0.9187622,0.25457764,0.0,-0.8125,1.046875
97,1695740735184,-0.2548828,-0.9192505,0.25994873,0.3125,-0.328125,0.84375
98,1695740735230,-0.25170898,-0.91656494,0.24090576,-1.171875,0.578125,0.46875
99,1695740735259,-0.26586914,-0.9246216,0.26727295,1.390625,0.34375,0.5625
100,1695740735304,-0.23901367,-0.913147,0.23138428,-2.140625,1.625,-0.765625
101,1695740735349,-0.27246094,-0.9126587,0.276062,0.796875,-0.296875,-0.921875
102,1695740735379,-0.25952148,-0.9331665,0.27020264,0.53125,1.375,-0.5
103,1695740735424,-0.25927734,-0.91290283,0.27337646,0.921875,2.6875,-1.21875
104,1695740735454,-0.25927734,-0.9146118,0.260437,1.484375,2.0,-1.125
105,1695740735500,-0.26098633,-0.9402466,0.2538452,1.0,4.359375,-0.890625
106,1695740735544,-0.24975586,-0.9234009,0.24383545,0.84375,4.625,-0.359375
107,1695740735574,-0.24633789,-0.923645,0.25775146,2.125,3.3125,-0.359375
108,1695740735635,-0.24902344,-0.93878174,0.2501831,1.5625,3.03125,-0.40625
109,1695740735679,-0.24414062,-0.91363525,0.25238037,0.3125,2.46875,-0.5625
110,1695740735694,-0.24194336,-0.93292236,0.25482178,0.296875,1.546875,-0.171875
111,1695740735739,-0.25073242,-0.9180298,0.26605225,0.4375,0.59375,0.125
112,1695740735784,-0.25585938,-0.92852783,0.27264404,1.5625,-0.296875,0.609375
113,1695740735830,-0.2409668,-0.925354,0.2670288,1.859375,-1.34375,0.484375
114,1695740735859,-0.24658203,-0.9155884,0.27166748,0.875,-0.859375,0.578125
115,1695740735904,-0.25024414,-0.9273071,0.246521,1.734375,-1.34375,-0.375
116,1695740735934,-0.24487305,-0.9234009,0.24407959,2.375,-0.5625,-1.265625
117,1695740735979,-0.22851562,-0.9265747,0.2531128,4.125,-0.46875,-1.609375
118,1695740736024,-0.2409668,-0.93756104,0.23602295,3.0,0.1875,-2.09375
119,1695740736100,-0.27246094,-0.95928955,0.23187256,1.546875,-0.421875,-0.171875
120,1695740736103,-0.2607422,-0.9299927,0.20916748,-2.78125,1.984375,0.125
121,1695740736159,-0.25024414,-0.9116821,0.2218628,-2.53125,-1.0625,0.65625
122,1695740736174,-0.26245117,-0.93341064,0.22064209,-2.5,-1.859375,1.59375
123,1695740736236,-0.24804688,-0.90460205,0.3168335,0.984375,-2.078125,1.75
124,1695740736249,-0.27124023,-0.92803955,0.24554443,-0.359375,0.015625,1.5625
125,1695740736294,-0.23706055,-0.9158325,0.26800537,0.828125,-1.640625,0.234375
126,1695740736339,-0.25390625,-0.9314575,0.25775146,2.203125,-1.796875,-0.25
127,1695740736369,-0.2446289,-0.9224243,0.22528076,0.359375,-1.21875,-0.078125
128,1695740736414,-0.25463867,-0.9356079,0.23504639,0.890625,-2.59375,-0.09375
129,1695740736459,-0.26635742,-0.9282837,0.26727295,1.015625,-2.140625,0.703125
130,1695740736489,-0.26098633,-0.9314575,0.24969482,0.21875,-1.0625,0.484375
131,1695740736551,-0.2590332,-0.9229126,0.24334717,-0.84375,-1.03125,-0.078125
132,1695740736579,-0.2619629,-0.92071533,0.24505615,0.140625,-1.40625,-0.109375
133,1695740736609,-0.25854492,-0.9273071,0.2423706,-0.46875,-0.875,-0.15625
134,1695740736654,-0.25268555,-0.9199829,0.2518921,0.390625,-1.015625,-0.1875
135,1695740736700,-0.25317383,-0.91973877,0.25823975,1.109375,-1.0,-0.265625
136,1695740736729,-0.26416016,-0.9299927,0.26483154,1.859375,-0.609375,-0.453125
137,1695740736774,-0.27319336,-0.9212036,0.2518921,2.65625,0.375,0.1875
138,1695740736835,-0.29125977,-0.9163208,0.25750732,3.90625,0.796875,-0.359375
139,1695740736849,-0.31762695,-0.91363525,0.2675171,3.390625,4.34375,-0.859375
140,1695740736894,-0.41186523,-0.93096924,0.30291748,5.59375,8.671875,-1.84375
141,1695740736924,-0.38989258,-0.94537354,0.2526245,4.484375,21.265625,-3.46875
142,1695740736969,-0.32983398,-0.8916626,0.19696045,4.0,30.828125,-3.71875
143,1695740737014,-0.32885742,-0.8689575,0.16815186,6.546875,37.609375,-3.046875
144,1695740737044,-0.2644043,-0.87213135,0.17108154,10.296875,38.65625,-4.828125
145,1695740737089,-0.22875977,-0.9365845,0.17034912,10.46875,36.890625,-7.78125
146,1695740737134,-0.14282227,-0.95562744,0.2321167,12.09375,32.9375,-8.21875
147,1695740737179,-0.15307617,-0.991272,0.18695068,8.5,28.515625,-7.6875
148,1695740737224,-0.16967773,-0.9319458,0.23309326,7.234375,22.515625,-9.296875
149,1695740737271,-0.22192383,-0.95977783,0.25872803,7.84375,20.921875,-8.09375
150,1695740737284,-0.20654297,-0.94488525,0.23919678,5.5,19.40625,-5.8125
151,1695740737360,-0.19018555,-0.93292236,0.22625732,3.390625,15.625,-6.4375
152,1695740737374,-0.19506836,-0.9607544,0.22723389,3.875,7.875,-3.890625
153,1695740737404,-0.19702148,-0.9678345,0.21795654,1.34375,3.0,-2.796875
154,1695740737465,-0.19604492,-0.9451294,0.20770264,-1.171875,-2.6875,-0.859375
155,1695740737510,-0.2121582,-0.9216919,0.20672607,-0.71875,-8.6875,0.9375
156,1695740737524,-0.23242188,-0.94366455,0.20428467,-0.421875,-13.0625,2.8125
157,1695740737569,-0.22998047,-0.95196533,0.2255249,-1.375,-15.90625,4.296875
158,1695740737616,-0.26123047,-0.93951416,0.2255249,-3.53125,-18.28125,4.84375
159,1695740737644,-0.25170898,-0.93707275,0.21502686,-3.390625,-19.78125,5.890625
160,1695740737689,-0.26464844,-0.9536743,0.2267456,-4.28125,-20.28125,6.078125
161,1695740737719,-0.27612305,-0.9624634,0.20648193,-6.578125,-20.71875,8.671875
162,1695740737764,-0.2697754,-0.93170166,0.22357178,-6.8125,-21.640625,8.640625
163,1695740737824,-0.34936523,-0.927063,0.21697998,-9.375,-21.15625,11.53125
164,1695740737839,-0.2446289,-0.8882446,0.22918701,-10.6875,-19.4375,8.84375
165,1695740737884,-0.1899414,-0.90338135,0.26507568,-8.3125,-19.921875,4.875
166,1695740737929,-0.16552734,-0.91973877,0.25701904,-7.546875,-22.078125,1.5625
167,1695740737959,-0.23339844,-0.93048096,0.22357178,-6.640625,-21.640625,-0.0625
168,1695740738019,-0.26831055,-0.92266846,0.25408936,-3.640625,-20.640625,1.3125
169,1695740738049,-0.32177734,-0.9368286,0.20404053,-8.234375,-18.265625,1.09375
170,1695740738079,-0.3623047,-0.9319458,0.27166748,-7.53125,-17.59375,3.09375
171,1695740738124,-0.32885742,-0.92755127,0.29144287,-8.015625,-11.890625,6.515625
172,1695740738184,-0.22998047,-0.86920166,0.23602295,-10.09375,-10.375,6.328125
173,1695740738199,-0.23706055,-0.9168091,0.30633545,-4.0,-12.390625,4.671875
174,1695740738244,-0.27075195,-0.9397583,0.3222046,-4.09375,-10.015625,3.28125
175,1695740738289,-0.25854492,-0.8916626,0.29119873,-3.046875,-6.5625,2.703125
176,1695740738319,-0.2553711,-0.8945923,0.2741089,-0.265625,-7.765625,3.0625
177,1695740738364,-0.27392578,-0.92437744,0.2765503,0.296875,-6.53125,3.109375
178,1695740738409,-0.2734375,-0.90631104,0.28826904,1.3125,-4.359375,3.234375
179,1695740738454,-0.2692871,-0.91607666,0.27703857,0.65625,-5.4375,3.5625
180,1695740738484,-0.26831055,-0.92803955,0.28045654,0.90625,-4.375,4.34375
181,1695740738516,-0.2685547,-0.9146118,0.2897339,0.015625,-3.359375,4.625
182,1695740738559,-0.22631836,-0.9158325,0.2975464,0.75,-3.3125,3.171875
183,1695740738604,-0.21166992,-0.89678955,0.29144287,1.46875,-3.140625,0.484375
184,1695740738635,-0.22924805,-0.9378052,0.3012085,3.53125,-3.484375,-1.578125
185,1695740738694,-0.23095703,-0.91778564,0.29022217,2.734375,-1.46875,-1.46875
186,1695740738739,-0.2541504,-0.9343872,0.26531982,3.109375,-1.390625,-1.84375
187,1695740738755,-0.2626953,-0.91607666,0.26239014,2.015625,-0.78125,-1.375
188,1695740738799,-0.24169922,-0.9373169,0.24627686,1.1875,0.703125,-0.03125
189,1695740738844,-0.26782227,-0.93756104,0.24627686,-0.046875,2.6875,1.828125
190,1695740738874,-0.23388672,-0.91973877,0.24066162,-0.96875,2.171875,1.828125
191,1695740738918,-0.25976562,-0.92315674,0.2880249,0.578125,2.5625,2.25
192,1695740738963,-0.21411133,-0.9314575,0.28582764,0.78125,3.046875,0.9375
193,1695740738995,-0.2006836,-0.925354,0.27435303,1.15625,2.140625,-0.171875
194,1695740739038,-0.20532227,-0.9312134,0.26849365,0.625,-0.109375,-1.453125
195,1695740739083,-0.2421875,-0.9282837,0.26361084,0.5,0.484375,-1.328125
196,1695740739115,-0.22924805,-0.9224243,0.24578857,-0.515625,-0.25,-0.921875
197,1695740739159,-0.24243164,-0.92388916,0.2645874,0.515625,-0.234375,0.21875
198,1695740739203,-0.24194336,-0.9299927,0.26556396,-0.25,-0.75,0.21875
199,1695740739235,-0.2355957,-0.9180298,0.28167725,0.328125,-0.53125,0.34375
200,1695740739294,-0.23657227,-0.9260864,0.26287842,0.671875,-0.546875,0.0
201,1695740739323,-0.21557617,-0.9151001,0.25579834,0.84375,0.328125,-0.015625
202,1695740739369,-0.23779297,-0.9273071,0.26678467,2.140625,-0.34375,0.515625
203,1695740739399,-0.24780273,-0.92633057,0.26727295,1.40625,-1.015625,0.3125
204,1695740739475,-0.23999023,-0.93585205,0.27825928,1.5,-1.46875,0.796875
205,1695740739477,-0.24023438,-0.9234009,0.2609253,1.328125,-1.875,0.515625
206,1695740739519,-0.23339844,-0.927063,0.26068115,1.578125,-0.578125,0.921875
207,1695740739563,-0.23486328,-0.9319458,0.24969482,2.1875,-1.796875,1.1875
208,1695740739595,-0.2319336,-0.9209595,0.260437,2.484375,-1.28125,1.265625
209,1695740739653,-0.21704102,-0.93707275,0.23895264,3.046875,-1.375,1.4375
210,1695740739668,-0.24389648,-0.9612427,0.2518921,2.296875,9.09375,1.0625
211,1695740739715,-0.18286133,-0.9627075,0.246521,-3.625,17.578125,1.546875
212,1695740739773,-0.26342773,-0.93951416,0.2946167,-7.609375,13.75,0.96875
213,1695740739788,-0.23291016,-0.92022705,0.30340576,-7.359375,8.265625,0.140625
214,1695740739835,-0.22583008,-0.9338989,0.3204956,-3.40625,1.9375,-1.5
215,1695740739879,-0.21826172,-0.925354,0.33148193,-2.828125,1.875,-0.671875
216,1695740739923,-0.21289062,-0.90460205,0.3156128,-1.625,0.890625,0.171875
217,1695740739954,-0.21826172,-0.89678955,0.29437256,-0.46875,-1.859375,0.203125
218,1695740739984,-0.21533203,-0.90631104,0.2904663,0.3125,-3.765625,0.140625
219,1695740740028,-0.21850586,-0.9216919,0.29803467,4.96875,-3.0625,1.15625
220,1695740740075,-0.20458984,-0.90093994,0.2987671,6.4375,-2.515625,2.578125
221,1695740740104,-0.20092773,-0.9014282,0.2741089,10.828125,3.8125,3.484375
222,1695740740149,-0.21704102,-0.892395,0.21600342,9.265625,1.03125,3.421875
223,1695740740225,-0.21533203,-0.86676025,0.19866943,-0.4375,-21.171875,2.390625
224,1695740740228,-0.18945312,-0.9241333,0.26507568,-7.4375,-22.1875,-5.078125
225,1695740740269,-0.13989258,-0.9404907,0.27069092,-7.765625,-5.546875,-6.578125
226,1695740740330,-0.24511719,-0.98931885,0.30511475,-0.03125,1.59375,-2.609375
227,1695740740359,-0.2800293,-0.9458618,0.2929077,-0.515625,-0.75,-0.984375
228,1695740740389,-0.25268555,-0.913147,0.2741089,-0.234375,-2.453125,-0.84375
229,1695740740435,-0.24145508,-0.91192627,0.24578857,0.046875,-1.59375,1.375
230,1695740740464,-0.25390625,-0.91607666,0.307312,1.140625,-1.0625,1.140625
231,1695740740509,-0.23828125,-0.9546509,0.24969482,-1.21875,-2.046875,0.71875
232,1695740740555,-0.22973633,-0.9187622,0.276062,-0.8125,0.328125,0.734375
233,1695740740584,-0.2319336,-0.9314575,0.2819214,-0.546875,-0.875,0.828125
234,1695740740629,-0.22753906,-0.91192627,0.27459717,-1.6875,-2.328125,0.46875
235,1695740740688,-0.22363281,-0.92315674,0.28240967,-1.421875,-2.40625,0.40625
236,1695740740703,-0.22802734,-0.90411377,0.28216553,-1.65625,-4.109375,0.453125
237,1695740740749,-0.22949219,-0.9282837,0.276062,-1.578125,-2.328125,0.359375
238,1695740740795,-0.23168945,-0.9199829,0.28875732,-0.109375,-3.3125,1.03125
239,1695740740839,-0.23217773,-0.91729736,0.28875732,-0.03125,-2.59375,1.125
240,1695740740868,-0.23388672,-0.9143677,0.30706787,2.1875,-3.84375,2.203125
241,1695740740899,-0.23120117,-0.92681885,0.26800537,1.28125,-3.984375,1.625
242,1695740740945,-0.24902344,-0.93170166,0.29022217,1.625,-4.171875,1.578125
243,1695740740989,-0.24169922,-0.9163208,0.27874756,1.109375,-3.921875,1.734375
244,1695740741019,-0.2446289,-0.92266846,0.27996826,1.515625,-2.65625,1.765625
245,1695740741064,-0.24609375,-0.9229126,0.2826538,1.484375,-1.515625,1.53125
246,1695740741109,-0.22924805,-0.92681885,0.29119873,1.40625,-0.625,1.734375
247,1695740741139,-0.22705078,-0.9221802,0.26849365,0.484375,2.21875,0.546875
248,1695740741201,-0.24829102,-0.92926025,0.30413818,3.03125,-0.078125,1.234375
249,1695740741229,-0.22802734,-0.927063,0.25946045,0.328125,0.453125,0.015625
250,1695740741260,-0.23925781,-0.93634033,0.27020264,2.5625,1.859375,0.578125
251,1695740741304,-0.22998047,-0.90704346,0.26190186,1.078125,2.828125,-0.1875
252,1695740741349,-0.2421875,-0.92388916,0.2748413,2.375,2.65625,-0.921875
253,1695740741379,-0.24487305,-0.9373169,0.27679443,1.9375,1.796875,-0.828125
254,1695740741424,-0.22607422,-0.9209595,0.25408936,1.0,3.046875,-1.28125
255,1695740741469,-0.21240234,-0.9248657,0.2506714,1.671875,1.515625,-0.375
256,1695740741499,-0.22583008,-0.95440674,0.26776123,1.828125,0.3125,-0.375
257,1695740741561,-0.22485352,-0.9221802,0.25775146,-0.890625,-0.796875,-0.21875
258,1695740741575,-0.21313477,-0.92852783,0.2723999,0.25,-0.78125,-0.59375
259,1695740741636,-0.2199707,-0.9326782,0.26312256,-0.03125,-1.578125,-0.96875
260,1695740741680,-0.24609375,-0.93634033,0.2826538,0.75,-1.46875,-0.84375
261,1695740741694,-0.2331543,-0.9221802,0.25872803,-1.5,-0.703125,-1.375
262,1695740741739,-0.22192383,-0.93048096,0.26361084,-1.5,-3.09375,-1.09375
263,1695740741784,-0.24731445,-0.9194946,0.26263428,-1.953125,-4.140625,-0.859375
264,1695740741814,-0.24609375,-0.9234009,0.26385498,-2.125,-3.65625,-0.5625
265,1695740741859,-0.23779297,-0.9104614,0.2658081,-3.359375,-4.984375,-1.328125
266,1695740741904,-0.26171875,-0.925354,0.30438232,-0.21875,-3.5,-0.109375
267,1695740741934,-0.26611328,-0.9360962,0.2850952,-1.1875,-2.25,0.21875
268,1695740741979,-0.2607422,-0.9072876,0.27093506,-1.640625,-0.046875,0.0625
269,1695740742024,-0.2548828,-0.90997314,0.28338623,-0.25,-0.625,0.203125
270,1695740742054,-0.26123047,-0.9187622,0.2662964,-0.5625,0.078125,0.09375
271,1695740742099,-0.2548828,-0.9048462,0.3036499,0.953125,2.921875,-1.234375
272,1695740742160,-0.25732422,-0.9055786,0.260437,0.078125,4.796875,-1.21875
273,1695740742175,-0.2619629,-0.92071533,0.26654053,0.125,3.359375,-2.15625
274,1695740742219,-0.2705078,-0.91973877,0.3163452,1.578125,5.671875,-1.234375
275,1695740742249,-0.24780273,-0.9060669,0.28118896,1.40625,6.9375,-0.84375
276,1695740742294,-0.23754883,-0.93463135,0.28240967,2.3125,5.578125,-0.546875
277,1695740742339,-0.22875977,-0.9175415,0.28656006,1.734375,3.859375,-0.5
278,1695740742369,-0.23144531,-0.90948486,0.28582764,1.0625,3.515625,-0.421875
279,1695740742414,-0.21826172,-0.9209595,0.2741089,0.21875,1.453125,-0.265625
280,1695740742477,-0.2277832,-0.92755127,0.27679443,1.3125,-0.625,-0.28125
281,1695740742489,-0.24072266,-0.91900635,0.29852295,1.78125,-1.28125,0.171875
282,1695740742534,-0.23486328,-0.92803955,0.28778076,1.109375,-2.0,0.234375
283,1695740742579,-0.23510742,-0.9151001,0.2814331,0.46875,-3.265625,0.421875
284,1695740742609,-0.24389648,-0.92144775,0.2958374,1.546875,-3.9375,0.609375
285,1695740742654,-0.25073242,-0.925354,0.28997803,0.9375,-5.0625,1.375
286,1695740742714,-0.24731445,-0.9307251,0.27996826,2.859375,-4.84375,1.46875
287,1695740742744,-0.2536621,-0.92193604,0.27288818,1.6875,-4.234375,1.71875
288,1695740742789,-0.24389648,-0.91656494,0.26434326,1.078125,-4.234375,1.359375
289,1695740742835,-0.2512207,-0.9282837,0.25286865,-0.046875,-4.1875,1.1875
290,1695740742849,-0.24975586,-0.9314575,0.26263428,-1.0625,-4.40625,0.921875
291,1695740742893,-0.2487793,-0.9155884,0.2711792,-2.03125,-3.921875,0.859375
292,1695740742969,-0.24316406,-0.92510986,0.28167725,-1.078125,-4.390625,1.453125
293,1695740742972,-0.26049805,-0.92388916,0.27313232,-0.96875,-3.75,1.125
294,1695740743013,-0.26098633,-0.91607666,0.28045654,-1.171875,-2.578125,1.265625
295,1695740743044,-0.24560547,-0.9187622,0.25726318,-1.25,-2.8125,1.328125
296,1695740743089,-0.2529297,-0.9126587,0.24749756,-0.71875,-3.359375,1.5
297,1695740743134,-0.24365234,-0.9019165,0.29779053,1.609375,-3.09375,1.40625
298,1695740743165,-0.26513672,-0.93218994,0.2736206,-1.25,-0.09375,1.203125
299,1695740743209,-0.24511719,-0.9170532,0.28411865,-1.234375,-3.125,0.796875
300,1695740743254,-0.26098633,-0.90997314,0.31243896,4.28125,-0.34375,1.921875
301,1695740743284,-0.23608398,-0.94122314,0.26019287,5.34375,2.5625,3.3125
302,1695740743329,-0.22216797,-0.9180298,0.25604248,2.515625,1.328125,1.3125
303,1695740743374,-0.25219727,-0.9368286,0.2802124,0.65625,-0.25,0.3125
304,1695740743404,-0.24609375,-0.9221802,0.26263428,-1.5,0.765625,-0.25
305,1695740743449,-0.24194336,-0.92974854,0.2831421,-2.640625,0.3125,-1.25
306,1695740743494,-0.23022461,-0.89727783,0.27581787,3.0625,-2.234375,-0.875
307,1695740743524,-0.24389648,-0.9338989,0.28338623,3.828125,-1.40625,-0.5625
308,1695740743569,-0.2529297,-0.9295044,0.28656006,4.671875,-0.90625,-0.59375
309,1695740743614,-0.27929688,-0.9446411,0.27508545,5.015625,-0.625,-0.03125
310,1695740743644,-0.24560547,-0.9258423,0.26385498,3.703125,1.0625,-0.515625
311,1695740743689,-0.25219727,-0.93756104,0.25091553,4.0,-0.25,-0.359375
312,1695740743765,-0.24121094,-0.9109497,0.22723389,1.859375,1.671875,0.171875
313,1695740743767,-0.23046875,-0.92022705,0.20892334,2.421875,2.09375,0.28125
314,1695740743809,-0.21655273,-0.91851807,0.20599365,2.5625,3.171875,0.65625
315,1695740743841,-0.22949219,-0.93292236,0.22845459,2.359375,1.71875,0.40625
316,1695740743884,-0.22192383,-0.92144775,0.21868896,1.125,2.078125,0.203125
317,1695740743944,-0.20874023,-0.9187622,0.22747803,1.765625,0.828125,-0.609375
318,1695740743960,-0.23339844,-0.925354,0.2506714,2.234375,-0.140625,-0.640625
319,1695740744007,-0.23242188,-0.9365845,0.23675537,3.09375,-0.984375,-1.546875
320,1695740744064,-0.2578125,-0.9390259,0.2531128,3.65625,-0.296875,-1.203125
321,1695740744081,-0.2668457,-0.9492798,0.22894287,2.8125,-0.703125,-0.0625
322,1695740744126,-0.27197266,-0.9338989,0.2074585,1.1875,-0.828125,-0.390625
323,1695740744184,-0.24658203,-0.92681885,0.2489624,3.546875,-0.546875,0.578125
324,1695740744214,-0.24731445,-0.9446411,0.18865967,0.375,0.5,0.046875
325,1695740744244,-0.22363281,-0.9248657,0.2033081,-0.203125,-0.21875,-0.09375
326,1695740744289,-0.23925781,-0.9365845,0.2345581,2.015625,0.921875,0.421875
327,1695740744335,-0.24072266,-0.9378052,0.21820068,0.140625,0.53125,0.390625
328,1695740744364,-0.234375,-0.93951416,0.21966553,-0.484375,-0.25,-0.84375
329,1695740744409,-0.24609375,-0.92315674,0.22747803,-1.1875,-0.546875,-0.96875
330,1695740744445,-0.26245117,-0.9356079,0.23040771,0.125,-1.640625,0.015625
331,1695740744484,-0.24414062,-0.93585205,0.23577881,0.53125,-0.5625,0.875
332,1695740744529,-0.26342773,-0.9324341,0.22381592,1.015625,-1.125,1.09375
333,1695740744561,-0.26342773,-0.93463135,0.23944092,1.4375,-0.953125,2.46875
334,1695740744604,-0.24853516,-0.9302368,0.2243042,0.765625,-0.359375,2.140625
335,1695740744634,-0.23999023,-0.9365845,0.21673584,0.984375,-1.4375,1.46875
336,1695740744681,-0.22265625,-0.93341064,0.21380615,1.0625,-2.140625,0.984375
337,1695740744739,-0.23754883,-0.93634033,0.2164917,1.21875,-2.359375,0.546875
338,1695740744801,-0.21606445,-0.93414307,0.20159912,-0.09375,-1.015625,-0.078125
339,1695740744804,-0.22314453,-0.9273071,0.20916748,-1.125,-2.59375,-1.453125
340,1695740744845,-0.24829102,-0.94073486,0.22454834,-0.453125,-4.15625,-1.34375
341,1695740744874,-0.2475586,-0.93218994,0.22503662,-0.3125,-3.265625,-0.71875
342,1695740744921,-0.25585938,-0.9234009,0.22918701,1.765625,-1.96875,0.046875
343,1695740744964,-0.26171875,-0.95635986,0.23260498,2.703125,-2.34375,1.125
344,1695740744994,-0.2529297,-0.93536377,0.21966553,1.265625,-1.390625,0.703125
345,1695740745040,-0.24951172,-0.9295044,0.2062378,0.921875,-1.109375,0.171875
346,1695740745099,-0.2553711,-0.9451294,0.21014404,1.328125,-0.921875,0.75
347,1695740745114,-0.23486328,-0.923645,0.2243042,0.25,-1.109375,-0.53125
348,1695740745160,-0.2614746,-0.9607544,0.20794678,-0.125,-0.046875,0.15625
349,1695740745205,-0.22436523,-0.91607666,0.19354248,-1.125,-0.625,-0.4375
350,1695740745234,-0.2746582,-0.93218994,0.23846436,1.171875,-0.796875,-0.21875
351,1695740745281,-0.26171875,-0.93756104,0.22869873,0.8125,0.375,0.875
352,1695740745324,-0.24951172,-0.92974854,0.21160889,0.984375,0.703125,1.203125
353,1695740745354,-0.24267578,-0.93829346,0.2062378,1.1875,-0.578125,1.09375
354,1695740745400,-0.2446289,-0.9483032,0.21063232,0.46875,-0.296875,0.921875
355,1695740745429,-0.23168945,-0.93414307,0.20916748,0.3125,-0.4375,1.078125
356,1695740745474,-0.22705078,-0.93536377,0.2020874,-0.59375,-0.546875,-0.1875
357,1695740745521,-0.24804688,-0.93756104,0.21697998,0.15625,-1.296875,0.140625
358,1695740745549,-0.2421875,-0.9378052,0.20477295,0.0,-1.28125,0.140625
359,1695740745594,-0.25048828,-0.9380493,0.2008667,1.0,-1.09375,0.53125
360,1695740745641,-0.2397461,-0.9312134,0.19989014,0.40625,-0.484375,0.28125
361,1695740745669,-0.2565918,-0.9421997,0.22772217,1.140625,-1.4375,0.984375
362,1695740745714,-0.23999023,-0.93463135,0.21209717,0.359375,-1.375,0.828125
363,1695740745761,-0.24584961,-0.9390259,0.20452881,0.625,-0.375,1.046875
364,1695740745789,-0.2512207,-0.9343872,0.21209717,-0.359375,-0.78125,1.546875
365,1695740745849,-0.234375,-0.927063,0.2098999,-0.390625,0.09375,1.140625
366,1695740745881,-0.22485352,-0.9248657,0.21185303,1.75,-1.671875,0.9375
367,1695740745924,-0.24951172,-0.9553833,0.22161865,3.1875,-2.734375,0.625
368,1695740745969,-0.24145508,-0.9331665,0.21868896,2.453125,-1.28125,-0.0625
369,1695740746045,-0.26000977,-0.93634033,0.21551514,3.328125,-1.65625,-0.140625
370,1695740746048,-0.23364258,-0.9307251,0.19793701,2.4375,-1.3125,-0.0625
371,1695740746074,-0.26416016,-0.9663696,0.18328857,1.515625,-0.828125,0.5625
372,1695740746104,-0.2331543,-0.93170166,0.15789795,-2.53125,1.875,0.28125
373,1695740746149,-0.24951172,-0.9480591,0.199646,-2.03125,1.15625,-0.578125
374,1695740746194,-0.22290039,-0.927063,0.21038818,-1.3125,0.890625,-0.4375
375,1695740746224,-0.20410156,-0.91729736,0.20770264,-0.78125,0.296875,-1.15625
376,1695740746269,-0.22705078,-0.94000244,0.21624756,1.265625,-1.578125,-1.46875
377,1695740746313,-0.26171875,-0.93878174,0.21038818,1.875,-1.203125,-0.453125
378,1695740746343,-0.2512207,-0.9336548,0.2033081,2.65625,-1.15625,0.1875
379,1695740746403,-0.24145508,-0.9302368,0.18890381,2.203125,-1.640625,-0.03125
380,1695740746433,-0.24975586,-0.9331665,0.19378662,3.078125,-2.03125,0.46875
381,1695740746463,-0.24145508,-0.93829346,0.18426514,2.078125,-1.78125,0.875
382,1695740746508,-0.23779297,-0.9365845,0.18963623,2.890625,-1.53125,1.34375
383,1695740746553,-0.25585938,-0.9495239,0.1864624,2.78125,-0.484375,1.078125
384,1695740746583,-0.25073242,-0.95513916,0.19036865,1.359375,1.265625,1.046875
385,1695740746628,-0.26391602,-0.9651489,0.1605835,-1.421875,10.078125,0.21875
386,1695740746688,-0.21655273,-0.9421997,0.18060303,-5.671875,15.765625,0.625
387,1695740746704,-0.24829102,-0.9644165,0.20794678,-7.828125,13.21875,0.34375
388,1695740746748,-0.22338867,-0.9246216,0.2333374,-8.78125,10.6875,1.375
389,1695740746793,-0.2265625,-0.94415283,0.27435303,-4.5625,7.578125,1.484375
390,1695740746824,-0.25268555,-0.95684814,0.29974365,-2.765625,4.953125,1.0
391,1695740746869,-0.24804688,-0.93536377,0.2958374,-0.5625,4.578125,1.28125
392,1695740746898,-0.20922852,-0.9295044,0.2506714,-1.40625,1.96875,1.1875
393,1695740746944,-0.23242188,-0.93756104,0.24969482,1.046875,2.484375,1.421875
394,1695740746989,-0.1940918,-0.9104614,0.22479248,0.578125,4.125,0.34375
395,1695740747020,-0.2199707,-0.9480591,0.2597046,3.171875,2.625,1.171875
396,1695740747088,-0.20825195,-0.925354,0.23431396,0.375,2.234375,0.296875
397,1695740747109,-0.20288086,-0.90948486,0.24090576,1.875,1.328125,0.21875
398,1695740747153,-0.20532227,-0.9273071,0.23699951,2.921875,-0.3125,0.125
399,1695740747183,-0.19165039,-0.9290161,0.25457764,3.828125,2.453125,0.671875
400,1695740747228,-0.19091797,-0.93414307,0.23724365,6.75,4.1875,1.609375
401,1695740747258,-0.18530273,-0.88409424,0.19451904,5.34375,0.46875,0.8125
402,1695740747303,-0.18310547,-0.87042236,0.17889404,3.75,-24.53125,0.125
403,1695740747348,-0.18920898,-0.99420166,0.23065186,-3.296875,-22.0,-6.15625
404,1695740747378,-0.1940918,-0.95098877,0.21746826,-6.671875,-8.390625,-6.34375
405,1695740747423,-0.26635742,-0.98931885,0.24334717,0.65625,-2.125,-2.390625
406,1695740747468,-0.31201172,-0.97613525,0.22503662,0.59375,-1.84375,0.859375
407,1695740747513,-0.28759766,-0.925354,0.21966553,0.234375,0.28125,1.734375
408,1695740747544,-0.22436523,-0.9248657,0.21624756,-1.140625,-0.3125,1.796875
409,1695740747605,-0.21020508,-0.9229126,0.21868896,-1.53125,-3.34375,1.109375
410,1695740747634,-0.22314453,-0.94244385,0.2543335,-0.375,-3.40625,0.75
411,1695740747664,-0.22509766,-0.9522095,0.19158936,0.359375,-2.609375,1.1875
412,1695740747694,-0.23413086,-0.9221802,0.26800537,2.4375,-3.703125,1.125
413,1695740747739,-0.23583984,-0.94854736,0.22406006,0.28125,-3.703125,0.609375
414,1695740747800,-0.21972656,-0.9216919,0.21624756,-0.359375,-2.46875,-0.078125
415,1695740747813,-0.25073242,-0.9536743,0.22723389,1.9375,-3.34375,0.8125
416,1695740747859,-0.24243164,-0.9373169,0.23480225,0.078125,-2.875,0.59375
417,1695740747904,-0.23706055,-0.9265747,0.23944092,0.234375,-2.4375,0.828125
418,1695740747935,-0.22949219,-0.9246216,0.22039795,0.5625,-0.9375,0.09375
419,1695740747979,-0.24047852,-0.92633057,0.23431396,0.765625,-2.015625,-0.015625
420,1695740748024,-0.23950195,-0.9421997,0.20184326,-1.609375,-3.59375,-0.5
421,1695740748054,-0.234375,-0.9192505,0.21502686,-2.609375,-4.78125,-1.6875
422,1695740748099,-0.24365234,-0.93951416,0.22943115,1.875,-4.65625,-0.796875
423,1695740748144,-0.24853516,-0.9475708,0.22698975,1.375,-3.484375,-0.359375
424,1695740748174,-0.2524414,-0.9299927,0.22796631,0.296875,-1.828125,-0.28125
425,1695740748219,-0.25073242,-0.93585205,0.22698975,1.1875,-1.515625,-0.3125
426,1695740748264,-0.23999023,-0.93756104,0.23236084,1.203125,-1.0625,0.3125
427,1695740748293,-0.24584961,-0.93634033,0.230896,1.875,-1.359375,0.671875
428,1695740748339,-0.25463867,-0.94903564,0.22698975,1.0,-2.96875,0.15625
429,1695740748369,-0.22998047,-0.91900635,0.20037842,1.5625,-2.953125,0.0
430,1695740748415,-0.2529297,-0.9380493,0.17694092,1.8125,-2.953125,0.5
431,1695740748459,-0.23388672,-0.92388916,0.23626709,2.84375,-2.75,0.234375
432,1695740748504,-0.2602539,-0.9446411,0.18499756,0.71875,-1.625,0.796875
433,1695740748534,-0.25634766,-0.93927,0.20184326,0.875,-1.046875,0.90625
434,1695740748579,-0.25878906,-0.9365845,0.22015381,2.203125,-0.890625,0.609375
435,1695740748609,-0.24194336,-0.92852783,0.20428467,1.078125,-0.78125,0.3125
436,1695740748654,-0.2331543,-0.93634033,0.19696045,2.53125,-0.25,-0.34375
437,1695740748714,-0.23828125,-0.94073486,0.20965576,1.671875,-0.171875,-1.765625
438,1695740748729,-0.25610352,-0.9456177,0.19500732,1.515625,-0.953125,-0.859375
439,1695740748774,-0.25024414,-0.93756104,0.19134521,-0.265625,0.015625,-0.8125
440,1695740748819,-0.26538086,-0.9385376,0.19915771,0.46875,-0.21875,-0.078125
441,1695740748880,-0.26708984,-0.95147705,0.18792725,-0.046875,-0.078125,0.78125
442,1695740748894,-0.2524414,-0.9290161,0.19940186,-0.15625,0.140625,0.625
443,1695740748939,-0.24316406,-0.9351196,0.2008667,-0.15625,0.0,0.625
444,1695740748969,-0.24145508,-0.9402466,0.20501709,-0.859375,-0.875,-0.203125
445,1695740749014,-0.24169922,-0.92388916,0.20062256,-0.265625,-0.328125,0.1875
446,1695740749059,-0.24267578,-0.9378052,0.1984253,0.234375,-1.484375,-0.46875
447,1695740749090,-0.25512695,-0.9290161,0.20184326,-0.015625,-1.0625,-0.5625
448,1695740749134,-0.25830078,-0.9439087,0.20379639,-0.390625,-0.765625,-0.359375
449,1695740749165,-0.26098633,-0.9365845,0.20574951,-0.546875,-1.078125,-0.21875
450,1695740749209,-0.2614746,-0.9429321,0.17840576,-1.953125,-1.484375,0.125
451,1695740749254,-0.25585938,-0.9273071,0.24554443,1.078125,-1.515625,0.046875
452,1695740749286,-0.2607422,-0.94317627,0.17791748,-1.890625,0.515625,-0.171875
453,1695740749329,-0.24121094,-0.91070557,0.20306396,-0.25,-1.296875,-0.40625
454,1695740749373,-0.28442383,-0.9536743,0.23236084,0.671875,-0.15625,-0.03125
455,1695740749404,-0.27172852,-0.9209595,0.21356201,-1.0625,1.0625,0.84375
456,1695740749449,-0.2680664,-0.928772,0.20794678,0.484375,0.734375,1.125
457,1695740749494,-0.26635742,-0.9456177,0.22015381,-0.109375,2.125,1.109375
458,1695740749525,-0.25878906,-0.9182739,0.21502686,-0.59375,2.46875,1.453125
459,1695740749569,-0.26000977,-0.93756104,0.22821045,0.3125,0.8125,1.546875
460,1695740749614,-0.25439453,-0.9307251,0.21551514,-0.59375,2.25,0.984375
461,1695740749645,-0.2512207,-0.9402466,0.2296753,0.375,1.015625,0.84375
462,1695740749692,-0.24829102,-0.9446411,0.22625732,-0.734375,0.53125,0.765625
463,1695740749749,-0.22192383,-0.90338135,0.22039795,0.484375,0.28125,0.703125
464,1695740749768,-0.2446289,-0.95269775,0.22381592,1.28125,-0.765625,-0.375
465,1695740749809,-0.22363281,-0.9356079,0.21966553,0.046875,-0.359375,-0.890625
466,1695740749854,-0.24853516,-0.9360962,0.21453857,1.015625,-0.40625,-1.03125
467,1695740749887,-0.2578125,-0.95147705,0.21600342,0.796875,-0.53125,-0.4375
468,1695740749929,-0.296875,-0.9529419,0.2086792,-1.140625,1.125,0.96875
469,1695740749973,-0.27734375,-0.94244385,0.21746826,-1.703125,2.453125,3.03125
470,1695740750019,-0.38061523,-0.94976807,0.20916748,-5.171875,3.421875,5.28125
471,1695740750049,-0.16894531,-0.892395,0.23187256,-8.546875,7.625,4.890625
472,1695740750079,-0.11791992,-0.923645,0.27581787,-0.78125,2.078125,2.8125
473,1695740750126,-0.16235352,-0.9439087,0.30926514,3.28125,0.484375,0.796875
474,1695740750184,-0.16577148,-0.9404907,0.23065186,-0.296875,1.578125,0.328125
475,1695740750199,-0.21484375,-0.8977661,0.23114014,1.65625,-1.328125,-1.453125
476,1695740750259,-0.25634766,-0.940979,0.246521,3.203125,-1.28125,-1.578125
477,1695740750304,-0.23828125,-0.94415283,0.22698975,0.640625,-0.140625,-0.796875
478,1695740750319,-0.2409668,-0.9314575,0.24481201,0.75,-0.78125,0.65625
479,1695740750365,-0.2421875,-0.9421997,0.25775146,0.265625,-0.46875,0.484375
480,1695740750409,-0.22216797,-0.9314575,0.24627686,-0.46875,0.03125,1.359375
481,1695740750439,-0.20410156,-0.9192505,0.24139404,0.1875,-1.0,0.734375
482,1695740750485,-0.21386719,-0.9295044,0.24700928,0.6875,-2.6875,0.53125
483,1695740750529,-0.22485352,-0.9397583,0.2411499,0.40625,-3.234375,0.359375
484,1695740750559,-0.22460938,-0.9273071,0.24041748,0.40625,-3.875,0.328125
485,1695740750606,-0.23828125,-0.928772,0.24676514,1.03125,-4.5,0.078125
486,1695740750637,-0.2319336,-0.9365845,0.24334717,1.65625,-3.53125,0.625
487,1695740750679,-0.22973633,-0.93341064,0.23504639,1.609375,-3.8125,0.53125
488,1695740750726,-0.23828125,-0.9312134,0.23577881,1.1875,-3.234375,0.40625
489,1695740750754,-0.23291016,-0.9258423,0.22528076,1.375,-3.390625,0.609375
490,1695740750799,-0.23217773,-0.94000244,0.22772217,1.96875,-2.921875,0.390625
491,1695740750846,-0.23999023,-0.9351196,0.23431396,1.53125,-2.25,0.25
492,1695740750889,-0.23608398,-0.93634033,0.2296753,1.609375,-2.0625,0.359375
493,1695740750919,-0.2355957,-0.9373169,0.22601318,2.15625,-1.8125,0.28125
494,1695740750966,-0.23120117,-0.93170166,0.2164917,1.3125,-0.625,-0.046875
495,1695740750994,-0.23925781,-0.9429321,0.22113037,1.6875,-0.9375,0.25
496,1695740751039,-0.23217773,-0.94659424,0.22283936,1.6875,-0.1875,0.453125
497,1695740751085,-0.2290039,-0.9155884,0.2399292,1.703125,-0.65625,-0.15625
498,1695740751115,-0.24316406,-0.9668579,0.199646,0.875,0.484375,0.421875
499,1695740751159,-0.20410156,-0.9194946,0.20941162,-0.203125,-0.46875,-0.421875
500,1695740751205,-0.25170898,-0.93951416,0.23162842,1.6875,-0.53125,-0.765625
501,1695740751234,-0.22924805,-0.9483032,0.22283936,0.953125,0.390625,0.125
502,1695740751279,-0.21704102,-0.9331665,0.2033081,1.0,-0.671875,-0.296875
503,1695740751326,-0.23339844,-0.9404907,0.21258545,0.484375,-0.921875,-0.71875
504,1695740751369,-0.22265625,-0.93463135,0.20111084,0.625,-0.171875,-0.703125
505,1695740751399,-0.24072266,-0.9421997,0.20941162,0.90625,-1.8125,-0.3125
506,1695740751459,-0.24316406,-0.92633057,0.21185303,0.359375,0.171875,0.046875
507,1695740751474,-0.26611328,-0.9573364,0.22113037,0.828125,-0.71875,0.46875
508,1695740751519,-0.2331543,-0.93096924,0.20916748,-0.65625,0.3125,0.609375
509,1695740751549,-0.22998047,-0.92559814,0.19891357,0.296875,-0.296875,-0.140625
510,1695740751594,-0.22558594,-0.9343872,0.21697998,0.796875,-0.109375,-0.25
511,1695740751639,-0.23095703,-0.93463135,0.21844482,0.171875,-0.375,-0.78125
512,1695740751684,-0.23730469,-0.9319458,0.22259521,0.0625,-0.703125,-1.140625
513,1695740751729,-0.22729492,-0.9312134,0.20574951,0.078125,-1.0,-1.078125
514,1695740751759,-0.25463867,-0.9356079,0.215271,0.28125,-1.28125,-0.65625
515,1695740751789,-0.26220703,-0.9429321,0.21356201,0.5,-0.703125,-0.109375
516,1695740751834,-0.26098633,-0.93585205,0.21575928,0.53125,-0.421875,0.59375
517,1695740751879,-0.24682617,-0.92926025,0.22113037,0.734375,-0.703125,0.84375
518,1695740751925,-0.24072266,-0.9360962,0.21380615,0.578125,-0.9375,0.390625
519,1695740751954,-0.24291992,-0.9385376,0.21136475,0.6875,-0.6875,0.046875
520,1695740751998,-0.2355957,-0.9336548,0.20892334,0.359375,-1.4375,-0.078125
521,1695740752045,-0.24975586,-0.92852783,0.21917725,0.6875,-0.9375,-0.546875
522,1695740752073,-0.23999023,-0.92974854,0.20574951,0.234375,-0.640625,-0.53125
523,1695740752119,-0.28027344,-0.94781494,0.21356201,-0.640625,2.125,-0.46875
524,1695740752148,-0.23632812,-0.9260864,0.19232178,-3.03125,2.59375,-0.28125
525,1695740752193,-0.26391602,-0.9072876,0.23309326,-0.765625,-0.1875,-0.40625
526,1695740752224,-0.24804688,-0.93048096,0.2411499,0.859375,0.3125,0.609375
527,1695740752284,-0.22729492,-0.9265747,0.23699951,0.75,-0.375,-0.296875
528,1695740752314,-0.24414062,-0.92559814,0.22454834,2.078125,-1.71875,-0.640625
529,1695740752343,-0.24731445,-0.93292236,0.22015381,2.28125,-0.171875,-0.984375
530,1695740752388,-0.24243164,-0.94073486,0.20721436,2.34375,-1.6875,0.3125
531,1695740752433,-0.24804688,-0.93585205,0.20721436,0.765625,-2.5625,-0.328125
532,1695740752464,-0.24316406,-0.9260864,0.2086792,0.3125,-1.734375,-0.890625
533,1695740752508,-0.29614258,-0.9331665,0.23406982,1.3125,-1.71875,0.9375
534,1695740752553,-0.26220703,-0.9277954,0.21966553,1.15625,0.171875,1.015625
535,1695740752599,-0.26586914,-0.93414307,0.2243042,1.875,0.34375,-0.109375
536,1695740752630,-0.23950195,-0.93170166,0.22015381,1.625,-0.09375,0.125
537,1695740752673,-0.24633789,-0.92926025,0.21844482,1.671875,-0.703125,-1.28125
538,1695740752719,-0.25927734,-0.940979,0.2074585,1.859375,0.0,-1.25
539,1695740752749,-0.27148438,-0.9343872,0.19647217,1.53125,-0.984375,-1.234375
540,1695740752793,-0.26342773,-0.94488525,0.19744873,0.828125,0.15625,-0.890625
541,1695740752823,-0.2614746,-0.9397583,0.19378662,0.46875,1.140625,-0.734375
542,1695740752869,-0.2536621,-0.9209595,0.1942749,-0.265625,0.5625,-0.5625
543,1695740752913,-0.25219727,-0.93707275,0.19989014,-0.921875,0.4375,-0.84375
544,1695740752958,-0.2578125,-0.9221802,0.20477295,-0.96875,-0.53125,-0.890625
545,1695740753004,-0.24584961,-0.93218994,0.20477295,-0.15625,-2.09375,-1.03125
546,1695740753019,-0.27368164,-0.9378052,0.20013428,-0.03125,-3.84375,-0.359375
547,1695740753064,-0.26831055,-0.9168091,0.21234131,1.125,-3.625,-0.78125
548,1695740753109,-0.27661133,-0.9373169,0.18450928,0.09375,-2.34375,-0.390625
549,1695740753139,-0.26635742,-0.9234009,0.23284912,0.859375,-3.0625,-0.515625
550,1695740753184,-0.2861328,-0.9439087,0.20941162,1.4375,-0.9375,0.015625
551,1695740753229,-0.28222656,-0.9390259,0.1918335,0.6875,-0.796875,1.21875
552,1695740753259,-0.27856445,-0.9182739,0.20257568,0.46875,-0.8125,1.28125
553,1695740753319,-0.27270508,-0.92315674,0.17962646,-0.40625,0.984375,0.671875
554,1695740753349,-0.26489258,-0.940979,0.2074585,-0.53125,-0.03125,0.96875
555,1695740753380,-0.27514648,-0.9373169,0.21307373,-1.046875,0.625,0.0625
556,1695740753424,-0.2680664,-0.91607666,0.20135498,-0.125,1.796875,0.578125
557,1695740753469,-0.26171875,-0.9421997,0.20697021,0.703125,1.359375,-0.015625
558,1695740753499,-0.2548828,-0.91729736,0.20404053,0.109375,0.71875,0.515625
559,1695740753544,-0.26538086,-0.91973877,0.22332764,1.296875,-1.125,0.296875
560,1695740753620,-0.26879883,-0.9246216,0.20111084,0.765625,0.640625,-0.15625
561,1695740753622,-0.27807617,-0.93707275,0.22650146,1.921875,-0.328125,0.078125
562,1695740753665,-0.29467773,-0.9541626,0.22601318,0.640625,-0.3125,1.296875
563,1695740753709,-0.2849121,-0.93585205,0.20965576,-0.078125,-1.390625,1.265625
564,1695740753739,-0.26733398,-0.9324341,0.17156982,1.171875,0.671875,2.46875
565,1695740753784,-0.26367188,-0.9368286,0.2033081,1.515625,0.390625,2.125
566,1695740753814,-0.24609375,-0.9365845,0.18939209,1.453125,-0.109375,1.90625
567,1695740753874,-0.26367188,-0.9324341,0.20574951,0.875,-0.734375,1.40625
568,1695740753904,-0.25195312,-0.94244385,0.2062378,1.40625,-0.1875,2.28125
569,1695740753934,-0.23706055,-0.9536743,0.19793701,1.421875,-0.71875,1.453125
570,1695740753997,-0.2553711,-0.9248657,0.1954956,-0.109375,-1.375,0.921875
571,1695740754024,-0.24365234,-0.9541626,0.17352295,0.53125,-0.984375,0.875
572,1695740754054,-0.22851562,-0.92071533,0.19525146,0.25,-1.953125,-0.171875
573,1695740754131,-0.2541504,-0.93829346,0.19818115,1.375,-1.65625,-0.203125
574,1695740754144,-0.23999023,-0.9458618,0.19525146,0.921875,-0.90625,0.03125
575,1695740754174,-0.23852539,-0.9312134,0.18206787,-0.1875,-0.78125,0.28125
576,1695740754234,-0.25976562,-0.93829346,0.18304443,-0.328125,-1.3125,-0.375
577,1695740754279,-0.25,-0.9258423,0.19769287,1.03125,-0.25,0.25
578,1695740754294,-0.24829102,-0.9573364,0.20770264,1.078125,-1.375,0.71875
579,1695740754370,-0.24145508,-0.9277954,0.20281982,1.0625,-0.640625,0.765625
580,1695740754384,-0.2644043,-0.9390259,0.19696045,2.34375,-0.796875,0.703125
581,1695740754415,-0.24804688,-0.9417114,0.19940186,1.703125,-1.109375,0.84375
582,1695740754474,-0.24584961,-0.9456177,0.19085693,0.859375,-0.203125,0.53125
583,1695740754490,-0.24487305,-0.94659424,0.17645264,0.046875,0.34375,0.0625
584,1695740754534,-0.24902344,-0.95513916,0.19500732,-1.34375,0.09375,-0.109375
585,1695740754579,-0.24023438,-0.9324341,0.17230225,-2.375,0.609375,-0.15625
586,1695740754610,-0.25,-0.9348755,0.20794678,-1.09375,1.109375,-0.9375
587,1695740754669,-0.23657227,-0.9380493,0.19378662,-0.703125,0.953125,-0.015625
588,1695740754699,-0.2680664,-0.9299927,0.21478271,-0.546875,-1.078125,-0.21875
589,1695740754729,-0.25952148,-0.9299927,0.20672607,0.296875,-0.140625,0.96875
590,1695740754774,-0.25854492,-0.9319458,0.20306396,0.3125,-0.3125,1.0625
591,1695740754834,-0.2487793,-0.9451294,0.2074585,1.015625,-2.09375,1.703125
592,1695740754851,-0.234375,-0.9307251,0.1954956,-0.28125,-2.109375,1.25
593,1695740754894,-0.24316406,-0.94122314,0.17156982,-0.640625,1.4375,0.828125
594,1695740754939,-0.23046875,-0.9326782,0.2074585,-1.296875,2.15625,-0.390625
595,1695740754984,-0.25170898,-0.9534302,0.25213623,-3.09375,6.8125,-0.21875
596,1695740755029,-0.24682617,-0.93756104,0.21380615,-1.734375,3.84375,-0.46875
597,1695740755059,-0.2277832,-0.9038696,0.21844482,-0.828125,4.625,1.03125
598,1695740755090,-0.23852539,-0.94781494,0.2518921,-1.65625,3.65625,0.796875
599,1695740755149,-0.2705078,-0.95391846,0.2514038,-3.984375,0.390625,0.65625
600,1695740755194,-0.24365234,-0.93756104,0.2531128,-3.34375,-0.328125,-0.515625
601,1695740755213,-0.2109375,-0.9507446,0.24725342,-1.375,-3.0625,-0.546875
602,1695740755285,-0.27124023,-0.9282837,0.24188232,-2.34375,-0.5,0.15625
603,1695740755287,-0.2553711,-0.9348755,0.2675171,-1.90625,0.03125,-0.390625
604,1695740755331,-0.25683594,-0.9402466,0.24676514,-3.203125,-0.09375,0.578125
605,1695740755374,-0.27978516,-0.9312134,0.2682495,-1.90625,2.765625,1.03125
606,1695740755405,-0.26757812,-0.9402466,0.28656006,1.484375,4.5625,2.296875
607,1695740755451,-0.25341797,-0.92852783,0.26361084,1.96875,5.796875,3.140625
608,1695740755494,-0.19335938,-0.9043579,0.25360107,2.296875,0.875,1.0
609,1695740755539,-0.18383789,-0.925354,0.26361084,2.53125,-1.875,0.53125
610,1695740755571,-0.20214844,-0.8916626,0.19329834,4.171875,-3.890625,-0.21875
611,1695740755614,-0.17651367,-0.87091064,0.1749878,5.34375,-10.671875,0.296875
612,1695740755644,-0.20214844,-0.9771118,0.2255249,0.375,-15.9375,-2.328125
613,1695740755691,-0.23217773,-0.9102173,0.23822021,-4.171875,-9.8125,-2.765625
614,1695740755734,-0.22998047,-0.94903564,0.2255249,-3.71875,-6.65625,-2.84375
615,1695740755764,-0.26220703,-0.9338989,0.24603271,-4.125,-3.125,-2.65625
616,1695740755809,-0.2734375,-0.94659424,0.26922607,0.875,-3.296875,-3.453125
617,1695740755854,-0.26708984,-0.9109497,0.24285889,-1.25,-0.203125,-1.203125
618,1695740755884,-0.24438477,-0.9077759,0.23919678,1.578125,-1.171875,-1.25
619,1695740755931,-0.28833008,-0.9546509,0.24993896,2.171875,-2.421875,-0.84375
620,1695740755959,-0.28466797,-0.940979,0.24310303,0.75,-1.15625,-0.140625
621,1695740756004,-0.28515625,-0.9417114,0.24383545,0.09375,-0.796875,1.125
622,1695740756051,-0.26904297,-0.9151001,0.21795654,-1.609375,-0.796875,1.296875
623,1695740756079,-0.2607422,-0.9194946,0.22991943,0.390625,0.640625,2.53125
624,1695740756124,-0.26123047,-0.9356079,0.23406982,-0.1875,-1.046875,1.671875
625,1695740756170,-0.26660156,-0.92144775,0.25506592,0.984375,-0.578125,2.390625
626,1695740756214,-0.25732422,-0.9265747,0.22479248,-1.234375,-2.25,1.578125
627,1695740756244,-0.24121094,-0.9055786,0.25238037,-0.828125,-4.90625,0.375
628,1695740756304,-0.2529297,-0.92852783,0.25335693,0.109375,-3.375,0.78125
629,1695740756334,-0.26635742,-0.9204712,0.2592163,0.984375,-2.90625,0.46875
630,1695740756364,-0.23999023,-0.92193604,0.2592163,1.3125,-5.21875,-0.609375
631,1695740756410,-0.2626953,-0.942688,0.2423706,3.328125,-3.921875,-1.109375
632,1695740756439,-0.2939453,-0.9365845,0.23382568,1.09375,-1.875,-0.859375
633,1695740756484,-0.28857422,-0.9402466,0.22161865,0.25,-2.078125,1.125
634,1695740756560,-0.26513672,-0.9102173,0.19573975,-2.9375,-1.0625,0.453125
635,1695740756563,-0.28027344,-0.93218994,0.2526245,0.015625,-3.046875,0.265625
636,1695740756604,-0.28955078,-0.93829346,0.26019287,-0.875,-1.03125,1.59375
637,1695740756651,-0.27905273,-0.8970337,0.24359131,-2.234375,1.765625,0.828125
638,1695740756679,-0.24780273,-0.91412354,0.246521,1.171875,-1.5,1.140625
639,1695740756724,-0.26000977,-0.9451294,0.26019287,1.96875,-0.59375,0.34375
640,1695740756754,-0.24804688,-0.9221802,0.23260498,1.09375,-0.265625,-0.671875
641,1695740756799,-0.24902344,-0.9417114,0.2399292,0.40625,-0.640625,-1.734375
642,1695740756860,-0.2800293,-0.9258423,0.23431396,0.53125,-2.9375,-0.984375
643,1695740756874,-0.28881836,-0.9324341,0.23846436,1.9375,-2.53125,0.203125
644,1695740756934,-0.28515625,-0.9273071,0.22283936,1.6875,-2.1875,1.625
645,1695740756979,-0.27807617,-0.9248657,0.23846436,1.015625,-1.734375,1.65625
646,1695740756995,-0.27270508,-0.9204712,0.23382568,0.96875,-2.328125,1.359375
647,1695740757039,-0.25097656,-0.9234009,0.20965576,0.078125,0.546875,-0.140625
648,1695740757084,-0.26660156,-0.93096924,0.2518921,2.453125,-1.734375,0.625
649,1695740757131,-0.27392578,-0.9295044,0.22088623,0.828125,-0.96875,0.34375
650,1695740757159,-0.27294922,-0.91656494,0.23260498,1.546875,0.09375,0.109375
651,1695740757204,-0.25854492,-0.92974854,0.23773193,1.84375,-0.0625,-0.796875
652,1695740757250,-0.30395508,-0.93170166,0.2345581,3.15625,-1.640625,1.359375
653,1695740757293,-0.25878906,-0.92510986,0.20257568,-0.578125,0.3125,-0.5
654,1695740757324,-0.27416992,-0.92681885,0.23358154,2.609375,-0.21875,0.234375
655,1695740757372,-0.28857422,-0.94195557,0.24432373,1.453125,0.140625,1.015625
656,1695740757398,-0.26782227,-0.9290161,0.21282959,-0.078125,-0.109375,-0.046875
657,1695740757459,-0.25952148,-0.92315674,0.2164917,1.671875,0.03125,0.703125
658,1695740757475,-0.2578125,-0.9380493,0.23309326,1.4375,0.546875,0.390625
659,1695740757519,-0.265625,-0.93341064,0.21844482,1.671875,-0.234375,0.3125
660,1695740757548,-0.2541504,-0.9180298,0.21624756,2.859375,0.671875,0.609375
661,1695740757593,-0.2763672,-0.9248657,0.22088623,3.3125,0.140625,0.453125
662,1695740757638,-0.27490234,-0.928772,0.21478271,2.328125,0.015625,0.359375
663,1695740757669,-0.2783203,-0.9182739,0.23016357,2.4375,0.90625,-0.171875
664,1695740757713,-0.31982422,-0.9170532,0.21551514,5.0625,3.953125,-1.484375
665,1695740757758,-0.3112793,-0.93048096,0.22747803,5.609375,9.5,-2.75
666,1695740757789,-0.3173828,-0.94854736,0.20111084,5.8125,13.53125,-3.28125
667,1695740757835,-0.3215332,-0.9302368,0.184021,5.65625,17.578125,-1.34375
668,1695740757880,-0.32250977,-0.91900635,0.16448975,4.484375,19.90625,-0.859375
669,1695740757909,-0.2775879,-0.9417114,0.16766357,3.296875,20.640625,-1.53125
670,1695740757971,-0.22021484,-0.94122314,0.17474365,2.234375,19.828125,-1.296875
671,1695740757999,-0.21386719,-0.9529419,0.19598389,2.46875,16.171875,-2.75
672,1695740758029,-0.20043945,-0.9360962,0.18035889,1.71875,14.671875,-3.578125
673,1695740758074,-0.16137695,-0.9048462,0.22113037,4.78125,10.53125,-4.25
674,1695740758119,-0.22875977,-0.9741821,0.1906128,3.203125,9.625,-4.796875
675,1695740758164,-0.21826172,-0.92681885,0.18011475,1.734375,5.171875,-4.46875
676,1695740758210,-0.2734375,-0.9578247,0.21234131,2.765625,2.984375,-2.46875
677,1695740758239,-0.25512695,-0.9397583,0.18035889,0.03125,0.671875,-0.859375
678,1695740758269,-0.23608398,-0.9446411,0.1954956,0.515625,-2.265625,-0.46875
679,1695740758330,-0.23217773,-0.94244385,0.2074585,-0.375,-6.15625,-0.140625
680,1695740758344,-0.23999023,-0.9343872,0.1984253,-2.09375,-7.375,-0.125
681,1695740758389,-0.23828125,-0.93218994,0.1864624,-4.8125,-7.140625,-0.9375
682,1695740758436,-0.25585938,-0.9397583,0.19866943,-5.578125,-8.1875,-1.296875
683,1695740758464,-0.28173828,-0.94415283,0.21844482,-4.9375,-12.046875,-0.203125
684,1695740758509,-0.26049805,-0.9295044,0.20721436,-5.140625,-13.578125,1.484375
685,1695740758554,-0.2758789,-0.9368286,0.19989014,-4.828125,-15.0625,2.5
686,1695740758599,-0.3083496,-0.9224243,0.22283936,-5.484375,-15.640625,3.390625
687,1695740758644,-0.28930664,-0.9290161,0.215271,-6.453125,-16.765625,4.859375
688,1695740758689,-0.29711914,-0.92437744,0.20941162,-5.875,-14.40625,5.421875
689,1695740758703,-0.3154297,-0.9055786,0.23114014,-5.046875,-14.875,4.515625
690,1695740758748,-0.29663086,-0.9109497,0.23406982,-4.78125,-13.4375,3.96875
691,1695740758794,-0.28808594,-0.9048462,0.2423706,-3.125,-12.3125,3.609375
692,1695740758823,-0.31030273,-0.9146118,0.24993896,-1.671875,-11.25,3.078125
693,1695740758883,-0.29052734,-0.9121704,0.23065186,-1.53125,-9.609375,2.03125
694,1695740758913,-0.31079102,-0.9038696,0.23675537,-0.34375,-7.21875,2.484375
695,1695740758944,-0.30664062,-0.9260864,0.230896,0.125,-5.0625,2.875
696,1695740758989,-0.31591797,-0.9077759,0.24822998,0.6875,-2.234375,3.125
697,1695740759033,-0.28735352,-0.9121704,0.23016357,1.328125,-0.0625,2.796875
698,1695740759063,-0.29589844,-0.94976807,0.25482178,2.5,0.234375,3.046875
699,1695740759124,-0.2705078,-0.90631104,0.21160889,-0.03125,1.3125,1.875
700,1695740759139,-0.2866211,-0.927063,0.22601318,2.890625,0.28125,0.921875
701,1695740759184,-0.26904297,-0.9380493,0.23651123,2.3125,1.90625,1.4375
702,1695740759229,-0.27441406,-0.9133911,0.21795654,1.984375,1.875,0.546875
703,1695740759259,-0.2529297,-0.93585205,0.21356201,2.546875,1.6875,0.015625
704,1695740759305,-0.26757812,-0.93927,0.22210693,1.875,1.984375,0.109375
705,1695740759349,-0.28881836,-0.940979,0.21575928,1.015625,2.453125,0.359375
706,1695740759379,-0.26416016,-0.9216919,0.21038818,0.75,3.828125,1.03125
707,1695740759427,-0.26220703,-0.92388916,0.21551514,1.734375,3.09375,1.46875
708,1695740759469,-0.25268555,-0.93927,0.20697021,1.3125,3.15625,1.34375
709,1695740759499,-0.23413086,-0.9324341,0.21746826,1.109375,1.65625,0.46875
710,1695740759544,-0.2746582,-0.93414307,0.20648193,0.421875,1.171875,1.25
711,1695740759589,-0.24707031,-0.94781494,0.21575928,1.421875,-0.234375,1.34375
712,1695740759620,-0.26757812,-0.9446411,0.20501709,-0.703125,1.671875,1.953125
713,1695740759664,-0.27148438,-0.92559814,0.22259521,-0.671875,0.3125,2.578125
714,1695740759724,-0.22070312,-0.92022705,0.21868896,0.171875,0.46875,1.796875
715,1695740759739,-0.22387695,-0.9338989,0.22943115,0.203125,-0.8125,1.078125
716,1695740759799,-0.20825195,-0.92388916,0.22357178,1.234375,-2.109375,-0.1875
717,1695740759829,-0.24707031,-0.94537354,0.21942139,1.125,-2.03125,0.625
718,1695740759874,-0.19238281,-0.909729,0.21966553,-0.4375,-3.3125,-0.625
719,1695740759904,-0.23095703,-0.94073486,0.2267456,1.234375,-4.859375,-1.875
720,1695740759936,-0.22509766,-0.94000244,0.21820068,-0.265625,-5.65625,-2.4375
721,1695740759980,-0.23120117,-0.9368286,0.20257568,-0.3125,-6.171875,-2.59375
722,1695740760025,-0.27929688,-0.9607544,0.18597412,-0.234375,-5.765625,-0.515625
723,1695740760054,-0.26171875,-0.9248657,0.22454834,0.265625,-5.65625,-0.296875
724,1695740760100,-0.28710938,-0.95562744,0.18548584,-2.0625,-3.953125,0.875
725,1695740760143,-0.2680664,-0.9143677,0.21356201,-2.359375,-4.375,1.0
726,1695740760174,-0.31323242,-0.94122314,0.23968506,0.15625,-2.640625,1.375
727,1695740760249,-0.2824707,-0.93927,0.21795654,-1.84375,0.703125,2.25
728,1695740760263,-0.24951172,-0.9060669,0.21600342,-0.328125,-0.171875,0.25
729,1695740760294,-0.25561523,-0.93707275,0.21844482,0.828125,-0.546875,-0.015625
730,1695740760338,-0.24902344,-0.93463135,0.22625732,-0.109375,-0.09375,-0.96875
731,1695740760400,-0.26245117,-0.9302368,0.22918701,-0.09375,0.3125,-1.71875
732,1695740760415,-0.2619629,-0.93536377,0.21942139,-0.390625,0.734375,-1.53125
733,1695740760460,-0.3022461,-0.9380493,0.21356201,-1.25,1.296875,-1.09375
734,1695740760519,-0.32080078,-0.93292236,0.22576904,-0.875,4.453125,0.21875
735,1695740760535,-0.2836914,-0.9011841,0.19769287,-2.109375,7.015625,2.46875
736,1695740760590,-0.25610352,-0.94537354,0.23602295,-0.25,6.484375,1.9375
737,1695740760609,-0.25146484,-0.9290161,0.23577881,-1.546875,6.9375,0.15625
738,1695740760655,-0.21923828,-0.92852783,0.25238037,-0.484375,6.25,-0.625
739,1695740760699,-0.2265625,-0.9168091,0.2387085,-0.015625,5.296875,-0.84375
740,1695740760728,-0.2277832,-0.92022705,0.25115967,0.34375,5.53125,-0.234375
741,1695740760775,-0.23583984,-0.94488525,0.23699951,-0.890625,4.46875,0.34375
742,1695740760822,-0.28173828,-0.927063,0.23699951,-1.78125,2.859375,1.9375
743,1695740760848,-0.2409668,-0.90948486,0.2616577,-0.640625,2.65625,1.484375
744,1695740760895,-0.21044922,-0.91729736,0.27679443,1.0625,1.765625,0.03125
745,1695740760938,-0.20507812,-0.9368286,0.27801514,2.25,0.046875,-0.5
746,1695740760983,-0.22216797,-0.91656494,0.26385498,2.03125,-0.59375,-1.25
747,1695740761015,-0.24609375,-0.9470825,0.23846436,2.078125,-1.078125,-0.921875
748,1695740761059,-0.22338867,-0.9182739,0.23626709,1.40625,-2.859375,-1.40625
749,1695740761088,-0.25708008,-0.9468384,0.23382568,0.796875,-2.59375,-0.375
750,1695740761136,-0.25219727,-0.92852783,0.24456787,-0.53125,-3.109375,0.578125
751,1695740761180,-0.26049805,-0.93096924,0.262146,0.859375,-2.515625,0.8125
752,1695740761208,-0.24560547,-0.92633057,0.2579956,0.421875,-1.96875,0.953125
753,1695740761255,-0.24658203,-0.9109497,0.25506592,1.078125,-2.6875,0.9375
754,1695740761284,-0.24829102,-0.9307251,0.24847412,1.234375,-2.921875,0.9375
755,1695740761329,-0.2553711,-0.9265747,0.23944092,0.953125,-3.796875,0.953125
756,1695740761375,-0.24536133,-0.92681885,0.24334717,1.875,-3.390625,1.515625
757,1695740761404,-0.24560547,-0.9246216,0.23724365,1.046875,-4.46875,1.015625
758,1695740761448,-0.25439453,-0.93048096,0.24041748,1.1875,-3.984375,1.6875
759,1695740761496,-0.2512207,-0.93048096,0.23968506,0.875,-3.578125,1.765625
