# Sensor type: Respeck
# Activity type: Sitting
# Activity subtype: Coughing
# Subject id: s1979799
# Notes: 
timestamp,accel_x,accel_y,accel_z,gyro_x,gyro_y,gyro_z
1695719058379,0.3330078,-0.89263916,-0.10772705,-5.921875,3.328125,-3.765625
1695719058429,0.33666992,-0.89508057,-0.10284424,-6.59375,3.515625,-3.40625
1695719058501,0.33935547,-0.89141846,-0.108947754,-6.421875,4.6875,-3.90625
1695719058508,0.32495117,-0.8982544,-0.1116333,-5.625,4.640625,-3.8125
1695719058542,0.28173828,-0.9224243,-0.07720947,-3.546875,6.234375,-4.25
1695719058572,0.32128906,-0.93927,-0.07476807,-4.34375,6.140625,-5.875
1695719058617,0.26611328,-0.92437744,-0.054748535,-3.484375,6.9375,-4.765625
1695719058662,0.22021484,-0.97906494,-0.046447754,-6.390625,9.796875,-2.703125
1695719058692,0.25708008,-0.92755127,-0.0635376,-11.765625,15.375,-3.1875
1695719058736,0.2607422,-0.88897705,-0.019592285,-8.359375,18.5,-0.703125
1695719058782,0.29101562,-0.9299927,-0.06109619,-10.453125,16.890625,-0.6875
1695719058812,0.2590332,-0.8867798,-0.04449463,-0.796875,15.640625,-0.046875
1695719058857,0.21679688,-0.96881104,-0.01763916,-0.6875,11.71875,2.28125
1695719058933,0.22509766,-0.93707275,-0.11016846,2.796875,14.421875,1.859375
1695719058936,0.2746582,-0.9976196,-0.049621582,3.296875,14.078125,7.046875
1695719058978,0.45288086,-0.958313,-0.12628174,-3.03125,8.859375,5.453125
1695719059009,0.38354492,-0.9402466,-0.0335083,2.375,-0.78125,7.5625
1695719059052,0.08496094,-1.0176392,-0.089904785,0.90625,-3.015625,1.640625
1695719059129,0.23461914,-0.93170166,-0.093322754,3.484375,1.875,2.40625
1695719059132,0.23266602,-0.9492798,-0.11407471,4.1875,4.75,4.953125
1695719059174,0.36132812,-0.8948364,-0.1375122,3.015625,9.375,6.875
1695719059201,0.48095703,-0.8088989,-0.16607666,3.4375,1.765625,5.59375
1695719059247,0.42407227,-0.8164673,-0.19122314,4.140625,-3.15625,2.75
1695719059292,0.34838867,-0.88897705,-0.12921143,3.953125,-3.515625,2.3125
1695719059322,0.31958008,-0.8740845,-0.11383057,4.203125,-6.34375,1.34375
1695719059367,0.3166504,-0.89556885,-0.11627197,4.15625,-6.625,0.0625
1695719059427,0.3046875,-0.94122314,-0.18048096,6.8125,-4.515625,1.484375
1695719059442,0.33642578,-0.85357666,-0.15924072,9.15625,0.03125,2.265625
1695719059487,0.32714844,-0.8694458,-0.18145752,9.96875,0.34375,3.75
1695719059516,0.37280273,-0.7835083,-0.18902588,10.609375,-0.984375,2.984375
1695719059562,0.30493164,-0.89434814,-0.18560791,2.796875,0.65625,6.03125
1695719059607,0.34594727,-0.99224854,-0.21636963,4.75,3.21875,2.40625
1695719059637,0.3881836,-0.8616333,-0.22686768,5.234375,3.296875,-0.03125
1695719059684,0.38427734,-0.76763916,-0.2925415,5.671875,6.078125,-1.734375
1695719059727,0.42993164,-0.9434204,-0.22955322,0.421875,10.03125,0.4375
1695719059757,0.28149414,-0.9690552,-0.14776611,-5.515625,-5.671875,-3.515625
1695719059803,0.32763672,-0.85528564,-0.22052002,-6.546875,-5.15625,-2.328125
1695719059833,0.3388672,-0.9224243,-0.17144775,3.671875,-2.40625,-1.859375
1695719059878,0.31689453,-0.89190674,-0.16485596,2.1875,-4.28125,2.625
1695719059923,0.29614258,-0.8543091,-0.25982666,0.75,2.15625,-2.796875
1695719059952,0.4560547,-0.84698486,-0.24053955,1.484375,2.84375,-1.359375
1695719060013,0.40014648,-0.8513794,-0.23590088,0.375,0.265625,-0.0625
1695719060027,0.31982422,-0.8533325,-0.24371338,2.46875,7.6875,-1.5
1695719060073,0.35717773,-0.7822876,-0.27520752,4.953125,24.96875,1.15625
1695719060118,0.4362793,-0.80670166,-0.190979,6.515625,17.0625,2.359375
1695719060149,0.22143555,-1.1047974,-0.10601807,2.6875,-7.421875,0.578125
1695719060193,0.2705078,-0.8743286,-0.2156372,-3.125,-11.265625,-6.03125
1695719060254,0.23828125,-0.79473877,-0.3237915,1.3125,-4.4375,-2.203125
1695719060267,0.40185547,-0.81744385,-0.24273682,4.0,-0.703125,-1.265625
1695719060312,0.32348633,-0.90875244,-0.2456665,3.140625,-1.3125,-2.0
1695719060343,0.3798828,-0.86846924,-0.26568604,1.6875,1.953125,1.171875
1695719060390,0.36328125,-0.88726807,-0.27545166,-0.5,2.59375,-0.046875
1695719060437,0.17382812,-0.9158325,-0.3242798,-2.1875,27.4375,4.859375
1695719060463,0.44555664,-0.58917236,-0.30108643,1.828125,28.90625,1.265625
1695719060508,0.2626953,-0.97906494,-0.09576416,3.578125,-4.578125,3.515625
1695719060553,0.19897461,-1.0305786,-0.22930908,-9.96875,-21.25,-3.75
1695719060586,0.28076172,-0.7974243,-0.3496704,-4.546875,-9.90625,-6.421875
1695719060627,0.31347656,-0.77423096,-0.28790283,3.390625,-7.328125,-2.1875
1695719060657,0.36206055,-0.92193604,-0.24420166,4.984375,-2.390625,-1.59375
1695719060704,0.40283203,-0.8880005,-0.27545166,0.96875,-2.171875,0.15625
1695719060748,0.33984375,-0.8875122,-0.28448486,-2.3125,-0.953125,0.71875
1695719060780,0.31933594,-0.8428345,-0.24664307,-3.59375,-3.203125,1.90625
1695719060822,0.3010254,-0.8452759,-0.25372314,-0.796875,-5.53125,-0.296875
1695719060869,0.25390625,-0.9216919,-0.24346924,2.125,-6.296875,-2.375
1695719060897,0.31958008,-0.9402466,-0.22296143,-1.40625,-5.1875,-2.1875
1695719060944,0.3479004,-0.8599243,-0.2666626,-4.09375,-6.375,-0.328125
1695719060973,0.33398438,-0.85479736,-0.24542236,-3.453125,-6.953125,0.5
1695719061017,0.34057617,-0.8858032,-0.24371338,-4.515625,-5.390625,0.640625
1695719061062,0.35620117,-0.866272,-0.2312622,-4.875,-5.84375,0.0
1695719061093,0.3486328,-0.8442993,-0.21759033,-5.09375,-5.796875,-0.296875
1695719061138,0.3425293,-0.8821411,-0.20635986,-6.6875,-4.28125,-0.4375
1695719061183,0.34814453,-0.90704346,-0.19488525,-7.9375,-3.875,0.796875
1695719061212,0.36035156,-0.89385986,-0.19244385,-8.734375,-2.578125,0.859375
1695719061289,0.37646484,-0.88067627,-0.16949463,-6.203125,-1.484375,0.53125
1695719061294,0.35302734,-0.8648071,-0.16461182,-4.53125,0.625,0.921875
1695719061333,0.39257812,-0.9024048,-0.14239502,-2.28125,3.234375,2.578125
1695719061379,0.34765625,-0.91900635,-0.18487549,-3.1875,-0.03125,1.6875
1695719061408,0.36108398,-0.82647705,-0.20513916,-2.140625,-0.84375,-0.4375
1695719061453,0.38061523,-0.8789673,-0.19561768,-0.53125,0.5625,-0.921875
1695719061497,0.33691406,-0.8821411,-0.18096924,-0.8125,1.03125,-2.234375
1695719061528,0.34228516,-0.87750244,-0.16265869,-0.453125,1.265625,-1.8125
1695719061573,0.35620117,-0.864563,-0.15582275,0.484375,-0.3125,-1.53125
1695719061604,0.34033203,-0.82403564,-0.13458252,2.078125,-3.6875,-1.015625
1695719061649,0.36279297,-0.8892212,-0.15045166,3.578125,-0.53125,2.5625
1695719061693,0.3720703,-0.8460083,-0.21588135,5.890625,-5.859375,2.09375
1695719061722,0.3630371,-0.82769775,-0.22564697,0.625,-7.5625,1.015625
1695719061769,0.33032227,-1.0081177,-0.1416626,-2.046875,-1.15625,4.734375
1695719061814,0.30737305,-0.86920166,-0.22808838,-0.453125,1.25,2.171875
1695719061858,0.37451172,-0.82891846,-0.16314697,6.125,4.609375,0.09375
1695719061888,0.4567871,-0.9163208,-0.2000122,2.078125,15.609375,3.75
1695719061918,0.48339844,-0.75860596,-0.26861572,6.796875,17.90625,0.140625
1695719061963,0.35620117,-0.8623657,-0.18951416,4.03125,12.40625,3.53125
1695719062009,0.3630371,-0.958313,-0.17584229,-0.609375,6.046875,-1.578125
1695719062037,0.36035156,-0.8154907,-0.23712158,-2.15625,2.890625,-0.9375
1695719062083,0.34277344,-0.89263916,-0.22174072,1.46875,0.734375,-1.1875
1695719062131,0.34838867,-0.8562622,-0.20318604,1.5625,-6.0625,-1.125
1695719062158,0.29882812,-0.85943604,-0.25006104,0.0625,-2.09375,0.28125
1695719062204,0.42456055,-0.8609009,-0.25274658,0.34375,1.078125,-1.625
1695719062232,0.39160156,-0.85284424,-0.23614502,-0.71875,0.40625,0.28125
1695719062278,0.3371582,-0.85479736,-0.2546997,-0.34375,5.859375,-0.328125
1695719062324,0.3486328,-0.87701416,-0.24615479,5.0,25.53125,-0.25
1695719062354,0.49316406,-0.7029419,-0.26885986,2.0625,24.46875,0.1875
1695719062399,0.27539062,-0.956604,-0.18902588,1.671875,1.46875,5.203125
1695719062443,0.2487793,-0.9126587,-0.25445557,-4.75,-4.765625,-1.328125
1695719062472,0.36254883,-0.8110962,-0.21368408,1.203125,-11.46875,-2.6875
1695719062518,0.27783203,-0.864563,-0.2600708,4.1875,-7.203125,-4.4375
1695719062579,0.44335938,-0.7571411,-0.3291626,0.078125,-0.296875,-2.46875
1695719062594,0.3581543,-0.8965454,-0.24957275,2.25,-1.171875,-0.703125
1695719062638,0.36401367,-0.8792114,-0.26885986,-0.28125,3.046875,0.734375
1695719062668,0.28466797,-0.84820557,-0.4031372,0.90625,15.046875,2.375
1695719062713,0.45654297,-0.82281494,-0.2612915,-3.25,34.734375,1.734375
1695719062758,0.32543945,-0.8447876,-0.24371338,-0.359375,7.203125,3.609375
1695719062788,0.1171875,-1.0435181,-0.26397705,-7.859375,-8.609375,1.65625
1695719062835,0.36376953,-0.84210205,-0.24127197,-3.265625,-10.65625,-3.171875
1695719062863,0.3017578,-0.8569946,-0.3484497,3.421875,-12.546875,-5.390625
1695719062908,0.3425293,-0.7542114,-0.2822876,0.265625,-0.046875,-5.296875
1695719062953,0.453125,-0.77716064,-0.31207275,3.5625,-3.84375,-2.375
1695719062983,0.31958008,-0.9060669,-0.2769165,4.234375,-2.859375,-0.25
1695719063028,0.33935547,-0.894104,-0.27496338,-0.984375,2.078125,1.515625
1695719063074,0.32739258,-0.84747314,-0.26739502,-0.234375,1.953125,1.015625
1695719063102,0.2487793,-0.84552,-0.43048096,-0.703125,10.015625,1.890625
1695719063148,0.4855957,-0.815979,-0.3237915,-1.734375,30.09375,1.390625
1695719063177,0.24267578,-0.9307251,-0.3430786,-2.171875,8.8125,5.6875
1695719063224,0.27929688,-0.94073486,-0.21685791,-6.46875,-9.890625,0.875
1695719063268,0.26342773,-0.8501587,-0.29156494,-2.515625,-11.234375,-3.0
1695719063298,0.29101562,-0.80914307,-0.33917236,1.59375,-12.421875,-6.84375
1695719063344,0.37036133,-0.75909424,-0.33843994,0.78125,-0.25,-3.75
1695719063388,0.38085938,-0.8596802,-0.30621338,4.359375,-3.671875,-1.828125
1695719063418,0.33496094,-0.89434814,-0.3040161,2.328125,-0.890625,-0.59375
1695719063463,0.3540039,-0.8609009,-0.2991333,-0.4375,0.65625,2.0
1695719063492,0.2644043,-0.8677368,-0.284729,-1.1875,1.484375,0.421875
1695719063539,0.3095703,-0.84991455,-0.34649658,-2.25,5.8125,-0.3125
1695719063583,0.42358398,-0.831604,-0.30548096,-2.65625,21.21875,1.234375
1695719063612,0.3046875,-0.79473877,-0.38043213,-2.046875,11.921875,5.828125
1695719063658,0.29589844,-0.93829346,-0.17510986,-3.25,-4.546875,2.359375
1695719063705,0.28320312,-0.84942627,-0.30621338,-3.765625,-7.140625,-2.234375
1695719063733,0.34106445,-0.77008057,-0.30108643,0.96875,-11.671875,-4.28125
1695719063778,0.27270508,-0.8640747,-0.30889893,5.421875,-8.015625,-2.765625
1695719063808,0.39379883,-0.85162354,-0.2949829,4.046875,-3.671875,-3.6875
1695719063853,0.3779297,-0.85894775,-0.31915283,3.375,-7.578125,-2.34375
1695719063900,0.29760742,-0.87872314,-0.25274658,3.265625,-7.71875,0.578125
1695719063928,0.28686523,-0.86065674,-0.29400635,-0.4375,-3.609375,-0.90625
1695719063974,0.34106445,-0.8179321,-0.30523682,0.375,-2.53125,-2.078125
1695719064003,0.3293457,-0.8731079,-0.27105713,2.328125,-3.40625,-0.078125
1695719064049,0.2578125,-0.90753174,-0.29864502,-1.78125,1.15625,-0.03125
1695719064093,0.34838867,-0.86553955,-0.30767822,-4.828125,5.375,-0.578125
1695719064123,0.36132812,-0.85113525,-0.31500244,-2.734375,-1.0625,-0.5
1695719064168,0.31762695,-0.84625244,-0.29229736,-2.0,-3.953125,-0.5
1695719064214,0.3310547,-0.8587036,-0.2798462,-0.8125,-3.34375,-0.875
1695719064242,0.3322754,-0.86383057,-0.29449463,-1.671875,-4.5625,-0.421875
1695719064288,0.3564453,-0.8274536,-0.31573486,-1.65625,-4.1875,-0.40625
1695719064317,0.35668945,-0.8550415,-0.2732544,-0.796875,-5.59375,0.375
1695719064363,0.34350586,-0.8838501,-0.27716064,-1.9375,-5.21875,0.859375
1695719064412,0.3852539,-0.8418579,-0.3032837,-6.78125,-7.203125,-0.265625
1695719064438,0.36450195,-0.8040161,-0.28424072,-6.515625,-10.578125,-1.296875
1695719064483,0.32958984,-0.87701416,-0.23394775,-5.0625,-4.046875,-1.65625
1695719064529,0.30810547,-0.9151001,-0.21417236,-5.515625,-5.421875,-1.109375
1695719064559,0.3408203,-0.8584595,-0.22247314,-8.421875,-2.875,-3.0
1695719064606,0.35424805,-0.86016846,-0.20318604,-4.765625,-2.78125,-2.046875
1695719064633,0.34423828,-0.9065552,-0.2156372,-0.9375,0.578125,-1.46875
1695719064678,0.39624023,-0.8845825,-0.222229,-0.53125,0.46875,-0.421875
1695719064724,0.35546875,-0.86676025,-0.21368408,-0.75,-2.296875,1.90625
1695719064753,0.3347168,-0.861145,-0.20513916,-0.171875,-2.671875,1.1875
1695719064798,0.3334961,-0.8814087,-0.21148682,-1.0,-2.296875,1.265625
1695719064844,0.34521484,-0.848938,-0.2300415,-0.921875,-0.953125,0.75
1695719064872,0.33862305,-0.8731079,-0.19732666,0.0,-1.703125,0.234375
1695719064919,0.35986328,-0.84161377,-0.22247314,0.71875,0.546875,-0.34375
1695719064948,0.35742188,-0.8140259,-0.20880127,0.703125,-1.015625,-0.3125
1695719064993,0.34692383,-0.84625244,-0.17315674,1.71875,-1.328125,0.875
1695719065039,0.3852539,-0.80963135,-0.25665283,3.15625,-2.4375,-1.640625
1695719065068,0.3479004,-0.8567505,-0.27496338,2.3125,-6.171875,2.03125
1695719065127,0.34887695,-0.9714966,-0.22027588,1.84375,-1.8125,1.9375
1695719065157,0.36108398,-0.86309814,-0.22564697,-0.28125,-0.296875,-0.3125
1695719065187,0.38061523,-0.8230591,-0.20684814,-1.53125,2.046875,-0.109375
1695719065232,0.40429688,-0.8899536,-0.2276001,-3.734375,1.9375,-0.234375
1695719065263,0.3293457,-0.87213135,-0.21173096,-1.015625,2.890625,2.375
1695719065308,0.2939453,-0.8882446,-0.25201416,6.328125,15.640625,3.265625
1695719065353,0.46069336,-0.7930298,-0.28131104,7.421875,23.140625,0.328125
1695719065383,0.3239746,-0.77667236,-0.23443604,5.125,14.234375,4.0
1695719065429,0.3166504,-0.96539307,-0.2234497,-2.03125,7.953125,2.25
1695719065473,0.37280273,-0.8323364,-0.26275635,-0.671875,6.5,-2.359375
1695719065503,0.3774414,-0.8369751,-0.25079346,1.515625,-1.3125,-0.90625
1695719065548,0.33544922,-0.94122314,-0.25054932,3.390625,-6.296875,1.859375
1695719065593,0.32592773,-0.81988525,-0.2949829,3.4375,-7.703125,-0.859375
1695719065623,0.34960938,-0.8245239,-0.29351807,0.328125,3.078125,0.640625
1695719065669,0.41552734,-0.8543091,-0.30133057,-0.0625,1.765625,-0.203125
1695719065698,0.34375,-0.8213501,-0.2966919,-1.171875,0.0625,0.203125
1695719065742,0.359375,-0.85528564,-0.28179932,-1.8125,2.015625,-1.296875
1695719065789,0.3474121,-0.8394165,-0.2913208,-2.25,0.6875,0.40625
1695719065817,0.3083496,-0.83380127,-0.3399048,-3.078125,7.671875,0.0
1695719065863,0.5031738,-0.8447876,-0.31573486,-3.5,26.09375,-0.21875
1695719065892,0.40429688,-0.7542114,-0.2539673,-0.15625,9.640625,3.609375
1695719065938,0.24145508,-0.9817505,-0.24908447,-5.3125,-4.34375,3.828125
1695719065984,0.27856445,-0.8569946,-0.24810791,-4.015625,-6.15625,-1.65625
1695719066013,0.33154297,-0.8257446,-0.24786377,4.8125,-8.40625,-3.625
1695719066058,0.29589844,-0.89263916,-0.3538208,7.1875,-5.015625,-2.5625
1695719066103,0.46191406,-0.76934814,-0.3435669,0.09375,1.765625,-3.859375
1695719066132,0.44873047,-0.8284302,-0.31207275,3.140625,-4.34375,-0.875
1695719066179,0.28564453,-0.83966064,-0.31402588,0.984375,-3.984375,0.71875
1695719066208,0.32910156,-0.8491821,-0.2727661,-0.09375,0.34375,0.25
1695719066253,0.31420898,-0.8640747,-0.2876587,-0.78125,0.890625,-0.671875
1695719066299,0.35717773,-0.84942627,-0.2925415,-1.921875,2.09375,-0.34375
1695719066328,0.26538086,-0.86187744,-0.42559814,-2.1875,13.828125,1.5625
1695719066375,0.45507812,-0.7908325,-0.31134033,-4.890625,23.46875,2.109375
1695719066419,0.21459961,-0.8616333,-0.29034424,-2.65625,0.234375,6.453125
1695719066448,0.26293945,-0.9246216,-0.25128174,-5.015625,-1.671875,-1.0625
1695719066494,0.31274414,-0.8086548,-0.29229736,-3.328125,-6.859375,-3.59375
1695719066523,0.31323242,-0.81695557,-0.3098755,5.390625,-11.984375,-3.84375
1695719066569,0.37280273,-0.82940674,-0.38116455,1.3125,-0.03125,-5.0
1695719066613,0.4519043,-0.78253174,-0.3213501,0.65625,-2.59375,-2.15625
1695719066645,0.38793945,-0.84381104,-0.31378174,2.328125,-5.859375,-1.015625
1695719066689,0.31152344,-0.83917236,-0.29058838,0.359375,-3.484375,0.046875
1695719066764,0.29052734,-0.8508911,-0.2617798,-0.015625,-1.03125,0.296875
1695719066769,0.2980957,-0.8809204,-0.2888794,-0.9375,3.4375,-0.671875
1695719066808,0.359375,-0.88238525,-0.3118286,-1.4375,2.265625,0.015625
1695719066838,0.33984375,-0.86968994,-0.30743408,-1.453125,1.640625,1.4375
1695719066884,0.32836914,-0.84454346,-0.3123169,-1.890625,2.09375,-0.28125
1695719066928,0.32080078,-0.8274536,-0.35455322,-3.015625,6.59375,1.28125
1695719066958,0.3552246,-0.8447876,-0.30670166,-4.75,18.25,1.015625
1695719067003,0.36889648,-0.7744751,-0.2966919,-0.78125,13.890625,3.890625
1695719067049,0.27026367,-0.97735596,-0.27545166,-2.1875,-6.8125,1.453125
1695719067079,0.27246094,-0.82647705,-0.29400635,-3.328125,-3.234375,-0.9375
1695719067123,0.33154297,-0.80133057,-0.2991333,4.078125,-10.421875,-3.53125
1695719067198,0.41992188,-0.7859497,-0.3982544,-2.125,-1.78125,-3.609375
1695719067201,0.41308594,-0.77471924,-0.2859497,2.34375,-6.046875,-2.28125
1695719067243,0.3359375,-0.90753174,-0.2942505,2.0,-4.734375,-0.984375
1695719067272,0.28222656,-0.87872314,-0.27301025,-0.78125,-0.234375,0.578125
1695719067318,0.30419922,-0.8604126,-0.2925415,-1.15625,1.453125,1.421875
1695719067394,0.32592773,-0.8670044,-0.29742432,-2.421875,3.453125,-1.296875
1695719067399,0.33276367,-0.864563,-0.35430908,-3.640625,5.140625,0.359375
1695719067438,0.3486328,-0.8804321,-0.33013916,-6.828125,16.5625,1.265625
1695719067468,0.35131836,-0.7595825,-0.3406372,-3.453125,12.296875,1.671875
1695719067513,0.3203125,-0.93536377,-0.17706299,-1.96875,-5.453125,0.90625
1695719067560,0.26708984,-0.8596802,-0.2883911,-3.640625,-4.25,-1.625
1695719067587,0.35595703,-0.7661743,-0.3267212,-0.453125,-6.28125,-3.109375
1695719067634,0.36132812,-0.8418579,-0.29107666,6.984375,-12.65625,-2.046875
1695719067693,0.32495117,-0.9014282,-0.2769165,6.953125,-8.03125,-2.046875
1695719067707,0.3125,-0.8826294,-0.2930298,2.515625,-7.546875,-3.0
1695719067754,0.35742188,-0.8076782,-0.26397705,-1.453125,-6.296875,-0.046875
1695719067783,0.3173828,-0.8526001,-0.30645752,-1.28125,-6.125,1.21875
1695719067828,0.32885742,-0.8501587,-0.2954712,-2.390625,-5.859375,-0.6875
1695719067875,0.3474121,-0.8538208,-0.28204346,-2.515625,-3.703125,-1.203125
1695719067903,0.30639648,-0.9048462,-0.26153564,-3.921875,-4.4375,-2.25
1695719067949,0.33569336,-0.8760376,-0.26055908,-6.484375,-1.734375,-1.109375
1695719067993,0.38378906,-0.8352661,-0.2654419,-3.9375,-5.109375,-0.59375
1695719068023,0.35180664,-0.9104614,-0.28009033,1.765625,-4.015625,0.484375
1695719068067,0.37939453,-0.8274536,-0.2937622,-1.140625,-2.796875,0.6875
1695719068097,0.36645508,-0.8311157,-0.25811768,2.328125,-3.140625,0.390625
1695719068143,0.34936523,-0.88409424,-0.26202393,-0.296875,-3.921875,0.859375
1695719068188,0.3630371,-0.8562622,-0.28009033,-2.1875,-2.828125,0.546875
1695719068218,0.36621094,-0.8381958,-0.25811768,-4.109375,-1.53125,0.46875
1695719068264,0.35668945,-0.84210205,-0.26983643,-3.515625,-4.234375,-0.03125
1695719068293,0.36791992,-0.85650635,-0.20880127,-6.875,-2.09375,-0.515625
1695719068338,0.44628906,-0.866272,-0.2053833,-8.78125,-7.9375,0.046875
1695719068383,0.37719727,-0.913147,-0.21710205,-8.78125,-10.359375,-2.296875
1695719068413,0.34692383,-0.861145,-0.20587158,-9.0625,-7.5,-1.234375
1695719068461,0.34887695,-0.84161377,-0.21759033,-5.609375,-7.03125,1.09375
1695719068504,0.35229492,-0.88653564,-0.23028564,-5.140625,-0.90625,-1.03125
1695719068533,0.37670898,-0.87701416,-0.20147705,-3.828125,0.171875,0.28125
1695719068579,0.37597656,-0.89508057,-0.17974854,-3.5,1.453125,-0.4375
1695719068609,0.40307617,-0.86553955,-0.16949463,-1.390625,0.890625,-0.3125
1695719068653,0.3684082,-0.8501587,-0.17462158,-0.578125,-0.828125,0.5625
1695719068699,0.37963867,-0.8635864,-0.16656494,-0.34375,-1.09375,1.015625
1695719068728,0.37060547,-0.8562622,-0.1729126,0.421875,-0.84375,0.765625
1695719068775,0.3737793,-0.8616333,-0.17120361,0.203125,0.328125,-0.03125
1695719068817,0.38452148,-0.8543091,-0.13336182,0.078125,-1.1875,-0.71875
1695719068848,0.3840332,-0.84942627,-0.17828369,0.3125,-1.734375,-0.578125
1695719068894,0.39501953,-0.8567505,-0.16680908,2.375,-0.953125,0.125
1695719068923,0.35205078,-0.83843994,-0.17706299,2.828125,-3.421875,0.375
1695719068968,0.4020996,-0.835022,-0.20343018,2.75,-4.78125,0.671875
1695719069012,0.3696289,-0.95684814,-0.18048096,-0.75,-5.234375,3.21875
1695719069042,0.39135742,-0.8809204,-0.1951294,-0.046875,-0.109375,1.125
1695719069088,0.37060547,-0.8491821,-0.1831665,1.8125,0.515625,0.125
1695719069134,0.40307617,-0.91778564,-0.16485596,0.3125,2.28125,0.0
1695719069163,0.40161133,-0.8484497,-0.21099854,-2.640625,4.78125,-0.046875
1695719069210,0.33520508,-0.8809204,-0.22540283,1.6875,15.390625,0.46875
1695719069237,0.47827148,-0.7835083,-0.25006104,4.71875,15.890625,-1.234375
1695719069285,0.41186523,-0.75494385,-0.19903564,9.296875,13.625,1.4375
1695719069329,0.30444336,-0.9673462,-0.27593994,9.046875,13.34375,1.640625
1695719069358,0.41455078,-0.89678955,-0.24127197,2.6875,13.015625,-1.046875
1695719069403,0.38305664,-0.835022,-0.2078247,1.6875,4.96875,-0.296875
1695719069449,0.28833008,-0.95025635,-0.23150635,1.0,-2.5625,1.734375
1695719069477,0.31054688,-0.8255005,-0.24298096,2.34375,-7.953125,0.890625
1695719069523,0.37182617,-0.7991333,-0.3110962,1.3125,2.09375,-0.265625
1695719069552,0.44921875,-0.833313,-0.25958252,1.640625,-0.484375,-0.140625
1695719069598,0.41333008,-0.833313,-0.2793579,0.09375,-2.34375,-0.3125
1695719069643,0.33325195,-0.8648071,-0.26470947,0.375,-1.34375,-0.84375
1695719069673,0.36450195,-0.835022,-0.28326416,0.5625,-0.640625,0.1875
1695719069718,0.35253906,-0.83599854,-0.25689697,0.390625,0.765625,-0.78125
1695719069763,0.3671875,-0.86553955,-0.25909424,-0.953125,-0.15625,-0.15625
1695719069794,0.3996582,-0.83135986,-0.29327393,-0.921875,1.75,-0.484375
1695719069839,0.3310547,-0.8543091,-0.36968994,1.546875,14.515625,0.1875
1695719069868,0.46704102,-0.83306885,-0.33648682,-1.640625,22.890625,-1.40625
1695719069913,0.3552246,-0.8118286,-0.2852173,2.53125,7.59375,3.75
1695719069959,0.32836914,-0.9492798,-0.26226807,-3.3125,-7.015625,-0.375
1695719069988,0.2705078,-0.7932739,-0.23736572,-2.15625,-5.78125,-0.953125
1695719070033,0.32910156,-0.87286377,-0.30889893,3.25,-8.609375,-2.84375
1695719070078,0.37939453,-0.78912354,-0.3430786,0.75,-0.984375,-2.03125
1695719070107,0.44702148,-0.7925415,-0.3147583,4.109375,-3.671875,-0.640625
1695719070152,0.40063477,-0.87994385,-0.31304932,1.75,-2.203125,-1.0625
1695719070182,0.30126953,-0.8364868,-0.30596924,-1.75,0.921875,-0.953125
1695719070262,0.3659668,-0.8406372,-0.2744751,-1.046875,1.453125,0.890625
1695719070274,0.3017578,-0.86676025,-0.2937622,-1.25,1.984375,-1.03125
1695719070308,0.3791504,-0.8538208,-0.30523682,-4.4375,6.40625,0.484375
1695719070349,0.32958984,-0.8521118,-0.37457275,-5.734375,16.1875,1.640625
1695719070393,0.40307617,-0.7546997,-0.30523682,-3.15625,18.890625,0.703125
1695719070422,0.30004883,-0.9168091,-0.24884033,1.453125,2.28125,3.28125
1695719070470,0.24389648,-0.8843384,-0.3135376,-1.734375,-5.1875,1.59375
1695719070498,0.32055664,-0.7925415,-0.29571533,2.140625,-9.21875,-0.671875
1695719070545,0.3330078,-0.8135376,-0.3406372,3.96875,-6.546875,-4.453125
1695719070587,0.43432617,-0.7761841,-0.35284424,0.328125,-0.328125,-2.375
1695719070618,0.45043945,-0.833313,-0.33380127,3.96875,-6.25,-1.609375
1695719070663,0.3005371,-0.8689575,-0.3110962,1.5625,-3.625,0.109375
1695719070709,0.3178711,-0.84747314,-0.30352783,-1.03125,0.734375,0.125
1695719070738,0.33862305,-0.8584595,-0.3098755,-2.078125,0.953125,0.40625
1695719070799,0.36450195,-0.8296509,-0.30352783,-1.15625,0.28125,-0.46875
1695719070813,0.33129883,-0.8880005,-0.30133057,-3.15625,10.359375,0.875
1695719070858,0.3828125,-0.80792236,-0.36114502,-6.78125,18.53125,1.078125
1695719070904,0.34765625,-0.7761841,-0.302063,-1.890625,10.796875,3.40625
1695719070933,0.33081055,-0.9175415,-0.2720337,-0.75,-4.59375,0.625
1695719070978,0.32373047,-0.7920532,-0.31622314,0.28125,-8.140625,-0.65625
1695719071023,0.33666992,-0.7918091,-0.31939697,4.53125,-7.859375,-3.953125
1695719071053,0.35180664,-0.8452759,-0.32061768,4.421875,-4.15625,-2.34375
1695719071098,0.37573242,-0.8291626,-0.3147583,2.875,-2.46875,-0.8125
1695719071128,0.36572266,-0.84503174,-0.31500244,2.578125,-4.5625,-2.390625
1695719071173,0.35620117,-0.8328247,-0.3093872,2.109375,-5.140625,-2.21875
1695719071218,0.3310547,-0.8657837,-0.2979126,0.015625,-4.578125,-0.671875
1695719071247,0.29077148,-0.86138916,-0.30303955,-0.71875,-4.609375,-1.171875
1695719071293,0.3269043,-0.84454346,-0.29449463,-2.265625,-1.21875,-0.625
1695719071338,0.35083008,-0.8501587,-0.29351807,-2.90625,-1.359375,-0.03125
1695719071369,0.35009766,-0.8440552,-0.32769775,-6.21875,-1.375,-0.453125
1695719071414,0.36010742,-0.8267212,-0.30889893,-5.484375,-2.359375,-1.34375
1695719071444,0.38256836,-0.8735962,-0.2756958,-2.609375,-5.109375,-0.015625
1695719071488,0.35205078,-0.84039307,-0.30426025,-4.515625,-6.15625,0.109375
1695719071533,0.36108398,-0.8323364,-0.28741455,-5.140625,-6.15625,-0.21875
1695719071563,0.36816406,-0.8530884,-0.27716064,-4.078125,-7.15625,-0.171875
1695719071609,0.39501953,-0.84747314,-0.27105713,-4.453125,-6.265625,-0.953125
1695719071653,0.37597656,-0.85821533,-0.25787354,-2.96875,-5.921875,-0.140625
1695719071682,0.3701172,-0.8335571,-0.25933838,-4.078125,-3.75,-0.71875
1695719071728,0.37426758,-0.8579712,-0.24078369,-2.78125,-4.234375,-0.015625
1695719071758,0.3701172,-0.87384033,-0.22613525,-4.328125,-3.46875,0.5
1695719071804,0.39111328,-0.8394165,-0.24029541,-4.078125,-4.0625,-0.03125
1695719071848,0.38623047,-0.8765259,-0.24029541,-6.15625,-0.875,0.4375
1695719071878,0.36694336,-0.8843384,-0.21881104,-6.640625,-1.765625,0.203125
1695719071924,0.42236328,-0.8430786,-0.21514893,-7.453125,1.921875,0.578125
1695719071967,0.4362793,-0.85162354,-0.16851807,-5.203125,-1.40625,3.6875
1695719071997,0.38720703,-0.8887329,-0.19976807,-5.4375,-5.6875,1.890625
1695719072043,0.37573242,-0.83306885,-0.20440674,-3.453125,-3.34375,-0.375
1695719072073,0.3803711,-0.8335571,-0.19390869,-1.046875,-3.03125,-0.53125
1695719072120,0.37451172,-0.86602783,-0.20465088,-0.765625,-2.8125,-0.578125
1695719072164,0.39526367,-0.87579346,-0.1819458,-0.71875,-1.34375,-1.21875
1695719072193,0.39624023,-0.8670044,-0.18487549,0.296875,-1.671875,-1.375
1695719072238,0.39770508,-0.84820557,-0.19000244,0.0625,-0.546875,-0.796875
1695719072268,0.38671875,-0.86138916,-0.19073486,-1.609375,-0.0625,-0.421875
1695719072314,0.38452148,-0.8040161,-0.13458252,-0.921875,-0.65625,-1.1875
1695719072358,0.39648438,-0.8533325,-0.18536377,0.125,-1.375,-0.671875
1695719072388,0.40039062,-0.8237915,-0.14849854,2.421875,-2.25,0.109375
1695719072433,0.38842773,-0.82940674,-0.14971924,5.8125,-5.390625,3.453125
1695719072481,0.39916992,-0.817688,-0.2703247,2.65625,-6.109375,2.671875
1695719072509,0.4177246,-0.9234009,-0.20074463,0.171875,-2.875,4.703125
1695719072554,0.4008789,-0.9026489,-0.20758057,-0.03125,-0.46875,2.390625
1695719072582,0.39257812,-0.815979,-0.19586182,2.171875,1.734375,0.046875
1695719072628,0.46191406,-0.8682251,-0.18829346,2.28125,5.828125,0.65625
1695719072673,0.42578125,-0.88287354,-0.26885986,1.96875,11.84375,1.296875
1695719072704,0.4423828,-0.8008423,-0.19488525,15.96875,20.984375,-0.625
1695719072748,0.4177246,-0.7144165,-0.24298096,10.59375,18.5625,0.140625
1695719072808,0.33251953,-0.9011841,-0.25079346,7.234375,11.53125,2.09375
1695719072823,0.39526367,-0.8670044,-0.25860596,5.0,11.3125,-1.359375
1695719072868,0.38720703,-0.8115845,-0.2695923,1.734375,4.453125,-2.140625
1695719072898,0.43603516,-0.8233032,-0.28082275,-0.03125,0.109375,-1.546875
1695719072943,0.37329102,-0.8587036,-0.23370361,1.890625,-3.25,1.0625
1695719072988,0.33862305,-0.8245239,-0.33087158,0.203125,-5.5,0.515625
1695719073018,0.38134766,-0.7786255,-0.3118286,0.359375,0.171875,-0.546875
1695719073063,0.44604492,-0.82525635,-0.30377197,1.625,0.96875,-1.609375
1695719073108,0.38793945,-0.8381958,-0.28375244,0.375,-0.03125,-0.671875
1695719073138,0.3647461,-0.84747314,-0.28009033,-1.515625,1.53125,-1.9375
1695719073184,0.3840332,-0.8467407,-0.302063,-2.9375,3.03125,-0.71875
1695719073212,0.31591797,-0.90167236,-0.29962158,-3.25,16.5,0.84375
1695719073273,0.53222656,-0.7156372,-0.3562622,-0.15625,20.015625,-3.25
1695719073302,0.38378906,-0.8140259,-0.26055908,2.046875,7.9375,-0.125
1695719073333,0.2956543,-0.95098877,-0.25543213,-5.140625,-7.3125,-1.796875
1695719073382,0.35327148,-0.7913208,-0.27008057,-0.3125,-8.3125,-0.15625
1695719073424,0.24658203,-0.861145,-0.32452393,6.015625,-10.953125,-0.5
1695719073453,0.38110352,-0.8106079,-0.3394165,2.34375,-0.046875,-1.59375
1695719073499,0.47021484,-0.7937622,-0.35650635,1.96875,-0.21875,-1.609375
1695719073528,0.4501953,-0.83917236,-0.33184814,3.984375,-2.96875,-0.984375
1695719073574,0.32788086,-0.8184204,-0.3189087,0.265625,-1.8125,-0.5
1695719073618,0.34155273,-0.8098755,-0.2937622,-0.21875,0.3125,-0.65625
1695719073649,0.34887695,-0.8423462,-0.30914307,0.4375,0.1875,-1.171875
1695719073694,0.38623047,-0.8562622,-0.30230713,-0.578125,1.015625,-1.296875
1695719073737,0.3503418,-0.86920166,-0.31817627,-1.8125,-0.96875,-0.25
1695719073769,0.3828125,-0.8386841,-0.3164673,-3.96875,3.71875,0.078125
1695719073813,0.36499023,-0.83062744,-0.32281494,-4.78125,11.796875,0.875
1695719073842,0.3696289,-0.80792236,-0.3880005,-6.953125,26.4375,-0.84375
1695719073888,0.39770508,-0.7385864,-0.30426025,-1.265625,13.921875,2.125
1695719073933,0.30664062,-0.95391846,-0.26617432,-3.5,-4.828125,1.8125
1695719073962,0.32373047,-0.7908325,-0.33013916,-3.65625,-7.0,-0.015625
1695719074008,0.33740234,-0.77423096,-0.31549072,4.46875,-10.796875,-3.140625
1695719074053,0.34033203,-0.8657837,-0.315979,5.421875,-6.890625,-3.609375
1695719074099,0.40551758,-0.82525635,-0.3411255,3.0625,-4.609375,-1.671875
1695719074128,0.40039062,-0.83184814,-0.3237915,1.9375,-4.84375,-1.796875
1695719074157,0.35375977,-0.8291626,-0.3057251,-0.359375,-4.40625,-0.796875
1695719074206,0.31567383,-0.84332275,-0.29840088,-0.671875,-3.140625,-0.4375
1695719074249,0.32983398,-0.8464966,-0.29888916,-0.234375,-1.5625,-0.890625
1695719074278,0.35839844,-0.85479736,-0.29840088,-1.25,-0.8125,-0.421875
1695719074323,0.35205078,-0.8467407,-0.30499268,-2.859375,-1.21875,1.28125
1695719074369,0.36108398,-0.8242798,-0.30841064,-3.734375,-2.375,0.5625
1695719074397,0.35986328,-0.8377075,-0.2925415,-5.03125,-4.03125,-0.53125
1695719074443,0.39160156,-0.8286743,-0.28546143,-7.328125,-4.296875,-1.921875
1695719074472,0.39208984,-0.864563,-0.28155518,-2.171875,-5.453125,-1.34375
1695719074520,0.35888672,-0.8604126,-0.25909424,-1.78125,-5.46875,-0.21875
1695719074564,0.36108398,-0.8657837,-0.27056885,-4.375,-6.421875,-0.640625
1695719074593,0.3791504,-0.82354736,-0.27545166,-3.75,-5.59375,-0.0625
1695719074638,0.3647461,-0.8496704,-0.26739502,-4.140625,-5.734375,-0.53125
1695719074683,0.3708496,-0.8423462,-0.25909424,-5.625,-4.65625,-1.46875
1695719074714,0.42163086,-0.85479736,-0.25567627,-0.515625,-1.875,-0.0625
1695719074761,0.3984375,-0.8369751,-0.24151611,-0.75,-2.265625,1.25
1695719074788,0.3708496,-0.87091064,-0.22125244,-3.125,-1.78125,1.984375
1695719074834,0.3605957,-0.86798096,-0.25543213,-4.890625,-3.328125,1.78125
1695719074878,0.40454102,-0.8230591,-0.23638916,-6.171875,-1.703125,0.9375
1695719074908,0.38500977,-0.8635864,-0.21246338,-4.84375,-2.484375,1.265625
1695719074953,0.3864746,-0.8711548,-0.21807861,-5.015625,-0.875,1.328125
1695719075030,0.4182129,-0.8369751,-0.20977783,-2.359375,-0.84375,1.15625
1695719075035,0.4104004,-0.85943604,-0.19903564,-3.1875,0.78125,0.84375
1695719075073,0.3955078,-0.8557739,-0.20025635,-3.109375,0.484375,0.859375
1695719075108,0.42749023,-0.8357544,-0.1951294,-2.578125,0.125,1.15625
1695719075149,0.38500977,-0.8670044,-0.2107544,-0.765625,-1.78125,1.5
1695719075193,0.41992188,-0.81744385,-0.20098877,-0.484375,-0.703125,0.296875
1695719075224,0.39038086,-0.85113525,-0.20953369,-0.265625,-2.171875,1.546875
1695719075271,0.42260742,-0.83428955,-0.22467041,0.03125,-1.96875,0.078125
1695719075313,0.4013672,-0.8460083,-0.18780518,0.359375,-1.125,0.34375
1695719075373,0.4050293,-0.8110962,-0.16851807,-1.140625,-2.859375,-0.765625
1695719075388,0.40307617,-0.84576416,-0.18804932,0.140625,-0.640625,1.0625
1695719075464,0.39892578,-0.800354,-0.1494751,2.953125,-2.921875,1.03125
1695719075470,0.43969727,-0.78009033,-0.29156494,1.234375,-4.1875,0.265625
1695719075508,0.41967773,-0.9229126,-0.2341919,1.390625,-4.359375,5.15625
1695719075537,0.45654297,-0.8821411,-0.21124268,-0.609375,2.21875,1.40625
1695719075583,0.4248047,-0.84259033,-0.18096924,2.25,3.4375,1.03125
1695719075662,0.44458008,-0.861145,-0.22564697,1.1875,3.96875,0.9375
1695719075668,0.42260742,-0.8569946,-0.21392822,2.765625,14.515625,-0.03125
1695719075702,0.47973633,-0.7498169,-0.23931885,4.59375,13.734375,0.125
1695719075733,0.37597656,-0.706604,-0.21490479,9.3125,11.078125,0.109375
1695719075778,0.3425293,-0.93829346,-0.25299072,6.984375,10.203125,1.0
1695719075823,0.46679688,-0.8464966,-0.26519775,0.953125,10.578125,-1.390625
1695719075852,0.4580078,-0.8088989,-0.26055908,2.03125,6.9375,-0.78125
1695719075898,0.36108398,-0.93878174,-0.23980713,-2.59375,1.828125,0.53125
1695719075944,0.41015625,-0.74835205,-0.28253174,-2.09375,-2.546875,1.390625
1695719075972,0.3942871,-0.7774048,-0.28863525,3.890625,-5.171875,-0.6875
1695719076018,0.41235352,-0.85235596,-0.28277588,2.109375,-0.546875,-1.578125
1695719076047,0.44580078,-0.8255005,-0.28936768,0.34375,-1.03125,-1.171875
1695719076093,0.39111328,-0.8340454,-0.27960205,1.609375,-2.125,-1.40625
1695719076138,0.37158203,-0.84991455,-0.284729,0.390625,1.15625,-1.34375
1695719076168,0.3251953,-0.8357544,-0.3652954,7.140625,17.671875,-0.09375
1695719076213,0.44580078,-0.72857666,-0.34088135,2.296875,22.4375,-0.9375
1695719076258,0.41210938,-0.76934814,-0.27520752,7.109375,9.46875,1.234375
1695719076289,0.38452148,-0.92388916,-0.30596924,0.078125,-1.78125,-1.09375
1695719076333,0.3798828,-0.7962036,-0.28253174,0.453125,-10.984375,-0.734375
1695719076362,0.3425293,-0.84332275,-0.30108643,0.265625,-10.6875,-0.828125
1695719076408,0.375,-0.74053955,-0.36871338,2.28125,-6.09375,0.34375
1695719076453,0.44726562,-0.81744385,-0.34210205,3.40625,-1.046875,-2.125
1695719076483,0.43969727,-0.81085205,-0.32086182,1.125,-1.296875,-0.84375
1695719076530,0.36523438,-0.8098755,-0.33306885,-0.640625,-0.0625,-0.9375
1695719076558,0.37719727,-0.8101196,-0.3357544,-0.859375,1.15625,-1.875
1695719076603,0.3725586,-0.84381104,-0.35162354,-2.78125,14.671875,0.234375
1695719076665,0.26464844,-0.8621216,-0.3867798,-10.6875,24.09375,0.46875
1695719076680,0.4638672,-0.6802368,-0.34918213,-5.515625,17.609375,1.5625
1695719076723,0.36889648,-0.90289307,-0.30230713,-3.03125,3.46875,0.953125
1695719076768,0.3803711,-0.80133057,-0.3189087,-6.84375,-4.90625,-0.578125
1695719076798,0.35717773,-0.7944946,-0.32354736,-2.046875,-8.421875,-1.71875
1695719076843,0.36572266,-0.78863525,-0.3213501,2.296875,-12.171875,-1.65625
1695719076874,0.37573242,-0.819397,-0.34698486,2.90625,-7.5,-2.0
1695719076918,0.4152832,-0.8167114,-0.3484497,2.578125,-4.625,-2.875
1695719076964,0.38256836,-0.83673096,-0.3399048,2.328125,-1.671875,-0.625
1695719076993,0.33422852,-0.8279419,-0.30548096,-0.53125,0.703125,-1.203125
1695719077039,0.37695312,-0.8250122,-0.32086182,-0.703125,2.96875,-0.6875
1695719077084,0.35327148,-0.84820557,-0.3735962,-2.3125,14.703125,-0.53125
1695719077112,0.33496094,-0.84991455,-0.3352661,-5.40625,21.4375,0.84375
1695719077158,0.41088867,-0.7312622,-0.31866455,-3.4375,13.640625,0.75
1695719077187,0.41064453,-0.8726196,-0.33013916,-0.375,-3.6875,-0.296875
1695719077232,0.33251953,-0.8128052,-0.3262329,-2.546875,-7.609375,-1.640625
1695719077278,0.35302734,-0.7666626,-0.31011963,1.125,-9.828125,-1.734375
1695719077306,0.34033203,-0.835022,-0.3411255,1.46875,-7.578125,-0.609375
1695719077353,0.36816406,-0.83673096,-0.333313,0.921875,-6.515625,-0.3125
1695719077398,0.34887695,-0.84942627,-0.33551025,0.484375,-4.1875,-2.21875
1695719077428,0.34887695,-0.831604,-0.3267212,-0.328125,-1.59375,-1.296875
1695719077473,0.3461914,-0.8308716,-0.32208252,-0.734375,-1.34375,-1.21875
1695719077503,0.3696289,-0.819397,-0.31280518,-1.03125,-1.875,-1.625
1695719077548,0.36132812,-0.833313,-0.31378174,-0.796875,-2.84375,-0.609375
1695719077593,0.37475586,-0.83551025,-0.3081665,-3.203125,-2.109375,-0.328125
1695719077623,0.3635254,-0.81256104,-0.3352661,-2.25,-3.234375,-0.421875
1695719077669,0.35742188,-0.83184814,-0.30792236,-2.359375,-0.984375,-1.1875
1695719077714,0.33374023,-0.84942627,-0.28961182,-2.4375,-0.34375,-1.703125
1695719077743,0.3449707,-0.8530884,-0.28131104,-5.671875,-1.359375,0.359375
1695719077788,0.3618164,-0.84576416,-0.31549072,-7.21875,-0.671875,0.875
1695719077818,0.4243164,-0.8064575,-0.31793213,-2.984375,-2.765625,1.546875
1695719077863,0.41381836,-0.7996216,-0.3147583,0.140625,-6.34375,0.4375
1695719077940,0.34423828,-0.8623657,-0.29058838,0.84375,-5.609375,1.28125
1695719077944,0.37304688,-0.84698486,-0.2979126,-1.03125,-3.4375,0.890625
1695719077983,0.38891602,-0.8274536,-0.28155518,-0.71875,-2.765625,1.171875
1695719078029,0.37890625,-0.8274536,-0.29278564,-2.140625,-2.75,0.921875
1695719078057,0.3876953,-0.8435669,-0.27838135,-2.734375,-3.890625,0.34375
1695719078104,0.40234375,-0.84332275,-0.29327393,-8.578125,-3.28125,-0.515625
1695719078132,0.3984375,-0.7839966,-0.25006104,-3.140625,-3.546875,-1.390625
1695719078178,0.39111328,-0.8670044,-0.25616455,-2.46875,0.109375,1.21875
1695719078224,0.38378906,-0.8623657,-0.25250244,-3.0625,0.65625,0.90625
1695719078252,0.41625977,-0.831604,-0.26080322,-4.28125,0.53125,1.0
1695719078299,0.39282227,-0.8335571,-0.2576294,-3.3125,0.390625,0.46875
1695719078343,0.41674805,-0.82110596,-0.22930908,-2.0,-0.140625,0.421875
1695719078373,0.40966797,-0.8274536,-0.24395752,-1.9375,-0.390625,0.6875
1695719078419,0.40673828,-0.83428955,-0.24273682,0.265625,-0.921875,0.796875
1695719078448,0.4177246,-0.82525635,-0.26397705,0.0,0.78125,0.765625
1695719078493,0.36743164,-0.81256104,-0.26519775,1.28125,0.796875,1.09375
1695719078539,0.3815918,-0.8262329,-0.23370361,0.828125,1.109375,0.28125
1695719078569,0.4194336,-0.81036377,-0.15631104,0.96875,-0.84375,0.734375
1695719078613,0.4230957,-0.79034424,-0.2571411,-2.015625,-2.546875,-0.328125
1695719078658,0.40161133,-0.7490845,-0.26934814,4.4375,-6.90625,1.71875
1695719078688,0.4362793,-0.880188,-0.2678833,-0.671875,-5.546875,2.859375
1695719078734,0.41333008,-0.8496704,-0.2991333,-2.4375,-6.171875,0.6875
1695719078763,0.4189453,-0.85528564,-0.27496338,1.203125,0.53125,0.421875
1695719078808,0.4194336,-0.8970337,-0.28692627,1.015625,3.109375,-1.453125
1695719078853,0.41748047,-0.8357544,-0.23345947,3.234375,14.515625,-1.140625
1695719078882,0.49389648,-0.79278564,-0.25787354,5.65625,22.15625,-3.875
1695719078929,0.39672852,-0.67559814,-0.28131104,2.4375,11.40625,-0.96875
1695719078973,0.3881836,-0.9248657,-0.25250244,2.65625,5.203125,-0.890625
1695719079003,0.36450195,-0.82281494,-0.25909424,1.453125,3.140625,-2.015625
1695719079047,0.36523438,-0.8088989,-0.24761963,3.0625,4.421875,-0.59375
1695719079077,0.37963867,-0.8831177,-0.27618408,-1.84375,-0.515625,1.703125
1695719079123,0.41992188,-0.7546997,-0.34136963,-1.421875,-3.046875,2.25
1695719079169,0.39794922,-0.8106079,-0.32183838,1.890625,-1.984375,0.15625
1695719079213,0.42944336,-0.8110962,-0.3340454,1.515625,-0.21875,-1.109375
1695719079242,0.3942871,-0.8130493,-0.3430786,2.0,-0.4375,-1.78125
1695719079319,0.35205078,-0.8731079,-0.36187744,0.6875,10.953125,-2.796875
1695719079323,0.5344238,-0.81451416,-0.36187744,1.90625,15.390625,-4.140625
1695719079363,0.36132812,-0.8357544,-0.2859497,2.09375,1.15625,-3.4375
1695719079393,0.3239746,-0.8945923,-0.26202393,-1.90625,-9.53125,-1.15625
1695719079438,0.25683594,-0.8596802,-0.26861572,1.4375,-10.140625,-1.4375
1695719079484,0.2788086,-0.9011841,-0.36968994,-0.203125,-2.75,-0.8125
1695719079513,0.43530273,-0.7539673,-0.3731079,-5.0625,5.203125,-2.765625
1695719079558,0.5510254,-0.7383423,-0.36602783,-1.1875,0.078125,-1.5
1695719079603,0.35620117,-0.7732544,-0.3189087,1.0,-3.34375,-0.203125
1695719079632,0.33984375,-0.8032837,-0.32305908,-0.34375,-1.078125,-0.8125
1695719079678,0.36450195,-0.8049927,-0.3171997,-0.765625,1.015625,-0.640625
1695719079708,0.35668945,-0.8567505,-0.41729736,-5.265625,13.75,-1.0625
1695719079753,0.4609375,-0.8892212,-0.2852173,-6.1875,14.4375,-3.765625
1695719079799,0.30371094,-0.95635986,-0.3135376,-4.6875,-6.203125,-4.609375
1695719079827,0.36645508,-0.94195557,-0.32403564,-11.4375,-12.40625,-4.75
1695719079873,0.2355957,-0.72247314,-0.26104736,-6.65625,-11.34375,-4.890625
1695719079919,0.29858398,-0.7090454,-0.29449463,-0.265625,-3.0625,-4.203125
1695719079948,0.34448242,-0.7710571,-0.2888794,2.359375,-1.6875,-0.828125
1695719079995,0.4638672,-0.8230591,-0.30377197,2.0625,-0.171875,1.03125
1695719080023,0.39648438,-0.8723755,-0.2942505,3.46875,-5.953125,0.234375
1695719080070,0.30004883,-0.90216064,-0.28424072,1.8125,-2.65625,0.09375
1695719080113,0.30981445,-0.90802,-0.28497314,0.40625,2.21875,-1.484375
1695719080144,0.36767578,-0.9277954,-0.27130127,-3.8125,18.5625,1.765625
1695719080188,0.35620117,-0.8147583,-0.35479736,-7.34375,22.5,1.5
1695719080233,0.36279297,-0.78009033,-0.30230713,-0.171875,7.40625,-0.5
1695719080261,0.2927246,-0.8953247,-0.26519775,3.203125,-6.75,-0.46875
1695719080308,0.3244629,-0.81329346,-0.31134033,-0.3125,-6.28125,-0.140625
1695719080337,0.34301758,-0.7962036,-0.34454346,-3.09375,-7.859375,-3.34375
1695719080383,0.28759766,-0.8352661,-0.35406494,-4.515625,-3.296875,-1.671875
1695719080428,0.4416504,-0.8167114,-0.30426025,-5.859375,-0.75,-1.875
1695719080457,0.30859375,-0.847229,-0.2617798,2.375,-7.375,1.234375
1695719080504,0.3083496,-0.9170532,-0.25177002,-1.296875,-5.296875,0.53125
1695719080533,0.3737793,-0.8777466,-0.23492432,-1.625,-5.9375,0.578125
1695719080580,0.32836914,-0.87286377,-0.24249268,-0.25,-6.921875,-0.375
1695719080623,0.33398438,-0.8755493,-0.2625122,-0.453125,-4.25,-0.546875
1695719080655,0.36279297,-0.8555298,-0.25616455,-1.609375,-2.984375,1.15625
1695719080698,0.34399414,-0.8296509,-0.25567627,-0.578125,-3.34375,1.828125
1695719080743,0.3503418,-0.84259033,-0.25201416,-2.6875,-1.5625,1.609375
1695719080772,0.37646484,-0.84381104,-0.2822876,-4.875,-1.625,0.3125
1695719080818,0.38916016,-0.8491821,-0.25079346,-3.609375,-2.140625,0.234375
1695719080848,0.3701172,-0.89019775,-0.24102783,-3.15625,-5.5,0.359375
1695719080893,0.3737793,-0.8755493,-0.25616455,-5.15625,-5.875,-0.46875
1695719080939,0.3708496,-0.831604,-0.25787354,-3.765625,-4.796875,-0.1875
1695719080966,0.35791016,-0.86016846,-0.2366333,-3.390625,-4.1875,0.15625
1695719081013,0.37695312,-0.87286377,-0.22076416,-4.125,-3.765625,1.390625
1695719081058,0.39501953,-0.84942627,-0.24029541,-3.765625,-2.296875,1.84375
1695719081088,0.4206543,-0.8518677,-0.21124268,-2.0625,0.203125,2.390625
1695719081134,0.4230957,-0.9011841,-0.19854736,-1.09375,-0.671875,5.890625
1695719081162,0.4111328,-0.83258057,-0.25128174,-4.359375,-1.46875,4.5
1695719081209,0.38427734,-0.81573486,-0.21881104,-2.09375,-1.640625,2.703125
1695719081254,0.39111328,-0.86724854,-0.20172119,-4.21875,0.546875,0.671875
1695719081282,0.41992188,-0.8320923,-0.18878174,-2.71875,-1.4375,-0.09375
1695719081344,0.3947754,-0.85235596,-0.19561768,-1.859375,0.296875,0.0625
1695719081373,0.40356445,-0.8755493,-0.19439697,-1.625,1.5,0.65625
1695719081402,0.43530273,-0.8587036,-0.20562744,-0.984375,0.3125,-0.1875
1695719081449,0.41455078,-0.83551025,-0.19952393,0.578125,-1.21875,-0.171875
1695719081478,0.40283203,-0.83477783,-0.19390869,1.015625,-1.6875,-0.328125
1695719081523,0.421875,-0.83062744,-0.1963501,-0.390625,-2.09375,-0.359375
1695719081569,0.41064453,-0.8230591,-0.21588135,-0.765625,-1.5,-0.59375
1695719081598,0.38134766,-0.8399048,-0.18341064,0.265625,-0.859375,0.484375
1695719081643,0.4189453,-0.81988525,-0.20074463,-1.609375,-1.046875,-1.21875
1695719081688,0.39819336,-0.84210205,-0.16046143,2.453125,-0.421875,1.203125
1695719081718,0.38964844,-0.8130493,-0.18707275,2.40625,-0.90625,1.34375
1695719081779,0.44091797,-0.7671509,-0.24468994,3.125,-3.625,1.828125
1695719081793,0.4206543,-0.9295044,-0.21270752,1.78125,-4.171875,4.640625
1695719081838,0.4296875,-0.8748169,-0.22735596,-1.0,-1.375,1.375
1695719081883,0.45092773,-0.85162354,-0.22149658,3.03125,2.09375,-0.296875
1695719081913,0.4338379,-0.87945557,-0.22198486,4.9375,10.421875,0.828125
1695719081958,0.53344727,-0.7944946,-0.31402588,9.234375,16.3125,0.15625
1695719082003,0.38745117,-0.7022095,-0.27398682,9.46875,11.265625,2.515625
1695719082032,0.375,-0.9085083,-0.24713135,6.390625,9.6875,-1.484375
1695719082079,0.4074707,-0.84820557,-0.25567627,1.578125,5.625,-3.0
1695719082108,0.40942383,-0.83795166,-0.23394775,2.109375,5.65625,-2.25
1695719082153,0.35986328,-0.8369751,-0.2666626,0.125,3.953125,-2.03125
1695719082198,0.42895508,-0.83721924,-0.26861572,-3.046875,3.84375,-2.1875
1695719082228,0.3803711,-0.84820557,-0.2835083,-1.3125,-1.0,-2.234375
1695719082274,0.39501953,-0.80841064,-0.2774048,-0.46875,0.640625,-1.90625
1695719082318,0.43115234,-0.7786255,-0.30621338,1.703125,-2.640625,-0.828125
1695719082347,0.38256836,-0.82403564,-0.29937744,3.234375,-0.828125,-0.96875
1695719082393,0.38916016,-0.8479614,-0.31378174,3.625,5.390625,-1.8125
1695719082424,0.36987305,-0.8128052,-0.30377197,2.28125,17.453125,-2.578125
1695719082470,0.5671387,-0.7737427,-0.34039307,-0.171875,17.59375,-1.203125
1695719082513,0.19580078,-0.88848877,-0.23638916,3.890625,-4.390625,1.046875
1695719082543,0.34716797,-0.87750244,-0.30181885,-5.296875,-7.75,-1.5625
1695719082590,0.3239746,-0.7246704,-0.34869385,0.0,-7.71875,-0.4375
1695719082634,0.40844727,-0.79522705,-0.34381104,1.125,-2.484375,-2.375
1695719082662,0.4255371,-0.84625244,-0.33551025,1.3125,-2.96875,-1.1875
1695719082707,0.38256836,-0.84820557,-0.33184814,0.5,-1.921875,-2.1875
1695719082737,0.38671875,-0.8491821,-0.31402588,-0.59375,-0.5625,-0.484375
1695719082785,0.31640625,-0.87579346,-0.4031372,5.1875,17.765625,0.015625
1695719082831,0.3852539,-0.8284302,-0.2883911,-5.3125,23.796875,-0.890625
1695719082858,0.33129883,-0.81695557,-0.3640747,1.34375,9.140625,0.53125
1695719082903,0.31567383,-0.90411377,-0.27838135,-2.640625,-5.0,-0.671875
1695719082947,0.31713867,-0.7739868,-0.32769775,-7.328125,-11.375,-0.578125
1695719082979,0.38110352,-0.74176025,-0.30963135,-7.890625,-13.5,-4.625
1695719083054,0.38061523,-0.84259033,-0.31402588,-1.546875,-8.640625,-4.0625
1695719083058,0.37573242,-0.85601807,-0.31378174,-1.34375,-6.171875,-2.28125
1695719083098,0.36889648,-0.86676025,-0.3040161,-0.203125,-4.28125,-1.40625
1695719083144,0.3479004,-0.85601807,-0.28277588,-1.21875,-2.46875,0.171875
1695719083173,0.31860352,-0.85162354,-0.2732544,-0.34375,-2.140625,-0.46875
1695719083219,0.3173828,-0.8623657,-0.26861572,-1.28125,-0.828125,-1.5
1695719083294,0.37890625,-0.8440552,-0.29595947,-1.71875,1.03125,-0.484375
1695719083298,0.35961914,-0.8569946,-0.27960205,-0.46875,-1.8125,1.125
1695719083339,0.35986328,-0.8369751,-0.26275635,-1.90625,-0.671875,1.296875
1695719083368,0.36694336,-0.8508911,-0.2810669,-2.34375,-1.984375,1.421875
1695719083413,0.3527832,-0.84381104,-0.28985596,-3.53125,-1.390625,0.40625
1695719083459,0.35620117,-0.84503174,-0.286438,-4.015625,-2.625,0.21875
1695719083487,0.3552246,-0.8567505,-0.27374268,-4.5,-4.53125,0.9375
1695719083534,0.39697266,-0.84552,-0.27911377,-6.3125,-4.71875,-0.078125
1695719083578,0.4025879,-0.8377075,-0.2546997,-4.515625,-6.359375,-0.484375
1695719083608,0.37402344,-0.86968994,-0.25006104,-5.34375,-6.53125,0.359375
1695719083653,0.41381836,-0.84454346,-0.23052979,-5.5,-5.421875,-0.296875
1695719083729,0.38427734,-0.8569946,-0.24151611,-3.390625,-6.3125,1.34375
1695719083734,0.37719727,-0.8657837,-0.2263794,-4.5625,-4.0625,1.375
1695719083772,0.40698242,-0.8440552,-0.22271729,-4.15625,-1.640625,1.15625
1695719083819,0.40820312,-0.8635864,-0.20758057,-3.1875,-1.515625,2.140625
1695719083848,0.41625977,-0.86798096,-0.22686768,-6.71875,3.46875,0.203125
1695719083928,0.4177246,-0.8311157,-0.20489502,-1.109375,2.234375,1.390625
1695719083934,0.41381836,-0.8755493,-0.19683838,-1.859375,2.09375,0.765625
1695719083971,0.37719727,-0.87945557,-0.20074463,-1.53125,0.640625,1.203125
1695719084001,0.41625977,-0.83184814,-0.21759033,-1.171875,1.5,1.15625
1695719084044,0.39892578,-0.83306885,-0.20733643,-0.59375,1.75,1.21875
1695719084089,0.3894043,-0.85162354,-0.20172119,0.140625,1.03125,1.234375
1695719084118,0.41381836,-0.8262329,-0.20562744,-0.140625,0.9375,0.734375
1695719084165,0.39404297,-0.85650635,-0.20953369,1.53125,0.0625,0.453125
1695719084208,0.4267578,-0.8279419,-0.21221924,2.046875,0.421875,-0.625
1695719084238,0.39086914,-0.8291626,-0.24737549,3.0625,-0.5,-1.640625
1695719084283,0.41479492,-0.8447876,-0.20098877,0.640625,0.46875,-2.265625
1695719084329,0.39575195,-0.7996216,-0.16119385,1.46875,-2.8125,-0.578125
1695719084357,0.421875,-0.8008423,-0.21832275,-0.375,-4.328125,0.953125
1695719084404,0.4025879,-0.79107666,-0.21343994,3.234375,-4.96875,0.984375
1695719084433,0.41992188,-0.90875244,-0.21417236,0.0625,-5.140625,3.390625
1695719084478,0.43579102,-0.8760376,-0.270813,-2.8125,-4.296875,2.25
1695719084523,0.42382812,-0.8201294,-0.22442627,1.203125,-0.640625,1.0
1695719084553,0.41015625,-0.87286377,-0.20758057,2.328125,2.515625,0.421875
1695719084600,0.44433594,-0.8513794,-0.25274658,0.359375,3.875,-0.0625
1695719084627,0.4182129,-0.8377075,-0.28912354,5.140625,13.015625,1.265625
1695719084673,0.5324707,-0.7385864,-0.23077393,9.046875,17.234375,-3.078125
1695719084719,0.33544922,-0.82818604,-0.2210083,10.296875,9.390625,3.984375
1695719084748,0.33642578,-0.95318604,-0.2805786,-0.40625,6.390625,-3.328125
1695719084794,0.4165039,-0.77545166,-0.26885986,-0.59375,4.5,-1.5625
1695719084822,0.34985352,-0.8538208,-0.22369385,5.359375,0.703125,-0.125
1695719084869,0.34375,-0.8809204,-0.28399658,-3.796875,0.21875,0.9375
1695719084914,0.47265625,-0.7263794,-0.30718994,-1.59375,-0.421875,1.578125
1695719084947,0.44995117,-0.82232666,-0.2888794,2.109375,0.109375,-1.046875
1695719084989,0.39770508,-0.8303833,-0.30377197,0.296875,-2.0,-0.75
1695719085033,0.3881836,-0.8015747,-0.3340454,2.515625,5.359375,-1.1875
1695719085062,0.42211914,-0.80548096,-0.36968994,4.265625,16.78125,-2.046875
1695719085108,0.43725586,-0.6968384,-0.27667236,4.765625,16.921875,0.359375
1695719085138,0.32006836,-0.9920044,-0.28155518,1.828125,-4.59375,-2.203125
1695719085183,0.3803711,-0.8364868,-0.23321533,-3.78125,-7.515625,-2.359375
1695719085228,0.26611328,-0.803772,-0.29595947,1.203125,-11.375,-1.359375
1695719085257,0.35131836,-0.79229736,-0.32769775,0.765625,-1.90625,-2.09375
1695719085303,0.48242188,-0.80426025,-0.33843994,0.6875,2.234375,0.625
1695719085348,0.42504883,-0.81988525,-0.32818604,0.640625,-0.515625,-0.78125
1695719085378,0.41748047,-0.8152466,-0.30767822,-0.03125,-0.78125,1.125
1695719085425,0.3737793,-0.83013916,-0.36090088,0.4375,13.25,0.984375
1695719085453,0.4020996,-0.75909424,-0.36383057,-2.125,26.84375,-0.578125
1695719085498,0.36450195,-0.8521118,-0.3164673,1.65625,9.5,1.53125
1695719085543,0.33129883,-0.9492798,-0.24102783,-4.765625,-5.859375,-1.15625
1695719085573,0.2709961,-0.82525635,-0.2925415,-3.109375,-11.625,-0.71875
1695719085618,0.30810547,-0.73150635,-0.34674072,0.0,-8.015625,-3.0625
1695719085663,0.421875,-0.7781372,-0.33355713,0.6875,-2.84375,-1.90625
1695719085692,0.43676758,-0.8147583,-0.34674072,1.484375,-5.171875,-1.0
1695719085738,0.39892578,-0.8262329,-0.32891846,1.40625,-3.09375,-0.484375
1695719085768,0.35351562,-0.8323364,-0.32086182,0.015625,1.234375,-0.359375
1695719085814,0.3659668,-0.86065674,-0.37042236,-2.875,14.640625,2.28125
1695719085859,0.3737793,-0.80133057,-0.25250244,-8.46875,19.890625,-0.78125
1695719085888,0.3737793,-0.81573486,-0.28179932,0.53125,-2.09375,1.140625
1695719085933,0.31689453,-0.9295044,-0.33013916,-2.828125,-1.15625,-0.25
1695719085978,0.3190918,-0.7576294,-0.333313,-4.484375,-6.890625,2.3125
1695719086007,0.36767578,-0.798645,-0.32037354,-0.28125,-9.765625,-3.390625
1695719086052,0.3930664,-0.8460083,-0.3201294,0.921875,-7.703125,-0.53125
1695719086083,0.37060547,-0.8274536,-0.3357544,-1.171875,-6.828125,-2.359375
1695719086129,0.36157227,-0.81378174,-0.31304932,-1.203125,-5.9375,-3.015625
1695719086174,0.38500977,-0.8267212,-0.29180908,-2.0625,-4.84375,-2.0625
1695719086202,0.3618164,-0.8496704,-0.26519775,-1.0,-4.75,-1.515625
1695719086248,0.35424805,-0.85894775,-0.2876587,-1.546875,-3.25,-0.875
1695719086295,0.38134766,-0.8335571,-0.2786255,-1.90625,-1.875,0.46875
1695719086323,0.40356445,-0.8164673,-0.28009033,-1.203125,-0.546875,0.9375
1695719086368,0.36254883,-0.8430786,-0.27374268,-1.0,-0.84375,1.71875
1695719086397,0.38598633,-0.82232666,-0.2962036,-4.359375,-0.40625,0.046875
1695719086446,0.38378906,-0.817688,-0.29571533,-3.828125,-1.828125,-0.296875
1695719086488,0.38134766,-0.829895,-0.28399658,-2.09375,-3.1875,-0.703125
1695719086517,0.38745117,-0.84625244,-0.2678833,-1.296875,-2.921875,-0.234375
1695719086563,0.37060547,-0.8701782,-0.26031494,-3.125,-3.640625,0.65625
1695719086611,0.38891602,-0.84259033,-0.26397705,-5.734375,-4.5625,0.03125
1695719086638,0.3955078,-0.8130493,-0.27520752,-4.546875,-6.8125,-1.234375
1695719086683,0.4013672,-0.84552,-0.24664307,-3.296875,-7.171875,0.0625
1695719086713,0.3840332,-0.86846924,-0.25128174,-4.875,-5.28125,0.21875
1695719086758,0.41235352,-0.8508911,-0.24517822,-5.703125,-2.390625,0.875
1695719086805,0.41796875,-0.8442993,-0.21954346,-5.59375,-1.515625,1.484375
1695719086832,0.3930664,-0.8362427,-0.22564697,-4.734375,-2.5,0.78125
1695719086894,0.39160156,-0.85479736,-0.18536377,-5.515625,-0.390625,0.796875
1695719086924,0.4296875,-0.8272095,-0.1765747,-3.40625,-0.984375,0.9375
1695719086953,0.42651367,-0.8569946,-0.18658447,-3.03125,0.625,1.828125
1695719087000,0.3984375,-0.861145,-0.21685791,-3.859375,-0.03125,1.15625
1695719087028,0.42919922,-0.84259033,-0.20635986,-3.71875,1.203125,0.59375
1695719087073,0.39648438,-0.8460083,-0.22589111,-2.515625,-0.59375,-0.015625
1695719087119,0.40698242,-0.8257446,-0.20513916,-2.34375,2.140625,-0.765625
1695719087149,0.42529297,-0.84088135,-0.17877197,-0.015625,0.578125,0.703125
1695719087194,0.41479492,-0.8115845,-0.18658447,2.421875,0.75,-1.15625
1695719087238,0.4482422,-0.8464966,-0.19244385,1.8125,-0.171875,-0.03125
1695719087267,0.4296875,-0.8413696,-0.16802979,-1.25,0.0625,-0.8125
1695719087314,0.38598633,-0.8401489,-0.14898682,0.328125,-3.0,0.40625
1695719087343,0.39794922,-0.817688,-0.19293213,-1.09375,-4.015625,-0.21875
1695719087388,0.4194336,-0.74957275,-0.15264893,6.296875,-6.578125,2.75
1695719087433,0.4338379,-0.8064575,-0.32110596,5.328125,-5.4375,4.0625
1695719087462,0.41870117,-0.9326782,-0.26470947,2.265625,-4.03125,4.859375
1695719087509,0.46435547,-0.89263916,-0.20123291,1.359375,-0.296875,2.046875
1695719087583,0.45385742,-0.8245239,-0.20123291,1.578125,2.515625,1.515625
1695719087588,0.4284668,-0.84747314,-0.26226807,2.9375,11.546875,0.8125
1695719087627,0.50561523,-0.7776489,-0.23760986,8.109375,13.90625,0.1875
1695719087658,0.4675293,-0.6980591,-0.2600708,8.453125,11.765625,-0.203125
1695719087703,0.37939453,-0.9421997,-0.2354126,5.546875,7.59375,-2.3125
1695719087747,0.41015625,-0.835022,-0.18121338,-1.578125,6.078125,-4.234375
1695719087778,0.42895508,-0.7842407,-0.2276001,0.265625,0.25,-2.34375
1695719087823,0.32788086,-0.9312134,-0.22003174,2.28125,-1.921875,0.984375
1695719087869,0.41381836,-0.8069458,-0.30889893,-2.6875,-0.1875,2.453125
1695719087901,0.45654297,-0.74591064,-0.315979,-0.21875,0.1875,-0.140625
1695719087942,0.46362305,-0.8152466,-0.28668213,2.078125,-0.046875,-0.296875
1695719087971,0.40966797,-0.83380127,-0.31207275,2.140625,0.25,-0.890625
1695719088019,0.42236328,-0.87628174,-0.42730713,6.015625,15.453125,-1.421875
1695719088066,0.53027344,-0.7468872,-0.33599854,-0.90625,20.28125,-3.296875
1695719088094,0.37646484,-0.7954712,-0.25933838,6.09375,1.421875,-2.265625
1695719088138,0.33203125,-0.9446411,-0.24176025,-1.734375,-7.78125,-4.125
1695719088183,0.24975586,-0.8208618,-0.28448486,-0.875,-9.765625,0.15625
1695719088213,0.36328125,-0.79107666,-0.34210205,1.671875,-4.828125,-1.03125
1695719088258,0.48388672,-0.7605591,-0.35845947,0.859375,1.59375,0.453125
1695719088287,0.4819336,-0.8118286,-0.32086182,2.1875,-1.53125,-0.96875
1695719088333,0.44750977,-0.79522705,-0.31036377,0.390625,-1.65625,0.5625
1695719088379,0.36206055,-0.8106079,-0.3262329,-0.71875,-1.046875,-1.0
1695719088408,0.42211914,-0.80133057,-0.33966064,0.203125,12.21875,0.828125
1695719088453,0.36645508,-0.81915283,-0.35235596,-1.984375,22.34375,-0.546875
1695719088499,0.41601562,-0.74298096,-0.31573486,-1.234375,16.296875,-0.28125
1695719088528,0.3154297,-0.9116821,-0.2637329,-1.703125,-2.921875,0.078125
1695719088573,0.29907227,-0.86505127,-0.3250122,-3.390625,-10.0625,1.5625
1695719088603,0.33691406,-0.73638916,-0.33111572,-0.484375,-11.28125,-0.34375
1695719088650,0.4387207,-0.7632446,-0.34918213,-0.5625,-4.484375,-4.203125
1695719088693,0.45776367,-0.8076782,-0.30914307,2.671875,-5.265625,-1.171875
1695719088723,0.4169922,-0.8101196,-0.3086548,-0.21875,-2.0625,0.109375
1695719088772,0.38232422,-0.81378174,-0.33233643,-0.28125,0.796875,-0.515625
1695719088798,0.421875,-0.79107666,-0.3291626,0.625,8.203125,0.0625
1695719088843,0.33984375,-0.7930298,-0.32965088,0.640625,17.234375,-1.140625
1695719088888,0.45239258,-0.7896118,-0.36553955,0.15625,10.828125,0.28125
1695719088919,0.26611328,-0.91973877,-0.32403564,0.21875,-6.96875,-2.609375
1695719088963,0.36645508,-0.8045044,-0.2954712,-4.234375,-7.25,0.53125
1695719089008,0.3479004,-0.7337036,-0.3086548,-4.328125,-7.375,-3.0
1695719089037,0.39770508,-0.8189087,-0.33111572,-3.046875,-5.515625,-4.8125
1695719089082,0.42504883,-0.829895,-0.32232666,-4.3125,-5.515625,-0.359375
1695719089112,0.39013672,-0.81500244,-0.33184814,-3.28125,-4.34375,-1.265625
1695719089158,0.38012695,-0.82525635,-0.3110962,-3.25,-3.15625,-1.375
1695719089203,0.37890625,-0.8320923,-0.2781372,-1.90625,-4.5625,-1.34375
1695719089232,0.3527832,-0.8430786,-0.2871704,-1.453125,-3.59375,-3.0
1695719089279,0.38183594,-0.85284424,-0.27520752,-1.375,-2.5625,-1.78125
1695719089324,0.38476562,-0.8286743,-0.26739502,-1.375,-2.4375,0.171875
1695719089352,0.34204102,-0.8491821,-0.24835205,-0.890625,-2.984375,0.15625
1695719089398,0.36157227,-0.8430786,-0.28497314,-2.4375,-1.71875,-0.859375
1695719089458,0.38427734,-0.8225708,-0.26446533,-2.890625,-1.375,0.109375
1695719089473,0.40063477,-0.84039307,-0.27301025,-3.03125,-2.46875,-0.25
1695719089518,0.37475586,-0.8687134,-0.284729,-4.140625,-4.84375,1.234375
1695719089547,0.3942871,-0.85406494,-0.28131104,-6.375,-4.203125,1.28125
1695719089593,0.4206543,-0.81451416,-0.25689697,-5.0625,-5.5625,0.078125
1695719089638,0.41357422,-0.8320923,-0.28179932,-4.34375,-6.0,0.734375
1695719089668,0.39794922,-0.8526001,-0.24395752,-3.4375,-4.453125,0.28125
1695719089713,0.41064453,-0.8677368,-0.22027588,-4.890625,-2.671875,1.125
1695719089743,0.42333984,-0.8440552,-0.23394775,-5.53125,-2.28125,1.921875
1695719089789,0.42089844,-0.8399048,-0.24908447,-5.5,-0.46875,1.328125
1695719089834,0.41455078,-0.8423462,-0.20758057,-3.984375,-0.265625,1.265625
1695719089863,0.4255371,-0.84039307,-0.21051025,-5.484375,0.671875,0.109375
1695719089908,0.4345703,-0.83843994,-0.18365479,-1.53125,1.34375,2.0
1695719089955,0.42700195,-0.86676025,-0.20147705,-3.09375,-0.703125,2.6875
1695719089984,0.4074707,-0.8467407,-0.23223877,-2.71875,0.234375,2.875
1695719090028,0.40942383,-0.80010986,-0.22003174,-0.78125,1.640625,1.140625
1695719090058,0.42919922,-0.82403564,-0.20684814,0.421875,2.4375,0.6875
1695719090105,0.44189453,-0.84454346,-0.23516846,-0.046875,1.421875,0.0
1695719090151,0.4597168,-0.80133057,-0.19390869,1.796875,1.328125,-1.21875
1695719090178,0.43823242,-0.84161377,-0.1951294,1.421875,0.109375,0.0625
1695719090225,0.42944336,-0.8274536,-0.2107544,-0.375,0.28125,-1.0625
1695719090268,0.41918945,-0.81329346,-0.19268799,-0.78125,-0.984375,-1.046875
1695719090298,0.41967773,-0.81036377,-0.19049072,0.578125,-3.171875,-1.4375
1695719090344,0.42895508,-0.8098755,-0.17218018,2.3125,-3.21875,-0.09375
1695719090373,0.41357422,-0.75372314,-0.26861572,5.4375,-1.90625,0.53125
1695719090418,0.41625977,-0.83966064,-0.23956299,1.015625,-3.859375,2.453125
1695719090463,0.44702148,-0.9768677,-0.24810791,-1.203125,-5.921875,2.0625
1695719090492,0.47460938,-0.8167114,-0.2210083,2.1875,-1.8125,-0.078125
1695719090540,0.43725586,-0.8442993,-0.20831299,3.09375,4.21875,1.40625
1695719090584,0.47460938,-0.8567505,-0.31573486,4.6875,10.578125,-0.203125
1695719090628,0.5551758,-0.75250244,-0.28692627,4.359375,21.4375,0.25
1695719090658,0.35253906,-0.7803345,-0.25201416,6.578125,7.8125,-0.4375
1695719090691,0.37231445,-0.9143677,-0.2131958,2.78125,6.84375,-1.171875
1695719090733,0.36938477,-0.77178955,-0.23614502,-0.421875,3.15625,0.3125
1695719090778,0.3322754,-0.8670044,-0.26983643,0.3125,-1.375,-2.109375
1695719090809,0.46533203,-0.7888794,-0.2810669,-0.953125,-0.734375,-0.34375
1695719090853,0.501709,-0.80255127,-0.29327393,1.234375,-2.65625,-1.984375
1695719090897,0.46020508,-0.8401489,-0.27008057,-0.328125,-1.875,-0.015625
1695719090928,0.39135742,-0.8088989,-0.2942505,1.03125,4.890625,-0.625
1695719090974,0.38745117,-0.78375244,-0.41412354,3.015625,16.3125,-1.1875
1695719091002,0.4716797,-0.69122314,-0.22711182,3.953125,17.640625,-1.34375
1695719091049,0.3046875,-0.9351196,-0.25250244,6.734375,0.21875,-1.890625
1695719091093,0.3701172,-0.881897,-0.28936768,-4.1875,-3.1875,-0.84375
1695719091123,0.37646484,-0.82354736,-0.2781372,1.171875,-6.59375,-1.640625
1695719091169,0.3701172,-0.79351807,-0.30108643,1.625,-8.203125,-1.9375
1695719091214,0.46801758,-0.75201416,-0.33770752,-1.203125,0.234375,0.890625
1695719091243,0.46166992,-0.8118286,-0.34381104,1.4375,-1.875,-0.578125
1695719091288,0.39819336,-0.8045044,-0.317688,0.203125,-1.5,1.15625
1695719091317,0.38598633,-0.7798462,-0.3250122,-0.015625,3.25,-0.53125
1695719091363,0.42089844,-0.8389282,-0.44244385,2.21875,12.0,-0.921875
1695719091408,0.453125,-0.7593384,-0.27178955,1.46875,20.5,-1.203125
1695719091438,0.33374023,-0.8899536,-0.29229736,5.203125,2.203125,-2.46875
1695719091499,0.3762207,-0.91778564,-0.26690674,-2.84375,-4.8125,-3.640625
1695719091558,0.32910156,-0.7954712,-0.29962158,-6.15625,-10.140625,0.375
1695719091563,0.35253906,-0.723938,-0.33624268,-2.140625,-9.265625,-4.4375
1695719091603,0.41186523,-0.79156494,-0.33746338,1.40625,-2.25,0.46875
1695719091632,0.42260742,-0.833313,-0.32867432,-0.421875,-0.8125,-1.5625
1695719091678,0.4128418,-0.8130493,-0.33355713,-1.15625,-0.421875,0.328125
1695719091725,0.37573242,-0.8381958,-0.30963135,-1.296875,10.03125,0.578125
1695719091752,0.3503418,-0.77838135,-0.36553955,-2.53125,16.828125,0.109375
1695719091798,0.4638672,-0.75860596,-0.28375244,-4.984375,13.46875,-2.078125
1695719091843,0.24926758,-0.92559814,-0.24420166,2.875,-11.046875,-4.546875
1695719091888,0.32250977,-0.8677368,-0.34259033,-5.296875,-5.21875,0.453125
1695719091921,0.37817383,-0.7402954,-0.31158447,-4.84375,-8.03125,-2.53125
1695719092009,0.3798828,-0.8052368,-0.30303955,-2.25,-9.90625,-3.640625
1695719092013,0.38110352,-0.85821533,-0.30548096,-0.703125,-6.484375,-1.390625
1695719092037,0.39086914,-0.8225708,-0.31036377,-2.15625,-1.6875,-1.046875
1695719092070,0.39941406,-0.82891846,-0.29107666,-1.71875,-2.75,-0.265625
1695719092114,0.34643555,-0.82159424,-0.2720337,-1.328125,-3.859375,-0.796875
1695719092191,0.35009766,-0.8640747,-0.2654419,-1.125,-3.78125,-1.859375
1695719092194,0.37646484,-0.87579346,-0.27764893,-1.890625,-1.109375,-1.015625
1695719092232,0.41235352,-0.85113525,-0.29083252,-1.421875,-0.609375,1.671875
1695719092263,0.35791016,-0.83135986,-0.25372314,0.25,-1.453125,2.65625
1695719092307,0.3852539,-0.8352661,-0.28179932,-2.15625,-2.296875,1.265625
1695719092353,0.3894043,-0.815979,-0.29156494,-2.1875,-1.421875,0.703125
1695719092383,0.4025879,-0.829895,-0.28277588,-1.03125,-1.34375,0.75
1695719092430,0.390625,-0.8621216,-0.25787354,-0.15625,-2.296875,1.265625
1695719092473,0.39208984,-0.87042236,-0.2835083,-3.375,-2.203125,1.453125
1695719092503,0.38500977,-0.8057251,-0.26226807,-5.25,-2.84375,0.734375
1695719092548,0.39819336,-0.82159424,-0.2564087,-4.859375,-4.0625,0.4375
1695719092578,0.4099121,-0.83917236,-0.25958252,-5.53125,-3.203125,0.796875
1695719092624,0.4140625,-0.8423462,-0.2420044,-4.625,-3.296875,0.625
1695719092668,0.4230957,-0.83966064,-0.23443604,-4.96875,-2.6875,1.3125
1695719092696,0.3918457,-0.85113525,-0.24176025,-5.734375,-2.703125,1.15625
1695719092746,0.4099121,-0.85650635,-0.21710205,-5.359375,-0.9375,2.234375
1695719092788,0.43286133,-0.84210205,-0.21759033,-6.828125,0.171875,1.078125
1695719092819,0.4345703,-0.83135986,-0.20025635,-2.953125,2.21875,2.171875
1695719092863,0.42919922,-0.8484497,-0.2041626,-4.390625,0.515625,0.953125
1695719092893,0.4375,-0.84503174,-0.21490479,-5.609375,1.1875,-0.609375
1695719092940,0.48535156,-0.8057251,-0.20025635,-6.125,1.78125,-1.734375
1695719092984,0.41479492,-0.8440552,-0.19488525,-5.34375,-0.140625,-2.390625
1695719093013,0.40576172,-0.83721924,-0.20050049,-2.125,-1.953125,-1.953125
1695719093058,0.38720703,-0.8423462,-0.1765747,-0.703125,-1.875,-0.828125
1695719093088,0.41259766,-0.8550415,-0.19049072,-0.796875,-1.296875,0.15625
1695719093133,0.40942383,-0.8467407,-0.17999268,0.375,-1.109375,-0.359375
1695719093178,0.41015625,-0.7908325,-0.16461182,0.53125,-3.21875,-1.96875
1695719093209,0.3942871,-0.8308716,-0.15924072,1.75,-0.953125,1.0625
1695719093253,0.44970703,-0.800354,-0.18511963,4.265625,-3.421875,0.9375
1695719093298,0.44873047,-0.7749634,-0.2510376,4.1875,-5.046875,1.46875
1695719093343,0.4362793,-0.9314575,-0.20147705,-0.015625,-8.8125,4.265625
1695719093372,0.4091797,-0.9048462,-0.19952393,-0.96875,-5.640625,1.15625
1695719093403,0.43017578,-0.8279419,-0.17901611,3.109375,-2.0625,1.234375
1695719093449,0.42797852,-0.87286377,-0.18511963,1.78125,3.09375,1.34375
1695719093494,0.50219727,-0.8538208,-0.28082275,6.046875,7.140625,2.734375
1695719093522,0.51342773,-0.75372314,-0.1897583,7.921875,11.578125,0.9375
1695719093568,0.33911133,-0.8501587,-0.19927979,9.734375,6.859375,4.0
1695719093613,0.39208984,-0.8899536,-0.24664307,-0.71875,7.90625,-1.9375
1695719093642,0.4658203,-0.755188,-0.17828369,-2.421875,4.515625,-0.53125
1695719093688,0.39916992,-0.8374634,-0.21954346,0.453125,0.4375,-1.5625
1695719093717,0.43286133,-0.8826294,-0.24371338,-0.859375,-0.796875,-1.390625
1695719093762,0.49853516,-0.76226807,-0.27496338,-2.9375,1.234375,-0.359375
1695719093808,0.47143555,-0.803772,-0.26348877,-0.109375,-0.984375,-1.984375
1695719093838,0.42260742,-0.8213501,-0.25079346,0.90625,-2.015625,-1.34375
1695719093883,0.40649414,-0.80303955,-0.31378174,2.484375,1.546875,-1.96875
1695719093928,0.5058594,-0.8374634,-0.32769775,7.625,18.859375,-1.140625
1695719093958,0.48486328,-0.755188,-0.20635986,3.640625,11.4375,1.8125
1695719094005,0.33032227,-0.94537354,-0.21343994,6.28125,-0.5625,1.578125
1695719094034,0.36865234,-0.9048462,-0.1963501,-4.125,-5.25,-0.5
1695719094078,0.31103516,-0.78302,-0.26617432,-1.921875,-7.84375,-1.90625
1695719094123,0.41357422,-0.75177,-0.28253174,-2.578125,-2.421875,-3.25
1695719094152,0.5012207,-0.8152466,-0.2871704,-0.546875,-0.796875,-0.765625
1695719094197,0.46191406,-0.8196411,-0.28570557,-0.921875,-0.578125,-1.1875
1695719094243,0.44213867,-0.8093872,-0.26934814,-0.140625,-1.09375,-0.046875
1695719094272,0.42089844,-0.8115845,-0.28326416,0.125,1.59375,-1.640625
1695719094319,0.4050293,-0.8713989,-0.38848877,2.515625,12.28125,-3.234375
1695719094347,0.47631836,-0.8015747,-0.22515869,-1.1875,10.40625,-3.765625
1695719094393,0.28759766,-0.9199829,-0.2805786,1.21875,-2.6875,-3.859375
1695719094438,0.34179688,-0.91778564,-0.21612549,-2.171875,-2.203125,-2.8125
1695719094468,0.3564453,-0.7661743,-0.29278564,-7.015625,-1.8125,-1.578125
1695719094515,0.41796875,-0.73394775,-0.26593018,-4.109375,-4.484375,-3.578125
1695719094574,0.43945312,-0.833313,-0.26519775,0.21875,-2.609375,-2.28125
1695719094587,0.40478516,-0.8250122,-0.27520752,-1.15625,-1.234375,-2.234375
1695719094634,0.43237305,-0.84625244,-0.2649536,-0.78125,-1.265625,-1.28125
1695719094663,0.32763672,-0.8596802,-0.28277588,0.3125,1.34375,-1.46875
1695719094710,0.39648438,-0.84552,-0.28692627,5.59375,17.53125,-4.78125
1695719094755,0.44750977,-0.8074341,-0.28497314,-1.140625,10.25,-2.546875
1695719094782,0.2902832,-0.9258423,-0.2600708,3.5,-4.15625,-0.609375
1695719094829,0.28564453,-0.8989868,-0.26275635,-3.75,0.421875,-0.046875
1695719094874,0.35546875,-0.77789307,-0.28546143,-7.8125,-3.421875,-1.546875
1695719094903,0.44433594,-0.8286743,-0.2852173,-6.21875,-3.140625,-2.609375
1695719094948,0.39672852,-0.8296509,-0.25665283,-1.890625,-4.40625,0.515625
1695719094977,0.36328125,-0.83721924,-0.27764893,-0.640625,-4.0,-0.484375
1695719095024,0.3696289,-0.8850708,-0.2498169,-2.484375,-2.109375,-1.09375
1695719095069,0.35131836,-0.8635864,-0.25787354,-2.203125,-1.875,-0.9375
1695719095098,0.34423828,-0.8621216,-0.2539673,-1.140625,-2.25,-1.0
1695719095143,0.36791992,-0.87213135,-0.24346924,-0.625,-1.84375,-1.03125
1695719095190,0.37548828,-0.8555298,-0.23565674,-0.609375,-0.625,-0.015625
1695719095217,0.3581543,-0.83306885,-0.22979736,-1.203125,0.015625,1.0625
1695719095263,0.3779297,-0.85113525,-0.2341919,-2.390625,0.3125,1.421875
1695719095293,0.36791992,-0.87701416,-0.24371338,-3.515625,0.90625,0.78125
1695719095337,0.38110352,-0.86187744,-0.27178955,-5.875,0.71875,1.140625
1695719095382,0.4152832,-0.835022,-0.25372314,-3.484375,-0.90625,1.625
1695719095412,0.3786621,-0.84454346,-0.23712158,-2.453125,-1.328125,0.3125
1695719095458,0.3701172,-0.8521118,-0.2300415,-2.65625,-1.96875,1.46875
1695719095502,0.40161133,-0.84698486,-0.22784424,-3.90625,-2.265625,0.984375
1695719095533,0.4038086,-0.8538208,-0.22076416,-1.484375,-4.328125,1.328125
1695719095579,0.4116211,-0.8521118,-0.23345947,-3.5,-1.671875,2.59375
1695719095608,0.4267578,-0.84942627,-0.21612549,-1.921875,-1.984375,1.28125
1695719095653,0.3864746,-0.8706665,-0.20831299,-1.890625,-2.375,1.734375
1695719095698,0.41748047,-0.82940674,-0.24224854,-2.625,-3.9375,1.71875
1695719095728,0.37646484,-0.8718872,-0.19195557,-2.796875,-0.109375,1.890625
1695719095774,0.39892578,-0.88409424,-0.2000122,-3.234375,-1.5,1.578125
1695719095849,0.44604492,-0.8357544,-0.21295166,-0.34375,-1.40625,2.640625
1695719095854,0.41088867,-0.8245239,-0.22271729,0.859375,-1.140625,2.46875
1695719095893,0.42626953,-0.83966064,-0.22198486,0.40625,0.390625,2.15625
1695719095922,0.4362793,-0.82403564,-0.20806885,-0.046875,0.65625,1.71875
1695719095969,0.41333008,-0.8362427,-0.21343994,1.890625,0.625,1.40625
1695719096013,0.45166016,-0.8230591,-0.20880127,0.578125,1.015625,0.75
1695719096045,0.43041992,-0.8274536,-0.2053833,0.328125,0.125,1.375
1695719096090,0.4140625,-0.83599854,-0.19610596,-1.03125,-0.578125,-0.890625
1695719096134,0.44555664,-0.75177,-0.19708252,-1.390625,-2.4375,-1.9375
1695719096163,0.45703125,-0.80303955,-0.21002197,0.875,-2.359375,1.609375
1695719096209,0.42504883,-0.7998657,-0.2420044,2.359375,-6.296875,-0.703125
1695719096238,0.44726562,-0.8411255,-0.21954346,1.078125,-7.125,0.78125
1695719096285,0.42382812,-0.90216064,-0.21710205,-1.375,-4.515625,0.34375
1695719096328,0.42993164,-0.8357544,-0.19952393,2.015625,-0.90625,-0.953125
1695719096358,0.4555664,-0.8574829,-0.23175049,2.4375,3.796875,-0.765625
1695719096403,0.4741211,-0.83380127,-0.31549072,6.359375,12.265625,0.328125
1695719096449,0.50439453,-0.710022,-0.24713135,8.03125,14.21875,-2.71875
1695719096477,0.3486328,-0.84869385,-0.20684814,9.625,6.625,-1.3125
1695719096522,0.38549805,-0.925354,-0.22930908,0.171875,3.171875,-1.90625
1695719096552,0.3852539,-0.7793579,-0.24493408,-0.46875,4.203125,0.21875
1695719096599,0.38208008,-0.8792114,-0.23077393,1.0,-0.09375,-0.9375
1695719096644,0.44799805,-0.8040161,-0.28619385,-2.75,0.453125,0.796875
1695719096673,0.45336914,-0.81036377,-0.2942505,-1.90625,0.59375,-1.203125
1695719096718,0.4020996,-0.79278564,-0.27471924,-0.03125,-1.40625,-0.875
1695719096765,0.3959961,-0.81256104,-0.3015747,1.234375,1.8125,-1.5
1695719096792,0.4404297,-0.7871704,-0.43096924,4.90625,6.546875,-3.8125
1695719096838,0.45166016,-0.7666626,-0.19000244,7.03125,9.65625,-3.734375
1695719096868,0.31225586,-0.9221802,-0.24005127,5.046875,-0.546875,-4.03125
1695719096913,0.38891602,-0.87750244,-0.19122314,-1.09375,-4.0625,-2.328125
1695719096960,0.28027344,-0.86553955,-0.24932861,-3.359375,-8.171875,-2.984375
1695719096987,0.36572266,-0.7764282,-0.2883911,-1.890625,-3.609375,-0.75
1695719097034,0.47460938,-0.80474854,-0.3045044,-1.25,-0.53125,-0.4375
1695719097061,0.4140625,-0.84259033,-0.300354,-0.828125,-0.78125,-1.40625
1695719097139,0.41845703,-0.819397,-0.2930298,-1.71875,0.859375,0.578125
1695719097153,0.3720703,-0.80352783,-0.38165283,6.65625,13.34375,-0.9375
1695719097185,0.4572754,-0.847229,-0.29400635,1.1875,15.078125,-4.84375
1695719097228,0.37475586,-0.81744385,-0.30059814,-0.203125,0.390625,-3.1875
1695719097273,0.2800293,-0.93585205,-0.21466064,-1.0625,-7.140625,-1.578125
1695719097303,0.29467773,-0.8701782,-0.28155518,-6.984375,-7.515625,0.8125
1695719097348,0.34716797,-0.7859497,-0.31744385,-4.25,-11.296875,-1.921875
1695719097378,0.44384766,-0.82281494,-0.30059814,-2.6875,-0.453125,0.0
1695719097423,0.44018555,-0.82769775,-0.27911377,-1.953125,-0.75,-0.703125
1695719097468,0.40014648,-0.82354736,-0.29864502,-3.34375,-0.5,0.421875
1695719097497,0.39453125,-0.8118286,-0.2732544,-3.125,-0.40625,-0.359375
1695719097543,0.3828125,-0.8279419,-0.3250122,1.71875,8.625,-1.0
1695719097588,0.37646484,-0.87677,-0.24932861,-2.359375,17.390625,-5.40625
1695719097617,0.47192383,-0.79400635,-0.29180908,-4.8125,4.515625,-1.875
1695719097665,0.22363281,-0.9277954,-0.20147705,1.359375,-7.625,-2.359375
1695719097693,0.30517578,-0.8760376,-0.28790283,-7.984375,-4.734375,2.03125
1695719097739,0.3762207,-0.76690674,-0.2630005,-6.34375,-7.921875,-1.90625
1695719097784,0.38598633,-0.8442993,-0.26983643,-2.1875,-5.65625,-2.859375
1695719097814,0.38916016,-0.85162354,-0.27398682,-2.734375,-2.375,-2.5
1695719097858,0.40673828,-0.8374634,-0.25128174,-1.53125,0.125,-0.0625
1695719097903,0.3540039,-0.86431885,-0.24005127,0.25,-1.71875,1.25
1695719097932,0.32861328,-0.8726196,-0.2197876,0.296875,-1.4375,0.15625
1695719097993,0.35351562,-0.8694458,-0.24249268,-0.328125,-0.375,-0.09375
1695719098009,0.35668945,-0.8674927,-0.25787354,-0.734375,-0.171875,-0.4375
1695719098054,0.36645508,-0.8513794,-0.2119751,0.28125,-1.40625,1.796875
1695719098098,0.3762207,-0.8648071,-0.22296143,-0.125,-1.84375,1.921875
1695719098127,0.3474121,-0.85406494,-0.25958252,-1.859375,0.109375,0.96875
1695719098172,0.40795898,-0.8557739,-0.2522583,-3.0625,0.203125,0.71875
1695719098218,0.37963867,-0.85479736,-0.25274658,-1.734375,-0.984375,0.0625
1695719098247,0.375,-0.86431885,-0.23687744,-2.859375,0.28125,0.390625
1695719098293,0.38745117,-0.8755493,-0.20025635,-5.609375,0.78125,-1.203125
1695719098323,0.41748047,-0.8381958,-0.2756958,-7.359375,-2.328125,-1.3125
1695719098369,0.38891602,-0.8435669,-0.2144165,-5.578125,-3.46875,-0.4375
1695719098412,0.3623047,-0.8567505,-0.22393799,-5.375,-3.453125,-1.078125
1695719098442,0.36669922,-0.8899536,-0.19903564,-4.984375,-1.546875,-0.40625
1695719098489,0.38916016,-0.8694458,-0.19683838,-6.296875,0.671875,-1.875
1695719098534,0.37939453,-0.84552,-0.17218018,-1.4375,-1.515625,-1.078125
1695719098562,0.39868164,-0.8652954,-0.18365479,-2.15625,0.59375,-1.40625
1695719098608,0.40185547,-0.847229,-0.19854736,-0.078125,0.984375,-1.03125
1695719098654,0.4050293,-0.8858032,-0.1506958,1.4375,-1.578125,-0.640625
1695719098682,0.39794922,-0.83795166,-0.1885376,1.328125,-3.53125,-1.5625
1695719098729,0.39648438,-0.8369751,-0.206604,2.296875,-3.140625,-2.359375
1695719098758,0.37304688,-0.8284302,-0.18511963,3.90625,-4.71875,-2.265625
1695719098805,0.3774414,-0.850647,-0.24859619,3.640625,-1.890625,-2.09375
1695719098847,0.390625,-0.85821533,-0.20245361,3.265625,-0.046875,-2.875
1695719098879,0.35302734,-0.88653564,-0.19122314,4.09375,-1.984375,-2.734375
1695719098924,0.38110352,-0.86920166,-0.23516846,2.109375,-3.328125,-3.484375
1695719098952,0.39892578,-0.8591919,-0.20953369,2.984375,-4.734375,-3.125
1695719098998,0.36010742,-0.8765259,-0.20147705,2.671875,-6.015625,-2.515625
1695719099044,0.37353516,-0.8530884,-0.2107544,1.265625,-4.796875,-2.828125
1695719099072,0.38232422,-0.84820557,-0.237854,4.453125,-11.0,-1.375
1695719099118,0.34838867,-0.87628174,-0.20489502,4.78125,-11.6875,-1.875
1695719099164,0.3400879,-0.8845825,-0.2366333,4.265625,-9.390625,-1.5
1695719099191,0.34887695,-0.86138916,-0.21173096,4.734375,-7.171875,-0.6875
1695719099239,0.39013672,-0.87042236,-0.21710205,3.140625,-5.046875,-1.5
1695719099268,0.3618164,-0.85723877,-0.21124268,3.25,-4.8125,-1.578125
1695719099313,0.36987305,-0.8550415,-0.21417236,2.0,-2.40625,-1.9375
1695719099358,0.38012695,-0.86383057,-0.22174072,2.25,-4.046875,-1.25
1695719099387,0.38378906,-0.8723755,-0.23199463,1.96875,-3.71875,-0.9375
1695719099433,0.34350586,-0.8723755,-0.23614502,2.21875,-1.71875,-0.796875
1695719099478,0.37573242,-0.8526001,-0.2390747,0.640625,0.859375,-1.390625
1695719099508,0.35229492,-0.85357666,-0.23614502,2.140625,0.5625,-0.90625
1695719099568,0.3684082,-0.85528564,-0.25567627,1.078125,1.34375,-1.1875
1695719099583,0.37939453,-0.85650635,-0.2432251,0.390625,2.328125,-1.6875
1695719099629,0.35424805,-0.87579346,-0.23931885,1.140625,2.4375,-2.1875
1695719099689,0.3491211,-0.86968994,-0.25152588,0.890625,2.671875,-1.703125
1695719099702,0.3395996,-0.8723755,-0.23590088,0.203125,3.921875,-1.71875
1695719099749,0.3647461,-0.8699341,-0.23931885,-0.875,3.046875,-0.6875
1695719099796,0.3713379,-0.8477173,-0.2571411,-1.5,3.390625,-0.71875
1695719099823,0.36889648,-0.83966064,-0.24835205,-1.140625,1.65625,-0.734375
1695719099869,0.38305664,-0.8718872,-0.23614502,-1.953125,0.671875,-0.828125
1695719099898,0.38256836,-0.8599243,-0.2498169,-1.625,-1.09375,-0.671875
1695719099944,0.36499023,-0.85113525,-0.24151611,-0.8125,-1.359375,-1.703125
1695719099988,0.35327148,-0.8674927,-0.22686768,-0.25,-2.609375,-1.4375
1695719100017,0.3544922,-0.8635864,-0.22491455,-0.640625,-1.859375,-1.984375
1695719100063,0.36254883,-0.84820557,-0.25177002,-0.71875,-1.78125,-1.734375
1695719100108,0.35180664,-0.86798096,-0.2210083,1.21875,-2.40625,-1.671875
1695719100138,0.32641602,-0.8735962,-0.23638916,1.59375,-3.015625,-2.015625
1695719100183,0.33862305,-0.87506104,-0.22955322,1.65625,-1.828125,-1.609375
1695719100259,0.33447266,-0.86798096,-0.23883057,1.234375,-0.796875,-1.671875
1695719100264,0.33398438,-0.8687134,-0.25079346,1.765625,0.0625,-1.328125
1695719100304,0.34448242,-0.8740845,-0.25030518,1.296875,-0.21875,-1.125
1695719100334,0.34399414,-0.86920166,-0.24737549,0.71875,0.265625,-1.03125
1695719100377,0.35620117,-0.8584595,-0.25494385,0.578125,-0.34375,-0.4375
1695719100423,0.33642578,-0.8579712,-0.26885986,0.703125,0.5625,-0.921875
1695719100452,0.32763672,-0.87042236,-0.25177002,0.421875,-0.59375,-0.75
1695719100498,0.3647461,-0.8713989,-0.25323486,-0.9375,1.9375,-0.796875
1695719100528,0.3630371,-0.85479736,-0.27374268,-0.640625,-0.453125,-0.703125
1695719100573,0.3659668,-0.86846924,-0.2539673,-0.6875,-1.390625,-1.015625
1695719100619,0.31689453,-0.87286377,-0.24273682,0.078125,-2.09375,-0.71875
