# Sensor type: Thingy
# Activity type: Standing
# Activity subtype: Normal
# Subject id: s2020491
# Notes: 
timestamp,accel_x,accel_y,accel_z,gyro_x,gyro_y,gyro_z,mag_x,mag_y,mag_z
1695640561833,-0.9140625,-0.32617188,-0.055664062,16.0,2.5,31.90625,-106.9375,-29.9375,-79.875
1695640561895,-0.92871094,-0.24023438,-0.09863281,27.59375,8.03125,23.78125,0.0,0.0,0.0
1695640561924,-0.9277344,-0.1484375,-0.033203125,62.125,4.03125,28.1875,0.0,0.0,0.0
1695640561954,-0.99609375,-0.08496094,-0.024414062,28.75,7.6875,19.4375,0.0,0.0,0.0
1695640562043,-1.0039062,-0.09765625,-0.05859375,17.8125,6.75,16.625,0.0,0.0,0.0
1695640562045,-0.9736328,-0.11035156,-0.068359375,5.4375,6.40625,13.78125,0.0,0.0,0.0
1695640562072,-0.9658203,-0.1171875,-0.08691406,9.8125,6.71875,15.1875,0.0,0.0,0.0
1695640562133,-0.9863281,-0.09472656,-0.07714844,21.84375,15.0625,23.15625,0.0,0.0,0.0
1695640562164,-0.9746094,-0.095703125,-0.08203125,-0.0625,9.21875,15.46875,0.0,0.0,0.0
1695640562193,-0.9785156,-0.044921875,-0.061523438,4.8125,6.28125,17.875,0.0,0.0,0.0
1695640562253,-0.9970703,-0.03125,-0.099609375,-2.25,1.8125,18.59375,0.0,0.0,0.0
1695640562283,-1.0205078,-0.09667969,-0.02734375,20.0,-8.125,16.09375,0.0,0.0,0.0
1695640562313,-1.0224609,-0.036132812,-0.034179688,-5.875,-18.25,7.25,-111.0,-21.4375,-78.9375
1695640562375,-0.98339844,-0.018554688,-0.107421875,-21.125,-13.0,2.53125,0.0,0.0,0.0
1695640562404,-0.97753906,-0.049804688,-0.087890625,10.6875,-5.375,8.53125,0.0,0.0,0.0
1695640562433,-0.9873047,-0.09375,-0.0146484375,14.21875,-1.46875,7.96875,0.0,0.0,0.0
1695640562495,-0.9921875,-0.043945312,-0.03125,-2.8125,-4.40625,0.59375,0.0,0.0,0.0
1695640562526,-1.015625,-0.04296875,-0.048828125,-0.84375,-3.4375,-0.75,0.0,0.0,0.0
1695640562555,-1.0097656,-0.016601562,-0.0107421875,5.0,-1.46875,2.84375,0.0,0.0,0.0
1695640562622,-1.0078125,-0.119140625,-0.051757812,-1.65625,-0.75,-0.375,0.0,0.0,0.0
1695640562648,-1.0009766,-0.055664062,-0.06542969,-0.90625,0.59375,-1.71875,0.0,0.0,0.0
1695640562676,-0.99902344,-0.072265625,-0.06738281,0.0,-0.25,0.03125,0.0,0.0,0.0
1695640562742,-1.0039062,-0.09472656,-0.043945312,2.3125,0.84375,-1.375,0.0,0.0,0.0
1695640562765,-0.98535156,-0.056640625,-0.057617188,3.0,1.28125,-2.9375,0.0,0.0,0.0
1695640562799,-0.9785156,-0.059570312,-0.053710938,2.0,0.84375,-2.21875,0.0,0.0,0.0
1695640562865,-1.0175781,-0.091796875,-0.036132812,3.96875,1.28125,-1.4375,-111.3125,-21.25,-75.9375
1695640562886,-0.99121094,-0.0703125,-0.029296875,2.9375,-0.0625,-2.53125,0.0,0.0,0.0
1695640562919,-0.9902344,-0.0625,-0.0546875,0.125,1.03125,-1.375,0.0,0.0,0.0
1695640563009,-0.99609375,-0.078125,-0.051757812,0.0625,0.59375,-0.5,0.0,0.0,0.0
1695640563012,-0.9824219,-0.08691406,-0.048828125,2.5,1.21875,-0.8125,0.0,0.0,0.0
1695640563040,-1.0068359,-0.0859375,-0.036132812,0.65625,2.75,-1.78125,0.0,0.0,0.0
1695640563095,-0.9892578,-0.06542969,-0.06738281,-1.46875,0.78125,-2.40625,0.0,0.0,0.0
1695640563128,-0.9863281,-0.10058594,-0.05859375,2.1875,2.1875,-1.5625,0.0,0.0,0.0
1695640563157,-0.9902344,-0.07324219,-0.043945312,4.9375,2.375,-1.4375,0.0,0.0,0.0
1695640563219,-0.9941406,-0.103515625,-0.055664062,0.84375,2.6875,-1.5,0.0,0.0,0.0
1695640563248,-1.0097656,-0.09082031,-0.049804688,3.0625,2.90625,-2.78125,0.0,0.0,0.0
1695640563278,-0.9902344,-0.046875,-0.0390625,2.25,-0.3125,-2.28125,0.0,0.0,0.0
1695640563335,-0.99316406,-0.1015625,-0.047851562,2.75,1.21875,-1.375,-110.5625,-21.25,-77.4375
1695640563369,-0.9892578,-0.115234375,-0.040039062,1.71875,0.1875,-2.9375,0.0,0.0,0.0
1695640563397,-0.9970703,-0.080078125,-0.044921875,2.0625,1.15625,-3.125,0.0,0.0,0.0
1695640563457,-0.9873047,-0.087890625,-0.0546875,2.5,1.5625,-2.03125,0.0,0.0,0.0
1695640563490,-0.99316406,-0.09277344,-0.061523438,-0.375,0.125,-1.65625,0.0,0.0,0.0
1695640563515,-0.98828125,-0.12207031,-0.05078125,-0.3125,-0.625,-2.40625,0.0,0.0,0.0
1695640563575,-0.98046875,-0.080078125,-0.06738281,0.46875,-0.0625,-2.84375,0.0,0.0,0.0
1695640563610,-0.99121094,-0.109375,-0.051757812,2.375,0.78125,-1.0,0.0,0.0,0.0
1695640563638,-0.9941406,-0.12402344,-0.0546875,0.375,3.40625,-1.71875,0.0,0.0,0.0
1695640563697,-0.99609375,-0.11425781,-0.040039062,3.15625,6.21875,-1.90625,0.0,0.0,0.0
1695640563757,-0.99121094,-0.14160156,-0.08105469,3.78125,2.75,-2.9375,0.0,0.0,0.0
1695640563763,-1.0283203,-0.11035156,-0.06542969,11.40625,6.34375,-3.6875,0.0,0.0,0.0
1695640563821,-0.984375,-0.08496094,-0.08105469,3.90625,1.46875,-3.125,0.0,0.0,0.0
1695640563846,-0.9746094,-0.0859375,-0.10253906,4.625,2.125,-1.1875,-109.8125,-22.75,-76.6875
1695640563878,-1.0019531,-0.087890625,-0.060546875,5.5,3.15625,1.25,0.0,0.0,0.0
1695640563938,-0.98828125,-0.10449219,-0.09375,0.4375,-2.4375,-0.8125,0.0,0.0,0.0
1695640563967,-0.99121094,-0.1171875,-0.056640625,3.28125,2.5,0.15625,0.0,0.0,0.0
1695640564000,-0.9970703,-0.111328125,-0.08300781,-2.25,-1.15625,-1.1875,0.0,0.0,0.0
1695640564060,-0.9785156,-0.12109375,-0.05859375,-3.0625,-1.0,-1.125,0.0,0.0,0.0
1695640564088,-0.9814453,-0.13574219,-0.08300781,-1.59375,-1.09375,-0.28125,0.0,0.0,0.0
1695640564117,-0.9873047,-0.1328125,-0.06738281,-0.84375,-0.125,0.09375,0.0,0.0,0.0
1695640564177,-0.98828125,-0.12402344,-0.0546875,1.65625,-0.3125,0.03125,0.0,0.0,0.0
1695640564206,-0.98046875,-0.12890625,-0.080078125,0.125,-0.875,0.59375,0.0,0.0,0.0
1695640564238,-0.9824219,-0.13378906,-0.072265625,-0.90625,0.0625,0.53125,0.0,0.0,0.0
1695640564329,-1.0,-0.12207031,-0.05859375,1.78125,0.21875,0.90625,0.0,0.0,0.0
1695640564331,-0.9746094,-0.14941406,-0.06738281,-1.53125,-2.6875,-0.15625,-110.375,-23.6875,-77.3125
1695640564355,-0.99609375,-0.119140625,-0.07519531,1.71875,0.40625,0.03125,0.0,0.0,0.0
1695640564418,-1.0097656,-0.12597656,-0.095703125,3.21875,2.4375,2.1875,0.0,0.0,0.0
1695640564447,-0.96191406,-0.14257812,-0.095703125,6.53125,1.09375,0.96875,0.0,0.0,0.0
1695640564478,-0.9951172,-0.08105469,-0.055664062,9.59375,4.375,1.5,0.0,0.0,0.0
1695640564537,-1.0136719,-0.08984375,-0.047851562,4.8125,0.96875,1.3125,0.0,0.0,0.0
1695640564569,-0.9863281,-0.103515625,-0.08105469,0.59375,-0.125,1.125,0.0,0.0,0.0
1695640564596,-0.99609375,-0.09863281,-0.07421875,2.75,0.84375,1.8125,0.0,0.0,0.0
1695640564660,-0.9921875,-0.11425781,-0.078125,2.6875,-0.125,1.625,0.0,0.0,0.0
1695640564687,-0.9863281,-0.107421875,-0.0703125,2.8125,0.28125,0.40625,0.0,0.0,0.0
1695640564750,-0.9902344,-0.09082031,-0.061523438,1.46875,-0.875,-0.21875,0.0,0.0,0.0
1695640564787,-0.99121094,-0.10839844,-0.080078125,-1.09375,-1.15625,0.71875,0.0,0.0,0.0
1695640564806,-1.0048828,-0.13085938,-0.061523438,-0.5,-0.625,0.21875,0.0,0.0,0.0
1695640564837,-0.9921875,-0.11328125,-0.07128906,-1.15625,-1.96875,-0.9375,-111.3125,-21.5625,-76.375
1695640564895,-0.98828125,-0.11230469,-0.07324219,-0.75,-0.9375,-0.15625,0.0,0.0,0.0
1695640564925,-0.98339844,-0.119140625,-0.06933594,-0.5,-0.75,0.28125,0.0,0.0,0.0
1695640564958,-0.99121094,-0.11425781,-0.05859375,0.3125,0.0,-0.21875,0.0,0.0,0.0
1695640565017,-0.9941406,-0.11230469,-0.060546875,-0.84375,-1.09375,-0.21875,0.0,0.0,0.0
1695640565048,-0.98339844,-0.11328125,-0.068359375,-2.5625,-1.09375,-0.28125,0.0,0.0,0.0
1695640565079,-0.99316406,-0.12207031,-0.080078125,-0.90625,-0.4375,0.03125,0.0,0.0,0.0
1695640565139,-0.9921875,-0.13476562,-0.07324219,-0.125,-0.625,0.09375,0.0,0.0,0.0
1695640565168,-0.9892578,-0.13085938,-0.07519531,-0.125,0.1875,-0.03125,0.0,0.0,0.0
1695640565201,-0.9921875,-0.12207031,-0.07519531,2.5625,0.65625,-0.09375,0.0,0.0,0.0
1695640565259,-0.9980469,-0.11035156,-0.06933594,2.5,1.03125,0.46875,0.0,0.0,0.0
1695640565290,-0.9863281,-0.115234375,-0.076171875,1.40625,0.34375,0.53125,0.0,0.0,0.0
1695640565317,-0.99316406,-0.10644531,-0.09082031,3.15625,1.875,0.84375,-110.375,-22.4375,-78.9375
1695640565378,-1.0039062,-0.11328125,-0.057617188,3.21875,1.5625,0.40625,0.0,0.0,0.0
1695640565408,-0.9902344,-0.10546875,-0.07714844,-0.6875,-0.25,-0.21875,0.0,0.0,0.0
1695640565439,-0.9921875,-0.111328125,-0.08105469,1.28125,0.59375,0.59375,0.0,0.0,0.0
1695640565497,-0.9921875,-0.1171875,-0.076171875,1.65625,0.40625,0.71875,0.0,0.0,0.0
1695640565530,-0.99316406,-0.10839844,-0.06347656,0.90625,0.59375,0.65625,0.0,0.0,0.0
1695640565557,-0.9970703,-0.1171875,-0.07421875,-0.5,-0.75,0.28125,0.0,0.0,0.0
1695640565617,-0.9951172,-0.11425781,-0.06542969,-0.6875,-0.4375,0.34375,0.0,0.0,0.0
1695640565647,-0.9873047,-0.12207031,-0.0859375,-0.125,-0.3125,0.28125,0.0,0.0,0.0
1695640565677,-0.9863281,-0.1171875,-0.06738281,-1.09375,-1.09375,0.28125,0.0,0.0,0.0
1695640565737,-0.9873047,-0.12109375,-0.0703125,0.0,-0.25,0.78125,0.0,0.0,0.0
1695640565769,-0.984375,-0.11230469,-0.08300781,0.96875,0.21875,0.71875,0.0,0.0,0.0
1695640565796,-0.98339844,-0.11425781,-0.0546875,-0.125,-0.1875,0.53125,0.0,0.0,0.0
1695640565857,-0.9892578,-0.107421875,-0.06347656,0.25,-0.25,0.46875,-111.625,-21.25,-75.375
1695640565889,-0.99609375,-0.10449219,-0.076171875,0.59375,0.0,0.53125,0.0,0.0,0.0
1695640565916,-0.9941406,-0.10546875,-0.06738281,-0.90625,-0.75,0.28125,0.0,0.0,0.0
1695640565976,-0.9814453,-0.115234375,-0.06347656,-0.90625,-0.375,0.46875,0.0,0.0,0.0
1695640566008,-0.9951172,-0.12011719,-0.07519531,-0.3125,-0.3125,0.59375,0.0,0.0,0.0
1695640566038,-0.9902344,-0.12402344,-0.061523438,-0.5625,-0.5625,0.15625,0.0,0.0,0.0
1695640566098,-0.99121094,-0.109375,-0.055664062,0.0625,0.28125,0.15625,0.0,0.0,0.0
1695640566125,-0.99121094,-0.107421875,-0.07519531,0.0,-0.25,0.21875,0.0,0.0,0.0
1695640566160,-0.98535156,-0.103515625,-0.0703125,-0.125,0.21875,0.46875,0.0,0.0,0.0
1695640566217,-0.9970703,-0.11328125,-0.0625,-0.375,-0.1875,0.78125,0.0,0.0,0.0
1695640566249,-0.99609375,-0.12109375,-0.052734375,-0.84375,-0.125,0.65625,0.0,0.0,0.0
1695640566280,-0.98828125,-0.11816406,-0.06347656,-0.8125,-0.375,0.53125,0.0,0.0,0.0
1695640566339,-0.9941406,-0.109375,-0.06640625,0.125,0.40625,0.59375,-111.625,-22.3125,-75.375
1695640566364,-0.9902344,-0.11230469,-0.056640625,-0.125,0.0,0.78125,0.0,0.0,0.0
1695640566395,-1.0019531,-0.1015625,-0.057617188,0.1875,0.1875,0.96875,0.0,0.0,0.0
1695640566457,-0.99121094,-0.10546875,-0.07128906,0.1875,0.34375,0.65625,0.0,0.0,0.0
1695640566484,-0.9941406,-0.103515625,-0.07421875,-0.5,-0.0625,0.59375,0.0,0.0,0.0
1695640566519,-0.9902344,-0.11816406,-0.05859375,-0.3125,-0.0625,0.40625,0.0,0.0,0.0
1695640566607,-0.9980469,-0.11035156,-0.05859375,0.78125,0.65625,0.15625,0.0,0.0,0.0
1695640566611,-0.99609375,-0.10644531,-0.06640625,0.71875,0.46875,0.21875,0.0,0.0,0.0
1695640566637,-0.9902344,-0.103515625,-0.07421875,1.15625,0.53125,0.09375,0.0,0.0,0.0
1695640566697,-0.9951172,-0.1015625,-0.06738281,0.3125,0.28125,0.09375,0.0,0.0,0.0
1695640566728,-1.0019531,-0.10546875,-0.064453125,-0.625,0.0,0.15625,0.0,0.0,0.0
1695640566757,-0.99121094,-0.11816406,-0.083984375,-0.75,-0.1875,0.21875,0.0,0.0,0.0
1695640566816,-0.9824219,-0.103515625,-0.06640625,-0.125,-0.3125,-0.03125,0.0,0.0,0.0
1695640566848,-0.9970703,-0.10839844,-0.08105469,0.0,0.21875,-0.21875,-111.3125,-21.25,-76.6875
1695640566877,-0.9892578,-0.11425781,-0.06542969,0.0625,0.125,-0.09375,0.0,0.0,0.0
1695640566935,-0.98535156,-0.11425781,-0.07910156,0.4375,0.1875,-0.15625,0.0,0.0,0.0
1695640566969,-0.9951172,-0.10839844,-0.057617188,0.65625,0.28125,-0.34375,0.0,0.0,0.0
1695640566996,-0.99316406,-0.111328125,-0.07128906,0.1875,0.0,-0.21875,0.0,0.0,0.0
1695640567058,-0.9902344,-0.10644531,-0.07519531,0.53125,0.40625,-0.28125,0.0,0.0,0.0
1695640567086,-0.99609375,-0.11621094,-0.06738281,0.4375,0.28125,-0.375,0.0,0.0,0.0
1695640567115,-0.99316406,-0.11230469,-0.07519531,0.1875,0.28125,-0.5,0.0,0.0,0.0
1695640567180,-0.98535156,-0.11425781,-0.07421875,0.25,0.0625,-0.4375,0.0,0.0,0.0
1695640567205,-0.99121094,-0.11425781,-0.06640625,0.125,0.0,-0.28125,0.0,0.0,0.0
1695640567239,-0.9921875,-0.115234375,-0.06933594,0.90625,0.125,-0.03125,0.0,0.0,0.0
1695640567296,-0.984375,-0.109375,-0.06738281,1.03125,0.125,-0.21875,0.0,0.0,0.0
1695640567329,-0.9921875,-0.11035156,-0.0625,-0.3125,-0.6875,-0.6875,-111.875,-22.75,-76.375
1695640567359,-0.98828125,-0.103515625,-0.08203125,-0.84375,-0.4375,-0.6875,0.0,0.0,0.0
1695640567417,-0.98046875,-0.11328125,-0.06542969,-0.375,-0.4375,-0.75,0.0,0.0,0.0
1695640567449,-0.98535156,-0.11035156,-0.080078125,-0.125,-0.625,-0.5,0.0,0.0,0.0
1695640567479,-0.9941406,-0.12109375,-0.080078125,-0.84375,-0.5625,-0.5,0.0,0.0,0.0
1695640567538,-0.98535156,-0.111328125,-0.080078125,0.0625,-0.3125,-0.4375,0.0,0.0,0.0
1695640567569,-0.9863281,-0.12988281,-0.06933594,-0.1875,-0.3125,-0.5625,0.0,0.0,0.0
1695640567598,-0.9892578,-0.12011719,-0.060546875,-0.125,-0.3125,-0.9375,0.0,0.0,0.0
1695640567657,-0.9892578,-0.11425781,-0.064453125,0.65625,-0.0625,-0.8125,0.0,0.0,0.0
1695640567687,-0.9873047,-0.119140625,-0.0703125,0.53125,-0.0625,-0.625,0.0,0.0,0.0
1695640567717,-0.9970703,-0.12109375,-0.06738281,0.90625,0.0625,-0.6875,0.0,0.0,0.0
1695640567775,-0.9970703,-0.12011719,-0.061523438,0.78125,-0.125,-0.5625,0.0,0.0,0.0
1695640567809,-0.984375,-0.11621094,-0.06640625,-0.5,-0.1875,-0.6875,0.0,0.0,0.0
1695640567837,-0.9951172,-0.123046875,-0.052734375,-1.28125,-0.375,-0.5625,-109.1875,-23.6875,-77.3125
1695640567899,-0.9921875,-0.12207031,-0.078125,-1.84375,-0.75,-0.5625,0.0,0.0,0.0
1695640567929,-0.9921875,-0.12597656,-0.06738281,-0.5625,0.0,-0.28125,0.0,0.0,0.0
1695640567958,-0.97753906,-0.12207031,-0.08691406,-0.4375,-0.5,-0.28125,0.0,0.0,0.0
1695640568014,-0.9814453,-0.11035156,-0.06738281,-0.125,0.0,-0.09375,0.0,0.0,0.0
1695640568046,-0.9941406,-0.123046875,-0.06347656,-1.09375,-0.6875,-0.15625,0.0,0.0,0.0
1695640568081,-0.9873047,-0.13378906,-0.06933594,-0.8125,-0.125,0.03125,0.0,0.0,0.0
1695640568137,-0.99121094,-0.12011719,-0.072265625,-0.0625,0.1875,0.15625,0.0,0.0,0.0
1695640568169,-0.9902344,-0.12695312,-0.06640625,1.28125,0.46875,0.09375,0.0,0.0,0.0
1695640568198,-0.9980469,-0.11816406,-0.06640625,0.125,0.21875,-0.03125,0.0,0.0,0.0
1695640568255,-0.98828125,-0.12207031,-0.064453125,-0.1875,0.34375,0.40625,0.0,0.0,0.0
1695640568290,-0.9951172,-0.12011719,-0.07910156,0.375,0.65625,0.46875,0.0,0.0,0.0
1695640568343,-0.9921875,-0.1171875,-0.07128906,0.25,0.78125,0.34375,-109.8125,-22.75,-77.0
1695640568374,-0.99316406,-0.12207031,-0.07128906,0.46875,0.71875,0.34375,0.0,0.0,0.0
1695640568403,-0.97753906,-0.12695312,-0.06640625,0.1875,0.34375,0.34375,0.0,0.0,0.0
1695640568434,-0.99316406,-0.115234375,-0.08496094,0.53125,0.34375,0.71875,0.0,0.0,0.0
1695640568497,-0.9902344,-0.12207031,-0.076171875,1.34375,0.78125,0.78125,0.0,0.0,0.0
1695640568530,-0.99316406,-0.1171875,-0.072265625,0.96875,0.21875,0.40625,0.0,0.0,0.0
1695640568555,-0.9951172,-0.123046875,-0.07714844,-0.1875,-0.1875,0.09375,0.0,0.0,0.0
1695640568618,-0.9892578,-0.12792969,-0.0625,0.375,0.0,0.59375,0.0,0.0,0.0
1695640568646,-0.9902344,-0.12109375,-0.07910156,-0.4375,-0.4375,0.71875,0.0,0.0,0.0
1695640568678,-0.98828125,-0.123046875,-0.061523438,0.90625,0.21875,0.59375,0.0,0.0,0.0
1695640568738,-0.9873047,-0.10839844,-0.068359375,0.78125,0.0625,0.09375,0.0,0.0,0.0
1695640568767,-0.9892578,-0.11230469,-0.06640625,-0.8125,-0.6875,0.03125,0.0,0.0,0.0
1695640568797,-0.9794922,-0.12597656,-0.07714844,-0.625,-0.375,0.40625,0.0,0.0,0.0
1695640568885,-0.99121094,-0.123046875,-0.07519531,0.25,0.0,0.59375,-111.3125,-22.75,-77.0
1695640568889,-0.98828125,-0.12402344,-0.078125,0.0,-0.625,0.03125,0.0,0.0,0.0
1695640568916,-0.9941406,-0.109375,-0.07128906,-0.3125,-0.375,0.09375,0.0,0.0,0.0
1695640568977,-0.9941406,-0.12890625,-0.06542969,-0.8125,-0.5,-0.03125,0.0,0.0,0.0
1695640569006,-0.99121094,-0.119140625,-0.06640625,-0.25,-0.375,-0.15625,0.0,0.0,0.0
1695640569065,-0.9824219,-0.12109375,-0.06738281,-1.09375,-0.4375,-0.03125,0.0,0.0,0.0
1695640569095,-0.9921875,-0.12207031,-0.06347656,0.3125,0.46875,0.40625,0.0,0.0,0.0
1695640569127,-0.99316406,-0.13085938,-0.064453125,0.46875,-0.125,0.15625,0.0,0.0,0.0
1695640569187,-0.9892578,-0.11621094,-0.06738281,0.53125,0.21875,0.15625,0.0,0.0,0.0
1695640569218,-0.98535156,-0.123046875,-0.07421875,0.65625,0.21875,0.65625,0.0,0.0,0.0
1695640569247,-0.9902344,-0.12207031,-0.068359375,0.3125,0.125,0.59375,0.0,0.0,0.0
1695640569306,-0.98535156,-0.12207031,-0.06738281,0.125,0.21875,0.21875,0.0,0.0,0.0
1695640569338,-0.9863281,-0.119140625,-0.057617188,-0.5,0.0,0.15625,-110.6875,-22.9375,-76.875
1695640569367,-0.98046875,-0.123046875,-0.0625,-1.34375,-0.375,0.46875,0.0,0.0,0.0
1695640569429,-0.98535156,-0.13183594,-0.057617188,-0.3125,0.0625,0.65625,0.0,0.0,0.0
1695640569459,-0.98339844,-0.119140625,-0.05859375,0.0,0.0,0.53125,0.0,0.0,0.0
1695640569486,-0.9902344,-0.11328125,-0.07128906,-0.375,-0.0625,0.40625,0.0,0.0,0.0
1695640569546,-0.98828125,-0.11621094,-0.080078125,-0.0625,0.125,0.71875,0.0,0.0,0.0
1695640569579,-0.9902344,-0.12011719,-0.07714844,-0.375,-0.1875,0.71875,0.0,0.0,0.0
1695640569607,-0.9951172,-0.119140625,-0.064453125,0.375,0.28125,0.78125,0.0,0.0,0.0
1695640569669,-0.9794922,-0.11425781,-0.057617188,0.3125,0.40625,0.90625,0.0,0.0,0.0
1695640569699,-0.98828125,-0.12988281,-0.059570312,-0.625,-0.375,0.53125,0.0,0.0,0.0
1695640569728,-0.9951172,-0.111328125,-0.0546875,0.4375,0.40625,0.65625,0.0,0.0,0.0
1695640569790,-0.99121094,-0.11425781,-0.08203125,0.25,0.28125,0.65625,0.0,0.0,0.0
1695640569818,-0.98339844,-0.119140625,-0.057617188,0.65625,0.34375,0.65625,0.0,0.0,0.0
1695640569846,-0.9951172,-0.11230469,-0.068359375,0.59375,0.28125,0.46875,-109.9375,-22.9375,-76.875
1695640569909,-0.9814453,-0.11230469,-0.061523438,0.4375,0.40625,0.46875,0.0,0.0,0.0
1695640569938,-0.99121094,-0.11425781,-0.060546875,0.4375,0.0625,0.65625,0.0,0.0,0.0
1695640569969,-0.9902344,-0.12109375,-0.07714844,0.25,0.34375,0.59375,0.0,0.0,0.0
1695640570027,-0.9970703,-0.11621094,-0.057617188,0.1875,0.1875,0.40625,0.0,0.0,0.0
1695640570058,-0.9921875,-0.11035156,-0.0703125,-1.21875,-0.5,-0.03125,0.0,0.0,0.0
1695640570088,-0.9902344,-0.12207031,-0.060546875,0.125,0.125,0.34375,0.0,0.0,0.0
1695640570147,-0.9902344,-0.1171875,-0.07714844,-0.25,-0.25,0.09375,0.0,0.0,0.0
1695640570179,-0.9873047,-0.11328125,-0.06542969,0.1875,0.1875,0.21875,0.0,0.0,0.0
1695640570206,-0.9902344,-0.11230469,-0.07519531,-0.3125,-0.375,0.09375,0.0,0.0,0.0
1695640570267,-0.9824219,-0.10449219,-0.09277344,-0.3125,-0.3125,0.21875,0.0,0.0,0.0
1695640570297,-0.98828125,-0.10449219,-0.072265625,-0.125,-0.0625,0.21875,0.0,0.0,0.0
1695640570329,-0.99609375,-0.115234375,-0.064453125,0.84375,0.28125,0.21875,-111.3125,-22.75,-77.4375
1695640570386,-0.99316406,-0.10058594,-0.06640625,-0.6875,-0.6875,-0.03125,0.0,0.0,0.0
1695640570419,-0.9863281,-0.119140625,-0.07714844,-0.375,-0.3125,0.21875,0.0,0.0,0.0
1695640570447,-0.9863281,-0.125,-0.053710938,0.0,0.0,0.53125,0.0,0.0,0.0
1695640570508,-0.99902344,-0.11230469,-0.06738281,-0.0625,-0.1875,0.21875,0.0,0.0,0.0
1695640570538,-0.99121094,-0.12792969,-0.07128906,0.59375,0.28125,0.21875,0.0,0.0,0.0
1695640570567,-1.0019531,-0.10839844,-0.06738281,-0.1875,-0.125,-0.09375,0.0,0.0,0.0
1695640570658,-0.9902344,-0.11425781,-0.07128906,-0.5,-0.1875,-0.03125,0.0,0.0,0.0
1695640570662,-0.9873047,-0.103515625,-0.08105469,-0.75,0.0625,0.28125,0.0,0.0,0.0
1695640570687,-0.9902344,-0.125,-0.06738281,-0.375,0.0625,0.03125,0.0,0.0,0.0
1695640570748,-0.9902344,-0.1171875,-0.06640625,-0.6875,-0.125,-0.09375,0.0,0.0,0.0
1695640570778,-0.9863281,-0.11621094,-0.064453125,-0.625,0.125,0.15625,0.0,0.0,0.0
1695640570807,-0.9892578,-0.1171875,-0.07519531,0.4375,0.65625,0.53125,0.0,0.0,0.0
1695640570897,-0.98535156,-0.11230469,-0.08203125,0.96875,0.59375,0.46875,-111.75,-21.125,-77.875
1695640570901,-1.0,-0.109375,-0.06738281,0.0,0.21875,0.09375,0.0,0.0,0.0
1695640570929,-0.9873047,-0.111328125,-0.07324219,-0.125,0.0,0.21875,0.0,0.0,0.0
1695640570987,-0.9902344,-0.11621094,-0.07421875,0.3125,0.1875,0.34375,0.0,0.0,0.0
1695640571015,-0.9902344,-0.11816406,-0.07128906,0.4375,0.40625,0.34375,0.0,0.0,0.0
1695640571047,-0.9902344,-0.107421875,-0.06738281,0.53125,0.21875,0.21875,0.0,0.0,0.0
1695640571109,-0.9863281,-0.11425781,-0.07714844,-0.75,-0.25,0.15625,0.0,0.0,0.0
1695640571167,-0.9863281,-0.12695312,-0.06738281,-0.0625,0.125,0.28125,0.0,0.0,0.0
1695640571170,-0.9873047,-0.12011719,-0.072265625,0.0625,0.1875,0.15625,0.0,0.0,0.0
1695640571229,-0.9921875,-0.11425781,-0.08984375,0.375,0.0625,-0.03125,0.0,0.0,0.0
1695640571256,-0.984375,-0.109375,-0.07519531,0.71875,0.125,0.09375,0.0,0.0,0.0
1695640571288,-0.984375,-0.111328125,-0.080078125,0.125,0.0,0.28125,0.0,0.0,0.0
1695640571345,-0.98828125,-0.11621094,-0.0546875,-0.0625,-0.1875,-0.03125,-110.5625,-22.0,-75.625
1695640571379,-0.984375,-0.11328125,-0.076171875,-0.3125,-0.1875,-0.09375,0.0,0.0,0.0
1695640571407,-0.99121094,-0.125,-0.07421875,-0.3125,-0.0625,0.15625,0.0,0.0,0.0
1695640571466,-0.9941406,-0.111328125,-0.072265625,-0.125,-0.1875,0.15625,0.0,0.0,0.0
1695640571501,-0.9892578,-0.11621094,-0.068359375,-0.125,-0.125,0.28125,0.0,0.0,0.0
1695640571527,-0.98046875,-0.12011719,-0.06933594,0.125,-0.0625,0.28125,0.0,0.0,0.0
1695640571595,-0.9951172,-0.11425781,-0.06640625,0.53125,0.28125,0.21875,0.0,0.0,0.0
1695640571617,-0.9902344,-0.115234375,-0.07519531,-0.25,-0.25,0.28125,0.0,0.0,0.0
1695640571649,-0.98828125,-0.12011719,-0.080078125,-0.75,-0.3125,0.15625,0.0,0.0,0.0
1695640571737,-0.98339844,-0.11816406,-0.08105469,-1.09375,-0.25,0.21875,0.0,0.0,0.0
1695640571746,-0.9814453,-0.11230469,-0.076171875,-1.03125,-0.5625,0.09375,0.0,0.0,0.0
1695640571768,-0.99121094,-0.11328125,-0.07910156,-0.3125,0.0,0.46875,0.0,0.0,0.0
1695640571829,-0.9892578,-0.12011719,-0.07324219,-0.0625,0.125,0.65625,0.0,0.0,0.0
1695640571858,-0.99121094,-0.12011719,-0.080078125,0.0,0.21875,0.40625,-111.3125,-22.75,-75.625
1695640571887,-0.9814453,-0.11621094,-0.078125,-0.3125,-0.0625,0.53125,0.0,0.0,0.0
1695640571949,-0.99316406,-0.111328125,-0.07421875,-0.0625,0.34375,0.65625,0.0,0.0,0.0
1695640571978,-0.9892578,-0.115234375,-0.06738281,0.0625,0.0625,0.46875,0.0,0.0,0.0
1695640572008,-0.98339844,-0.1015625,-0.055664062,-0.5,-0.125,0.34375,0.0,0.0,0.0
1695640572065,-0.9824219,-0.109375,-0.07324219,-0.6875,-0.125,0.65625,0.0,0.0,0.0
1695640572098,-0.98339844,-0.115234375,-0.080078125,-0.4375,-0.1875,0.40625,0.0,0.0,0.0
1695640572130,-0.98535156,-0.11035156,-0.07421875,-0.75,-0.1875,0.34375,0.0,0.0,0.0
1695640572188,-0.99316406,-0.11035156,-0.064453125,-0.1875,0.125,0.21875,0.0,0.0,0.0
1695640572249,-1.0009766,-0.109375,-0.0859375,-0.5625,-0.1875,0.40625,0.0,0.0,0.0
1695640572252,-0.9902344,-0.123046875,-0.0703125,-0.375,0.125,0.40625,0.0,0.0,0.0
1695640572308,-0.9902344,-0.11230469,-0.07324219,-0.84375,-0.4375,0.34375,0.0,0.0,0.0
1695640572338,-0.9892578,-0.11425781,-0.07910156,-0.6875,-0.1875,0.40625,-110.5625,-23.0625,-74.875
1695640572368,-0.9970703,-0.1171875,-0.06738281,0.25,0.21875,0.46875,0.0,0.0,0.0
1695640572428,-0.98828125,-0.11621094,-0.06347656,-0.125,-0.125,0.28125,0.0,0.0,0.0
1695640572457,-0.99609375,-0.11425781,-0.06933594,0.90625,0.28125,0.09375,0.0,0.0,0.0
1695640572489,-0.9873047,-0.10546875,-0.08300781,-0.125,-0.125,0.21875,0.0,0.0,0.0
1695640572547,-0.99609375,-0.109375,-0.06542969,0.0,0.0625,0.28125,0.0,0.0,0.0
1695640572578,-0.984375,-0.109375,-0.06542969,0.59375,0.1875,0.09375,0.0,0.0,0.0
1695640572607,-0.9951172,-0.10839844,-0.08886719,-0.0625,0.0,-0.09375,0.0,0.0,0.0
1695640572668,-0.98828125,-0.1171875,-0.07910156,0.125,0.1875,-0.03125,0.0,0.0,0.0
1695640572695,-0.99316406,-0.11621094,-0.07324219,0.125,0.40625,0.03125,0.0,0.0,0.0
1695640572729,-0.98535156,-0.11035156,-0.06640625,-0.0625,0.125,-0.28125,0.0,0.0,0.0
1695640572788,-0.98535156,-0.11425781,-0.07714844,-0.125,0.0,0.03125,0.0,0.0,0.0
1695640572818,-0.99121094,-0.115234375,-0.0625,-0.0625,0.21875,0.15625,0.0,0.0,0.0
1695640572846,-0.98828125,-0.12402344,-0.060546875,0.375,0.125,-0.15625,-111.0,-23.6875,-75.8125
1695640572907,-0.98828125,-0.12109375,-0.06542969,0.0625,0.0625,-0.34375,0.0,0.0,0.0
1695640572938,-0.9873047,-0.11230469,-0.07421875,-0.375,-0.3125,-0.34375,0.0,0.0,0.0
1695640572968,-0.99316406,-0.1171875,-0.07421875,0.1875,0.0625,-0.03125,0.0,0.0,0.0
1695640573030,-0.98828125,-0.12011719,-0.064453125,-0.125,-0.25,-0.03125,0.0,0.0,0.0
1695640573058,-0.99609375,-0.12011719,-0.06640625,0.46875,0.28125,0.03125,0.0,0.0,0.0
1695640573087,-0.98339844,-0.12109375,-0.061523438,-0.4375,-0.5,-0.21875,0.0,0.0,0.0
1695640573149,-0.9892578,-0.119140625,-0.072265625,-0.4375,-0.25,-0.21875,0.0,0.0,0.0
1695640573178,-0.9824219,-0.12695312,-0.068359375,-0.375,-0.1875,-0.03125,0.0,0.0,0.0
1695640573208,-0.9892578,-0.111328125,-0.07421875,-0.0625,-0.1875,-0.09375,0.0,0.0,0.0
1695640573269,-0.98339844,-0.12207031,-0.07128906,0.1875,0.0,0.03125,0.0,0.0,0.0
1695640573298,-0.9902344,-0.11035156,-0.07910156,-0.625,-0.25,0.09375,0.0,0.0,0.0
1695640573328,-0.9765625,-0.119140625,-0.08691406,-0.1875,0.0,0.09375,-111.0,-23.6875,-74.125
1695640573388,-0.9873047,-0.111328125,-0.06347656,0.65625,0.21875,0.03125,0.0,0.0,0.0
1695640573447,-0.9941406,-0.10644531,-0.09277344,0.3125,0.125,0.03125,0.0,0.0,0.0
1695640573451,-0.99121094,-0.119140625,-0.07910156,0.3125,0.21875,-0.09375,0.0,0.0,0.0
1695640573507,-0.98535156,-0.11816406,-0.076171875,0.3125,0.21875,-0.03125,0.0,0.0,0.0
1695640573539,-0.9902344,-0.111328125,-0.06640625,-0.0625,0.0625,-0.15625,0.0,0.0,0.0
1695640573567,-0.98339844,-0.119140625,-0.076171875,0.71875,0.21875,-0.09375,0.0,0.0,0.0
1695640573627,-0.9941406,-0.11035156,-0.064453125,-0.125,-0.0625,-0.21875,0.0,0.0,0.0
1695640573656,-1.0009766,-0.115234375,-0.064453125,0.25,0.125,-0.09375,0.0,0.0,0.0
1695640573688,-0.984375,-0.12011719,-0.07519531,-0.5,-0.25,-0.28125,0.0,0.0,0.0
1695640573746,-0.9951172,-0.11621094,-0.07519531,-0.4375,-0.3125,-0.28125,0.0,0.0,0.0
1695640573778,-0.9873047,-0.125,-0.06933594,-0.0625,0.0625,-0.09375,0.0,0.0,0.0
1695640573809,-0.99121094,-0.125,-0.076171875,-0.125,-0.3125,-0.03125,0.0,0.0,0.0
1695640573868,-0.99121094,-0.12109375,-0.064453125,-0.3125,-0.1875,-0.09375,-111.625,-23.0625,-76.6875
1695640573899,-0.9814453,-0.115234375,-0.068359375,0.0,0.0,-0.21875,0.0,0.0,0.0
1695640573928,-0.9863281,-0.11035156,-0.072265625,-0.125,-0.125,-0.0625,0.0,0.0,0.0
1695640573986,-0.9921875,-0.115234375,-0.080078125,-0.4375,-0.3125,-0.0625,0.0,0.0,0.0
1695640574018,-0.9863281,-0.11621094,-0.072265625,0.1875,0.125,0.21875,0.0,0.0,0.0
1695640574046,-0.98535156,-0.123046875,-0.072265625,-0.1875,-0.0625,0.40625,0.0,0.0,0.0
1695640574105,-0.99121094,-0.123046875,-0.06542969,-0.25,-0.0625,0.21875,0.0,0.0,0.0
1695640574136,-0.98046875,-0.12695312,-0.07324219,-0.125,-0.1875,0.15625,0.0,0.0,0.0
1695640574168,-0.9921875,-0.119140625,-0.07128906,-0.125,0.0625,0.09375,0.0,0.0,0.0
1695640574227,-0.9941406,-0.12011719,-0.057617188,-0.1875,-0.1875,-0.125,0.0,0.0,0.0
1695640574258,-0.98828125,-0.10644531,-0.07128906,-1.09375,-0.4375,-0.0625,0.0,0.0,0.0
1695640574287,-0.9902344,-0.13769531,-0.08496094,-0.5625,-0.375,0.34375,0.0,0.0,0.0
1695640574345,-0.97753906,-0.12988281,-0.08105469,0.5625,-0.0625,-0.0625,-110.125,-23.0625,-76.375
1695640574379,-0.98828125,-0.12109375,-0.068359375,-0.125,-0.1875,-0.25,0.0,0.0,0.0
1695640574405,-0.99316406,-0.115234375,-0.072265625,-0.4375,-0.125,-0.25,0.0,0.0,0.0
1695640574467,-0.9824219,-0.13574219,-0.07128906,-0.65625,-0.5625,-0.1875,0.0,0.0,0.0
1695640574497,-0.99121094,-0.125,-0.064453125,0.625,0.59375,0.0,0.0,0.0,0.0
1695640574527,-0.9873047,-0.125,-0.060546875,0.3125,-0.0625,0.09375,0.0,0.0,0.0
1695640574588,-0.9951172,-0.12988281,-0.068359375,0.125,0.375,0.0,0.0,0.0,0.0
1695640574617,-0.99121094,-0.13671875,-0.072265625,-0.25,-0.0625,0.0,0.0,0.0,0.0
1695640574647,-0.9873047,-0.12597656,-0.064453125,0.6875,0.375,0.0,0.0,0.0,0.0
1695640574707,-0.9970703,-0.10839844,-0.06640625,-0.125,-0.125,-0.25,0.0,0.0,0.0
1695640574737,-0.98828125,-0.11230469,-0.07324219,-0.5,0.0,0.21875,0.0,0.0,0.0
1695640574769,-0.9902344,-0.12597656,-0.060546875,-0.84375,-0.3125,0.34375,0.0,0.0,0.0
1695640574826,-0.9863281,-0.12597656,-0.053710938,-0.125,-0.25,0.15625,0.0,0.0,0.0
1695640574857,-0.9951172,-0.123046875,-0.072265625,-0.5,-0.1875,-0.1875,-110.5625,-23.5,-75.9375
1695640574890,-0.9863281,-0.12109375,-0.07421875,-0.78125,-0.375,0.21875,0.0,0.0,0.0
1695640574949,-0.99121094,-0.12011719,-0.072265625,-0.125,0.0,0.15625,0.0,0.0,0.0
1695640574977,-0.98828125,-0.125,-0.087890625,-0.71875,-0.4375,0.40625,0.0,0.0,0.0
1695640575007,-0.99121094,-0.1328125,-0.0703125,0.1875,0.125,0.46875,0.0,0.0,0.0
1695640575066,-0.984375,-0.1171875,-0.06933594,-0.0625,-0.4375,0.0625,0.0,0.0,0.0
1695640575098,-0.9941406,-0.123046875,-0.06542969,-0.0625,0.0625,0.0,0.0,0.0,0.0
1695640575125,-0.9892578,-0.12207031,-0.076171875,-0.125,-0.375,0.0,0.0,0.0,0.0
1695640575189,-0.9941406,-0.12402344,-0.072265625,0.375,-0.125,-0.1875,0.0,0.0,0.0
1695640575218,-0.9970703,-0.11816406,-0.06542969,0.1875,0.0625,0.0,0.0,0.0,0.0
1695640575245,-0.9980469,-0.12109375,-0.078125,-0.4375,-0.3125,0.0625,0.0,0.0,0.0
1695640575308,-0.9863281,-0.13183594,-0.06542969,-0.375,-0.375,0.09375,0.0,0.0,0.0
1695640575338,-0.98828125,-0.125,-0.07128906,0.0,0.0,-0.0625,-108.75,-23.0625,-75.625
1695640575369,-0.98535156,-0.13183594,-0.072265625,0.3125,0.125,0.28125,0.0,0.0,0.0
1695640575428,-0.98828125,-0.12695312,-0.06347656,0.6875,0.0625,0.09375,0.0,0.0,0.0
1695640575459,-0.9873047,-0.1328125,-0.06933594,0.25,0.0625,-0.0625,0.0,0.0,0.0
1695640575486,-0.9941406,-0.12402344,-0.056640625,0.1875,0.0625,0.0,0.0,0.0,0.0
1695640575549,-0.98535156,-0.12109375,-0.07519531,0.0625,-0.125,-0.25,0.0,0.0,0.0
1695640575579,-0.9902344,-0.12695312,-0.08496094,-0.90625,-0.3125,0.09375,0.0,0.0,0.0
1695640575608,-0.984375,-0.13671875,-0.07910156,-0.0625,0.1875,0.40625,0.0,0.0,0.0
1695640575668,-0.9873047,-0.1328125,-0.08105469,-0.1875,-0.375,0.0625,0.0,0.0,0.0
1695640575727,-0.9970703,-0.12988281,-0.059570312,0.71875,0.5,0.28125,0.0,0.0,0.0
1695640575731,-0.98339844,-0.12207031,-0.060546875,0.0625,-0.25,0.15625,0.0,0.0,0.0
1695640575788,-0.9873047,-0.12695312,-0.0546875,-0.71875,-0.1875,0.34375,0.0,0.0,0.0
1695640575818,-0.9873047,-0.12597656,-0.0625,-0.25,0.0,0.34375,0.0,0.0,0.0
1695640575848,-0.98535156,-0.12792969,-0.0625,-0.375,-0.4375,0.28125,-110.125,-23.0625,-75.625
1695640575909,-0.98828125,-0.12207031,-0.057617188,0.4375,0.375,0.21875,0.0,0.0,0.0
1695640575939,-0.98046875,-0.12792969,-0.051757812,0.0,0.0,0.0625,0.0,0.0,0.0
1695640575967,-0.99121094,-0.123046875,-0.060546875,0.0,0.125,0.34375,0.0,0.0,0.0
1695640576027,-0.99316406,-0.123046875,-0.08300781,0.4375,0.125,0.46875,0.0,0.0,0.0
1695640576059,-0.9921875,-0.123046875,-0.059570312,0.90625,0.5625,0.34375,0.0,0.0,0.0
1695640576088,-0.9824219,-0.12207031,-0.06640625,-0.78125,-0.4375,0.0,0.0,0.0,0.0
1695640576147,-0.99316406,-0.12988281,-0.07519531,-0.90625,-0.125,0.34375,0.0,0.0,0.0
1695640576180,-0.9794922,-0.14453125,-0.06640625,0.5625,0.4375,0.40625,0.0,0.0,0.0
1695640576208,-0.98535156,-0.12792969,-0.053710938,0.78125,0.3125,0.28125,0.0,0.0,0.0
1695640576270,-0.98828125,-0.12597656,-0.05859375,0.125,0.125,0.28125,0.0,0.0,0.0
1695640576300,-0.9921875,-0.111328125,-0.0703125,-0.125,-0.0625,0.28125,0.0,0.0,0.0
1695640576327,-0.98535156,-0.13378906,-0.07519531,-0.65625,-0.125,0.21875,-109.0625,-21.5625,-74.3125
1695640576388,-0.984375,-0.13378906,-0.052734375,0.84375,0.5,0.65625,0.0,0.0,0.0
1695640576415,-0.9873047,-0.13183594,-0.07128906,0.4375,0.375,0.59375,0.0,0.0,0.0
1695640576447,-0.9873047,-0.12695312,-0.05859375,0.6875,0.375,0.71875,0.0,0.0,0.0
1695640576507,-0.9873047,-0.12597656,-0.06542969,0.375,0.4375,0.46875,0.0,0.0,0.0
1695640576538,-0.9951172,-0.12890625,-0.083984375,0.0625,0.1875,0.65625,0.0,0.0,0.0
1695640576569,-0.99121094,-0.12402344,-0.059570312,-0.3125,-0.0625,0.84375,0.0,0.0,0.0
1695640576629,-0.9951172,-0.125,-0.06542969,0.5625,0.375,0.84375,0.0,0.0,0.0
1695640576660,-0.9921875,-0.12207031,-0.0703125,-0.71875,-0.125,0.59375,0.0,0.0,0.0
1695640576688,-0.98535156,-0.11816406,-0.072265625,-0.375,0.1875,0.53125,0.0,0.0,0.0
1695640576747,-0.9873047,-0.119140625,-0.07324219,-0.375,-0.3125,0.34375,0.0,0.0,0.0
1695640576776,-0.99121094,-0.123046875,-0.072265625,0.0,-0.0625,0.40625,0.0,0.0,0.0
1695640576807,-0.9863281,-0.12792969,-0.061523438,-0.0625,0.0625,0.46875,0.0,0.0,0.0
1695640576870,-0.9873047,-0.12792969,-0.068359375,-0.25,-0.1875,0.15625,-110.125,-23.5,-75.9375
1695640576898,-0.9785156,-0.13183594,-0.08496094,-0.3125,-0.25,0.21875,0.0,0.0,0.0
1695640576928,-0.98046875,-0.1171875,-0.07519531,0.0625,0.375,0.59375,0.0,0.0,0.0
1695640576985,-0.9814453,-0.12011719,-0.059570312,0.5625,0.25,0.59375,0.0,0.0,0.0
1695640577015,-0.9902344,-0.11621094,-0.06640625,-0.5625,-0.125,0.21875,0.0,0.0,0.0
1695640577050,-0.9873047,-0.11816406,-0.06542969,-0.90625,-0.25,0.40625,0.0,0.0,0.0
1695640577106,-0.98046875,-0.13476562,-0.07910156,-0.3125,-0.0625,0.59375,0.0,0.0,0.0
1695640577137,-0.9941406,-0.13671875,-0.072265625,0.90625,0.4375,0.28125,0.0,0.0,0.0
1695640577167,-0.9951172,-0.11621094,-0.06347656,0.78125,0.375,0.40625,0.0,0.0,0.0
1695640577229,-0.9980469,-0.12890625,-0.07519531,0.5,0.125,0.40625,0.0,0.0,0.0
1695640577254,-0.98535156,-0.12890625,-0.07714844,0.1875,-0.0625,0.28125,0.0,0.0,0.0
1695640577286,-0.99316406,-0.12695312,-0.07128906,0.84375,0.375,0.09375,0.0,0.0,0.0
1695640577347,-0.9951172,-0.12402344,-0.06542969,-0.375,-0.625,-0.1875,-111.3125,-22.75,-75.9375
1695640577379,-0.9824219,-0.12402344,-0.07128906,-0.5,-0.0625,0.15625,0.0,0.0,0.0
1695640577406,-0.9824219,-0.140625,-0.0703125,-0.25,-0.25,0.15625,0.0,0.0,0.0
1695640577466,-0.9892578,-0.13476562,-0.0703125,0.3125,0.25,0.09375,0.0,0.0,0.0
1695640577497,-0.99316406,-0.13085938,-0.06347656,-0.3125,-0.1875,-0.1875,0.0,0.0,0.0
1695640577528,-0.9873047,-0.12011719,-0.06933594,0.125,0.1875,0.46875,0.0,0.0,0.0
1695640577588,-0.9863281,-0.12988281,-0.072265625,0.0,-0.125,0.40625,0.0,0.0,0.0
1695640577619,-0.9902344,-0.12890625,-0.061523438,1.40625,0.59375,0.40625,0.0,0.0,0.0
1695640577646,-0.98535156,-0.12207031,-0.068359375,0.125,-0.0625,-0.125,0.0,0.0,0.0
1695640577709,-0.9863281,-0.125,-0.0703125,-0.4375,-0.4375,0.21875,0.0,0.0,0.0
1695640577740,-0.98535156,-0.13183594,-0.06738281,0.4375,0.4375,0.34375,0.0,0.0,0.0
1695640577769,-0.9902344,-0.12695312,-0.060546875,-0.125,-0.0625,-0.0625,0.0,0.0,0.0
1695640577830,-0.9873047,-0.12207031,-0.06738281,-0.375,0.0,-0.0625,0.0,0.0,0.0
1695640577859,-0.9902344,-0.13671875,-0.06640625,-0.84375,-0.375,0.09375,-109.625,-22.9375,-75.8125
1695640577889,-0.9814453,-0.12695312,-0.060546875,-0.375,0.0,0.0,0.0,0.0,0.0
1695640577949,-0.98828125,-0.13769531,-0.06542969,0.625,0.0625,0.0625,0.0,0.0,0.0
1695640578007,-0.9902344,-0.125,-0.06738281,0.5625,0.3125,0.09375,0.0,0.0,0.0
1695640578011,-0.99121094,-0.13574219,-0.061523438,0.0625,0.0625,0.40625,0.0,0.0,0.0
1695640578070,-0.9824219,-0.1328125,-0.06640625,0.1875,0.375,0.40625,0.0,0.0,0.0
1695640578099,-0.9873047,-0.12597656,-0.068359375,0.375,0.5,0.65625,0.0,0.0,0.0
1695640578126,-0.984375,-0.13085938,-0.072265625,0.25,0.375,0.78125,0.0,0.0,0.0
1695640578189,-0.9892578,-0.13183594,-0.06738281,-0.125,-0.125,0.40625,0.0,0.0,0.0
1695640578218,-0.984375,-0.12988281,-0.095703125,0.1875,0.3125,0.53125,0.0,0.0,0.0
1695640578249,-0.98828125,-0.12890625,-0.07910156,0.5,0.5,0.65625,0.0,0.0,0.0
1695640578309,-0.9785156,-0.1328125,-0.068359375,-0.375,-0.3125,0.34375,0.0,0.0,0.0
1695640578340,-0.99121094,-0.12792969,-0.07421875,-0.5625,0.0,0.46875,-109.8125,-22.3125,-75.375
1695640578366,-0.9921875,-0.12597656,-0.06640625,-0.0625,0.125,0.46875,0.0,0.0,0.0
1695640578428,-0.9824219,-0.12402344,-0.078125,-0.5625,-0.4375,0.46875,0.0,0.0,0.0
1695640578457,-0.9951172,-0.12402344,-0.060546875,0.4375,0.5,1.09375,0.0,0.0,0.0
1695640578488,-0.9902344,-0.12792969,-0.0625,0.3125,0.4375,0.65625,0.0,0.0,0.0
1695640578546,-0.9892578,-0.12988281,-0.072265625,-0.59375,-0.3125,0.15625,0.0,0.0,0.0
1695640578579,-0.984375,-0.123046875,-0.080078125,-0.25,0.25,0.34375,0.0,0.0,0.0
1695640578607,-0.98828125,-0.12792969,-0.05859375,0.125,0.3125,0.40625,0.0,0.0,0.0
1695640578667,-0.9902344,-0.123046875,-0.072265625,0.375,0.3125,0.46875,0.0,0.0,0.0
1695640578697,-0.9873047,-0.12792969,-0.07714844,0.125,0.125,0.59375,0.0,0.0,0.0
1695640578730,-0.98535156,-0.12792969,-0.064453125,0.4375,0.65625,0.53125,0.0,0.0,0.0
1695640578787,-0.98046875,-0.12207031,-0.059570312,0.125,0.0625,0.21875,0.0,0.0,0.0
1695640578819,-0.9902344,-0.1171875,-0.06347656,-0.125,0.125,0.09375,0.0,0.0,0.0
1695640578845,-0.98339844,-0.12402344,-0.07519531,-0.125,0.0,0.15625,-110.375,-23.1875,-76.5625
1695640578907,-0.9941406,-0.13183594,-0.053710938,-0.0625,0.125,0.0,0.0,0.0,0.0
1695640578938,-0.9824219,-0.12109375,-0.064453125,-0.84375,-0.3125,0.21875,0.0,0.0,0.0
1695640578969,-0.99316406,-0.13671875,-0.07324219,-0.65625,-0.1875,0.34375,0.0,0.0,0.0
1695640579030,-0.98828125,-0.12988281,-0.053710938,-0.1875,0.0,0.34375,0.0,0.0,0.0
1695640579055,-0.9863281,-0.12988281,-0.06347656,-0.3125,-0.125,0.21875,0.0,0.0,0.0
1695640579089,-0.99316406,-0.125,-0.06738281,-0.65625,-0.1875,0.21875,0.0,0.0,0.0
1695640579147,-0.9863281,-0.13085938,-0.068359375,-1.9375,-0.4375,0.34375,0.0,0.0,0.0
1695640579176,-0.97753906,-0.12402344,-0.0703125,-1.28125,0.0,0.46875,0.0,0.0,0.0
1695640579209,-0.99121094,-0.13183594,-0.07324219,-0.84375,-0.84375,0.46875,0.0,0.0,0.0
1695640579267,-0.9941406,-0.13867188,-0.06738281,-0.1875,0.125,1.21875,0.0,0.0,0.0
1695640579297,-0.98828125,-0.12988281,-0.07714844,-0.5,-0.1875,1.09375,0.0,0.0,0.0
1695640579417,-0.9941406,-0.13476562,-0.061523438,-0.125,-0.25,0.71875,-110.5625,-24.5625,-74.875
1695640579424,-0.98339844,-0.12109375,-0.07519531,0.4375,0.25,0.71875,0.0,0.0,0.0
1695640579428,-0.99121094,-0.12011719,-0.0703125,0.625,0.25,1.03125,0.0,0.0,0.0
1695640579449,-0.98828125,-0.12109375,-0.0703125,-0.0625,-0.5,1.15625,0.0,0.0,0.0
1695640579506,-0.99121094,-0.12792969,-0.06738281,0.90625,0.125,1.21875,0.0,0.0,0.0
1695640579538,-0.9941406,-0.1328125,-0.06738281,1.28125,0.1875,0.96875,0.0,0.0,0.0
1695640579566,-0.99121094,-0.125,-0.06640625,0.25,-0.125,0.71875,0.0,0.0,0.0
1695640579627,-0.9951172,-0.123046875,-0.06933594,0.4375,0.125,0.96875,0.0,0.0,0.0
1695640579658,-0.984375,-0.13085938,-0.068359375,-0.1875,-0.625,0.65625,0.0,0.0,0.0
1695640579687,-0.99121094,-0.11425781,-0.076171875,-0.59375,-0.125,0.53125,0.0,0.0,0.0
1695640579749,-0.9941406,-0.12011719,-0.052734375,-0.375,0.0,0.90625,0.0,0.0,0.0
1695640579779,-0.9824219,-0.13378906,-0.07324219,-1.875,-0.75,0.34375,0.0,0.0,0.0
1695640579837,-0.9863281,-0.12402344,-0.068359375,0.6875,0.3125,0.34375,-109.5,-22.3125,-74.875
1695640579870,-0.9970703,-0.12207031,-0.06738281,1.53125,0.25,0.28125,0.0,0.0,0.0
1695640579900,-0.9902344,-0.115234375,-0.064453125,0.5625,-0.125,0.28125,0.0,0.0,0.0
1695640579926,-0.98828125,-0.1171875,-0.05859375,1.59375,0.25,0.28125,0.0,0.0,0.0
1695640579989,-0.99316406,-0.13085938,-0.060546875,0.1875,-0.125,0.0,0.0,0.0,0.0
1695640580016,-0.9873047,-0.115234375,-0.07714844,-0.375,-0.4375,-0.1875,0.0,0.0,0.0
1695640580076,-0.984375,-0.12792969,-0.061523438,-0.1875,-0.25,0.0625,0.0,0.0,0.0
1695640580114,-0.99121094,-0.12890625,-0.07910156,-0.65625,-0.5,-0.4375,0.0,0.0,0.0
1695640580139,-0.9951172,-0.125,-0.061523438,-0.90625,-0.5625,-0.625,0.0,0.0,0.0
1695640580195,-0.9892578,-0.13378906,-0.07324219,-0.59375,-0.1875,-0.4375,0.0,0.0,0.0
1695640580241,-0.9902344,-0.1328125,-0.055664062,0.0625,0.3125,-0.25,0.0,0.0,0.0
1695640580287,-0.9902344,-0.13378906,-0.043945312,0.125,0.375,-0.1875,0.0,0.0,0.0
1695640580319,-0.9794922,-0.12011719,-0.06933594,-0.0625,0.5625,-0.25,0.0,0.0,0.0
1695640580347,-0.9902344,-0.140625,-0.060546875,0.0625,0.125,-0.1875,-110.6875,-21.4375,-76.25
1695640580380,-0.9794922,-0.12402344,-0.07128906,-0.1875,0.1875,-0.125,0.0,0.0,0.0
1695640580438,-0.9921875,-0.12207031,-0.0703125,0.375,0.59375,0.09375,0.0,0.0,0.0
1695640580468,-0.9902344,-0.13378906,-0.068359375,-0.125,-0.25,0.09375,0.0,0.0,0.0
1695640580495,-0.9921875,-0.12695312,-0.055664062,0.0625,0.3125,0.0625,0.0,0.0,0.0
1695640580558,-0.98535156,-0.14160156,-0.06738281,-0.96875,-0.5625,0.0,0.0,0.0,0.0
1695640580588,-0.99609375,-0.1328125,-0.06542969,0.625,0.5625,0.21875,0.0,0.0,0.0
1695640580621,-0.9824219,-0.12695312,-0.051757812,0.4375,0.0625,0.28125,0.0,0.0,0.0
1695640580678,-0.9765625,-0.13574219,-0.07128906,0.4375,0.125,0.09375,0.0,0.0,0.0
1695640580706,-0.984375,-0.12402344,-0.06347656,0.0625,0.25,0.0625,0.0,0.0,0.0
1695640580738,-0.99121094,-0.12011719,-0.07128906,-0.0625,0.1875,0.21875,0.0,0.0,0.0
1695640580797,-0.97753906,-0.12988281,-0.07128906,-0.59375,-0.25,0.34375,0.0,0.0,0.0
1695640580829,-0.9921875,-0.13183594,-0.06933594,0.25,0.375,0.53125,-110.125,-22.0,-75.9375
1695640580857,-0.99121094,-0.12207031,-0.06738281,0.125,0.25,0.40625,0.0,0.0,0.0
1695640580918,-0.9873047,-0.125,-0.060546875,-0.1875,0.0,0.40625,0.0,0.0,0.0
1695640580948,-0.9902344,-0.13867188,-0.060546875,-0.1875,0.0,0.28125,0.0,0.0,0.0
1695640580975,-0.9746094,-0.12792969,-0.064453125,-0.125,0.0625,0.46875,0.0,0.0,0.0
1695640581039,-0.9941406,-0.119140625,-0.05859375,0.125,0.1875,0.53125,0.0,0.0,0.0
1695640581066,-0.98535156,-0.12792969,-0.07128906,0.5625,0.375,0.84375,0.0,0.0,0.0
1695640581095,-0.9892578,-0.13476562,-0.056640625,-0.59375,0.0,0.28125,0.0,0.0,0.0
1695640581157,-0.9951172,-0.125,-0.05859375,-0.3125,0.125,0.28125,0.0,0.0,0.0
1695640581187,-0.97753906,-0.12597656,-0.076171875,-0.125,0.125,0.40625,0.0,0.0,0.0
1695640581216,-0.99121094,-0.12109375,-0.07421875,0.375,0.5,0.40625,0.0,0.0,0.0
1695640581308,-0.9970703,-0.12695312,-0.07714844,-0.0625,0.0625,0.34375,0.0,0.0,0.0
1695640581311,-0.9951172,-0.12792969,-0.06542969,-0.5625,0.0625,-0.0625,0.0,0.0,0.0
1695640581339,-0.98046875,-0.12597656,-0.08496094,-1.21875,-0.625,-0.0625,-111.75,-22.1875,-76.25
1695640581397,-0.9863281,-0.12597656,-0.059570312,0.0625,0.3125,0.59375,0.0,0.0,0.0
1695640581427,-0.9951172,-0.13183594,-0.068359375,0.625,0.3125,0.34375,0.0,0.0,0.0
1695640581456,-0.9921875,-0.12695312,-0.06640625,-0.5625,-0.625,-0.125,0.0,0.0,0.0
1695640581549,-0.99121094,-0.13378906,-0.06542969,-1.28125,-0.4375,0.15625,0.0,0.0,0.0
1695640581554,-0.9765625,-0.14648438,-0.07714844,-0.5,-0.25,0.28125,0.0,0.0,0.0
1695640581578,-0.98339844,-0.13671875,-0.06542969,0.78125,0.4375,0.40625,0.0,0.0,0.0
1695640581639,-0.98828125,-0.13378906,-0.060546875,1.34375,0.1875,0.46875,0.0,0.0,0.0
1695640581668,-0.9814453,-0.13476562,-0.0546875,0.78125,0.65625,0.28125,0.0,0.0,0.0
1695640581697,-0.9765625,-0.13085938,-0.059570312,-0.3125,-0.125,0.15625,0.0,0.0,0.0
1695640581761,-0.9941406,-0.13671875,-0.07128906,0.125,0.125,0.0625,0.0,0.0,0.0
1695640581787,-0.98339844,-0.13085938,-0.06738281,0.5,0.65625,0.59375,0.0,0.0,0.0
1695640581817,-0.98828125,-0.12695312,-0.060546875,-0.96875,0.125,0.34375,-108.75,-23.8125,-75.9375
1695640581878,-0.9824219,-0.14941406,-0.072265625,-1.15625,-0.0625,0.46875,0.0,0.0,0.0
1695640581908,-0.98535156,-0.12402344,-0.07910156,-1.34375,0.125,0.28125,0.0,0.0,0.0
1695640581939,-0.99121094,-0.140625,-0.06542969,-0.375,0.0625,0.59375,0.0,0.0,0.0
1695640581996,-0.98535156,-0.12695312,-0.07519531,0.0,0.5,0.71875,0.0,0.0,0.0
1695640582028,-0.98828125,-0.12597656,-0.064453125,0.375,0.65625,0.96875,0.0,0.0,0.0
1695640582057,-0.9941406,-0.13378906,-0.057617188,0.25,0.5,0.78125,0.0,0.0,0.0
1695640582119,-0.98535156,-0.12695312,-0.072265625,-0.0625,0.0625,0.78125,0.0,0.0,0.0
1695640582145,-0.99609375,-0.13574219,-0.07519531,0.4375,0.5625,0.65625,0.0,0.0,0.0
1695640582174,-0.98535156,-0.12695312,-0.064453125,0.5,0.125,0.53125,0.0,0.0,0.0
1695640582239,-0.9863281,-0.1328125,-0.068359375,0.78125,0.25,0.34375,0.0,0.0,0.0
1695640582265,-0.99316406,-0.12890625,-0.05859375,-0.1875,-0.1875,0.0625,0.0,0.0,0.0
1695640582296,-0.984375,-0.12792969,-0.06738281,-0.25,-0.25,0.0625,0.0,0.0,0.0
1695640582356,-0.98535156,-0.13378906,-0.068359375,-0.4375,-0.1875,0.46875,-109.5,-23.0625,-77.4375
1695640582387,-0.9951172,-0.14355469,-0.072265625,-0.65625,-0.5,0.28125,0.0,0.0,0.0
1695640582417,-0.9736328,-0.12597656,-0.0625,0.125,0.0,0.28125,0.0,0.0,0.0
1695640582477,-0.9941406,-0.12011719,-0.061523438,-0.96875,-0.5,0.0625,0.0,0.0,0.0
1695640582508,-0.98046875,-0.119140625,-0.061523438,-1.03125,-0.4375,0.34375,0.0,0.0,0.0
1695640582568,-0.98339844,-0.13867188,-0.064453125,-0.59375,-0.25,0.78125,0.0,0.0,0.0
1695640582597,-0.9921875,-0.13574219,-0.064453125,0.375,0.375,0.34375,0.0,0.0,0.0
1695640582627,-0.9873047,-0.12109375,-0.048828125,-0.125,-0.0625,0.34375,0.0,0.0,0.0
1695640582659,-0.98535156,-0.12695312,-0.061523438,-0.96875,-0.3125,0.40625,0.0,0.0,0.0
1695640582723,-0.97753906,-0.13964844,-0.061523438,-0.375,-0.0625,0.78125,0.0,0.0,0.0
1695640582749,-1.0029297,-0.123046875,-0.07128906,0.78125,0.4375,0.71875,0.0,0.0,0.0
1695640582784,-0.9941406,-0.12792969,-0.06640625,-0.25,-0.0625,0.59375,0.0,0.0,0.0
1695640582836,-0.9902344,-0.12695312,-0.061523438,-0.84375,-0.4375,0.53125,-109.9375,-23.9375,-76.25
1695640582868,-0.9863281,-0.13574219,-0.078125,-0.375,0.0625,0.46875,0.0,0.0,0.0
1695640582899,-0.9921875,-0.13183594,-0.06542969,0.375,0.125,0.46875,0.0,0.0,0.0
1695640582959,-0.9824219,-0.13964844,-0.061523438,1.28125,0.0,0.71875,0.0,0.0,0.0
1695640582987,-0.98828125,-0.12597656,-0.06542969,0.90625,0.5625,0.59375,0.0,0.0,0.0
1695640583017,-0.9863281,-0.12695312,-0.06738281,0.90625,0.0625,0.28125,0.0,0.0,0.0
1695640583079,-0.9873047,-0.12011719,-0.061523438,0.25,0.0,0.46875,0.0,0.0,0.0
1695640583106,-0.9814453,-0.12011719,-0.06738281,0.1875,0.125,0.46875,0.0,0.0,0.0
1695640583137,-0.9902344,-0.12402344,-0.06347656,-0.125,0.4375,0.65625,0.0,0.0,0.0
1695640583196,-0.9941406,-0.13476562,-0.05859375,-0.5625,-0.5,0.0625,0.0,0.0,0.0
1695640583227,-0.99121094,-0.12792969,-0.061523438,-0.71875,-0.1875,0.09375,0.0,0.0,0.0
1695640583258,-0.9814453,-0.12597656,-0.06347656,-0.65625,0.125,0.28125,0.0,0.0,0.0
1695640583317,-0.984375,-0.12402344,-0.07128906,-0.71875,-0.4375,0.0,0.0,0.0,0.0
1695640583346,-0.984375,-0.13671875,-0.064453125,0.125,0.25,0.15625,-109.8125,-24.125,-77.0
1695640583380,-0.98535156,-0.140625,-0.07421875,-0.375,-0.375,-0.1875,0.0,0.0,0.0
1695640583437,-0.98535156,-0.13378906,-0.07324219,-0.5625,-0.375,-0.1875,0.0,0.0,0.0
1695640583468,-0.9892578,-0.12988281,-0.0625,0.0,0.1875,0.15625,0.0,0.0,0.0
1695640583496,-0.98828125,-0.12695312,-0.06933594,0.125,-0.0625,-0.125,0.0,0.0,0.0
1695640583556,-0.9873047,-0.13183594,-0.07128906,-0.0625,0.1875,0.0,0.0,0.0,0.0
1695640583586,-0.98828125,-0.13476562,-0.05859375,-0.59375,-0.3125,-0.1875,0.0,0.0,0.0
1695640583616,-0.9863281,-0.14453125,-0.064453125,-1.03125,-0.125,-0.375,0.0,0.0,0.0
1695640583679,-0.99121094,-0.13378906,-0.072265625,0.0625,0.5,-0.1875,0.0,0.0,0.0
1695640583708,-0.9951172,-0.13476562,-0.07519531,-0.0625,0.3125,0.0,0.0,0.0,0.0
1695640583737,-0.984375,-0.13476562,-0.0703125,0.71875,0.59375,0.09375,0.0,0.0,0.0
1695640583799,-0.9863281,-0.12695312,-0.0625,0.125,0.25,0.0625,0.0,0.0,0.0
1695640583828,-0.9921875,-0.12011719,-0.06542969,-0.0625,0.0,0.15625,-110.875,-23.5,-75.625
1695640583859,-0.98828125,-0.12597656,-0.07421875,-0.0625,0.0625,0.09375,0.0,0.0,0.0
1695640583920,-0.9863281,-0.12792969,-0.06542969,-0.59375,-0.5,-0.125,0.0,0.0,0.0
1695640583946,-0.9873047,-0.12695312,-0.07324219,-0.5,0.0625,-0.0625,0.0,0.0,0.0
1695640583976,-1.0019531,-0.13183594,-0.07128906,0.25,0.1875,-0.25,0.0,0.0,0.0
1695640584040,-0.98046875,-0.12988281,-0.064453125,-1.09375,-0.5,-0.25,0.0,0.0,0.0
1695640584067,-0.9921875,-0.13183594,-0.061523438,-0.90625,-0.3125,0.0625,0.0,0.0,0.0
1695640584096,-0.984375,-0.13867188,-0.060546875,-0.71875,-0.25,-0.1875,0.0,0.0,0.0
1695640584160,-0.9892578,-0.14550781,-0.076171875,-0.125,-0.125,-0.25,0.0,0.0,0.0
1695640584190,-0.98046875,-0.13671875,-0.06542969,-0.125,0.0,0.0,0.0,0.0,0.0
1695640584215,-0.984375,-0.13574219,-0.083984375,0.6875,0.3125,0.09375,0.0,0.0,0.0
1695640584277,-0.98339844,-0.1328125,-0.07714844,0.78125,0.125,-0.0625,0.0,0.0,0.0
1695640584311,-0.99121094,-0.13476562,-0.055664062,0.1875,-0.125,-0.5,0.0,0.0,0.0
1695640584337,-0.99316406,-0.13183594,-0.06347656,-0.4375,-0.625,-0.375,-111.3125,-23.5,-76.375
1695640584399,-0.99121094,-0.12792969,-0.06738281,-0.65625,-0.0625,-0.0625,0.0,0.0,0.0
1695640584429,-0.9785156,-0.13769531,-0.07714844,-0.84375,-0.5625,-0.25,0.0,0.0,0.0
1695640584458,-0.984375,-0.140625,-0.07128906,-0.78125,-0.3125,-0.25,0.0,0.0,0.0
1695640584517,-0.99121094,-0.13574219,-0.064453125,-0.0625,0.25,-0.375,0.0,0.0,0.0
1695640584549,-0.9921875,-0.13476562,-0.059570312,-0.0625,-0.1875,-0.25,0.0,0.0,0.0
1695640584577,-0.99121094,-0.13378906,-0.06542969,-0.5,-0.125,0.28125,0.0,0.0,0.0
1695640584637,-0.9824219,-0.14746094,-0.068359375,0.0625,0.1875,0.21875,0.0,0.0,0.0
1695640584668,-0.9863281,-0.13378906,-0.07421875,0.1875,-0.125,-0.25,0.0,0.0,0.0
1695640584696,-0.98535156,-0.12890625,-0.06542969,0.5,0.3125,-0.1875,0.0,0.0,0.0
1695640584756,-0.9970703,-0.13964844,-0.057617188,0.25,0.1875,-0.0625,0.0,0.0,0.0
1695640584786,-0.98535156,-0.14355469,-0.068359375,0.5,0.1875,-0.0625,0.0,0.0,0.0
1695640584847,-0.98535156,-0.13378906,-0.06640625,1.28125,0.71875,-0.125,-109.625,-23.9375,-75.8125
1695640584875,-0.98535156,-0.13964844,-0.06640625,0.71875,0.25,-0.25,0.0,0.0,0.0
1695640584905,-0.98828125,-0.13574219,-0.059570312,-0.1875,-0.0625,0.15625,0.0,0.0,0.0
1695640584934,-0.984375,-0.15039062,-0.06640625,-0.65625,-0.1875,-0.0625,0.0,0.0,0.0
1695640584995,-0.9824219,-0.14550781,-0.06640625,-0.3125,0.0625,-0.3125,0.0,0.0,0.0
1695640585025,-0.98535156,-0.13476562,-0.051757812,-0.65625,-0.4375,-0.375,0.0,0.0,0.0
1695640585055,-0.99121094,-0.14746094,-0.068359375,-1.15625,-0.5,-0.375,0.0,0.0,0.0
1695640585115,-0.9824219,-0.14257812,-0.0703125,-2.9375,-1.03125,-0.625,0.0,0.0,0.0
1695640585145,-0.9824219,-0.15234375,-0.07519531,-2.0625,-0.625,-0.5625,0.0,0.0,0.0
1695640585175,-0.9765625,-0.15136719,-0.07128906,-1.84375,-0.96875,0.0,0.0,0.0,0.0
1695640585234,-0.984375,-0.14941406,-0.061523438,-0.0625,0.1875,0.28125,0.0,0.0,0.0
1695640585265,-0.9873047,-0.15234375,-0.06933594,0.1875,-0.125,0.46875,0.0,0.0,0.0
1695640585296,-1.0,-0.14257812,-0.060546875,0.625,0.375,0.65625,0.0,0.0,0.0
1695640585354,-0.9951172,-0.13574219,-0.0625,1.40625,0.3125,0.84375,-109.9375,-24.4375,-77.3125
1695640585384,-0.9892578,-0.13378906,-0.052734375,0.25,0.0625,0.46875,0.0,0.0,0.0
1695640585414,-0.9941406,-0.13476562,-0.0546875,-0.5,-0.25,0.59375,0.0,0.0,0.0
1695640585475,-0.9873047,-0.13476562,-0.06738281,-0.96875,-0.125,0.78125,0.0,0.0,0.0
1695640585504,-0.98828125,-0.16015625,-0.060546875,-0.65625,-0.1875,0.71875,0.0,0.0,0.0
1695640585534,-0.98339844,-0.14355469,-0.05859375,-0.25,-0.25,0.28125,0.0,0.0,0.0
1695640585594,-0.9824219,-0.13867188,-0.056640625,1.03125,0.78125,0.96875,0.0,0.0,0.0
1695640585626,-0.9921875,-0.13183594,-0.0703125,0.625,0.3125,1.09375,0.0,0.0,0.0
1695640585656,-0.9873047,-0.14746094,-0.057617188,1.28125,0.5,1.28125,0.0,0.0,0.0
1695640585719,-0.9921875,-0.14355469,-0.06640625,1.21875,0.5625,0.90625,0.0,0.0,0.0
1695640585747,-0.9921875,-0.13378906,-0.06542969,-0.375,-0.0625,0.40625,0.0,0.0,0.0
1695640585777,-0.9873047,-0.13769531,-0.057617188,-0.65625,-0.1875,0.15625,0.0,0.0,0.0
1695640585838,-0.9921875,-0.13964844,-0.057617188,0.25,-0.5,0.46875,-110.875,-23.8125,-76.375
1695640585868,-0.9863281,-0.13574219,-0.07324219,0.78125,0.0625,0.40625,0.0,0.0,0.0
1695640585898,-0.9873047,-0.13574219,-0.0625,1.40625,-0.0625,0.53125,0.0,0.0,0.0
1695640585959,-0.9902344,-0.13183594,-0.060546875,0.4375,-0.375,0.34375,0.0,0.0,0.0
1695640585988,-0.99121094,-0.13574219,-0.0859375,0.5625,0.125,0.28125,0.0,0.0,0.0
1695640586016,-0.9814453,-0.13671875,-0.0546875,0.5,-0.4375,0.09375,0.0,0.0,0.0
1695640586079,-0.9921875,-0.12988281,-0.049804688,-0.5,-0.5,0.28125,0.0,0.0,0.0
1695640586108,-0.9873047,-0.14355469,-0.05859375,-0.90625,-0.4375,0.15625,0.0,0.0,0.0
1695640586137,-0.99121094,-0.14550781,-0.07714844,-1.03125,-0.375,0.09375,0.0,0.0,0.0
1695640586203,-0.99316406,-0.14257812,-0.06347656,0.0625,0.1875,0.0625,0.0,0.0,0.0
1695640586227,-0.984375,-0.14257812,-0.06347656,0.5625,-0.125,0.15625,0.0,0.0,0.0
1695640586262,-0.9863281,-0.13378906,-0.072265625,1.21875,0.125,0.46875,0.0,0.0,0.0
1695640586318,-0.9863281,-0.13867188,-0.07128906,1.15625,0.1875,0.34375,0.0,0.0,0.0
1695640586348,-0.99316406,-0.13378906,-0.06542969,0.78125,0.0625,0.09375,-109.5,-22.3125,-74.875
1695640586378,-0.9921875,-0.14257812,-0.06640625,-0.1875,-0.25,0.0625,0.0,0.0,0.0
1695640586435,-0.99121094,-0.14257812,-0.064453125,-0.78125,-0.125,-0.125,0.0,0.0,0.0
1695640586467,-0.9824219,-0.14355469,-0.06542969,-0.65625,-0.1875,-0.0625,0.0,0.0,0.0
1695640586499,-0.9785156,-0.14550781,-0.06347656,-0.1875,0.0625,-0.0625,0.0,0.0,0.0
1695640586556,-0.99316406,-0.13574219,-0.057617188,0.0,-0.0625,-0.1875,0.0,0.0,0.0
1695640586588,-0.9863281,-0.14746094,-0.07128906,-0.59375,-0.125,-0.0625,0.0,0.0,0.0
1695640586617,-0.9902344,-0.1484375,-0.060546875,-0.84375,-0.3125,-0.25,0.0,0.0,0.0
1695640586676,-0.98046875,-0.13378906,-0.0625,-0.59375,-0.1875,0.0,0.0,0.0,0.0
1695640586711,-0.99121094,-0.140625,-0.0625,-0.0625,0.0,0.0625,0.0,0.0,0.0
1695640586739,-0.98535156,-0.13964844,-0.064453125,-1.03125,-0.5,0.15625,0.0,0.0,0.0
1695640586797,-0.984375,-0.14257812,-0.0703125,-1.09375,-0.1875,0.28125,0.0,0.0,0.0
1695640586828,-0.9824219,-0.14355469,-0.072265625,-0.90625,-0.0625,0.28125,-109.9375,-22.4375,-76.5625
1695640586858,-0.98828125,-0.13769531,-0.052734375,-0.5625,0.0,0.34375,0.0,0.0,0.0
1695640586916,-0.98046875,-0.15136719,-0.061523438,0.125,-0.1875,0.40625,0.0,0.0,0.0
1695640586949,-0.9902344,-0.14257812,-0.07128906,0.5625,0.1875,0.0625,0.0,0.0,0.0
1695640586978,-0.99121094,-0.12597656,-0.059570312,0.3125,0.1875,0.0625,0.0,0.0,0.0
1695640587038,-0.984375,-0.140625,-0.07910156,-1.40625,-0.375,0.21875,0.0,0.0,0.0
1695640587127,-0.9892578,-0.14648438,-0.06347656,-1.34375,-0.3125,0.15625,0.0,0.0,0.0
1695640587130,-0.98046875,-0.14160156,-0.047851562,-0.78125,0.0,0.40625,0.0,0.0,0.0
1695640587155,-0.98046875,-0.13769531,-0.057617188,0.5625,0.3125,0.28125,0.0,0.0,0.0
1695640587186,-0.9921875,-0.13867188,-0.059570312,-0.3125,-0.3125,0.53125,0.0,0.0,0.0
1695640587217,-0.984375,-0.14648438,-0.072265625,-0.5,-0.125,0.71875,0.0,0.0,0.0
1695640587278,-0.98339844,-0.14453125,-0.05859375,-0.1875,0.0,0.90625,0.0,0.0,0.0
1695640587306,-0.98828125,-0.13769531,-0.060546875,-0.4375,-0.0625,0.65625,0.0,0.0,0.0
1695640587339,-0.99609375,-0.15039062,-0.053710938,-1.09375,-0.125,0.59375,-111.0,-24.4375,-75.8125
1695640587396,-0.98535156,-0.14648438,-0.06347656,-0.71875,0.0,0.71875,0.0,0.0,0.0
1695640587426,-0.98046875,-0.15820312,-0.060546875,0.375,0.1875,1.03125,0.0,0.0,0.0
1695640587458,-0.9814453,-0.15234375,-0.061523438,1.78125,0.71875,1.21875,0.0,0.0,0.0
1695640587518,-0.9902344,-0.13476562,-0.05859375,1.90625,0.65625,1.34375,0.0,0.0,0.0
1695640587547,-0.99316406,-0.13574219,-0.06347656,0.71875,0.375,1.28125,0.0,0.0,0.0
1695640587578,-0.9873047,-0.13964844,-0.07324219,0.84375,0.4375,1.375,0.0,0.0,0.0
1695640587637,-0.98535156,-0.140625,-0.06347656,0.4375,0.5,1.28125,0.0,0.0,0.0
1695640587670,-0.9902344,-0.125,-0.07910156,0.5625,0.3125,1.375,0.0,0.0,0.0
1695640587698,-0.9951172,-0.12988281,-0.055664062,0.5625,0.59375,1.15625,0.0,0.0,0.0
1695640587759,-0.98828125,-0.13183594,-0.053710938,-0.5,-0.25,0.78125,0.0,0.0,0.0
1695640587789,-0.9892578,-0.12207031,-0.076171875,-0.78125,-0.0625,0.96875,0.0,0.0,0.0
1695640587818,-1.0019531,-0.12792969,-0.0546875,-0.90625,-0.5,0.78125,-111.0,-21.875,-76.875
1695640587877,-0.99316406,-0.14355469,-0.07128906,-0.96875,-0.6875,0.65625,0.0,0.0,0.0
1695640587907,-0.9902344,-0.140625,-0.07324219,-0.0625,-0.25,0.59375,0.0,0.0,0.0
1695640587939,-0.99316406,-0.13574219,-0.07324219,1.15625,0.1875,0.65625,0.0,0.0,0.0
1695640587999,-0.9863281,-0.13085938,-0.047851562,0.5625,-0.1875,0.90625,0.0,0.0,0.0
1695640588027,-0.9902344,-0.13671875,-0.046875,0.25,-0.1875,0.46875,0.0,0.0,0.0
1695640588058,-0.98828125,-0.12792969,-0.0546875,0.84375,0.1875,0.21875,0.0,0.0,0.0
1695640588117,-0.9980469,-0.12402344,-0.061523438,-0.71875,-0.4375,0.28125,0.0,0.0,0.0
1695640588149,-0.98828125,-0.13378906,-0.0703125,-1.78125,-0.78125,0.09375,0.0,0.0,0.0
1695640588178,-0.9902344,-0.13671875,-0.047851562,-0.5625,0.375,0.40625,0.0,0.0,0.0
1695640588240,-0.9921875,-0.14257812,-0.051757812,-0.65625,0.125,0.34375,0.0,0.0,0.0
1695640588266,-0.9794922,-0.15039062,-0.061523438,-0.3125,-0.375,-0.0625,0.0,0.0,0.0
1695640588296,-0.9902344,-0.12402344,-0.051757812,0.3125,0.375,0.09375,0.0,0.0,0.0
1695640588360,-0.9921875,-0.12402344,-0.06542969,-0.5,0.125,0.15625,-110.375,-22.9375,-76.25
1695640588387,-0.9970703,-0.12988281,-0.059570312,-0.84375,-0.375,-0.375,0.0,0.0,0.0
1695640588420,-0.98828125,-0.14355469,-0.06542969,-1.78125,-0.96875,-0.1875,0.0,0.0,0.0
1695640588478,-0.9951172,-0.12695312,-0.064453125,-0.65625,0.125,0.21875,0.0,0.0,0.0
1695640588507,-0.98828125,-0.13769531,-0.06738281,0.3125,-0.1875,0.15625,0.0,0.0,0.0
1695640588537,-0.9873047,-0.12988281,-0.06542969,0.0,-0.375,0.0625,0.0,0.0,0.0
1695640588597,-0.98828125,-0.13964844,-0.08105469,0.6875,0.3125,0.21875,0.0,0.0,0.0
1695640588630,-0.9980469,-0.13183594,-0.057617188,0.90625,0.25,0.34375,0.0,0.0,0.0
1695640588657,-0.9902344,-0.1328125,-0.051757812,-0.3125,0.0625,0.59375,0.0,0.0,0.0
1695640588719,-0.98828125,-0.13378906,-0.06640625,-0.4375,0.25,0.53125,0.0,0.0,0.0
1695640588748,-0.9921875,-0.13769531,-0.064453125,-1.15625,-0.0625,0.21875,0.0,0.0,0.0
1695640588778,-0.9824219,-0.14355469,-0.07324219,-1.21875,-0.625,0.0625,0.0,0.0,0.0
1695640588836,-0.98535156,-0.140625,-0.06347656,-0.125,-0.0625,0.34375,-110.375,-22.9375,-76.5625
1695640588871,-0.99316406,-0.13574219,-0.05859375,0.78125,0.3125,0.71875,0.0,0.0,0.0
1695640588898,-0.9902344,-0.12695312,-0.056640625,0.78125,0.125,0.65625,0.0,0.0,0.0
1695640588958,-0.9863281,-0.13183594,-0.076171875,0.0625,-0.0625,0.59375,0.0,0.0,0.0
1695640588989,-0.9970703,-0.12695312,-0.059570312,0.5625,0.3125,0.71875,0.0,0.0,0.0
1695640589017,-0.9814453,-0.13769531,-0.076171875,-0.25,-0.5,0.28125,0.0,0.0,0.0
1695640589078,-0.9921875,-0.12792969,-0.05859375,-0.125,-0.1875,0.21875,0.0,0.0,0.0
1695640589111,-0.98339844,-0.12695312,-0.07910156,-0.84375,-0.4375,0.21875,0.0,0.0,0.0
1695640589135,-0.984375,-0.13671875,-0.064453125,-0.5,-0.25,0.28125,0.0,0.0,0.0
1695640589200,-0.9873047,-0.13378906,-0.06347656,-0.125,-0.0625,0.40625,0.0,0.0,0.0
1695640589229,-0.9951172,-0.13574219,-0.0625,0.0625,0.125,0.15625,0.0,0.0,0.0
1695640589259,-0.9941406,-0.125,-0.05859375,-0.59375,-0.4375,-0.0625,0.0,0.0,0.0
1695640589315,-0.9902344,-0.13183594,-0.05859375,-0.59375,-0.375,0.15625,0.0,0.0,0.0
1695640589349,-0.9863281,-0.13085938,-0.061523438,-0.5625,-0.0625,0.28125,-110.375,-23.1875,-75.8125
1695640589407,-0.9863281,-0.13085938,-0.059570312,-0.125,0.0,0.34375,0.0,0.0,0.0
1695640589436,-0.984375,-0.12695312,-0.07128906,0.4375,0.25,0.34375,0.0,0.0,0.0
1695640589473,-0.9824219,-0.12597656,-0.0546875,-1.09375,-0.5625,0.21875,0.0,0.0,0.0
1695640589495,-0.9921875,-0.13476562,-0.072265625,-0.25,0.125,0.40625,0.0,0.0,0.0
1695640589556,-0.98535156,-0.13671875,-0.064453125,-0.4375,-0.1875,0.78125,0.0,0.0,0.0
1695640589590,-0.9824219,-0.13378906,-0.072265625,1.03125,0.59375,0.71875,0.0,0.0,0.0
1695640589620,-0.98339844,-0.13378906,-0.080078125,0.90625,0.3125,0.53125,0.0,0.0,0.0
1695640589676,-0.9902344,-0.13476562,-0.055664062,0.0,0.375,0.59375,0.0,0.0,0.0
1695640589708,-0.98535156,-0.1328125,-0.07324219,-0.0625,0.1875,0.59375,0.0,0.0,0.0
1695640589736,-0.9892578,-0.13574219,-0.056640625,0.71875,0.375,0.59375,0.0,0.0,0.0
1695640589797,-0.9941406,-0.12597656,-0.0703125,0.0625,0.25,0.15625,0.0,0.0,0.0
1695640589828,-0.9892578,-0.12988281,-0.051757812,0.1875,0.1875,0.21875,-110.125,-24.125,-77.4375
1695640589859,-0.9873047,-0.13476562,-0.07421875,-0.84375,-0.6875,0.21875,0.0,0.0,0.0
1695640589917,-0.984375,-0.1328125,-0.061523438,-0.1875,0.0,0.40625,0.0,0.0,0.0
1695640589944,-0.984375,-0.13671875,-0.06347656,-0.90625,-0.625,0.46875,0.0,0.0,0.0
1695640589975,-0.98828125,-0.13671875,-0.0703125,-0.78125,0.0,0.46875,0.0,0.0,0.0
1695640590036,-0.9921875,-0.13476562,-0.0625,0.4375,0.71875,0.59375,0.0,0.0,0.0
1695640590065,-0.98339844,-0.140625,-0.0546875,-0.65625,-0.3125,0.53125,0.0,0.0,0.0
1695640590094,-0.9921875,-0.125,-0.059570312,1.28125,0.78125,0.65625,0.0,0.0,0.0
1695640590160,-0.9863281,-0.1171875,-0.05078125,0.84375,0.1875,0.28125,0.0,0.0,0.0
1695640590188,-0.9892578,-0.115234375,-0.07128906,-0.4375,0.0625,0.28125,0.0,0.0,0.0
1695640590216,-0.99316406,-0.13574219,-0.078125,-0.0625,0.125,0.21875,0.0,0.0,0.0
1695640590277,-0.98828125,-0.12792969,-0.059570312,-0.59375,-0.3125,-0.0625,0.0,0.0,0.0
1695640590307,-0.9765625,-0.13183594,-0.06933594,0.25,0.1875,0.28125,0.0,0.0,0.0
1695640590367,-0.9951172,-0.12402344,-0.060546875,0.1875,-0.0625,0.0,-108.75,-22.75,-77.4375
1695640590397,-0.9814453,-0.12402344,-0.064453125,-1.9375,-1.28125,-0.0625,0.0,0.0,0.0
1695640590428,-0.98535156,-0.12207031,-0.07421875,-1.21875,0.0625,0.28125,0.0,0.0,0.0
1695640590457,-0.9863281,-0.13476562,-0.055664062,-1.21875,-0.90625,0.0625,0.0,0.0,0.0
1695640590516,-0.9814453,-0.13378906,-0.068359375,-0.59375,-0.75,-0.125,0.0,0.0,0.0
1695640590543,-0.9785156,-0.1328125,-0.064453125,1.03125,-0.0625,0.71875,0.0,0.0,0.0
1695640590581,-0.97558594,-0.1328125,-0.059570312,2.125,0.125,0.84375,0.0,0.0,0.0
1695640590636,-0.9873047,-0.125,-0.048828125,1.53125,0.125,0.53125,0.0,0.0,0.0
1695640590669,-0.9873047,-0.12988281,-0.048828125,0.0,0.0,0.34375,0.0,0.0,0.0
1695640590727,-0.98828125,-0.12402344,-0.055664062,-1.78125,-0.6875,0.21875,0.0,0.0,0.0
1695640590759,-0.9863281,-0.1328125,-0.072265625,-2.375,-0.75,0.34375,0.0,0.0,0.0
1695640590787,-0.9873047,-0.13671875,-0.053710938,-1.21875,0.0,0.28125,0.0,0.0,0.0
1695640590847,-0.9863281,-0.140625,-0.0703125,-0.59375,-0.25,0.46875,-110.875,-22.75,-76.375
1695640590879,-0.98828125,-0.13085938,-0.0859375,0.6875,0.59375,0.53125,0.0,0.0,0.0
1695640590906,-0.98535156,-0.125,-0.053710938,0.3125,0.0,0.40625,0.0,0.0,0.0
1695640590967,-0.99609375,-0.12207031,-0.053710938,0.0,-0.1875,0.21875,0.0,0.0,0.0
1695640590999,-0.9863281,-0.123046875,-0.07421875,1.09375,0.375,0.28125,0.0,0.0,0.0
1695640591027,-0.9951172,-0.12207031,-0.064453125,0.1875,-0.375,-0.3125,0.0,0.0,0.0
1695640591088,-0.9902344,-0.11621094,-0.06542969,0.3125,-0.1875,-0.25,0.0,0.0,0.0
1695640591120,-0.9873047,-0.123046875,-0.0625,0.84375,0.25,-0.125,0.0,0.0,0.0
1695640591148,-0.99609375,-0.12011719,-0.0625,0.0,-0.375,-0.625,0.0,0.0,0.0
1695640591206,-0.9794922,-0.13378906,-0.05078125,-0.65625,-0.78125,-0.625,0.0,0.0,0.0
1695640591236,-0.9902344,-0.1328125,-0.072265625,-0.96875,-0.5625,-0.875,0.0,0.0,0.0
1695640591266,-0.9902344,-0.13378906,-0.068359375,-0.5625,-0.1875,-0.6875,0.0,0.0,0.0
1695640591328,-0.98828125,-0.14160156,-0.06542969,0.90625,0.5625,-0.625,0.0,0.0,0.0
1695640591357,-0.984375,-0.14648438,-0.06640625,1.09375,0.1875,-0.4375,-108.875,-22.4375,-76.5625
1695640591388,-0.9863281,-0.13378906,-0.061523438,0.71875,0.5625,-0.3125,0.0,0.0,0.0
1695640591447,-0.9941406,-0.13183594,-0.057617188,0.5625,0.25,-0.5,0.0,0.0,0.0
1695640591478,-0.99316406,-0.12597656,-0.064453125,0.4375,0.0,-0.4375,0.0,0.0,0.0
1695640591506,-0.99316406,-0.1328125,-0.055664062,-0.3125,-0.1875,-0.8125,0.0,0.0,0.0
1695640591567,-0.9863281,-0.13378906,-0.06640625,-0.1875,-0.125,-0.6875,0.0,0.0,0.0
1695640591596,-0.9892578,-0.14941406,-0.0625,-1.78125,-0.90625,-0.9375,0.0,0.0,0.0
1695640591624,-0.98046875,-0.14257812,-0.064453125,-0.59375,0.1875,-0.5,0.0,0.0,0.0
1695640591687,-0.9824219,-0.13964844,-0.07519531,0.3125,0.25,0.0,0.0,0.0,0.0
1695640591720,-0.9873047,-0.14355469,-0.061523438,0.375,0.125,-0.0625,0.0,0.0,0.0
1695640591748,-0.99121094,-0.13476562,-0.07324219,-0.3125,-0.0625,-0.125,0.0,0.0,0.0
1695640591809,-0.9863281,-0.13476562,-0.046875,-0.4375,0.5,0.09375,0.0,0.0,0.0
1695640591836,-0.9941406,-0.14453125,-0.068359375,-0.96875,-0.3125,0.21875,-109.1875,-23.9375,-75.1875
1695640591866,-0.98046875,-0.14453125,-0.068359375,-0.0625,0.4375,0.28125,0.0,0.0,0.0
1695640591929,-0.99316406,-0.14160156,-0.05859375,0.78125,0.5625,0.40625,0.0,0.0,0.0
1695640591956,-0.98046875,-0.13183594,-0.05859375,0.0625,-0.0625,0.0,0.0,0.0,0.0
1695640591989,-0.9863281,-0.13769531,-0.072265625,0.4375,0.125,0.59375,0.0,0.0,0.0
1695640592050,-0.98828125,-0.14160156,-0.06542969,1.59375,0.5625,0.78125,0.0,0.0,0.0
1695640592078,-0.9921875,-0.13671875,-0.059570312,1.65625,0.65625,0.28125,0.0,0.0,0.0
1695640592106,-0.9941406,-0.13085938,-0.046875,1.03125,0.65625,0.09375,0.0,0.0,0.0
1695640592170,-0.9892578,-0.14257812,-0.064453125,-0.125,-0.25,-0.125,0.0,0.0,0.0
1695640592195,-0.98828125,-0.12695312,-0.076171875,1.15625,0.4375,0.21875,0.0,0.0,0.0
1695640592228,-0.99121094,-0.13085938,-0.083984375,0.96875,0.125,0.09375,0.0,0.0,0.0
1695640592316,-0.9921875,-0.14355469,-0.0546875,0.96875,0.5,-0.0625,0.0,0.0,0.0
1695640592319,-0.99316406,-0.13476562,-0.053710938,-0.5625,-0.1875,-0.1875,0.0,0.0,0.0
1695640592345,-0.99316406,-0.14355469,-0.057617188,-0.1875,0.0,-0.0625,-110.375,-23.6875,-77.3125
1695640592404,-0.98828125,-0.14355469,-0.060546875,0.4375,0.25,0.34375,0.0,0.0,0.0
1695640592434,-0.9863281,-0.13476562,-0.05078125,0.84375,0.5625,0.21875,0.0,0.0,0.0
1695640592464,-0.98828125,-0.13378906,-0.047851562,-0.3125,-0.0625,-0.125,0.0,0.0,0.0
1695640592529,-0.9902344,-0.12402344,-0.05859375,-0.59375,-0.1875,-0.1875,0.0,0.0,0.0
1695640592558,-0.9814453,-0.140625,-0.080078125,-0.5,-0.0625,0.0625,0.0,0.0,0.0
1695640592585,-0.98046875,-0.14453125,-0.046875,-0.0625,0.0625,0.21875,0.0,0.0,0.0
1695640592644,-0.98535156,-0.13769531,-0.0625,-0.65625,-0.4375,-0.125,0.0,0.0,0.0
1695640592675,-0.99121094,-0.13378906,-0.046875,0.0,0.0,-0.1875,0.0,0.0,0.0
1695640592704,-0.98046875,-0.13378906,-0.076171875,-1.03125,-0.4375,0.0625,0.0,0.0,0.0
1695640592765,-0.984375,-0.14257812,-0.06542969,-0.4375,0.4375,0.34375,0.0,0.0,0.0
1695640592795,-0.9902344,-0.140625,-0.07128906,0.1875,0.25,0.34375,0.0,0.0,0.0
1695640592826,-0.9873047,-0.12597656,-0.06640625,0.0625,0.25,0.34375,-109.9375,-23.1875,-75.5
1695640592888,-0.98339844,-0.13476562,-0.07910156,-0.5625,-0.125,0.46875,0.0,0.0,0.0
1695640592919,-0.99121094,-0.140625,-0.06347656,-0.0625,0.3125,0.28125,0.0,0.0,0.0
1695640592948,-0.98828125,-0.14160156,-0.05078125,0.5625,-0.1875,-0.1875,0.0,0.0,0.0
1695640593010,-0.98339844,-0.13476562,-0.0703125,1.15625,0.375,-0.125,0.0,0.0,0.0
1695640593038,-0.9921875,-0.13085938,-0.07324219,0.4375,0.4375,0.0625,0.0,0.0,0.0
1695640593069,-0.9902344,-0.1328125,-0.051757812,0.1875,-0.3125,-0.1875,0.0,0.0,0.0
1695640593132,-0.97558594,-0.13476562,-0.061523438,-0.5,-0.5625,-0.6875,0.0,0.0,0.0
1695640593157,-0.98535156,-0.14257812,-0.0703125,-0.25,-0.25,-0.625,0.0,0.0,0.0
1695640593188,-0.9863281,-0.14355469,-0.055664062,-0.375,-0.3125,-0.4375,0.0,0.0,0.0
1695640593246,-0.984375,-0.14355469,-0.05859375,-0.1875,0.0625,-0.5,0.0,0.0,0.0
1695640593281,-0.98828125,-0.14160156,-0.048828125,0.3125,0.0625,-0.3125,0.0,0.0,0.0
1695640593309,-0.9814453,-0.14648438,-0.06542969,0.25,0.3125,-0.25,0.0,0.0,0.0
1695640593369,-0.99316406,-0.13964844,-0.060546875,0.5625,0.5,-0.375,-110.125,-23.5,-75.9375
1695640593398,-0.9873047,-0.13769531,-0.06542969,-0.25,-0.4375,-0.5,0.0,0.0,0.0
1695640593426,-0.98828125,-0.13867188,-0.064453125,-0.125,0.0,-0.375,0.0,0.0,0.0
1695640593488,-0.9941406,-0.14257812,-0.047851562,-0.65625,-0.625,-0.75,0.0,0.0,0.0
1695640593517,-0.98535156,-0.14453125,-0.061523438,-0.90625,-0.3125,-0.6875,0.0,0.0,0.0
1695640593547,-0.98535156,-0.13769531,-0.053710938,-1.03125,-0.375,-0.625,0.0,0.0,0.0
1695640593608,-0.98828125,-0.14453125,-0.06347656,-0.71875,-0.4375,-0.5,0.0,0.0,0.0
1695640593636,-0.984375,-0.14941406,-0.07128906,-0.71875,-0.375,-0.3125,0.0,0.0,0.0
1695640593669,-0.9824219,-0.14355469,-0.057617188,0.3125,0.1875,-0.25,0.0,0.0,0.0
1695640593727,-0.98828125,-0.14648438,-0.06542969,-0.125,-0.0625,-0.1875,0.0,0.0,0.0
1695640593757,-0.9980469,-0.14257812,-0.052734375,-0.65625,-0.375,-0.625,0.0,0.0,0.0
1695640593787,-0.9765625,-0.15429688,-0.06347656,-0.78125,-0.5625,-0.5625,0.0,0.0,0.0
1695640593848,-0.9824219,-0.15234375,-0.078125,-0.125,-0.3125,-0.3125,-110.6875,-23.9375,-74.4375
1695640593878,-0.9765625,-0.14648438,-0.06640625,0.6875,0.1875,-0.125,0.0,0.0,0.0
1695640593908,-0.9902344,-0.13671875,-0.061523438,0.5,0.375,0.0,0.0,0.0,0.0
1695640593967,-0.99609375,-0.14355469,-0.060546875,-0.3125,0.3125,0.21875,0.0,0.0,0.0
1695640593998,-0.98535156,-0.14453125,-0.059570312,-1.21875,-0.1875,0.21875,0.0,0.0,0.0
1695640594031,-0.97558594,-0.15429688,-0.052734375,-0.5625,0.0625,0.59375,0.0,0.0,0.0
1695640594088,-0.9902344,-0.15039062,-0.049804688,1.03125,0.71875,0.78125,0.0,0.0,0.0
1695640594119,-0.9921875,-0.140625,-0.051757812,0.71875,0.1875,0.34375,0.0,0.0,0.0
1695640594147,-0.98339844,-0.14453125,-0.055664062,-0.125,0.25,0.09375,0.0,0.0,0.0
1695640594205,-0.9873047,-0.14453125,-0.07324219,-0.3125,0.0,0.40625,0.0,0.0,0.0
1695640594238,-0.9863281,-0.15136719,-0.055664062,0.6875,0.0625,0.09375,0.0,0.0,0.0
1695640594268,-0.98046875,-0.13671875,-0.047851562,-0.125,-0.125,0.0625,0.0,0.0,0.0
1695640594329,-0.9892578,-0.14453125,-0.05078125,-1.34375,-0.5,0.09375,0.0,0.0,0.0
1695640594360,-0.98535156,-0.14746094,-0.059570312,-1.15625,-0.4375,0.0,-109.625,-23.9375,-75.8125
1695640594386,-0.9941406,-0.14746094,-0.060546875,0.3125,0.3125,0.34375,0.0,0.0,0.0
1695640594449,-0.99316406,-0.15429688,-0.046875,0.71875,0.25,0.21875,0.0,0.0,0.0
1695640594477,-0.9902344,-0.14648438,-0.061523438,0.5,0.0625,0.15625,0.0,0.0,0.0
1695640594507,-0.984375,-0.14257812,-0.055664062,0.3125,0.4375,0.46875,0.0,0.0,0.0
1695640594572,-0.98828125,-0.140625,-0.068359375,-0.125,-0.25,0.59375,0.0,0.0,0.0
1695640594625,-0.984375,-0.15429688,-0.0703125,0.125,0.125,0.53125,0.0,0.0,0.0
1695640594628,-0.9863281,-0.13769531,-0.057617188,0.25,0.4375,0.53125,0.0,0.0,0.0
1695640594688,-0.98535156,-0.13574219,-0.0546875,-0.78125,-0.5,0.28125,0.0,0.0,0.0
1695640594717,-0.98046875,-0.15332031,-0.0625,-0.78125,-0.125,0.28125,0.0,0.0,0.0
1695640594748,-0.98339844,-0.14257812,-0.05078125,0.5,0.5,0.46875,0.0,0.0,0.0
1695640594809,-0.9863281,-0.14648438,-0.053710938,0.625,0.1875,0.09375,0.0,0.0,0.0
1695640594841,-0.9921875,-0.13085938,-0.052734375,-0.1875,0.125,0.46875,-109.8125,-26.0625,-77.4375
1695640594868,-0.9814453,-0.13867188,-0.055664062,-0.90625,-0.1875,0.40625,0.0,0.0,0.0
1695640594927,-0.97753906,-0.14941406,-0.060546875,-0.65625,-0.125,0.09375,0.0,0.0,0.0
1695640594959,-0.9814453,-0.13867188,-0.061523438,0.25,0.375,0.40625,0.0,0.0,0.0
1695640594989,-0.984375,-0.13476562,-0.06542969,-0.3125,0.0625,0.21875,0.0,0.0,0.0
1695640595047,-0.9863281,-0.14257812,-0.060546875,-0.1875,-0.1875,0.34375,0.0,0.0,0.0
1695640595078,-0.98828125,-0.14160156,-0.060546875,-0.375,-0.0625,0.09375,0.0,0.0,0.0
1695640595107,-0.9873047,-0.14648438,-0.059570312,-0.5625,-0.3125,0.0625,0.0,0.0,0.0
1695640595167,-0.98828125,-0.14453125,-0.051757812,0.4375,0.3125,0.28125,0.0,0.0,0.0
1695640595197,-0.99121094,-0.1328125,-0.06738281,-0.0625,0.0,0.0625,0.0,0.0,0.0
1695640595225,-0.9873047,-0.14746094,-0.06640625,0.3125,0.4375,0.09375,0.0,0.0,0.0
1695640595286,-0.9863281,-0.140625,-0.0546875,0.84375,0.4375,0.15625,0.0,0.0,0.0
1695640595325,-0.98046875,-0.15136719,-0.052734375,0.125,0.0,0.09375,0.0,0.0,0.0
1695640595346,-0.99316406,-0.14160156,-0.060546875,0.625,0.375,-0.0625,-110.125,-22.75,-76.6875
1695640595406,-0.9814453,-0.140625,-0.06640625,0.0,-0.0625,-0.125,0.0,0.0,0.0
1695640595434,-0.9951172,-0.13769531,-0.0703125,0.25,0.5,0.15625,0.0,0.0,0.0
1695640595464,-0.9873047,-0.14746094,-0.059570312,-0.25,-0.3125,-0.25,0.0,0.0,0.0
