,timestamp,accel_x,accel_y,accel_z,gyro_x,gyro_y,gyro_z
0,1697605965,-1.0058594,-0.038085938,-0.08105469,0.8125,0.46875,0.375
1,1697606005,-1.0185547,-0.024414062,-0.0859375,0.6875,0.34375,0.4375
2,1697606045,-1.0234375,-0.034179688,-0.08300781,0.125,0.15625,0.375
3,1697606085,-1.0146484,-0.017578125,-0.06347656,0.0625,-0.4375,-0.125
4,1697606125,-1.0087891,-0.022460938,-0.08984375,-0.03125,-0.4375,-0.25
5,1697606165,-1.0126953,-0.0390625,-0.07910156,-0.21875,0.0625,-0.25
6,1697606205,-1.015625,-0.030273438,-0.07421875,0.25,0.0625,-0.0625
7,1697606245,-1.015625,-0.03515625,-0.083984375,-0.28125,-0.1875,-0.25
8,1697606285,-1.0078125,-0.01953125,-0.091796875,-0.78125,-0.5,-0.59375
9,1697606325,-1.0136719,-0.0390625,-0.09765625,-1.21875,-0.0625,-0.40625
10,1697606365,-1.0107422,-0.041015625,-0.09277344,-0.78125,0.15625,-0.125
11,1697606405,-1.0146484,-0.0390625,-0.09472656,-0.28125,-0.125,-0.125
12,1697606445,-1.0214844,-0.046875,-0.07714844,-0.09375,-0.1875,0.1875
13,1697606485,-1.0185547,-0.048828125,-0.0859375,0.6875,-0.1875,0.3125
14,1697606525,-1.0195312,-0.030273438,-0.0703125,0.8125,-0.0625,0.25
15,1697606565,-1.0175781,-0.03515625,-0.080078125,-0.21875,0.40625,0.3125
16,1697606605,-1.015625,-0.0390625,-0.06347656,-0.15625,0.21875,-0.0625
17,1697606645,-1.0166016,-0.02734375,-0.07714844,-0.03125,-0.375,-0.34375
18,1697606685,-1.0175781,-0.0234375,-0.08886719,-0.59375,-0.3125,-0.46875
19,1697606725,-1.0224609,-0.028320312,-0.06933594,-0.40625,-0.1875,-0.125
20,1697606765,-1.015625,-0.030273438,-0.08984375,-0.40625,0.0625,-0.0625
21,1697606805,-1.0166016,-0.030273438,-0.078125,-0.46875,0.15625,-0.0625
22,1697606845,-1.0195312,-0.040039062,-0.087890625,-0.03125,-0.0625,0.0625
23,1697606885,-1.0166016,-0.041015625,-0.087890625,-0.21875,-0.0625,-0.1875
24,1697606925,-1.0117188,-0.030273438,-0.07910156,-0.21875,-0.125,-0.1875
25,1697606965,-1.0068359,-0.033203125,-0.09765625,-0.21875,-0.1875,-0.0625
26,1697607005,-1.0146484,-0.03515625,-0.08203125,0.03125,-0.125,0.125
27,1697607045,-1.015625,-0.03515625,-0.08691406,0.25,0.0625,0.1875
28,1697607085,-1.0136719,-0.037109375,-0.07128906,0.1875,0.28125,0.375
29,1697607125,-1.0126953,-0.034179688,-0.0859375,0.375,0.0,0.125
30,1697607165,-1.0078125,-0.026367188,-0.076171875,0.0625,-0.1875,-0.0625
31,1697607205,-1.015625,-0.0390625,-0.08984375,-0.03125,-0.3125,-0.28125
32,1697607245,-1.0058594,-0.03515625,-0.087890625,-0.03125,-0.125,-0.1875
33,1697607285,-1.0195312,-0.032226562,-0.08984375,0.125,-0.125,0.1875
34,1697607325,-1.0107422,-0.017578125,-0.087890625,0.625,-0.1875,0.375
35,1697607365,-1.0175781,-0.028320312,-0.059570312,0.75,0.21875,0.5625
36,1697607405,-1.015625,-0.0107421875,-0.07714844,0.125,0.40625,0.25
37,1697607445,-1.0175781,-0.034179688,-0.08105469,-0.40625,0.15625,0.0625
38,1697607485,-1.0146484,-0.056640625,-0.080078125,-1.09375,0.28125,0.0
39,1697607525,-1.015625,-0.047851562,-0.09277344,-1.03125,0.15625,-0.1875
40,1697607565,-1.0126953,-0.0390625,-0.099609375,-1.21875,0.28125,0.0625
41,1697607605,-1.0126953,-0.040039062,-0.09375,-1.09375,0.78125,0.4375
42,1697607645,-1.0136719,-0.041992188,-0.068359375,-0.40625,0.46875,0.5625
43,1697607685,-1.0126953,-0.021484375,-0.09667969,0.4375,0.09375,0.625
44,1697607725,-1.0234375,-0.03515625,-0.0859375,0.625,-0.0625,0.375
45,1697607765,-1.0136719,-0.0234375,-0.091796875,0.5625,-0.25,0.1875
46,1697607805,-1.015625,-0.0234375,-0.08691406,0.1875,-0.125,0.1875
47,1697607845,-1.0117188,-0.01953125,-0.08496094,-0.90625,0.28125,0.0
48,1697607885,-1.0126953,-0.043945312,-0.07519531,-1.375,0.46875,-0.0625
49,1697607925,-1.0175781,-0.029296875,-0.0703125,-0.46875,0.0625,-0.40625
50,1697607965,-1.0185547,-0.032226562,-0.08300781,-0.90625,-0.0625,-0.28125
51,1697608005,-1.0136719,-0.0390625,-0.08203125,-0.46875,-0.3125,-0.53125
52,1697608045,-1.0097656,-0.032226562,-0.08691406,0.25,-0.3125,-0.1875
53,1697608085,-1.0019531,-0.03125,-0.087890625,0.125,-0.25,-0.375
54,1697608125,-1.0097656,-0.028320312,-0.08105469,-0.28125,-0.0625,0.03125
55,1697608165,-1.0175781,-0.051757812,-0.099609375,-0.59375,0.21875,0.03125
56,1697608205,-1.0117188,-0.041992188,-0.09082031,0.625,-0.3125,-0.1875
57,1697608245,-1.0136719,-0.032226562,-0.08691406,1.09375,-0.4375,0.03125
58,1697608285,-1.0146484,-0.029296875,-0.08203125,1.09375,-0.3125,-0.125
59,1697608325,-1.0009766,-0.028320312,-0.08496094,1.53125,-0.4375,0.21875
60,1697608365,-1.0136719,-0.030273438,-0.087890625,1.03125,-0.0625,0.21875
61,1697608405,-1.0166016,-0.030273438,-0.08300781,0.75,-0.3125,0.15625
62,1697608445,-1.015625,-0.033203125,-0.078125,0.375,-0.0625,-0.0625
63,1697608485,-1.0224609,-0.036132812,-0.07519531,0.25,-0.3125,-0.1875
64,1697608525,-1.015625,-0.032226562,-0.08496094,0.4375,-0.5,-0.1875
65,1697608565,-1.0097656,-0.041015625,-0.080078125,0.125,-0.375,-0.4375
66,1697608605,-1.0146484,-0.03515625,-0.08105469,0.125,-0.5,-0.6875
67,1697608645,-1.0146484,-0.03125,-0.080078125,0.125,-0.375,-0.4375
68,1697608685,-1.015625,-0.041992188,-0.08105469,0.0625,-0.3125,-0.3125
69,1697608725,-1.0136719,-0.041015625,-0.08105469,0.375,-0.6875,-0.25
70,1697608765,-1.0029297,-0.024414062,-0.09082031,0.5,-0.625,-0.5
71,1697608805,-1.0185547,-0.02734375,-0.08984375,-0.0625,-0.6875,-0.4375
72,1697608845,-1.0078125,-0.021484375,-0.07714844,0.1875,-0.375,-0.25
73,1697608885,-1.015625,-0.03125,-0.07519531,0.0,-0.1875,0.0
74,1697608925,-1.0097656,-0.024414062,-0.076171875,0.25,0.0,-0.0625
75,1697608965,-1.0166016,-0.037109375,-0.07519531,-0.0625,-0.125,0.0
76,1697609005,-1.0136719,-0.043945312,-0.08300781,-0.1875,-0.0625,-0.3125
77,1697609045,-1.015625,-0.040039062,-0.07421875,-0.28125,-0.125,-0.1875
78,1697609085,-1.0166016,-0.033203125,-0.08691406,-0.28125,-0.1875,-0.125
79,1697609125,-1.0078125,-0.026367188,-0.07714844,0.0,-0.125,-0.125
80,1697609165,-1.0146484,-0.0390625,-0.08105469,0.4375,-0.0625,-0.0625
81,1697609205,-1.0078125,-0.041015625,-0.095703125,0.8125,-0.125,0.34375
82,1697609245,-1.0136719,-0.043945312,-0.08300781,0.375,0.0,0.0
83,1697609285,-1.0097656,-0.022460938,-0.08105469,0.8125,-0.5,-0.125
84,1697609325,-1.0185547,-0.03515625,-0.08691406,0.0,-0.3125,-0.1875
85,1697609365,-1.0117188,-0.028320312,-0.06933594,0.0625,-0.3125,-0.125
86,1697609405,-1.0146484,-0.026367188,-0.07910156,0.125,-0.125,-0.0625
87,1697609445,-1.0078125,-0.028320312,-0.08203125,0.3125,-0.25,-0.1875
88,1697609485,-1.015625,-0.037109375,-0.07128906,0.1875,-0.1875,0.09375
89,1697609525,-1.0136719,-0.0390625,-0.07519531,0.1875,-0.0625,0.03125
90,1697609565,-1.0146484,-0.038085938,-0.07519531,-0.0625,-0.4375,-0.25
91,1697609605,-1.0185547,-0.034179688,-0.07910156,0.375,-0.6875,-0.3125
92,1697609645,-1.0146484,-0.029296875,-0.083984375,0.125,-1.0625,-0.625
93,1697609685,-1.0039062,-0.040039062,-0.08691406,-0.53125,-0.8125,-0.625
94,1697609725,-1.0087891,-0.038085938,-0.0859375,-0.1875,-0.1875,-0.5
95,1697609765,-1.0146484,-0.041015625,-0.1015625,0.0625,0.03125,0.03125
96,1697609805,-1.0068359,-0.037109375,-0.087890625,0.25,-0.3125,-0.0625
97,1697609845,-1.0058594,-0.03125,-0.07714844,0.3125,-0.25,-0.125
98,1697609885,-1.0117188,-0.0390625,-0.08496094,0.3125,-0.1875,-0.0625
99,1697609925,-1.0146484,-0.02734375,-0.080078125,0.25,-0.0625,0.09375
100,1697609965,-1.0136719,-0.038085938,-0.08105469,0.1875,0.03125,-0.0625
101,1697610005,-1.0136719,-0.03125,-0.083984375,0.3125,-0.125,-0.125
102,1697610045,-1.0087891,-0.0390625,-0.09277344,0.125,-0.125,-0.125
103,1697610085,-1.0185547,-0.026367188,-0.09472656,0.125,-0.25,-0.0625
104,1697610125,-1.0087891,-0.026367188,-0.078125,0.125,-0.25,-0.25
105,1697610165,-1.0068359,-0.040039062,-0.07714844,0.0625,-0.1875,0.0
106,1697610205,-1.0175781,-0.03515625,-0.072265625,0.1875,-0.3125,-0.1875
107,1697610245,-1.0146484,-0.032226562,-0.072265625,0.25,-0.125,0.0
108,1697610285,-1.0175781,-0.049804688,-0.087890625,-0.125,-0.0625,-0.1875
109,1697610325,-1.0224609,-0.03125,-0.072265625,0.125,-0.3125,-0.25
110,1697610365,-1.0078125,-0.041992188,-0.080078125,-0.1875,-0.1875,-0.1875
111,1697610405,-1.0039062,-0.029296875,-0.08300781,0.0625,-0.25,-0.125
112,1697610445,-1.0205078,-0.0390625,-0.08203125,0.375,-0.25,0.0
113,1697610485,-1.0185547,-0.038085938,-0.08984375,0.4375,-0.1875,-0.0625
114,1697610525,-1.0185547,-0.028320312,-0.0703125,0.125,-0.25,0.0
115,1697610565,-1.0195312,-0.041992188,-0.0703125,0.25,-0.125,-0.125
116,1697610605,-1.0146484,-0.03515625,-0.080078125,0.125,-0.125,-0.125
117,1697610645,-1.0097656,-0.03515625,-0.078125,0.125,-0.125,-0.0625
118,1697610685,-1.0087891,-0.041015625,-0.07910156,0.375,-0.3125,-0.0625
119,1697610725,-1.0166016,-0.020507812,-0.06542969,0.0,-0.125,0.0
120,1697610765,-1.015625,-0.0390625,-0.07519531,-0.125,-0.0625,-0.125
121,1697610805,-1.0195312,-0.057617188,-0.06933594,0.0,0.03125,0.09375
122,1697610845,-1.0146484,-0.040039062,-0.08105469,0.125,-0.4375,-0.3125
123,1697610885,-1.0205078,-0.030273438,-0.08203125,0.25,-0.4375,-0.3125
124,1697610925,-1.0136719,-0.03515625,-0.08496094,0.0625,-0.375,-0.4375
125,1697610965,-1.0068359,-0.029296875,-0.07910156,0.25,-0.0625,-0.0625
126,1697611005,-1.0136719,-0.029296875,-0.07128906,0.4375,0.03125,0.15625
127,1697611045,-1.0146484,-0.033203125,-0.078125,0.125,0.03125,0.09375
128,1697611085,-1.0117188,-0.034179688,-0.08300781,0.0,-0.125,-0.0625
129,1697611125,-1.0166016,-0.038085938,-0.07714844,0.0625,-0.1875,-0.1875
130,1697611165,-1.0136719,-0.033203125,-0.083984375,0.0,-0.125,-0.0625
131,1697611205,-1.0175781,-0.03515625,-0.087890625,0.125,-0.3125,-0.1875
132,1697611245,-1.0126953,-0.03515625,-0.06933594,0.125,-0.125,0.03125
133,1697611285,-1.0126953,-0.04296875,-0.06640625,0.0625,-0.125,-0.125
134,1697611325,-1.0166016,-0.032226562,-0.09277344,0.1875,-0.0625,-0.0625
135,1697611365,-1.0234375,-0.033203125,-0.07324219,-0.34375,-0.125,-0.3125
136,1697611405,-1.0166016,-0.038085938,-0.08691406,-0.34375,-0.375,-0.3125
137,1697611445,-1.0136719,-0.021484375,-0.06933594,-0.125,-0.25,-0.375
138,1697611485,-1.0117188,-0.034179688,-0.07519531,0.0625,-0.125,-0.1875
139,1697611525,-1.0175781,-0.043945312,-0.07714844,0.125,-0.125,-0.1875
140,1697611565,-1.0205078,-0.044921875,-0.080078125,0.125,-0.1875,0.0
141,1697611605,-1.0117188,-0.037109375,-0.078125,0.125,0.0,-0.125
142,1697611645,-1.0136719,-0.041992188,-0.080078125,0.125,-0.1875,-0.0625
143,1697611685,-1.0185547,-0.032226562,-0.07324219,0.3125,-0.1875,-0.125
144,1697611725,-1.0146484,-0.03125,-0.07714844,0.375,0.0,-0.0625
145,1697611765,-1.0175781,-0.030273438,-0.08984375,0.375,0.03125,0.09375
146,1697611805,-1.0166016,-0.0390625,-0.0703125,0.375,-0.125,0.0
147,1697611845,-1.0205078,-0.037109375,-0.076171875,0.4375,0.03125,0.03125
148,1697611885,-1.0166016,-0.0390625,-0.0703125,0.25,0.0,-0.125
149,1697611925,-1.0117188,-0.032226562,-0.08105469,0.3125,-0.375,-0.125
150,1697611965,-1.0078125,-0.028320312,-0.08105469,0.03125,0.0625,0.03125
151,1697612005,-1.0205078,-0.033203125,-0.08886719,0.09375,0.0,0.09375
152,1697612045,-1.0175781,-0.038085938,-0.07910156,0.03125,0.125,0.09375
153,1697612085,-1.0126953,-0.037109375,-0.08203125,0.28125,-0.0625,0.09375
154,1697612125,-1.0039062,-0.0390625,-0.078125,0.21875,-0.0625,-0.03125
155,1697612165,-1.0126953,-0.02734375,-0.059570312,0.09375,-0.1875,0.03125
156,1697612205,-1.0107422,-0.044921875,-0.078125,-0.125,-0.125,-0.03125
157,1697612245,-1.0068359,-0.037109375,-0.07519531,-0.125,-0.0625,-0.09375
158,1697612285,-1.0068359,-0.02734375,-0.08300781,-0.25,0.125,0.03125
159,1697612325,-1.0117188,-0.047851562,-0.08691406,-0.3125,-0.0625,0.03125
160,1697612365,-1.0126953,-0.034179688,-0.08105469,-0.3125,-0.0625,-0.03125
161,1697612405,-1.0117188,-0.040039062,-0.09765625,-0.25,0.25,0.28125
162,1697612445,-1.0107422,-0.041015625,-0.08496094,0.03125,-0.0625,-0.03125
163,1697612485,-1.0117188,-0.043945312,-0.07128906,0.15625,-0.25,-0.03125
164,1697612525,-1.0146484,-0.040039062,-0.0703125,0.0,-0.1875,-0.03125
165,1697612565,-1.0087891,-0.032226562,-0.08691406,-0.0625,-0.0625,-0.09375
166,1697612605,-1.0126953,-0.029296875,-0.07714844,-0.125,0.0625,0.03125
167,1697612645,-1.0126953,-0.030273438,-0.08886719,-0.125,-0.0625,-0.15625
168,1697612685,-1.0097656,-0.034179688,-0.08984375,0.0,0.0,-0.03125
169,1697612725,-1.0097656,-0.03125,-0.076171875,0.03125,0.0625,-0.03125
170,1697612765,-1.0058594,-0.033203125,-0.07421875,0.15625,0.0625,0.15625
171,1697612805,-1.0048828,-0.04296875,-0.087890625,0.03125,0.1875,0.03125
172,1697612845,-1.0175781,-0.040039062,-0.0625,0.0,0.0,-0.03125
173,1697612885,-1.0166016,-0.041015625,-0.0859375,0.28125,-0.125,0.15625
174,1697612925,-1.0205078,-0.032226562,-0.08203125,0.15625,0.25,0.21875
175,1697612965,-1.0087891,-0.036132812,-0.083984375,0.0,0.0625,0.15625
176,1697613005,-1.0117188,-0.03125,-0.08203125,0.21875,-0.125,-0.03125
177,1697613045,-1.0136719,-0.032226562,-0.091796875,-0.1875,-0.1875,-0.28125
178,1697613085,-1.0078125,-0.026367188,-0.07714844,-0.0625,-0.0625,0.09375
179,1697613125,-1.015625,-0.03515625,-0.07519531,0.0,0.0,0.28125
180,1697613165,-1.0117188,-0.034179688,-0.07421875,-0.0625,-0.0625,0.03125
181,1697613205,-1.0126953,-0.033203125,-0.080078125,-0.3125,0.0,-0.09375
182,1697613245,-1.0136719,-0.041015625,-0.083984375,-0.4375,0.0,-0.03125
183,1697613285,-1.0175781,-0.026367188,-0.07519531,-0.25,0.0625,-0.09375
184,1697613325,-1.0087891,-0.038085938,-0.076171875,-0.1875,0.125,0.03125
185,1697613365,-1.0097656,-0.029296875,-0.08105469,0.09375,0.125,0.21875
186,1697613405,-1.0097656,-0.0390625,-0.087890625,0.03125,0.125,0.09375
187,1697613445,-1.0195312,-0.043945312,-0.08105469,0.21875,0.1875,0.03125
188,1697613485,-1.0087891,-0.034179688,-0.08984375,0.21875,0.375,0.40625
189,1697613525,-1.0166016,-0.034179688,-0.08496094,-0.125,0.1875,0.03125
190,1697613565,-1.0087891,-0.028320312,-0.09277344,-0.125,-0.0625,0.03125
191,1697613605,-1.0146484,-0.041015625,-0.08203125,0.03125,-0.125,-0.09375
192,1697613645,-1.0048828,-0.03515625,-0.09863281,0.15625,0.0,0.15625
193,1697613685,-1.0146484,-0.032226562,-0.08203125,0.28125,0.1875,0.15625
194,1697613725,-1.0195312,-0.033203125,-0.072265625,0.21875,0.0,0.09375
195,1697613765,-1.015625,-0.03515625,-0.083984375,0.03125,0.125,0.03125
196,1697613805,-1.0097656,-0.030273438,-0.061523438,-0.4375,0.0,-0.21875
197,1697613845,-1.0136719,-0.029296875,-0.08886719,-0.5,0.0,-0.03125
198,1697613885,-1.0126953,-0.040039062,-0.080078125,-0.375,0.25,-0.09375
199,1697613925,-1.0136719,-0.038085938,-0.06738281,-0.375,0.0625,-0.15625
200,1697613965,-1.0117188,-0.038085938,-0.08203125,-0.125,0.0625,-0.03125
201,1697614005,-1.0058594,-0.036132812,-0.083984375,0.03125,0.0625,-0.03125
202,1697614045,-1.0136719,-0.046875,-0.08300781,-0.25,0.1875,0.03125
203,1697614085,-1.0087891,-0.040039062,-0.09082031,-0.125,0.3125,-0.03125
204,1697614125,-1.0126953,-0.036132812,-0.076171875,0.09375,0.46875,0.15625
205,1697614165,-1.0175781,-0.037109375,-0.0859375,-0.1875,0.46875,0.15625
206,1697614205,-1.015625,-0.038085938,-0.07519531,-0.0625,-0.0625,-0.09375
207,1697614245,-1.0253906,-0.037109375,-0.072265625,0.09375,0.0625,-0.09375
208,1697614285,-1.0146484,-0.03125,-0.08984375,0.15625,0.125,0.09375
209,1697614325,-1.0166016,-0.037109375,-0.07714844,0.0,0.125,0.21875
210,1697614365,-1.0166016,-0.028320312,-0.072265625,0.28125,0.125,-0.03125
211,1697614405,-1.0136719,-0.03125,-0.068359375,0.09375,0.25,0.15625
212,1697614445,-1.0048828,-0.036132812,-0.083984375,0.03125,0.25,0.15625
213,1697614485,-1.0185547,-0.029296875,-0.08105469,0.03125,0.125,-0.09375
214,1697614525,-1.0136719,-0.026367188,-0.07324219,-0.3125,0.0625,-0.03125
215,1697614565,-1.0126953,-0.03125,-0.07421875,0.0,0.0,-0.09375
216,1697614605,-1.0166016,-0.040039062,-0.07910156,-0.3125,0.03125,0.09375
217,1697614645,-1.0234375,-0.033203125,-0.08496094,-0.1875,-0.15625,-0.09375
218,1697614685,-1.0146484,-0.03515625,-0.08300781,0.25,-0.4375,-0.28125
219,1697614725,-1.015625,-0.032226562,-0.08496094,-0.0625,0.03125,-0.15625
220,1697614765,-1.0117188,-0.036132812,-0.07714844,0.125,-0.21875,-0.15625
221,1697614805,-1.0097656,-0.034179688,-0.08496094,0.0625,-0.09375,-0.03125
222,1697614845,-1.0234375,-0.032226562,-0.076171875,0.0625,-0.03125,0.09375
223,1697614885,-1.0234375,-0.044921875,-0.068359375,-0.0625,-0.03125,-0.03125
224,1697614925,-1.0146484,-0.032226562,-0.08300781,0.125,-0.21875,-0.15625
225,1697614965,-1.0205078,-0.03125,-0.08105469,0.0,-0.09375,-0.09375
226,1697615005,-1.0175781,-0.03515625,-0.0859375,0.0,0.03125,-0.03125
227,1697615045,-1.0126953,-0.034179688,-0.07324219,0.3125,-0.03125,0.03125
228,1697615085,-1.0234375,-0.033203125,-0.07910156,0.125,-0.03125,0.09375
229,1697615125,-1.0146484,-0.029296875,-0.07324219,0.375,-0.09375,0.09375
230,1697615165,-1.0166016,-0.029296875,-0.08105469,0.0625,-0.03125,0.09375
231,1697615205,-1.015625,-0.0390625,-0.07128906,-0.0625,-0.03125,-0.15625
232,1697615245,-1.0146484,-0.032226562,-0.076171875,0.0,-0.21875,-0.09375
233,1697615285,-1.0107422,-0.034179688,-0.08496094,-0.1875,0.03125,-0.09375
234,1697615325,-1.0097656,-0.030273438,-0.09082031,-0.0625,-0.21875,-0.15625
235,1697615365,-1.0117188,-0.040039062,-0.083984375,-0.1875,-0.28125,-0.21875
236,1697615405,-1.0097656,-0.041015625,-0.07910156,0.0,-0.09375,-0.03125
237,1697615445,-1.0029297,-0.041992188,-0.08105469,0.0625,-0.09375,-0.03125
238,1697615485,-1.0136719,-0.040039062,-0.07910156,-0.0625,-0.03125,-0.03125
239,1697615525,-1.0136719,-0.048828125,-0.07128906,0.25,-0.03125,-0.03125
240,1697615565,-1.0126953,-0.02734375,-0.08496094,0.125,-0.15625,-0.28125
241,1697615605,-1.0078125,-0.028320312,-0.08984375,0.0625,-0.09375,-0.15625
242,1697615645,-1.0185547,-0.032226562,-0.08203125,-0.0625,-0.09375,-0.03125
243,1697615685,-1.015625,-0.03125,-0.078125,-0.0625,-0.09375,-0.03125
244,1697615725,-1.0166016,-0.041015625,-0.078125,-0.3125,-0.15625,0.03125
245,1697615765,-1.015625,-0.037109375,-0.07714844,0.0625,-0.15625,-0.21875
246,1697615805,-1.0117188,-0.021484375,-0.08496094,-0.1875,-0.28125,-0.03125
247,1697615845,-1.0175781,-0.029296875,-0.07714844,-0.125,0.09375,-0.09375
248,1697615885,-1.0166016,-0.036132812,-0.08496094,-0.03125,-0.125,0.09375
249,1697615925,-1.0146484,-0.043945312,-0.0859375,-0.03125,0.0625,0.09375
250,1697615965,-1.0087891,-0.040039062,-0.08300781,-0.03125,0.0,0.09375
251,1697616005,-1.0097656,-0.029296875,-0.0859375,-0.03125,0.0625,0.03125
252,1697616045,-1.0166016,-0.03125,-0.07714844,-0.28125,-0.1875,0.03125
253,1697616085,-1.0039062,-0.030273438,-0.08203125,-0.15625,0.0625,-0.09375
254,1697616125,-1.015625,-0.034179688,-0.08105469,0.03125,0.125,0.09375
255,1697616165,-1.0058594,-0.040039062,-0.08203125,0.15625,-0.0625,0.21875
256,1697616205,-1.0185547,-0.038085938,-0.078125,0.40625,-0.0625,-0.09375
257,1697616245,-1.0087891,-0.030273438,-0.07128906,0.21875,0.0625,-0.03125
258,1697616285,-1.0205078,-0.034179688,-0.07910156,-0.09375,0.0,0.15625
259,1697616325,-1.0175781,-0.046875,-0.07128906,0.09375,0.0,0.03125
260,1697616365,-1.0107422,-0.01953125,-0.07128906,-0.09375,-0.0625,0.03125
261,1697616405,-1.0195312,-0.03125,-0.07714844,0.03125,0.125,0.15625
262,1697616445,-1.0097656,-0.03125,-0.07324219,0.15625,0.0,-0.03125
263,1697616485,-1.0126953,-0.02734375,-0.08105469,-0.15625,0.0625,0.09375
264,1697616525,-1.0107422,-0.026367188,-0.08886719,-0.40625,0.0625,0.03125
265,1697616565,-1.0214844,-0.034179688,-0.09472656,-0.40625,0.0,-0.15625
266,1697616605,-1.0185547,-0.0390625,-0.08691406,-0.34375,0.0625,-0.03125
267,1697616645,-1.0126953,-0.040039062,-0.07519531,-0.21875,0.0,-0.09375
268,1697616685,-1.0224609,-0.0390625,-0.08496094,0.03125,-0.0625,-0.03125
269,1697616725,-1.0097656,-0.030273438,-0.078125,-0.15625,-0.0625,-0.03125
270,1697616765,-1.0175781,-0.045898438,-0.08203125,-0.03125,0.0,-0.09375
271,1697616805,-1.0136719,-0.041992188,-0.08691406,-0.03125,-0.125,-0.03125
272,1697616845,-1.0126953,-0.043945312,-0.072265625,-0.03125,0.0625,0.15625
273,1697616885,-1.015625,-0.030273438,-0.07519531,0.15625,0.0625,0.03125
274,1697616925,-1.015625,-0.036132812,-0.08203125,0.21875,-0.0625,0.09375
275,1697616965,-1.0068359,-0.026367188,-0.08203125,0.09375,0.0,-0.03125
276,1697617005,-1.0078125,-0.041015625,-0.07519531,0.09375,-0.0625,0.09375
277,1697617045,-1.0087891,-0.026367188,-0.0859375,0.15625,0.125,0.15625
278,1697617085,-1.0107422,-0.034179688,-0.08203125,-0.09375,0.125,0.3125
279,1697617125,-1.0146484,-0.033203125,-0.07324219,-0.21875,-0.125,-0.09375
280,1697617165,-1.0136719,-0.03125,-0.08984375,-0.28125,-0.125,-0.09375
281,1697617205,-1.0136719,-0.037109375,-0.080078125,-0.53125,-0.0625,0.09375
282,1697617245,-1.0126953,-0.041992188,-0.078125,-0.03125,-0.0625,-0.09375
283,1697617285,-1.0166016,-0.03515625,-0.0859375,-0.03125,-0.1875,-0.03125
284,1697617325,-1.0097656,-0.041992188,-0.080078125,-0.09375,0.0,0.15625
285,1697617365,-1.0126953,-0.043945312,-0.08105469,0.03125,0.0625,0.03125
286,1697617405,-1.0107422,-0.041015625,-0.09082031,0.34375,0.3125,0.21875
287,1697617445,-1.0136719,-0.033203125,-0.08105469,0.09375,0.0,-0.03125
288,1697617485,-1.0195312,-0.020507812,-0.09082031,0.03125,-0.125,-0.03125
289,1697617525,-1.015625,-0.040039062,-0.08691406,-0.03125,0.0,-0.09375
290,1697617565,-1.0126953,-0.038085938,-0.07910156,0.15625,-0.1875,0.03125
291,1697617605,-1.0136719,-0.029296875,-0.08496094,0.21875,0.0625,0.09375
292,1697617645,-1.015625,-0.032226562,-0.080078125,-0.15625,-0.0625,0.03125
293,1697617685,-1.0078125,-0.029296875,-0.08300781,-0.21875,0.0625,0.09375
294,1697617725,-1.0039062,-0.038085938,-0.07128906,0.03125,0.0,-0.09375
295,1697617765,-1.0185547,-0.03515625,-0.06542969,-0.09375,-0.25,-0.03125
296,1697617805,-1.0185547,-0.0390625,-0.095703125,-0.03125,0.0,-0.21875
297,1697617845,-1.0136719,-0.03125,-0.07421875,-0.09375,-0.0625,-0.09375
298,1697617885,-1.0195312,-0.034179688,-0.076171875,-0.28125,0.25,-0.03125
299,1697617925,-1.015625,-0.030273438,-0.07324219,-0.03125,-0.125,-0.15625
300,1697617965,-1.0175781,-0.046875,-0.078125,0.03125,0.0625,0.28125
301,1697618005,-1.0117188,-0.041992188,-0.072265625,-0.28125,-0.0625,-0.03125
302,1697618045,-1.015625,-0.033203125,-0.07519531,-0.03125,-0.0625,-0.03125
303,1697618085,-1.0117188,-0.041015625,-0.08105469,-0.03125,-0.125,-0.15625
304,1697618125,-1.0224609,-0.034179688,-0.08691406,0.15625,0.0,-0.03125
305,1697618165,-1.0136719,-0.030273438,-0.09375,0.46875,0.0625,0.28125
306,1697618205,-1.0175781,-0.038085938,-0.068359375,0.21875,0.1875,0.09375
307,1697618245,-1.0078125,-0.0234375,-0.07910156,-0.09375,-0.0625,-0.03125
308,1697618285,-1.0117188,-0.032226562,-0.083984375,-0.46875,0.125,-0.03125
309,1697618325,-1.0175781,-0.032226562,-0.07324219,-0.625,0.1875,-0.15625
310,1697618365,-1.0097656,-0.0390625,-0.09082031,-0.15625,0.0625,0.03125
311,1697618405,-1.0136719,-0.034179688,-0.0859375,-0.03125,0.0,-0.09375
312,1697618445,-1.0097656,-0.036132812,-0.08496094,-0.09375,-0.125,-0.09375
313,1697618485,-1.0117188,-0.03515625,-0.08105469,-0.09375,0.0625,0.09375
314,1697618525,-1.0166016,-0.044921875,-0.08984375,0.0625,0.21875,0.0625
315,1697618565,-1.0097656,-0.02734375,-0.07519531,-0.0625,-0.15625,0.0625
316,1697618605,-1.0136719,-0.038085938,-0.076171875,-0.1875,-0.09375,-0.40625
317,1697618645,-1.0117188,-0.033203125,-0.0859375,-0.3125,-0.34375,-0.28125
318,1697618685,-1.0097656,-0.038085938,-0.08691406,-0.0625,-0.15625,0.0
319,1697618725,-1.0146484,-0.038085938,-0.078125,0.1875,0.03125,0.125
320,1697618765,-1.0136719,-0.037109375,-0.08984375,0.125,0.09375,0.25
321,1697618805,-1.0126953,-0.03515625,-0.08691406,0.125,0.09375,-0.0625
322,1697618845,-1.0097656,-0.037109375,-0.072265625,0.0625,-0.03125,0.0625
323,1697618885,-1.0146484,-0.033203125,-0.08203125,0.0625,-0.03125,0.0625
324,1697618925,-1.0205078,-0.030273438,-0.078125,0.125,0.03125,0.125
325,1697618965,-1.0166016,-0.037109375,-0.080078125,0.46875,-0.15625,0.0
326,1697619005,-1.0107422,-0.037109375,-0.076171875,0.34375,-0.15625,0.1875
327,1697619045,-1.015625,-0.03125,-0.07910156,0.21875,-0.09375,0.0625
328,1697619085,-1.0136719,-0.037109375,-0.07910156,0.125,-0.03125,0.0625
329,1697619125,-1.0078125,-0.038085938,-0.078125,-0.4375,0.09375,-0.0625
330,1697619165,-1.0175781,-0.030273438,-0.078125,-0.1875,-0.03125,-0.15625
331,1697619205,-1.0166016,-0.032226562,-0.07714844,-0.25,-0.21875,-0.15625
332,1697619245,-1.0078125,-0.041992188,-0.09472656,-0.25,0.15625,-0.0625
333,1697619285,-1.0195312,-0.037109375,-0.080078125,0.125,0.09375,-0.15625
334,1697619325,-1.0087891,-0.034179688,-0.07324219,-0.0625,-0.09375,0.0
335,1697619365,-1.0087891,-0.03125,-0.078125,-0.25,0.03125,-0.0625
336,1697619405,-1.015625,-0.029296875,-0.068359375,-0.375,0.09375,0.0
337,1697619445,-1.0185547,-0.041992188,-0.083984375,-0.25,-0.15625,0.0
338,1697619485,-1.0136719,-0.041015625,-0.08691406,-0.1875,-0.03125,0.0625
339,1697619525,-1.0068359,-0.043945312,-0.08300781,0.125,-0.03125,0.0
340,1697619565,-1.0185547,-0.038085938,-0.07421875,0.40625,0.03125,0.125
341,1697619605,-1.0136719,-0.030273438,-0.09375,0.21875,0.03125,0.0625
342,1697619645,-1.0097656,-0.037109375,-0.08496094,0.28125,0.21875,0.125
343,1697619685,-1.0175781,-0.034179688,-0.083984375,0.40625,0.03125,0.0625
344,1697619725,-1.0117188,-0.041015625,-0.078125,0.34375,-0.21875,0.0
345,1697619765,-1.0136719,-0.03515625,-0.0859375,0.28125,-0.09375,0.0
346,1697619805,-1.0166016,-0.024414062,-0.07421875,0.21875,-0.09375,0.125
347,1697619845,-1.0029297,-0.021484375,-0.078125,-0.1875,-0.03125,0.1875
348,1697619885,-1.0205078,-0.032226562,-0.07519531,-0.3125,0.09375,0.125
349,1697619925,-1.0146484,-0.034179688,-0.07714844,0.0,0.09375,0.0625
350,1697619965,-1.0097656,-0.03515625,-0.06542969,-0.0625,-0.09375,0.0
351,1697620005,-1.0214844,-0.041992188,-0.07519531,-0.25,-0.15625,0.0
352,1697620045,-1.0078125,-0.03125,-0.08203125,-0.125,-0.15625,-0.09375
353,1697620085,-1.0146484,-0.041015625,-0.09765625,-0.1875,0.09375,-0.15625
354,1697620125,-1.0195312,-0.032226562,-0.08105469,-0.25,-0.21875,-0.15625
355,1697620165,-1.0126953,-0.033203125,-0.09277344,-0.0625,-0.28125,0.0
356,1697620205,-1.0087891,-0.03515625,-0.08496094,0.34375,-0.15625,0.125
357,1697620245,-1.0253906,-0.030273438,-0.072265625,-0.125,0.03125,0.125
358,1697620285,-1.015625,-0.034179688,-0.07128906,0.0625,-0.21875,-0.15625
359,1697620325,-1.0185547,-0.041992188,-0.076171875,0.1875,-0.03125,-0.0625
360,1697620365,-1.0126953,-0.029296875,-0.080078125,0.125,0.03125,0.1875
361,1697620405,-1.0058594,-0.041992188,-0.07519531,0.46875,-0.09375,0.1875
362,1697620445,-1.0107422,-0.029296875,-0.08300781,0.59375,-0.09375,0.3125
363,1697620485,-1.0058594,-0.03125,-0.07714844,0.125,-0.09375,0.0
364,1697620525,-1.0117188,-0.034179688,-0.076171875,-0.1875,-0.21875,0.0
365,1697620565,-1.0205078,-0.025390625,-0.08300781,-0.5,-0.03125,-0.15625
366,1697620605,-1.0224609,-0.041992188,-0.068359375,-0.4375,-0.09375,0.0625
367,1697620645,-1.0117188,-0.03515625,-0.064453125,-0.0625,-0.09375,0.0625
368,1697620685,-1.0175781,-0.026367188,-0.076171875,0.21875,0.03125,0.125
369,1697620725,-1.0175781,-0.037109375,-0.09082031,0.21875,-0.09375,0.0625
370,1697620765,-1.0048828,-0.032226562,-0.078125,0.125,0.03125,0.0
371,1697620805,-1.0205078,-0.032226562,-0.08886719,-0.0625,0.03125,0.0
372,1697620845,-1.0126953,-0.038085938,-0.07128906,0.0625,-0.15625,-0.15625
373,1697620885,-1.0136719,-0.030273438,-0.087890625,-0.0625,-0.21875,-0.0625
374,1697620925,-1.0126953,-0.038085938,-0.07128906,-0.0625,-0.09375,-0.09375
375,1697620965,-1.0126953,-0.030273438,-0.078125,0.28125,-0.09375,0.0
376,1697621005,-1.015625,-0.0390625,-0.08886719,0.1875,0.03125,0.125
377,1697621045,-1.0205078,-0.041015625,-0.07324219,0.0625,0.15625,0.0625
378,1697621085,-1.0087891,-0.030273438,-0.08203125,0.0,-0.21875,0.0
379,1697621125,-1.0166016,-0.0234375,-0.08203125,-0.1875,-0.15625,-0.09375
380,1697621165,-1.0107422,-0.0390625,-0.09082031,0.125,-0.15625,0.125
381,1697621205,-1.0136719,-0.037109375,-0.07714844,0.125,-0.15625,0.0
382,1697621245,-1.0126953,-0.033203125,-0.0703125,0.1875,-0.15625,0.0
383,1697621285,-1.0195312,-0.036132812,-0.083984375,-0.1875,-0.15625,-0.0625
384,1697621325,-1.0136719,-0.036132812,-0.07714844,0.0,-0.03125,0.0
385,1697621365,-1.015625,-0.030273438,-0.08203125,0.0,-0.09375,0.0625
386,1697621405,-1.015625,-0.028320312,-0.078125,0.1875,-0.21875,-0.0625
387,1697621445,-1.0126953,-0.016601562,-0.080078125,0.0,-0.28125,-0.0625
388,1697621485,-1.0166016,-0.032226562,-0.07324219,-0.0625,-0.03125,-0.09375
389,1697621525,-1.0117188,-0.04296875,-0.07519531,0.0625,-0.15625,-0.09375
390,1697621565,-1.0244141,-0.032226562,-0.09082031,0.40625,-0.03125,0.1875
391,1697621605,-1.015625,-0.038085938,-0.08300781,0.28125,-0.21875,0.125
392,1697621645,-1.015625,-0.032226562,-0.06933594,0.0,-0.09375,0.0625
393,1697621685,-1.0146484,-0.034179688,-0.07519531,0.0625,-0.15625,0.0
394,1697621725,-1.0146484,-0.034179688,-0.06542969,0.0,-0.03125,0.125
395,1697621765,-1.0117188,-0.0390625,-0.09277344,-0.125,0.03125,-0.0625
396,1697621805,-1.0126953,-0.03515625,-0.080078125,0.0,-0.15625,-0.0625
397,1697621845,-1.0097656,-0.025390625,-0.08105469,0.0,-0.28125,0.0
398,1697621885,-1.0087891,-0.041015625,-0.08984375,-0.125,-0.15625,-0.0625
399,1697621925,-1.0117188,-0.028320312,-0.08203125,-0.0625,0.09375,0.0625
400,1697621965,-1.0136719,-0.044921875,-0.07519531,-0.1875,0.09375,-0.09375
401,1697622005,-1.0253906,-0.0390625,-0.08691406,-0.125,-0.28125,-0.09375
402,1697622045,-1.0126953,-0.028320312,-0.07714844,-0.0625,-0.21875,-0.09375
403,1697622085,-1.0126953,-0.03515625,-0.09277344,0.0,-0.09375,-0.28125
404,1697622125,-1.0175781,-0.034179688,-0.076171875,0.125,-0.03125,0.0625
405,1697622165,-1.0117188,-0.034179688,-0.087890625,0.0625,-0.03125,-0.0625
406,1697622205,-1.0214844,-0.041992188,-0.083984375,0.1875,-0.15625,0.0
407,1697622245,-1.0205078,-0.037109375,-0.078125,0.0625,0.03125,-0.0625
408,1697622285,-1.0166016,-0.034179688,-0.076171875,-0.25,-0.09375,0.0
409,1697622325,-1.0146484,-0.040039062,-0.080078125,0.0625,-0.03125,-0.0625
410,1697622365,-1.0126953,-0.03125,-0.08105469,0.0625,-0.15625,0.0
411,1697622405,-1.0097656,-0.049804688,-0.091796875,0.1875,0.03125,0.25
412,1697622445,-1.0166016,-0.025390625,-0.08496094,0.34375,-0.21875,-0.09375
413,1697622485,-1.0224609,-0.02734375,-0.07714844,0.0625,-0.21875,0.125
414,1697622525,-1.0146484,-0.038085938,-0.08886719,-0.875,0.09375,0.1875
415,1697622565,-1.015625,-0.053710938,-0.072265625,-0.0625,0.09375,0.1875
416,1697622605,-1.0117188,-0.048828125,-0.06640625,0.71875,0.15625,0.4375
417,1697622645,-1.0126953,-0.033203125,-0.08300781,1.28125,-0.15625,0.3125
418,1697622685,-1.0205078,-0.03125,-0.078125,2.125,-0.5625,0.5
419,1697622725,-1.0292969,-0.028320312,-0.09765625,0.0,-0.34375,-0.09375
420,1697622765,-1.0087891,-0.022460938,-0.08300781,-0.1875,-0.75,-0.65625
421,1697622805,-1.0117188,-0.02734375,-0.087890625,-0.25,0.09375,0.0625
422,1697622845,-1.0126953,-0.04296875,-0.06933594,0.0625,0.40625,0.1875
423,1697622885,-1.0175781,-0.041992188,-0.08496094,0.78125,-0.03125,0.0625
424,1697622925,-1.0126953,-0.038085938,-0.09375,0.40625,0.09375,0.3125
425,1697622965,-1.0185547,-0.043945312,-0.080078125,-0.125,0.09375,0.1875
426,1697623005,-1.0097656,-0.041992188,-0.09863281,0.21875,0.09375,0.0625
427,1697623045,-1.0146484,-0.038085938,-0.08496094,0.125,-0.03125,0.0
428,1697623085,-1.0253906,-0.0390625,-0.072265625,0.0,-0.21875,0.0
429,1697623125,-1.0078125,-0.034179688,-0.07421875,0.40625,-0.15625,0.3125
430,1697623165,-1.0136719,-0.026367188,-0.06933594,0.40625,-0.15625,0.0
431,1697623205,-1.0146484,-0.024414062,-0.06933594,0.1875,-0.09375,0.0625
432,1697623245,-1.0087891,-0.038085938,-0.0703125,0.28125,0.09375,0.25
433,1697623285,-1.0087891,-0.030273438,-0.07421875,0.28125,-0.21875,0.0625
434,1697623325,-1.0234375,-0.025390625,-0.083984375,-0.375,0.03125,-0.21875
435,1697623365,-1.0175781,-0.034179688,-0.08203125,-0.375,-0.03125,-0.21875
436,1697623405,-1.0146484,-0.03515625,-0.0703125,-0.3125,-0.09375,-0.15625
437,1697623445,-1.0068359,-0.033203125,-0.080078125,-0.375,-0.15625,-0.15625
438,1697623485,-1.0097656,-0.02734375,-0.08203125,-0.25,-0.03125,-0.09375
439,1697623525,-1.0185547,-0.03125,-0.08300781,-0.5,-0.09375,-0.09375
440,1697623565,-1.0117188,-0.037109375,-0.07324219,-0.6875,0.03125,-0.0625
441,1697623605,-1.015625,-0.044921875,-0.078125,-0.25,0.03125,-0.09375
442,1697623645,-1.0253906,-0.044921875,-0.061523438,0.28125,0.09375,0.3125
443,1697623685,-1.0166016,-0.02734375,-0.06933594,0.21875,-0.21875,-0.21875
444,1697623725,-1.0097656,-0.034179688,-0.08203125,0.34375,-0.28125,-0.28125
445,1697623765,-1.0058594,-0.024414062,-0.07324219,0.34375,-0.5,-0.28125
446,1697623805,-1.0048828,-0.041015625,-0.08203125,0.21875,-0.09375,0.125
447,1697623845,-1.0136719,-0.044921875,-0.06542969,0.71875,-0.09375,0.4375
448,1697623885,-1.0146484,-0.03515625,-0.07714844,1.03125,-0.03125,0.3125
449,1697623925,-1.0205078,-0.033203125,-0.080078125,0.34375,-0.21875,0.1875
450,1697623965,-1.0087891,-0.034179688,-0.0859375,0.0625,-0.09375,0.0625
451,1697624005,-1.0146484,-0.029296875,-0.083984375,-0.1875,-0.09375,-0.0625
452,1697624045,-1.015625,-0.030273438,-0.0859375,0.125,-0.15625,0.1875
453,1697624085,-1.0175781,-0.030273438,-0.07910156,0.0,0.09375,0.0625
454,1697624125,-1.0078125,-0.0234375,-0.08300781,0.28125,-0.15625,0.25
455,1697624165,-1.0185547,-0.03125,-0.078125,0.0625,0.03125,0.0625
456,1697624205,-1.0097656,-0.033203125,-0.07519531,-0.0625,-0.03125,-0.09375
457,1697624245,-1.015625,-0.038085938,-0.08886719,-0.25,-0.03125,0.0
458,1697624285,-1.0107422,-0.0390625,-0.07714844,-0.1875,-0.34375,-0.34375
459,1697624325,-1.015625,-0.03125,-0.087890625,-0.125,-0.4375,-0.15625
460,1697624365,-1.015625,-0.033203125,-0.08105469,-0.0625,-0.09375,-0.0625
461,1697624405,-1.0166016,-0.028320312,-0.08203125,0.125,-0.15625,0.125
462,1697624445,-1.0058594,-0.03125,-0.08105469,-0.25,0.03125,0.125
463,1697624485,-1.0136719,-0.034179688,-0.08691406,-0.25,-0.15625,0.0
464,1697624525,-1.0146484,-0.03515625,-0.08886719,-0.0625,0.09375,0.125
465,1697624565,-1.0078125,-0.033203125,-0.080078125,-0.3125,0.03125,0.0625
466,1697624605,-1.0087891,-0.05078125,-0.076171875,-0.0625,-0.09375,-0.09375
467,1697624645,-1.0185547,-0.03515625,-0.08203125,0.0625,-0.21875,-0.0625
468,1697624685,-1.0224609,-0.022460938,-0.08203125,-0.3125,-0.21875,-0.09375
469,1697624725,-1.0048828,-0.03125,-0.0859375,-0.3125,-0.15625,-0.0625
470,1697624765,-1.0126953,-0.041015625,-0.072265625,0.0,0.09375,0.0
471,1697624805,-1.015625,-0.041015625,-0.087890625,0.0625,0.03125,0.125
472,1697624845,-1.0166016,-0.044921875,-0.06738281,0.125,-0.15625,-0.0625
473,1697624885,-1.0185547,-0.03125,-0.07421875,0.28125,-0.21875,-0.21875
474,1697624925,-1.0136719,-0.040039062,-0.08300781,0.0625,-0.03125,0.0625
475,1697624965,-1.0224609,-0.026367188,-0.08300781,0.28125,-0.03125,-0.0625
476,1697625005,-1.0146484,-0.041015625,-0.07910156,0.46875,-0.0625,0.21875
477,1697625045,-1.015625,-0.022460938,-0.0859375,0.15625,0.0625,0.09375
478,1697625085,-1.015625,-0.028320312,-0.076171875,0.09375,0.125,0.03125
479,1697625125,-1.0117188,-0.033203125,-0.07714844,0.03125,0.0,-0.21875
480,1697625165,-1.0087891,-0.026367188,-0.09375,-0.34375,-0.4375,-0.21875
481,1697625205,-1.0068359,-0.034179688,-0.08984375,-0.9375,0.0,-0.15625
482,1697625245,-1.0185547,-0.0390625,-0.0703125,-0.59375,0.375,0.21875
483,1697625285,-1.0136719,-0.041015625,-0.055664062,0.28125,0.125,0.21875
484,1697625325,-1.0195312,-0.036132812,-0.061523438,0.21875,-0.0625,0.15625
485,1697625365,-1.0175781,-0.03515625,-0.091796875,-0.09375,-0.125,-0.15625
486,1697625405,-1.0214844,-0.029296875,-0.091796875,-0.28125,0.0,-0.15625
487,1697625445,-1.0068359,-0.041992188,-0.06933594,-0.65625,0.3125,-0.15625
488,1697625485,-1.0175781,-0.032226562,-0.08496094,-0.09375,-0.0625,-0.09375
489,1697625525,-1.0117188,-0.024414062,-0.09082031,0.21875,-0.125,-0.28125
490,1697625565,-1.0097656,-0.037109375,-0.08300781,0.03125,0.125,0.15625
491,1697625605,-1.0175781,-0.033203125,-0.076171875,0.03125,0.0,0.03125
492,1697625645,-1.0146484,-0.028320312,-0.07910156,-0.03125,0.1875,-0.03125
493,1697625685,-1.015625,-0.041015625,-0.076171875,-0.03125,0.0625,-0.15625
494,1697625725,-1.0205078,-0.032226562,-0.08691406,0.34375,-0.25,-0.15625
495,1697625765,-1.0146484,-0.016601562,-0.064453125,-0.15625,0.0,-0.21875
496,1697625805,-1.0136719,-0.033203125,-0.08300781,-0.15625,0.0625,-0.03125
497,1697625845,-1.0214844,-0.0390625,-0.080078125,-0.09375,-0.125,-0.21875
498,1697625885,-1.015625,-0.028320312,-0.068359375,0.09375,-0.125,-0.09375
499,1697625925,-1.0117188,-0.047851562,-0.083984375,0.15625,0.0625,0.15625
500,1697625965,-1.0107422,-0.0390625,-0.07714844,-0.03125,0.0,-0.15625
501,1697626005,-1.0175781,-0.028320312,-0.09667969,-0.09375,-0.0625,-0.28125
502,1697626045,-1.0166016,-0.026367188,-0.07324219,-0.34375,0.125,-0.03125
503,1697626085,-1.0185547,-0.024414062,-0.08300781,-0.15625,0.0,0.03125
504,1697626125,-1.0117188,-0.03125,-0.060546875,-0.09375,-0.125,-0.09375
505,1697626165,-1.0097656,-0.0234375,-0.0703125,-0.09375,-0.0625,-0.21875
506,1697626205,-1.0185547,-0.029296875,-0.08105469,-0.53125,-0.125,-0.21875
507,1697626245,-1.0175781,-0.03515625,-0.078125,-0.65625,-0.0625,-0.40625
508,1697626285,-1.0175781,-0.0390625,-0.06640625,-0.40625,-0.25,-0.40625
509,1697626325,-0.99902344,-0.040039062,-0.06542969,0.28125,0.125,-0.09375
510,1697626365,-1.0068359,-0.033203125,-0.07421875,0.09375,0.0,0.03125
511,1697626405,-1.0087891,-0.034179688,-0.0859375,-0.03125,0.0,0.15625
512,1697626445,-1.0175781,-0.030273438,-0.08496094,-0.15625,-0.1875,-0.15625
513,1697626485,-1.0117188,-0.037109375,-0.080078125,-0.03125,0.25,0.28125
514,1697626525,-1.0195312,-0.043945312,-0.08496094,0.28125,0.125,0.03125
515,1697626565,-1.0126953,-0.022460938,-0.080078125,0.53125,-0.3125,-0.09375
516,1697626605,-1.0097656,-0.03125,-0.083984375,0.15625,0.0,-0.09375
517,1697626645,-1.0175781,-0.03125,-0.07519531,0.21875,-0.25,-0.03125
518,1697626685,-1.0146484,-0.029296875,-0.07910156,0.40625,0.0625,0.15625
519,1697626725,-1.0195312,-0.03125,-0.080078125,-0.09375,-0.0625,0.03125
520,1697626765,-1.0263672,-0.030273438,-0.07519531,-0.09375,0.1875,0.03125
521,1697626805,-1.0136719,-0.036132812,-0.07128906,-0.03125,0.125,0.09375
522,1697626845,-1.0126953,-0.034179688,-0.06933594,0.03125,0.0,-0.09375
523,1697626885,-1.0126953,-0.0390625,-0.09082031,-0.09375,-0.125,-0.15625
524,1697626925,-1.0136719,-0.017578125,-0.08984375,-0.28125,-0.125,-0.15625
525,1697626965,-1.0087891,-0.03515625,-0.07128906,-0.34375,0.0625,-0.03125
526,1697627005,-1.0126953,-0.03515625,-0.078125,-0.34375,-0.1875,-0.09375
527,1697627045,-1.0126953,-0.046875,-0.08496094,-0.21875,0.1875,0.09375
528,1697627085,-1.015625,-0.029296875,-0.08105469,-0.21875,-0.125,-0.15625
529,1697627125,-1.0166016,-0.02734375,-0.08886719,-0.15625,-0.125,-0.09375
530,1697627165,-1.0097656,-0.02734375,-0.07519531,-0.53125,0.0,-0.28125
531,1697627205,-1.0126953,-0.022460938,-0.078125,-0.59375,0.0,-0.34375
532,1697627245,-1.0195312,-0.017578125,-0.08300781,-0.59375,-0.125,-0.28125
533,1697627285,-1.0117188,-0.041992188,-0.07714844,-0.46875,0.0625,0.15625
534,1697627325,-1.0166016,-0.046875,-0.076171875,-0.09375,0.125,0.03125
535,1697627365,-1.0117188,-0.040039062,-0.06738281,0.34375,-0.0625,-0.03125
536,1697627405,-1.0107422,-0.041015625,-0.08300781,0.21875,0.0,0.15625
537,1697627445,-1.0175781,-0.0390625,-0.07714844,0.21875,0.0,0.03125
538,1697627485,-1.0195312,-0.03515625,-0.07714844,0.46875,-0.0625,0.03125
539,1697627525,-1.0146484,-0.026367188,-0.08105469,0.625,-0.1875,0.21875
540,1697627565,-1.0136719,-0.029296875,-0.09375,0.5625,0.125,0.15625
541,1697627605,-1.0058594,-0.032226562,-0.07519531,0.28125,0.125,0.34375
542,1697627645,-1.0146484,-0.03125,-0.078125,-0.03125,0.125,-0.09375
543,1697627685,-1.0195312,-0.01953125,-0.08203125,-0.09375,-0.1875,-0.09375
544,1697627725,-1.0087891,-0.037109375,-0.08203125,-0.46875,0.0,-0.15625
545,1697627765,-1.015625,-0.02734375,-0.08203125,-0.21875,-0.0625,-0.15625
546,1697627805,-1.0136719,-0.040039062,-0.076171875,-0.03125,0.0625,-0.03125
547,1697627845,-1.015625,-0.026367188,-0.064453125,-0.09375,0.125,0.03125
548,1697627885,-1.0136719,-0.0390625,-0.07324219,-0.09375,0.125,0.03125
549,1697627925,-1.0117188,-0.041015625,-0.080078125,-0.09375,0.0,-0.15625
550,1697627965,-1.0097656,-0.03515625,-0.08886719,-0.34375,-0.125,-0.03125
551,1697628005,-1.0136719,-0.033203125,-0.08105469,-0.21875,-0.1875,-0.21875
552,1697628045,-1.0058594,-0.030273438,-0.08300781,-0.09375,-0.0625,-0.15625
553,1697628085,-1.0068359,-0.0390625,-0.06933594,-0.03125,-0.0625,-0.03125
554,1697628125,-1.0146484,-0.02734375,-0.0859375,0.0625,0.0,0.03125
555,1697628165,-1.0087891,-0.037109375,-0.07324219,0.0,0.1875,0.15625
556,1697628205,-1.0234375,-0.03515625,-0.08105469,-0.34375,-0.0625,-0.09375
557,1697628245,-1.0195312,-0.025390625,-0.08203125,-0.09375,-0.0625,-0.09375
558,1697628285,-1.0117188,-0.033203125,-0.08105469,0.25,0.0,-0.09375
559,1697628325,-1.0136719,-0.03515625,-0.07910156,0.0625,0.0,0.21875
560,1697628365,-1.0234375,-0.033203125,-0.076171875,0.3125,0.0625,0.03125
561,1697628405,-1.0175781,-0.037109375,-0.07128906,0.0625,0.0,0.03125
562,1697628445,-1.0097656,-0.03125,-0.080078125,-0.21875,0.0625,-0.03125
563,1697628485,-1.0136719,-0.032226562,-0.07910156,-0.15625,0.0625,-0.03125
564,1697628525,-1.0087891,-0.028320312,-0.080078125,-0.09375,-0.0625,-0.03125
565,1697628565,-1.0205078,-0.03515625,-0.08203125,0.125,0.0625,-0.21875
566,1697628605,-1.0136719,-0.033203125,-0.076171875,0.1875,-0.1875,-0.21875
567,1697628645,-1.0166016,-0.038085938,-0.07910156,0.0625,-0.0625,-0.09375
568,1697628685,-1.0117188,-0.021484375,-0.08300781,-0.15625,-0.25,-0.03125
569,1697628725,-1.0136719,-0.037109375,-0.064453125,-0.09375,0.1875,0.03125
570,1697628765,-1.0205078,-0.043945312,-0.0703125,-0.09375,0.0625,-0.03125
571,1697628805,-1.0166016,-0.03515625,-0.080078125,-0.21875,-0.1875,-0.09375
572,1697628845,-1.0058594,-0.030273438,-0.05859375,-0.09375,-0.125,0.03125
573,1697628885,-1.0185547,-0.033203125,-0.08886719,-0.28125,0.25,0.03125
574,1697628925,-1.0136719,-0.028320312,-0.08203125,0.125,-0.125,-0.09375
575,1697628965,-1.0078125,-0.03515625,-0.07324219,0.0,0.25,0.21875
576,1697629005,-1.0117188,-0.03125,-0.08691406,0.0,0.0625,-0.15625
577,1697629045,-1.0195312,-0.033203125,-0.06347656,0.25,-0.0625,0.03125
578,1697629085,-1.0126953,-0.03125,-0.06542969,-0.09375,-0.0625,-0.15625
579,1697629125,-1.0146484,-0.020507812,-0.076171875,-0.15625,0.0,-0.03125
580,1697629165,-1.0136719,-0.034179688,-0.07910156,-0.09375,0.0,-0.03125
581,1697629205,-1.0117188,-0.03515625,-0.07128906,-0.03125,0.0625,-0.09375
582,1697629245,-1.0175781,-0.03515625,-0.07910156,-0.15625,-0.125,-0.03125
583,1697629285,-1.0175781,-0.029296875,-0.07421875,-0.15625,0.125,0.03125
584,1697629325,-1.0146484,-0.041015625,-0.083984375,-0.46875,0.125,-0.15625
585,1697629365,-1.0087891,-0.03125,-0.07324219,0.0,-0.125,-0.03125
586,1697629405,-1.015625,-0.037109375,-0.06640625,-0.03125,0.0625,-0.09375
587,1697629445,-1.0078125,-0.03125,-0.07714844,0.0625,0.0,-0.15625
588,1697629485,-1.0078125,-0.033203125,-0.08203125,0.0625,-0.0625,-0.15625
589,1697629525,-1.0205078,-0.038085938,-0.07421875,-0.28125,0.125,0.03125
590,1697629565,-1.0205078,-0.038085938,-0.072265625,-0.09375,0.0625,-0.03125
591,1697629605,-1.0107422,-0.037109375,-0.07421875,0.0,-0.125,-0.03125
592,1697629645,-1.0117188,-0.03125,-0.09277344,-0.03125,0.0625,0.03125
593,1697629685,-1.0087891,-0.033203125,-0.06738281,-0.03125,0.125,-0.03125
594,1697629725,-1.0136719,-0.034179688,-0.07714844,-0.03125,0.0625,-0.09375
595,1697629765,-1.015625,-0.034179688,-0.07519531,0.125,-0.0625,-0.09375
596,1697629805,-1.0126953,-0.0390625,-0.08496094,0.0625,-0.0625,0.03125
597,1697629845,-1.0097656,-0.028320312,-0.06542969,0.1875,0.0625,0.09375
598,1697629885,-1.0136719,-0.046875,-0.07324219,-0.28125,0.125,0.03125
599,1697629925,-1.015625,-0.030273438,-0.078125,-0.15625,-0.3125,-0.34375
600,1697629965,-1.0146484,-0.032226562,-0.07519531,-0.21875,-0.1875,-0.15625
601,1697630005,-1.0078125,-0.0390625,-0.07324219,-0.34375,-0.0625,-0.21875
602,1697630045,-1.0146484,-0.033203125,-0.07128906,-0.03125,-0.0625,0.03125
603,1697630085,-1.0146484,-0.0390625,-0.07324219,0.1875,0.0625,0.09375
604,1697630125,-1.0068359,-0.029296875,-0.0625,-0.09375,0.0,-0.03125
605,1697630165,-1.0146484,-0.033203125,-0.06347656,-0.34375,-0.0625,-0.09375
606,1697630205,-1.0205078,-0.041015625,-0.09082031,-0.09375,0.0,-0.03125
607,1697630245,-1.0136719,-0.037109375,-0.07910156,-0.09375,0.0625,-0.15625
608,1697630285,-1.0195312,-0.03125,-0.087890625,0.0,0.0,0.03125
609,1697630325,-1.0185547,-0.038085938,-0.078125,-0.15625,0.0,0.03125
610,1697630365,-1.0146484,-0.021484375,-0.07714844,-0.46875,0.0,0.09375
611,1697630405,-1.0283203,-0.041015625,-0.1015625,-0.84375,0.375,0.3125
612,1697630445,-1.0175781,-0.0546875,-0.080078125,0.0,0.125,0.09375
613,1697630485,-1.0166016,-0.037109375,-0.07128906,0.875,-0.5,0.03125
614,1697630525,-1.0048828,-0.038085938,-0.087890625,0.5625,-0.5625,-0.15625
615,1697630565,-1.0039062,-0.029296875,-0.06738281,0.5625,-0.4375,0.03125
616,1697630605,-1.0097656,-0.034179688,-0.08886719,0.6875,0.0,-0.03125
617,1697630645,-1.0146484,-0.03125,-0.07519531,0.4375,0.0625,0.09375
618,1697630685,-1.0185547,-0.038085938,-0.06933594,0.1875,0.25,0.25
619,1697630725,-1.0146484,-0.028320312,-0.072265625,0.375,0.0,-0.03125
620,1697630765,-1.0214844,-0.016601562,-0.06347656,-0.34375,0.0625,0.03125
621,1697630805,-1.0185547,-0.038085938,-0.087890625,-1.625,0.65625,0.15625
622,1697630845,-1.015625,-0.05078125,-0.08203125,-0.40625,-0.0625,-0.09375
623,1697630885,-1.0136719,-0.02734375,-0.07910156,0.0625,-0.0625,-0.03125
624,1697630925,-1.0166016,-0.021484375,-0.08203125,-0.15625,0.0,-0.09375
625,1697630965,-1.0117188,-0.034179688,-0.076171875,0.0,0.1875,0.03125
626,1697631005,-1.0136719,-0.030273438,-0.072265625,0.625,0.0625,0.25
627,1697631045,-1.015625,-0.02734375,-0.068359375,0.25,0.125,0.09375
628,1697631085,-1.0097656,-0.024414062,-0.08105469,0.375,-0.25,-0.03125
629,1697631125,-1.0097656,-0.0234375,-0.07519531,0.0,-0.0625,0.03125
630,1697631165,-1.0205078,-0.034179688,-0.076171875,-0.03125,0.0,-0.03125
631,1697631205,-1.0126953,-0.026367188,-0.087890625,-0.84375,0.3125,0.25
632,1697631245,-1.0244141,-0.05859375,-0.08203125,-1.5625,0.84375,0.21875
633,1697631285,-1.0068359,-0.028320312,-0.08300781,-0.65625,0.25,0.375
634,1697631325,-1.0068359,-0.034179688,-0.08105469,-0.96875,0.90625,0.3125
635,1697631365,-1.0136719,-0.03515625,-0.0703125,-0.46875,0.375,-0.03125
636,1697631405,-1.0029297,-0.024414062,-0.08105469,0.1875,0.125,0.09375
637,1697631445,-1.0097656,-0.030273438,-0.080078125,0.5,-0.125,0.03125
638,1697631485,-1.0068359,-0.009765625,-0.095703125,0.5,-0.1875,0.03125
639,1697631525,-1.0175781,-0.032226562,-0.07910156,0.25,0.0625,0.09375
640,1697631565,-1.0205078,-0.040039062,-0.064453125,0.34375,-0.28125,-0.125
641,1697631605,-1.0078125,-0.040039062,-0.07324219,0.25,-0.15625,-0.25
642,1697631645,-1.015625,-0.030273438,-0.07714844,-0.1875,-0.28125,-0.5
643,1697631685,-1.0146484,-0.025390625,-0.076171875,0.125,-0.34375,-0.0625
644,1697631725,-1.0107422,-0.028320312,-0.076171875,-0.0625,-0.15625,-0.3125
645,1697631765,-1.0214844,-0.030273438,-0.07421875,-0.125,-0.09375,-0.1875
646,1697631805,-1.0107422,-0.032226562,-0.06640625,0.125,-0.34375,-0.3125
647,1697631845,-1.0175781,-0.022460938,-0.07128906,-0.25,-0.34375,-0.4375
648,1697631885,-1.0224609,-0.041015625,-0.076171875,-0.5625,-0.15625,-0.25
649,1697631925,-1.0185547,-0.03125,-0.06738281,-0.3125,-0.21875,-0.25
650,1697631965,-1.0166016,-0.038085938,-0.072265625,-0.0625,-0.21875,-0.3125
651,1697632005,-1.015625,-0.026367188,-0.080078125,0.0,-0.21875,-0.1875
652,1697632045,-1.0136719,-0.03125,-0.08496094,0.0625,-0.15625,-0.125
653,1697632085,-1.0039062,-0.03515625,-0.06640625,0.1875,-0.03125,-0.25
654,1697632125,-1.0126953,-0.0390625,-0.09082031,0.25,-0.09375,-0.0625
655,1697632165,-1.0126953,-0.033203125,-0.076171875,-0.4375,-0.09375,-0.25
656,1697632205,-1.0136719,-0.030273438,-0.08496094,-0.5,-0.21875,-0.25
657,1697632245,-1.0078125,-0.029296875,-0.07714844,-0.1875,0.09375,-0.125
658,1697632285,-1.0087891,-0.03125,-0.08105469,0.1875,0.09375,0.0
659,1697632325,-1.0175781,-0.03515625,-0.083984375,0.25,-0.15625,0.0625
660,1697632365,-1.0166016,-0.036132812,-0.07910156,0.0625,-0.15625,-0.25
661,1697632405,-1.0146484,-0.034179688,-0.083984375,0.0625,-0.09375,0.0
662,1697632445,-1.0078125,-0.038085938,-0.07519531,-0.0625,-0.21875,-0.25
663,1697632485,-1.0117188,-0.034179688,-0.07910156,0.0,-0.09375,-0.0625
664,1697632525,-1.0136719,-0.0390625,-0.083984375,0.0625,-0.03125,-0.125
665,1697632565,-1.0146484,-0.030273438,-0.078125,0.1875,-0.21875,-0.125
666,1697632605,-1.0097656,-0.03125,-0.080078125,-0.0625,-0.21875,-0.0625
667,1697632645,-1.0136719,-0.03515625,-0.07128906,0.0,0.03125,-0.125
668,1697632685,-1.0185547,-0.032226562,-0.0703125,0.125,0.03125,0.125
669,1697632725,-1.0039062,-0.037109375,-0.07421875,-0.0625,-0.15625,-0.1875
670,1697632765,-1.0224609,-0.029296875,-0.07910156,-0.0625,-0.28125,-0.375
671,1697632805,-1.0097656,-0.028320312,-0.07128906,-0.1875,-0.15625,-0.0625
672,1697632845,-1.0126953,-0.0390625,-0.07421875,-0.125,-0.03125,-0.25
673,1697632885,-1.0058594,-0.032226562,-0.07324219,0.125,-0.15625,-0.1875
674,1697632925,-1.0214844,-0.030273438,-0.07519531,-0.125,-0.09375,-0.0625
675,1697632965,-1.0185547,-0.03515625,-0.080078125,0.0,-0.03125,-0.1875
676,1697633005,-1.0136719,-0.026367188,-0.07714844,-0.1875,-0.15625,0.0
677,1697633045,-1.0126953,-0.03515625,-0.09277344,-0.25,-0.09375,-0.1875
678,1697633085,-1.0136719,-0.030273438,-0.08496094,-0.1875,-0.15625,-0.25
679,1697633125,-1.0214844,-0.032226562,-0.07324219,0.0,-0.09375,-0.1875
680,1697633165,-1.0126953,-0.034179688,-0.07421875,0.0,-0.03125,-0.3125
681,1697633205,-1.0136719,-0.036132812,-0.076171875,0.0,-0.28125,-0.375
682,1697633245,-1.0146484,-0.040039062,-0.08300781,-0.125,-0.28125,-0.125
683,1697633285,-1.0175781,-0.03125,-0.08691406,-0.3125,-0.21875,-0.3125
684,1697633325,-1.0166016,-0.041992188,-0.08300781,-0.125,-0.21875,-0.1875
685,1697633365,-1.0146484,-0.037109375,-0.07519531,-0.25,-0.03125,-0.1875
686,1697633405,-1.0117188,-0.02734375,-0.07421875,0.3125,-0.28125,0.0
687,1697633445,-1.0107422,-0.038085938,-0.07910156,0.3125,-0.09375,-0.1875
688,1697633485,-1.0126953,-0.032226562,-0.068359375,0.40625,-0.03125,0.0
689,1697633525,-1.0097656,-0.033203125,-0.08105469,0.25,0.03125,0.125
690,1697633565,-1.0136719,-0.03515625,-0.064453125,0.125,0.03125,0.125
691,1697633605,-1.0136719,-0.030273438,-0.083984375,-0.0625,-0.09375,-0.1875
692,1697633645,-1.0166016,-0.022460938,-0.08496094,0.0625,-0.28125,-0.125
693,1697633685,-1.0136719,-0.040039062,-0.0859375,-0.0625,-0.28125,-0.25
694,1697633725,-1.0048828,-0.030273438,-0.07714844,-0.1875,-0.15625,0.0
695,1697633765,-1.0175781,-0.03515625,-0.078125,-0.3125,-0.21875,-0.3125
696,1697633805,-1.0195312,-0.034179688,-0.08496094,0.0,-0.15625,-0.0625
697,1697633845,-1.0146484,-0.038085938,-0.064453125,0.125,-0.28125,-0.1875
698,1697633885,-1.0126953,-0.030273438,-0.0859375,0.0625,-0.28125,-0.25
699,1697633925,-1.0048828,-0.040039062,-0.083984375,-0.0625,-0.09375,-0.3125
700,1697633965,-1.0146484,-0.040039062,-0.08300781,0.0625,-0.15625,-0.125
701,1697634005,-1.0097656,-0.034179688,-0.076171875,0.25,-0.21875,-0.0625
702,1697634045,-1.0097656,-0.032226562,-0.080078125,0.125,-0.03125,-0.125
703,1697634085,-1.015625,-0.037109375,-0.09277344,-0.1875,-0.21875,0.0625
704,1697634125,-1.0146484,-0.034179688,-0.0859375,-0.125,-0.28125,-0.1875
705,1697634165,-1.0117188,-0.03125,-0.08886719,-0.0625,-0.21875,-0.125
706,1697634205,-1.0097656,-0.030273438,-0.08691406,0.125,-0.09375,-0.125
707,1697634245,-1.0185547,-0.032226562,-0.07421875,0.3125,-0.15625,-0.0625
708,1697634285,-1.015625,-0.029296875,-0.068359375,-0.0625,-0.09375,-0.1875
709,1697634325,-1.0126953,-0.033203125,-0.068359375,0.1875,-0.21875,-0.125
710,1697634365,-1.0166016,-0.034179688,-0.07910156,0.1875,0.34375,0.125
711,1697634405,-1.0175781,-0.04296875,-0.064453125,0.0,-0.03125,-0.25
712,1697634445,-1.015625,-0.028320312,-0.08203125,0.125,-0.15625,-0.1875
713,1697634485,-1.0048828,-0.029296875,-0.07910156,-0.0625,-0.15625,-0.1875
714,1697634525,-1.0087891,-0.040039062,-0.08984375,0.0,0.09375,-0.1875
715,1697634565,-1.0097656,-0.022460938,-0.08496094,0.125,-0.21875,-0.125
716,1697634605,-1.0117188,-0.038085938,-0.08203125,0.0,-0.03125,0.0
717,1697634645,-1.0126953,-0.028320312,-0.07910156,-0.1875,-0.09375,-0.125
718,1697634685,-1.0126953,-0.03125,-0.06640625,-0.0625,-0.09375,-0.125
719,1697634725,-1.0166016,-0.034179688,-0.07128906,-0.3125,-0.09375,-0.1875
720,1697634765,-1.0117188,-0.033203125,-0.08496094,-0.1875,-0.09375,-0.125
721,1697634805,-1.0166016,-0.032226562,-0.072265625,-0.0625,-0.09375,-0.25
722,1697634845,-1.0126953,-0.034179688,-0.07519531,-0.125,-0.34375,-0.0625
723,1697634885,-1.0117188,-0.034179688,-0.078125,-0.0625,0.03125,-0.1875
724,1697634925,-1.0185547,-0.03125,-0.068359375,0.0625,-0.15625,-0.125
725,1697634965,-1.0166016,-0.05078125,-0.072265625,-0.1875,-0.03125,-0.1875
726,1697635005,-1.0175781,-0.041992188,-0.07324219,0.0,-0.09375,-0.375
727,1697635045,-1.0136719,-0.0234375,-0.076171875,-0.0625,-0.21875,-0.1875
728,1697635085,-1.0126953,-0.037109375,-0.07714844,-0.1875,-0.09375,-0.125
729,1697635125,-1.0087891,-0.025390625,-0.091796875,-0.0625,-0.15625,-0.125
730,1697635165,-1.015625,-0.038085938,-0.08105469,-0.125,-0.03125,-0.1875
731,1697635205,-1.0214844,-0.041992188,-0.08496094,-0.375,-0.03125,-0.1875
732,1697635245,-1.0097656,-0.033203125,-0.072265625,-0.3125,-0.09375,-0.25
733,1697635285,-1.0214844,-0.041015625,-0.087890625,-0.125,-0.03125,-0.125
734,1697635325,-1.0166016,-0.032226562,-0.072265625,0.0,0.03125,0.0
735,1697635365,-1.015625,-0.033203125,-0.08984375,-0.125,-0.09375,-0.1875
736,1697635405,-1.0214844,-0.029296875,-0.076171875,0.125,-0.03125,-0.1875
737,1697635445,-1.0068359,-0.026367188,-0.08105469,-0.0625,-0.15625,-0.1875
738,1697635485,-1.0107422,-0.049804688,-0.076171875,0.0,0.21875,0.0625
739,1697635525,-1.0126953,-0.030273438,-0.087890625,0.0,-0.03125,-0.0625
740,1697635565,-1.0107422,-0.028320312,-0.07910156,-0.0625,-0.21875,-0.1875
741,1697635605,-1.0117188,-0.024414062,-0.078125,-0.125,-0.28125,-0.25
742,1697635645,-1.0126953,-0.046875,-0.080078125,0.34375,-0.03125,-0.0625
743,1697635685,-1.015625,-0.033203125,-0.0703125,0.0,-0.09375,-0.125
744,1697635725,-1.0117188,-0.03515625,-0.07519531,-0.0625,0.09375,0.0
745,1697635765,-1.0126953,-0.030273438,-0.07128906,-0.1875,-0.09375,-0.1875
746,1697635805,-1.0185547,-0.032226562,-0.06347656,-0.5625,-0.09375,-0.25
747,1697635845,-1.015625,-0.037109375,-0.07128906,-0.5625,0.15625,-0.3125
748,1697635885,-1.015625,-0.026367188,-0.080078125,-0.375,-0.09375,-0.3125
749,1697635925,-1.0166016,-0.032226562,-0.08203125,-0.1875,-0.09375,-0.25
