timestamp,accel_x,accel_y,accel_z,gyro_x,gyro_y,gyro_z
1695313462717,-0.04711914,-0.9734497,0.12591553,2.046875,-6.609375,1.234375
1695313462763,-0.053466797,-0.9932251,0.137146,1.25,-5.875,1.046875
1695313462807,-0.018798828,-0.9819946,0.11444092,-0.0625,-2.09375,-0.078125
1695313462837,-0.021484375,-0.9854126,0.11883545,-0.9375,-0.09375,-0.203125
1695313462882,-0.030761719,-0.9763794,0.11639404,-0.578125,-0.390625,-0.1875
1695313462927,-0.044433594,-0.98394775,0.12249756,1.46875,-2.734375,0.59375
1695313462957,-0.068603516,-0.9758911,0.13470459,1.078125,-1.125,0.328125
1695313463003,-0.056396484,-0.9898071,0.11126709,-0.546875,0.71875,0.796875
1695313463048,-0.0390625,-0.98638916,0.10687256,-1.78125,3.140625,0.078125
1695313463077,-0.024902344,-0.9819946,0.13031006,-1.34375,3.890625,0.359375
1695313463123,-0.021972656,-0.98028564,0.12713623,-2.40625,1.828125,0.015625
1695313463168,-0.018310547,-0.98809814,0.15350342,-1.921875,0.015625,0.078125
1695313463198,-0.038330078,-0.9915161,0.1305542,-1.921875,-1.296875,0.203125
1695313463243,-0.022949219,-0.9758911,0.13983154,-2.203125,0.359375,0.171875
1695313463288,-0.030029297,-0.98883057,0.15032959,-1.828125,-0.3125,1.078125
1695313463318,-0.011474609,-0.97125244,0.12713623,-1.75,0.96875,1.3125
1695313463365,-0.030761719,-0.9807739,0.15203857,0.015625,-0.109375,1.109375
1695313463410,-0.02319336,-0.9776001,0.14105225,-0.8125,-0.21875,1.0
1695313463438,-0.022216797,-0.9727173,0.14422607,-0.59375,0.53125,0.484375
1695313463484,-0.028808594,-0.975647,0.13397217,-0.078125,-1.078125,0.53125
1695313463529,-0.013427734,-0.973938,0.13616943,-0.625,2.03125,-0.1875
1695313463559,-0.03149414,-0.98931885,0.1383667,-0.9375,-0.90625,0.453125
1695313463649,-0.029785156,-0.98272705,0.12298584,-1.78125,1.21875,-0.21875
1695313463653,-0.01586914,-0.98150635,0.14837646,-0.53125,1.15625,0.03125
1695313463678,-0.020751953,-0.9685669,0.13568115,-1.203125,1.53125,-0.65625
1695313463710,-0.023925781,-0.9751587,0.14593506,-0.375,1.15625,0.265625
1695313463769,-0.023925781,-0.9812622,0.14227295,-0.546875,0.453125,-0.375
1695313463830,-0.028320312,-0.9824829,0.14276123,-1.1875,0.65625,-0.28125
1695313463833,-0.023925781,-0.97735596,0.15008545,-0.265625,0.40625,-0.015625
1695313463889,-0.016113281,-0.9783325,0.14788818,0.03125,-0.375,0.140625
1695313463950,-0.017333984,-0.9846802,0.14691162,-0.4375,-0.40625,-0.046875
1695313463953,-0.0126953125,-0.9795532,0.14471436,-1.25,-0.1875,-0.140625
1695313464010,-0.015380859,-0.97735596,0.1408081,-2.40625,-0.21875,-0.40625
1695313464039,-0.017822266,-0.991272,0.16644287,-1.203125,-0.453125,-0.375
1695313464070,-0.016357422,-0.954895,0.16741943,-2.953125,0.40625,-0.703125
1695313464130,-0.020751953,-0.9783325,0.15667725,-4.65625,-0.53125,-0.46875
1695313464159,-0.028564453,-0.973938,0.1564331,-4.46875,1.25,-1.390625
1695313464189,-0.030761719,-0.9746704,0.17401123,-2.671875,0.640625,-0.390625
1695313464250,-0.033935547,-0.9717407,0.16351318,-3.625,-0.171875,-0.46875
1695313464264,-0.021972656,-0.9734497,0.18865967,-3.28125,0.78125,-0.71875
1695313464310,-0.04321289,-0.9663696,0.16668701,-2.40625,-0.53125,-0.0625
1695313464369,-0.01586914,-0.9780884,0.17645264,-2.078125,0.234375,-0.34375
1695313464384,-0.018798828,-0.97540283,0.1852417,-1.765625,1.515625,-0.015625
1695313464430,-0.037109375,-0.97076416,0.18035889,-0.640625,0.828125,0.515625
1695313464490,-0.021484375,-0.9651489,0.18841553,-1.25,2.34375,0.3125
1695313464504,-0.01928711,-0.96661377,0.1828003,-1.375,2.03125,0.109375
1695313464549,-0.027832031,-0.96759033,0.18939209,-1.484375,0.1875,0.34375
1695313464609,-0.009277344,-0.9783325,0.17376709,-4.1875,0.71875,0.109375
1695313464624,-0.012451172,-0.94732666,0.168396,-1.25,-0.828125,-0.59375
1695313464669,-0.025634766,-0.9812622,0.1828003,-0.84375,-1.15625,0.125
1695313464699,-0.02709961,-0.96832275,0.19378662,0.3125,0.609375,0.375
1695313464744,-0.0075683594,-0.9417114,0.14691162,1.0625,0.34375,0.171875
1695313464790,-0.013183594,-0.9627075,0.16619873,2.765625,-0.953125,0.484375
1695313464819,-0.01953125,-0.9883423,0.1906128,3.1875,-0.15625,-0.375
1695313464863,-0.01586914,-0.96881104,0.17352295,2.140625,-1.5,0.234375
1695313464909,-0.029296875,-0.9612427,0.17547607,3.078125,-3.953125,0.578125
1695313464938,-0.036621094,-0.9702759,0.16546631,1.84375,-3.359375,0.1875
1695313465001,-0.015380859,-0.9758911,0.18353271,2.046875,-1.75,0.0625
1695313465029,-0.031982422,-0.99053955,0.1630249,2.046875,-3.5625,1.15625
1695313465059,-0.015380859,-0.9824829,0.16571045,0.03125,-1.75,0.203125
1695313465104,-0.026611328,-0.9824829,0.15008545,-0.1875,-1.703125,0.125
1695313465179,-0.017333984,-0.97491455,0.19036865,-0.03125,0.0625,0.015625
1695313465181,-0.015625,-0.9668579,0.15325928,-1.703125,0.515625,0.453125
1695313465223,-0.010009766,-0.97076416,0.1671753,-1.21875,1.609375,0.125
1695313465269,-0.018798828,-0.98394775,0.18304443,-0.5625,0.109375,0.765625
1695313465298,-0.008056641,-0.95391846,0.16131592,-0.875,0.5625,0.765625
1695313465347,-0.011962891,-0.975647,0.17449951,-0.53125,-0.421875,0.515625
1695313465389,-0.014160156,-0.9788208,0.15911865,-0.25,-0.59375,0.890625
1695313465418,-0.0053710938,-0.98687744,0.16619873,-1.8125,0.59375,0.46875
1695313465464,-0.020507812,-0.9717407,0.16741943,-1.796875,1.21875,1.859375
1695313465508,-0.0056152344,-0.96588135,0.14935303,0.0625,0.625,0.96875
1695313465539,-0.008056641,-0.97613525,0.1696167,0.96875,-2.078125,1.25
1695313465583,0.018554688,-0.9627075,0.17645264,0.25,-2.78125,1.390625
1695313465629,0.010986328,-0.97003174,0.17645264,1.5625,-2.703125,1.328125
1695313465659,-0.0021972656,-0.99005127,0.1461792,-0.75,0.71875,0.765625
1695313465719,-0.014160156,-0.9768677,0.18304443,1.703125,-0.890625,2.09375
1695313465749,-0.0087890625,-0.9866333,0.1437378,-2.484375,-0.46875,1.984375
1695313465778,-0.009033203,-0.98809814,0.16741943,0.0625,2.890625,2.0
1695313465809,0.012207031,-0.9807739,0.15472412,-1.453125,0.859375,1.84375
1695313465869,0.021972656,-0.9470825,0.15472412,-0.796875,2.296875,2.71875
1695313465898,0.021728516,-0.9612427,0.17327881,0.90625,-0.03125,0.9375
1695313465929,0.016601562,-0.95758057,0.15594482,1.453125,-1.390625,0.6875
1695313465974,0.0234375,-0.9729614,0.15667725,1.296875,-2.0,0.859375
1695313466018,0.009521484,-0.99346924,0.17156982,1.546875,-0.796875,0.984375
1695313466049,0.040039062,-0.9685669,0.15130615,0.375,-0.25,0.546875
1695313466109,0.036865234,-0.9746704,0.14178467,1.46875,1.296875,1.515625
1695313466169,0.02734375,-0.9807739,0.15887451,0.3125,2.90625,1.671875
1695313466173,0.0012207031,-0.97320557,0.14788818,-0.078125,5.859375,0.9375
1695313466229,0.026611328,-0.96343994,0.13543701,-1.34375,6.140625,1.234375
1695313466245,0.0073242188,-0.9649048,0.16741943,1.46875,3.390625,3.140625
1695313466289,0.01586914,-0.9837036,0.1317749,0.75,4.53125,1.765625
1695313466349,0.028076172,-1.00177,0.16375732,3.09375,3.859375,1.3125
1695313466364,0.0637207,-0.9915161,0.12982178,0.640625,1.890625,1.296875
1695313466409,0.07128906,-0.95977783,0.13641357,0.09375,-0.203125,1.109375
1695313466470,0.068359375,-0.94854736,0.13787842,-0.25,-3.609375,0.625
1695313466484,0.068603516,-0.96173096,0.13348389,-0.78125,-3.609375,-0.34375
1695313466529,0.05908203,-0.9746704,0.13519287,-0.375,-3.671875,-0.78125
1695313466604,0.06665039,-0.9885864,0.12786865,-0.15625,-4.765625,-0.8125
1695313466607,0.072509766,-0.9680786,0.12225342,-0.21875,-3.59375,-0.578125
1695313466649,0.05102539,-0.9678345,0.14398193,0.328125,-4.234375,-1.234375
1695313466710,0.028808594,-0.9898071,0.1486206,0.546875,-3.9375,-1.34375
1695313466724,0.0146484375,-0.97662354,0.15252686,-0.734375,-2.515625,-1.5
1695313466770,0.0087890625,-0.9812622,0.113464355,-1.03125,-1.953125,-1.21875
1695313466798,0.02709961,-0.9668579,0.15423584,0.8125,-0.921875,-2.40625
1695313466844,0.0075683594,-0.9890747,0.11932373,-0.03125,-0.0625,-1.984375
1695313466889,0.033691406,-0.9751587,0.11932373,0.21875,-0.328125,-3.1875
1695313466918,0.024414062,-0.9859009,0.14984131,0.234375,-3.0625,-0.6875
1695313466965,0.0031738281,-0.9920044,0.12542725,-0.78125,-0.921875,-1.453125
1695313467011,0.013427734,-0.987854,0.152771,-0.703125,-0.15625,-0.6875
1695313467039,0.012207031,-0.97540283,0.120788574,-0.65625,-1.859375,0.09375
1695313467099,0.024169922,-0.9636841,0.14544678,-0.34375,-1.0625,-0.46875
1695313467130,0.008056641,-0.99346924,0.14154053,-0.453125,-1.03125,0.171875
1695313467159,0.027832031,-0.9795532,0.13275146,-0.625,-1.453125,0.28125
1695313467204,0.04296875,-0.9788208,0.13031006,-0.90625,-2.375,-0.9375
1695313467249,0.01977539,-0.96881104,0.14227295,0.375,-3.28125,-0.671875
1695313467279,0.00390625,-0.99591064,0.15203857,0.921875,-2.46875,0.171875
1695313467324,-0.024658203,-1.0044556,0.12249756,-0.578125,-0.1875,1.671875
1695313467370,0.014404297,-0.97784424,0.11517334,-1.8125,0.078125,0.859375
1695313467399,0.031982422,-0.9649048,0.14593506,1.671875,-1.109375,0.53125
1695313467445,-0.0068359375,-0.9873657,0.109069824,-1.265625,-1.640625,0.875
1695313467490,0.022460938,-0.97735596,0.14910889,-1.171875,2.0625,-2.046875
1695313467519,0.0056152344,-0.99298096,0.15716553,-1.390625,0.71875,0.796875
1695313467564,0.03881836,-0.9776001,0.15228271,-2.625,2.234375,-0.125
1695313467610,0.016601562,-0.9854126,0.1564331,-0.0625,0.109375,1.546875
1695313467639,0.044433594,-0.9578247,0.1251831,-2.5,0.046875,1.28125
1695313467730,0.053466797,-0.93756104,0.12542725,-2.0625,-1.59375,-0.078125
1695313467733,0.025390625,-0.9656372,0.14569092,-0.390625,-1.703125,-1.578125
1695313467759,0.045410156,-0.986145,0.13763428,-0.78125,-3.5,-1.375
1695313467789,0.01977539,-0.9734497,0.13812256,-0.71875,-2.21875,-1.5
1695313467849,0.006591797,-0.9993286,0.15081787,-0.96875,-2.03125,-0.4375
1695313467879,0.029296875,-0.9800415,0.13421631,-1.859375,-1.671875,0.203125
1695313467910,0.0024414062,-0.98443604,0.13519287,-1.171875,-2.625,0.859375
1695313467969,0.015380859,-0.98883057,0.15203857,-1.046875,-3.125,-0.234375
1695313467999,0.016357422,-0.9644165,0.16229248,-0.5625,-2.40625,-1.65625
1695313468028,0.013671875,-0.9612427,0.13519287,-1.609375,-2.1875,-1.640625
1695313468090,0.010253906,-0.9734497,0.14593506,-0.0625,0.21875,-2.484375
1695313468119,0.022705078,-0.9829712,0.1630249,0.75,0.1875,-0.875
1695313468149,0.022460938,-0.96759033,0.15106201,0.671875,0.015625,-0.984375
1695313468209,0.0063476562,-0.958313,0.16888428,2.15625,-2.46875,-0.703125
1695313468225,-0.0024414062,-0.9871216,0.14788818,1.640625,-2.65625,-0.140625
1695313468269,0.0107421875,-0.9871216,0.14349365,0.15625,-1.203125,-0.921875
1695313468330,-0.011474609,-0.9944458,0.14154053,0.3125,0.171875,-0.25
1695313468345,-0.00048828125,-0.972229,0.14056396,0.640625,0.125,-0.28125
1695313468390,0.012451172,-0.97735596,0.14715576,1.0625,-0.0625,0.03125
1695313468450,-0.015380859,-0.9834595,0.14349365,1.15625,-0.3125,0.703125
1695313468465,0.0061035156,-0.9734497,0.152771,-0.390625,1.1875,-0.421875
1695313468509,-0.00048828125,-0.972229,0.13690186,0.15625,0.734375,-0.28125
1695313468570,0.015625,-0.9807739,0.14105225,0.28125,-0.28125,-0.59375
1695313468585,0.0056152344,-0.9578247,0.14398193,-0.234375,0.453125,-0.96875
1695313468646,0.0012207031,-0.99298096,0.11956787,-2.28125,0.203125,-0.8125
1695313468718,0.018066406,-0.9751587,0.12371826,-2.359375,1.015625,-2.09375
1695313468720,0.008056641,-0.97857666,0.15814209,-0.375,-0.90625,-0.640625
1695313468748,-0.010986328,-0.97784424,0.124938965,-1.125,-1.5,-0.765625
1695313468778,0.0029296875,-0.96881104,0.152771,0.5,-3.09375,-0.265625
1695313468824,0.0053710938,-0.9758911,0.12445068,0.34375,-3.765625,0.0625
1695313468869,0.0041503906,-0.9727173,0.1437378,-0.484375,-1.9375,-1.578125
1695313468898,-0.01171875,-0.98565674,0.1317749,0.734375,-2.828125,-0.28125
1695313468945,-0.008056641,-0.97247314,0.14300537,1.078125,-3.25,-0.421875
1695313468989,-0.0043945312,-0.9805298,0.14935303,1.078125,-3.875,0.3125
1695313469019,-0.016357422,-0.9829712,0.14910889,0.953125,-1.75,1.171875
1695313469064,-0.024169922,-0.9793091,0.12347412,0.96875,-0.859375,0.828125
1695313469109,-0.017578125,-0.95977783,0.12640381,0.625,-0.28125,1.15625
1695313469138,0.0078125,-0.95928955,0.1251831,-0.140625,0.96875,-0.484375
1695313469184,0.014892578,-1.0056763,0.12640381,2.3125,-2.046875,-0.296875
1695313469229,-0.004638672,-0.96661377,0.13153076,2.25,-0.875,0.03125
1695313469259,-0.020263672,-0.9981079,0.11834717,3.15625,0.796875,1.0625
1695313469304,0.0024414062,-0.9710083,0.10614014,0.890625,-1.140625,2.21875
1695313469349,0.01977539,-0.9614868,0.10491943,-0.734375,-1.671875,1.125
1695313469379,0.016357422,-0.99176025,0.13446045,-0.734375,-2.84375,0.34375
1695313469426,0.032714844,-0.96881104,0.13006592,-1.71875,-1.109375,-1.890625
1695313469469,0.010009766,-0.9807739,0.12347412,-1.234375,-1.375,-2.421875
1695313469500,0.012451172,-0.9768677,0.13031006,-1.03125,0.828125,-2.5
1695313469544,-0.015625,-0.9817505,0.12030029,-0.078125,1.9375,-1.4375
1695313469589,-0.017333984,-0.989563,0.12249756,0.46875,2.21875,-0.75
1695313469619,-0.017089844,-0.97662354,0.11956787,0.421875,2.5625,0.140625
1695313469665,-0.009521484,-0.9631958,0.101989746,0.59375,0.53125,0.5
1695313469694,-0.006591797,-0.9697876,0.11077881,1.609375,-0.390625,-0.53125
1695313469739,-0.0034179688,-0.9663696,0.097595215,0.96875,0.703125,-1.546875
1695313469769,0.0063476562,-0.98443604,0.11956787,1.234375,-0.40625,-2.796875
1695313469829,-0.009765625,-1.010315,0.11932373,1.890625,1.46875,-2.609375
1695313469859,-0.033935547,-1.0151978,0.12347412,0.515625,1.78125,0.328125
1695313469889,-0.005126953,-0.973938,0.105407715,-1.4375,2.984375,1.015625
1695313469949,-0.023925781,-0.9746704,0.09564209,-1.15625,-0.09375,1.5625
1695313469980,-0.011474609,-0.9849243,0.10247803,-0.140625,-0.484375,0.84375
1695313470010,0.0036621094,-0.9673462,0.09295654,0.875,-2.8125,0.21875
1695313470070,-0.015380859,-0.9885864,0.09881592,1.546875,-2.015625,1.5
1695313470099,0.011962891,-0.9776001,0.10247803,0.21875,-0.4375,0.25
1695313470129,0.005126953,-0.9795532,0.08343506,0.25,-0.390625,0.84375
1695313470190,0.0043945312,-0.9885864,0.10784912,-0.03125,0.453125,0.96875
1695313470249,-0.018554688,-0.9885864,0.10760498,0.359375,-0.046875,1.0625
1695313470252,-0.009765625,-0.97198486,0.11419678,0.234375,-0.359375,1.609375
1695313470324,-0.00024414062,-0.97906494,0.09686279,-1.328125,1.0,0.640625
1695313470328,0.004638672,-0.99176025,0.10687256,-1.46875,1.640625,1.859375
1695313470369,0.0061035156,-0.9807739,0.112976074,-1.078125,5.75,1.484375
1695313470429,-0.018798828,-0.9807739,0.09100342,0.484375,4.59375,2.21875
1695313470444,-0.0126953125,-0.9624634,0.08099365,1.40625,5.578125,3.53125
1695313470490,-0.0026855469,-0.973938,0.09564209,2.484375,10.609375,0.859375
1695313470549,-0.0031738281,-1.013977,0.11468506,1.859375,8.234375,1.53125
1695313470564,0.0041503906,-1.0027466,0.11981201,-2.359375,9.328125,1.671875
1695313470610,0.028808594,-1.0066528,0.1671753,-6.46875,9.734375,0.359375
1695313470669,0.00048828125,-0.98687744,0.15545654,-8.484375,7.359375,0.703125
1695313470684,-0.0126953125,-0.9920044,0.11053467,-9.90625,5.890625,1.4375
1695313470729,0.056152344,-1.0090942,0.11859131,-10.0,9.984375,-1.28125
1695313470759,0.045898438,-0.9680786,0.10223389,-11.28125,11.3125,1.203125
1695313470804,0.06591797,-0.94366455,0.14642334,-8.484375,9.71875,1.46875
1695313470850,0.041503906,-0.9866333,0.11273193,-5.296875,2.265625,0.921875
1695313470879,0.08886719,-0.925354,0.18157959,-5.34375,-1.40625,1.671875
1695313470923,0.07299805,-0.95440674,0.16595459,-3.8125,-2.421875,-0.71875
1695313470970,0.04711914,-0.97613525,0.15350342,-2.578125,2.125,-0.78125
1695313470999,0.04663086,-0.9378052,0.19476318,-2.28125,1.234375,0.765625
1695313471044,0.06323242,-0.99298096,0.16156006,-2.140625,2.9375,0.265625
1695313471090,0.076416016,-0.954895,0.19573975,-0.4375,3.0,1.96875
1695313471119,0.07104492,-0.95562744,0.19989014,-0.671875,0.625,1.703125
1695313471164,0.044433594,-0.96343994,0.15374756,0.046875,-0.71875,0.578125
1695313471209,0.07324219,-0.9656372,0.1798706,0.734375,-1.875,0.28125
1695313471239,0.05444336,-0.9780884,0.16009521,2.1875,-4.8125,-0.453125
1695313471283,0.055419922,-0.9824829,0.22015381,2.171875,-7.15625,-0.5
1695313471329,0.046142578,-0.9714966,0.23919678,2.75,-8.734375,1.34375
1695313471359,-0.013671875,-0.9614868,0.23236084,3.71875,-10.890625,0.109375
1695313471419,0.053710938,-0.98565674,0.21014404,-1.703125,-6.0,-0.953125
1695313471449,0.05859375,-0.9475708,0.17474365,-1.5625,-5.484375,-1.375
1695313471478,0.019042969,-0.9624634,0.14105225,-1.84375,-6.75,-0.984375
1695313471539,0.049804688,-0.96881104,0.14349365,-1.03125,-4.21875,-1.671875
1695313471570,0.017578125,-0.9607544,0.15765381,-2.046875,-2.40625,0.609375
1695313471631,0.029541016,-0.96661377,0.13812256,-2.640625,0.828125,-0.765625
1695313471644,0.046142578,-0.9690552,0.19158936,-0.453125,-0.140625,-0.140625
1695313471690,0.035888672,-0.97247314,0.15838623,1.390625,0.6875,0.171875
1695313471719,0.027832031,-0.9561157,0.1749878,0.46875,3.046875,-1.140625
1695313471764,0.045654297,-0.9771118,0.20892334,1.609375,-0.59375,0.5625
1695313471809,0.021240234,-0.98443604,0.19403076,0.25,0.21875,-0.203125
1695313471839,0.056640625,-0.96221924,0.1864624,-0.875,-0.953125,-0.875
1695313471868,0.011474609,-1.0115356,0.21014404,-0.953125,-0.421875,-1.125
1695313471930,0.06347656,-0.9421997,0.12420654,-0.125,0.375,0.15625
1695313471959,0.064453125,-0.9483032,0.09588623,3.953125,-0.703125,0.25
1695313471989,0.053222656,-0.9837036,0.11859131,6.9375,-5.84375,3.53125
1695313472049,0.024414062,-0.9246216,0.1486206,2.09375,-1.984375,3.265625
1695313472079,0.024902344,-0.98443604,0.23626709,1.265625,-2.25,-2.03125
1695313472109,0.0056152344,-0.9866333,0.2086792,-0.703125,-3.078125,-3.671875
1695313472169,0.048095703,-0.97198486,0.18572998,-1.8125,-1.796875,-3.53125
1695313472199,0.0234375,-1.0012817,0.18328857,-1.25,0.578125,-2.6875
1695313472229,0.039794922,-0.96051025,0.16253662,-0.296875,-0.5625,-0.203125
1695313472289,0.037109375,-0.9685669,0.17156982,-1.234375,-0.15625,-0.71875
1695313472304,0.029296875,-0.9771118,0.14398193,0.609375,1.640625,-0.578125
1695313472349,0.0036621094,-0.97442627,0.13348389,3.328125,3.9375,-0.015625
1695313472409,0.0546875,-0.958313,0.1227417,5.3125,1.390625,1.234375
1695313472424,0.011962891,-0.97906494,0.12542725,6.109375,-1.46875,3.453125
1695313472469,0.018798828,-0.9812622,0.13690186,3.953125,-2.796875,0.640625
1695313472529,0.037597656,-0.9834595,0.105407715,2.96875,-1.25,0.46875
1695313472544,0.083984375,-0.9541626,0.17059326,3.03125,-2.484375,0.34375
1695313472589,0.0234375,-0.96954346,0.13275146,2.3125,-4.890625,-0.890625
1695313472649,0.020751953,-1.0066528,0.16204834,2.5,-2.796875,-1.171875
1695313472664,0.020996094,-0.98565674,0.13787842,0.890625,-1.390625,0.578125
1695313472725,0.04711914,-0.9517212,0.14007568,-0.1875,-0.765625,-0.265625
1695313472784,0.0126953125,-0.97613525,0.10394287,-1.0,-1.65625,-0.53125
1695313472788,0.00048828125,-0.9927368,0.11077881,-0.28125,-2.046875,0.015625
1695313472831,0.021972656,-0.96417236,0.10369873,0.5625,-0.390625,1.171875
1695313472859,0.0063476562,-0.97076416,0.10345459,1.625,-1.265625,0.171875
1695313472904,0.03173828,-0.989563,0.11468506,0.84375,-2.203125,-1.09375
1695313472953,0.034423828,-0.95391846,0.105651855,1.28125,-2.296875,-1.515625
1695313472979,0.036376953,-0.99713135,0.12908936,0.21875,-3.359375,-3.828125
1695313473024,0.02709961,-0.9993286,0.13397217,-0.5625,-3.78125,-2.53125
1695313473069,0.03173828,-0.9805298,0.12200928,-0.140625,-1.84375,-2.578125
1695313473098,0.012207031,-0.98150635,0.0927124,-1.46875,-1.03125,0.234375
1695313473145,0.028808594,-0.97979736,0.08929443,-1.359375,-0.21875,0.109375
1695313473189,0.016601562,-0.9649048,0.105895996,-0.140625,0.359375,-1.0
1695313473219,-0.024169922,-1.0003052,0.1149292,-0.078125,0.5,-0.109375
1695313473264,-0.0056152344,-0.972229,0.11151123,-0.640625,3.234375,-0.03125
1695313473309,0.0017089844,-0.9800415,0.113464355,-0.375,4.921875,-0.140625
1695313473339,0.026611328,-0.98931885,0.11248779,0.015625,1.9375,-0.03125
1695313473385,0.0009765625,-0.9746704,0.11590576,-0.078125,-2.0,0.671875
1695313473429,0.028808594,-0.98565674,0.1281128,-0.9375,-3.109375,0.421875
1695313473459,0.021728516,-0.9890747,0.1305542,-1.265625,-1.03125,-0.5625
1695313473504,0.041748047,-0.9717407,0.11199951,-1.15625,0.6875,-1.71875
1695313473549,0.038085938,-0.9727173,0.10467529,0.234375,-2.53125,-1.296875
1695313473578,-0.0012207031,-0.9932251,0.11517334,0.515625,-3.4375,-0.5625
1695313473624,-0.0031738281,-0.9859009,0.10882568,-0.609375,-1.578125,-0.84375
1695313473669,0.0073242188,-0.97052,0.12640381,-0.4375,-2.078125,-0.296875
1695313473699,0.014160156,-0.9834595,0.12786865,0.484375,0.375,-1.03125
1695313473788,-0.014160156,-0.98809814,0.10491943,-0.6875,0.609375,0.03125
1695313473791,0.0078125,-0.97540283,0.12689209,-0.171875,2.0,-1.1875
1695313473819,0.016845703,-0.9697876,0.105651855,-0.390625,0.65625,-0.9375
1695313473849,0.025634766,-0.96588135,0.11859131,-0.375,-0.40625,-1.484375
1695313473910,-0.008056641,-0.98883057,0.105407715,-0.375,-0.84375,-1.046875
1695313473938,0.0,-0.975647,0.11517334,0.59375,-1.21875,0.03125
1695313473970,0.0,-1.0010376,0.109069824,-0.25,-0.625,-0.125
1695313474090,0.015136719,-0.98687744,0.11444092,0.328125,0.40625,0.40625
1695313474094,0.0036621094,-0.9685669,0.120788574,-0.125,0.796875,0.125
1695313474097,0.013427734,-0.9783325,0.12762451,-0.34375,0.5,0.1875
1695313474148,0.0043945312,-0.9837036,0.11199951,-0.515625,0.703125,0.734375
1695313474178,0.010498047,-0.97784424,0.11639404,-0.1875,0.359375,0.578125
1695313474210,-0.0068359375,-0.9780884,0.11175537,0.53125,-0.75,-0.3125
1695313474269,-0.007080078,-0.9805298,0.094177246,0.03125,-2.3125,0.078125
1695313474299,0.017089844,-0.9924927,0.11077881,-0.4375,-2.328125,-0.609375
1695313474329,0.0021972656,-0.97662354,0.0836792,-2.734375,-6.453125,1.34375
1695313474389,0.020019531,-1.0003052,0.116882324,-3.5625,0.265625,-0.609375
1695313474404,0.020996094,-0.9993286,0.13739014,-1.1875,2.3125,-1.171875
1695313474464,-0.010253906,-0.9360962,0.12347412,-0.046875,4.84375,0.09375
1695313474509,0.014404297,-0.9788208,0.15472412,2.375,2.4375,-1.046875
1695313474524,-0.016845703,-1.0474243,0.13421631,1.859375,2.84375,2.9375
1695313474569,0.010986328,-0.95391846,0.07611084,2.234375,3.125,3.453125
1695313474629,0.040039062,-0.9668579,0.089538574,1.28125,-3.5625,2.265625
1695313474643,0.0107421875,-0.9758911,0.066589355,1.890625,-1.90625,-0.625
1695313474689,0.012451172,-0.97125244,0.09832764,0.984375,-1.40625,-2.875
1695313474749,0.022949219,-0.989563,0.10443115,-1.3125,-2.859375,-2.859375
1695313474764,0.021240234,-0.9939575,0.13226318,-1.34375,-1.8125,-1.5625
1695313474809,0.028320312,-0.9819946,0.12030029,-1.296875,-1.40625,-0.828125
1695313474838,-0.014160156,-0.9627075,0.06561279,-2.953125,-2.78125,-0.140625
1695313474884,0.00048828125,-0.9780884,0.1293335,-1.75,0.5625,-0.546875
1695313474929,0.01171875,-0.9627075,0.10418701,-1.890625,0.6875,-1.484375
1695313474958,-0.0126953125,-0.9837036,0.11639404,1.828125,-2.125,-1.21875
1695313475004,-0.0012207031,-0.9920044,0.08416748,1.453125,-0.21875,-0.6875
1695313475050,-0.02734375,-1.0032349,0.101501465,2.40625,0.15625,0.421875
1695313475079,-0.0053710938,-0.97662354,0.08270264,0.734375,0.796875,0.625
1695313475124,-0.0043945312,-0.97857666,0.11273193,2.34375,0.71875,0.75
1695313475169,0.011230469,-0.9663696,0.09881592,0.78125,3.53125,0.234375
1695313475199,0.010986328,-0.9902954,0.09832764,-0.359375,3.625,0.4375
1695313475244,0.005126953,-0.98883057,0.0927124,-0.421875,1.4375,2.078125
1695313475320,0.0007324219,-0.9746704,0.081970215,-0.140625,3.3125,2.125
1695313475323,0.011474609,-0.975647,0.097839355,0.328125,3.234375,1.640625
1695313475379,0.041015625,-0.9768677,0.090270996,-0.375,1.546875,0.109375
1695313475409,0.038330078,-0.9663696,0.08660889,-1.296875,-0.796875,0.21875
1695313475439,0.0107421875,-0.99713135,0.07684326,-0.578125,0.109375,-0.453125
1695313475484,0.031982422,-0.989563,0.08660889,-0.4375,-0.140625,-0.125
1695313475530,0.016601562,-0.97540283,0.11224365,-0.1875,-0.96875,-0.5
1695313475558,0.0068359375,-0.9993286,0.0914917,-1.1875,-0.96875,0.375
1695313475604,0.011230469,-0.9788208,0.07366943,-0.109375,-0.5,0.296875
1695313475649,0.016113281,-0.9829712,0.09954834,-0.265625,-0.671875,0.15625
1695313475679,0.0026855469,-0.97735596,0.081970215,-0.9375,-1.34375,0.234375
1695313475724,0.02709961,-0.95880127,0.08685303,-1.34375,-1.515625,-1.390625
1695313475770,0.012207031,-0.98443604,0.08831787,-0.390625,-3.40625,-1.65625
1695313475799,-0.0014648438,-0.99468994,0.101257324,0.453125,-1.09375,-0.421875
1695313475828,0.016601562,-0.97540283,0.109558105,-0.078125,-0.640625,-0.515625
1695313475889,0.025146484,-0.9800415,0.105163574,0.4375,-1.3125,-0.90625
1695313475919,-0.00390625,-0.9817505,0.097839355,-0.4375,-1.203125,-0.984375
1695313475948,-0.025390625,-0.98028564,0.10443115,-0.5,0.671875,-0.21875
1695313476010,0.0031738281,-0.9776001,0.10369873,-0.234375,0.734375,-0.09375
1695313476039,0.021240234,-0.97906494,0.08538818,-0.71875,2.0,-0.46875
1695313476069,0.00048828125,-0.989563,0.08782959,-0.796875,1.015625,0.4375
1695313476130,0.013183594,-0.9817505,0.10296631,-1.25,1.640625,-0.390625
1695313476159,0.014892578,-0.98443604,0.09442139,-2.15625,0.703125,-0.78125
1695313476190,0.03149414,-0.96759033,0.09954834,-2.3125,-1.234375,-1.453125
1695313476250,0.026367188,-0.9793091,0.11468506,-2.15625,-2.921875,-1.75
1695313476310,0.026367188,-0.987854,0.10638428,-1.453125,-4.640625,-0.671875
1695313476314,0.0036621094,-0.9890747,0.10760498,-0.71875,-2.75,1.3125
1695313476370,-0.028076172,-0.9846802,0.109802246,-0.75,0.390625,2.21875
1695313476384,-0.030029297,-0.9793091,0.10784912,0.65625,0.5,2.28125
1695313476430,-0.007080078,-0.9727173,0.113220215,-0.28125,2.265625,0.84375
1695313476490,-0.011230469,-0.97076416,0.105407715,0.546875,1.640625,0.390625
1695313476504,0.01928711,-0.9727173,0.093444824,0.328125,1.34375,-0.71875
1695313476549,0.025878906,-1.003479,0.11419678,0.75,0.90625,-0.453125
1695313476610,0.0078125,-1.0286255,0.11029053,-0.578125,-0.15625,1.15625
1695313476639,0.041259766,-0.95269775,0.11199951,-0.953125,-0.078125,1.375
1695313476668,0.03955078,-0.9937134,0.062927246,-2.21875,-3.78125,0.578125
1695313476730,0.027832031,-0.9602661,0.12176514,0.578125,-3.046875,0.625
1695313476744,0.024414062,-0.986145,0.11248779,-1.125,-4.765625,0.453125
1695313476792,0.016113281,-0.9651489,0.09173584,-3.765625,-1.28125,2.46875
1695313476834,0.012207031,-0.98931885,0.1317749,-0.28125,1.390625,3.6875
1695313476864,0.018798828,-0.9951782,0.11151123,0.25,1.625,2.71875
1695313476909,0.088134766,-0.9390259,0.11956787,1.984375,-1.1875,0.046875
1695313476940,0.025390625,-0.99005127,0.11102295,0.625,-3.84375,-2.578125
1695313476999,0.011230469,-0.9898071,0.09564209,-1.1875,-1.953125,-2.25
1695313477044,0.0048828125,-0.97247314,0.09173584,-2.640625,-2.078125,-1.5625
1695313477059,0.025878906,-0.9949341,0.109558105,-2.125,-3.125,-0.953125
1695313477104,0.00048828125,-0.9920044,0.11175537,-0.96875,-2.765625,-1.6875
1695313477149,0.031982422,-0.95928955,0.11175537,-0.484375,-1.59375,-1.578125
1695313477178,0.030517578,-0.9680786,0.11395264,-2.078125,-1.296875,-1.640625
1695313477224,0.02368164,-0.99102783,0.12005615,-1.765625,-0.984375,-0.78125
1695313477269,-0.015380859,-1.0025024,0.12347412,-2.859375,1.390625,-0.75
1695313477299,0.011474609,-0.972229,0.13519287,-0.375,1.65625,-0.390625
1695313477347,-0.0068359375,-0.9710083,0.1329956,-1.5625,0.390625,0.328125
1695313477389,0.009521484,-0.9849243,0.12591553,-2.203125,0.140625,-1.078125
1695313477419,0.0107421875,-0.9883423,0.117370605,-1.25,-1.453125,-0.953125
1695313477479,0.020507812,-0.9746704,0.11785889,-1.6875,-1.859375,-1.21875
1695313477509,0.020019531,-0.98028564,0.1251831,-0.875,-2.390625,-1.078125
1695313477539,-0.0021972656,-0.98028564,0.12640381,-0.34375,-0.6875,0.46875
1695313477584,0.022216797,-0.9763794,0.13519287,0.21875,-1.53125,0.21875
1695313477629,0.011230469,-0.97003174,0.124694824,0.0625,-1.9375,0.671875
1695313477659,-0.0087890625,-0.986145,0.12884521,-0.328125,-1.65625,0.390625
1695313477705,0.0026855469,-0.960022,0.12542725,-0.390625,-1.203125,-0.0625
1695313477751,0.014160156,-1.0005493,0.121276855,-1.28125,-1.09375,-0.234375
1695313477778,0.009521484,-0.99884033,0.12200928,-0.53125,-0.90625,-0.71875
1695313477869,-0.0026855469,-0.9702759,0.11663818,-0.421875,-0.234375,-0.59375
1695313477873,0.005126953,-0.9907837,0.12347412,0.828125,1.09375,-0.734375
1695313477930,0.00048828125,-0.96954346,0.12298584,-0.234375,0.0625,0.375
1695313477934,0.019042969,-0.9837036,0.113708496,-0.234375,0.3125,0.171875
1695313477989,-0.011474609,-0.9927368,0.14886475,1.078125,1.65625,-0.34375
1695313478019,-0.012939453,-0.98272705,0.16473389,0.78125,-1.6875,0.25
1695313478049,0.004638672,-0.99542236,0.15570068,-1.234375,0.3125,-0.609375
1695313478110,0.011474609,-0.9595337,0.12615967,0.796875,-1.5625,0.1875
1695313478141,0.039794922,-0.99005127,0.137146,-1.796875,0.46875,-1.71875
1695313478169,-0.0126953125,-0.98565674,0.13494873,-1.546875,-3.5,1.46875
1695313478229,-0.0036621094,-0.99713135,0.11883545,-1.578125,-1.375,0.703125
1695313478258,0.017578125,-0.9702759,0.101745605,-1.328125,-3.078125,0.484375
1695313478290,-0.010009766,-0.96881104,0.13812256,-0.625,-5.609375,0.375
1695313478349,-0.008544922,-0.98101807,0.13446045,-0.65625,-3.453125,-1.0
1695313478364,0.020751953,-0.9685669,0.14129639,-0.546875,-3.140625,-2.28125
1695313478410,-0.0026855469,-0.9829712,0.13568115,0.125,-4.046875,-1.109375
1695313478470,-0.009521484,-0.97125244,0.13006592,-1.53125,-1.046875,-0.4375
1695313478485,0.0012207031,-0.96710205,0.1281128,-0.40625,-0.65625,-0.40625
1695313478530,-0.0234375,-1.0015259,0.15228271,-1.234375,0.421875,-0.171875
1695313478590,0.0021972656,-0.95440674,0.13934326,-1.890625,0.28125,-0.1875
1695313478604,-0.0075683594,-0.9717407,0.11932373,-1.40625,-0.453125,-1.65625
1695313478649,-0.013671875,-0.9793091,0.14691162,0.609375,-1.390625,-0.453125
1695313478710,0.004638672,-1.0042114,0.13494873,-0.28125,1.6875,-2.296875
1695313478724,0.005126953,-0.9800415,0.13519287,0.03125,0.90625,-2.0
1695313478769,-0.0029296875,-0.9710083,0.16448975,-0.09375,0.65625,-2.4375
1695313478844,-0.008056641,-0.9780884,0.1359253,-0.703125,0.21875,-1.203125
1695313478848,-0.033203125,-1.0042114,0.11468506,-2.25,-1.046875,0.359375
1695313478890,-0.014892578,-0.9500122,0.15081787,-1.5625,-0.6875,-0.015625
1695313478919,-0.044677734,-0.97979736,0.1227417,-1.453125,0.5625,-0.9375
1695313478965,-0.049804688,-0.9924927,0.17449951,-0.578125,2.234375,-0.125
1695313479010,0.004638672,-0.9649048,0.13250732,-1.765625,2.09375,-0.40625
1695313479039,0.0048828125,-0.9636841,0.15203857,-0.796875,1.0,0.0625
1695313479084,-0.016845703,-0.9758911,0.13641357,-1.984375,-0.234375,0.203125
1695313479129,-0.017089844,-0.9788208,0.1395874,-2.140625,-1.015625,0.8125
1695313479159,-0.025146484,-0.97198486,0.15911865,-0.75,0.90625,0.6875
1695313479204,-0.024169922,-0.98687744,0.13787842,-0.390625,2.03125,1.25
1695313479249,0.014892578,-0.9663696,0.13421631,-1.1875,1.875,0.71875
1695313479279,0.0053710938,-0.97369385,0.15545654,-0.109375,-0.859375,0.875
1695313479325,-0.014160156,-0.99053955,0.1515503,0.1875,0.53125,1.0625
1695313479370,0.014160156,-0.9585571,0.14471436,-0.25,-0.28125,-0.046875
1695313479399,0.010009766,-0.97125244,0.14178467,-0.296875,-3.046875,-0.453125
1695313479444,-0.013183594,-0.97662354,0.18792725,2.328125,-2.609375,-0.25
1695313479504,-0.026123047,-0.97979736,0.13079834,-0.21875,0.375,0.0
1695313479519,-0.018554688,-0.9805298,0.15911865,1.703125,1.140625,0.234375
1695313479564,0.005859375,-0.96710205,0.13616943,0.171875,0.734375,0.234375
1695313479609,-0.005859375,-0.9729614,0.14276123,1.0625,0.53125,-0.796875
1695313479638,-0.016601562,-0.9776001,0.15350342,0.0,-1.359375,0.3125
1695313479684,0.008056641,-0.9534302,0.12445068,1.171875,-3.390625,-0.40625
1695313479729,0.01953125,-0.9854126,0.1293335,0.9375,-3.390625,-0.828125
1695313479758,0.0063476562,-0.99053955,0.14300537,0.0,-3.125,0.421875
1695313479803,-0.019042969,-0.9661255,0.12664795,1.078125,-3.921875,0.546875
1695313479849,-0.028320312,-0.9915161,0.14251709,2.515625,-1.171875,1.078125
1695313479879,0.0009765625,-0.97125244,0.12030029,2.03125,-2.0625,0.96875
1695313479908,-0.0087890625,-0.95977783,0.093688965,2.453125,-6.71875,0.96875
1695313479969,-0.0234375,-0.9890747,0.11248779,1.96875,-7.046875,0.96875
1695313480000,-0.0087890625,-1.0015259,0.15252686,1.015625,-6.046875,0.984375
1695313480028,0.023925781,-0.97662354,0.11566162,-4.203125,1.65625,0.046875
1695313480089,0.0041503906,-0.99224854,0.13494873,-1.03125,0.65625,-0.4375
1695313480119,0.005126953,-0.9768677,0.137146,0.453125,-0.328125,0.3125
1695313480148,-0.006591797,-0.9871216,0.11883545,0.09375,-0.109375,0.484375
1695313480209,0.00048828125,-0.97979736,0.1161499,2.15625,-0.25,1.84375
1695313480238,0.0061035156,-0.9780884,0.0993042,2.015625,-3.90625,2.0
1695313480269,0.020019531,-0.97198486,0.12371826,1.203125,-7.875,1.015625
1695313480329,0.010986328,-0.991272,0.1305542,-0.234375,-7.046875,-0.046875
1695313480389,0.021484375,-0.94537354,0.050720215,-2.4375,2.375,-1.90625
1695313480392,-0.00390625,-1.0117798,0.15423584,0.984375,4.140625,-1.390625
1695313480449,-0.03466797,-1.019104,0.15472412,3.453125,0.546875,2.828125
1695313480464,0.009033203,-0.9558716,0.08905029,1.03125,0.4375,1.78125
1695313480509,0.009033203,-0.99835205,0.109313965,1.296875,-0.515625,0.21875
1695313480570,-0.0031738281,-0.96710205,0.08148193,0.734375,-0.8125,1.921875
1695313480584,0.009521484,-0.97662354,0.12054443,2.859375,-1.71875,-1.265625
1695313480628,0.0073242188,-0.99053955,0.09075928,0.15625,-0.09375,-0.3125
1695313480691,0.020019531,-0.9873657,0.12030029,1.359375,0.734375,-1.453125
1695313480705,0.006591797,-0.9902954,0.11273193,1.078125,-0.015625,0.8125
1695313480749,0.025878906,-0.9717407,0.09906006,-0.34375,1.109375,0.765625
1695313480810,0.0017089844,-0.98272705,0.10101318,-0.40625,-0.71875,1.15625
1695313480824,0.016113281,-0.97735596,0.089782715,-0.734375,-4.203125,1.265625
1695313480870,0.010498047,-0.9805298,0.074157715,0.09375,-5.296875,1.84375
1695313480914,0.03100586,-0.95269775,0.0914917,-0.03125,-1.484375,-0.21875
1695313480943,0.032470703,-1.0010376,0.09906006,0.859375,-1.734375,-0.96875
1695313480989,0.00390625,-0.9727173,0.11444092,1.03125,-0.953125,-0.671875
1695313481050,0.014892578,-0.99591064,0.11834717,0.125,-0.71875,-1.625
1695313481080,0.01977539,-0.9771118,0.09442139,-1.09375,-0.453125,-0.53125
1695313481108,0.0029296875,-0.97369385,0.07928467,-0.71875,-0.859375,0.15625
1695313481138,0.013183594,-0.98321533,0.09100342,-1.359375,-1.421875,0.53125
1695313481183,0.006591797,-0.97857666,0.09051514,0.84375,-2.640625,0.5625
1695313481229,-0.01953125,-0.9932251,0.08294678,0.53125,0.34375,0.171875
1695313481258,0.029541016,-0.9812622,0.09490967,1.265625,0.9375,-0.890625
1695313481304,0.00390625,-0.98931885,0.09197998,0.953125,0.09375,1.015625
1695313481349,-0.011474609,-1.0088501,0.10003662,0.53125,2.140625,0.78125
1695313481379,-0.02734375,-1.0029907,0.10760498,-0.265625,3.78125,2.46875
1695313481426,0.025390625,-0.986145,0.08514404,-2.625,4.65625,3.078125
1695313481468,0.016113281,-1.0093384,0.1161499,-4.671875,3.171875,3.46875
1695313481500,0.0043945312,-0.98760986,0.09173584,-6.65625,2.234375,4.3125
1695313481544,0.037353516,-0.9446411,0.049987793,-3.578125,2.734375,3.421875
1695313481589,0.07373047,-0.9536743,0.08905029,-1.375,0.421875,1.78125
1695313481619,0.05126953,-1.0046997,0.105163574,-1.484375,1.203125,1.3125
1695313481664,0.04711914,-0.958313,0.105651855,-2.25,3.34375,2.09375
1695313481709,0.07519531,-0.9439087,0.13641357,-1.890625,1.875,1.265625
1695313481769,0.04736328,-0.9898071,0.11468506,-3.984375,2.109375,0.671875
1695313481785,0.05883789,-0.99176025,0.11517334,-4.875,3.578125,-1.03125
1695313481828,0.049316406,-0.97491455,0.0927124,-6.171875,3.734375,-1.34375
1695313481859,0.033203125,-0.98223877,0.15887451,-2.203125,1.484375,-1.96875
1695313481904,0.022216797,-0.9883423,0.14569092,-3.34375,-0.15625,-0.0625
1695313481949,0.057861328,-0.96051025,0.12005615,-2.171875,-0.640625,-0.953125
1695313481978,0.033935547,-0.9741821,0.16204834,-0.21875,-1.328125,-0.4375
1695313482009,0.013916016,-0.96759033,0.14520264,-2.125,-1.625,0.40625
1695313482069,0.0546875,-0.9783325,0.1395874,-1.328125,0.328125,-0.296875
1695313482099,0.033691406,-0.9788208,0.14544678,-0.1875,-1.109375,-0.09375
1695313482144,0.048095703,-0.9710083,0.13006592,0.1875,-0.78125,0.609375
1695313482190,0.072265625,-0.9651489,0.13128662,0.15625,-1.640625,-0.796875
1695313482219,0.06713867,-0.95635986,0.12030029,0.3125,-3.1875,-1.09375
1695313482249,0.051757812,-0.9751587,0.12835693,0.40625,-4.015625,-1.078125
1695313482310,0.01586914,-0.9985962,0.1461792,0.953125,-1.09375,0.0
1695313482340,0.042236328,-0.9939575,0.14324951,-1.359375,6.953125,-0.296875
1695313482369,0.025146484,-0.94317627,0.13153076,1.171875,2.203125,0.953125
1695313482429,0.048095703,-0.96221924,0.15203857,-0.140625,-0.96875,-1.0
1695313482444,0.049072266,-0.989563,0.12738037,0.03125,-3.390625,-1.3125
1695313482489,0.0146484375,-0.9771118,0.1317749,-1.078125,-2.15625,-1.984375
1695313482564,0.048095703,-0.9685669,0.13885498,-1.265625,-3.0625,-2.09375
1695313482567,0.029541016,-0.9973755,0.13665771,0.6875,-4.015625,0.53125
1695313482608,0.02709961,-0.98687744,0.14324951,-0.609375,-0.859375,-0.21875
1695313482669,0.051757812,-0.9812622,0.14813232,0.078125,-0.296875,-0.375
1695313482684,0.025390625,-0.9758911,0.15008545,0.234375,-0.734375,0.71875
1695313482729,0.037109375,-0.95806885,0.13812256,-1.65625,0.15625,-0.5
1695313482790,0.038085938,-0.9534302,0.13153076,-0.4375,-2.40625,-0.140625
1695313482804,0.026367188,-0.9871216,0.12176514,-0.578125,-2.8125,-0.671875
1695313482849,0.036865234,-0.97442627,0.1359253,-0.296875,-0.78125,-1.171875
1695313482909,0.02734375,-0.9829712,0.1449585,2.046875,-2.296875,-0.203125
1695313482925,0.0068359375,-1.0044556,0.12713623,0.296875,0.09375,0.484375
1695313482970,0.014892578,-0.9702759,0.1408081,0.046875,2.03125,1.3125
1695313482999,0.045654297,-0.9627075,0.117614746,-0.25,2.234375,-0.71875
1695313483044,0.05102539,-0.98760986,0.14007568,1.0625,-0.828125,-0.3125
1695313483090,0.028320312,-0.989563,0.109313965,-0.1875,-2.046875,0.15625
1695313483119,0.014160156,-0.97735596,0.13201904,0.46875,-0.28125,0.8125
1695313483164,0.029296875,-1.0027466,0.14105225,0.21875,0.8125,0.9375
1695313483209,0.020019531,-0.9866333,0.13128662,0.765625,2.40625,1.40625
1695313483239,0.029541016,-0.96832275,0.1149292,1.140625,1.953125,1.90625
1695313483284,0.064208984,-0.9570923,0.10296631,1.46875,0.59375,2.015625
1695313483329,0.02758789,-0.96099854,0.09124756,2.328125,-1.953125,1.40625
1695313483358,0.039794922,-0.9714966,0.13250732,-1.390625,-2.046875,-2.015625
1695313483404,0.0546875,-1.020813,0.11175537,0.0,-0.15625,-1.09375
1695313483450,0.04296875,-0.98028564,0.11566162,-0.140625,1.328125,0.21875
1695313483479,0.052978516,-0.9871216,0.12249756,0.5625,0.90625,0.921875
1695313483525,0.048828125,-0.9751587,0.13372803,1.3125,1.625,0.78125
1695313483570,0.034423828,-0.96295166,0.08880615,-0.578125,0.578125,1.046875
1695313483599,0.059814453,-0.9627075,0.10028076,-0.234375,0.265625,-1.015625
1695313483644,0.026855469,-0.9920044,0.13006592,2.234375,-1.5625,-0.0625
1695313483689,0.036865234,-0.9780884,0.09564209,0.921875,-0.03125,-0.328125
1695313483718,0.03125,-0.99420166,0.11663818,2.5,-0.703125,0.53125
1695313483764,0.030273438,-0.991272,0.11273193,0.578125,-0.078125,0.828125
1695313483809,0.049316406,-0.9834595,0.09539795,-0.671875,-0.515625,0.34375
1695313483839,0.03857422,-0.9824829,0.11248779,-0.4375,0.40625,0.3125
1695313483929,0.048828125,-1.0015259,0.10101318,-2.234375,0.28125,-0.1875
1695313483931,0.07495117,-0.9595337,0.08709717,-1.546875,-0.0625,-1.171875
1695313483959,0.04345703,-0.9812622,0.113220215,-1.421875,-2.359375,-2.609375
1695313484005,0.03125,-0.989563,0.11175537,-1.5,-2.328125,-2.234375
1695313484064,0.05102539,-0.96710205,0.11883545,-2.171875,-4.390625,-1.96875
1695313484079,0.0126953125,-0.9968872,0.11810303,-1.546875,-4.15625,-1.6875
1695313484109,0.0061035156,-0.96343994,0.13861084,0.703125,0.328125,-1.0
1695313484184,0.03125,-0.9776001,0.0758667,-1.546875,2.453125,-0.953125
1695313484199,0.0925293,-0.9783325,0.1161499,-0.5,-1.78125,-2.453125
1695313484228,0.03466797,-0.97247314,0.09881592,0.015625,-5.6875,-0.03125
1695313484290,0.004638672,-0.96466064,0.109313965,0.265625,-5.703125,-1.453125
1695313484319,-0.020751953,-0.99468994,0.13006592,1.578125,-2.578125,-0.578125
1695313484349,-0.0021972656,-0.9697876,0.11785889,1.0,2.5625,-0.28125
1695313484409,0.05102539,-0.99468994,0.10369873,0.140625,3.078125,0.1875
1695313484439,0.041015625,-0.98150635,0.09197998,-0.0625,0.203125,0.953125
1695313484469,0.007080078,-0.97662354,0.098083496,0.078125,-0.625,0.328125
1695313484530,0.013427734,-0.98687744,0.109558105,0.078125,-1.4375,-0.96875
1695313484560,0.032470703,-0.99053955,0.11175537,-1.078125,-1.625,-1.40625
1695313484589,0.03100586,-0.98028564,0.0914917,0.265625,-0.75,-0.5
1695313484650,0.037841797,-0.9734497,0.11956787,0.6875,-1.671875,0.078125
1695313484664,0.024658203,-0.9932251,0.11566162,-0.609375,-0.578125,1.15625
1695313484709,0.034423828,-0.989563,0.12347412,-0.234375,1.15625,1.15625
1695313484769,0.029052734,-0.9763794,0.08880615,-1.75,1.625,0.765625
1695313484800,0.03100586,-0.97735596,0.1083374,-0.859375,1.59375,0.796875
1695313484830,0.0061035156,-0.9697876,0.09661865,-1.65625,0.578125,0.59375
1695313484890,0.031982422,-0.9783325,0.0927124,-0.578125,0.296875,-0.875
1695313484904,0.029296875,-0.9710083,0.11248779,1.125,0.078125,-1.125
1695313484949,0.028808594,-0.9944458,0.109069824,0.40625,-0.953125,-0.640625
1695313484978,0.03540039,-0.97784424,0.11541748,1.421875,-1.625,-0.4375
1695313485024,0.018310547,-0.9834595,0.121520996,0.84375,-2.46875,0.5
1695313485069,0.009765625,-0.98760986,0.10003662,-0.078125,1.171875,1.609375
1695313485130,0.030273438,-0.9937134,0.094177246,-1.484375,2.234375,2.265625
1695313485145,0.026855469,-0.9961548,0.094177246,-1.25,2.015625,3.15625
1695313485189,-0.008544922,-1.0147095,0.07879639,-1.6875,1.078125,5.390625
1695313485218,0.095703125,-0.9522095,0.09490967,-2.25,-0.9375,4.625
1695313485264,0.1003418,-0.9048462,0.09515381,-0.84375,-4.21875,0.34375
1695313485309,0.029785156,-0.9644165,0.11102295,0.125,-5.3125,-3.8125
1695313485338,0.055664062,-0.9702759,0.12713623,2.015625,-1.40625,-6.328125
1695313485384,0.05419922,-1.0200806,0.121276855,2.390625,1.0,-5.0
1695313485459,0.07299805,-0.9805298,0.11273193,-1.65625,-0.6875,-3.375
1695313485461,0.021240234,-0.9993286,0.10736084,-0.296875,0.734375,-2.375
1695313485504,0.01171875,-0.9614868,0.13641357,-0.5,-1.859375,-3.484375
1695313485549,-0.0041503906,-0.9968872,0.14056396,-0.328125,-1.515625,-4.25
1695313485579,-0.014404297,-1.031311,0.10223389,-1.953125,1.859375,-2.1875
1695313485624,0.0029296875,-0.975647,0.09222412,-3.40625,4.125,-1.84375
1695313485669,0.017333984,-0.9385376,0.07513428,-0.75,0.453125,0.375
1695313485699,-0.032714844,-0.98687744,0.11932373,0.234375,-1.890625,-0.15625
1695313485746,-0.021484375,-1.0256958,0.12591553,-0.328125,-0.515625,1.4375
1695313485789,-0.0014648438,-0.973938,0.12225342,0.859375,3.375,1.703125
1695313485819,0.029541016,-0.9776001,0.10076904,-2.96875,2.625,2.453125
1695313485864,0.02709961,-0.9873657,0.12982178,-1.46875,-0.796875,2.703125
1695313485910,-0.00024414062,-0.9776001,0.10687256,-3.46875,-0.9375,2.828125
1695313485938,0.06616211,-0.9859009,0.10272217,-2.984375,0.234375,1.09375
1695313485970,0.0625,-0.96173096,0.0927124,-2.90625,-0.71875,1.234375
1695313486029,0.049560547,-0.9607544,0.12713623,-0.09375,-2.71875,2.171875
1695313486058,-0.006591797,-0.9961548,0.11444092,-1.890625,-1.859375,3.59375
1695313486089,0.032714844,-0.9871216,0.14910889,-0.359375,3.4375,3.15625
1695313486164,0.047851562,-0.97906494,0.10638428,-0.640625,1.0625,3.28125
1695313486179,0.055419922,-0.95684814,0.121520996,-0.6875,1.109375,1.546875
1695313486209,0.036376953,-0.98321533,0.1281128,-2.0,-1.375,-0.46875
1695313486284,0.060302734,-0.94976807,0.11541748,-2.015625,-1.125,-1.390625
1695313486299,0.049316406,-0.97662354,0.11907959,-1.53125,-1.703125,-3.171875
1695313486344,0.03149414,-0.987854,0.12176514,0.515625,-0.578125,-1.484375
1695313486389,0.010009766,-0.9956665,0.1329956,1.3125,1.53125,0.421875
1695313486465,0.06591797,-0.9685669,0.152771,2.296875,3.921875,-0.6875
1695313486467,0.036132812,-0.9819946,0.11444092,0.484375,0.984375,-0.28125
1695313486510,0.019042969,-0.97247314,0.12786865,1.609375,1.953125,-1.171875
1695313486524,0.026123047,-0.98883057,0.13153076,-0.4375,0.21875,-0.875
1695313486569,0.048339844,-0.9751587,0.10614014,-0.6875,-1.703125,-1.515625
1695313486629,0.048583984,-0.9771118,0.113708496,-0.3125,-3.453125,-2.265625
1695313486644,0.043701172,-0.975647,0.137146,-0.375,-4.21875,-2.03125
1695313486689,0.026855469,-0.9758911,0.12445068,-0.515625,-1.3125,-1.34375
1695313486748,0.004638672,-0.98565674,0.12200928,0.171875,-0.34375,-1.03125
1695313486762,0.03173828,-0.9644165,0.12249756,0.578125,-0.28125,-1.3125
1695313486808,0.0234375,-0.9793091,0.12640381,-0.234375,-2.390625,-1.234375
1695313486867,0.0068359375,-0.9902954,0.112976074,-0.875,-1.09375,-1.65625
1695313486883,0.018554688,-0.9783325,0.12005615,-1.96875,-1.34375,-1.140625
1695313486928,0.0234375,-0.9805298,0.12982178,-1.328125,-1.890625,-1.34375
1695313486988,0.02709961,-0.9834595,0.0914917,-3.890625,-0.8125,-1.53125
1695313487017,0.02709961,-0.97540283,0.13641357,-2.25,-2.53125,-1.734375
1695313487047,0.0036621094,-0.97735596,0.1071167,-2.609375,-0.390625,-0.78125
1695313487078,0.008056641,-0.98638916,0.14007568,-0.0625,-0.03125,-0.859375
1695313487122,-0.012451172,-0.9902954,0.1408081,-0.765625,0.5,0.546875
1695313487167,-0.009765625,-0.97906494,0.13446045,-0.453125,0.171875,0.90625
1695313487197,0.010009766,-0.98394775,0.14154053,-0.203125,1.203125,0.53125
1695313487243,0.020507812,-0.9768677,0.12176514,-1.734375,0.734375,0.890625
1695313487288,0.050048828,-0.95635986,0.12542725,-2.578125,-0.984375,-0.96875
1695313487317,0.024902344,-0.9956665,0.14471436,-1.984375,-2.125,-0.484375
1695313487362,0.0075683594,-0.9915161,0.1317749,-1.390625,-0.71875,1.03125
1695313487408,0.012451172,-0.97662354,0.14447021,0.0625,-0.1875,1.328125
1695313487438,0.009765625,-0.97540283,0.14398193,-0.546875,-0.125,0.703125
1695313487483,0.020019531,-0.96832275,0.1359253,-0.65625,0.234375,0.0
1695313487528,0.0026855469,-0.9937134,0.14031982,-1.125,-1.046875,0.421875
1695313487559,0.0146484375,-0.97662354,0.14764404,-1.390625,0.828125,-0.75
1695313487603,0.010009766,-0.97052,0.11956787,-2.8125,0.3125,-0.703125
1695313487648,0.021240234,-0.9846802,0.15203857,-0.640625,0.0625,-1.4375
1695313487678,0.0043945312,-0.9824829,0.15692139,-0.796875,-0.671875,0.296875
1695313487723,0.020263672,-0.97540283,0.14056396,-1.046875,0.109375,-0.1875
1695313487769,0.0063476562,-0.9746704,0.15350342,-0.296875,-0.875,0.203125
1695313487797,0.010498047,-0.97198486,0.16131592,-2.375,-2.5,0.203125
1695313487843,0.02319336,-0.9717407,0.14447021,-2.390625,-1.796875,-0.484375
1695313487888,-0.007080078,-0.9915161,0.19769287,-3.8125,-2.640625,0.75
1695313487917,0.011962891,-0.9614868,0.13031006,-3.9375,-2.09375,-0.328125
1695313488009,0.001953125,-0.9714966,0.17401123,-0.140625,-2.125,0.390625
1695313488010,0.0078125,-0.987854,0.15228271,-1.75,0.15625,1.6875
1695313488038,0.0048828125,-0.9751587,0.15692139,-0.359375,0.734375,2.09375
1695313488069,0.040527344,-0.97857666,0.14935303,-0.5,-0.21875,1.796875
1695313488128,0.032226562,-0.95440674,0.17962646,0.28125,-1.265625,0.9375
1695313488158,0.047607422,-0.9507446,0.14666748,-0.359375,-1.3125,0.328125
1695313488188,0.021484375,-0.9854126,0.15252686,0.40625,0.625,0.109375
1695313488248,0.053710938,-0.972229,0.16156006,0.890625,0.921875,0.578125
1695313488278,0.046875,-0.9585571,0.15032959,1.109375,-1.078125,-0.359375
1695313488309,0.033691406,-0.97735596,0.14910889,1.40625,-2.3125,-0.421875
1695313488370,0.033935547,-0.9783325,0.1630249,2.21875,-2.125,-0.46875
1695313488399,0.022705078,-0.9846802,0.14056396,0.703125,-1.671875,-0.609375
1695313488428,0.024414062,-0.96099854,0.15130615,0.71875,-3.3125,-0.265625
1695313488490,0.013671875,-0.9573364,0.12542725,2.078125,-4.765625,-1.171875
1695313488504,0.010009766,-0.9793091,0.1618042,3.5625,-3.828125,-1.125
1695313488549,0.02709961,-0.9817505,0.11956787,3.484375,-2.203125,-1.140625
1695313488610,0.014160156,-0.98394775,0.1329956,5.640625,-3.953125,-1.703125
1695313488625,0.012939453,-0.94732666,0.11175537,5.34375,-8.875,-1.171875
1695313488669,0.030517578,-0.9990845,0.16400146,3.53125,-8.515625,-3.265625
1695313488730,0.00048828125,-1.0142212,0.11810303,0.15625,-5.453125,-1.65625
1695313488744,0.017822266,-0.97369385,0.11126709,1.328125,-1.46875,-1.859375
1695313488789,-0.014404297,-0.9944458,0.12762451,2.984375,-3.671875,-0.421875
1695313488850,-0.0024414062,-0.9763794,0.11517334,2.21875,-1.46875,-0.21875
1695313488864,0.014160156,-0.9729614,0.09197998,2.140625,-2.75,1.0
1695313488909,-0.038085938,-0.99176025,0.11541748,2.75,-1.390625,0.96875
1695313488984,-0.022460938,-0.9927368,0.11785889,1.25,-0.71875,1.296875
1695313488987,0.0087890625,-0.9780884,0.09466553,0.078125,-1.015625,-0.65625
1695313489029,-0.011230469,-0.9841919,0.08270264,0.8125,-1.203125,-0.265625
1695313489059,-0.0063476562,-1.0003052,0.1071167,0.5625,1.1875,2.265625
1695313489104,-0.006591797,-0.98321533,0.097351074,0.203125,2.0,2.03125
1695313489149,0.016113281,-0.96466064,0.0848999,0.484375,1.046875,0.5625
1695313489209,0.02368164,-0.99053955,0.09710693,0.90625,-0.5,-0.0625
1695313489224,0.017822266,-0.9841919,0.07952881,-1.328125,-3.140625,-0.3125
1695313489269,0.0126953125,-1.0134888,0.09490967,0.21875,-1.0625,-0.59375
1695313489298,0.021972656,-0.9631958,0.06951904,-0.296875,-2.203125,0.4375
1695313489344,0.015625,-0.98321533,0.10028076,1.625,-3.5625,0.46875
1695313489389,0.00390625,-0.97540283,0.09954834,0.03125,-5.609375,0.90625
1695313489449,0.02734375,-1.0108032,0.11444092,-1.40625,-0.6875,-1.265625
1695313489464,-0.00024414062,-0.99713135,0.11102295,-4.40625,-3.3125,0.53125
1695313489509,-0.018310547,-0.9456177,0.07244873,-2.1875,-4.90625,-0.640625
1695313489539,0.036621094,-0.97784424,0.08758545,-1.671875,-5.5,-0.71875
1695313489584,-0.015625,-0.98223877,0.098083496,-0.609375,-3.109375,0.578125
1695313489628,-0.001953125,-0.9993286,0.10638428,-0.125,1.015625,-1.6875
1695313489658,0.00048828125,-0.99224854,0.086364746,-1.40625,5.140625,0.21875
1695313489720,0.018798828,-0.9619751,0.08929443,-1.671875,4.53125,-1.34375
1695313489749,0.011230469,-0.98321533,0.1071167,1.171875,-1.765625,0.65625
1695313489779,-0.037597656,-0.972229,0.11224365,2.890625,-2.65625,2.875
1695313489827,0.020996094,-0.9854126,0.07147217,0.328125,1.5625,-0.109375
1695313489869,-0.00390625,-1.0025024,0.12982178,1.21875,-0.1875,1.4375
1695313489898,-0.008300781,-0.9751587,0.09173584,-1.625,4.34375,0.203125
1695313489945,0.028564453,-0.9920044,0.10467529,-0.390625,3.421875,0.59375
1695313489989,0.016601562,-0.99224854,0.090270996,-0.53125,2.125,1.90625
1695313490019,0.01586914,-0.9578247,0.08807373,0.453125,1.96875,1.265625
1695313490050,0.021728516,-0.9673462,0.09832764,0.40625,0.28125,0.328125
1695313490109,0.032226562,-0.989563,0.094177246,0.265625,-0.1875,0.15625
1695313490138,0.009277344,-0.97979736,0.08758545,-0.421875,0.890625,0.03125
1695313490169,0.03125,-0.97540283,0.097595215,-0.046875,-0.546875,-0.375
1695313490229,0.017578125,-0.9968872,0.09051514,-0.203125,-0.28125,1.375
1695313490259,0.010009766,-0.98150635,0.09197998,0.125,0.671875,1.125
1695313490289,0.02734375,-0.9746704,0.08758545,-1.21875,-0.4375,0.78125
1695313490350,0.020751953,-0.9800415,0.085632324,-0.96875,-0.0625,-0.171875
1695313490379,0.027832031,-0.9951782,0.10760498,-0.59375,-0.296875,0.203125
1695313490409,0.027832031,-0.9920044,0.08294678,-2.015625,1.890625,0.453125
1695313490469,0.029785156,-0.99957275,0.10247803,-2.28125,0.125,2.3125
1695313490529,0.03100586,-0.9561157,0.08685303,-2.75,1.3125,2.171875
1695313490533,0.017822266,-1.0061646,0.12054443,-1.390625,1.4375,2.078125
1695313490589,-0.013916016,-0.97613525,0.13128662,-3.65625,3.828125,3.546875
1695313490603,0.025146484,-1.0073853,0.12982178,-5.015625,11.625,5.453125
1695313490649,0.07348633,-1.0046997,0.11834717,-3.4375,9.8125,5.078125
1695313490709,0.14624023,-0.8843384,0.030456543,-4.109375,4.0,0.375
1695313490724,0.08081055,-0.95196533,0.105163574,-1.875,-2.984375,0.5
1695313490769,-0.028808594,-1.0374146,0.13787842,-0.703125,0.703125,-0.078125
1695313490829,0.064697266,-0.96759033,0.109802246,-0.875,3.734375,-0.625
1695313490844,0.08520508,-0.93951416,0.117370605,0.046875,0.78125,1.0625
1695313490890,0.07446289,-0.98687744,0.13470459,0.109375,1.21875,-0.6875
1695313490949,0.040527344,-1.0010376,0.13739014,-1.21875,1.65625,0.171875
1695313490964,0.1003418,-0.9343872,0.109069824,-0.40625,1.234375,-1.03125
1695313491009,0.07714844,-0.9717407,0.11517334,-0.703125,-2.578125,-4.0
1695313491069,0.034423828,-0.98223877,0.11224365,-0.34375,-3.25,-2.6875
1695313491084,0.034179688,-0.9793091,0.13031006,-1.390625,-0.515625,-3.84375
1695313491144,0.05859375,-0.97979736,0.14056396,-2.390625,-1.203125,-3.296875
1695313491159,0.038085938,-0.97613525,0.1227417,-3.390625,-2.84375,-3.203125
1695313491204,0.025390625,-0.9883423,0.12884521,-2.09375,-4.8125,-2.5625
1695313491279,0.014892578,-0.9807739,0.11590576,-0.953125,-2.796875,-1.46875
1695313491280,0.041259766,-0.9553833,0.1227417,-0.734375,-3.859375,-2.859375
1695313491324,0.010498047,-0.99053955,0.14666748,1.828125,-3.234375,-2.390625
1695313491369,0.023925781,-0.9854126,0.14886475,-0.28125,-1.375,-1.5625
1695313491399,0.024902344,-0.987854,0.13690186,-0.953125,-0.9375,-0.78125
1695313491444,-0.013671875,-0.98223877,0.11248779,-1.265625,-0.078125,-0.625
1695313491490,0.013183594,-0.95758057,0.11102295,-0.171875,0.84375,-0.671875
1695313491519,0.019042969,-0.9776001,0.14129639,0.265625,-0.8125,-0.59375
1695313491564,-0.016357422,-1.0310669,0.1564331,-1.203125,-0.671875,0.828125
1695313491609,0.026123047,-0.95513916,0.15106201,-1.5,2.625,-0.703125
1695313491639,0.047607422,-0.95806885,0.09637451,-2.28125,1.015625,-0.3125
1695313491684,0.008056641,-0.9998169,0.14593506,-0.453125,0.859375,0.765625
1695313491729,0.0021972656,-0.9854126,0.14959717,-0.953125,2.109375,1.734375
1695313491759,0.014160156,-0.9614868,0.15692139,-1.578125,0.796875,1.5
1695313491804,-0.0053710938,-0.989563,0.15570068,-1.203125,1.96875,0.46875
1695313491849,0.026123047,-0.9932251,0.13983154,-1.640625,2.046875,1.265625
1695313491879,0.041503906,-0.97076416,0.13079834,-1.78125,0.484375,0.84375
1695313491924,0.045166016,-0.9702759,0.1329956,-1.65625,0.375,0.046875
1695313491970,0.064208984,-0.9468384,0.12982178,-1.796875,-2.625,-0.921875
1695313491999,-0.020507812,-1.0022583,0.19744873,0.25,-1.3125,2.03125
1695313492044,0.015380859,-0.9956665,0.15887451,-2.90625,3.90625,0.578125
1695313492074,0.05126953,-0.958313,0.16107178,-1.59375,0.90625,-0.265625
1695313492118,0.048583984,-0.98101807,0.13690186,-2.15625,-1.90625,-0.171875
1695313492149,0.0075683594,-0.9780884,0.14935303,-3.390625,0.078125,0.1875
1695313492209,0.033447266,-0.9570923,0.14227295,-3.0,-1.609375,-0.734375
1695313492239,0.043945312,-0.9697876,0.14691162,-2.34375,-2.265625,-2.734375
1695313492269,0.034423828,-0.96661377,0.17034912,0.203125,-2.609375,-1.203125
1695313492330,0.03149414,-0.9553833,0.14544678,1.640625,-3.390625,-0.1875
1695313492359,0.035888672,-0.973938,0.1630249,1.265625,-1.046875,-0.109375
1695313492388,0.016601562,-0.97247314,0.16595459,3.15625,-2.4375,-0.84375
1695313492450,0.0146484375,-0.96099854,0.13079834,2.109375,-3.734375,-0.125
1695313492479,0.014160156,-0.95635986,0.13787842,2.515625,-9.515625,-0.046875
1695313492525,-0.00024414062,-0.9973755,0.15301514,1.78125,-7.21875,-0.140625
1695313492570,0.056396484,-0.9578247,0.12786865,-1.25,4.765625,-2.96875
1695313492584,-0.005126953,-1.0195923,0.19110107,2.203125,-0.0625,1.484375
1695313492629,-0.018798828,-0.99005127,0.14910889,1.765625,-0.6875,1.453125
1695313492689,0.049316406,-0.9492798,0.1449585,1.296875,0.015625,0.078125
1695313492704,0.021240234,-0.97320557,0.1329956,2.4375,-7.515625,3.015625
1695313492749,0.013183594,-0.9812622,0.1293335,0.0625,-6.21875,1.28125
1695313492810,0.041503906,-0.9871216,0.1239624,-1.578125,-2.34375,0.921875
1695313492824,0.02319336,-0.99176025,0.14715576,-0.734375,0.5,-0.359375
1695313492869,0.036621094,-0.9729614,0.14959717,0.25,0.484375,0.578125
1695313492930,0.02758789,-0.94366455,0.1281128,-0.09375,-2.453125,0.765625
1695313492944,-0.0043945312,-0.9841919,0.12835693,0.40625,-2.125,1.046875
1695313492989,0.00024414062,-1.0078735,0.097839355,1.890625,1.671875,1.0625
1695313493050,0.042236328,-0.9788208,0.14324951,4.03125,2.671875,3.4375
1695313493064,0.030273438,-1.0076294,0.13104248,1.625,-0.21875,2.84375
1695313493108,0.0390625,-0.98028564,0.11199951,0.015625,1.984375,1.171875
1695313493139,0.05029297,-0.93878174,0.1083374,-0.3125,-0.578125,-0.296875
1695313493184,0.03857422,-0.99835205,0.11834717,-1.046875,-0.453125,-1.15625
1695313493230,0.06567383,-0.9663696,0.11883545,-0.015625,-0.421875,-0.3125
1695313493259,0.052734375,-0.9981079,0.12957764,-0.25,-0.046875,1.375
1695313493304,0.044677734,-0.9924927,0.12249756,-0.875,0.5,2.078125
1695313493349,0.056396484,-0.9656372,0.13128662,-0.5625,0.859375,0.03125
1695313493378,0.030761719,-0.9673462,0.09857178,-0.890625,-0.75,-0.953125
1695313493424,0.026611328,-0.96588135,0.105407715,1.078125,0.109375,-1.53125
1695313493469,0.033935547,-0.98321533,0.14422607,0.125,-3.90625,-0.84375
1695313493499,0.051513672,-0.97369385,0.1317749,-0.796875,-3.0,-1.34375
1695313493543,0.034423828,-0.9783325,0.13031006,0.203125,-1.9375,-1.84375
1695313493589,0.041503906,-0.9812622,0.11126709,0.71875,-1.609375,-2.328125
1695313493618,0.052978516,-0.96759033,0.1239624,2.0625,-3.953125,-3.03125
1695313493664,0.013427734,-0.9976196,0.12420654,1.0625,-5.90625,-1.75
1695313493695,0.0126953125,-0.9800415,0.10028076,-1.109375,-3.859375,-2.0
1695313493739,0.040283203,-0.96759033,0.1083374,-1.046875,-0.765625,-3.625
1695313493799,0.0012207031,-1.0007935,0.13616943,-0.078125,0.6875,-2.078125
1695313493829,-0.014404297,-0.97198486,0.12640381,0.328125,1.78125,0.5625
1695313493858,-0.001953125,-0.9717407,0.13079834,0.828125,1.328125,0.28125
1695313493905,0.004638672,-0.99346924,0.0927124,0.421875,2.4375,1.328125
1695313493949,0.011230469,-0.9651489,0.11444092,2.28125,1.015625,2.0
1695313493979,0.010253906,-0.97125244,0.10345459,0.515625,0.25,-0.015625
1695313494069,0.039794922,-0.97540283,0.11639404,0.9375,0.921875,-1.296875
1695313494072,0.015625,-0.9678345,0.105651855,1.40625,-1.53125,0.34375
1695313494098,0.013183594,-1.0186157,0.12200928,-0.140625,0.375,1.1875
1695313494130,0.03100586,-0.98687744,0.117614746,0.21875,2.125,2.15625
1695313494189,0.04272461,-0.97369385,0.077819824,-0.796875,2.265625,2.125
1695313494219,0.045166016,-0.9627075,0.09661865,-0.8125,0.15625,0.640625
1695313494249,0.0014648438,-0.9961548,0.124938965,-0.078125,-0.359375,1.53125
1695313494309,0.015136719,-0.9758911,0.10614014,-0.96875,0.53125,2.234375
1695313494339,0.056884766,-0.972229,0.09857178,-1.40625,1.046875,1.0625
1695313494369,0.064208984,-0.9746704,0.11224365,-2.09375,-0.8125,-0.265625
1695313494429,0.036132812,-0.97320557,0.097351074,-1.796875,-0.359375,-0.34375
1695313494459,0.022216797,-0.9859009,0.109069824,-0.140625,-0.8125,-0.234375
1695313494489,0.03173828,-0.97247314,0.11834717,-0.671875,-0.5,-0.15625
1695313494549,0.045166016,-0.98272705,0.10345459,-1.828125,-1.171875,0.578125
1695313494578,0.04736328,-0.9668579,0.09173584,-1.875,1.5625,-0.375
1695313494609,0.04711914,-0.98223877,0.12054443,-0.671875,-0.671875,-0.1875
1695313494669,0.009765625,-0.9783325,0.11102295,-1.0625,0.09375,0.625
1695313494684,0.040283203,-0.99542236,0.112976074,-1.25,-0.453125,0.34375
1695313494729,0.03491211,-0.99346924,0.10101318,-0.46875,-2.1875,0.734375
1695313494790,0.05859375,-0.95269775,0.11199951,0.03125,-1.546875,-1.265625
1695313494819,0.034423828,-0.98394775,0.11785889,0.890625,-1.203125,-1.5625
1695313494849,0.037109375,-0.99957275,0.12957764,0.515625,-0.96875,-0.796875
1695313494908,0.02758789,-0.9807739,0.117614746,-1.140625,-0.328125,0.125
1695313494924,0.06274414,-0.95928955,0.10614014,-1.84375,-1.09375,-0.09375
1695313494970,-0.0041503906,-1.0137329,0.10809326,-0.953125,-0.234375,0.765625
1695313495030,0.022705078,-0.9678345,0.11248779,-0.828125,0.4375,0.828125
1695313495044,0.038330078,-0.9763794,0.097595215,-0.921875,-0.53125,0.046875
1695313495090,0.028808594,-0.98565674,0.13104248,1.25,0.53125,-0.859375
1695313495119,0.03173828,-0.9729614,0.09466553,-0.75,1.75,-0.46875
1695313495165,0.05834961,-0.9819946,0.12249756,0.28125,0.90625,-0.90625
1695313495209,0.029541016,-0.9898071,0.12738037,-1.40625,1.1875,0.34375
1695313495239,0.028076172,-0.98101807,0.121520996,-1.828125,1.75,1.359375
1695313495299,0.03540039,-0.9898071,0.12957764,0.0625,3.453125,1.921875
1695313495329,0.048828125,-0.9524536,0.08538818,0.09375,2.078125,1.890625
1695313495359,0.040283203,-0.96881104,0.10076904,1.59375,1.296875,-0.390625
1695313495404,0.016113281,-1.0010376,0.13372803,1.71875,0.546875,0.3125
1695313495449,0.071777344,-0.96954346,0.11395264,-1.5,2.140625,0.25
1695313495479,0.060546875,-0.9690552,0.11126709,-1.546875,0.0,-0.296875
1695313495524,0.030517578,-0.9849243,0.105651855,-2.375,-0.046875,0.375
1695313495599,0.04272461,-0.972229,0.10858154,-1.65625,1.328125,-0.1875
1695313495602,0.05053711,-0.9873657,0.11590576,0.78125,-0.125,-0.1875
1695313495644,0.053222656,-0.96173096,0.10638428,-0.46875,0.875,-0.5625
1695313495689,0.057128906,-0.97125244,0.11224365,-0.984375,-0.1875,0.265625
1695313495719,0.053222656,-0.9685669,0.09857178,-1.484375,-0.84375,-1.390625
1695313495764,0.032470703,-1.0027466,0.13201904,-0.015625,-0.125,-0.015625
1695313495810,-0.0007324219,-1.00177,0.1305542,-0.59375,1.984375,1.578125
1695313495840,0.052001953,-0.9522095,0.10076904,-1.671875,3.5,1.0625
1695313495899,0.08154297,-0.9859009,0.11224365,-1.375,-1.734375,-0.421875
1695313495929,0.061279297,-0.9717407,0.11004639,-1.71875,-0.875,-0.578125
1695313495958,0.059814453,-0.96588135,0.12347412,-0.71875,-0.984375,-1.78125
1695313496004,0.033447266,-0.99298096,0.14715576,0.21875,-1.578125,-0.03125
1695313496048,0.026123047,-0.9949341,0.12982178,-0.421875,0.6875,1.0
1695313496079,0.03955078,-0.96661377,0.11834717,-0.546875,2.46875,0.84375
1695313496110,0.051513672,-0.97369385,0.11004639,-0.578125,0.703125,0.265625
1695313496170,0.036621094,-0.9690552,0.120788574,-0.421875,-1.15625,-0.65625
1695313496200,0.064453125,-0.97125244,0.10638428,-2.84375,-0.6875,-2.578125
1695313496228,0.05419922,-0.99591064,0.1329956,-1.875,-2.078125,-1.65625
1695313496290,0.037597656,-0.9907837,0.1317749,-1.875,0.671875,-0.984375
1695313496319,0.047851562,-0.9697876,0.15081787,-1.296875,0.96875,-0.4375
1695313496349,0.028564453,-0.99713135,0.14520264,-2.671875,1.671875,0.875
1695313496410,0.03540039,-0.96539307,0.14788818,-3.890625,1.5625,0.65625
1695313496439,0.020507812,-0.97442627,0.14788818,-1.75,-0.234375,-0.28125
1695313496469,0.045410156,-0.97052,0.14031982,-4.890625,-0.4375,-1.296875
1695313496530,0.068115234,-0.97003174,0.1486206,-4.0625,-0.46875,-2.109375
1695313496589,0.072509766,-0.9458618,0.14984131,-3.34375,-5.0625,-1.796875
1695313496593,0.029541016,-0.98272705,0.15667725,-2.5,-5.5625,-1.734375
1695313496649,0.0126953125,-0.9702759,0.14007568,3.015625,-6.3125,0.3125
1695313496664,0.02734375,-0.96759033,0.12249756,2.71875,-1.9375,1.453125
1695313496710,0.048828125,-0.9458618,0.13128662,4.171875,-2.40625,0.03125
1695313496769,0.040039062,-1.0098267,0.13616943,0.3125,-0.890625,-1.125
1695313496784,0.0146484375,-0.98321533,0.15863037,-0.6875,-1.6875,-0.515625
1695313496829,0.029296875,-0.95977783,0.1473999,-0.515625,-2.875,-1.421875
1695313496889,0.044921875,-0.96710205,0.13201904,1.9375,-4.09375,-0.40625
1695313496904,0.041748047,-0.958313,0.097839355,1.421875,-2.109375,-0.8125
1695313496949,0.026611328,-0.98272705,0.13641357,3.875,-2.546875,-0.8125
1695313497010,-0.0026855469,-0.9907837,0.13885498,4.671875,-3.890625,1.328125
1695313497024,0.004638672,-0.9727173,0.13006592,3.359375,-5.796875,1.921875
1695313497069,0.01977539,-0.944397,0.1227417,2.96875,-10.4375,1.34375
1695313497128,0.01928711,-1.0234985,0.12908936,0.828125,-8.265625,0.640625
1695313497143,0.030029297,-1.006897,0.13470459,0.15625,-2.703125,-0.015625
1695313497189,0.033691406,-0.95928955,0.12908936,-0.75,3.6875,-1.5
1695313497218,0.032714844,-0.97662354,0.11199951,-0.703125,0.34375,-1.46875
1695313497279,0.010253906,-0.9680786,0.11810303,1.15625,-0.71875,-0.71875
1695313497308,0.018798828,-0.97369385,0.09881592,-0.4375,2.09375,0.0625
1695313497338,0.03149414,-0.9741821,0.12908936,1.078125,-1.15625,0.671875
1695313497384,0.020019531,-0.9819946,0.09686279,0.546875,-1.046875,0.375
1695313497429,0.012207031,-0.98565674,0.1305542,0.625,-2.234375,-0.203125
1695313497459,0.052246094,-0.9829712,0.11077881,-1.171875,-2.296875,-0.546875
1695313497504,0.017578125,-0.98101807,0.11541748,-0.984375,-1.453125,-0.4375
1695313497549,0.021972656,-0.98760986,0.109558105,-0.203125,1.578125,-1.265625
1695313497579,0.0031738281,-0.98687744,0.13226318,0.640625,-2.078125,-0.21875
1695313497624,0.030517578,-0.9651489,0.09637451,-0.5625,-0.796875,-1.03125
1695313497669,0.0075683594,-0.9824829,0.10003662,0.703125,-1.1875,-0.171875
1695313497699,0.01928711,-0.97320557,0.09954834,1.328125,-1.375,0.40625
1695313497745,-0.010009766,-0.9956665,0.09539795,1.75,-1.875,1.0625
1695313497789,0.012451172,-0.9697876,0.11077881,0.46875,-0.453125,0.953125
1695313497820,0.020263672,-0.98443604,0.11053467,0.5625,-0.875,0.828125
1695313497864,0.018310547,-0.9788208,0.11541748,-0.609375,-1.21875,0.0
1695313497908,0.07373047,-0.9885864,0.1281128,0.796875,-0.84375,-0.390625
1695313497939,0.049072266,-0.9517212,0.06854248,0.28125,-3.28125,0.21875
1695313497985,-0.014160156,-0.98443604,0.11126709,0.6875,-1.859375,-1.578125
1695313498029,0.01586914,-0.9902954,0.109802246,0.21875,-1.21875,-0.90625
1695313498058,0.014160156,-0.97198486,0.10784912,-0.484375,-1.0,-0.578125
1695313498149,0.005126953,-0.98687744,0.08709717,-0.546875,-0.53125,-0.75
1695313498152,-0.009277344,-0.99298096,0.11932373,0.5625,-1.734375,-0.265625
1695313498177,0.015625,-0.9885864,0.08001709,-0.390625,2.015625,-0.328125
