timestamp,accel_x,accel_y,accel_z,gyro_x,gyro_y,gyro_z
1695313284204,-0.025390625,-0.9907837,0.09906006,-0.65625,-0.140625,0.1875
1695313284244,-0.032714844,-0.9800415,0.10687256,-0.265625,-0.53125,0.0625
1695313284284,-0.032470703,-0.9812622,0.10491943,-0.15625,-0.59375,-0.015625
1695313284324,-0.026123047,-0.9883423,0.097839355,-0.65625,-0.828125,-0.234375
1695313284364,-0.029785156,-0.9846802,0.097595215,-0.6875,-0.453125,-0.15625
1695313284404,-0.026367188,-0.9768677,0.10882568,0.140625,-1.078125,0.125
1695313284444,-0.028808594,-0.9771118,0.08782959,-1.203125,1.0625,0.015625
1695313284484,-0.03100586,-0.98321533,0.11444092,0.0,-1.984375,0.140625
1695313284524,-0.036376953,-0.9702759,0.086120605,-1.21875,0.984375,0.125
1695313284564,-0.030273438,-0.9834595,0.1071167,0.359375,0.3125,0.1875
1695313284604,-0.024658203,-0.9866333,0.11517334,-0.140625,-0.734375,-0.046875
1695313284644,-0.02319336,-0.9768677,0.0927124,-0.375,-0.453125,-0.046875
1695313284684,-0.028076172,-0.97491455,0.10736084,-0.0625,-1.234375,-0.09375
1695313284724,-0.03173828,-0.9866333,0.10394287,0.125,-1.828125,-0.484375
1695313284764,-0.024169922,-0.9885864,0.10296631,-0.609375,-1.234375,-0.234375
1695313284804,-0.033691406,-0.98516846,0.101501465,-0.171875,-1.8125,-0.640625
1695313284844,-0.030273438,-0.9834595,0.1071167,-0.234375,-2.40625,-0.953125
1695313284884,-0.043701172,-0.9976196,0.1071167,-1.609375,-3.625,-0.484375
1695313284924,-0.021240234,-0.9837036,0.11175537,-1.890625,-1.3125,-0.6875
1695313284964,-0.033203125,-0.98321533,0.10418701,-1.078125,0.0625,-0.359375
1695313285004,-0.03515625,-0.975647,0.11077881,-0.90625,0.8125,0.15625
1695313285044,-0.041503906,-0.9807739,0.109802246,-0.6875,-1.09375,-0.71875
1695313285084,-0.032226562,-0.97125244,0.113220215,0.234375,-1.125,-0.140625
1695313285124,-0.03173828,-0.97784424,0.09197998,-1.1875,-0.65625,0.40625
1695313285164,-0.03564453,-0.9837036,0.097351074,-0.390625,0.125,0.546875
1695313285204,-0.036865234,-0.97906494,0.11248779,-0.90625,-0.40625,-0.296875
1695313285244,-0.034423828,-0.97247314,0.0993042,-0.78125,0.921875,0.0
1695313285284,-0.041503906,-0.98565674,0.11273193,-0.5,-1.046875,-0.15625
1695313285324,-0.028564453,-0.97784424,0.121032715,-1.65625,-1.609375,0.15625
1695313285364,-0.027832031,-0.9837036,0.11199951,-0.875,-1.703125,-0.140625
1695313285404,-0.026367188,-0.9805298,0.11932373,-0.625,-0.421875,0.1875
1695313285444,-0.026855469,-0.9829712,0.10809326,-0.40625,0.3125,0.34375
1695313285484,-0.02319336,-0.97735596,0.11810303,-0.03125,-0.140625,0.03125
1695313285524,-0.036621094,-0.9871216,0.109802246,0.328125,-0.34375,-0.234375
1695313285564,-0.03173828,-0.98516846,0.1149292,0.0625,0.03125,-0.046875
1695313285604,-0.036865234,-0.9824829,0.1071167,-1.046875,-0.1875,0.015625
1695313285644,-0.031982422,-0.98394775,0.10858154,-0.34375,-0.28125,0.125
1695313285684,-0.03466797,-0.973938,0.12249756,-0.4375,0.203125,0.234375
1695313285724,-0.03540039,-0.9819946,0.10028076,-1.25,-0.078125,-0.046875
1695313285764,-0.03100586,-0.9741821,0.09246826,-1.78125,2.359375,-0.328125
1695313285804,-0.03173828,-0.9968872,0.13568115,-0.6875,0.90625,0.28125
1695313285844,-0.03125,-0.9702759,0.11248779,-1.515625,1.25,-0.28125
1695313285884,-0.021728516,-0.9690552,0.109313965,-1.5,0.84375,-0.46875
1695313285924,-0.032226562,-0.987854,0.12957764,0.015625,-0.609375,-0.734375
1695313285964,-0.029052734,-0.9812622,0.116882324,-0.171875,0.1875,-0.546875
1695313286004,-0.035888672,-0.9890747,0.10736084,-0.4375,0.625,-0.171875
1695313286044,-0.03930664,-0.9846802,0.12054443,-0.578125,0.109375,-0.375
1695313286084,-0.034423828,-0.9783325,0.109802246,-0.890625,-0.0625,-0.234375
1695313286124,-0.030517578,-0.986145,0.117126465,-0.671875,-0.234375,-0.3125
1695313286164,-0.041015625,-0.97491455,0.11639404,-0.46875,0.140625,0.140625
1695313286204,-0.027832031,-0.9849243,0.12371826,-0.5,-0.234375,-0.140625
1695313286244,-0.032958984,-0.973938,0.11883545,-0.375,0.171875,-0.453125
1695313286284,-0.034179688,-0.98028564,0.121032715,0.078125,-0.46875,0.015625
1695313286324,-0.033935547,-0.9800415,0.11663818,0.21875,-0.109375,-0.234375
1695313286364,-0.037597656,-0.9834595,0.13397217,0.28125,-1.109375,-0.125
1695313286404,-0.038330078,-0.98028564,0.097839355,-0.265625,-0.078125,0.1875
1695313286444,-0.026611328,-0.9834595,0.1149292,0.296875,1.90625,0.328125
1695313286484,-0.041992188,-0.99102783,0.13201904,0.640625,0.421875,0.34375
1695313286524,-0.028320312,-0.9727173,0.1149292,-0.25,0.8125,0.21875
1695313286564,-0.03149414,-0.97735596,0.11444092,-0.625,-0.078125,0.296875
1695313286604,-0.03955078,-0.9902954,0.121520996,-0.703125,-0.765625,-0.03125
1695313286644,-0.010498047,-0.9727173,0.11175537,-0.203125,-1.03125,1.171875
1695313286684,-0.03491211,-0.9829712,0.09295654,1.71875,-2.421875,1.171875
1695313286724,-0.017578125,-0.9961548,0.112976074,-0.234375,-3.25,0.84375
1695313286764,-0.024658203,-0.9690552,0.09710693,-1.546875,-0.65625,1.109375
1695313286804,-0.010253906,-0.9871216,0.11077881,-0.640625,-0.078125,0.578125
1695313286844,-0.022216797,-0.9871216,0.12371826,-0.546875,-0.734375,0.390625
1695313286884,-0.02758789,-0.98101807,0.11566162,-0.5625,-0.34375,-0.5625
1695313286924,-0.018066406,-0.97857666,0.12005615,-0.6875,0.3125,-0.375
1695313286964,-0.01928711,-0.98272705,0.11468506,-0.75,-0.15625,-0.328125
1695313287004,-0.024902344,-0.9710083,0.11663818,-1.0,-0.15625,-0.109375
1695313287044,-0.029785156,-0.96417236,0.10003662,-0.6875,1.609375,0.28125
1695313287084,-0.020996094,-0.9859009,0.12371826,0.703125,0.578125,0.625
1695313287124,-0.026611328,-0.9873657,0.11199951,-0.109375,0.015625,0.84375
1695313287164,-0.016113281,-0.97857666,0.11639404,-0.921875,0.828125,0.03125
1695313287204,-0.010253906,-0.9624634,0.10443115,-1.328125,2.140625,0.0625
1695313287244,-0.013916016,-1.00177,0.12713623,-0.125,-0.71875,-0.46875
1695313287284,-0.025634766,-0.9746704,0.12249756,-0.703125,-0.609375,-0.53125
1695313287324,-0.011962891,-0.9871216,0.12567139,-0.3125,-0.46875,-0.890625
1695313287364,-0.026367188,-0.98101807,0.109802246,-0.765625,-0.265625,-0.34375
1695313287404,-0.016113281,-0.9771118,0.11541748,-0.796875,-0.265625,-0.4375
1695313287444,-0.028076172,-0.97979736,0.11639404,-0.484375,-1.46875,-0.59375
1695313287484,-0.026611328,-0.9837036,0.11102295,-0.203125,-1.296875,-0.78125
1695313287524,-0.022216797,-0.9866333,0.11981201,-0.921875,-1.515625,-0.328125
1695313287564,-0.017089844,-0.97442627,0.117126465,-0.890625,-0.71875,-0.125
1695313287604,-0.033203125,-0.9841919,0.11663818,0.203125,-1.0625,-0.25
1695313287644,-0.022216797,-0.9846802,0.12347412,-1.0625,0.21875,-0.015625
1695313287684,-0.022949219,-0.9795532,0.11102295,-0.25,1.078125,0.0625
1695313287724,-0.014404297,-0.9776001,0.113708496,-0.515625,0.515625,-0.125
1695313287764,-0.022216797,-0.9824829,0.11907959,-0.140625,0.515625,-0.25
1695313287804,-0.025634766,-0.98223877,0.113464355,-0.265625,0.078125,-0.484375
1695313287844,-0.037353516,-0.9829712,0.11590576,-0.21875,-1.3125,0.359375
1695313287884,-0.022949219,-0.9871216,0.11981201,-0.25,-1.4375,0.4375
1695313287924,-0.021972656,-0.9763794,0.11004639,-0.515625,-0.640625,0.046875
1695313287964,-0.01977539,-0.99005127,0.11541748,-0.5,-0.640625,0.25
1695313288004,-0.01928711,-0.98150635,0.11663818,-0.59375,-0.203125,-0.25
1695313288044,-0.020263672,-0.97540283,0.12054443,-0.671875,1.171875,0.359375
1695313288084,-0.016357422,-0.9807739,0.12713623,-0.25,-0.8125,-0.078125
1695313288124,-0.021484375,-0.9692993,0.1161499,-0.515625,-0.046875,-0.125
1695313288164,-0.029052734,-0.98028564,0.11126709,-0.234375,-0.984375,-0.328125
1695313288204,-0.020751953,-0.972229,0.12030029,-0.796875,-0.984375,-0.015625
1695313288244,-0.027832031,-0.98443604,0.12249756,-0.359375,0.0625,0.09375
1695313288284,-0.032226562,-0.98223877,0.11859131,-0.25,-0.96875,0.203125
1695313288324,-0.020996094,-0.9771118,0.112976074,-0.453125,0.984375,0.0
1695313288364,-0.017578125,-0.9898071,0.1161499,-0.453125,-0.421875,-0.15625
1695313288404,-0.009033203,-0.9678345,0.105651855,-1.21875,1.25,-0.484375
1695313288444,-0.020996094,-0.9812622,0.121032715,-0.09375,1.203125,-0.140625
1695313288484,-0.029296875,-0.9829712,0.124694824,-0.21875,-0.078125,-0.078125
1695313288524,-0.02319336,-0.97613525,0.113708496,-0.25,-0.4375,0.109375
1695313288564,-0.022705078,-0.9741821,0.11810303,-0.28125,-0.34375,0.28125
1695313288604,-0.021240234,-0.9924927,0.112976074,-0.265625,-0.609375,0.359375
1695313288644,-0.016601562,-0.97979736,0.11810303,-0.125,0.390625,0.28125
1695313288684,-0.022460938,-0.98272705,0.11981201,-0.234375,0.109375,-0.03125
1695313288724,-0.018798828,-0.97613525,0.11566162,-0.3125,-0.140625,-0.0625
1695313288764,-0.026855469,-0.9763794,0.120788574,-0.203125,-1.203125,-0.171875
1695313288804,-0.02319336,-0.9805298,0.1161499,0.234375,-1.5,-0.375
1695313288844,-0.029296875,-0.9829712,0.10638428,0.34375,-2.15625,-0.015625
1695313288884,-0.023925781,-0.9780884,0.11663818,1.109375,-2.75,0.3125
1695313288924,-0.010498047,-0.9937134,0.12567139,0.453125,-1.140625,-0.25
1695313288964,-0.027832031,-0.97369385,0.09710693,0.453125,0.203125,0.1875
1695313289004,-0.020751953,-0.975647,0.10638428,-0.640625,-0.265625,0.09375
1695313289044,-0.010498047,-1.0022583,0.11785889,0.625,-0.59375,-0.171875
1695313289084,-0.026123047,-0.9800415,0.10687256,-0.96875,0.4375,0.4375
1695313289124,-0.017333984,-0.98223877,0.109558105,-0.859375,0.453125,0.265625
1695313289164,-0.022949219,-0.9920044,0.0993042,-1.171875,-1.3125,-0.03125
1695313289204,-0.020019531,-0.9776001,0.11077881,-0.375,-0.140625,0.0
1695313289244,-0.020996094,-0.9795532,0.09954834,-0.703125,0.53125,0.1875
1695313289284,-0.013427734,-0.98565674,0.1149292,-0.15625,-0.328125,0.125
1695313289324,-0.020507812,-0.9824829,0.11126709,-0.40625,-1.046875,0.25
1695313289364,-0.01171875,-0.98809814,0.10345459,-0.6875,-0.046875,0.1875
1695313289404,-0.017333984,-0.9680786,0.097351074,-1.453125,1.640625,0.703125
1695313289444,-0.021972656,-0.9927368,0.112976074,0.296875,0.078125,-0.265625
1695313289484,-0.021240234,-0.98028564,0.10858154,-0.296875,0.203125,-0.140625
1695313289524,-0.020019531,-0.989563,0.101745605,-0.515625,0.375,0.140625
1695313289564,-0.011474609,-0.98272705,0.113708496,-0.265625,1.09375,0.109375
1695313289604,-0.011474609,-0.97906494,0.09295654,-0.4375,0.359375,-0.15625
1695313289644,-0.0041503906,-0.9788208,0.09979248,-0.046875,0.25,0.21875
1695313289684,-0.018798828,-0.99005127,0.11541748,0.640625,-0.734375,-0.140625
1695313289724,-0.026611328,-0.9768677,0.109558105,-0.390625,-0.109375,0.40625
1695313289764,-0.013916016,-0.97369385,0.10369873,-0.171875,0.546875,0.375
1695313289804,-0.0061035156,-0.9805298,0.10394287,-0.53125,0.0625,0.171875
1695313289844,-0.0043945312,-0.97247314,0.09906006,-0.15625,-0.734375,-0.078125
1695313289884,-0.017822266,-0.9866333,0.10418701,-0.328125,-1.0,-0.078125
1695313289924,-0.012451172,-0.9727173,0.09906006,-0.640625,0.234375,-0.171875
1695313289964,-0.014160156,-0.9939575,0.11004639,0.296875,-1.0,-0.21875
1695313290004,-0.017578125,-0.9834595,0.10345459,-0.140625,-0.578125,0.03125
1695313290044,-0.013427734,-0.98565674,0.10076904,-0.59375,-0.125,-0.03125
1695313290084,-0.01977539,-0.987854,0.101257324,-0.125,-1.09375,-0.078125
1695313290124,-0.018798828,-0.97784424,0.10418701,-0.703125,-0.21875,-0.109375
1695313290164,-0.01171875,-0.98931885,0.10687256,-0.109375,-1.203125,0.0
1695313290204,-0.0087890625,-0.9692993,0.11248779,-0.578125,0.75,-0.046875
1695313290244,-0.0043945312,-0.9834595,0.10491943,-0.140625,0.53125,-0.046875
1695313290284,-0.009277344,-0.9817505,0.10784912,-0.625,0.15625,-0.34375
1695313290324,-0.011230469,-0.98028564,0.10809326,-0.46875,0.375,-0.484375
1695313290364,-0.020996094,-0.9829712,0.10345459,-0.53125,-0.1875,-0.1875
1695313290404,-0.010498047,-0.9817505,0.109313965,-1.046875,0.125,-0.171875
1695313290444,-0.0107421875,-0.97857666,0.1149292,-0.484375,0.703125,-0.171875
1695313290484,-0.0107421875,-0.98760986,0.11224365,0.21875,-0.296875,-0.25
1695313290524,-0.015380859,-0.986145,0.10858154,-0.953125,0.34375,-0.4375
1695313290564,-0.012939453,-0.9902954,0.11785889,0.234375,-0.9375,-1.046875
1695313290604,-0.014160156,-0.9783325,0.10003662,-0.578125,-0.75,-1.359375
1695313290644,-0.024902344,-0.987854,0.11639404,-1.25,-1.578125,-1.515625
1695313290684,-0.02734375,-0.98101807,0.10809326,-0.84375,-1.734375,-1.375
1695313290724,-0.034423828,-0.9714966,0.105163574,-1.109375,-1.484375,-1.453125
1695313290764,-0.033203125,-0.98028564,0.101257324,-1.90625,-1.265625,-0.765625
1695313290804,-0.051513672,-0.98516846,0.11077881,-0.8125,-1.171875,-1.484375
1695313290844,-0.036865234,-0.98638916,0.120788574,-2.1875,-1.796875,-1.515625
1695313290884,-0.03466797,-0.9734497,0.11151123,-2.484375,-1.640625,-1.171875
1695313290924,-0.04321289,-0.9758911,0.11566162,-1.34375,-2.71875,-1.640625
1695313290964,-0.04272461,-0.9812622,0.120788574,-2.375,-2.3125,-1.015625
1695313291004,-0.045654297,-0.98223877,0.13153076,-2.421875,-1.015625,-1.328125
1695313291044,-0.053466797,-0.98394775,0.14056396,-2.46875,-0.640625,-0.765625
1695313291084,-0.052734375,-0.9751587,0.1227417,-1.796875,-2.0625,-0.578125
1695313291124,-0.048583984,-0.97735596,0.13006592,-1.59375,-1.78125,-0.5
1695313291164,-0.053955078,-0.9819946,0.13104248,-1.78125,-1.875,-0.78125
1695313291204,-0.053955078,-0.9837036,0.1329956,-2.171875,-1.53125,-0.78125
1695313291244,-0.051513672,-0.97076416,0.13665771,-1.09375,-2.25,-0.5
1695313291284,-0.05102539,-0.9590454,0.11883545,-0.84375,-2.0,-0.25
1695313291324,-0.051513672,-0.9717407,0.13226318,0.4375,-1.859375,-0.140625
1695313291364,-0.05102539,-0.960022,0.11029053,0.21875,0.1875,0.21875
1695313291404,-0.05126953,-0.9932251,0.137146,0.578125,0.34375,0.015625
1695313291444,-0.05078125,-0.9783325,0.13421631,0.6875,-0.234375,0.234375
1695313291484,-0.060546875,-0.97906494,0.13226318,0.890625,-1.328125,-0.015625
1695313291524,-0.045410156,-0.97784424,0.13690186,0.875,-1.640625,0.078125
1695313291564,-0.049072266,-0.9890747,0.13909912,1.5,-2.984375,0.03125
1695313291604,-0.049804688,-0.98028564,0.12322998,0.390625,-1.21875,0.1875
1695313291644,-0.052734375,-0.9793091,0.12200928,0.078125,-0.265625,-0.0625
1695313291684,-0.05493164,-0.9758911,0.12982178,0.140625,-0.21875,0.0
1695313291724,-0.04711914,-0.98516846,0.120788574,0.625,-0.78125,0.046875
1695313291764,-0.05493164,-0.9834595,0.11883545,-0.09375,-0.359375,-0.359375
1695313291804,-0.046142578,-0.9824829,0.11590576,-0.53125,-0.328125,0.09375
1695313291844,-0.06225586,-0.9763794,0.13348389,-0.09375,-0.296875,-0.265625
1695313291884,-0.05883789,-0.98223877,0.112976074,-0.078125,-0.265625,0.28125
1695313291924,-0.060791016,-0.97125244,0.13568115,0.375,-0.5,-0.15625
1695313291964,-0.05029297,-0.9837036,0.11248779,0.0,-0.03125,-0.046875
1695313292004,-0.049316406,-0.97003174,0.10638428,-0.390625,0.890625,0.125
1695313292044,-0.052246094,-0.98321533,0.13348389,1.21875,0.640625,0.46875
1695313292084,-0.053955078,-0.989563,0.12298584,0.15625,0.328125,0.515625
1695313292124,-0.048339844,-0.9763794,0.12664795,-0.203125,-0.015625,0.296875
1695313292164,-0.0546875,-0.9702759,0.11053467,0.703125,-0.359375,0.375
1695313292204,-0.043945312,-0.9898071,0.1281128,-0.125,-0.546875,0.46875
1695313292244,-0.05419922,-0.9727173,0.10467529,-0.71875,0.109375,0.5
1695313292284,-0.036621094,-0.9768677,0.120788574,-0.4375,0.4375,1.046875
1695313292324,-0.052001953,-0.9907837,0.112976074,0.09375,-0.0625,0.390625
1695313292364,-0.045166016,-0.96710205,0.101989746,-0.875,1.140625,0.4375
1695313292404,-0.03491211,-0.987854,0.12591553,-1.046875,0.8125,0.234375
1695313292444,-0.05102539,-0.9800415,0.117370605,-0.0625,0.859375,0.421875
1695313292484,-0.036621094,-0.9793091,0.12884521,-0.34375,1.734375,0.1875
1695313292524,-0.04638672,-0.9805298,0.109069824,-1.28125,2.84375,-0.09375
1695313292564,-0.038085938,-0.98223877,0.13763428,-0.203125,1.6875,0.203125
1695313292604,-0.047851562,-0.98272705,0.12225342,-1.9375,2.328125,0.109375
1695313292644,-0.038085938,-0.97540283,0.11859131,-1.25,3.546875,0.078125
1695313292684,-0.032958984,-0.9859009,0.13690186,-0.109375,1.71875,-0.21875
1695313292724,-0.04711914,-0.9866333,0.12835693,-0.4375,0.109375,-0.578125
1695313292764,-0.03881836,-0.989563,0.13909912,-0.78125,-1.9375,-0.390625
1695313292804,-0.032470703,-0.98443604,0.13201904,0.171875,-3.21875,-0.9375
1695313292844,-0.057128906,-0.98150635,0.12200928,1.140625,-3.5,-0.546875
1695313292884,-0.052246094,-0.972229,0.105163574,1.1875,-3.921875,-0.21875
1695313292924,-0.045654297,-0.97369385,0.09442139,1.78125,-3.6875,0.5
1695313292964,-0.026855469,-0.9714966,0.105895996,-1.125,-1.015625,0.671875
1695313293004,-0.03149414,-0.9915161,0.12030029,0.1875,-0.3125,0.328125
1695313293044,-0.03857422,-0.9714966,0.09857178,-0.296875,0.65625,0.390625
1695313293084,-0.030517578,-0.9866333,0.11077881,0.0,0.421875,0.46875
1695313293124,-0.041015625,-0.97369385,0.10345459,0.578125,1.6875,0.1875
1695313293164,-0.029296875,-0.97784424,0.09661865,-0.65625,3.375,0.359375
1695313293204,-0.059326172,-0.9734497,0.09539795,-0.25,-1.796875,0.34375
1695313293244,-0.030029297,-0.97540283,0.105407715,0.4375,1.296875,0.25
1695313293284,-0.045166016,-0.99224854,0.1005249,0.984375,0.71875,0.625
1695313293324,-0.026123047,-0.98687744,0.112976074,-0.375,1.015625,0.40625
1695313293364,-0.03515625,-0.98516846,0.10809326,-0.125,0.921875,0.0625
1695313293404,-0.03564453,-0.9800415,0.097351074,-0.5,0.09375,1.25
1695313293444,-0.013427734,-0.9817505,0.105651855,-0.015625,0.078125,0.21875
1695313293484,-0.03491211,-0.9734497,0.09881592,0.359375,-0.15625,0.234375
1695313293524,-0.028808594,-0.9951782,0.117370605,-0.25,-1.34375,0.203125
1695313293564,-0.027832031,-0.9771118,0.10614014,-0.65625,-0.703125,0.109375
1695313293604,-0.030029297,-0.9795532,0.09539795,-0.578125,-0.515625,0.015625
1695313293644,-0.034423828,-0.97979736,0.101257324,-0.046875,-0.03125,-0.21875
1695313293684,-0.027832031,-0.987854,0.10028076,-0.515625,-0.125,-0.09375
1695313293724,-0.032714844,-0.98809814,0.109069824,-0.484375,-0.171875,-0.171875
1695313293764,-0.02758789,-0.97735596,0.09832764,-0.6875,-0.3125,0.140625
1695313293804,-0.030273438,-0.97979736,0.09832764,-0.25,-0.46875,0.0625
1695313293844,-0.028808594,-0.9963989,0.11175537,-0.203125,-2.0,-0.34375
1695313293884,-0.022216797,-0.9690552,0.08343506,-2.1875,2.0625,-0.140625
1695313293924,-0.025634766,-0.98516846,0.11004639,-0.015625,0.875,0.203125
1695313293964,-0.040283203,-0.9873657,0.101501465,-0.953125,0.421875,-0.015625
1695313294004,-0.018554688,-0.97735596,0.10443115,-0.78125,3.375,-0.171875
1695313294044,-0.029785156,-0.98443604,0.11444092,-0.28125,2.53125,-0.1875
1695313294084,-0.028808594,-0.9793091,0.105407715,-0.59375,0.53125,-0.28125
1695313294124,-0.032714844,-0.98638916,0.12298584,-0.421875,-0.515625,-0.671875
1695313294164,-0.037353516,-0.989563,0.12054443,-1.09375,-1.171875,-1.4375
1695313294204,-0.013427734,-0.97198486,0.113708496,-1.46875,-0.75,-0.703125
1695313294244,-0.036865234,-0.98150635,0.11199951,-0.921875,-0.859375,-1.078125
1695313294284,-0.036132812,-0.9817505,0.10858154,0.265625,-2.78125,-0.921875
1695313294324,-0.048583984,-0.9805298,0.10345459,0.453125,-4.1875,-1.328125
1695313294364,-0.037841797,-0.9631958,0.10858154,-0.078125,0.421875,0.8125
1695313294404,-0.026123047,-0.98028564,0.11810303,0.21875,0.546875,0.328125
1695313294444,-0.04711914,-0.98687744,0.09246826,0.375,0.734375,-0.609375
1695313294484,-0.028808594,-0.97613525,0.1005249,0.015625,1.65625,0.546875
1695313294524,-0.02758789,-0.9956665,0.101989746,-0.09375,1.359375,-0.296875
1695313294564,-0.044921875,-0.9915161,0.09637451,-0.734375,0.8125,0.203125
1695313294604,-0.04638672,-0.9788208,0.09295654,-0.640625,-0.609375,-0.203125
1695313294644,-0.050048828,-0.9793091,0.09832764,0.234375,-1.265625,0.171875
1695313294684,-0.03491211,-0.9702759,0.09564209,0.34375,-0.4375,0.171875
1695313294724,-0.037841797,-0.9993286,0.10296631,0.125,-1.140625,0.453125
1695313294764,-0.03173828,-0.973938,0.09173584,0.171875,0.953125,0.625
1695313294804,-0.03100586,-0.9937134,0.09832764,0.140625,-0.421875,0.5625
1695313294844,-0.036132812,-0.98687744,0.101257324,-0.796875,-0.4375,0.4375
1695313294884,-0.022216797,-0.9788208,0.08807373,-0.703125,1.859375,-0.234375
1695313294924,-0.03125,-0.97979736,0.1005249,-0.15625,1.40625,0.453125
1695313294964,-0.02368164,-0.9751587,0.10101318,-0.234375,-0.578125,-0.09375
1695313295004,-0.033691406,-0.9866333,0.09490967,-0.5,0.03125,-0.453125
1695313295044,-0.027832031,-0.9710083,0.09637451,-0.484375,1.015625,0.28125
1695313295084,-0.03955078,-0.9783325,0.09051514,-0.59375,0.640625,-0.5625
1695313295124,-0.0234375,-0.97979736,0.10394287,-1.015625,2.109375,-0.15625
1695313295164,-0.03564453,-0.98687744,0.1083374,-0.75,1.4375,-0.390625
1695313295204,-0.032958984,-0.9807739,0.09588623,-1.09375,1.53125,-0.21875
1695313295244,-0.035888672,-0.99102783,0.10467529,0.359375,-0.265625,-0.125
1695313295284,-0.027832031,-0.98443604,0.09197998,-0.171875,-0.828125,-0.359375
1695313295324,-0.030761719,-0.9812622,0.09051514,-0.15625,-1.5,-0.71875
1695313295364,-0.03540039,-0.9729614,0.10418701,-0.78125,-1.453125,-0.734375
1695313295404,-0.03491211,-0.9902954,0.105651855,0.078125,-2.71875,-1.171875
1695313295444,-0.045898438,-0.98565674,0.09661865,-0.421875,-1.8125,-0.984375
1695313295484,-0.03100586,-0.98638916,0.11151123,-0.09375,-1.46875,-1.3125
1695313295524,-0.040283203,-0.98638916,0.09954834,0.359375,-2.1875,-0.5625
1695313295564,-0.041992188,-0.9758911,0.09613037,-0.203125,-2.234375,-0.8125
1695313295604,-0.041992188,-0.9873657,0.09442139,-0.3125,-2.046875,-0.84375
1695313295644,-0.042236328,-0.9829712,0.09051514,-0.625,-1.984375,-0.4375
1695313295684,-0.03930664,-0.9800415,0.098083496,-0.6875,-1.671875,-0.640625
1695313295724,-0.048828125,-0.97784424,0.09588623,-0.578125,-1.375,-0.453125
1695313295764,-0.04272461,-0.9793091,0.10272217,0.25,-2.390625,-0.328125
1695313295804,-0.03857422,-0.9783325,0.08465576,-1.203125,-0.859375,-0.125
1695313295844,-0.046142578,-0.9854126,0.09906006,0.265625,-2.15625,-0.390625
1695313295884,-0.047607422,-0.9717407,0.08001709,-0.9375,-0.140625,-0.21875
1695313295924,-0.044921875,-0.987854,0.09295654,-0.5625,0.03125,-0.328125
1695313295964,-0.043945312,-0.9890747,0.10296631,-0.703125,-0.59375,-0.265625
1695313296004,-0.04736328,-0.98028564,0.089538574,-0.9375,-0.546875,-0.34375
1695313296044,-0.045654297,-0.9807739,0.097351074,-0.890625,-0.9375,-0.234375
1695313296084,-0.048095703,-0.9788208,0.08709717,-0.578125,-1.484375,0.25
1695313296124,-0.047607422,-0.9819946,0.09320068,-0.21875,-0.875,0.71875
1695313296164,-0.044921875,-0.987854,0.10076904,0.53125,1.15625,0.859375
1695313296204,-0.040283203,-0.9981079,0.12176514,0.109375,0.21875,0.5625
1695313296244,-0.037597656,-0.9800415,0.10101318,0.4375,-2.640625,-0.015625
1695313296284,-0.037597656,-0.97003174,0.097839355,0.46875,-0.546875,0.03125
1695313296324,-0.03955078,-0.98687744,0.101745605,-0.265625,0.28125,0.109375
1695313296364,-0.05102539,-0.9763794,0.09490967,-0.421875,-0.328125,0.171875
1695313296404,-0.045654297,-0.9898071,0.09832764,-0.3125,-1.5,0.21875
1695313296444,-0.041992188,-0.9783325,0.0993042,1.484375,-1.15625,0.859375
1695313296484,-0.052001953,-0.98394775,0.07244873,0.203125,-1.359375,1.125
1695313296524,-0.02709961,-1.0003052,0.10418701,0.9375,-1.75,0.421875
1695313296564,-0.039794922,-0.9692993,0.0848999,0.1875,0.75,0.796875
1695313296604,-0.03491211,-0.98443604,0.09906006,0.21875,0.34375,0.078125
1695313296644,-0.046142578,-0.9841919,0.09295654,0.03125,-0.6875,0.671875
1695313296684,-0.025634766,-0.989563,0.098083496,-0.375,-0.6875,0.015625
1695313296724,-0.040283203,-0.98883057,0.08685303,-0.3125,0.125,0.578125
1695313296764,-0.028564453,-0.9837036,0.08441162,-0.640625,-0.734375,0.09375
1695313296804,-0.032714844,-0.98931885,0.08685303,-1.0,-0.25,-0.296875
1695313296844,-0.037597656,-0.98321533,0.08856201,-0.125,0.65625,0.15625
1695313296884,-0.039794922,-0.9807739,0.09466553,-0.71875,-0.28125,0.1875
1695313296924,-0.034423828,-0.98809814,0.08831787,-0.09375,-1.1875,-0.375
1695313296964,-0.025390625,-0.9902954,0.08856201,-0.09375,-2.53125,0.1875
1695313297004,-0.032714844,-0.9795532,0.101745605,-1.09375,-2.078125,-0.1875
1695313297044,-0.036865234,-0.9812622,0.08880615,-0.921875,-1.859375,0.0
1695313297084,-0.02368164,-0.9697876,0.09051514,-0.875,0.1875,0.109375
1695313297124,-0.029785156,-0.9859009,0.09442139,-0.359375,-0.765625,-0.46875
1695313297164,-0.02709961,-0.98565674,0.082458496,-2.0625,-0.4375,-1.046875
1695313297204,-0.057373047,-0.97784424,0.093933105,-0.171875,-1.015625,-0.078125
1695313297244,-0.040039062,-0.96954346,0.08905029,-0.8125,1.15625,0.75
1695313297284,-0.051513672,-0.98638916,0.09173584,0.390625,2.390625,-0.0625
1695313297324,-0.024169922,-0.99176025,0.10858154,0.25,0.875,-0.328125
1695313297364,-0.034423828,-0.98321533,0.09075928,-0.21875,1.265625,-0.265625
1695313297404,-0.028076172,-0.9714966,0.085876465,-0.546875,-0.15625,-0.234375
1695313297444,-0.041015625,-0.99346924,0.10614014,-0.34375,-2.546875,0.15625
1695313297484,-0.04272461,-0.98516846,0.08685303,-0.234375,-1.0,0.46875
1695313297524,-0.034423828,-1.0025024,0.09710693,0.515625,0.21875,0.78125
1695313297564,-0.0034179688,-0.9834595,0.09320068,0.40625,1.546875,1.15625
1695313297604,-0.024414062,-0.987854,0.09295654,-1.15625,0.296875,1.1875
1695313297644,-0.0068359375,-0.98516846,0.09857178,-0.921875,0.359375,0.203125
1695313297684,-0.019042969,-0.97198486,0.094177246,-0.90625,0.046875,0.421875
1695313297724,-0.01953125,-0.9859009,0.097351074,-1.234375,-1.515625,0.5625
1695313297764,-0.02709961,-0.9763794,0.101745605,-1.125,-0.890625,0.21875
1695313297804,-0.020751953,-0.9771118,0.090026855,-1.171875,-0.21875,0.78125
1695313297844,-0.026855469,-0.9800415,0.09539795,-0.296875,1.375,0.09375
1695313297884,-0.022949219,-0.99005127,0.09710693,0.640625,1.046875,0.375
1695313297924,-0.014160156,-0.9849243,0.093933105,0.296875,-0.234375,-0.046875
1695313297964,-0.025878906,-0.98272705,0.094177246,1.109375,-1.9375,1.15625
1695313298004,-0.017333984,-0.9859009,0.09539795,-0.34375,-0.4375,-0.140625
1695313298044,-0.0061035156,-0.98638916,0.08319092,-1.484375,1.859375,-0.203125
1695313298084,-0.007080078,-0.9981079,0.11004639,-0.828125,2.328125,-0.65625
1695313298124,-0.03930664,-0.99957275,0.12298584,-1.6875,-0.390625,-0.96875
1695313298164,-0.037353516,-0.9612427,0.101989746,-2.75,1.09375,-0.828125
1695313298204,-0.0073242188,-0.98150635,0.10003662,-0.453125,-0.9375,-1.140625
1695313298244,-0.021972656,-0.98223877,0.10614014,-0.875,-2.0625,-1.546875
1695313298284,-0.02319336,-0.96173096,0.10687256,0.265625,-1.90625,0.421875
1695313298324,-0.0390625,-0.9768677,0.08319092,1.078125,-0.859375,0.875
1695313298364,-0.02319336,-0.99468994,0.109802246,1.53125,-2.640625,0.640625
1695313298404,-0.025390625,-0.972229,0.098083496,-0.203125,-0.34375,1.140625
1695313298444,-0.013427734,-0.99346924,0.11199951,-0.1875,1.125,0.390625
1695313298484,-0.02758789,-0.9788208,0.11224365,0.5625,0.96875,1.0625
1695313298524,-0.025878906,-0.9678345,0.09637451,0.65625,0.953125,0.984375
1695313298564,-0.028808594,-0.9812622,0.08758545,1.765625,1.828125,0.265625
1695313298604,-0.016357422,-0.98272705,0.09637451,1.59375,0.75,0.828125
1695313298644,-0.021240234,-0.98931885,0.082458496,1.34375,-0.03125,0.109375
1695313298684,-0.014160156,-0.9854126,0.07611084,2.265625,2.484375,1.296875
1695313298724,-0.025878906,-0.9849243,0.09637451,1.0,-0.03125,0.796875
1695313298764,-0.021728516,-0.97003174,0.085632324,0.6875,-0.65625,0.140625
1695313298804,-0.029052734,-0.98931885,0.08026123,-1.890625,1.609375,-0.203125
1695313298844,-0.015380859,-0.96051025,0.07196045,-2.234375,3.375,0.265625
1695313298884,-0.017089844,-0.97491455,0.07879639,1.4375,0.625,0.234375
1695313298924,-0.01586914,-0.99835205,0.08807373,-0.265625,-0.71875,-0.578125
1695313298964,-0.026611328,-0.98883057,0.06854248,2.203125,1.890625,0.640625
1695313299004,0.0041503906,-0.9627075,0.07757568,1.03125,1.625,0.25
1695313299044,0.001953125,-0.9963989,0.08294678,-2.109375,-0.625,-0.828125
1695313299084,-0.01977539,-0.9841919,0.09124756,-3.359375,-2.0,-1.1875
1695313299124,-0.016113281,-0.97198486,0.08514404,-2.984375,-1.578125,-0.75
1695313299164,-0.0234375,-1.0012817,0.11444092,-0.625,-4.546875,-0.578125
1695313299204,-0.020751953,-0.9890747,0.117614746,-0.84375,-3.90625,-1.21875
1695313299244,-0.037353516,-0.96588135,0.10369873,-0.328125,-3.515625,-0.265625
1695313299284,-0.040771484,-0.9885864,0.12347412,-0.53125,-4.078125,-0.953125
1695313299324,-0.029052734,-0.975647,0.10076904,-1.765625,-1.6875,-0.53125
1695313299364,-0.01586914,-0.96588135,0.10614014,-0.625,-2.90625,-0.71875
1695313299404,-0.03466797,-0.975647,0.101989746,0.5,-2.28125,-0.1875
1695313299444,-0.040039062,-0.96343994,0.09222412,1.1875,-0.40625,0.390625
1695313299484,-0.030761719,-0.9714966,0.0770874,0.9375,0.0625,0.390625
1695313299524,-0.034179688,-0.989563,0.11956787,0.90625,1.03125,0.09375
1695313299564,-0.03125,-0.9924927,0.11053467,1.171875,0.578125,-0.1875
1695313299604,-0.03491211,-0.98931885,0.11541748,1.046875,0.015625,0.703125
1695313299644,-0.029296875,-0.9758911,0.10321045,1.875,-0.578125,0.15625
1695313299684,-0.040527344,-0.9866333,0.109069824,1.296875,-0.328125,0.875
1695313299724,-0.033203125,-0.9837036,0.08856201,0.984375,-0.234375,0.75
1695313299764,-0.023925781,-0.97198486,0.10443115,-0.375,1.84375,0.125
1695313299804,-0.031982422,-0.98687744,0.10003662,-0.3125,3.390625,0.328125
1695313299844,-0.025146484,-0.98760986,0.08856201,-0.8125,-0.78125,-0.09375
1695313299884,-0.013427734,-0.96832275,0.101745605,-0.734375,0.21875,-0.703125
1695313299924,-0.033203125,-0.9898071,0.08905029,-0.78125,-1.1875,0.078125
1695313299964,-0.02319336,-0.9710083,0.10028076,-0.171875,-0.09375,0.140625
1695313300004,-0.022949219,-0.99664307,0.09637451,-0.15625,0.15625,0.265625
1695313300044,-0.028320312,-0.986145,0.101501465,-0.734375,0.375,-0.203125
1695313300084,-0.02709961,-0.97125244,0.08294678,-0.953125,2.3125,-0.546875
1695313300124,-0.014160156,-0.97662354,0.09881592,-1.015625,3.375,-0.65625
1695313300164,-0.033691406,-0.9981079,0.12591553,-1.984375,-1.890625,-0.921875
1695313300204,-0.040283203,-0.98687744,0.124938965,0.28125,-3.015625,-0.953125
1695313300244,-0.033447266,-0.97320557,0.097351074,0.9375,-2.796875,-1.015625
1695313300284,-0.029541016,-0.9817505,0.093688965,0.59375,-1.453125,-0.6875
1695313300324,-0.032958984,-0.99102783,0.093444824,-0.984375,-2.296875,-0.546875
1695313300364,-0.04272461,-0.9873657,0.081970215,-0.484375,-1.59375,-1.09375
1695313300404,-0.039794922,-0.98150635,0.1005249,-0.296875,-2.53125,-1.109375
1695313300444,-0.045166016,-0.97906494,0.11663818,-2.109375,-2.8125,-0.90625
1695313300484,-0.04736328,-0.98028564,0.12615967,-3.375,-2.484375,-1.359375
1695313300524,-0.05078125,-0.96710205,0.1251831,-2.140625,-2.640625,-0.5625
1695313300564,-0.05834961,-0.9771118,0.117126465,-0.625,-4.0,-0.3125
1695313300604,-0.04321289,-0.96588135,0.11004639,0.609375,-3.453125,-0.21875
1695313300644,-0.05078125,-0.9729614,0.113708496,0.546875,-2.625,-0.078125
1695313300684,-0.05029297,-0.9915161,0.12567139,2.078125,-3.28125,0.328125
1695313300724,-0.05029297,-0.98321533,0.13006592,1.75,-3.390625,-0.25
1695313300764,-0.036865234,-0.987854,0.11883545,0.671875,-2.078125,-0.28125
1695313300804,-0.052734375,-0.9866333,0.12225342,1.59375,-2.0625,-0.015625
1695313300844,-0.059570312,-0.9829712,0.10614014,-0.1875,-0.6875,-0.125
1695313300884,-0.04736328,-0.9837036,0.12225342,0.671875,0.515625,-0.15625
1695313300924,-0.061279297,-0.973938,0.10028076,-0.015625,1.515625,0.171875
1695313300964,-0.044921875,-0.9871216,0.12371826,0.8125,0.71875,-0.203125
1695313301004,-0.056884766,-0.9837036,0.12030029,-0.21875,-0.5625,-0.375
1695313301044,-0.05493164,-0.9795532,0.11248779,-0.46875,-0.140625,-0.40625
1695313301084,-0.051513672,-0.97491455,0.112976074,-0.28125,0.265625,0.203125
1695313301124,-0.047851562,-0.98687744,0.12005615,-0.234375,-0.734375,-0.109375
1695313301164,-0.05126953,-0.9697876,0.10809326,-0.5,-0.3125,0.1875
1695313301204,-0.048583984,-0.98394775,0.11541748,-0.5625,-0.328125,0.125
1695313301244,-0.044921875,-0.97662354,0.12054443,-0.203125,-0.34375,0.015625
1695313301284,-0.05029297,-0.9800415,0.105895996,0.09375,0.046875,0.109375
1695313301324,-0.04663086,-0.9710083,0.11248779,-0.15625,0.90625,0.28125
1695313301364,-0.049804688,-0.9807739,0.109069824,0.203125,1.578125,0.359375
1695313301404,-0.041259766,-0.96710205,0.09857178,0.15625,2.71875,0.28125
1695313301444,-0.052001953,-0.99542236,0.12030029,0.421875,-0.28125,-0.09375
1695313301484,-0.052734375,-0.9741821,0.1161499,0.390625,-0.46875,-0.109375
1695313301524,-0.045410156,-0.98760986,0.10076904,-0.515625,-0.046875,-0.140625
1695313301564,-0.04248047,-0.9780884,0.08929443,-0.03125,1.71875,0.0625
1695313301604,-0.05029297,-0.99224854,0.11517334,0.875,0.515625,-0.390625
1695313301644,-0.03930664,-0.9824829,0.09710693,-0.171875,-0.1875,-0.28125
1695313301684,-0.045166016,-0.9746704,0.10247803,-0.734375,-0.328125,-0.5
1695313301724,-0.045410156,-0.97662354,0.097351074,-0.859375,-0.84375,-0.890625
1695313301764,-0.04272461,-0.9846802,0.109313965,-1.1875,0.8125,-0.3125
1695313301804,-0.053710938,-0.9834595,0.105407715,0.25,0.28125,-0.40625
1695313301844,-0.05517578,-0.987854,0.11663818,-0.015625,-1.21875,-0.1875
1695313301884,-0.04248047,-0.98516846,0.11077881,-0.59375,-1.078125,-0.75
1695313301924,-0.052246094,-0.9854126,0.09442139,-0.546875,0.03125,-0.21875
1695313301964,-0.044921875,-0.9788208,0.10321045,-0.421875,0.078125,0.015625
1695313302004,-0.048339844,-0.9829712,0.10028076,0.203125,0.296875,-0.09375
1695313302044,-0.052001953,-0.97613525,0.11077881,-0.4375,-0.078125,0.328125
1695313302084,-0.05517578,-0.9949341,0.10369873,-0.25,-0.6875,-0.625
1695313302124,-0.040039062,-0.9697876,0.10882568,-0.828125,1.0,-0.21875
1695313302164,-0.053710938,-0.9915161,0.1071167,-0.875,-0.796875,-0.375
1695313302204,-0.04248047,-0.97662354,0.09295654,-1.59375,1.296875,-0.625
1695313302244,-0.053955078,-0.9973755,0.11444092,-1.328125,1.75,-0.625
1695313302284,-0.053466797,-1.0025024,0.13934326,-2.40625,0.453125,-0.796875
1695313302324,-0.05493164,-0.9793091,0.12420654,-2.484375,-1.25,-0.328125
1695313302364,-0.0625,-0.98565674,0.10784912,-1.0625,-3.1875,-0.8125
1695313302404,-0.05029297,-0.9812622,0.11395264,-0.71875,-1.984375,-0.5
1695313302444,-0.056640625,-0.98223877,0.11785889,-0.234375,-3.109375,-0.71875
1695313302484,-0.056152344,-0.973938,0.11053467,-0.125,-2.4375,0.078125
1695313302524,-0.063964844,-0.9673462,0.10736084,0.5,-2.609375,-0.28125
1695313302564,-0.0546875,-0.97247314,0.101989746,-0.296875,-1.109375,0.09375
1695313302604,-0.05078125,-0.97735596,0.09637451,-0.03125,-1.5,0.171875
1695313302644,-0.056396484,-0.9710083,0.117370605,0.03125,-2.71875,-0.34375
1695313302684,-0.06225586,-0.9944458,0.13006592,-0.1875,-3.5,0.078125
1695313302724,-0.049072266,-0.97906494,0.11517334,-0.015625,-0.78125,-0.25
1695313302764,-0.055908203,-0.9780884,0.12322998,0.203125,-0.078125,-0.4375
1695313302804,-0.06665039,-0.9780884,0.09954834,0.0625,-0.109375,-0.125
1695313302844,-0.05908203,-0.97491455,0.11468506,0.953125,0.71875,0.0625
1695313302884,-0.05834961,-0.9915161,0.11981201,0.34375,0.15625,0.09375
1695313302924,-0.057373047,-0.97076416,0.09197998,-0.171875,0.953125,0.296875
1695313302964,-0.053710938,-0.9824829,0.10614014,-0.171875,0.609375,-0.03125
1695313303004,-0.06298828,-1.0025024,0.11859131,0.171875,-0.921875,-0.21875
1695313303044,-0.05883789,-0.9714966,0.097839355,-1.0,0.34375,-0.28125
1695313303084,-0.06298828,-0.9741821,0.10418701,-0.484375,0.515625,0.046875
1695313303124,-0.056884766,-0.99884033,0.1149292,-0.25,-0.34375,-0.375
1695313303164,-0.059814453,-0.97979736,0.10662842,-0.078125,-0.453125,-0.21875
1695313303204,-0.055419922,-0.9788208,0.10809326,0.171875,-0.3125,0.25
1695313303244,-0.055664062,-0.9780884,0.10467529,-0.140625,-0.265625,0.140625
1695313303284,-0.064208984,-0.9837036,0.105407715,-0.125,-0.265625,0.015625
1695313303324,-0.0546875,-0.9859009,0.11395264,-0.234375,-0.265625,-0.25
1695313303364,-0.06225586,-0.97198486,0.105407715,-0.78125,0.578125,-0.171875
1695313303404,-0.061523438,-0.9846802,0.11151123,-0.28125,-0.734375,-0.0625
1695313303444,-0.05053711,-0.9793091,0.11224365,-0.390625,0.75,0.171875
1695313303484,-0.05883789,-0.99176025,0.109802246,-0.84375,-0.390625,-0.390625
1695313303524,-0.060302734,-0.9741821,0.089782715,-1.40625,1.515625,-0.265625
1695313303564,-0.05908203,-0.9859009,0.11102295,-0.140625,0.875,-0.109375
1695313303604,-0.056396484,-0.97735596,0.101745605,-0.6875,0.5625,0.359375
1695313303644,-0.052246094,-0.97369385,0.08929443,-1.796875,3.1875,0.265625
1695313303684,-0.045654297,-0.97613525,0.11053467,-1.0,2.046875,-0.046875
1695313303724,-0.05908203,-0.9834595,0.12176514,-0.953125,0.953125,0.140625
1695313303764,-0.055664062,-0.98272705,0.117614746,-0.1875,1.0625,-0.34375
1695313303804,-0.060302734,-0.9800415,0.12249756,-0.671875,0.640625,-0.171875
1695313303844,-0.0546875,-0.9807739,0.11517334,-0.265625,-0.03125,-0.1875
1695313303884,-0.053222656,-0.97906494,0.11834717,-0.328125,-0.71875,-0.140625
1695313303924,-0.05517578,-0.98565674,0.11810303,-0.375,-1.0,-0.265625
1695313303964,-0.0625,-0.97906494,0.10882568,-0.296875,-0.890625,-0.75
1695313304004,-0.05883789,-0.98638916,0.109069824,-0.359375,-1.078125,-0.578125
1695313304044,-0.06274414,-0.9783325,0.113464355,-0.5,-0.796875,-0.390625
1695313304084,-0.0625,-0.97979736,0.109313965,-0.0625,-1.609375,-0.28125
1695313304124,-0.056640625,-0.97979736,0.10101318,-1.96875,0.40625,-0.515625
1695313304164,-0.061279297,-0.99176025,0.12713623,-0.28125,-2.046875,-0.5
1695313304204,-0.059326172,-0.9758911,0.10003662,-2.03125,0.09375,0.0625
1695313304244,-0.059326172,-0.97906494,0.109313965,-0.8125,0.4375,-0.703125
1695313304284,-0.061035156,-0.99176025,0.13397217,-0.6875,-1.0625,-0.59375
1695313304324,-0.06347656,-0.9734497,0.121520996,-2.171875,-0.1875,-0.453125
1695313304364,-0.06713867,-0.9710083,0.13006592,-1.609375,-1.15625,-0.46875
1695313304404,-0.06616211,-0.991272,0.12542725,-2.34375,-1.0625,-0.625
1695313304444,-0.068847656,-0.9829712,0.12982178,-3.03125,-0.796875,-0.921875
1695313304484,-0.06542969,-0.972229,0.12445068,-2.28125,-0.640625,-0.15625
1695313304524,-0.057617188,-0.9849243,0.13787842,-1.984375,-0.90625,0.078125
1695313304564,-0.07104492,-0.98101807,0.13861084,-1.9375,-2.125,-0.5
1695313304604,-0.06298828,-0.9717407,0.13323975,-3.171875,-1.59375,-0.34375
1695313304644,-0.072753906,-0.97784424,0.14178467,-3.359375,-2.0625,-0.859375
1695313304684,-0.07080078,-0.97320557,0.13494873,-2.875,-1.703125,-0.3125
1695313304724,-0.060791016,-0.97369385,0.13739014,-1.25,-2.015625,-0.71875
1695313304764,-0.072265625,-0.9727173,0.12664795,-0.421875,-2.5,-0.140625
1695313304804,-0.06665039,-0.96954346,0.13543701,0.4375,-1.640625,-0.421875
1695313304844,-0.06567383,-0.958313,0.13397217,0.984375,-1.3125,0.0625
1695313304884,-0.06762695,-0.9668579,0.1383667,2.296875,-0.375,0.390625
1695313304924,-0.068359375,-0.97857666,0.14276123,2.671875,-2.234375,0.234375
1695313304964,-0.071777344,-0.9859009,0.13201904,1.71875,-0.734375,-0.078125
1695313305004,-0.06762695,-0.98028564,0.13079834,0.859375,-1.125,0.09375
1695313305044,-0.068847656,-0.9685669,0.11663818,0.25,0.046875,0.4375
1695313305084,-0.06201172,-0.99420166,0.12615967,0.453125,0.53125,-0.125
1695313305124,-0.07080078,-0.97320557,0.13665771,0.46875,-0.734375,0.515625
1695313305164,-0.07348633,-0.9924927,0.12664795,-0.078125,-1.03125,-0.09375
1695313305204,-0.075927734,-0.9763794,0.113464355,0.09375,-0.703125,0.125
1695313305244,-0.06274414,-0.98150635,0.12542725,-0.140625,-0.65625,0.03125
1695313305284,-0.0703125,-0.97906494,0.11785889,0.578125,-0.265625,0.03125
1695313305324,-0.071777344,-0.9795532,0.12322998,0.203125,-0.546875,0.03125
1695313305364,-0.06323242,-0.98443604,0.1227417,-0.1875,-0.140625,-0.234375
1695313305404,-0.07519531,-0.98321533,0.10369873,-0.28125,-0.578125,0.0
1695313305444,-0.0637207,-0.9763794,0.12298584,0.09375,0.1875,0.21875
1695313305484,-0.06713867,-0.98272705,0.11029053,-0.375,-1.265625,-0.234375
1695313305524,-0.053466797,-0.9673462,0.097839355,-1.125,1.046875,0.203125
1695313305564,-0.068359375,-0.9915161,0.13031006,0.9375,0.21875,-0.171875
1695313305604,-0.078125,-0.9795532,0.117370605,-0.09375,0.0625,-0.0625
1695313305644,-0.061523438,-0.98028564,0.11199951,-0.796875,1.203125,-0.390625
1695313305684,-0.064941406,-0.987854,0.1317749,0.109375,-0.65625,0.25
1695313305724,-0.06982422,-0.9717407,0.11541748,-0.515625,-1.03125,-0.140625
1695313305764,-0.067871094,-0.9866333,0.10809326,0.0,-0.109375,-0.015625
1695313305804,-0.06665039,-0.9834595,0.11932373,-0.21875,0.03125,-0.0625
1695313305844,-0.067871094,-0.98516846,0.11810303,0.046875,-0.578125,-0.296875
1695313305884,-0.0703125,-0.9710083,0.11444092,-0.453125,-0.28125,0.109375
1695313305924,-0.0703125,-0.97906494,0.11834717,-0.1875,0.0,0.03125
1695313305964,-0.06591797,-0.9776001,0.105651855,-0.671875,0.265625,0.484375
1695313306004,-0.055908203,-0.9768677,0.09954834,-0.640625,2.515625,0.0625
1695313306044,-0.060058594,-0.9829712,0.116882324,0.5625,1.578125,0.4375
1695313306084,-0.064941406,-0.9768677,0.10101318,-1.375,2.640625,-0.078125
1695313306124,-0.052978516,-0.9902954,0.13250732,0.078125,1.0,0.09375
1695313306164,-0.06665039,-0.9834595,0.1161499,-1.203125,2.609375,0.09375
1695313306204,-0.05810547,-0.9702759,0.1161499,-0.984375,3.015625,-0.390625
1695313306244,-0.061523438,-0.9944458,0.1395874,-0.578125,0.515625,-0.359375
1695313306284,-0.06201172,-0.9849243,0.14105225,-1.046875,-0.125,0.03125
1695313306324,-0.068847656,-0.9873657,0.13153076,-2.5,-1.0625,-0.390625
1695313306364,-0.06933594,-0.97857666,0.12445068,-2.984375,-1.03125,-0.484375
1695313306404,-0.060791016,-0.9680786,0.12689209,-2.828125,-1.09375,-1.328125
1695313306444,-0.068359375,-0.98150635,0.13665771,-2.796875,-2.6875,-1.40625
1695313306484,-0.061767578,-0.9771118,0.13372803,-2.453125,-1.90625,-1.109375
1695313306524,-0.071777344,-0.97906494,0.14984131,-2.828125,-1.984375,-0.640625
1695313306564,-0.07299805,-0.98516846,0.13812256,-3.21875,-2.234375,-0.8125
1695313306604,-0.071777344,-0.96954346,0.13812256,-1.875,-2.40625,-0.578125
1695313306644,-0.07885742,-0.9697876,0.12713623,0.09375,-3.0625,-0.421875
1695313306684,-0.07788086,-0.95977783,0.13079834,0.53125,-3.75,-0.796875
1695313306724,-0.07788086,-0.96221924,0.12835693,1.34375,-2.9375,0.015625
1695313306764,-0.076660156,-0.97003174,0.12738037,2.125,-0.953125,-0.265625
1695313306804,-0.08300781,-0.9819946,0.13909912,1.640625,-1.4375,-0.546875
1695313306844,-0.06762695,-0.9746704,0.12860107,1.328125,0.25,0.078125
1695313306884,-0.079589844,-0.9800415,0.1317749,0.921875,-0.6875,0.25
1695313306924,-0.08520508,-0.9944458,0.1227417,0.125,-0.609375,0.140625
1695313306964,-0.07739258,-0.9837036,0.12225342,0.34375,-0.46875,0.0625
1695313307004,-0.072753906,-0.9795532,0.117614746,0.09375,0.0,0.4375
1695313307044,-0.07421875,-0.9800415,0.11566162,0.578125,0.09375,0.296875
1695313307084,-0.072265625,-0.97735596,0.11834717,1.0,-0.8125,0.046875
1695313307124,-0.08203125,-0.98223877,0.12542725,0.71875,-0.5625,-0.03125
1695313307164,-0.07299805,-0.97784424,0.109313965,-0.078125,-1.0625,0.25
1695313307204,-0.07910156,-0.9783325,0.12347412,-0.265625,-0.59375,-0.078125
1695313307244,-0.071777344,-0.97979736,0.113708496,-0.4375,-0.625,0.140625
1695313307284,-0.07299805,-0.9783325,0.113464355,0.3125,0.453125,0.375
1695313307324,-0.07739258,-1.0003052,0.09979248,-0.28125,-0.46875,0.3125
1695313307364,-0.07080078,-0.9697876,0.1083374,-0.671875,0.90625,1.0625
1695313307404,-0.072753906,-0.987854,0.11663818,-0.125,-1.671875,0.78125
1695313307444,-0.05078125,-0.9697876,0.11175537,0.546875,2.40625,1.21875
1695313307484,-0.049560547,-0.9932251,0.124694824,-0.296875,2.34375,-0.234375
1695313307524,-0.05444336,-0.9849243,0.11834717,-2.28125,2.125,-0.25
1695313307564,-0.05517578,-0.9956665,0.1359253,-2.515625,0.78125,-0.3125
1695313307604,-0.076171875,-0.9692993,0.12591553,-2.6875,-2.546875,-0.21875
1695313307644,-0.079833984,-0.9746704,0.14642334,-1.625,-2.28125,-0.484375
1695313307684,-0.068115234,-0.97979736,0.15179443,-2.171875,-1.484375,-0.109375
1695313307724,-0.072509766,-0.9612427,0.1395874,-0.21875,-1.671875,-0.109375
1695313307764,-0.07104492,-0.96295166,0.15130615,0.375,-1.703125,0.171875
1695313307804,-0.072753906,-0.9915161,0.14154053,-1.703125,1.625,1.390625
1695313307844,-0.06518555,-0.9819946,0.14691162,-1.90625,0.984375,0.0625
1695313307884,-0.06591797,-0.98760986,0.14886475,-2.078125,-0.90625,0.796875
1695313307924,-0.061035156,-0.98565674,0.15057373,-2.109375,-1.3125,-0.046875
1695313307964,-0.060302734,-0.97540283,0.15570068,-2.109375,-2.203125,-0.34375
1695313308004,-0.072021484,-0.98150635,0.16033936,-1.484375,-2.390625,0.140625
1695313308044,-0.068115234,-0.96881104,0.14398193,-2.109375,-1.515625,-0.203125
1695313308084,-0.06591797,-0.97857666,0.15252686,-3.328125,-1.40625,-0.75
1695313308124,-0.06689453,-0.97076416,0.16204834,-0.3125,-0.6875,-0.125
1695313308164,-0.0793457,-0.9834595,0.16204834,0.234375,-1.21875,0.0625
1695313308204,-0.0769043,-0.98223877,0.14910889,0.8125,-0.78125,0.09375
1695313308244,-0.07910156,-0.9697876,0.15179443,-0.203125,-0.421875,0.109375
1695313308284,-0.072265625,-0.96832275,0.15374756,0.28125,-1.015625,-0.015625
1695313308324,-0.0793457,-0.97076416,0.15887451,-0.28125,-1.1875,-0.15625
1695313308364,-0.07788086,-0.97979736,0.16009521,-0.40625,-0.875,-0.375
1695313308404,-0.07080078,-0.97857666,0.15179443,0.375,-1.390625,-0.375
1695313308444,-0.08691406,-0.97052,0.14837646,0.34375,-1.84375,-0.390625
1695313308484,-0.075927734,-0.96954346,0.15301514,0.46875,-2.09375,-0.140625
1695313308524,-0.08129883,-0.9690552,0.14569092,1.625,-1.9375,-0.1875
1695313308564,-0.087890625,-0.9741821,0.15838623,1.296875,-2.890625,0.03125
1695313308604,-0.08642578,-0.9788208,0.13446045,0.609375,-1.96875,-0.125
1695313308644,-0.057128906,-0.95806885,0.13323975,-0.296875,2.34375,-0.203125
1695313308684,-0.08129883,-0.9939575,0.16131592,0.5,0.203125,0.140625
1695313308724,-0.080322266,-0.98150635,0.1564331,-0.625,1.046875,-0.25
1695313308764,-0.08569336,-0.97076416,0.14276123,-0.328125,1.28125,-0.21875
1695313308804,-0.075927734,-0.9807739,0.15374756,0.203125,0.5625,-0.0625
1695313308844,-0.087402344,-0.9663696,0.14007568,0.40625,0.5,0.0
1695313308884,-0.07714844,-0.9631958,0.14886475,0.578125,-0.265625,0.046875
1695313308924,-0.08154297,-0.97906494,0.1395874,0.546875,-1.203125,0.078125
1695313308964,-0.08935547,-0.9714966,0.1437378,1.59375,-2.625,-0.203125
1695313309004,-0.07421875,-0.9727173,0.1359253,-0.609375,-0.65625,0.21875
1695313309044,-0.07714844,-0.972229,0.13861084,0.328125,0.546875,0.296875
1695313309084,-0.09863281,-0.98687744,0.14520264,0.484375,1.703125,1.203125
1695313309124,-0.07446289,-0.9783325,0.14007568,0.859375,2.65625,1.0
1695313309164,-0.07373047,-0.95758057,0.109558105,0.109375,3.34375,1.25
1695313309204,-0.08984375,-0.9788208,0.13031006,0.4375,0.34375,0.265625
1695313309244,-0.064208984,-0.97906494,0.11517334,-1.09375,1.625,-0.265625
1695313309284,-0.07128906,-0.97857666,0.13397217,-0.234375,2.015625,-0.265625
1695313309324,-0.084228516,-0.97491455,0.13226318,0.421875,0.625,0.1875
1695313309364,-0.07006836,-0.96539307,0.1359253,-0.03125,-0.203125,0.015625
1695313309404,-0.07324219,-0.97320557,0.1227417,-0.046875,0.125,0.28125
1695313309444,-0.08129883,-0.9854126,0.13275146,0.28125,-1.234375,0.09375
1695313309484,-0.06542969,-0.96417236,0.12884521,-0.046875,-0.546875,0.359375
1695313309524,-0.07543945,-0.9800415,0.116882324,0.90625,-0.65625,0.59375
1695313309564,-0.07421875,-0.9819946,0.13348389,0.96875,-1.140625,0.09375
1695313309604,-0.0690918,-0.9776001,0.12689209,1.8125,-0.9375,0.078125
1695313309644,-0.06738281,-0.98321533,0.11859131,2.0625,0.0625,0.484375
1695313309684,-0.07495117,-0.9824829,0.11566162,1.453125,0.515625,0.421875
1695313309724,-0.06689453,-0.9771118,0.11175537,0.5625,0.3125,0.21875
1695313309764,-0.07470703,-0.9973755,0.10321045,0.21875,-0.34375,0.09375
1695313309804,-0.06958008,-0.9763794,0.10882568,-0.4375,0.53125,-0.25
1695313309844,-0.07373047,-0.99224854,0.11541748,-0.140625,-1.40625,0.015625
1695313309884,-0.068359375,-0.9649048,0.097839355,-0.75,0.3125,0.1875
1695313309924,-0.068603516,-0.97125244,0.11053467,-0.046875,1.609375,0.9375
1695313309964,-0.0637207,-0.9898071,0.101745605,-0.875,2.796875,0.734375
1695313310004,-0.061523438,-0.9800415,0.105651855,-1.984375,2.609375,0.09375
1695313310044,-0.06640625,-0.9883423,0.1251831,-3.15625,1.109375,-0.453125
1695313310084,-0.0637207,-0.9841919,0.12445068,-3.328125,0.75,-0.40625
1695313310124,-0.06933594,-0.98760986,0.14324951,-2.796875,-0.046875,-0.40625
1695313310164,-0.076416016,-0.9834595,0.1473999,-2.203125,-0.828125,-0.3125
1695313310204,-0.07348633,-0.96832275,0.116882324,-1.765625,-1.296875,-0.59375
1695313310244,-0.06591797,-0.9734497,0.13006592,-1.484375,-1.46875,-0.21875
1695313310284,-0.07714844,-0.9780884,0.12713623,-1.265625,-1.703125,-0.359375
1695313310324,-0.0703125,-0.975647,0.11663818,-0.59375,-1.75,-0.4375
1695313310364,-0.06762695,-0.9710083,0.11175537,-0.203125,-1.84375,0.046875
1695313310404,-0.068359375,-0.97784424,0.109313965,-0.015625,-1.984375,-0.25
1695313310444,-0.05419922,-0.9639282,0.12225342,0.375,-2.5625,-0.96875
1695313310484,-0.067871094,-0.9866333,0.1329956,0.28125,-1.59375,-1.03125
1695313310524,-0.07080078,-0.98272705,0.12420654,1.546875,-0.1875,0.296875
1695313310564,-0.0690918,-0.9807739,0.13104248,-0.046875,-0.15625,-0.1875
1695313310604,-0.07324219,-0.9805298,0.12005615,0.5,-0.046875,-0.53125
1695313310644,-0.088134766,-0.9751587,0.1161499,0.890625,-0.75,0.234375
1695313310684,-0.07739258,-0.9727173,0.09881592,0.125,-0.3125,-0.109375
1695313310724,-0.07421875,-0.986145,0.11859131,0.65625,-0.109375,-0.375
1695313310764,-0.072265625,-0.9812622,0.12615967,0.671875,0.21875,0.15625
1695313310804,-0.06933594,-0.9768677,0.11517334,0.125,-0.25,0.390625
1695313310844,-0.07299805,-0.97906494,0.109802246,-0.265625,-0.171875,0.234375
1695313310884,-0.076416016,-0.9805298,0.11810303,-0.03125,0.265625,0.359375
1695313310924,-0.07373047,-0.97491455,0.10760498,0.0625,-0.21875,0.421875
1695313310964,-0.06933594,-0.9805298,0.11834717,0.296875,-0.625,0.484375
1695313311004,-0.07519531,-0.9859009,0.10614014,-0.21875,-1.40625,-0.0625
1695313311044,-0.06665039,-0.98809814,0.11541748,-0.8125,-0.515625,0.296875
1695313311084,-0.07348633,-0.9729614,0.093933105,-0.359375,1.765625,0.015625
1695313311124,-0.04736328,-0.97540283,0.11053467,0.0,2.875,0.296875
1695313311164,-0.08251953,-0.9998169,0.12445068,1.015625,0.109375,0.078125
1695313311204,-0.06640625,-0.9702759,0.11639404,-0.25,-1.5,-0.6875
1695313311244,-0.07348633,-0.97784424,0.10394287,0.375,0.0625,0.234375
1695313311284,-0.06738281,-0.97540283,0.11883545,0.40625,-1.8125,0.03125
1695313311324,-0.07519531,-0.97662354,0.10858154,0.375,-1.578125,-0.46875
1695313311364,-0.06933594,-0.97540283,0.10760498,-0.46875,-0.546875,-0.296875
1695313311404,-0.064941406,-0.9902954,0.117126465,-0.71875,-0.453125,-0.65625
1695313311444,-0.072753906,-0.9871216,0.117614746,-0.734375,0.046875,-0.40625
1695313311484,-0.071777344,-0.98223877,0.11468506,-0.375,-0.015625,-0.46875
1695313311524,-0.08227539,-0.9885864,0.121032715,-0.59375,-0.25,-0.03125
1695313311564,-0.075927734,-0.97198486,0.11029053,-0.890625,1.109375,-0.765625
1695313311604,-0.060302734,-0.97125244,0.11224365,0.484375,0.265625,-0.21875
1695313311644,-0.07470703,-0.97784424,0.116882324,0.25,-0.015625,-0.296875
1695313311684,-0.06640625,-0.97662354,0.09710693,-0.578125,-0.171875,-1.0
1695313311724,-0.06982422,-0.98565674,0.12176514,0.671875,-0.46875,-0.234375
1695313311764,-0.084228516,-0.9741821,0.105407715,-0.609375,0.265625,-0.5
1695313311804,-0.07055664,-0.9771118,0.10614014,-0.515625,1.640625,0.03125
1695313311844,-0.078125,-0.9883423,0.12371826,0.15625,-0.5,-0.328125
1695313311884,-0.07861328,-0.9763794,0.11077881,-0.796875,0.03125,-0.28125
1695313311924,-0.07836914,-0.97491455,0.117370605,-0.5,-0.125,-0.09375
1695313311964,-0.07543945,-0.98394775,0.11566162,-0.75,-0.640625,-0.046875
1695313312004,-0.068603516,-0.96954346,0.10247803,-1.5625,1.875,0.375
1695313312044,-0.07519531,-0.9885864,0.120788574,-0.6875,1.84375,0.390625
1695313312084,-0.07788086,-0.9710083,0.12347412,-0.1875,0.625,0.25
1695313312124,-0.079589844,-0.9824829,0.11956787,-0.046875,0.515625,0.34375
1695313312164,-0.07714844,-0.9763794,0.117126465,-0.484375,0.859375,0.21875
1695313312204,-0.06567383,-0.9751587,0.11395264,-0.046875,0.53125,0.328125
1695313312244,-0.075927734,-0.98516846,0.113464355,0.3125,-0.140625,-0.140625
1695313312284,-0.06738281,-0.9741821,0.11053467,-0.171875,-0.171875,-0.28125
1695313312324,-0.07739258,-0.9859009,0.11468506,-0.859375,-0.84375,-0.171875
1695313312364,-0.063964844,-0.9639282,0.11956787,-0.828125,0.265625,0.015625
1695313312404,-0.07104492,-0.98687744,0.11248779,-0.65625,-1.203125,-0.0625
1695313312444,-0.06567383,-0.9595337,0.09979248,-0.703125,0.96875,0.046875
1695313312484,-0.071777344,-0.98223877,0.120788574,0.53125,0.5625,-0.265625
1695313312524,-0.07128906,-0.986145,0.12347412,-0.34375,-0.375,-0.421875
1695313312564,-0.072021484,-0.9751587,0.10687256,-0.65625,-0.375,-0.21875
1695313312604,-0.072021484,-0.98272705,0.11395264,-0.328125,-1.515625,-0.140625
1695313312644,-0.0715332,-0.98321533,0.11077881,-0.578125,-1.015625,-0.1875
1695313312684,-0.06958008,-0.97979736,0.11077881,-0.53125,-0.109375,0.0625
1695313312724,-0.06933594,-0.9817505,0.11541748,-0.25,-0.5625,-0.03125
1695313312764,-0.07373047,-0.98101807,0.11419678,-0.125,-0.6875,-0.09375
1695313312804,-0.0715332,-0.9758911,0.112976074,-0.140625,-0.46875,-0.15625
1695313312844,-0.072265625,-0.98516846,0.109313965,-0.09375,-0.46875,-0.125
1695313312884,-0.072753906,-0.97906494,0.116882324,-0.1875,-0.484375,-0.25
1695313312924,-0.07763672,-0.9849243,0.10858154,-0.265625,-0.578125,0.125
1695313312964,-0.07397461,-0.972229,0.11126709,0.125,-1.078125,0.015625
1695313313004,-0.06323242,-0.9763794,0.09490967,-0.6875,0.125,-0.53125
1695313313044,-0.06933594,-0.99298096,0.12420654,-0.28125,-1.140625,-0.28125
1695313313084,-0.08129883,-0.9685669,0.10760498,-0.859375,0.75,0.03125
1695313313124,-0.08496094,-0.98101807,0.11273193,-0.21875,0.625,-0.171875
1695313313164,-0.06762695,-0.9819946,0.11932373,-0.28125,-0.125,-0.15625
1695313313204,-0.06982422,-0.9800415,0.1161499,-0.4375,-0.3125,-0.125
1695313313244,-0.07739258,-0.97662354,0.11224365,-0.390625,-0.484375,-0.25
1695313313284,-0.08081055,-0.9829712,0.11834717,-0.5625,-0.96875,-0.296875
1695313313324,-0.07885742,-0.9780884,0.11541748,-0.953125,-0.546875,-0.234375
1695313313364,-0.072509766,-0.97613525,0.121032715,-0.546875,-0.828125,-0.4375
1695313313404,-0.07739258,-0.98321533,0.117370605,-0.484375,-1.328125,-0.203125
1695313313444,-0.07788086,-0.9807739,0.11419678,-0.6875,-1.296875,-0.5625
1695313313484,-0.080566406,-0.97784424,0.11834717,-0.90625,-1.140625,-0.3125
1695313313524,-0.07885742,-0.98028564,0.11273193,-0.921875,-1.140625,-0.4375
1695313313564,-0.08227539,-0.98223877,0.121032715,-1.1875,-1.140625,-0.265625
1695313313604,-0.08544922,-0.9824829,0.1251831,-1.40625,-1.046875,-0.546875
1695313313644,-0.083740234,-0.98809814,0.12640381,-2.4375,-0.8125,-0.3125
1695313313684,-0.08496094,-0.9817505,0.1305542,-2.15625,-0.453125,-0.328125
1695313313724,-0.08496094,-0.9800415,0.121032715,-3.328125,-0.59375,-0.234375
1695313313764,-0.075683594,-0.97613525,0.121032715,-2.640625,0.1875,-1.515625
1695313313804,-0.07519531,-0.9873657,0.14276123,-2.9375,-1.078125,-0.5625
1695313313844,-0.087646484,-0.98150635,0.1461792,-2.8125,-2.671875,-0.90625
1695313313884,-0.08227539,-0.9668579,0.15057373,-1.546875,-2.4375,-0.734375
1695313313924,-0.08935547,-0.9607544,0.13861084,0.21875,-3.265625,-0.484375
1695313313964,-0.08544922,-0.95880127,0.12591553,1.328125,-3.015625,-0.3125
1695313314004,-0.0925293,-0.9627075,0.13323975,1.984375,-1.796875,-0.0625
1695313314044,-0.08691406,-0.9819946,0.14056396,1.53125,-2.3125,-0.171875
1695313314084,-0.09082031,-0.9793091,0.13226318,2.015625,-1.875,0.125
1695313314124,-0.07885742,-0.97491455,0.12225342,1.203125,-0.5,0.140625
1695313314164,-0.08959961,-0.9902954,0.13470459,1.03125,-1.21875,0.078125
1695313314204,-0.07348633,-0.96539307,0.10614014,-0.21875,1.859375,0.40625
1695313314244,-0.08666992,-0.96954346,0.11956787,1.234375,1.53125,0.015625
1695313314284,-0.092041016,-0.9949341,0.14056396,0.859375,-0.78125,0.3125
1695313314324,-0.08520508,-0.97198486,0.121276855,-0.375,-1.140625,-0.078125
1695313314364,-0.08618164,-0.97320557,0.121276855,0.359375,-0.40625,-0.09375
1695313314404,-0.08959961,-0.9727173,0.13031006,-0.296875,-0.25,0.171875
1695313314444,-0.08618164,-0.9795532,0.11883545,-0.25,-0.609375,0.109375
1695313314484,-0.087402344,-0.9776001,0.1149292,-0.09375,0.0,-0.078125
1695313314524,-0.0871582,-0.98223877,0.12322998,-0.109375,-0.34375,0.046875
1695313314564,-0.08642578,-0.9763794,0.1083374,-0.1875,-0.515625,0.03125
