timestamp,accel_x,accel_y,accel_z,gyro_x,gyro_y,gyro_z
1695397379506,-0.24609375,-0.90093994,0.10638428,5.53125,6.359375,-6.40625
1695397379546,-0.41870117,-0.9019165000000001,0.09417724599999999,1.328125,2.03125,-4.53125
1695397379586,-0.421875,-1.3010864,-0.02178955,6.015625,-5.96875,-8.40625
1695397379626,-0.6257324000000001,-1.4226685,-0.20220947,-4.71875,-14.9375,7.09375
1695397379666,-0.81396484,-1.2376098999999998,0.09100342,1.578125,-6.828125,15.46875
1695397379706,-0.6738281,-1.1887816999999998,0.15301514,0.390625,-8.453125,-1.578125
1695397379746,-0.59155273,-1.0100708,0.22357178,5.8125,5.71875,7.09375
1695397379786,-0.69311523,-0.96661377,0.03265381,-5.703125,2.203125,-11.171875
1695397379826,-0.3684082,-0.9673461999999999,-0.023498535,10.609375,7.46875,4.890625
1695397379866,-0.31860352,-0.64971924,0.12420654,5.765625,-1.53125,3.84375
1695397379906,-0.4645996,-0.7283324999999999,0.042175292999999996,4.828125,2.890625,-0.453125
1695397379946,-0.2841797,-0.7510376,0.022155762000000002,4.65625,-0.796875,2.875
1695397379986,-0.42236328,-0.725647,0.06732178,-9.78125,-6.59375,2.859375
1695397380026,-0.44311523,-0.58477783,0.14447021,-5.328125,7.3125,-0.109375
1695397380066,-0.51708984,-0.6760864000000001,0.14080810000000002,-16.4375,-0.75,-5.0625
1695397380106,-0.39013672,-0.8233031999999999,0.14398193,-11.359375,-3.078125,-1.703125
1695397380146,-0.49487305,-0.6812134,0.1828003,-13.453125,-6.453125,0.0
1695397380186,-0.67456055,-0.9924927,0.031921387,-8.171875,2.0625,-7.59375
1695397380226,-0.07104492,-1.0266724,-0.26983643,4.234375,-20.171875,0.578125
1695397380266,-0.06103515599999999,-1.0078735,0.15570068,3.8125,-17.65625,12.4375
1695397380306,-0.93188477,-1.4028931,0.35076904,24.3125,12.484375,-3.375
1695397380346,-0.7475586,-1.2512816999999998,-0.0005493164,6.53125,10.96875,-0.234375
1695397380386,-0.03100586,-1.5396118,0.28973390000000004,8.78125,6.953125,1.640625
1695397380426,-0.78930664,-0.82159424,0.047546387,-5.09375,-6.0625,17.03125
1695397380466,-0.33349609999999996,-0.8635864,0.19891357,7.46875,5.15625,-4.265625
1695397380506,-0.32299805,-0.83795166,0.25238037,-7.03125,-1.34375,0.125
1695397380546,-0.36132812,-0.43292236,0.08441162,-2.859375,4.25,1.171875
1695397380586,-0.080078125,-0.47344970000000003,0.01727295,1.09375,14.296875,-3.375
1695397380626,-0.18139648,-0.6008911,0.10980224599999999,11.390625,12.078125,-7.546875
1695397380666,-0.29638672,-0.82403564,0.19012451,0.453125,5.109375,-5.875
1695397380706,-0.23730469,-0.98565674,0.24383545,6.015625,4.90625,-6.265625
1695397380746,-0.5979004,-0.9414673000000001,0.029724121000000003,2.203125,-7.5,-4.484375
1695397380786,-0.5827637,-1.2493286,-0.113342285,19.671875,10.375,-2.78125
1695397380826,-0.5908203000000001,-1.5266723999999998,-0.057922363,6.3125,5.59375,0.90625
1695397380866,-0.8845215,-1.223938,-0.030822753999999997,0.078125,-3.5,6.03125
1695397380906,-0.4777832,-1.2407837,0.059265137,1.421875,-0.125,3.171875
1695397380946,-0.33618164,-0.90631104,0.24578857,10.5,15.5625,9.21875
1695397380986,-0.720459,-0.74884033,0.07318115,-2.25,2.359375,-4.421875
1695397381026,-0.48754883,-0.88238525,-0.0005493164,0.125,7.421875,-7.6875
1695397381066,-0.26782227,-0.79473877,0.09173584,-6.265625,-0.921875,1.84375
1695397381106,-0.33862305,-0.70269775,0.12664795,-20.203125,-1.53125,-0.328125
1695397381146,-0.51538086,-0.70196533,0.13323975,-20.515625,-0.9375,1.59375
1695397381186,-0.45507812,-0.6592406999999999,0.12640381,-6.015625,6.15625,-1.296875
1695397381226,-0.41625977,-0.79693604,0.137146,-6.671875,2.796875,-0.921875
1695397381266,-0.32885742,-0.7149048000000001,0.18084717,-18.546875,-12.484375,-0.6875
1695397381306,-0.48608398,-0.68414307,0.19207764,-10.6875,-8.265625,0.515625
1695397381346,-0.54003906,-0.69732666,0.12322998,-6.53125,4.921875,0.390625
1695397381386,-0.25073242,-0.97491455,-0.09429932,-7.046875,-15.671875,-2.1875
1695397381426,-0.2006836,-1.1209106000000002,0.051696777,1.1875,-27.078125,4.703125
1695397381466,-0.60546875,-1.1504517,0.5236206,24.171875,12.484375,7.25
1695397381506,-1.1384277,-1.2918091,0.1906128,-3.3125,10.84375,-13.796875
1695397381546,0.2705078,-1.5859985,0.33148193,2.9375,-4.09375,0.90625
1695397381586,-0.6647949000000001,-1.2175903000000001,0.3204956,-16.78125,-14.953125,12.6875
1695397381626,-0.97143555,-0.7241820999999999,0.17791748,-3.6875,-19.171875,-4.015625
1695397381666,-0.22583008,-0.986145,0.30755615,8.90625,4.359375,0.4375
1695397381706,-0.24438477,-0.5515747,0.10272217,-0.78125,1.15625,6.84375
1695397381746,-0.32006836,-0.52178955,0.17376709,6.9375,2.1875,-4.046875
1695397381786,-0.25878906,-0.6902465999999999,0.168396,11.296875,2.484375,-4.03125
1695397381826,-0.2548828,-0.5474243000000001,0.1293335,11.71875,13.203125,-1.40625
1695397381866,-0.24267578,-0.5244751,0.18841553,8.640625,7.375,-7.625
1695397381906,-0.33911133,-0.87042236,0.09295654,9.359375,2.703125,-9.15625
1695397381946,-0.30200195,-0.8616333,0.09490967,6.59375,1.671875,-1.484375
1695397381986,-0.41992188,-1.288147,0.23260498,2.046875,-1.046875,-5.828125
1695397382026,-0.6347656,-1.3047485,-0.25079346,6.234375,-13.53125,5.015625
1695397382066,-0.86328125,-0.8027954,0.031433105,12.484375,5.375,21.78125
1695397382106,-0.68115234,-1.2617798,0.324646,5.546875,6.421875,-10.265625
1695397382146,-1.1816406000000002,-1.9966431,-0.0010375977,5.15625,3.015625,-6.875
1695397382186,-0.42504883,-0.9534302,0.10467529,-17.75,5.09375,4.4375
1695397382226,0.19873047,-0.41070557,-0.023498535,6.359375,-5.75,12.984375
1695397382266,-0.5690918,-0.51885986,0.10980224599999999,4.875,4.171875,-4.734375
1695397382306,-0.6960449000000001,-0.8826294,0.06585693,-5.625,-2.15625,-3.640625
1695397382346,-0.16479492,-0.84454346,0.034851073999999996,-4.3125,-9.421875,-1.375
1695397382386,-0.15478516,-0.6856079,0.01776123,-9.265625,-25.84375,16.84375
1695397382426,-0.31762695,-0.27838135,0.15496826,-5.296875,-13.984375,13.359375
1695397382466,-0.55444336,-0.53863525,0.17059326,-1.796875,-10.390625,0.421875
1695397382506,-0.5102539,-0.8858031999999999,0.13128662,-3.703125,-12.84375,-0.125
1695397382546,-0.48779297,-1.130188,-0.09820557,-5.171875,-29.234375,-8.71875
1695397382586,-0.21191406,-1.2266235,-0.013977051,-0.734375,-28.96875,2.21875
1695397382626,-0.607666,-0.9771118000000001,0.19940186,-6.625,-8.515625,9.078125
1695397382666,-0.95166016,-2.0,-0.049621582000000004,22.171875,-25.71875,-21.03125
1695397382706,-0.20849610000000002,-1.5269165,0.41497803,-3.359375,2.125,18.421875
1695397382746,-1.045166,-0.73638916,-0.10479736,-16.3125,-26.234375,-4.546875
1695397382786,-0.14086914,-0.9234009,0.20355225,0.25,-4.109375,0.46875
1695397382826,-0.4272460999999999,-0.94903564,0.36248779999999997,7.0,-12.6875,7.296875
1695397382866,-0.32055664,-0.65997314,0.15789795,-13.953125,-18.3125,-1.03125
1695397382906,-0.25146484,-0.69488525,0.04510498,-1.921875,-4.296875,-1.671875
1695397382946,-0.32592773,-0.83551025,0.1774292,1.421875,-4.453125,-4.484375
1695397382986,-0.4206543,-0.73809814,0.23431396,-11.21875,-6.359375,-4.640625
1695397383026,-0.3876953,-0.59503174,0.18890381,-5.640625,4.09375,-5.0625
1695397383066,-0.31396484,-0.6946411,0.10858154,-8.703125,-4.25,-10.0
1695397383106,-0.24462889999999998,-0.88946533,0.14324951,-7.78125,-11.140625,-6.84375
1695397383146,-0.26953125,-1.0296020000000001,0.31072998,-4.359375,-7.015625,1.375
1695397383186,-0.56762695,-0.8687134,0.10516357400000001,-4.5625,-7.03125,3.5625
1695397383226,-0.64819336,-0.80010986,-0.12896729,6.234375,4.4375,4.890625
1695397383266,-0.44677734,-1.3804321000000002,-0.08404541,6.203125,4.703125,-0.203125
1695397383306,-0.73779297,-2.0,0.0021362305,12.390625,-24.453125,3.640625
1695397383346,-0.5908203000000001,-0.80474854,0.31341553,-14.453125,-19.3125,16.375
1695397383386,-0.8371582000000001,-0.6091919,0.35443115,4.578125,15.40625,1.453125
1695397383426,-0.46850586,-1.112854,-0.020568848,-19.375,-1.9375,-24.375
1695397383466,-0.3137207,-1.0444946,-0.022521972999999997,-7.0625,-12.171875,8.75
1695397383506,-0.20336914,-0.48736572,0.16815186,-5.859375,-14.265625,8.703125
1695397383546,-0.41137695,-0.5042114000000001,0.2579956,-12.15625,-6.109375,-0.84375
1695397383586,-0.3828125,-0.62384033,0.13299560000000002,-6.8125,-5.109375,4.140625
1695397383626,-0.36157227,-0.6018677,0.040222167999999996,-7.046875,-5.609375,-1.8125
1695397383666,-0.4519043,-0.68634033,0.07977295,-4.6875,-15.5625,1.03125
1695397383706,-0.49072266,-0.7749634,0.20501709,-2.078125,0.8125,1.984375
1695397383746,-0.4428710999999999,-1.0601196000000002,-0.06060791,-3.734375,-16.640625,-5.890625
1695397383786,-0.28540040000000005,-1.1607056,0.13055419999999998,2.625,-25.765625,5.203125
1695397383826,-0.8562011999999999,-1.5200806,0.28582764,1.875,11.046875,-3.65625
1695397383866,-0.48706055,-1.1174927,0.11004639,-1.765625,8.78125,2.46875
1695397383906,-0.33764648,-1.2932739,0.21429443,0.234375,-8.46875,-2.984375
1695397383946,-0.49414062,-1.0125122,0.28460693,-0.078125,-6.265625,5.734375
1695397383986,-0.3293457,-0.9092406999999999,0.26361084,3.15625,-4.4375,4.765625
1695397384026,-0.18188477,-0.9180298000000001,0.23626709,-1.3125,-1.3125,2.40625
1695397384066,-0.46411133,-0.7178345,0.27264404,3.21875,-2.9375,-0.84375
1695397384106,-0.39794922,-0.6880493000000001,0.17254639,4.765625,-8.59375,-4.515625
1695397384146,-0.13012695,-0.81134033,0.28460693,-0.21875,-6.265625,-4.390625
1695397384186,-0.3894043,-0.75250244,0.38665770000000005,-5.859375,-7.234375,-1.609375
1695397384226,-0.41967773,-0.7251586999999999,0.2555542,-7.96875,-14.359375,-8.6875
1695397384266,-0.28808594,-0.9248656999999999,0.42132568,-5.9375,-11.0625,-7.90625
1695397384306,-0.39599609999999996,-0.95562744,0.5326538000000001,-12.453125,-9.59375,-6.453125
1695397384346,-0.4416504,-0.8579711999999999,0.34442140000000004,-21.84375,-19.9375,-16.265625
1695397384386,-0.40087890000000004,-0.7427368000000001,0.31903076,0.96875,-4.828125,-3.703125
1695397384426,-0.09155273400000001,-1.2651978000000002,-0.13067627,-35.25,-17.046875,-3.765625
1695397384466,-0.69311523,-1.3884888000000002,-0.5383911,-17.6875,-57.21875,13.671875
1695397384506,-0.2902832,-1.3286743,0.047302246,-17.046875,-53.6875,12.6875
1695397384546,-0.68359375,-1.3748169,0.17572021,-22.03125,-58.5625,7.640625
1695397384586,-0.5463866999999999,-1.3303833,-0.15704346,-26.53125,-43.359375,10.984375
1695397384626,-0.4567871,-1.0081177,0.1293335,-0.390625,-53.109375,18.28125
1695397384666,-0.34545898,-0.86383057,0.089782715,-22.21875,-61.359375,7.234375
1695397384706,-0.44360352,-0.8862915000000001,0.12615967,-20.53125,-54.796875,8.140625
1695397384746,-0.37890625,-0.80255127,0.014343261999999999,-16.703125,-53.953125,4.625
1695397384786,-0.34741209999999995,-0.7600708,0.09320068,-17.84375,-50.859375,6.671875
1695397384826,-0.57666016,-0.58062744,0.18133545,-1.4375,-32.609375,6.859375
1695397384866,-0.38354492,-0.41314697,0.05999756,-15.6875,-31.140625,2.234375
1695397384906,-0.35327148,-0.5845336999999999,0.19989014,-22.234375,-27.0625,-4.28125
1695397384946,-0.49072266,-0.7354126,0.24847412,-24.109375,-26.671875,1.25
1695397384986,-0.5847168,-0.7920531999999999,0.17279053,-21.015625,-32.359375,0.421875
1695397385026,-0.67993164,-0.65997314,0.39544678,-5.65625,-15.625,-2.671875
1695397385066,-0.9604492,-0.6577759,0.47406006,-19.703125,0.6875,-8.875
1695397385106,-0.62402344,-0.94122314,0.27850342,-19.421875,1.6875,-6.875
1695397385146,-0.43945312,-1.0911255,-0.09918213,-4.15625,1.390625,-13.65625
1695397385186,0.091308594,-1.468811,-0.1765747,30.34375,-17.125,-2.46875
1695397385226,-0.0546875,-1.4277954,0.050720215,9.71875,-13.0,17.8125
1695397385266,-0.91430664,-1.2383423,0.08563232400000001,12.421875,-13.15625,9.75
1695397385306,-0.5292969,-1.265686,0.046813965,7.84375,7.484375,4.6875
1695397385346,-0.3173828,-1.0081177,0.043640137,0.65625,-0.75,13.875
1695397385386,-0.45947266,-0.927063,0.20867919999999998,1.625,-0.890625,3.390625
1695397385426,-0.28540040000000005,-0.8994751,0.137146,5.484375,8.8125,10.671875
1695397385466,-0.2783203,-0.68829346,0.06365967,5.0,6.875,13.296875
1695397385506,-0.24462889999999998,-0.7295531999999999,0.05999756,1.421875,-4.953125,3.796875
1695397385546,-0.33032227,-0.9102173000000001,0.2670288,9.296875,0.609375,3.25
1695397385586,-0.33764648,-0.9199828999999999,0.16351318,0.203125,-3.140625,-0.25
1695397385626,-0.35253906,-0.69366455,0.10394287,-7.1875,4.640625,-5.34375
1695397385666,-0.34301758,-0.53204346,0.17596436,1.609375,9.671875,-8.25
1695397385706,-0.18969727,-0.6265259,0.23187256,7.578125,-1.53125,-12.046875
1695397385746,-0.25439453,-0.800354,0.057800292999999996,2.78125,0.03125,-11.609375
1695397385786,-0.20190429999999998,-0.9138794,0.08929443,6.921875,-1.953125,-9.734375
1695397385826,-0.38354492,-1.0794066999999998,0.059753417999999996,5.40625,-6.625,-9.46875
1695397385866,-0.7050781,-1.1826782,-0.34136963,7.765625,-4.734375,4.9375
1695397385906,-0.5788574000000001,-1.6731566999999998,-0.01763916,9.703125,-15.71875,1.59375
1695397385946,-0.6555175999999999,-1.4546508999999999,0.13153076,-9.3125,-19.078125,16.21875
1695397385986,-0.94555664,-0.7305298000000001,0.20404053,13.3125,13.109375,6.46875
1695397386026,-0.51416016,-0.93634033,0.04534912,0.71875,2.75,-5.859375
1695397386066,-0.2998047,-0.8726195999999999,-0.06719971,-16.375,-20.28125,-6.5625
1695397386106,-0.4411621,-0.83013916,0.017028809,-6.65625,-7.171875,3.484375
1695397386146,-0.35595703,-0.663147,0.06976318,-8.34375,-4.9375,1.5625
1695397386186,-0.43798828,-0.7217406999999999,0.07733154,-13.21875,-4.765625,0.015625
1695397386226,-0.48632812,-0.6992798000000001,0.09100342,-5.234375,0.078125,2.640625
1695397386266,-0.4152832,-0.6226195999999999,0.13104248,-9.71875,3.890625,-0.203125
1695397386306,-0.41967773,-0.6067505,0.12469482400000001,-17.125,-13.140625,1.46875
1695397386346,-0.30200195,-0.69781494,0.07537842,-4.546875,-2.984375,-2.828125
1695397386386,-0.4494629,-0.69903564,-0.05621338,5.109375,0.90625,5.59375
1695397386426,-0.70043945,-1.1062622,0.08880615,11.09375,-2.859375,-11.234375
1695397386466,-0.24609375,-1.2153931,0.04510498,3.25,-11.25,-1.03125
1695397386506,-0.23486328,-1.0401001,0.29119873,12.734375,9.171875,11.21875
1695397386546,-1.0505371000000001,-1.5606079,-0.019348145,-4.171875,-2.078125,-17.796875
1695397386586,-0.30078125,-1.5178833,0.33172607,16.5625,10.28125,9.65625
1695397386626,-0.60424805,-1.1677856000000002,0.07489014,-13.015625,-12.875,-7.1875
1695397386666,-0.34472656,-1.1538696000000002,0.21258545,-5.109375,-10.9375,-7.9375
1695397386706,-0.48339844,-0.74957275,0.23455810000000002,-7.546875,-2.09375,9.359375
1695397386746,-0.26660156,-0.42510986,0.04168701,1.625,2.890625,-4.515625
1695397386786,-0.26293945,-0.7888794,0.19500732,2.625,-2.296875,-10.890625
1695397386826,-0.2998047,-0.8345336999999999,0.22039795,-3.59375,-5.703125,-4.59375
1695397386866,-0.29223633,-0.6489868000000001,0.12078857400000001,-3.53125,-6.53125,-5.484375
1695397386906,-0.30859375,-0.86553955,0.31146240000000003,-8.34375,-10.96875,-9.734375
1695397386946,-0.45654297,-0.8777466,0.2699585,-11.09375,-28.5,-4.921875
1695397386986,-0.20361328,-1.1170044,0.5289917,-10.125,-19.5,-13.828125
1695397387026,-0.19458008,-1.117981,0.25897217,-21.875,-40.765625,-0.34375
1695397387066,-0.3388672,-0.8472290000000001,0.39154053,-26.3125,-41.515625,5.921875
1695397387106,-0.5124512,-0.9541626,-0.11138916,-35.625,-37.3125,5.90625
1695397387146,-0.57543945,-1.0408325,-0.46783447,-37.671875,-36.921875,11.265625
1695397387186,-0.7402344,-1.2044066999999998,-0.41485596,-5.953125,-44.71875,24.0625
1695397387226,-0.38696290000000005,-1.2354126,-0.031799316,-16.71875,-52.171875,15.203125
1695397387266,-0.63671875,-1.270813,0.13543701,-18.03125,-60.203125,13.625
1695397387306,-0.5449219,-1.2217407,-0.18218994,-15.609375,-42.3125,10.109375
1695397387346,-0.2602539,-1.0598755,0.045837402,-7.84375,-50.21875,11.234375
1695397387386,-0.37280273,-0.7424927,0.13055419999999998,-24.921875,-63.96875,10.234375
1695397387426,-0.513916,-0.83062744,0.054626465,-31.1875,-56.859375,-1.046875
1695397387466,-0.50341797,-0.79522705,-0.016662598,-21.46875,-47.3125,-4.59375
1695397387506,-0.22900389999999998,-0.8115845,0.06829834,-11.515625,-36.109375,-0.28125
1695397387546,-0.3581543,-0.8862915000000001,0.105407715,-24.890625,-46.703125,0.828125
1695397387586,-0.5214844,-0.692688,0.12640381,-19.203125,-40.140625,7.046875
1695397387626,-0.57592773,-0.81451416,0.18890381,-27.390625,-34.65625,-3.203125
1695397387666,-0.4260254,-0.7444458,0.17010498,-27.890625,-31.0,-3.609375
1695397387706,-0.6074219,-0.57476807,0.24285889,-21.203125,-29.78125,4.609375
1695397387746,-0.73779297,-0.8184204,0.3324585,-13.328125,-20.640625,-5.921875
1695397387786,-0.38305664,-0.6987915,0.25579834,-24.375,-13.4375,-3.421875
1695397387826,-0.6101074000000001,-0.5706177,0.32098390000000004,-10.71875,-4.859375,-3.671875
1695397387866,-0.65063477,-0.5046997000000001,0.24847412,-19.859375,-2.234375,-11.203125
1695397387906,-0.5522461,-0.82159424,0.1317749,-4.1875,-3.140625,-8.140625
1695397387946,-0.5629883000000001,-1.1882935,0.03729248,0.484375,-7.53125,-15.296875
1695397387986,-0.12695312,-1.380188,-0.13970947,10.578125,-3.453125,-8.8125
1695397388026,-0.26708984,-1.2561646,0.16278076,24.78125,-7.953125,6.90625
1695397388066,-0.39648438,-1.3618774,0.22576904,13.90625,-10.453125,11.78125
1695397388106,-0.8093262,-1.4048462,0.07659912,6.3125,-18.546875,4.984375
1695397388146,-0.2590332,-1.0425415,0.17449951,11.625,8.40625,13.734375
1695397388186,-0.5695800999999999,-0.80474854,0.082214355,3.5625,-6.703125,16.1875
1695397388226,-0.3359375,-0.99053955,0.20355225,6.921875,-14.3125,-3.046875
1695397388266,-0.47338867,-0.8999634,0.19110107,3.671875,2.09375,8.046875
1695397388306,-0.30859375,-0.63287354,0.039489746,3.4375,4.015625,7.484375
1695397388346,-0.21240234,-0.6868286,0.18597412,-0.734375,-5.0,-2.546875
1695397388386,-0.43408203,-0.80426025,0.21673584,-15.46875,-1.109375,-7.6875
1695397388426,-0.4116210999999999,-0.5342406999999999,0.17474365,-2.6875,8.75,-5.65625
1695397388466,-0.24633789,-0.5413208,0.13616943,-4.890625,8.46875,-5.53125
1695397388506,-0.23583984,-0.88531494,0.20037842,-10.640625,-8.171875,-13.328125
1695397388546,-0.4050293,-1.0435181,0.16253662,-3.359375,-15.0,-6.921875
1695397388586,-0.44091797,-0.6958618000000001,-0.02935791,7.78125,-3.703125,3.234375
1695397388626,-0.32739258,-1.0388794,0.20574951,13.765625,12.296875,1.734375
1695397388666,-0.6921387,-1.3914185,-0.39776609999999996,23.25,-35.03125,-5.625
1695397388706,-0.6743164,-1.4920044,0.0680542,-4.703125,-20.046875,9.484375
1695397388746,-0.9963379000000001,-1.140686,0.035583496,-12.234375,-5.65625,0.640625
1695397388786,-0.35595703,-0.8076781999999999,0.18157959,8.21875,8.0625,13.140625
1695397388826,-0.45483398,-0.6633911,0.11175537,5.484375,21.703125,0.375
1695397388866,-0.83325195,-0.96343994,-0.12066650400000001,-7.703125,12.375,-18.59375
1695397388906,-0.18066406,-0.89801025,0.026306152000000003,-1.953125,0.4375,8.8125
1695397388946,-0.33251953,-0.75006104,0.09442139,-1.140625,-6.46875,3.15625
1695397388986,-0.46313477,-0.7647095,0.12200928,5.40625,7.109375,9.515625
1695397389026,-0.35351562,-0.74102783,0.059509277,-5.875,-0.875,6.75
1695397389066,-0.41137695,-0.7168579,0.14056396,-4.875,-8.296875,2.625
1695397389106,-0.5493164,-0.6033324999999999,0.22723389,-11.5,4.15625,0.1875
1695397389146,-0.5283203000000001,-0.81451416,0.10687256,-13.15625,0.421875,-2.796875
1695397389186,-0.26245117,-0.76348877,0.09027099599999999,-10.015625,-2.171875,1.53125
1695397389226,-0.6862793,-0.9192505,0.17816162,-2.546875,-1.390625,0.0625
1695397389266,-0.42626953,-1.3203735,0.014099121000000001,-5.796875,-7.390625,-3.546875
1695397389306,0.0546875,-0.8316040000000001,-0.15777588,-4.65625,-13.90625,22.046875
1695397389346,-0.5383300999999999,-0.77423096,0.324646,20.984375,1.984375,3.140625
1695397389386,-0.8864745999999999,-1.4780883999999999,0.039489746,14.0,-11.421875,-13.328125
1695397389426,0.08520508,-1.8328247,0.26898193,-7.640625,2.96875,11.609375
1695397389466,-0.9711914,-0.74224854,0.16082764,-17.59375,-17.28125,18.0
1695397389506,-0.34765625,-1.0147095,0.10003662,5.75,1.484375,-12.1875
1695397389546,-0.38916016,-1.0376587,0.34661865,6.671875,2.171875,7.53125
1695397389586,-0.42529297,-0.58135986,0.16229248,0.0,2.140625,2.96875
1695397389626,-0.19848633,-0.69781494,0.09295654,2.921875,7.703125,-5.234375
1695397389666,-0.25927734,-0.62457275,0.13446045,8.234375,7.984375,-4.59375
1695397389706,-0.39331055,-0.68292236,0.18743896,7.640625,4.625,-9.375
1695397389746,-0.23120117,-0.63165283,0.09124756,6.28125,3.703125,-12.296875
1695397389786,-0.23974610000000002,-0.8428344999999999,0.07757568,15.0625,6.390625,-7.046875
1695397389826,-0.30517578,-0.6604614000000001,0.070495605,13.65625,8.921875,-4.4375
1695397389866,-0.28637695,-1.109436,0.105407715,4.921875,6.421875,-2.125
1695397389906,-0.59521484,-1.4241333,-0.14093018,-13.25,-8.0625,-7.09375
1695397389946,-0.78125,-1.1060181,-0.13433838,3.34375,-11.75,19.359375
1695397389986,-0.7392578000000001,-1.4160767,0.15228271,14.90625,3.359375,7.390625
1695397390026,-0.47558594,-1.3010864,0.09954834,-14.640625,-17.359375,-3.15625
1695397390066,-0.9304199000000001,-0.9248656999999999,0.24163818,0.953125,2.96875,12.984375
1695397390106,-0.55444336,-0.85821533,0.03265381,-9.3125,0.28125,-12.03125
1695397390146,-0.27099609999999996,-0.8945923000000001,-0.03692627,2.546875,-2.8125,5.375
1695397390186,-0.40625,-0.6897583,0.14227295,-7.046875,-6.015625,0.65625
1695397390226,-0.50268555,-0.7383423000000001,0.09539795,-2.984375,3.625,-0.078125
1695397390266,-0.4399414000000001,-0.8008423000000001,0.10247803,-4.40625,6.984375,0.890625
1695397390306,-0.37915040000000005,-0.6987915,0.11370849599999999,-14.671875,1.6875,1.375
1695397390346,-0.43310547,-0.58258057,0.18695068,-15.296875,4.234375,4.046875
1695397390386,-0.46289062,-0.56817627,0.09954834,-16.09375,-1.171875,1.46875
1695397390426,-0.30883790000000005,-0.81207275,0.19329834,-4.0625,2.859375,1.546875
1695397390466,-0.43481445,-0.6758423000000001,0.23675537,-5.890625,6.71875,2.640625
1695397390506,-0.5449219,-0.94244385,0.23919678,-4.203125,3.203125,-3.09375
1695397390546,-0.13964844,-1.2874146,-0.3862915,14.484375,-30.546875,-0.90625
1695397390586,-0.20507812,-0.8460083,0.23822021,7.59375,-10.484375,17.328125
1695397390626,-0.7714844,-1.0020142,0.37225342,27.71875,12.109375,-0.140625
1695397390666,-0.8483886999999999,-1.1987915,-0.11480713,-2.765625,8.484375,-4.5
1695397390706,0.07641601599999999,-2.0,0.36688232,16.046875,-21.265625,-14.265625
1695397390746,-0.6657715,-0.9793091,0.25482178,-10.09375,-4.15625,22.84375
1695397390786,-0.7390137,-0.56085205,-0.016906738,-0.296875,-14.453125,-11.3125
1695397390826,-0.22827148,-1.1311646,0.28997803,13.09375,5.5625,-3.28125
1695397390866,-0.40209959999999995,-0.70147705,0.15667725,-1.296875,8.390625,5.78125
1695397390906,-0.39233398,-0.64630127,0.11444092,1.4375,10.421875,-2.984375
1695397390946,-0.26489258,-0.7815552,0.082214355,3.640625,8.59375,-9.421875
1695397390986,-0.42944336,-0.82769775,0.15252686,0.71875,1.640625,-7.296875
1695397391026,-0.34326172,-0.7048949999999999,0.17474365,2.4375,7.6875,-5.21875
1695397391066,-0.24072266,-0.7888794,0.086120605,6.859375,3.703125,-7.421875
1695397391106,-0.42407227,-0.84942627,0.07611084,-0.578125,-4.046875,-6.546875
1695397391146,-0.36523438,-0.7468872,0.08294678,9.046875,-1.890625,-1.234375
1695397391186,-0.41357422,-0.8418578999999999,0.08270264,6.4375,5.5,-0.328125
1695397391226,-0.45898438,-1.0144653000000001,-0.17681885,1.5,-2.546875,1.296875
1695397391266,-0.5144042999999999,-1.2908325,-0.061584473,2.53125,-5.96875,10.546875
1695397391306,-0.8186035,-1.5523071000000002,-0.009338379,17.40625,-7.265625,6.109375
1695397391346,-0.80859375,-1.0545044,0.12200928,-10.3125,-10.140625,5.578125
1695397391386,-0.70092773,-0.927063,0.24261475,18.03125,24.109375,1.46875
1695397391426,-0.55737305,-1.1995239,-0.08135986,-0.6875,8.25,-9.703125
1695397391466,-0.32104492,-0.91534424,0.030212402000000003,-9.484375,-6.78125,4.71875
1695397391506,-0.15600586,-0.6638794,0.10321045,-3.390625,-3.640625,13.546875
1695397391546,-0.4885254,-0.5708618000000001,0.07952881,-15.0,-2.84375,1.453125
1695397391586,-0.28808594,-0.68756104,-0.022521972999999997,-8.5625,-6.796875,3.390625
1695397391626,-0.12573242,-0.5574340999999999,0.007751465,-1.875,-22.21875,4.84375
1695397391666,-0.28540040000000005,-0.43414307,0.13739014,-9.28125,-21.703125,8.25
1695397391706,-0.5749512,-0.63653564,0.07733154,-15.203125,-21.28125,-5.859375
1695397391746,-0.5058594,-0.9624634,-0.101623535,4.46875,-18.375,-0.671875
1695397391786,-0.47631836,-1.2576294,-0.042785645,3.921875,-37.8125,-11.3125
1695397391826,-0.62939453,-1.7026978,0.01727295,-1.84375,-3.171875,-1.71875
1695397391866,-0.32373047,-1.0662231000000002,0.23626709,-3.03125,23.609375,7.84375
1695397391906,-0.27783203,-1.1382446000000002,0.21771239999999997,1.421875,-9.328125,5.796875
1695397391946,-0.4362793,-0.9981078999999999,0.21942139,3.140625,-4.421875,1.359375
1695397391986,-0.4567871,-1.5200806,0.09075928,-9.421875,-28.703125,-13.25
1695397392026,-0.33422852,-0.94976807,0.30364990000000003,2.765625,-4.078125,18.265625
1695397392066,-0.43554688,-0.5256958,-0.03253174,-15.359375,-10.828125,3.765625
1695397392106,-0.14428711,-1.0049438,0.21624756,-8.40625,-24.828125,-9.21875
1695397392146,-0.42993164,-0.8579711999999999,0.30975342,-7.640625,-21.40625,-0.015625
1695397392186,-0.32250977,-0.61602783,0.20770264,-13.875,-15.25,-3.40625
1695397392226,-0.068847656,-0.5718384,0.1383667,-6.671875,-16.5625,-7.25
1695397392266,-0.20800781,-0.72320557,0.18914795,-6.09375,-25.171875,-10.671875
1695397392306,-0.31323242,-0.9258423000000001,0.20672607,-12.015625,-25.015625,-8.609375
1695397392346,-0.3466797,-0.87677,0.1984253,-24.375,-24.890625,-0.671875
1695397392386,-0.46655273,-1.0198364,-0.07916260000000001,-14.21875,-22.34375,-5.3125
1695397392426,-0.654541,-0.7803345,-0.10699463,-14.5,-28.140625,1.59375
1695397392466,-0.4645996,-1.1482544,-0.11431885,-5.09375,-18.828125,-5.890625
1695397392506,-0.60498047,-1.5010376,0.31951904,2.671875,-16.3125,5.09375
1695397392546,-0.6706543,-1.4255981000000002,0.10125732400000001,-30.28125,-40.8125,-3.765625
1695397392586,-0.5144042999999999,-1.1077270000000001,-0.039123535,-13.125,-34.609375,5.796875
1695397392626,-0.19458008,-0.7276001,0.20306396,-16.75,-34.609375,8.046875
1695397392666,-0.5551758000000001,-0.72442627,0.15863037,-20.65625,-39.734375,-2.609375
1695397392706,-0.4946289000000001,-0.7896118000000001,0.09686279,-16.0,-34.890625,1.78125
1695397392746,-0.25976562,-0.69903564,0.008972168,-12.859375,-37.78125,-1.796875
1695397392786,-0.49291992,-0.6148070999999999,0.13372803,-22.109375,-33.21875,0.171875
1695397392826,-0.5124512,-0.6289673000000001,0.14813232,-5.71875,-30.359375,-1.8125
1695397392866,-0.60595703,-0.73150635,0.21673584,-12.546875,-33.609375,-7.046875
1695397392906,-0.85131836,-0.8023070999999999,0.21820068,-13.25,-30.46875,-6.828125
1695397392946,-0.83813477,-0.8435669,0.26092529999999997,-13.1875,-16.21875,-5.640625
1695397392986,-0.5144042999999999,-0.7984009,0.13201904,-22.71875,-20.296875,-5.15625
1695397393026,-0.73217773,-0.6240845,0.046081542999999996,-25.453125,-28.015625,-6.578125
1695397393066,-0.6958008000000001,-1.1221313,0.43841553,3.140625,-1.140625,-27.296875
1695397393106,-0.012451172,-1.8018188000000002,-0.27008057,-6.75,-0.4375,-11.1875
1695397393146,-0.32568359999999996,-1.3894653000000001,0.06121826,1.46875,-14.28125,26.09375
1695397393186,-0.46850586,-1.1008911,0.13665771,-12.859375,-13.484375,23.578125
1695397393226,-0.5944824000000001,-1.0559691999999998,0.13079834,2.640625,-20.015625,16.609375
1695397393266,-0.4194335999999999,-1.0022583,0.27239990000000003,7.9375,-6.703125,5.546875
1695397393306,-0.2800293,-0.76934814,0.0065307617,-6.515625,-10.5625,17.328125
1695397393346,-0.26098633,-0.6355590999999999,0.13739014,-0.84375,-12.15625,8.53125
1695397393386,-0.44506836,-0.99591064,0.28851318,-4.4375,-13.328125,3.671875
1695397393426,-0.4494629,-0.7805786,0.18377686,-5.0,-2.859375,6.640625
1695397393466,-0.4165039000000001,-0.5779419,0.10687256,0.109375,13.78125,2.203125
1695397393506,-0.3684082,-0.7815552,0.19696045,1.140625,12.375,-1.4375
1695397393546,-0.33374023,-0.8274536,0.30413818,-1.65625,14.390625,-0.390625
1695397393586,-0.41430664,-0.88409424,0.31195068,6.15625,14.71875,-3.484375
1695397393626,-0.28833008,-0.85772705,0.12860107,-5.453125,2.984375,-8.109375
1695397393666,-0.119628906,-0.7793579,0.24969482,-1.796875,-3.0625,-5.453125
1695397393706,-0.44360352,-0.8484497,0.53338623,-1.765625,2.34375,-4.25
1695397393746,-0.6101074000000001,-0.8772583,0.35614014,-20.421875,-11.296875,-9.546875
1695397393786,-0.24780273,-0.81256104,0.35223390000000004,-1.171875,2.875,-3.859375
1695397393826,-0.5415039,-0.75250244,0.49798584,-14.328125,0.046875,-5.921875
1695397393866,-0.38989258,-1.2219848999999998,-0.23150635,-17.015625,-5.828125,-7.3125
1695397393906,-0.611084,-1.0645142,-0.38360596,4.796875,-7.578125,12.46875
1695397393946,-0.5124512,-1.5444946000000002,-0.27276609999999996,17.390625,-18.875,3.453125
1695397393986,-0.29150390000000004,-1.2874146,0.22332764,-10.09375,-52.703125,20.578125
1695397394026,-1.0771483999999998,-0.8521118000000001,0.34906006,17.953125,-9.0,15.265625
1695397394066,-0.45507812,-1.003479,-0.11065674,0.671875,-11.375,-7.109375
1695397394106,-0.12817383,-0.958313,0.06610107400000001,4.515625,-23.609375,13.875
1695397394146,-0.55737305,-0.5256958,0.17572021,-3.015625,-20.609375,3.890625
1695397394186,-0.4272460999999999,-0.8179320999999999,0.04534912,0.40625,-9.078125,-0.6875
1695397394226,-0.26171875,-0.93634033,0.06903076,-4.0,-12.875,3.0625
1695397394266,-0.36181640000000004,-0.8377075,0.15496826,-6.3125,-19.71875,3.59375
1695397394306,-0.33984375,-0.6018677,0.09295654,-23.765625,-18.671875,6.984375
1695397394346,-0.3918457,-0.6109009,0.12054443,-16.515625,-34.171875,2.265625
1695397394386,-0.36279297,-0.63116455,0.018249512,-10.390625,-32.921875,3.078125
1695397394426,-0.5500488,-0.7810669,0.027770996000000003,-7.53125,-25.875,2.109375
1695397394466,-0.29736328,-0.85235596,-0.022277832,-7.75,-22.375,-1.15625
1695397394506,-0.40161133,-0.8804320999999999,-0.08404541,-8.0,-41.25,2.59375
1695397394546,-0.5683594,-1.1389770000000001,0.19451904,7.484375,-21.8125,-9.4375
1695397394586,-0.7023925999999999,-1.3850708,0.32098390000000004,-2.84375,-0.765625,-13.90625
1695397394626,0.18579102,-1.7236938000000002,0.14056396,-16.28125,-10.53125,6.53125
1695397394666,-0.7324219,-0.95513916,0.1461792,-5.78125,-3.328125,20.03125
1695397394706,-0.46826172,-1.1987915,0.2230835,-2.765625,-22.15625,-11.3125
1695397394746,-0.31469727,-1.1795044,0.36956787,-6.328125,-24.703125,-2.046875
1695397394786,-0.35058594,-0.5684204,0.07513428,-6.109375,-8.578125,15.359375
1695397394826,-0.18457031,-0.50079346,0.09344482400000001,-6.609375,-19.03125,-5.46875
1695397394866,-0.30615234,-0.7432251,0.17816162,1.578125,-16.296875,-3.203125
1695397394906,-0.29223633,-0.8230591,0.24383545,-3.265625,-11.6875,-1.5
1695397394946,-0.18554688,-0.7817993000000001,0.24822998,-10.21875,-14.8125,-4.859375
1695397394986,-0.38208008,-0.9351195999999999,0.22088623,-19.046875,-22.859375,-4.609375
1695397395026,-0.50024414,-0.6980590999999999,0.1942749,2.25,-16.4375,-0.921875
1695397395066,-0.38476562,-0.6897583,0.06439209,-4.65625,-21.625,-6.421875
1695397395106,-0.37280273,-1.0425415,0.03778076,-7.53125,-18.90625,-13.453125
1695397395146,-0.5354004,-1.0249634,-0.09161377,-10.75,-17.109375,-2.375
1695397395186,-0.5925293,-1.1126098999999998,-0.1182251,1.984375,-26.734375,0.234375
1695397395226,-0.68603516,-1.4920044,0.38006592,-5.9375,-3.59375,-2.421875
1695397395266,-0.49414062,-1.4048462,-0.016418457,-39.34375,-31.953125,-13.0625
1695397395306,-0.5817871,-0.9314575,0.11273193,-11.5,-5.375,19.453125
1695397395346,-0.43969727,-0.7810669,0.20867919999999998,-26.90625,-18.515625,-9.953125
1695397395386,-0.27954102,-1.187561,0.0038452148,-25.3125,-35.5,-0.265625
1695397395426,-0.33984375,-0.8218384,0.19085693,-16.640625,-31.328125,15.53125
1695397395466,-0.5563965,-0.6921997,0.18841553,-20.25,-28.296875,2.78125
1695397395506,-0.42651367,-0.65411377,0.07635498,-8.71875,-31.625,5.703125
1695397395546,-0.5266113,-0.40509033,0.22991943,-6.171875,-28.03125,4.171875
1695397395586,-0.44091797,-0.5484009,0.199646,-12.59375,-25.671875,-4.828125
1695397395626,-0.44238279999999996,-0.74053955,0.15863037,-8.9375,-37.375,-1.28125
1695397395666,-0.73583984,-0.75860596,0.22943115,-7.78125,-41.671875,-0.046875
1695397395706,-0.93847656,-0.8233031999999999,0.2982788,-16.28125,-26.59375,-6.046875
1695397395746,-0.73999023,-0.7312622,0.26727295,-6.09375,-15.78125,-4.578125
1695397395786,-0.09423828,-0.73394775,0.12640381,-8.8125,-19.671875,-4.96875
1695397395826,-0.16699219,-1.1482544,-0.13433838,1.703125,-46.9375,-5.65625
1695397395866,-0.93115234,-1.562561,-0.13677979,11.859375,-15.0,-1.765625
1695397395906,-0.0847168,-1.4656372,0.14471436,2.140625,22.328125,20.5
1695397395946,-0.5949707,-1.3640747,-0.13800049,-15.0,-32.6875,13.765625
1695397395986,-0.59375,-1.2024536,0.22503662,-6.875,-28.296875,-1.734375
1695397396026,-0.44702148,-1.1956177,0.09490967,-12.453125,-0.265625,11.84375
1695397396066,-0.5004883,-0.8413695999999999,0.057556152,-7.875,-22.84375,0.9375
1695397396106,-0.27880859999999996,-0.84210205,0.20111084,-7.375,-14.203125,1.8125
1695397396146,-0.45361328,-0.67193604,0.12078857400000001,-10.234375,-8.21875,9.4375
1695397396186,-0.38842773,-0.49713135,0.12420654,-2.734375,-5.328125,3.515625
1695397396226,-0.33789062,-0.77130127,0.19207764,-1.625,3.140625,-3.5625
1695397396266,-0.49829102,-0.74591064,0.28582764,1.96875,10.421875,-2.328125
1695397396306,-0.30224609999999996,-0.6392211999999999,0.11053467,-7.125,9.515625,-6.5
1695397396346,-0.20263672,-0.7307739000000001,0.20330810000000002,-3.21875,7.765625,-1.34375
1695397396386,-0.36523438,-0.7588501,0.21478271,-0.75,-2.671875,-4.28125
1695397396426,-0.40673828,-0.89508057,0.26287842,-2.84375,-4.15625,-11.515625
1695397396466,-0.47705078,-0.8579711999999999,0.26165770000000005,-5.09375,-2.625,-7.1875
1695397396506,-0.34399414,-0.8826294,0.38592529999999997,-12.609375,-14.109375,-8.609375
1695397396546,-0.43603516,-0.92755127,0.40789795,-24.15625,-3.90625,-7.421875
1695397396586,-0.5554199000000001,-0.99786377,0.4130249,-20.625,-7.8125,-12.109375
1695397396626,-0.74731445,-1.1382446000000002,-0.54473877,-7.796875,11.484375,1.6875
1695397396666,-0.39501953,-1.050354,-0.362854,23.203125,2.921875,16.40625
1695397396706,-0.5366211,-1.5300903000000001,-0.018371582,30.09375,-8.84375,13.0625
1695397396746,-0.8256836,-1.2620239,0.14276123,-7.640625,-31.59375,7.921875
1695397396786,-0.4338379,-0.9727173000000001,0.17816162,17.078125,1.375,33.015625
1695397396826,-0.32055664,-0.616272,-0.003967285,10.453125,-22.890625,5.9375
1695397396866,-0.5986328000000001,-0.9824828999999999,0.14593506,10.609375,-12.375,-3.453125
1695397396906,-0.33862305,-0.8255005,-0.010559082,-8.1875,-8.96875,6.59375
1695397396946,-0.38720703,-0.7788695999999999,0.0119018555,0.78125,-3.1875,1.984375
1695397396986,-0.38818359999999996,-0.76690674,0.11370849599999999,-2.515625,-4.90625,4.53125
1695397397026,-0.38549805,-0.81817627,0.093688965,-15.359375,-3.59375,2.296875
1695397397066,-0.45996094,-0.70562744,0.11663818,-19.828125,-4.296875,1.109375
1695397397106,-0.43774414,-0.57818604,0.14862060000000002,-25.078125,-2.296875,0.65625
1695397397146,-0.43139648,-0.7168579,0.09442139,-26.734375,0.453125,-1.015625
1695397397186,-0.40258790000000005,-0.6001586999999999,0.07122803,-19.9375,-9.109375,-4.546875
1695397397226,-0.5883789,-0.67266846,0.22039795,0.265625,12.203125,2.75
1695397397266,-0.47387695,-1.2005005,0.01727295,-3.03125,2.4375,-8.15625
1695397397306,-0.091308594,-1.1311646,-0.30059814,-2.09375,-36.984375,8.234375
1695397397346,-0.39135742,-0.8779906999999999,0.66815186,33.671875,5.046875,5.3125
1695397397386,-1.2412108999999998,-1.8660278000000001,-0.06451416,-23.5625,-14.078125,-33.796875
1695397397426,0.10766601599999999,-1.159729,0.45452879999999996,9.34375,15.25,26.78125
1695397397466,-0.6594238,-1.0632935,0.031433105,-10.6875,-36.109375,-5.265625
1695397397506,-0.6821289,-1.1228638000000002,0.39886475,-8.15625,-15.625,-6.984375
1695397397546,-0.4880371,-0.75665283,0.23992919999999998,10.0625,9.734375,14.921875
1695397397586,-0.10766601599999999,-0.4524536,0.11151123,4.40625,10.265625,-1.140625
1695397397626,-0.33666992,-0.6968384,0.1852417,3.953125,-5.5625,-2.84375
1695397397666,-0.2980957,-0.7205199999999999,0.20257568,-1.265625,-9.765625,-4.265625
1695397397706,-0.23095703,-0.5076294,0.17327881,5.0625,14.0,-2.53125
1695397397746,-0.31176758,-0.6211548000000001,0.15081787,1.6875,10.03125,-4.5625
1695397397786,-0.28515625,-0.8862915000000001,0.1828003,4.078125,-11.53125,-9.71875
1695397397826,-0.2541504,-1.031311,0.21160889,4.234375,10.640625,-0.0625
1695397397866,-0.55444336,-1.1663208,0.11785889,-0.25,1.828125,-1.90625
1695397397906,-0.8022461,-1.1121216,-0.09259033,5.59375,3.609375,-0.28125
1695397397946,-0.38061523,-1.4356079,0.034362792999999996,-3.25,-1.703125,-3.703125
1695397397986,-0.6442871,-1.2798462,0.08563232400000001,-4.90625,-10.546875,11.109375
1695397398026,-0.94262695,-0.97076416,0.028503418,10.25,12.0,3.6875
1695397398066,-0.44140625,-0.94976807,0.20037842,8.703125,22.078125,-2.109375
1695397398106,-0.42382812,-0.8233031999999999,0.12982178,-1.46875,4.6875,-0.75
1695397398146,-0.5114746,-0.94195557,0.03289795,-0.28125,4.1875,-2.015625
1695397398186,-0.23364258,-0.6758423000000001,0.16009521,2.28125,0.828125,9.5
1695397398226,-0.31518555,-0.5203247000000001,0.20404053,-5.46875,-0.734375,1.953125
1695397398266,-0.42993164,-0.7283324999999999,0.078308105,-2.90625,0.609375,1.0625
1695397398306,-0.43017578,-0.7786255,0.1786499,-6.875,-4.515625,1.375
1695397398346,-0.34960938,-0.73394775,0.18963623,-3.109375,-7.046875,-0.4375
1695397398386,-0.39697266,-0.64630127,0.18621826,-2.0,-7.828125,2.875
1695397398426,-0.6699219,-0.8711548000000001,0.06781006,-4.171875,-4.796875,-3.0
1695397398466,-0.35131836,-1.0903931,-0.0037231445,3.890625,-9.390625,-8.578125
1695397398506,-0.10253906,-0.9998169,0.0079956055,1.46875,-28.40625,5.84375
1695397398546,-0.5656738,-0.91192627,0.64276123,13.25,1.34375,-4.59375
1695397398586,-1.142334,-1.8093872,0.043395996,-14.265625,-23.5625,-20.078125
1695397398626,-0.10546875,-1.0928345,0.24725342,12.96875,10.875,11.09375
1695397398666,-0.6894531,-1.1917114,0.08807373,1.046875,-18.234375,0.890625
1695397398706,-0.5131836,-1.0425415,0.34490967,-10.078125,-21.046875,-0.59375
1695397398746,-0.54785156,-0.67437744,0.20623779999999997,4.59375,9.96875,7.59375
1695397398786,-0.26708984,-0.505188,0.07928467,0.78125,8.09375,1.59375
1695397398826,-0.18408203,-0.65216064,0.13104248,-0.015625,3.03125,-4.171875
1695397398866,-0.31640625,-0.64849854,0.19915771,3.703125,0.3125,-4.125
1695397398906,-0.37084959999999995,-0.6187134,0.20135498,3.421875,7.859375,-0.109375
1695397398946,-0.42211914,-0.68414307,0.23822021,8.609375,15.4375,-3.546875
1695397398986,-0.15551758,-0.8809203999999999,0.07684326,-7.5,-3.234375,-5.40625
1695397399026,-0.3659668,-1.1436157,0.054870605,2.140625,2.34375,3.109375
1695397399066,-0.80688477,-1.053772,0.04827881,7.75,-1.125,4.375
1695397399106,-0.546875,-1.1431274,-0.021057128999999997,18.296875,10.28125,2.515625
1695397399146,-0.5500488,-1.5100708,0.07220459,0.734375,-1.796875,1.15625
1695397399186,-0.7453613,-1.0806274,0.21746826,-1.03125,-3.765625,8.359375
1695397399226,-0.6484375,-0.88165283,0.17547607,-0.1875,19.25,-2.234375
1695397399266,-0.29833984,-1.1082153000000001,0.020690918,-10.515625,4.46875,-8.546875
1695397399306,-0.48779297,-0.88165283,0.015808105,-2.34375,-6.984375,5.5625
1695397399346,-0.5979004,-0.6868286,0.19647217,-3.828125,-0.640625,3.09375
1695397399386,-0.21875,-0.72247314,0.16278076,-2.875,2.109375,4.765625
1695397399426,-0.24169922,-0.60821533,0.14447021,-6.765625,-11.921875,11.53125
1695397399466,-0.44238279999999996,-0.46954346,0.09246826,-5.140625,-8.484375,0.1875
1695397399506,-0.23364258,-0.64263916,0.018981934,5.875,-2.703125,2.75
1695397399546,-0.43237305,-0.6643677,0.27850342,5.65625,-10.296875,5.953125
1695397399586,-0.5761719,-0.8027954,0.0021362305,-4.234375,-6.328125,-5.9375
1695397399626,-0.32006836,-1.2556763000000002,-0.19586182,5.25,-29.03125,-5.078125
1695397399666,-0.29907227,-1.2971802,0.20867919999999998,6.953125,-22.46875,9.703125
1695397399706,-0.77075195,-1.2683716,0.25775146,12.546875,10.140625,2.171875
1695397399746,-0.5361328000000001,-1.2022095,0.18963623,3.1875,5.71875,-2.015625
1695397399786,-0.45898438,-1.4695435,0.04144287,-0.0625,-5.9375,-4.328125
1695397399826,-0.5332031,-1.1289673,0.24041748,-5.515625,-3.34375,0.640625
1695397399866,-0.50390625,-0.78692627,0.17889404,-6.375,-3.828125,3.078125
1695397399906,-0.23583984,-0.7522583,0.13739014,-0.359375,-2.171875,0.375
1695397399946,-0.31030273,-0.7744751,0.12762451,4.578125,-4.734375,-1.71875
1695397399986,-0.41748047,-0.7510376,0.19012451,6.0625,5.65625,-2.53125
1695397400026,-0.38012695,-0.65411377,0.14178467,10.375,7.921875,-2.0625
1695397400066,-0.29663086,-0.6585083,0.0993042,8.15625,5.265625,-7.75
1695397400106,-0.26123047,-0.7280884,0.13031006,1.828125,-0.671875,-5.3125
1695397400146,-0.24829102,-0.83795166,0.08660889,0.21875,0.578125,-2.625
1695397400186,-0.40942383,-0.7124634,0.11053467,7.765625,-3.1875,-4.75
1695397400226,-0.26342773,-0.8921509,0.07000732400000001,-2.046875,-8.109375,-8.046875
1695397400266,-0.41552734,-1.1248169,-0.019836426,6.375,0.859375,-1.015625
1695397400306,-0.7192383000000001,-0.9678344999999999,-0.02960205,-0.59375,-6.1875,11.0
1695397400346,-0.8544921999999998,-1.3887329,-0.011291503999999999,15.953125,8.296875,1.640625
1695397400386,-0.421875,-1.5493774,0.039733887,-5.0,-7.390625,-3.34375
1695397400426,-0.532959,-0.989563,0.20526123,4.3125,0.5,15.375
1695397400466,-0.97631836,-0.92388916,0.10369873,-0.109375,5.15625,-4.625
1695397400506,-0.39379883,-1.0005493,-0.07330322,-9.609375,-4.453125,-8.234375
1695397400546,-0.12963867,-0.80059814,0.08636474599999999,-1.484375,-8.234375,9.984375
1695397400586,-0.3828125,-0.5227661,0.1359253,-13.140625,-4.296875,5.5625
1695397400626,-0.48217773,-0.67974854,0.09320068,-5.125,3.921875,1.71875
1695397400666,-0.29296875,-0.72247314,-0.032287598,-8.78125,-5.75,-0.015625
1695397400706,-0.38305664,-0.6506958,0.18109131,-9.75,-9.296875,1.46875
1695397400746,-0.53808594,-0.7427368000000001,0.27166748,-14.578125,-8.0625,-0.140625
1695397400786,-0.44335938,-0.75372314,0.08319092,-4.390625,-3.625,-2.59375
1695397400826,-0.38427734,-0.81695557,0.036071777,-8.546875,-9.53125,-3.203125
1695397400866,-0.32299805,-1.0608520000000001,-0.08795166,-4.1875,-31.953125,-8.4375
1695397400906,-0.34375,-0.96051025,0.14324951,5.875,-24.796875,6.078125
1695397400946,-0.4506835999999999,-0.8682251,0.4557495,8.1875,10.15625,3.0625
1695397400986,-0.7902832,-1.5632935,-0.11968994,-15.515625,-25.796875,-22.53125
1695397401026,-0.2006836,-1.4248657,0.5482788000000001,12.8125,1.734375,23.078125
1695397401066,-0.79125977,-0.8184204,-0.16387939999999998,-20.703125,-30.0,-1.421875
1695397401106,-0.3515625,-1.291565,0.40740967,-7.515625,-23.015625,-7.21875
1695397401146,-0.38793945,-0.87994385,0.21405029999999997,-27.359375,-17.9375,0.328125
1695397401186,-0.2626953,-0.6865845,0.14935303,-8.953125,-17.5,0.140625
1695397401226,-0.25219727,-0.80963135,0.14959717,-4.015625,-24.015625,-3.0
1695397401266,-0.31152344,-0.84942627,0.322937,-10.265625,-25.203125,-0.328125
1695397401306,-0.47949220000000004,-0.645813,0.25384520000000005,-8.875,-20.515625,3.046875
1695397401346,-0.29370117,-0.722229,0.26287842,-9.640625,-22.234375,-1.34375
1695397401386,-0.39501953,-0.9067993000000001,0.42303467,-18.875,-30.96875,-4.421875
1695397401426,-0.70947266,-0.8423461999999999,0.36810303,-5.0625,-11.90625,-1.484375
1695397401466,-0.41186523,-0.91290283,0.4755249,-19.96875,-28.40625,-15.0
1695397401506,-0.44506836,-1.0376587,0.016540527,-25.46875,-42.671875,-8.53125
1695397401546,-0.41870117,-1.2661743,-0.28546143,-27.40625,-27.375,-5.65625
1695397401586,-0.49951172,-1.2903441999999998,-0.16705322,-16.90625,-52.703125,14.546875
1695397401626,-0.55126953,-1.6065063,0.0119018555,-11.28125,-30.28125,5.640625
1695397401666,-0.38354492,-1.4248657,-0.15875244,-25.375,-55.859375,24.8125
1695397401706,-0.6516113,-0.9089966,0.22601318,-12.53125,-48.859375,28.40625
1695397401746,-0.2919922,-0.84332275,-0.05987549,-33.8125,-59.640625,-2.640625
1695397401786,-0.44750977,-0.829895,0.08294678,-13.875,-48.6875,15.1875
1695397401826,-0.29174805,-0.66070557,0.05731201,-16.796875,-54.09375,12.546875
1695397401866,-0.5776366999999999,-0.7893677,0.12884521,-28.359375,-51.3125,-1.5625
1695397401906,-0.40551758,-0.94903564,0.050231934000000006,-19.265625,-41.59375,-0.21875
1695397401946,-0.40600586,-0.8196411,0.28704834,-20.03125,-38.015625,6.53125
1695397401986,-0.69628906,-0.7300415,0.19720459,-24.4375,-32.484375,1.296875
1695397402026,-0.3581543,-0.8062134,0.20062256,-17.203125,-22.328125,-4.359375
1695397402066,-0.3203125,-0.65338135,0.28729248,-9.328125,-21.640625,9.5625
1695397402106,-0.7363281,-0.5474243000000001,0.22747803,-18.734375,-28.078125,-3.9375
1695397402146,-0.6296387,-0.78009033,0.24847412,-14.78125,-16.03125,-9.171875
1695397402186,-0.5871582,-0.6423949999999999,0.37469482,-14.734375,-11.140625,-2.03125
1695397402226,-0.7685546999999999,-0.49664307,0.31927490000000003,-6.234375,-1.046875,-7.5
1695397402266,-0.72753906,-0.68756104,0.30535890000000004,-7.25,6.65625,-6.4375
1695397402306,-0.39208984,-0.83258057,0.29608154,-7.5,-0.5,-5.40625
1695397402346,-0.70410156,-0.84991455,0.2567749,2.5625,-11.21875,-6.109375
1695397402386,-0.5090332000000001,-1.3591919,-0.17144775,12.703125,-7.484375,-20.5625
1695397402426,-0.010986328,-1.8428345000000002,0.13006592,34.6875,19.875,5.34375
1695397402466,-0.22802734,-1.4666138000000002,0.12371826,13.125,4.078125,26.75
1695397402506,-0.4440918,-0.9692993000000001,0.050231934000000006,2.421875,-6.515625,26.015625
1695397402546,-0.560791,-0.80059814,-0.12066650400000001,2.640625,-20.84375,4.609375
1695397402586,0.16577148,-1.3560181,0.44232178,22.1875,5.109375,4.375
1695397402626,-0.720459,-0.88775635,0.16156006,-8.875,-9.71875,37.234375
1695397402666,-0.6755371,-0.6289673000000001,0.018981934,-5.984375,-10.296875,-15.265625
1695397402706,0.025390625,-1.2932739,0.24505615,4.203125,3.234375,-4.609375
1695397402746,-0.49951172,-0.7329711999999999,0.1383667,-2.9375,-9.5,16.71875
1695397402786,-0.31591797,-0.6148070999999999,0.29071045,0.328125,-3.453125,-1.46875
1695397402826,-0.31420898,-0.7986449999999999,0.10076904,-8.859375,-2.890625,-5.453125
1695397402866,-0.32128906,-0.7456665,0.21697998,0.15625,-0.625,-7.96875
1695397402906,-0.29052734,-0.5689086999999999,0.19451904,3.3125,-0.140625,-8.46875
1695397402946,-0.26879883,-0.68536377,0.15179443,-5.515625,-6.546875,-9.734375
1695397402986,-0.41894529999999996,-0.6643677,0.12225342,2.578125,-5.671875,-12.65625
1695397403026,-0.29003906,-0.7998656999999999,-0.002746582,4.390625,-3.65625,-9.6875
1695397403066,-0.31518555,-1.2720337,0.34857178,-0.796875,-1.359375,-14.3125
1695397403106,-0.80078125,-1.4578247,-0.24810791,-2.546875,-24.1875,-4.5
1695397403146,-0.5744629,-0.95635986,-0.031066895,3.84375,-2.921875,19.796875
1695397403186,-0.43408203,-1.0872191999999998,0.262146,5.484375,8.75,12.21875
1695397403226,-0.7355957,-1.0484009,0.20965576,-6.78125,-7.84375,-2.109375
1695397403266,-0.8425292999999999,-1.3206177,-0.11260986,0.796875,1.453125,-5.015625
1695397403306,-0.23803711,-0.9314575,-0.034484863,1.078125,1.90625,6.09375
1695397403346,-0.31152344,-0.60821533,0.1671753,4.15625,-4.9375,10.109375
1695397403386,-0.64282227,-0.7805786,0.016052246000000003,0.890625,-0.390625,-4.0625
1695397403426,-0.24731445,-0.7781372,-0.05987549,9.421875,-0.515625,5.84375
1695397403466,-0.20190429999999998,-0.57159424,0.14862060000000002,6.328125,-3.6875,8.8125
1695397403506,-0.4428710999999999,-0.65289307,0.12152099599999999,-6.53125,-8.03125,3.65625
1695397403546,-0.43115234,-0.7139281999999999,0.11126709,-1.140625,-3.640625,0.90625
1695397403586,-0.28491209999999995,-0.6897583,0.04071045,-0.609375,-14.234375,1.828125
1695397403626,-0.47314453,-0.8945923000000001,-0.08551025400000001,-5.046875,-17.734375,-1.59375
1695397403666,-0.29931640000000004,-1.1245728000000002,-0.09014892599999999,7.984375,-21.34375,-8.5
1695397403706,-0.29931640000000004,-1.3154907,0.230896,3.828125,-5.96875,4.9375
1695397403746,-0.69384766,-1.2461548,0.121276855,-3.734375,-0.546875,-0.53125
1695397403786,-0.5644531,-1.4297485,0.014343261999999999,-4.015625,-8.34375,-7.125
1695397403826,-0.16918945,-1.2241821000000002,0.15716553,-19.265625,-11.640625,9.71875
1695397403866,-0.7553711,-1.0039673,0.11126709,7.640625,-14.890625,2.328125
1695397403906,-0.2861328,-1.2503052,0.33343506,-15.609375,-12.703125,-6.640625
1695397403946,-0.5019531,-0.67974854,0.074401855,-13.921875,-3.171875,6.046875
1695397403986,-0.30712890000000004,-0.5828247,0.19671631,5.265625,-2.609375,-8.578125
1695397404026,-0.19189453,-0.8858031999999999,0.18817139,-2.203125,-14.34375,-9.4375
1695397404066,-0.30517578,-0.72540283,0.21258545,-7.359375,-9.40625,-4.46875
1695397404106,-0.31152344,-0.61846924,0.109558105,-7.890625,-5.96875,-2.375
1695397404146,-0.29760742,-0.81036377,0.25482178,-8.921875,-14.75,-10.53125
1695397404186,-0.41894529999999996,-0.9468384,0.36419678,-17.890625,-17.984375,-11.078125
1695397404226,-0.5251465,-0.9456177,0.49090576,-14.15625,-7.84375,-6.734375
1695397404266,-0.38134766,-0.93634033,0.42401123,-14.84375,-21.984375,-14.828125
1695397404306,-0.09838867,-0.91973877,0.32000732,-21.84375,-21.625,-13.09375
1695397404346,-0.25439453,-0.9873656999999999,-0.40753174,-23.0,-37.734375,2.734375
1695397404386,-0.4633789000000001,-0.9678344999999999,-0.58599854,-8.8125,-56.640625,10.0
1695397404426,-0.7722168,-1.3403931,0.08050537,24.609375,-30.53125,18.71875
1695397404466,-0.5593262,-1.569397,-0.03765869,-37.859375,-56.484375,-8.203125
1695397404506,-0.57714844,-1.1343383999999999,-0.08868408,-9.96875,-46.625,17.109375
1695397404546,-0.8474120999999999,-1.0088501,0.13568115,-15.828125,-39.015625,29.703125
1695397404586,-0.39086914,-1.0076294,-0.04815674,-28.609375,-52.0,-12.0
1695397404626,-0.35058594,-0.97369385,0.11688232400000001,-14.34375,-38.0,9.90625
1695397404666,-0.49731445,-0.644104,-0.059387207000000004,-29.703125,-40.984375,6.4375
1695397404706,-0.29345703,-0.79522705,0.022644043,-24.578125,-46.0,-7.296875
1695397404746,-0.55126953,-0.8743286,0.10101318,-23.625,-39.546875,0.484375
1695397404786,-0.45605470000000004,-0.81817627,0.12591553,-30.734375,-40.34375,-3.328125
1695397404826,-0.31445312,-0.7984009,0.042663574,-27.6875,-36.84375,-1.640625
1695397404866,-0.4963379,-0.73394775,0.23431396,-19.953125,-36.453125,3.1875
1695397404906,-0.54663086,-0.78131104,0.10223389,-28.453125,-25.71875,-4.78125
1695397404946,-0.4411621,-0.7293090999999999,-0.018371582,-27.96875,-33.4375,-1.546875
1695397404986,-0.4506835999999999,-0.6638794,0.26898193,-8.96875,-28.359375,-1.421875
1695397405026,-0.7573241999999999,-0.5388794,0.29583740000000003,-22.40625,-34.734375,-2.75
1695397405066,-0.7561035,-0.7432251,0.37738037,-16.625,-20.53125,-0.703125
1695397405106,-0.58813477,-0.58428955,0.28948975,-20.046875,-12.90625,-7.515625
1695397405146,-0.6945800999999999,-0.58795166,0.27337646,-4.59375,-10.078125,0.0625
1695397405186,-1.1218261999999999,-0.55914307,0.27581787,-7.5,-1.015625,-9.203125
1695397405226,-0.7480469,-1.5681763000000002,0.1281128,14.09375,26.46875,-42.203125
1695397405266,0.34326172,-1.4334106000000002,-0.24200439999999998,20.953125,17.1875,15.03125
1695397405306,-0.54907227,-1.5647583,-0.06524658,11.859375,-24.65625,12.078125
1695397405346,-0.27880859999999996,-1.242981,0.06048584,12.0,1.5,21.1875
1695397405386,-0.38012695,-1.0142212,0.17181396,7.5625,-8.125,24.171875
1695397405426,-0.6311035,-0.9873656999999999,0.055603027,16.96875,-6.703125,6.953125
1695397405466,-0.18359375,-0.9495239,0.15765381,9.40625,7.234375,15.828125
1695397405506,-0.5529785,-0.73443604,0.11883545,5.09375,-2.015625,22.375
1695397405546,-0.3527832,-0.7788695999999999,0.19915771,9.296875,3.0,-2.6875
1695397405586,-0.37036133,-1.0808716,0.152771,2.578125,-7.625,3.96875
1695397405626,-0.4255371,-0.81573486,0.19281006,-9.28125,-4.03125,2.609375
1695397405666,-0.35058594,-0.6956177,0.13323975,-1.453125,3.0625,0.203125
1695397405706,-0.37231445,-0.7727661,0.23333739999999997,0.1875,1.46875,-4.234375
1695397405746,-0.38720703,-0.85284424,0.24041748,-7.25,5.875,-8.96875
1695397405786,-0.40014648,-0.5574340999999999,0.1774292,-4.453125,16.109375,-7.5625
1695397405826,-0.25683594,-0.5010376,0.01776123,-6.953125,6.609375,-6.796875
1695397405866,-0.20166016,-0.75323486,0.14862060000000002,4.640625,7.140625,-11.4375
1695397405906,-0.28198242,-0.8479614,0.08416748,2.6875,2.78125,-7.28125
1695397405946,-0.42456055,-1.1296997,0.15374756,0.796875,5.640625,-2.359375
1695397405986,-0.5930175999999999,-1.1087036,-0.2576294,0.34375,-8.96875,-0.859375
1695397406026,-0.5241699000000001,-1.2952270000000001,-0.0005493164,5.640625,6.5,12.375
1695397406066,-0.5559082,-1.3794556,0.44866943,6.875,-5.03125,13.734375
1695397406106,-0.90185547,-0.99346924,-0.07647705,-4.703125,-15.265625,-1.328125
1695397406146,-0.44140625,-0.96343994,0.12713623,21.671875,16.5,14.609375
1695397406186,-0.39404297,-0.9077759,0.22210693,3.859375,-3.0625,-4.0625
1695397406226,-0.81396484,-0.89801025,0.031677246,-15.84375,0.5625,-8.46875
1695397406266,-0.23608398,-0.7962036,0.018981934,1.765625,6.9375,12.484375
1695397406306,-0.26391602,-0.5154419,0.13812256,-3.90625,5.65625,-2.4375
1695397406346,-0.41699220000000004,-0.6038208,0.15765381,-7.71875,4.125,-4.0625
1695397406386,-0.34545898,-0.6824340999999999,0.02508545,-11.75,-3.25,-0.515625
1695397406426,-0.36987305,-0.68536377,0.081970215,6.078125,-3.515625,0.4375
1695397406466,-0.33154297,-0.74224854,-0.07769775400000001,-2.640625,-18.578125,5.390625
1695397406506,-0.5119629,-1.0671997,-0.018371582,-3.75,-25.625,-6.765625
1695397406546,-0.44360352,-1.1289673,0.13275146,13.203125,-7.359375,5.125
1695397406586,-0.48339844,-1.3198853000000002,0.19134521,6.703125,1.46875,-3.90625
1695397406626,-0.43408203,-1.7119751,0.039733887,11.046875,-12.625,0.78125
1695397406666,-0.6022949000000001,-1.1748657,0.31097412,-10.859375,1.5625,12.953125
1695397406706,-0.7026366999999999,-1.112854,0.08660889,-3.765625,-9.9375,-5.359375
1695397406746,-0.21997070000000005,-1.1133423,0.24993896,-2.359375,-3.453125,1.9375
1695397406786,-0.54248047,-0.59381104,0.17987060000000002,-4.890625,1.34375,12.59375
1695397406826,-0.31054688,-0.6223755,0.089782715,0.703125,0.0,-2.328125
1695397406866,-0.22070312,-0.7715454,0.13690186,-0.15625,-0.890625,-0.453125
1695397406906,-0.21484375,-0.66656494,0.14178467,0.875,3.8125,1.375
1695397406946,-0.31225586,-0.5413208,0.20574951,7.96875,10.21875,-0.234375
1695397406986,-0.38989258,-0.46319579999999994,0.11175537,-1.5,-0.296875,-5.046875
1695397407026,-0.2548828,-0.80059814,0.038024902,15.671875,4.671875,-11.5625
1695397407066,-0.29077148,-0.96343994,0.06341553,9.296875,7.90625,-5.515625
1695397407106,-0.40771484,-1.0286255,0.022644043,1.6875,5.375,-3.765625
1695397407146,-0.58862305,-1.2896118,-0.15484619,14.109375,10.609375,4.109375
1695397407186,-0.53808594,-1.2949829,0.051452637,11.5625,-0.734375,5.78125
1695397407226,-0.7246094,-1.5588989,0.0028686523,8.75,-4.578125,-2.015625
1695397407266,-0.5180664,-1.0960083,0.16351318,-6.5,0.578125,10.21875
1695397407306,-0.7351074000000001,-0.78497314,0.11785889,1.296875,9.015625,1.21875
1695397407346,-0.49047852,-1.0027466,-0.07550049,2.828125,10.828125,-13.28125
1695397407386,-0.25219727,-0.96661377,0.058776855,11.359375,4.921875,8.984375
1695397407426,-0.44726562,-0.65704346,0.08734131,-4.15625,3.421875,-0.015625
1695397407466,-0.45751953,-0.81036377,0.05633545,-0.890625,3.96875,1.984375
1695397407506,-0.2783203,-0.8496703999999999,0.02532959,-7.0625,-3.875,2.9375
1695397407546,-0.35473633,-0.58599854,0.15570068,-12.40625,-2.078125,4.015625
1695397407586,-0.4140625,-0.503479,0.17205810000000002,-19.34375,-4.09375,-2.140625
1695397407626,-0.32397459999999995,-0.55303955,0.09881592,-12.0,-18.9375,-2.296875
1695397407666,-0.54833984,-0.7490845,0.08831787,2.328125,-5.71875,-1.296875
1695397407706,-0.37548828,-0.9429320999999999,-0.16265869,-6.171875,-9.96875,-1.46875
1695397407746,-0.44311523,-1.395813,-0.013244628999999999,9.09375,-25.765625,-2.296875
1695397407786,-0.38012695,-1.1463013000000002,0.22064209,5.25,1.78125,3.59375
1695397407826,-0.4116210999999999,-0.94366455,0.26800537,-4.78125,12.640625,-0.515625
1695397407866,-0.4868164000000001,-1.736145,-0.020568848,1.515625,-43.640625,-13.28125
1695397407906,-0.57250977,-1.225647,0.31732178,2.03125,-1.828125,12.734375
1695397407946,-0.7937012,-0.9224243000000001,0.008483886999999999,-3.078125,-6.671875,0.0625
1695397407986,-0.24072266,-0.9627075,0.08953857400000001,-1.796875,-5.125,0.9375
1695397408026,-0.39306640000000004,-0.7949829,0.22283936,-3.59375,2.171875,4.671875
1695397408066,-0.32397459999999995,-0.69317627,0.12152099599999999,-2.53125,-1.6875,2.59375
1695397408106,-0.26708984,-0.6765747,0.16375732,-2.09375,2.25,-1.546875
1695397408146,-0.40063477,-0.7420044,0.15863037,-5.015625,6.921875,-2.875
1695397408186,-0.33447266,-0.60479736,0.22479248,-3.234375,11.53125,-5.484375
1695397408226,-0.17358398,-0.5803833,0.1083374,1.078125,4.34375,-6.328125
1695397408266,-0.31494140000000004,-0.83013916,0.16253662,-8.21875,-9.0625,-11.890625
1695397408306,-0.43066406,-0.74420166,0.16595459,5.75,-0.5625,-8.203125
1695397408346,-0.40258790000000005,-1.2102661,0.10589599599999999,8.484375,2.984375,-10.078125
1695397408386,-0.53222656,-1.0786743,-0.32965088,4.40625,-5.515625,-3.015625
1695397408426,-0.41503906,-1.0420532,-0.08551025400000001,2.875,-2.453125,10.03125
1695397408466,-0.40112305,-1.0776978000000002,0.33343506,15.609375,-0.84375,15.28125
1695397408506,-1.3029785,-1.5022583,0.15838623,-3.4375,2.375,-9.421875
1695397408546,-0.41894529999999996,-1.2112427,-0.10333252,-6.0,0.0625,-0.09375
1695397408586,-0.45751953,-0.8518677,0.24676514,4.6875,8.5625,15.703125
1695397408626,-0.6513671999999999,-0.8399048000000001,0.12884521,-15.9375,1.84375,-19.328125
1695397408666,-0.38061523,-0.9776001,0.04095459,0.265625,-4.984375,8.046875
1695397408706,-0.22949219,-0.5527954,0.13153076,-9.6875,0.90625,2.109375
1695397408746,-0.5148925999999999,-0.7095336999999999,0.109558105,-5.703125,3.75,-0.796875
1695397408786,-0.2746582,-0.7630005,0.06390381,-4.265625,-4.8125,3.5625
1695397408826,-0.2956543,-0.64678955,0.09197998,-1.9375,-11.265625,2.890625
1695397408866,-0.51831055,-0.5984497,0.24383545,-2.96875,-4.84375,0.796875
1695397408906,-0.48461914,-0.64801025,0.20135498,-0.28125,-1.59375,-2.5625
1695397408946,-0.48291016,-0.7984009,0.026550293,-5.890625,-4.609375,-2.671875
1695397408986,-0.22949219,-0.8428344999999999,-0.07598877,-6.046875,-19.515625,-2.359375
1695397409026,-0.3232422,-1.1043091,-0.06549072,5.609375,-34.671875,5.90625
1695397409066,-0.6147461,-1.0913696000000002,0.19500732,13.765625,2.96875,3.078125
1695397409106,-0.532959,-1.0991821000000002,0.33197020000000005,-9.3125,-1.515625,-1.828125
1695397409146,-0.15600586,-1.484436,0.06512451,8.640625,-14.484375,0.890625
1695397409186,-0.80249023,-1.2266235,0.19110107,-22.125,-25.578125,8.96875
1695397409226,-0.66381836,-1.0337524,0.20501709,-0.1875,-17.140625,-4.5
1695397409266,-0.27001953,-1.0869751,0.19232178,-2.8125,-11.546875,4.34375
1695397409306,-0.33251953,-0.7461548000000001,0.21038818,-5.21875,-13.03125,8.546875
1695397409346,-0.43969727,-0.78570557,0.18084717,-2.84375,-13.890625,-3.1875
1695397409386,-0.30102540000000005,-0.83184814,0.07904053,-0.796875,-19.25,-3.328125
1695397409426,-0.2685547,-0.83551025,0.1473999,-2.546875,-12.578125,1.609375
1695397409466,-0.3503418,-0.7107544,0.23626709,-5.90625,-11.65625,-4.1875
1695397409506,-0.28051758,-0.7415161,0.15643310000000002,-14.234375,-16.203125,-5.078125
1695397409546,-0.3359375,-0.84161377,0.28216553,-5.09375,-7.5625,-1.375
1695397409586,-0.44482422,-0.6939086999999999,0.21746826,-13.78125,-21.609375,-2.34375
1695397409626,-0.26733398,-0.8501586999999999,0.13299560000000002,-8.28125,-17.859375,-6.96875
1695397409666,-0.4506835999999999,-0.84454346,-0.036193848,-14.59375,-15.046875,-1.9375
1695397409706,-0.5671387,-1.0671997,-0.07061767599999999,-9.203125,-7.953125,1.625
1695397409746,-0.5522461,-1.2263794,-0.13555908,6.4375,-15.296875,0.78125
1695397409786,-0.87768555,-1.3057251,0.5663451999999999,0.296875,-9.546875,7.671875
1695397409826,-0.6386719,-1.4949341,-0.023986816,-32.953125,-15.53125,-24.703125
1695397409866,-0.29760742,-1.112854,-0.04058838,5.328125,-19.953125,17.96875
