# Sensor type: Respeck
# Activity type: Standing
# Activity subtype: Hyperventilating
# Subject id: s2027011
# Notes: 
timestamp,accel_x,accel_y,accel_z,gyro_x,gyro_y,gyro_z
1695487539239,-0.14086914,-0.9902954,0.042419434,-3.765625,6.25,-2.484375
1695487539277,-0.099609375,-0.99102783,0.036071777,-4.84375,4.9375,-2.140625
1695487539312,-0.16357422,-1.0322876,0.022155762,-1.703125,1.984375,-3.859375
1695487539350,-0.1472168,-1.0115356,0.061706543,2.046875,7.328125,-3.140625
1695487539388,-0.17236328,-1.0391235,0.04119873,5.578125,13.078125,-1.21875
1695487539425,-0.13793945,-1.0012817,0.05706787,0.59375,-0.21875,-0.09375
1695487539463,-0.16918945,-1.0440063,0.03363037,-3.5,0.53125,-1.125
1695487539552,-0.16040039,-0.98565674,0.042907715,-4.609375,-0.375,-1.09375
1695487539553,-0.11010742,-0.9741821,0.0680542,-5.890625,-6.9375,-1.890625
1695487539587,-0.20703125,-1.0095825,0.059020996,-1.109375,-7.828125,-1.15625
1695487539625,-0.14794922,-0.99346924,0.043640137,-0.59375,-3.8125,0.328125
1695487539662,-0.18017578,-0.9927368,0.062683105,7.015625,-3.984375,1.671875
1695487539700,-0.11669922,-0.9356079,-0.022521973,2.109375,-10.5625,0.1875
1695487539789,-0.12451172,-0.9248657,-0.047424316,2.125,-9.359375,3.859375
1695487539790,-0.15991211,-0.92755127,0.020690918,7.828125,-2.96875,5.828125
1695487539826,-0.17504883,-1.097229,0.1071167,10.390625,-0.6875,4.890625
1695487539862,-0.096191406,-1.0454712,0.028503418,10.484375,10.546875,0.1875
1695487539900,-0.19677734,-1.1004028,0.06439209,9.90625,9.53125,2.625
1695487539937,-0.12231445,-0.94781494,0.024597168,1.75,9.328125,1.078125
1695487539975,-0.15991211,-0.9981079,0.03704834,1.171875,1.921875,-1.84375
1695487540012,-0.12915039,-1.0308228,0.043640137,-6.0,1.796875,-2.09375
1695487540051,-0.15673828,-0.9985962,0.015563965,-3.296875,4.21875,-2.890625
1695487540101,-0.1315918,-1.0447388,-0.0068969727,3.765625,11.28125,-2.1875
1695487540138,-0.1574707,-0.99713135,0.06488037,5.625,1.078125,-1.28125
1695487540176,-0.15771484,-1.0071411,0.022155762,0.78125,-0.078125,-1.046875
1695487540213,-0.14916992,-1.005188,0.015808105,-4.109375,-2.78125,-0.921875
1695487540251,-0.1665039,-0.9663696,1.8310547E-4,-6.390625,-4.140625,-1.828125
1695487540288,-0.15234375,-1.0462036,0.07879639,-4.3125,-0.3125,-0.171875
1695487540326,-0.15649414,-0.973938,0.018493652,-7.78125,-8.578125,0.3125
1695487540376,-0.11279297,-0.98394775,0.020935059,-7.984375,-12.15625,-1.34375
1695487540413,-0.18115234,-0.9717407,0.050720215,-5.78125,-8.421875,-0.015625
1695487540451,-0.13745117,-0.9956665,0.002380371,7.046875,-10.46875,1.96875
1695487540488,-0.10424805,-0.89801025,-0.023986816,0.0625,-14.453125,2.53125
1695487540526,-0.110839844,-0.9116821,0.047302246,0.03125,-5.90625,5.0
1695487540563,-0.22460938,-1.1030884,0.053894043,4.09375,-3.921875,3.34375
1695487540600,-0.103515625,-1.0108032,0.01751709,3.375,3.828125,1.609375
1695487540651,-0.17480469,-1.0496216,0.0602417,7.75,5.859375,1.796875
1695487540689,-0.13696289,-1.0171509,0.028259277,7.0625,10.953125,0.84375
1695487540726,-0.15307617,-0.986145,0.047790527,5.546875,8.75,0.71875
1695487540763,-0.14941406,-1.0432739,0.047058105,-1.46875,6.796875,-1.40625
1695487540801,-0.13012695,-0.99542236,0.009460449,-4.5,4.6875,-3.4375
1695487540838,-0.12792969,-1.0205688,0.018737793,2.71875,8.671875,-3.15625
1695487540875,-0.18310547,-1.0352173,0.049743652,2.1875,3.9375,-1.9375
1695487540926,-0.09082031,-0.9990845,0.051208496,-5.390625,-1.828125,-3.15625
1695487540963,-0.2211914,-1.0310669,0.015563965,-3.0,-1.640625,-0.765625
1695487541001,-0.17456055,-0.97662354,0.012634277,-1.234375,3.703125,0.6875
1695487541038,-0.119140625,-0.95928955,0.05999756,-4.25,-6.171875,-1.1875
1695487541075,-0.16796875,-0.99957275,0.03338623,-7.046875,-10.515625,-0.296875
1695487541113,-0.14331055,-0.99884033,0.06781006,0.25,-5.765625,-0.578125
1695487541151,-0.13378906,-0.95928955,0.015319824,-9.5,-9.890625,-1.671875
1695487541201,-0.17578125,-1.0137329,0.028747559,7.359375,-10.53125,0.078125
1695487541238,-0.1340332,-0.9446411,0.008239746,4.703125,-8.578125,2.84375
1695487541275,-0.12133789,-0.9031372,-0.00592041,-2.625,-11.71875,3.296875
1695487541313,-0.1850586,-1.0527954,0.0524292,0.109375,-3.8125,1.828125
1695487541351,-0.14477539,-1.0498657,0.045837402,-0.09375,1.28125,-0.125
1695487541388,-0.16015625,-1.0403442,0.07562256,0.578125,4.109375,0.328125
1695487541425,-0.19189453,-0.9937134,0.09906006,0.15625,2.859375,1.625
1695487541475,-0.14135742,-1.0256958,0.07196045,-1.234375,6.359375,-2.109375
1695487541514,-0.16430664,-1.0388794,0.07147217,-2.265625,4.859375,-0.984375
1695487541551,-0.13842773,-1.0003052,0.06341553,-0.59375,3.34375,-2.6875
1695487541588,-0.14453125,-1.0300903,0.085632324,0.8125,10.03125,-1.046875
1695487541626,-0.18652344,-1.0288696,0.08099365,2.875,7.078125,-2.203125
1695487541664,-0.16064453,-0.9927368,0.10028076,0.515625,1.875,-0.265625
1695487541701,-0.15429688,-0.9890747,0.07489014,0.03125,-1.328125,-0.390625
1695487541739,-0.19238281,-1.0132446,0.06072998,-4.875,-1.921875,-1.125
1695487541788,-0.16455078,-0.99224854,0.0836792,-0.921875,-0.5,1.28125
1695487541826,-0.07519531,-0.9973755,0.09661865,-3.0,-5.265625,0.46875
1695487541863,-0.20678711,-0.975647,0.03387451,1.828125,-8.09375,1.3125
1695487541900,-0.12939453,-0.99102783,0.07269287,5.953125,-2.5625,1.609375
1695487541939,-0.1484375,-0.94659424,0.022399902,0.8125,-11.546875,0.65625
1695487541976,-0.13696289,-0.8855591,-0.01739502,-5.875,-19.359375,2.0625
1695487542013,-0.16772461,-1.0288696,0.10614014,12.203125,-0.265625,5.5
1695487542063,-0.08862305,-1.0903931,0.074401855,8.890625,5.015625,2.46875
1695487542101,-0.19995117,-1.0025024,0.04852295,2.75,5.921875,0.921875
1695487542139,-0.15136719,-1.0169067,0.093688965,2.3125,7.203125,0.125
1695487542176,-0.14550781,-1.0134888,0.041931152,-0.828125,5.140625,-0.4375
1695487542213,-0.13867188,-1.0007935,0.050231934,-1.09375,5.09375,-1.59375
1695487542251,-0.11010742,-1.019104,0.04071045,-1.796875,3.828125,-3.65625
1695487542288,-0.15551758,-1.0254517,0.039001465,-0.140625,7.40625,-2.390625
1695487542338,-0.19750977,-1.0278931,0.08734131,0.734375,10.75,-1.625
1695487542376,-0.123535156,-0.96221924,0.059753418,-3.359375,-2.125,-1.375
1695487542413,-0.16699219,-1.0127563,0.07293701,-0.09375,0.515625,-0.96875
1695487542451,-0.1508789,-1.0134888,0.08514404,-8.0,-1.21875,-2.9375
1695487542488,-0.16699219,-0.9807739,0.09564209,-4.140625,1.515625,0.234375
1695487542525,-0.17456055,-0.99957275,0.027038574,-4.375,-5.59375,-1.734375
1695487542564,-0.12524414,-1.006897,0.10296631,-2.34375,-6.5625,-1.15625
1695487542653,-0.21191406,-0.9734497,0.08807373,3.75,-7.28125,0.953125
1695487542654,-0.13916016,-0.95269775,0.027038574,2.609375,-8.953125,1.65625
1695487542689,-0.10668945,-0.8882446,-0.037902832,9.109375,-10.03125,6.828125
1695487542726,-0.1027832,-1.0879517,0.054870605,19.265625,3.328125,4.734375
1695487542763,-0.17236328,-1.0181274,0.06561279,5.125,4.78125,3.265625
1695487542801,-0.18188477,-1.0183716,0.05657959,2.109375,7.15625,-0.34375
1695487542838,-0.13378906,-1.034729,0.015563965,-2.03125,2.859375,0.328125
1695487542889,-0.14746094,-0.99786377,0.018737793,-2.21875,4.15625,-0.375
1695487542926,-0.10522461,-1.0449829,0.04876709,0.546875,5.25,-2.328125
1695487542963,-0.12402344,-1.0059204,0.020446777,-3.234375,1.234375,-1.921875
1695487543000,-0.16308594,-1.0015259,0.0119018555,-1.6875,4.328125,-4.15625
1695487543038,-0.19262695,-1.0540161,0.10662842,6.09375,13.1875,-0.078125
1695487543076,-0.16259766,-1.000061,0.051452637,1.6875,2.875,1.734375
1695487543113,-0.11352539,-0.99224854,0.026306152,-1.34375,-1.78125,-1.296875
1695487543151,-0.15112305,-0.9998169,0.061706543,-5.296875,-1.515625,-1.859375
1695487543201,-0.19799805,-0.9956665,0.07196045,-4.875,-1.875,0.796875
1695487543238,-0.12768555,-1.015686,0.062683105,-6.28125,-4.53125,-1.0
1695487543276,-0.14990234,-0.96051025,0.041931152,-6.828125,-6.109375,-0.59375
1695487543313,-0.15722656,-0.98809814,0.051696777,3.265625,-7.671875,-0.125
1695487543351,-0.1340332,-0.96881104,-0.0020141602,-1.25,-8.734375,1.546875
1695487543388,-0.16064453,-0.8904419,0.04510498,7.40625,-9.90625,1.75
1695487543425,-0.14135742,-0.9656372,-0.0015258789,8.28125,-7.40625,4.75
1695487543476,-0.12792969,-1.0691528,0.05999756,6.390625,6.03125,2.515625
1695487543513,-0.1484375,-1.003479,0.03656006,1.125,2.4375,1.828125
1695487543550,-0.1586914,-1.0256958,0.029968262,-2.125,2.015625,-0.171875
1695487543588,-0.13964844,-1.0164185,0.05706787,-1.203125,6.140625,-0.90625
1695487543625,-0.115234375,-0.9937134,0.047302246,-1.671875,5.078125,-1.09375
1695487543663,-0.1665039,-1.017395,0.06048584,-1.5625,4.421875,-3.046875
1695487543701,-0.14453125,-1.0198364,0.057800293,0.546875,6.421875,-2.75
1695487543751,-0.1538086,-0.9976196,0.059753418,5.671875,9.984375,-0.1875
1695487543788,-0.1508789,-1.0293579,0.08050537,1.703125,4.171875,-2.046875
1695487543825,-0.087890625,-1.0117798,0.01751709,-14.65625,-10.71875,-5.25
1695487543863,-0.21435547,-1.013977,0.113708496,-0.921875,-7.421875,-2.59375
1695487543900,-0.16552734,-0.98443604,0.061706543,-1.234375,-2.171875,-0.75
1695487543939,-0.17456055,-0.95806885,0.06365967,-4.4375,-5.578125,-2.609375
1695487543976,-0.16894531,-1.010315,0.07220459,-6.546875,-11.609375,-2.265625
1695487544025,-0.16113281,-1.0122681,0.05657959,2.59375,-3.25,-1.09375
1695487544063,-0.1784668,-0.9717407,0.03387451,4.484375,-3.59375,1.421875
1695487544101,-0.17260742,-0.942688,-0.030334473,2.421875,-10.609375,0.296875
1695487544138,-0.123046875,-0.91290283,0.024841309,11.140625,1.8125,7.0
1695487544176,-0.18457031,-1.0706177,0.07928467,12.734375,6.109375,3.21875
1695487544213,-0.16137695,-1.0144653,0.042175293,4.15625,3.578125,1.96875
1695487544251,-0.12451172,-1.0134888,0.032409668,-0.671875,5.09375,1.703125
1695487544301,-0.15844727,-1.0090942,0.022399902,0.375,6.03125,-0.828125
1695487544339,-0.1496582,-0.9780884,0.05731201,-0.09375,3.5,0.734375
1695487544376,-0.1472168,-1.02594,0.05340576,-1.53125,3.484375,-1.1875
1695487544414,-0.18432617,-1.0071411,0.039489746,-2.265625,2.921875,-2.609375
1695487544451,-0.1706543,-1.0061646,0.04827881,0.0625,6.328125,-4.171875
1695487544488,-0.16821289,-1.0244751,0.023864746,-1.484375,4.984375,-3.140625
1695487544526,-0.14990234,-1.0100708,0.046081543,1.96875,0.078125,-3.75
1695487544577,-0.15966797,-1.0054321,0.08514404,-5.515625,0.734375,-2.21875
1695487544613,-0.21728516,-0.956604,0.08123779,-5.015625,-5.265625,-1.171875
1695487544651,-0.17822266,-1.0061646,0.070495605,-0.046875,-6.21875,0.5
1695487544688,-0.17675781,-1.0283813,0.07269287,-10.265625,-4.8125,-1.1875
1695487544726,-0.19165039,-0.9146118,0.03338623,-11.078125,-9.703125,-1.0625
1695487544763,-0.16992188,-1.0239868,0.09246826,1.140625,-4.109375,0.4375
1695487544800,-0.18115234,-0.96099854,0.023376465,-1.390625,-7.046875,0.46875
1695487544838,-0.16235352,-0.9678345,0.0289917,11.671875,-1.484375,1.28125
1695487544889,-0.17333984,-0.91607666,0.026794434,1.4375,-3.34375,3.265625
1695487544926,-0.19091797,-1.062561,0.073913574,11.75,3.15625,4.328125
1695487544963,-0.20532227,-1.0383911,0.05609131,8.28125,4.484375,3.34375
1695487545001,-0.14257812,-1.0007935,0.05218506,5.046875,7.625,-0.046875
1695487545038,-0.2043457,-1.034729,0.059509277,1.9375,5.28125,0.640625
1695487545076,-0.11425781,-0.9590454,0.054626465,0.25,4.546875,1.3125
1695487545113,-0.18554688,-1.0310669,0.07879639,0.65625,1.671875,-0.03125
1695487545163,-0.17553711,-1.0117798,0.042663574,-0.75,2.8125,-2.703125
1695487545200,-0.14208984,-0.95684814,0.031677246,1.53125,6.78125,-2.09375
1695487545238,-0.17114258,-1.0474243,0.039245605,2.34375,6.96875,-2.40625
1695487545276,-0.19702148,-1.0215454,0.10614014,-4.796875,2.578125,-0.75
1695487545313,-0.16772461,-1.0471802,0.016784668,-11.59375,-2.84375,-3.125
1695487545351,-0.16210938,-0.92510986,0.020446777,1.625,4.65625,-1.484375
1695487545388,-0.12988281,-1.0115356,0.055358887,-5.3125,-4.625,0.015625
1695487545439,-0.22094727,-0.97784424,0.090270996,-12.3125,-9.828125,0.6875
1695487545476,-0.18408203,-1.0217896,0.09295654,-7.703125,-8.96875,-0.890625
1695487545513,-0.10107422,-0.97247314,0.07977295,-2.328125,-5.140625,1.421875
1695487545551,-0.22558594,-0.9793091,0.09613037,-5.46875,-3.8125,0.734375
1695487545588,-0.23779297,-1.0454712,0.10076904,6.796875,-17.5,0.078125
1695487545626,-0.11376953,-0.8740845,0.001159668,6.046875,-14.78125,2.921875
1695487545663,-0.171875,-0.95196533,0.12371826,8.78125,-6.609375,5.125
1695487545752,-0.21459961,-1.0422974,0.038269043,9.265625,3.8125,5.9375
1695487545753,-0.15625,-1.0286255,0.13201904,2.4375,7.84375,-0.34375
1695487545789,-0.17480469,-1.024231,0.09564209,3.78125,3.765625,2.15625
1695487545826,-0.15991211,-0.9949341,0.058532715,2.921875,4.90625,1.53125
1695487545863,-0.13061523,-0.9871216,0.06854248,1.140625,3.859375,-0.90625
1695487545901,-0.18432617,-1.0159302,0.05609131,-0.203125,4.390625,-1.203125
1695487545939,-0.1809082,-1.017395,0.04925537,3.046875,10.484375,-2.84375
1695487545989,-0.15356445,-0.9758911,0.057556152,5.171875,8.890625,-0.671875
1695487546026,-0.15136719,-1.0108032,0.073913574,0.046875,2.96875,-1.765625
1695487546063,-0.20922852,-1.0613403,0.121520996,-8.21875,7.75,-0.6875
1695487546100,-0.16552734,-0.9319458,-0.0056762695,-7.796875,-3.390625,-2.578125
1695487546138,-0.12695312,-0.96295166,0.101257324,-8.703125,-2.203125,-3.21875
1695487546175,-0.18383789,-1.0234985,0.10736084,-10.890625,-5.078125,0.140625
1695487546213,-0.1694336,-0.98443604,0.12030029,-11.53125,-12.828125,-1.453125
1695487546251,-0.16967773,-1.0459595,0.13909912,-1.609375,-7.0,1.859375
1695487546301,-0.22290039,-0.95758057,0.11468506,-2.90625,-6.75,0.875
1695487546339,-0.17773438,-1.0105591,0.08416748,11.6875,-21.421875,2.015625
1695487546376,-0.067871094,-0.8760376,-0.023010254,17.09375,-12.4375,5.375
1695487546413,-0.21386719,-1.0691528,0.018249512,26.796875,7.28125,8.46875
1695487546451,-0.18408203,-1.0234985,0.12591553,9.578125,6.609375,3.640625
1695487546488,-0.12915039,-1.0396118,0.05706787,4.203125,7.390625,2.09375
1695487546526,-0.18725586,-1.0032349,0.015808105,0.0,1.984375,1.78125
1695487546577,-0.12158203,-0.9841919,0.054382324,3.0625,5.171875,-0.453125
1695487546613,-0.13061523,-1.0332642,0.05633545,1.328125,2.234375,-0.484375
1695487546651,-0.14282227,-0.99420166,-0.012268066,-1.5625,2.40625,-3.0625
1695487546687,-0.14819336,-1.0044556,0.022644043,3.59375,9.9375,-2.140625
1695487546726,-0.19628906,-1.031311,0.06829834,5.640625,9.625,-1.828125
1695487546763,-0.1616211,-1.0042114,0.07269287,-2.484375,1.171875,0.484375
1695487546800,-0.1472168,-0.9673462,0.0045776367,-6.375,-4.140625,-0.671875
1695487546851,-0.12158203,-1.0142212,0.058044434,-11.078125,-1.234375,-3.859375
1695487546888,-0.2644043,-1.0430298,0.07757568,-17.265625,-4.21875,0.078125
1695487546926,-0.10961914,-0.9390259,0.12005615,-14.53125,-13.78125,-2.84375
1695487546964,-0.10205078,-1.0567017,0.05340576,-4.25,-9.0,1.71875
1695487547001,-0.22680664,-0.96343994,0.1083374,-10.0625,-5.9375,-0.359375
1695487547039,-0.16430664,-0.9907837,0.10491943,-2.046875,-3.9375,0.921875
1695487547076,-0.14038086,-1.0164185,0.042663574,15.78125,-19.125,1.859375
1695487547126,-0.1081543,-0.8977661,-0.0076293945,13.515625,-8.375,4.71875
1695487547163,-0.24121094,-1.0310669,0.14569092,9.03125,6.625,5.15625
1695487547200,-0.1899414,-0.97125244,0.11859131,6.65625,3.3125,2.15625
1695487547238,-0.1484375,-1.0359497,0.10076904,7.390625,8.125,1.359375
1695487547276,-0.1352539,-1.0056763,0.04071045,1.953125,6.03125,1.515625
1695487547313,-0.17041016,-0.97442627,0.054138184,1.328125,3.578125,-0.46875
1695487547351,-0.123291016,-1.0046997,0.07684326,1.390625,2.8125,-2.234375
1695487547401,-0.15258789,-1.0249634,0.08001709,1.03125,4.1875,-0.921875
1695487547439,-0.1628418,-0.9981079,0.05291748,0.65625,8.640625,-1.0
1695487547476,-0.18579102,-1.0181274,0.081726074,4.90625,9.75,-0.234375
1695487547513,-0.15258789,-0.9939575,0.06903076,-4.3125,-6.65625,-0.40625
1695487547551,-0.118652344,-1.0193481,0.07879639,-1.328125,4.78125,-0.609375
1695487547588,-0.21850586,-1.0005493,0.082458496,-7.953125,1.03125,-1.59375
1695487547625,-0.11694336,-0.98321533,0.042663574,-3.640625,-2.484375,1.4375
1695487547676,-0.104003906,-1.0264282,0.10858154,-3.3125,-6.65625,-1.046875
1695487547713,-0.21679688,-1.0147095,0.09979248,-12.875,-8.671875,0.125
1695487547751,-0.122558594,-0.9649048,0.082214355,-4.0625,-14.71875,-1.171875
1695487547789,-0.16601562,-1.0012817,0.05609131,3.71875,-11.421875,1.75
1695487547826,-0.14404297,-0.9402466,0.05267334,4.40625,-15.09375,2.03125
1695487547863,-0.07446289,-0.90704346,0.0048217773,-0.296875,-12.078125,3.078125
1695487547901,-0.17529297,-1.0010376,0.0680542,0.4375,-0.75,3.125
1695487547938,-0.14453125,-1.0462036,0.07684326,5.1875,0.9375,3.0
1695487547989,-0.1184082,-1.0359497,0.1005249,-0.078125,4.578125,0.125
1695487548025,-0.21166992,-1.0073853,0.113708496,2.546875,6.46875,0.96875
1695487548064,-0.13842773,-0.99884033,0.08392334,2.640625,4.78125,-0.96875
1695487548100,-0.16479492,-1.0264282,0.10662842,4.484375,7.375,1.375
1695487548138,-0.14624023,-1.02594,0.07366943,1.59375,6.4375,-1.6875
1695487548176,-0.11669922,-0.98687744,0.058532715,1.859375,6.75,-3.109375
1695487548213,-0.15283203,-1.0342407,0.09539795,6.21875,11.90625,-3.203125
1695487548263,-0.22631836,-1.0484009,0.137146,7.390625,11.53125,0.59375
1695487548300,-0.13110352,-0.9741821,0.055847168,1.4375,4.078125,0.140625
1695487548338,-0.15332031,-1.0112915,0.046081543,2.09375,0.03125,-0.546875
1695487548376,-0.12646484,-1.0108032,0.10614014,-3.546875,-5.625,-0.765625
1695487548413,-0.2019043,-1.0044556,0.10687256,-17.484375,-11.640625,-2.125
1695487548451,-0.13012695,-0.9800415,0.07513428,0.28125,-16.84375,-0.765625
1695487548488,-0.15673828,-0.97369385,0.048034668,-9.078125,-8.78125,-0.796875
1695487548538,-0.19750977,-0.95806885,0.11639404,-3.5625,-7.53125,0.546875
1695487548575,-0.07910156,-0.9673462,-0.017150879,-1.375,-10.1875,1.671875
1695487548613,-0.11669922,-0.9307251,0.047790527,1.296875,-7.96875,3.75
1695487548651,-0.14672852,-0.9229126,0.04901123,0.359375,-6.9375,2.953125
1695487548688,-0.17480469,-1.117981,0.08782959,4.828125,2.6875,2.21875
1695487548726,-0.15283203,-1.0325317,0.08782959,6.046875,3.734375,2.328125
1695487548763,-0.15136719,-1.0078735,0.11541748,1.859375,4.953125,-0.671875
1695487548813,-0.14477539,-1.0032349,0.08880615,2.375,5.453125,1.0
1695487548852,-0.14941406,-1.000061,0.10809326,3.03125,5.015625,0.921875
1695487548889,-0.16479492,-1.0557251,0.08416748,0.28125,3.984375,-0.6875
1695487548926,-0.123535156,-0.9993286,0.070495605,2.359375,5.53125,-0.984375
1695487548963,-0.13793945,-1.0213013,0.12347412,5.796875,6.796875,-1.5
1695487549001,-0.22045898,-1.1018677,0.07220459,3.515625,-0.203125,0.125
1695487549038,-0.059326172,-0.92681885,0.043640137,-0.90625,1.15625,-1.640625
1695487549088,-0.1303711,-1.0413208,0.08905029,2.4375,-2.15625,-1.15625
1695487549126,-0.20898438,-1.024231,0.12347412,1.359375,0.34375,-0.53125
1695487549163,-0.13500977,-0.9590454,0.039245605,-1.640625,-1.90625,-0.390625
1695487549201,-0.107910156,-0.98028564,0.05218506,-4.9375,-8.28125,-0.171875
1695487549239,-0.17944336,-1.0154419,0.07611084,0.296875,-5.671875,-0.5
1695487549276,-0.13110352,-0.95758057,0.08392334,-1.0,-7.1875,0.859375
1695487549313,-0.1315918,-0.99664307,0.04534912,-0.8125,-8.890625,0.140625
1695487549350,-0.13232422,-0.94122314,0.012634277,0.953125,-8.09375,2.03125
1695487549401,-0.10986328,-0.8897095,0.054382324,-1.875,-8.65625,1.125
1695487549438,-0.13647461,-1.0838013,0.10418701,7.34375,-4.671875,3.046875
1695487549476,-0.087890625,-1.0151978,0.018493652,-1.140625,-2.609375,0.421875
1695487549513,-0.23730469,-1.0203247,0.0680542,-2.21875,-2.03125,-0.1875
1695487549551,-0.18481445,-1.0232544,0.13250732,1.078125,5.0,0.828125
1695487549588,-0.072021484,-0.97491455,0.046081543,-2.09375,2.953125,-0.78125
1695487549626,-0.16723633,-1.0239868,0.09320068,-0.03125,2.828125,-1.984375
1695487549676,-0.1430664,-1.0264282,0.085876465,-3.734375,3.734375,-2.125
1695487549713,-0.14892578,-1.0442505,0.10223389,-2.15625,9.28125,-2.625
1695487549751,-0.15820312,-1.0464478,0.15057373,2.15625,6.015625,-2.03125
1695487549789,-0.11401367,-0.9963989,0.07196045,-1.65625,-5.65625,-4.34375
1695487549826,-0.20092773,-1.0222778,0.13909912,-3.40625,6.578125,-2.546875
1695487549863,-0.15063477,-0.9807739,0.0770874,-4.8125,3.078125,-1.65625
1695487549901,-0.19116211,-1.0039673,0.10784912,0.859375,1.078125,-0.390625
1695487549951,-0.091796875,-0.9751587,0.08807373,-6.359375,-0.96875,-1.4375
1695487549988,-0.21191406,-0.9631958,0.14691162,-3.890625,-2.03125,-0.390625
1695487550025,-0.14135742,-0.9656372,0.08074951,-1.484375,-9.15625,0.03125
1695487550063,-0.1628418,-0.9776001,0.109313965,5.703125,-4.25,2.25
1695487550101,-0.11816406,-0.90948486,0.03656006,1.765625,-8.015625,3.015625
1695487550138,-0.14331055,-0.9138794,0.061950684,7.125,-7.21875,5.859375
1695487550176,-0.17626953,-1.0889282,0.13934326,12.890625,2.109375,6.3125
1695487550226,-0.10131836,-0.98565674,0.04510498,1.328125,0.140625,0.515625
1695487550263,-0.16577148,-1.0623169,0.18426514,3.84375,8.703125,0.4375
1695487550300,-0.18115234,-0.9898071,0.078552246,0.671875,6.953125,1.046875
1695487550338,-0.13061523,-1.0147095,0.08831787,1.0,5.609375,-0.9375
1695487550376,-0.15551758,-1.0357056,0.07122803,0.96875,4.875,-1.96875
1695487550413,-0.10668945,-1.0147095,0.06878662,-0.328125,10.734375,-1.796875
1695487550451,-0.13916016,-0.9907837,0.09466553,0.703125,3.953125,-1.265625
1695487550501,-0.14428711,-1.0444946,0.11981201,3.546875,2.390625,-2.6875
1695487550538,-0.21289062,-1.0291138,0.10784912,4.09375,3.625,0.40625
1695487550576,-0.12670898,-0.9883423,0.09588623,-2.734375,5.625,0.390625
1695487550613,-0.10058594,-0.97540283,0.023132324,-16.078125,-8.953125,-2.578125
1695487550651,-0.21289062,-0.98883057,0.15228271,-12.078125,-7.34375,-1.71875
1695487550688,-0.18676758,-1.0352173,0.17474365,-8.828125,-2.40625,-0.234375
1695487550726,-0.13476562,-0.9619751,0.09051514,-8.15625,-5.640625,0.015625
1695487550776,-0.1027832,-0.9624634,0.08880615,-5.5,-10.78125,-0.734375
1695487550813,-0.14477539,-1.0059204,0.12054443,1.9375,-16.8125,0.15625
1695487550851,-0.1496582,-0.93951416,0.07489014,5.703125,-21.6875,2.296875
1695487550889,-0.114746094,-0.9331665,0.08416748,7.265625,-9.765625,3.90625
1695487550926,-0.20581055,-1.0720825,0.11468506,18.796875,2.40625,3.296875
1695487550963,-0.15942383,-0.972229,0.16009521,11.1875,8.5,3.703125
1695487551000,-0.1430664,-0.9841919,0.08929443,3.0,7.734375,-0.203125
1695487551038,-0.16894531,-1.0308228,0.08856201,-0.5,6.953125,0.25
1695487551088,-0.13183594,-0.9771118,0.08099365,-2.375,5.15625,-2.140625
1695487551126,-0.13989258,-1.0447388,0.07879639,-1.28125,6.46875,-3.0625
1695487551163,-0.14404297,-1.017395,0.10296631,0.890625,12.203125,-0.546875
1695487551201,-0.12915039,-1.0042114,0.11468506,3.0,13.5,-2.796875
1695487551238,-0.17407227,-1.0244751,0.12542725,4.875,3.984375,0.109375
1695487551276,-0.13647461,-0.98272705,0.1251831,-2.65625,1.53125,-0.015625
1695487551313,-0.17797852,-0.99884033,0.089538574,-8.15625,-5.984375,-1.421875
1695487551363,-0.17114258,-0.9956665,0.12445068,-9.78125,-2.65625,-1.078125
1695487551401,-0.17651367,-0.98809814,0.14398193,-10.21875,-4.59375,-0.796875
1695487551438,-0.10961914,-0.9678345,0.117126465,-9.421875,-8.90625,-2.125
1695487551476,-0.26733398,-1.0403442,0.1461792,-0.421875,-2.53125,1.890625
1695487551513,-0.10546875,-0.9458618,0.12860107,-1.78125,-9.15625,0.09375
1695487551551,-0.119384766,-0.9939575,0.032409668,2.0,-14.640625,0.203125
1695487551588,-0.17626953,-0.88604736,0.06781006,7.578125,-13.0625,4.25
1695487551639,-0.1352539,-0.92755127,0.18841553,3.5,-4.375,1.875
1695487551676,-0.22460938,-1.1148071,0.06707764,13.15625,-4.890625,3.625
1695487551713,-0.12231445,-1.0081177,0.13616943,1.71875,3.75,1.390625
1695487551751,-0.18286133,-1.0054321,0.14886475,3.90625,2.0,1.96875
1695487551788,-0.15966797,-1.0454712,0.10003662,2.5625,7.4375,1.40625
1695487551826,-0.1303711,-0.9651489,0.086364746,1.125,6.203125,0.3125
1695487551863,-0.13549805,-1.0442505,0.105407715,1.15625,4.28125,-0.328125
1695487551914,-0.13110352,-1.0386353,0.08514404,-1.84375,6.53125,-2.25
1695487551951,-0.1850586,-1.0447388,0.14300537,3.625,11.0625,-1.890625
1695487551989,-0.14428711,-0.9729614,0.10614014,0.3125,1.59375,-1.234375
1695487552026,-0.1159668,-1.0020142,0.117614746,-2.453125,3.859375,-2.90625
1695487552064,-0.19702148,-1.0203247,0.13250732,-14.0,4.796875,-3.578125
1695487552101,-0.16210938,-0.99176025,0.15789795,-4.890625,-2.71875,0.109375
1695487552139,-0.15917969,-0.99176025,0.12908936,-9.171875,-5.9375,-2.578125
1695487552189,-0.14941406,-0.99713135,0.16009521,-3.1875,-1.59375,-0.875
1695487552226,-0.1484375,-0.97003174,0.13275146,3.109375,-6.15625,1.859375
1695487552263,-0.17553711,-0.98150635,0.13494873,9.328125,-12.890625,2.21875
1695487552300,-0.10253906,-0.92803955,-0.01763916,12.75,-11.328125,4.875
1695487552339,-0.12866211,-0.93756104,0.032409668,24.484375,-1.078125,6.328125
1695487552376,-0.17822266,-1.1072388,0.09197998,19.515625,7.40625,2.734375
1695487552413,-0.14501953,-1.0213013,0.061950684,11.6875,11.296875,3.1875
1695487552452,-0.10961914,-1.0247192,0.04876709,1.296875,5.828125,-0.265625
1695487552500,-0.14208984,-0.9668579,0.04046631,-4.4375,-1.328125,-1.734375
1695487552539,-0.13549805,-1.0357056,0.04901123,-5.0,-1.25,-3.21875
1695487552576,-0.16625977,-1.0501099,0.09588623,-3.96875,1.09375,-1.796875
1695487552613,-0.15332031,-1.013977,0.043640137,-4.71875,3.90625,-2.65625
1695487552651,-0.1381836,-1.0154419,0.0848999,-0.484375,7.640625,-2.5625
1695487552688,-0.17700195,-1.0315552,0.08514404,-0.484375,3.25,0.21875
1695487552726,-0.14892578,-1.0081177,0.120788574,-3.140625,7.421875,0.40625
1695487552776,-0.1340332,-1.0081177,0.10272217,-9.34375,-3.921875,-1.96875
1695487552813,-0.20239258,-0.9854126,0.10272217,-2.640625,-4.75,-2.21875
1695487552851,-0.12890625,-0.9795532,0.10491943,-6.984375,-5.96875,-0.890625
1695487552888,-0.17211914,-1.0012817,0.10809326,-6.59375,-4.4375,-0.953125
1695487552926,-0.17944336,-0.9961548,0.12371826,-0.796875,-6.875,-1.28125
1695487552964,-0.14550781,-0.9968872,0.08148193,7.671875,-3.453125,2.84375
1695487553001,-0.14648438,-0.93463135,0.050231934,3.125,-12.03125,-0.03125
1695487553051,-0.08569336,-0.92144775,-0.019348145,14.34375,-5.765625,6.4375
1695487553089,-0.092041016,-1.0056763,0.043395996,21.796875,8.453125,3.84375
1695487553125,-0.22631836,-1.1072388,0.22088623,12.328125,10.40625,0.640625
1695487553163,-0.14013672,-1.0125122,0.098083496,5.453125,8.5,3.46875
1695487553201,-0.12890625,-0.9360962,0.016540527,-7.34375,-3.875,-2.21875
1695487553238,-0.18237305,-1.0371704,0.07489014,-1.921875,0.59375,-1.5
1695487553276,-0.14038086,-1.020813,0.06072998,-2.78125,2.390625,-1.65625
1695487553326,-0.16577148,-1.0064087,0.04852295,-1.390625,5.421875,-0.375
1695487553363,-0.11767578,-0.9981079,-0.005432129,-4.78125,2.921875,-1.984375
1695487553401,-0.16894531,-1.0427856,0.116882324,2.890625,8.265625,-1.3125
1695487553439,-0.16870117,-1.0183716,0.094177246,-0.875,4.890625,1.234375
1695487553475,-0.15136719,-0.98101807,0.06732178,-2.796875,2.375,-1.671875
1695487553513,-0.16040039,-1.010315,0.08929443,-4.90625,-3.28125,-0.375
1695487553551,-0.1394043,-1.0081177,0.094177246,-10.40625,-5.96875,-2.90625
1695487553640,-0.17602539,-0.98687744,0.10784912,-8.28125,-4.125,-2.40625
1695487553641,-0.1809082,-1.0027466,0.10736084,-4.015625,-5.796875,-0.515625
1695487553676,-0.17749023,-0.9932251,0.11175537,3.171875,-5.15625,0.859375
1695487553713,-0.1418457,-0.9561157,0.044128418,5.875,-10.578125,0.328125
1695487553751,-0.09301758,-0.90460205,-0.04547119,13.109375,-6.328125,5.71875
1695487553789,-0.1550293,-1.0022583,0.11273193,18.015625,14.0,4.390625
1695487553825,-0.16015625,-1.0567017,0.1593628,9.765625,7.3125,1.546875
1695487553876,-0.115234375,-0.99713135,0.04852295,4.5625,5.0,2.34375
1695487553913,-0.14355469,-0.96881104,0.031921387,-6.015625,-0.3125,-2.359375
1695487553951,-0.16235352,-1.0337524,0.08123779,-1.640625,4.328125,-2.171875
1695487553988,-0.16894531,-1.0066528,0.06341553,-1.703125,4.03125,-1.21875
1695487554025,-0.13012695,-0.99102783,0.04168701,-3.046875,1.859375,-2.625
1695487554063,-0.15649414,-1.0127563,0.057556152,0.359375,2.9375,-1.625
1695487554101,-0.16137695,-1.0222778,0.07659912,-0.734375,5.796875,-2.046875
1695487554138,-0.15307617,-1.0071411,0.10003662,-3.921875,-0.09375,-1.21875
1695487554189,-0.12451172,-1.0112915,0.09832764,-4.390625,-4.296875,-2.609375
1695487554226,-0.20922852,-1.0237427,0.086364746,-7.109375,-1.375,-1.953125
1695487554263,-0.18115234,-1.0147095,0.10467529,-6.078125,-4.734375,-1.09375
1695487554301,-0.18481445,-0.95440674,0.06561279,-11.265625,-7.046875,-4.390625
1695487554339,-0.18603516,-1.0388794,0.11126709,2.3125,-0.328125,1.546875
1695487554376,-0.16479492,-0.97735596,0.09588623,0.9375,-3.984375,-1.015625
1695487554413,-0.15112305,-0.97491455,0.08074951,5.484375,-5.640625,0.625
1695487554464,-0.13452148,-0.9026489,-0.012023926,7.8125,-7.96875,1.375
1695487554501,-0.23706055,-0.9229126,0.0993042,7.53125,1.625,2.671875
1695487554538,-0.15991211,-1.0652466,0.15350342,8.1875,7.859375,1.25
1695487554576,-0.10107422,-0.98321533,0.0836792,5.3125,8.1875,2.5
1695487554613,-0.21044922,-1.0169067,0.10809326,-0.234375,3.203125,-1.09375
1695487554651,-0.19458008,-0.9924927,0.07952881,-3.765625,2.78125,-1.59375
1695487554688,-0.14208984,-0.97442627,0.06390381,-3.328125,0.625,-3.28125
1695487554738,-0.16918945,-1.0115356,0.054870605,-3.78125,-1.390625,-1.859375
1695487554776,-0.20727539,-1.0020142,0.105651855,-0.4375,3.28125,-1.21875
1695487554813,-0.15478516,-1.0491333,0.11566162,-3.484375,3.578125,-0.484375
1695487554851,-0.18408203,-1.0166626,0.0993042,-0.390625,-0.890625,-0.03125
1695487554889,-0.19165039,-0.989563,0.09490967,-1.53125,0.171875,0.546875
1695487554926,-0.15258789,-1.0315552,0.11395264,-2.90625,1.3125,-1.390625
1695487554963,-0.19946289,-1.0032349,0.08001709,-2.609375,-2.390625,-0.03125
1695487555013,-0.17504883,-0.9585571,0.10809326,-4.46875,0.421875,0.328125
1695487555051,-0.16870117,-0.97857666,0.10662842,-4.0625,-5.359375,0.421875
1695487555089,-0.17797852,-0.9883423,0.085876465,8.046875,-5.25,2.28125
1695487555126,-0.18798828,-0.97052,0.101745605,4.703125,-6.828125,1.859375
1695487555163,-0.23168945,-0.9194946,0.13031006,2.96875,-6.421875,4.125
1695487555201,-0.12866211,-0.9795532,0.039733887,13.78125,-2.421875,2.640625
1695487555238,-0.19921875,-1.0684204,0.12860107,14.921875,15.015625,7.03125
1695487555289,-0.13989258,-0.95318604,0.105407715,7.015625,11.203125,5.09375
1695487555326,-0.115478516,-1.0147095,0.0914917,0.078125,6.65625,-1.953125
1695487555364,-0.16381836,-0.9937134,0.10809326,-5.875,-0.046875,-1.640625
1695487555400,-0.18188477,-0.9932251,0.07733154,-4.015625,0.125,-2.6875
1695487555438,-0.13891602,-0.99664307,0.07220459,-1.546875,2.171875,-2.90625
1695487555476,-0.15209961,-0.9927368,0.07513428,-0.0625,2.015625,-2.71875
1695487555514,-0.17407227,-1.0523071,0.10272217,4.96875,3.75,0.078125
1695487555550,-0.16455078,-1.0154419,0.090026855,1.828125,-0.4375,0.234375
1695487555601,-0.19848633,-1.0271606,0.08514404,2.21875,3.421875,0.546875
1695487555638,-0.17211914,-1.0064087,0.08685303,5.375,2.734375,-0.28125
1695487555676,-0.10498047,-0.991272,0.029968262,0.234375,-0.125,0.140625
1695487555714,-0.15429688,-0.9751587,0.07952881,4.515625,0.921875,1.359375
1695487555751,-0.10913086,-0.9885864,0.0446167,-5.28125,-4.578125,-1.515625
1695487555788,-0.19628906,-0.9710083,0.034118652,2.703125,-8.171875,0.859375
1695487555826,-0.1550293,-0.99346924,0.04437256,0.078125,-10.703125,0.515625
1695487555876,-0.12036133,-0.94000244,0.01776123,-4.234375,-14.203125,-0.171875
1695487555914,-0.12963867,-0.9380493,0.02532959,-5.65625,-11.234375,1.015625
1695487555951,-0.15942383,-1.0974731,0.028503418,12.828125,1.359375,3.125
1695487555988,-0.15820312,-1.0046997,0.13348389,8.65625,6.546875,-2.40625
1695487556026,-0.24047852,-1.0032349,0.13104248,4.0,1.0,2.046875
1695487556063,-0.15649414,-0.96954346,0.030212402,0.65625,-1.9375,-0.6875
1695487556101,-0.18334961,-1.020813,0.06048584,0.0625,1.21875,-2.625
1695487556151,-0.13061523,-0.99884033,0.08050537,1.546875,1.359375,-2.453125
1695487556189,-0.17260742,-1.0108032,0.054382324,3.171875,0.765625,0.1875
1695487556226,-0.17919922,-1.0147095,0.028747559,-0.671875,-0.234375,-1.59375
1695487556263,-0.22436523,-1.0689087,0.07977295,3.90625,9.46875,1.546875
1695487556301,-0.16577148,-1.0025024,0.06097412,-6.9375,0.90625,0.828125
1695487556338,-0.11376953,-0.9812622,0.030456543,1.421875,-2.25,-1.234375
1695487556376,-0.20751953,-1.0386353,0.06341553,-3.046875,-0.5,0.875
1695487556426,-0.22509766,-0.9873657,0.062927246,-7.515625,-1.703125,1.25
1695487556463,-0.16967773,-0.96221924,0.101501465,-9.546875,-1.0,-0.90625
1695487556501,-0.12451172,-0.99542236,0.01361084,-4.265625,-6.03125,-0.109375
1695487556538,-0.17578125,-0.9805298,0.090270996,-6.953125,-2.796875,-0.640625
1695487556576,-0.20605469,-1.0090942,0.109069824,-0.390625,-2.421875,1.859375
1695487556614,-0.107666016,-0.96099854,0.059509277,6.546875,-13.390625,0.875
1695487556651,-0.109375,-0.9524536,-0.007873535,6.46875,-14.484375,4.28125
1695487556739,-0.15917969,-0.9746704,-0.008850098,11.125,-0.734375,3.796875
1695487556740,-0.14453125,-1.0181274,0.09906006,11.796875,7.8125,2.28125
1695487556776,-0.16845703,-1.0325317,0.05999756,4.5,4.28125,0.828125
1695487556812,-0.14477539,-1.0066528,0.08319092,1.5625,6.578125,0.5
1695487556851,-0.16455078,-1.0039673,0.059265137,-0.21875,4.359375,0.65625
1695487556888,-0.14819336,-1.0254517,0.055603027,-3.125,3.15625,-2.6875
1695487556926,-0.14501953,-1.0044556,0.042663574,-1.390625,8.34375,-2.125
1695487556976,-0.18066406,-1.0247192,0.07098389,3.453125,10.625,-1.296875
1695487557013,-0.16674805,-1.0147095,0.061950684,2.953125,6.640625,0.796875
1695487557051,-0.11816406,-0.9939575,0.055603027,0.71875,0.09375,-0.71875
1695487557088,-0.13720703,-0.98028564,0.109313965,-1.828125,0.890625,-1.078125
1695487557125,-0.19824219,-1.0498657,0.08270264,-9.40625,-7.25,-2.265625
1695487557163,-0.16210938,-0.9729614,0.06072998,-18.125,-9.6875,-3.109375
1695487557201,-0.1496582,-1.0076294,0.07342529,-9.96875,-0.828125,-1.15625
1695487557238,-0.22094727,-0.96221924,0.12689209,-12.890625,3.4375,0.84375
1695487557288,-0.16723633,-1.0264282,0.117614746,-3.65625,-0.90625,0.5
1695487557326,-0.15454102,-0.9807739,0.15814209,-5.15625,-2.953125,0.40625
1695487557363,-0.13378906,-1.0193481,0.09515381,10.203125,-9.3125,1.015625
1695487557401,-0.11450195,-0.897522,-0.0022583008,10.59375,-21.140625,2.671875
1695487557439,-0.1821289,-0.9470825,0.18377686,7.234375,-7.890625,5.453125
1695487557476,-0.10253906,-1.0374146,0.07879639,6.546875,2.796875,-0.640625
1695487557513,-0.17749023,-1.0322876,0.051208496,4.03125,1.328125,-0.546875
1695487557563,-0.16186523,-1.0193481,0.06536865,2.703125,6.53125,1.140625
1695487557600,-0.14428711,-0.9512329,0.1083374,2.203125,5.34375,-0.09375
1695487557638,-0.15527344,-1.0401001,0.0914917,1.21875,4.640625,-0.390625
1695487557676,-0.20361328,-1.0256958,0.12420654,-1.140625,6.09375,-1.953125
1695487557713,-0.14160156,-0.9907837,0.07147217,0.359375,11.625,-1.90625
1695487557750,-0.10424805,-0.9920044,0.05999756,2.828125,3.21875,-1.046875
1695487557789,-0.13671875,-1.0169067,0.10614014,0.671875,-3.359375,-1.0
1695487557838,-0.17993164,-1.0386353,0.09637451,-3.390625,7.90625,-1.921875
1695487557875,-0.22973633,-0.9795532,0.1293335,-7.140625,4.890625,-0.09375
1695487557913,-0.16723633,-0.9937134,0.09051514,-8.96875,-4.140625,-0.59375
1695487557951,-0.1315918,-0.95806885,0.112976074,-5.875,-9.390625,-1.421875
1695487557988,-0.16259766,-0.9866333,0.093688965,-9.875,-8.5,-1.78125
1695487558026,-0.16845703,-0.991272,0.14764404,-4.34375,-6.0625,-1.046875
1695487558063,-0.16552734,-0.9612427,0.09075928,-4.421875,-5.171875,-0.265625
1695487558113,-0.18701172,-1.0210571,0.14715576,5.46875,-10.25,0.328125
1695487558151,-0.17138672,-1.0056763,0.036315918,13.765625,-12.4375,1.3125
1695487558188,-0.1616211,-0.94610596,0.078552246,21.546875,0.625,6.78125
1695487558226,-0.1730957,-0.975647,0.16644287,13.359375,-2.515625,4.0
1695487558263,-0.23657227,-1.0391235,0.105895996,7.484375,5.1875,1.71875
1695487558300,-0.14111328,-0.99957275,0.11419678,3.84375,7.609375,3.296875
1695487558339,-0.16723633,-0.9692993,0.06536865,3.015625,3.546875,0.109375
1695487558388,-0.17871094,-1.0234985,0.11395264,1.515625,5.515625,-1.640625
1695487558426,-0.17944336,-1.0254517,0.06512451,-2.34375,6.0,-2.1875
1695487558464,-0.13745117,-1.0027466,0.07366943,-1.359375,8.515625,-1.796875
1695487558501,-0.14233398,-1.0261841,0.07562256,2.90625,7.8125,-0.625
1695487558538,-0.1340332,-1.0200806,0.07220459,-3.015625,0.84375,-1.390625
1695487558576,-0.14331055,-1.0171509,0.11224365,-0.171875,-0.15625,-0.171875
1695487558613,-0.23754883,-1.008606,0.10809326,-10.53125,-0.703125,-1.8125
1695487558651,-0.12841797,-1.000061,0.1239624,-9.5625,-1.546875,-0.25
1695487558701,-0.16796875,-0.95562744,0.078552246,-12.28125,-7.421875,0.03125
1695487558738,-0.15234375,-1.0076294,0.12591553,-10.640625,-4.5,-0.859375
1695487558776,-0.16235352,-0.9973755,0.16278076,-3.4375,-3.734375,1.734375
1695487558813,-0.17236328,-0.98443604,0.13909912,-2.25,-7.828125,0.421875
1695487558851,-0.1887207,-1.0164185,0.1251831,-0.09375,-14.984375,-1.375
1695487558889,-0.09765625,-0.9053345,0.08929443,7.9375,-20.015625,2.328125
1695487558926,-0.111328125,-0.95635986,0.116882324,10.53125,-4.59375,3.90625
1695487558976,-0.15405273,-0.9668579,0.066101074,6.453125,4.046875,1.53125
1695487559013,-0.1977539,-1.0222778,0.1005249,10.546875,3.21875,0.265625
1695487559051,-0.20263672,-1.0249634,0.14691162,6.875,5.828125,2.125
1695487559089,-0.13916016,-0.9985962,0.08392334,7.09375,7.859375,0.984375
1695487559126,-0.171875,-1.0252075,0.10736084,4.921875,6.921875,-0.671875
1695487559163,-0.17382812,-1.020813,0.07220459,1.96875,6.28125,-0.484375
1695487559202,-0.16772461,-1.0003052,0.082214355,0.0,7.71875,-1.359375
1695487559251,-0.13793945,-1.0310669,0.078308105,-1.78125,8.515625,-0.75
1695487559288,-0.17504883,-1.0029907,0.11053467,1.96875,2.5,-0.875
1695487559326,-0.1394043,-0.98931885,0.10662842,-0.84375,-0.96875,-1.15625
1695487559363,-0.18359375,-0.98638916,0.08538818,-9.734375,-3.59375,-1.921875
1695487559401,-0.2043457,-1.024231,0.124938965,-8.953125,-1.1875,-2.25
1695487559438,-0.123535156,-0.9780884,0.07318115,-9.46875,-5.125,-0.953125
1695487559475,-0.1784668,-0.98883057,0.16253662,-8.265625,-5.515625,-1.71875
1695487559565,-0.1586914,-0.9973755,0.12738037,-4.265625,-5.546875,-0.734375
1695487559566,-0.17480469,-1.006897,0.12567139,-2.546875,-9.0,0.140625
1695487559601,-0.18188477,-0.93634033,0.11053467,-1.078125,-18.890625,-2.609375
1695487559638,-0.1652832,-0.9902954,0.0836792,8.859375,-15.015625,0.265625
1695487559676,-0.17382812,-0.9417114,0.059020996,12.203125,-4.515625,2.265625
1695487559713,-0.15673828,-0.99176025,0.047058105,13.34375,3.859375,1.96875
1695487559802,-0.18798828,-1.0405884,0.09613037,9.828125,7.578125,2.21875
1695487559803,-0.15307617,-1.0120239,0.07562256,3.03125,6.546875,3.828125
1695487559838,-0.17260742,-1.0200806,0.07293701,3.90625,4.453125,1.0
1695487559876,-0.1784668,-1.0134888,0.085876465,0.5625,5.4375,0.734375
1695487559914,-0.16040039,-0.99224854,0.043884277,-0.296875,2.875,0.328125
1695487559950,-0.17553711,-1.0391235,0.101257324,0.953125,4.40625,0.71875
1695487559989,-0.16870117,-1.0137329,0.09124756,-0.265625,5.828125,0.625
1695487560026,-0.19458008,-0.9932251,0.07489014,-1.78125,5.296875,-1.859375
1695487560063,-0.1418457,-0.9927368,0.08782959,-1.921875,3.203125,-0.765625
1695487560113,-0.16821289,-0.99102783,0.10614014,-9.703125,-4.171875,-2.125
1695487560151,-0.20043945,-1.0222778,0.09832764,-10.453125,-5.03125,-1.171875
1695487560188,-0.12768555,-0.9981079,0.101501465,-13.796875,-2.984375,-2.296875
1695487560226,-0.19506836,-0.9710083,0.14935303,-12.046875,-3.984375,-1.4375
1695487560263,-0.16357422,-0.9673462,0.14544678,-12.25,-9.078125,-1.609375
1695487560301,-0.21166992,-1.0401001,0.17547607,0.90625,0.203125,-0.171875
1695487560339,-0.1616211,-0.9729614,0.13201904,-3.8125,-3.6875,-2.75
1695487560388,-0.18676758,-0.97906494,0.112976074,7.703125,-9.421875,-1.53125
1695487560425,-0.15966797,-0.90802,0.017028809,10.921875,-9.859375,1.78125
1695487560463,-0.17089844,-0.95269775,0.07537842,10.0,2.453125,2.234375
1695487560501,-0.11401367,-1.0308228,0.10809326,9.734375,0.5,1.84375
1695487560538,-0.15356445,-0.9783325,0.14300537,7.359375,4.296875,4.734375
1695487560576,-0.23901367,-1.0396118,0.13031006,4.125,5.78125,2.5625
1695487560613,-0.1899414,-0.9902954,0.10638428,1.0625,4.15625,1.421875
1695487560664,-0.12963867,-0.9812622,0.077819824,4.328125,6.0,2.171875
1695487560700,-0.14331055,-1.0535278,0.06732178,0.78125,4.0625,-0.40625
1695487560738,-0.20898438,-0.9968872,0.12786865,2.8125,8.0,-0.828125
1695487560775,-0.18481445,-1.015686,0.10638428,0.015625,7.40625,-0.15625
1695487560814,-0.123046875,-0.9763794,0.10003662,-6.125,-1.96875,-2.90625
1695487560852,-0.20458984,-0.9927368,0.11468506,-3.109375,-4.953125,0.0625
1695487560888,-0.18359375,-1.0471802,0.15301514,-12.796875,-5.546875,-1.921875
1695487560939,-0.16040039,-0.9553833,0.1281128,-17.59375,-10.03125,-2.296875
1695487560976,-0.21508789,-1.0027466,0.1408081,-12.34375,-10.234375,-2.484375
1695487561013,-0.18310547,-1.0542603,0.19012451,-2.203125,-2.46875,0.9375
1695487561051,-0.17480469,-0.9282837,0.14544678,-3.046875,-5.046875,-1.3125
1695487561088,-0.16625977,-1.0056763,0.12860107,11.21875,-6.15625,-0.328125
1695487561126,-0.15917969,-0.91607666,0.06439209,14.640625,-12.1875,1.71875
1695487561163,-0.19482422,-0.8760376,0.16619873,20.296875,-2.953125,3.265625
1695487561214,-0.20898438,-1.046936,0.055358887,12.359375,1.03125,2.40625
1695487561250,-0.1159668,-1.00177,0.13470459,10.5,7.34375,2.546875
1695487561288,-0.22607422,-1.0464478,0.13568115,7.21875,8.03125,4.5625
1695487561325,-0.2055664,-0.98638916,0.049743652,1.0,6.125,1.53125
1695487561363,-0.095947266,-0.97076416,0.08319092,3.15625,3.671875,0.8125
1695487561400,-0.16552734,-1.0422974,0.08905029,1.921875,2.8125,0.21875
1695487561439,-0.18286133,-0.9949341,0.085876465,-1.90625,2.640625,-0.90625
1695487561488,-0.17285156,-0.9990845,0.0770874,0.15625,1.359375,0.53125
1695487561525,-0.15917969,-1.0122681,0.10345459,-0.71875,-0.53125,-1.0625
1695487561564,-0.17895508,-1.0239868,0.116882324,-2.640625,2.25,-0.859375
1695487561601,-0.17675781,-1.0076294,0.07928467,-16.359375,-6.671875,-1.734375
1695487561638,-0.12158203,-0.9768677,0.120788574,-4.109375,-7.5,-1.84375
1695487561676,-0.15161133,-1.0271606,0.121276855,-12.421875,-4.15625,-1.0625
1695487561713,-0.2475586,-1.0020142,0.1486206,-15.40625,-6.203125,-2.203125
1695487561751,-0.123535156,-1.0344849,0.16009521,-8.296875,-5.609375,-1.09375
1695487561801,-0.15673828,-0.98150635,0.13983154,-0.546875,-4.5,-0.09375
1695487561838,-0.19628906,-0.94610596,0.13885498,1.234375,-8.734375,-1.6875
1695487561876,-0.15429688,-1.0088501,0.074645996,15.765625,-6.609375,2.359375
1695487561914,-0.123046875,-0.91241455,-0.024230957,17.65625,-0.40625,4.125
1695487561951,-0.22363281,-1.0217896,0.08441162,25.640625,14.6875,6.265625
1695487561988,-0.072753906,-1.0776978,0.14447021,16.625,15.234375,3.4375
1695487562026,-0.15478516,-1.0130005,0.059753418,2.015625,7.1875,4.84375
1695487562076,-0.22705078,-0.98687744,0.08294678,-0.296875,4.125,-1.5625
1695487562113,-0.115478516,-1.003479,0.074645996,-0.625,2.515625,-0.5625
1695487562151,-0.14941406,-1.0256958,0.057556152,-2.59375,0.1875,-1.5625
1695487562188,-0.17089844,-1.0181274,0.082214355,0.65625,5.75,-1.0
1695487562226,-0.18164062,-0.9920044,0.066345215,-0.25,2.734375,-0.25
1695487562264,-0.15112305,-1.0049438,0.086364746,-0.171875,-0.078125,-0.921875
1695487562301,-0.13232422,-1.022522,0.0836792,-8.109375,-4.109375,-2.4375
1695487562351,-0.20751953,-0.9668579,0.10418701,-16.171875,-6.453125,-1.984375
1695487562388,-0.19067383,-1.0252075,0.13031006,-15.78125,-8.0625,-2.40625
1695487562426,-0.15600586,-1.0142212,0.13397217,-12.046875,-3.65625,-1.40625
1695487562463,-0.18164062,-0.95684814,0.15545654,-12.375,-3.96875,-1.015625
1695487562501,-0.20629883,-1.0100708,0.11224365,-2.34375,-8.796875,-0.828125
1695487562538,-0.15673828,-0.95196533,0.15594482,4.203125,0.25,0.609375
1695487562576,-0.13769531,-0.9976196,0.03753662,6.3125,-3.46875,-1.90625
1695487562664,-0.1796875,-0.94854736,0.06781006,13.703125,-1.0625,1.140625
1695487562665,-0.14672852,-0.9871216,0.11663818,19.53125,5.078125,1.703125
1695487562701,-0.19433594,-1.0252075,0.17572021,18.46875,10.953125,4.53125
1695487562738,-0.15917969,-0.9981079,0.10638428,9.1875,6.8125,3.59375
1695487562776,-0.15795898,-0.9883423,0.10003662,1.640625,6.65625,0.40625
1695487562813,-0.15209961,-0.9985962,0.07489014,0.828125,2.953125,-0.3125
1695487562902,-0.14355469,-1.0059204,0.06903076,1.390625,2.1875,0.171875
1695487562903,-0.15234375,-1.0054321,0.08709717,0.46875,2.921875,-0.234375
1695487562939,-0.1616211,-0.986145,0.043395996,-3.703125,2.8125,-2.734375
1695487562976,-0.17504883,-1.0357056,0.09320068,1.1875,5.78125,-0.53125
1695487563013,-0.114990234,-0.97369385,0.06488037,-4.171875,-4.515625,-0.484375
1695487563051,-0.19799805,-0.99786377,0.09539795,-10.328125,-5.578125,-2.34375
1695487563088,-0.17553711,-1.0222778,0.14178467,-5.265625,-1.953125,1.25
1695487563125,-0.20410156,-0.9993286,0.12420654,-15.625,-6.90625,-1.390625
1695487563163,-0.14868164,-0.9717407,0.07684326,-15.859375,-7.359375,-2.0
1695487563214,-0.15625,-1.0266724,0.17181396,-7.359375,-4.71875,-1.53125
1695487563251,-0.20581055,-0.9993286,0.14642334,-2.84375,-6.15625,0.234375
1695487563288,-0.20776367,-0.98443604,0.13763428,2.453125,-8.421875,-0.28125
1695487563326,-0.12866211,-0.9343872,0.038513184,11.71875,-10.046875,1.78125
1695487563363,-0.14453125,-0.88287354,0.046081543,11.953125,-6.234375,2.859375
1695487563401,-0.1772461,-1.0569458,0.11102295,23.546875,12.1875,3.328125
1695487563438,-0.080322266,-1.0408325,0.14984131,14.40625,13.921875,2.84375
1695487563488,-0.20629883,-0.9993286,0.105407715,8.921875,8.5,4.578125
1695487563526,-0.15991211,-0.9800415,0.09564209,2.09375,3.390625,1.203125
1695487563563,-0.13720703,-1.0073853,0.06439209,-0.546875,2.5,-0.515625
1695487563601,-0.14526367,-1.0076294,0.054626465,-1.671875,0.890625,-1.765625
1695487563638,-0.15820312,-1.0361938,0.04876709,-1.375,3.6875,-0.84375
1695487563676,-0.17163086,-0.9939575,0.06951904,0.953125,5.09375,0.46875
1695487563714,-0.14477539,-0.9668579,0.11004639,-1.234375,-3.484375,0.921875
1695487563763,-0.17822266,-1.0471802,0.11639404,-9.140625,-7.109375,-1.328125
1695487563802,-0.21557617,-1.0593872,0.073913574,-20.21875,-4.828125,-2.71875
1695487563838,-0.07739258,-0.9319458,0.1083374,-13.78125,-9.8125,-3.0
1695487563876,-0.18725586,-1.031311,0.09881592,-14.125,-9.921875,-0.828125
1695487563914,-0.22998047,-0.9619751,0.14031982,-20.953125,-8.5625,-3.53125
1695487563951,-0.10620117,-1.0134888,0.17327881,-12.21875,-4.296875,-0.34375
1695487563988,-0.18237305,-0.95880127,0.16522217,-7.25,-2.0625,0.546875
1695487564038,-0.1977539,-1.0088501,0.21136475,-1.34375,-3.078125,1.96875
1695487564076,-0.16772461,-0.99664307,0.17523193,13.09375,-12.671875,2.953125
1695487564114,-0.1665039,-0.94195557,0.032409668,23.125,-14.859375,5.203125
1695487564151,-0.14526367,-0.92144775,0.184021,15.125,0.96875,5.015625
1695487564189,-0.16137695,-1.0735474,0.05682373,20.203125,2.390625,4.140625
1695487564226,-0.12695312,-1.0032349,0.1149292,13.78125,10.78125,5.3125
1695487564264,-0.1965332,-1.0149536,0.14569092,7.96875,10.78125,1.890625
1695487564313,-0.095947266,-1.0098267,0.07611084,4.328125,9.3125,1.796875
1695487564351,-0.14086914,-0.9771118,0.07342529,2.875,4.375,-0.046875
1695487564389,-0.171875,-1.0352173,0.109558105,-1.0,4.890625,-1.3125
1695487564426,-0.12695312,-0.99420166,0.07171631,-3.421875,5.859375,-3.8125
1695487564464,-0.12133789,-1.0071411,0.07220459,-2.375,5.390625,-4.390625
1695487564501,-0.23828125,-0.9690552,0.13641357,-6.375,-0.6875,-1.84375
1695487564538,-0.12597656,-1.0093384,0.14007568,-15.40625,-8.40625,-2.21875
1695487564588,-0.12670898,-1.020813,0.101745605,-17.46875,-9.84375,-2.859375
1695487564626,-0.20483398,-0.9661255,0.1083374,-17.09375,-5.46875,-3.65625
1695487564663,-0.16577148,-1.0564575,0.19744873,-11.671875,-2.625,-1.84375
1695487564701,-0.13183594,-1.0046997,0.1984253,-7.765625,-5.546875,-2.265625
1695487564738,-0.20019531,-0.97247314,0.14935303,-3.21875,-5.1875,-1.046875
1695487564776,-0.16601562,-0.99884033,0.15863037,3.03125,2.0,-0.75
1695487564813,-0.18823242,-0.9963989,0.18011475,9.171875,-1.296875,1.375
1695487564851,-0.15942383,-0.991272,0.07684326,15.71875,-6.0,2.46875
1695487564901,-0.13867188,-0.9065552,0.073913574,26.765625,-2.34375,6.890625
1695487564938,-0.17944336,-0.9990845,0.12225342,25.140625,5.875,6.125
1695487564976,-0.16674805,-1.0205688,0.0848999,20.296875,7.34375,6.1875
1695487565014,-0.09887695,-0.9956665,0.0692749,11.859375,7.8125,6.015625
1695487565052,-0.17041016,-1.0271606,0.08441162,4.34375,4.25,2.828125
1695487565089,-0.13330078,-0.99420166,0.008239746,-4.734375,1.09375,-0.390625
1695487565126,-0.15185547,-1.0215454,0.061950684,-2.90625,2.328125,-2.890625
1695487565176,-0.11303711,-0.9885864,0.06463623,-2.1875,1.125,-1.5
1695487565214,-0.16186523,-0.991272,0.042419434,-1.875,1.046875,-2.328125
1695487565251,-0.17382812,-0.9998169,0.08148193,-3.1875,-0.453125,-2.1875
1695487565288,-0.118652344,-0.99346924,0.08074951,-12.046875,-8.078125,-2.5625
1695487565326,-0.17211914,-1.0713501,0.10784912,-12.15625,-8.25,-4.25
1695487565363,-0.16552734,-1.0481567,0.10784912,-21.5,-5.96875,-4.546875
1695487565401,-0.16577148,-0.973938,0.097839355,-12.625,-3.78125,-3.875
1695487565451,-0.1743164,-1.0293579,0.15740967,-2.765625,3.03125,0.765625
1695487565489,-0.15332031,-0.99468994,0.109069824,-1.25,-0.421875,-0.390625
1695487565526,-0.11621094,-0.97735596,0.031921387,2.09375,-3.40625,-0.40625
1695487565563,-0.18017578,-1.0039673,0.17156982,10.703125,2.921875,0.859375
1695487565600,-0.16381836,-0.96466064,0.09613037,10.0625,-1.796875,3.75
1695487565638,-0.16552734,-0.9307251,0.08782959,21.46875,-3.734375,5.140625
1695487565676,-0.17797852,-1.0379028,0.051208496,30.65625,4.0625,9.03125
1695487565764,-0.080322266,-0.99664307,0.105163574,24.359375,14.359375,8.96875
1695487565765,-0.16894531,-0.97247314,0.061950684,10.9375,2.984375,5.40625
1695487565801,-0.11401367,-0.9907837,0.046081543,-0.75,3.15625,-1.375
1695487565838,-0.1538086,-1.0232544,0.050231934,-6.890625,-1.1875,-4.21875
1695487565876,-0.14282227,-0.975647,0.013122559,-4.484375,0.5625,-2.1875
1695487565913,-0.12524414,-0.99298096,0.010925293,-4.734375,0.46875,-4.015625
1695487566002,-0.122802734,-1.039856,0.012390137,-8.109375,-0.796875,-4.4375
1695487566004,-0.17480469,-1.0786743,0.08709717,-0.71875,6.8125,-2.09375
1695487566039,-0.13964844,-0.9746704,0.07513428,-13.125,-2.5625,-0.40625
1695487566076,-0.053222656,-0.97247314,0.024353027,-5.640625,-8.90625,-4.09375
1695487566113,-0.22949219,-1.0974731,0.10809326,-1.21875,2.171875,0.453125
1695487566151,-0.1772461,-0.9727173,0.085876465,-6.1875,-2.28125,0.484375
1695487566189,-0.16845703,-1.0027466,0.06829834,1.921875,-1.859375,0.46875
1695487566225,-0.09790039,-0.99591064,0.06536865,-3.0625,-1.546875,0.703125
1695487566263,-0.17529297,-0.9800415,0.098083496,-4.375,-5.59375,-0.78125
1695487566314,-0.19482422,-0.98809814,0.097351074,2.1875,-6.21875,0.9375
1695487566352,-0.1171875,-0.98321533,0.066345215,2.421875,-3.25,0.453125
1695487566389,-0.115234375,-0.9209595,-0.018127441,-2.453125,-12.84375,-0.046875
1695487566426,-0.13671875,-0.9390259,0.066833496,16.046875,-4.625,3.203125
1695487566464,-0.14941406,-1.0828247,0.12591553,15.734375,12.046875,3.359375
1695487566501,-0.18676758,-0.989563,0.06536865,6.65625,3.4375,1.609375
1695487566538,-0.16040039,-1.0213013,0.0602417,2.0,3.671875,0.15625
1695487566589,-0.16357422,-1.019104,0.06365967,-1.984375,5.265625,-0.40625
1695487566626,-0.11987305,-0.9854126,0.07220459,-3.546875,3.515625,-1.453125
1695487566664,-0.1381836,-1.0076294,0.058532715,-2.625,2.015625,-2.15625
1695487566701,-0.13696289,-1.0161743,0.043395996,-2.15625,4.4375,-4.265625
1695487566738,-0.16552734,-1.0442505,0.093933105,1.203125,6.140625,-1.09375
1695487566776,-0.13964844,-0.9849243,0.027038574,-1.03125,-3.71875,1.390625
1695487566813,-0.15136719,-1.0447388,0.062194824,-11.90625,-4.03125,-3.28125
1695487566863,-0.14086914,-1.0095825,0.12713623,-8.296875,-1.46875,-1.703125
1695487566901,-0.21606445,-0.9951782,0.08074951,-9.140625,-7.34375,-0.78125
1695487566938,-0.12963867,-0.97613525,0.07611084,-8.59375,-4.15625,-2.0
1695487566976,-0.15625,-0.98760986,0.12322998,-5.625,-6.609375,-0.28125
1695487567013,-0.23925781,-1.0081177,0.12835693,-2.96875,-5.453125,0.46875
1695487567051,-0.099365234,-0.9651489,0.066101074,5.65625,-6.015625,0.453125
1695487567089,-0.19189453,-0.9985962,0.0770874,7.625,-6.171875,1.078125
1695487567138,-0.14038086,-0.89190674,0.058288574,17.90625,1.171875,5.34375
1695487567176,-0.1640625,-1.0901489,-0.08111572,23.21875,15.296875,3.890625
1695487567214,-0.12475586,-1.0288696,0.105163574,13.921875,10.609375,1.15625
1695487567250,-0.10083008,-0.93463135,0.030456543,5.0625,3.0,3.75
1695487567288,-0.16894531,-1.0352173,0.050720215,2.984375,0.15625,1.59375
1695487567326,-0.16137695,-0.99102783,0.038024902,-4.453125,0.59375,-3.453125
1695487567363,-0.13330078,-1.0200806,0.050231934,-1.875,3.6875,-2.453125
1695487567413,-0.1496582,-1.0042114,0.029724121,-0.8125,3.265625,-0.34375
1695487567451,-0.15820312,-1.0142212,0.038269043,0.640625,5.25,-1.59375
1695487567488,-0.13208008,-1.0393677,0.06976318,-2.75,2.71875,-1.53125
1695487567526,-0.12890625,-0.97442627,0.06048584,-11.078125,-3.5625,-1.484375
1695487567564,-0.20751953,-1.0049438,0.08343506,-13.125,-6.875,-3.140625
1695487567601,-0.18334961,-1.0154419,0.11248779,-11.78125,-5.859375,-0.296875
1695487567638,-0.15332031,-0.9985962,0.11029053,-13.765625,-10.078125,-2.09375
1695487567688,-0.19116211,-1.034729,0.093688965,-12.421875,-7.78125,-1.15625
1695487567725,-0.10083008,-0.9817505,0.090270996,-2.046875,-2.109375,-0.546875
1695487567763,-0.15112305,-1.0213013,0.11273193,-4.40625,-10.46875,0.03125
1695487567801,-0.1508789,-0.95269775,0.050720215,5.53125,-7.421875,-0.9375
1695487567838,-0.14697266,-0.95025635,0.043884277,13.171875,-2.03125,3.0
1695487567875,-0.19555664,-0.94537354,0.08734131,16.640625,3.421875,2.828125
1695487567914,-0.1628418,-1.0601196,0.08001709,21.625,14.609375,4.296875
1695487567951,-0.13330078,-0.9829712,0.07366943,8.0625,12.078125,1.0
1695487568001,-0.15625,-1.0073853,0.08026123,5.1875,4.515625,2.8125
1695487568038,-0.1965332,-1.0266724,0.08905029,2.703125,4.703125,1.078125
1695487568076,-0.1184082,-0.973938,0.047546387,-2.640625,1.46875,-0.890625
1695487568114,-0.12426758,-1.0261841,0.002380371,-1.8125,2.171875,-1.40625
1695487568151,-0.16577148,-1.0449829,0.08538818,2.546875,9.453125,-0.171875
1695487568188,-0.1965332,-1.005188,0.08026123,-4.328125,1.140625,0.171875
1695487568226,-0.14355469,-0.95025635,0.028259277,-7.546875,-6.9375,-3.40625
1695487568276,-0.1352539,-1.0396118,0.090026855,-13.515625,-3.734375,-3.265625
1695487568314,-0.19873047,-0.9937134,0.12689209,-16.75,-6.78125,-2.65625
1695487568351,-0.16796875,-0.9805298,0.101257324,-17.421875,-9.8125,-1.625
1695487568388,-0.14233398,-0.9837036,0.117126465,-16.9375,-10.421875,-1.5625
1695487568426,-0.18823242,-1.0098267,0.18426514,-11.78125,-10.46875,-1.65625
1695487568463,-0.21777344,-1.0357056,0.16912842,-6.78125,-4.46875,-0.890625
1695487568501,-0.14672852,-0.972229,0.11151123,4.546875,-4.484375,-1.046875
1695487568551,-0.22021484,-1.0073853,0.16522217,9.921875,-8.125,-1.296875
1695487568588,-0.16308594,-0.93707275,0.06732178,13.828125,0.515625,-0.6875
1695487568626,-0.17504883,-0.92266846,0.051940918,14.390625,2.015625,2.546875
1695487568664,-0.15429688,-1.0733032,0.105895996,23.265625,16.046875,-0.28125
1695487568701,-0.19628906,-0.99102783,0.14813232,12.65625,7.1875,5.15625
1695487568738,-0.18139648,-1.0020142,0.09979248,8.390625,8.3125,2.53125
1695487568776,-0.17651367,-1.0108032,0.098083496,6.15625,3.84375,2.09375
1695487568865,-0.13061523,-0.97076416,0.08392334,-0.328125,0.65625,0.59375
1695487568866,-0.1875,-1.0115356,0.08856201,-2.140625,-1.21875,-1.703125
1695487568901,-0.1706543,-1.0054321,0.070251465,-1.71875,3.453125,0.734375
1695487568938,-0.18139648,-0.9927368,0.09173584,-1.90625,0.390625,-0.015625
1695487568976,-0.16918945,-0.98223877,0.14202881,-3.671875,-5.984375,-1.625
1695487569014,-0.18115234,-1.0071411,0.105895996,-11.75,-8.890625,-0.859375
1695487569051,-0.21557617,-1.0147095,0.13104248,-6.859375,-6.609375,0.078125
1695487569101,-0.15771484,-1.0200806,0.1359253,-12.875,-5.734375,-1.015625
1695487569138,-0.18041992,-0.9837036,0.14788818,-21.265625,-15.875,-3.375
1695487569176,-0.1652832,-1.0650024,0.14691162,-3.625,-6.578125,-1.640625
1695487569213,-0.18334961,-0.9456177,0.14984131,-0.671875,-1.765625,-0.484375
1695487569251,-0.17285156,-0.9859009,0.13226318,1.09375,-3.65625,-1.640625
1695487569288,-0.15405273,-0.97784424,0.06854248,8.296875,-4.875,1.0
1695487569326,-0.14501953,-0.9216919,0.018493652,13.28125,-2.828125,2.453125
1695487569364,-0.19482422,-0.91851807,0.0836792,18.28125,9.84375,3.734375
1695487569414,-0.14575195,-1.0730591,0.15863037,14.328125,12.390625,1.109375
1695487569451,-0.1430664,-0.94537354,0.11883545,8.84375,9.34375,5.234375
1695487569488,-0.23876953,-1.0142212,0.09661865,2.625,3.78125,1.5625
1695487569526,-0.14916992,-0.98883057,0.06097412,-0.5,3.5,-1.34375
1695487569563,-0.14868164,-1.0144653,0.09710693,1.859375,4.28125,0.140625
1695487569601,-0.15795898,-1.0064087,0.08880615,-1.171875,4.5,0.171875
1695487569638,-0.1953125,-1.0083618,0.08685303,-1.515625,4.96875,-1.15625
1695487569689,-0.1784668,-1.0269165,0.12664795,-1.5625,2.6875,-1.015625
1695487569725,-0.18969727,-1.0046997,0.09051514,-7.375,-0.890625,0.359375
1695487569763,-0.115234375,-0.9993286,0.086364746,-2.96875,0.671875,-0.53125
1695487569801,-0.18969727,-1.0401001,0.13690186,-1.9375,-1.796875,0.640625
1695487569838,-0.17333984,-0.94610596,0.09075928,-8.578125,-6.0,-0.671875
1695487569876,-0.08105469,-0.9710083,0.058044434,-3.484375,-8.21875,-0.609375
1695487569913,-0.18457031,-1.0090942,0.12298584,-0.09375,-2.796875,-1.140625
1695487569963,-0.16577148,-0.986145,0.10882568,-2.375,-5.953125,-0.46875
1695487570001,-0.18945312,-0.9956665,0.11395264,-0.984375,-2.921875,-0.625
1695487570039,-0.19360352,-0.9902954,0.1383667,0.140625,-0.296875,0.515625
