# Sensor type: Respeck
# Activity type: Ascending stairs
# Activity subtype: Normal
# Subject id: s2027011
# Notes: 
timestamp,accel_x,accel_y,accel_z,gyro_x,gyro_y,gyro_z
1695397338450,0.20678711,-0.958313,-0.11602783,-5.03125,-4.890625,10.484375
1695397338495,-0.32202148,-0.89263916,-0.003967285,1.96875,-10.4375,10.28125
1695397338524,-0.16381836,-1.0549927,-0.077697754,-7.453125,-5.609375,0.40625
1695397338569,-0.33276367,-0.88067627,-0.03253174,-6.984375,-8.3125,7.09375
1695397338614,-0.23950195,-0.7312622,-0.027893066,-8.609375,-5.3125,-0.078125
1695397338644,-0.12988281,-0.68292236,-0.024963379,-1.703125,-7.328125,4.546875
1695397338689,-0.19824219,-0.53912354,0.05218506,-1.5,-6.9375,8.96875
1695397338720,-0.26782227,-0.6939087,0.035827637,2.015625,-8.875,-0.578125
1695397338765,-0.2084961,-0.88775635,0.015808105,3.484375,-4.53125,-0.84375
1695397338810,-0.20727539,-0.9451294,0.01776123,-1.953125,-9.671875,5.28125
1695397338839,-0.2824707,-1.0991821,0.15301514,1.109375,-6.5625,2.015625
1695397338884,-0.37817383,-1.2046509,0.16131592,9.15625,-0.328125,-3.265625
1695397338929,-0.45996094,-1.2398071,-0.07647705,4.1875,-15.6875,-5.609375
1695397338959,-0.27734375,-1.3796997,-0.46221924,14.296875,-1.046875,-1.4375
1695397339005,-0.23120117,-1.4768677,-0.2600708,12.84375,2.265625,4.15625
1695397339050,-0.4345703,-0.89312744,-0.17633057,14.0,11.9375,9.53125
1695397339094,-0.39770508,-0.5862427,-0.40264893,13.625,18.40625,-2.28125
1695397339125,-0.0021972656,-0.9783325,-0.25299072,23.0,2.828125,-10.75
1695397339154,-0.53027344,-1.171936,-0.13311768,6.359375,-3.578125,1.0625
1695397339199,-0.41601562,-0.66851807,-0.17926025,4.71875,8.078125,1.125
1695397339229,-0.1940918,-0.66607666,-0.097961426,9.078125,6.296875,-0.40625
1695397339275,-0.15795898,-0.6555786,-0.09307861,10.28125,12.640625,0.59375
1695397339321,-0.32202148,-0.5964966,-0.11529541,5.296875,5.046875,3.625
1695397339350,-0.22290039,-0.6929321,-0.13116455,2.9375,7.4375,-2.328125
1695397339395,-0.3684082,-0.81744385,-0.10870361,3.40625,9.03125,-0.96875
1695397339441,-0.50097656,-0.88775635,-0.15264893,-1.109375,11.9375,-2.578125
1695397339470,-0.6772461,-1.2061157,-0.19830322,8.3125,13.5625,-3.078125
1695397339515,-0.58813477,-1.3235474,-0.2288208,1.3125,14.296875,7.9375
1695397339545,-0.4116211,-1.2178345,-0.48590088,-7.203125,-0.484375,10.671875
1695397339591,-0.07714844,-1.2053833,-0.39019775,1.078125,6.5625,16.75
1695397339636,-0.28076172,-0.6956177,-0.35528564,5.421875,-0.015625,22.8125
1695397339666,-0.30908203,-1.0498657,-0.28570557,11.609375,35.03125,-12.46875
1695397339710,-0.29516602,-1.2063599,-0.04864502,-7.0625,12.5,12.234375
1695397339741,-0.44628906,-0.6338501,-0.24835205,-14.203125,15.171875,-4.296875
1695397339785,-0.19042969,-1.0952759,-0.23956299,5.890625,30.03125,-3.359375
1695397339831,-0.12182617,-0.9014282,-0.1404419,-4.421875,16.453125,8.3125
1695397339861,-0.31933594,-0.6983032,-0.101135254,2.53125,17.46875,12.328125
1695397339905,-0.29785156,-0.6951294,-0.028137207,6.515625,18.859375,8.03125
1695397339950,-0.23095703,-0.677063,-0.038879395,3.421875,22.578125,7.796875
1695397339981,-0.2692871,-0.6553345,-0.094055176,3.265625,21.546875,9.03125
1695397340025,-0.18383789,-0.63604736,-0.020080566,16.0,16.859375,9.5
1695397340055,-0.41992188,-0.77056885,0.07293701,11.078125,22.296875,10.828125
1695397340100,-0.2939453,-0.8428345,-0.031311035,11.96875,24.53125,8.484375
1695397340145,-0.3173828,-1.1482544,0.10394287,22.140625,19.015625,1.984375
1695397340175,-0.6291504,-1.3919067,-0.121154785,2.328125,7.40625,-7.1875
1695397340221,-0.07006836,-1.21344,-0.21734619,18.71875,-4.203125,-5.203125
1695397340250,-0.90722656,-1.7422485,-0.14093018,20.296875,5.53125,12.046875
1695397340296,-0.43237305,-0.6524048,-0.5667114,-11.28125,33.59375,8.078125
1695397340342,0.061035156,-0.75909424,-0.5996704,11.90625,22.34375,4.546875
1695397340369,-0.2541504,-0.90948486,-0.27496338,13.171875,37.703125,3.859375
1695397340414,-0.54833984,-0.70440674,-0.43804932,-16.3125,20.25,-7.53125
1695397340459,-0.3076172,-0.9522095,-0.26031494,7.875,26.40625,-10.0625
1695397340493,-0.30908203,-0.986145,-0.2000122,3.140625,24.890625,3.078125
1695397340535,-0.40014648,-0.79034424,-0.31524658,0.6875,22.078125,3.6875
1695397340565,-0.3244629,-0.8257446,-0.17901611,9.59375,26.921875,4.078125
1695397340610,-0.37597656,-0.7810669,-0.15679932,9.15625,30.4375,6.140625
1695397340655,-0.421875,-0.64630127,-0.19659424,10.46875,26.734375,5.765625
1695397340685,-0.29785156,-0.7542114,-0.22369385,16.875,23.234375,3.765625
1695397340731,-0.2368164,-0.8345337,-0.17877197,9.25,19.015625,3.140625
1695397340761,-0.41137695,-0.77227783,-0.11602783,8.25,12.71875,9.15625
1695397340806,-0.38061523,-0.7769165,-0.10430908,5.703125,15.0625,2.828125
1695397340855,-0.4091797,-0.84552,-0.105285645,5.53125,13.125,5.484375
1695397340882,-0.43579102,-0.9780884,-0.08013916,-0.296875,8.875,4.5
1695397340925,-0.41503906,-1.0029907,-0.054504395,-3.984375,5.296875,3.125
1695397340970,-0.5942383,-1.0691528,0.0016479492,-6.375,4.734375,8.5625
1695397341000,-0.81225586,-1.1985474,-0.16485596,-5.5625,0.484375,5.1875
1695397341046,-0.34985352,-1.616272,-0.37701416,3.625,14.6875,-2.3125
1695397341075,-0.43286133,-1.019104,-0.5510864,-6.125,2.59375,12.125
1695397341120,-0.13012695,-0.8760376,-0.5984497,4.8125,8.984375,2.4375
1695397341181,0.13330078,-1.2510376,-0.19195557,11.890625,23.0625,4.921875
1695397341195,-0.6435547,-0.8584595,-0.21588135,-8.5,8.46875,16.1875
1695397341240,-0.34472656,-0.70318604,-0.31036377,-5.453125,28.015625,-5.5625
1695397341285,0.09301758,-0.88775635,-0.18243408,5.828125,20.421875,2.875
1695397341331,-0.18920898,-0.788147,-0.057922363,-1.671875,2.6875,8.65625
1695397341360,-0.31640625,-0.7617798,-0.06573486,-7.21875,6.015625,10.0
1695397341396,-0.22753906,-0.5737915,-0.023010254,2.8125,21.953125,6.390625
1695397341452,-0.28637695,-0.65826416,-0.11627197,2.609375,11.46875,2.1875
1695397341480,-0.17211914,-0.8765259,-0.097717285,7.671875,8.203125,0.84375
1695397341541,-0.30810547,-0.89630127,-0.08673096,3.125,17.03125,5.75
1695397341554,-0.34521484,-1.0896606,0.053894043,4.765625,15.828125,-2.03125
1695397341585,-0.41748047,-1.2913208,0.054870605,7.359375,17.09375,-0.96875
1695397341630,-0.40795898,-1.0046997,-0.25616455,-0.46875,9.21875,-7.296875
1695397341675,-0.2175293,-1.5161743,-0.5281372,27.828125,-0.796875,-8.140625
1695397341712,-0.43652344,-1.3416138,-0.222229,9.0625,16.421875,11.03125
1695397341765,-0.4765625,-0.614563,-0.30426025,0.875,22.3125,2.890625
1695397341796,-0.005126953,-0.66290283,-0.30670166,21.390625,14.828125,-2.265625
1695397341826,-0.16210938,-1.0615845,-0.081848145,9.734375,6.84375,-0.46875
1695397341871,-0.703125,-0.77789307,-0.11798096,-1.6875,11.671875,-2.34375
1695397341900,-0.30517578,-0.7280884,-0.11627197,3.96875,19.296875,-2.765625
1695397341960,-0.23046875,-0.71539307,-0.17364502,2.03125,9.59375,-1.5625
1695397341990,-0.26098633,-0.7793579,-0.10235596,8.09375,13.5625,1.375
1695397342022,-0.27319336,-0.70928955,-0.06524658,6.0,10.78125,3.125
1695397342066,-0.37353516,-0.76397705,-0.07598877,9.0625,9.765625,2.703125
1695397342096,-0.4152832,-0.8533325,-0.16265869,5.765625,7.625,-0.171875
1695397342141,-0.4987793,-1.0037231,-0.11602783,6.453125,7.78125,-3.375
1695397342186,-0.5205078,-1.142395,-0.1482544,1.078125,5.4375,-1.5625
1695397342216,-0.5007324,-1.201477,-0.25372314,-9.6875,-5.0625,-0.921875
1695397342261,-0.64941406,-1.2722778,-0.4348755,-11.671875,-16.6875,2.953125
1695397342306,-0.06298828,-1.5806274,-0.57403564,3.03125,4.90625,0.390625
1695397342335,0.123535156,-0.92315674,-0.012268066,-10.8125,-11.703125,18.6875
1695397342381,-0.43920898,-0.6433716,-0.038635254,-1.421875,-15.453125,11.96875
1695397342410,-0.16040039,-1.010315,-0.1638794,-2.78125,-8.265625,-11.046875
1695397342455,-0.25683594,-0.96099854,-0.12701416,-8.21875,-3.453125,1.734375
1695397342501,-0.2553711,-0.7119751,-0.07940674,-5.25,-5.046875,-0.234375
1695397342530,-0.22143555,-0.7468872,-0.109680176,-1.84375,-9.8125,0.203125
1695397342576,-0.23950195,-0.6218872,-0.016174316,0.5,-6.71875,6.390625
1695397342605,-0.19604492,-0.6404419,0.020690918,5.03125,-11.859375,1.3125
1695397342651,-0.30371094,-0.800354,-0.019104004,-4.96875,-10.859375,0.21875
1695397342695,-0.20581055,-0.90338135,-0.046691895,-0.671875,-7.953125,-0.875
1695397342725,-0.27490234,-1.1773071,-0.016418457,1.40625,-5.09375,-0.03125
1695397342770,-0.517334,-1.2158813,0.034851074,1.765625,3.796875,-1.625
1695397342816,-0.3293457,-1.2791138,-0.2288208,3.109375,-8.140625,-11.546875
1695397342845,-0.063964844,-1.6358032,-0.31304932,16.765625,-2.171875,-1.4375
1695397342891,-0.55615234,-0.8870239,-0.26641846,7.046875,11.34375,12.265625
1695397342921,-0.45532227,-0.6968384,-0.36846924,2.890625,16.953125,-3.96875
1695397342965,0.025634766,-1.0022583,-0.28253174,20.375,2.5625,-6.328125
1695397343011,-0.32055664,-1.0044556,-0.1585083,4.875,6.03125,6.828125
1695397343041,-0.5625,-0.71661377,-0.105773926,-5.34375,11.046875,-5.34375
1695397343086,-0.23754883,-0.6326294,-0.10845947,1.984375,12.65625,-2.671875
1695397343115,-0.17895508,-0.7046509,-0.16949463,6.890625,8.421875,-4.375
1695397343160,-0.2800293,-0.7424927,-0.08892822,4.25,13.265625,-0.5625
1695397343206,-0.2932129,-0.7119751,-0.124816895,3.40625,4.5625,1.140625
1695397343236,-0.3178711,-0.76348877,-0.101867676,7.078125,4.578125,-1.0
1695397343281,-0.4272461,-0.89556885,-0.13702393,2.875,2.75,-2.8125
1695397343356,-0.57470703,-1.0903931,-0.13995361,8.1875,4.75,-4.875
1695397343356,-0.48828125,-1.2300415,-0.19586182,-4.1875,1.375,-1.9375
1695397343401,-0.62768555,-1.3792114,-0.31280518,-9.953125,-9.96875,3.1875
1695397343431,-0.46289062,-1.2920532,-0.5574341,-8.125,-7.15625,7.703125
1695397343475,0.050048828,-1.2766724,-0.34649658,-1.828125,7.890625,7.59375
1695397343521,-0.041015625,-0.7991333,-0.027160645,-10.359375,-10.484375,15.8125
1695397343551,-0.34936523,-0.7996216,-0.15386963,-9.703125,-9.5625,1.25
1695397343596,-0.2397461,-1.0481567,-0.05328369,-5.734375,-6.546875,0.21875
1695397343626,-0.38452148,-0.7671509,-0.14898682,-10.0625,1.359375,1.84375
1695397343671,-0.13964844,-0.7752075,-0.10284424,-0.078125,0.421875,-4.21875
1695397343716,-0.15307617,-0.7918091,-0.06964111,-5.421875,-12.234375,3.265625
1695397343746,-0.28320312,-0.63897705,-0.010314941,-1.234375,-7.125,6.859375
1695397343791,-0.2788086,-0.70147705,-5.493164E-4,6.5,-1.734375,0.171875
1695397343835,-0.2446289,-0.76348877,-0.012023926,5.265625,-1.21875,3.015625
1695397343864,-0.23583984,-0.89971924,0.0026245117,2.9375,-5.75,2.09375
1695397343910,-0.33007812,-1.1607056,-0.02178955,-0.703125,-12.21875,-3.234375
1695397343940,-0.3623047,-1.3379517,0.038024902,10.75,5.0,-4.0
1695397343986,-0.45898438,-1.2837524,-0.15216064,4.578125,-4.8125,-3.6875
1695397344031,-0.22753906,-1.4038696,-0.46588135,15.375,-2.703125,-7.984375
1695397344061,-0.25024414,-1.0227661,-0.3821411,8.84375,6.578125,8.65625
1695397344106,-0.44384766,-0.79644775,-0.2366333,14.15625,8.78125,5.21875
1695397344136,-0.060302734,-0.89849854,-0.19439697,12.796875,5.359375,-2.625
1695397344180,-0.3371582,-0.8579712,-0.14581299,-0.078125,5.359375,4.453125
1695397344226,-0.46313477,-0.8023071,-0.15411377,-4.59375,5.78125,-4.015625
1695397344255,-0.28588867,-0.7515259,-0.109436035,1.59375,10.8125,-3.9375
1695397344301,-0.25976562,-0.75909424,-0.12310791,-0.34375,6.171875,-1.859375
1695397344345,-0.23242188,-0.7456665,-0.12335205,0.921875,6.9375,-0.375
1695397344375,-0.24511719,-0.7761841,-0.06719971,6.796875,6.453125,0.828125
1695397344421,-0.34985352,-0.77130127,-0.11456299,5.265625,4.875,-0.78125
1695397344451,-0.36816406,-0.86505127,-0.13922119,3.546875,2.4375,-3.78125
1695397344496,-0.421875,-1.0957642,-0.117248535,8.234375,9.03125,-2.25
1695397344541,-0.5876465,-1.203186,-0.13970947,-4.96875,2.25,1.640625
1695397344570,-0.55078125,-1.2625122,-0.3850708,-3.859375,-8.140625,3.203125
1695397344616,-0.32080078,-1.3150024,-0.55596924,-2.609375,-9.796875,8.1875
1695397344646,0.029296875,-1.1187134,-0.36846924,-2.578125,-1.0,9.59375
1695397344690,-0.23413086,-0.9578247,-0.15997314,-4.296875,-5.984375,7.421875
1695397344736,-0.25048828,-0.9795532,-0.17510986,-2.75,2.125,0.8125
1695397344766,-0.40185547,-0.9590454,-0.113098145,-1.53125,8.125,2.34375
1695397344811,-0.30126953,-0.7756958,-0.1428833,-3.90625,9.296875,-1.5
1695397344856,-0.15136719,-0.8491821,-0.15557861,-4.046875,-1.8125,0.453125
1695397344886,-0.16845703,-0.6831665,-0.070617676,1.234375,-0.09375,7.625
1695397344931,-0.24365234,-0.6121216,-0.04425049,0.484375,0.328125,4.4375
1695397344960,-0.24633789,-0.7971802,-0.0635376,2.78125,1.109375,1.71875
1695397345006,-0.21557617,-0.8064575,-0.078186035,4.875,6.9375,3.265625
1695397345051,-0.29223633,-0.9014282,-0.07501221,2.9375,2.359375,-1.515625
1695397345082,-0.35668945,-0.98760986,-0.066711426,2.09375,6.96875,-2.40625
1695397345127,-0.4020996,-1.0567017,-0.03302002,-7.078125,10.796875,-7.71875
1695397345155,-0.25,-1.2488403,-0.13067627,1.609375,-9.53125,-13.640625
1695397345201,-0.3256836,-1.4505005,-0.32159424,4.046875,-2.359375,-2.96875
1695397345247,-0.37426758,-0.90753174,-0.40655518,4.859375,4.09375,4.03125
1695397345275,-0.42700195,-0.8171997,-0.409729,13.921875,5.5,1.484375
1695397345321,-0.22924805,-1.0108032,-0.33746338,19.328125,16.953125,-3.0625
1695397345366,-0.2590332,-0.93170166,-0.21685791,13.328125,9.328125,5.0
1695397345396,-0.3894043,-0.9234009,-0.16827393,7.953125,4.03125,3.4375
1695397345441,-0.34521484,-0.77471924,-0.13824463,4.578125,10.03125,5.6875
1695397345470,-0.41674805,-0.784729,-0.18658447,6.953125,13.25,-0.4375
1695397345516,-0.2980957,-0.8545532,-0.19293213,6.296875,16.046875,1.0625
1695397345560,-0.31982422,-0.7539673,-0.121398926,4.96875,17.5625,6.25
1695397345591,-0.35302734,-0.79351807,-0.16827393,1.984375,11.421875,3.296875
1695397345636,-0.34155273,-0.7925415,-0.19390869,2.75,12.125,4.390625
1695397345681,-0.32788086,-0.7007446,-0.13287354,7.78125,12.203125,7.53125
1695397345711,-0.3972168,-0.798645,-0.10675049,4.1875,9.25,5.78125
1695397345756,-0.34985352,-0.89630127,-0.028625488,10.484375,13.1875,5.6875
1695397345786,-0.55200195,-0.9170532,-0.023010254,0.4375,8.0625,8.046875
1695397345831,-0.69921875,-1.2183228,-0.09527588,-0.578125,6.078125,3.890625
1695397345876,-0.6826172,-1.5576782,-0.39019775,-8.53125,5.421875,6.859375
1695397345906,-0.4736328,-1.2644653,-0.41192627,-17.25,0.5625,20.375
1695397345952,0.107910156,-1.0737915,-0.36358643,0.25,18.296875,15.296875
1695397345980,-0.31469727,-0.8526001,-0.42803955,1.546875,14.578125,19.21875
1695397346026,-0.24829102,-0.8027954,-0.30181885,-14.34375,29.40625,5.8125
1695397346071,-0.13891602,-0.8225708,-0.22686768,-4.390625,37.140625,2.890625
1695397346100,-0.25585938,-0.88726807,-0.19610596,-13.390625,34.03125,-0.671875
1695397346146,-0.2487793,-0.9788208,-0.27520752,-13.40625,24.296875,-5.609375
1695397346191,-0.16992188,-0.88604736,-0.24053955,1.3125,34.671875,0.5625
1695397346221,-0.2939453,-0.848938,-0.16046143,5.8125,34.03125,5.609375
1695397346266,-0.203125,-0.8584595,-0.074035645,8.53125,36.34375,1.078125
1695397346296,-0.34179688,-0.90045166,-0.018615723,2.140625,35.984375,6.5625
1695397346341,-0.33325195,-0.74102783,-0.003479004,9.640625,46.578125,9.03125
1695397346386,-0.17163086,-0.7317505,-0.010314941,13.890625,42.34375,6.609375
1695397346416,-0.31054688,-0.8267212,-0.006164551,6.3125,29.8125,10.078125
1695397346461,-0.39868164,-0.73028564,-0.08868408,11.515625,37.03125,7.03125
1695397346490,-0.24072266,-0.8652954,-0.020324707,16.984375,30.90625,6.03125
1695397346535,-0.41259766,-1.0003052,0.14471436,7.328125,36.671875,5.703125
1695397346580,-0.5085449,-1.1055298,0.17303467,3.578125,43.46875,-10.34375
1695397346611,-0.6599121,-1.236145,-0.09185791,3.0,19.78125,-18.984375
1695397346656,0.018798828,-1.6672974,-0.41241455,23.90625,-1.21875,-21.734375
1695397346701,-0.61987305,-1.5593872,-0.21026611,20.078125,0.34375,11.5
1695397346730,-0.45483398,-0.642395,-0.50787354,1.140625,39.5,-6.1875
1695397346775,0.103027344,-0.91363525,-0.5430298,16.5625,10.59375,-5.859375
1695397346805,-0.13500977,-1.1919556,-0.1951294,18.390625,15.578125,1.015625
1695397346851,-0.45361328,-0.80181885,-0.1687622,2.9375,16.40625,6.140625
1695397346895,-0.23486328,-0.75445557,-0.15460205,1.0625,12.34375,-2.96875
1695397346926,-0.31689453,-0.73638916,-0.18609619,-2.296875,8.484375,4.4375
1695397346970,-0.2788086,-0.69781494,-0.14117432,0.125,11.65625,-0.96875
1695397347000,-0.1899414,-0.78082275,-0.12994385,9.328125,6.8125,2.265625
1695397347046,-0.31860352,-0.7744751,-0.031799316,-1.53125,3.640625,3.390625
1695397347091,-0.35717773,-0.76031494,-0.07110596,-3.3125,7.90625,-1.6875
1695397347120,-0.38793945,-0.73394775,-0.13067627,2.71875,4.109375,-0.078125
1695397347165,-0.4560547,-0.90582275,-0.058410645,6.9375,7.046875,-1.296875
1695397347210,-0.49951172,-1.0088501,-0.085754395,-2.09375,9.65625,-3.1875
1695397347241,-0.49414062,-1.1663208,-0.08746338,-0.390625,10.1875,2.875
1695397347286,-0.52001953,-1.1504517,-0.2678833,-2.1875,-0.34375,8.25
1695397347315,-0.3466797,-1.5264282,-0.3743286,7.171875,-7.359375,-0.78125
1695397347360,-0.059326172,-1.2918091,-0.32696533,2.28125,-0.375,18.203125
1695397347406,-0.12866211,-0.78009033,-0.1716919,-1.546875,-9.828125,16.078125
1695397347435,-0.2211914,-0.8381958,-0.13214111,-1.09375,-6.125,-0.28125
1695397347480,-0.29370117,-0.95196533,-0.074035645,4.109375,7.609375,5.9375
1695397347510,-0.48950195,-0.8057251,-0.022277832,-5.640625,11.96875,-1.3125
1695397347556,-0.24194336,-0.84698486,-0.10992432,1.984375,12.125,-3.046875
1695397347600,-0.18383789,-0.7817993,-0.12579346,3.390625,-0.203125,5.3125
1695397347631,-0.23657227,-0.7503052,-0.016906738,5.03125,2.890625,6.796875
1695397347675,-0.3022461,-0.70440674,-0.034973145,6.03125,3.015625,7.46875
1695397347752,-0.25585938,-0.77838135,-0.028625488,10.5,5.640625,7.3125
1695397347753,-0.21386719,-0.81866455,-0.073791504,5.296875,3.421875,5.59375
1695397347796,-0.21826172,-1.0142212,0.0021362305,10.84375,8.796875,4.03125
1695397347826,-0.42626953,-1.0994263,0.023376465,5.65625,13.40625,2.40625
1695397347871,-0.40893555,-1.2192993,-0.093322754,3.09375,7.75,-6.125
1695397347915,-0.24023438,-1.482727,-0.45758057,20.34375,2.640625,-3.796875
1695397347945,-0.28149414,-1.1084595,-0.35699463,-2.140625,-4.546875,10.390625
1695397347990,-0.31152344,-0.7515259,-0.36602783,14.9375,13.90625,11.65625
1695397348020,-0.37670898,-1.0613403,-0.4216919,15.0625,33.9375,-2.515625
1695397348066,-0.24389648,-0.94854736,-0.22784424,14.390625,18.1875,-0.953125
1695397348111,-0.40966797,-0.94195557,-0.17315674,-4.765625,5.578125,4.703125
1695397348140,-0.48242188,-0.68634033,-0.19366455,-4.359375,17.15625,-0.328125
1695397348185,-0.24584961,-0.69122314,-0.19122314,10.234375,22.265625,2.9375
1695397348231,-0.18457031,-0.7383423,-0.14263916,4.359375,16.796875,-0.015625
1695397348261,-0.30395508,-0.7756958,-0.12774658,10.453125,21.328125,4.5
1695397348306,-0.3635254,-0.84381104,-0.15362549,1.625,18.921875,2.4375
1695397348335,-0.3503418,-0.82476807,-0.19805908,7.546875,17.703125,1.984375
1695397348380,-0.3701172,-0.77545166,-0.13580322,6.875,17.9375,5.71875
1695397348426,-0.29760742,-0.8682251,-0.10040283,9.546875,14.484375,1.765625
1695397348455,-0.35546875,-0.84552,-0.03741455,5.0,9.96875,8.171875
1695397348501,-0.3725586,-0.9507446,-0.04937744,0.578125,-1.421875,2.796875
1695397348530,-0.36401367,-1.227356,-0.10772705,1.171875,-2.359375,2.5625
1695397348576,-0.9909668,-1.0359497,-0.07891846,10.140625,-4.0625,30.390625
1695397348621,-0.513916,-1.65802,-0.39117432,-5.5,-2.21875,-4.28125
1695397348650,-0.13232422,-1.2158813,-0.49127197,-20.578125,-13.40625,15.328125
1695397348696,-0.22021484,-0.93341064,-0.4180298,-7.34375,-7.375,17.9375
1695397348741,-0.0871582,-0.91729736,-0.3640747,-25.125,10.359375,1.109375
1695397348770,-0.14575195,-0.7258911,-0.18780518,-21.1875,35.734375,2.8125
1695397348816,-0.2800293,-0.6831665,-0.06524658,-17.546875,38.984375,-10.46875
1695397348893,-0.19677734,-1.0105591,-0.159729,-2.34375,35.953125,-15.96875
1695397348893,-0.38671875,-0.9014282,-0.25421143,4.234375,39.96875,-1.15625
1695397348937,-0.1027832,-0.74786377,-0.19342041,3.265625,41.703125,-8.390625
1695397348965,-0.21655273,-0.89190674,-0.02545166,-3.109375,37.90625,-6.71875
1695397349011,-0.22875977,-0.9439087,0.02532959,-0.484375,36.984375,-4.09375
1695397349041,-0.34326172,-0.8015747,0.035339355,5.515625,44.3125,1.640625
1695397349086,-0.39160156,-0.81695557,0.005065918,7.671875,45.921875,-3.296875
1695397349131,-0.33374023,-0.9133911,-0.024475098,-1.140625,41.15625,-0.46875
1695397349161,-0.3137207,-0.6946411,0.058044434,8.21875,38.140625,-1.15625
1695397349206,-0.3190918,-0.70098877,0.06048584,17.515625,36.59375,-3.609375
1695397349251,-0.24707031,-0.85040283,0.004333496,17.15625,25.265625,1.203125
1695397349280,-0.4519043,-0.9204712,0.105651855,27.34375,29.34375,5.1875
1695397349326,-0.6394043,-1.1255493,0.23284912,23.03125,33.203125,1.5625
1695397349355,-0.53344727,-1.1101685,0.048034668,10.125,25.65625,-8.328125
1695397349400,-0.23242188,-1.5952759,-0.17218018,27.078125,9.53125,-5.375
1695397349446,-0.73291016,-1.8018188,-0.13482666,9.9375,8.328125,14.46875
1695397349475,-0.3869629,-0.6375122,-0.30792236,-8.625,19.5,3.1875
1695397349521,-0.17553711,-0.76275635,-0.38238525,12.53125,11.734375,-1.5625
1695397349550,-0.18164062,-1.1980591,-0.48736572,12.921875,21.4375,-3.953125
1695397349595,-0.3828125,-1.017395,-0.12237549,8.359375,22.765625,8.015625
1695397349640,-0.27612305,-0.8394165,-0.08843994,4.5625,22.328125,2.4375
1695397349670,-0.29907227,-0.8164673,-0.21392822,4.890625,18.046875,1.390625
1695397349716,-0.2939453,-0.7127075,-0.120666504,9.328125,19.703125,1.703125
1695397349761,-0.3474121,-0.7276001,-0.047424316,11.828125,20.75,1.03125
1695397349790,-0.28344727,-0.7630005,-0.11773682,8.796875,19.90625,2.140625
1695397349836,-0.25683594,-0.7476196,-0.08843994,12.390625,16.75,3.453125
1695397349865,-0.35498047,-0.74420166,-0.028137207,8.140625,17.65625,4.625
1695397349911,-0.34838867,-0.7437134,-0.08526611,10.1875,14.78125,-0.3125
1695397349956,-0.37939453,-0.8250122,-0.13555908,9.125,12.28125,-1.40625
1695397349985,-0.5085449,-1.039856,-0.08770752,4.21875,12.359375,-0.59375
1695397350030,-0.5358887,-1.1592407,-0.1807251,1.171875,2.921875,0.203125
1695397350060,-0.4152832,-1.3338013,-0.3057251,4.078125,-6.375,5.0
1695397350106,-0.39868164,-1.6497192,-0.30792236,2.203125,0.078125,8.734375
1695397350150,-0.23168945,-1.1365356,-0.18780518,-1.421875,-0.953125,12.40625
1695397350181,-0.2097168,-0.74468994,-0.2637329,-15.578125,-12.34375,7.546875
1695397350232,0.018798828,-1.0076294,-0.12042236,4.875,-0.390625,-1.390625
1695397350270,-0.2849121,-0.98321533,-0.00592041,-2.6875,0.875,9.21875
1695397350301,-0.35131836,-0.753479,-0.018371582,-9.703125,-3.109375,3.046875
1695397350346,-0.1628418,-0.77545166,-0.06085205,-0.28125,-10.546875,-2.9375
1695397350375,-0.2487793,-0.6470337,-0.04058838,3.09375,-7.15625,3.59375
1695397350421,-0.17700195,-0.6428833,-0.024230957,-1.484375,-5.265625,2.9375
1695397350466,-0.21484375,-0.79693604,-0.0713501,3.375,-12.125,4.875
1695397350495,-0.38891602,-0.8179321,0.022644043,1.8125,0.296875,6.015625
1695397350541,-0.2607422,-0.98321533,-0.08746338,1.171875,-4.46875,-0.3125
1695397350586,-0.24951172,-1.269104,0.06829834,8.703125,3.34375,-3.375
1695397350616,-0.5500488,-1.3965454,-0.018615723,2.609375,9.359375,-5.75
1695397350660,-0.39331055,-1.3274536,-0.30181885,-2.734375,-3.046875,-17.171875
1695397350690,-0.25976562,-1.3352661,-0.31329346,8.109375,13.109375,-2.265625
1695397350736,-0.21679688,-0.74102783,-0.4036255,-1.640625,21.5,1.765625
1695397350780,-0.25390625,-0.8623657,-0.19049072,20.375,24.109375,-9.9375
1695397350811,-0.21386719,-1.05719,-0.081604004,6.828125,8.15625,-2.75
1695397350856,-0.3779297,-0.7276001,-0.1026001,-0.3125,7.328125,3.9375
1695397350886,-0.34179688,-0.63604736,-0.07110596,11.078125,16.515625,-2.671875
1695397350930,-0.2800293,-0.6199341,-0.09698486,12.3125,15.625,-0.28125
1695397350976,-0.1574707,-0.6321411,-0.035949707,11.765625,10.90625,2.109375
1695397351005,-0.28198242,-0.7642212,-0.09820557,1.71875,-0.4375,2.53125
1695397351050,-0.3684082,-0.85601807,-0.07867432,2.15625,-4.3125,-0.0625
1695397351095,-0.46777344,-0.88604736,-0.1038208,9.3125,-3.109375,0.203125
1695397351126,-0.46655273,-1.0569458,-0.07501221,8.25,1.671875,-0.453125
1695397351171,-0.54541016,-1.1436157,-0.08673096,4.40625,6.640625,0.984375
1695397351200,-0.5769043,-1.2693481,-0.25250244,-2.703125,-5.390625,4.828125
1695397351246,-0.4111328,-1.468811,-0.49224854,-6.609375,-21.125,5.5
1695397351290,0.087646484,-1.5562134,-0.4282837,-11.578125,-2.46875,12.125
1695397351321,-0.1665039,-0.8796997,-0.06866455,-9.0,-9.921875,22.421875
1695397351366,-0.50561523,-0.50128174,-0.37261963,-22.046875,-33.90625,13.4375
1695397351396,0.104003906,-1.104065,-0.08135986,10.265625,15.328125,-7.609375
1695397351441,-0.40454102,-0.8850708,-0.035949707,-13.640625,0.40625,11.515625
1695397351486,-0.16674805,-0.6370239,-0.034240723,-15.28125,-5.046875,-6.65625
1695397351515,-0.084472656,-0.77349854,-0.06500244,-6.140625,-5.921875,-4.03125
1695397351561,-0.21655273,-0.6553345,-0.0012817383,3.03125,-3.265625,3.671875
1695397351606,-0.17602539,-0.72247314,0.015319824,8.90625,0.53125,5.59375
1695397351635,-0.2565918,-0.7854614,-0.06036377,1.15625,-1.546875,2.265625
1695397351681,-0.22021484,-0.97198486,0.009216309,2.625,-6.0625,0.84375
1695397351711,-0.29833984,-1.0840454,0.051696777,6.125,-0.953125,-0.40625
1695397351756,-0.4038086,-1.2056274,0.059509277,-3.5,0.890625,-4.65625
1695397351801,-0.40307617,-1.2703247,-0.08746338,-1.953125,4.875,-11.9375
1695397351831,-0.32421875,-1.3308716,-0.3838501,-0.296875,-21.34375,-8.296875
1695397351876,-0.28076172,-1.5745239,-0.19805908,11.484375,4.34375,-3.125
1695397351906,-0.4284668,-0.77789307,-0.2276001,1.296875,18.703125,5.78125
1695397351951,-0.15258789,-0.7151489,-0.35699463,0.21875,13.359375,-9.25
1695397351996,0.00390625,-1.1792603,-0.21905518,22.0,7.234375,-4.265625
1695397352025,-0.38867188,-0.9048462,-0.070129395,0.90625,6.65625,8.515625
1695397352071,-0.45581055,-0.76934814,-0.08770752,2.546875,11.71875,-6.234375
1695397352115,-0.21435547,-0.64263916,-0.13482666,1.390625,5.75,-0.875
1695397352145,-0.09667969,-0.6445923,-0.07476807,11.90625,5.875,0.796875
1695397352191,-0.21972656,-0.67974854,-0.035461426,9.578125,5.109375,-1.53125
1695397352221,-0.26708984,-0.6680298,-0.08380127,8.203125,-1.484375,-3.171875
1695397352266,-0.3203125,-0.93170166,-0.117004395,1.53125,-0.546875,-6.328125
1695397352310,-0.5444336,-1.1907349,-0.120910645,1.203125,1.828125,-4.546875
1695397352340,-0.5263672,-1.326477,-0.13189697,-3.453125,1.0625,-0.796875
1695397352386,-0.41088867,-1.3023071,-0.39678955,-14.8125,-5.515625,6.03125
1695397352415,-0.34204102,-1.3169556,-0.4307251,-8.59375,-8.765625,10.90625
1695397352461,0.05078125,-1.1709595,-0.25299072,-4.140625,2.5625,5.578125
1695397352506,-0.15820312,-0.78570557,-0.15240479,-7.96875,-12.25,10.328125
1695397352536,-0.19116211,-0.90704346,-0.1807251,-4.59375,-15.671875,-4.28125
1695397352581,-0.26879883,-1.0784302,0.011169434,-7.109375,-3.515625,6.59375
1695397352626,-0.4189453,-0.7007446,-0.09918213,-4.140625,0.03125,2.140625
1695397352656,-0.08959961,-0.7246704,-0.19073486,6.15625,-0.65625,-0.734375
1695397352701,-0.08959961,-0.7307739,-0.054748535,2.875,-6.984375,8.734375
1695397352730,-0.23535156,-0.6658325,0.041931152,11.0,-1.71875,7.984375
1695397352776,-0.27416992,-0.7349243,-0.024475098,-4.8125,-6.75,3.015625
1695397352821,-0.1875,-0.8442993,-0.08062744,-3.1875,-3.09375,0.484375
1695397352851,-0.20703125,-1.0479126,-0.018859863,8.953125,1.625,3.0
1695397352896,-0.3605957,-1.2590942,0.07977295,2.109375,4.703125,-2.5625
1695397352925,-0.4819336,-1.2808228,-0.09429932,-0.1875,12.625,-8.65625
1695397352970,-0.24438477,-1.3440552,-0.45343018,7.921875,-0.1875,-6.140625
1695397353016,-0.17749023,-1.4172974,-0.30426025,7.6875,6.171875,2.015625
1695397353045,-0.40185547,-0.7979126,-0.18536377,7.921875,16.875,8.515625
1695397353090,-0.30395508,-0.7324829,-0.25299072,7.96875,21.53125,-9.15625
1695397353135,-0.028076172,-0.87994385,-0.22540283,11.46875,7.484375,-5.96875
1695397353165,-0.36621094,-0.8623657,-0.19171143,-2.0,1.015625,1.546875
1695397353211,-0.5473633,-0.76397705,-0.1296997,-7.4375,14.78125,-6.34375
1695397353241,-0.23168945,-0.69073486,-0.1819458,4.15625,17.8125,-4.125
1695397353285,-0.1809082,-0.81573486,-0.1638794,-1.328125,5.109375,-4.203125
1695397353331,-0.29296875,-0.739563,-0.12628174,0.234375,8.1875,2.515625
1695397353361,-0.3425293,-0.7437134,-0.037902832,6.859375,9.671875,0.9375
1695397353406,-0.32983398,-0.8328247,-0.15924072,6.78125,12.90625,1.046875
1695397353436,-0.3720703,-0.9241333,-0.16534424,5.203125,7.890625,3.4375
1695397353481,-0.46069336,-0.9180298,-0.10089111,8.5,7.34375,1.890625
1695397353525,-0.5053711,-0.9470825,-0.03765869,7.984375,10.9375,2.796875
1695397353555,-0.47143555,-1.1194458,-0.11212158,7.0,13.859375,0.578125
1695397353600,-0.4272461,-1.190979,-0.20904541,1.28125,-0.640625,1.8125
1695397353646,-0.5656738,-1.3325806,-0.25738525,4.40625,-9.484375,10.671875
1695397353675,-0.27197266,-1.6380005,-0.46759033,4.484375,-6.578125,10.953125
1695397353721,-0.23999023,-0.9536743,-0.29864502,-1.515625,-4.65625,13.96875
1695397353751,-0.14086914,-0.5913696,-0.22003174,12.921875,-2.0,15.703125
1695397353795,-0.01586914,-1.0422974,-0.1260376,4.484375,7.484375,-8.515625
1695397353840,-0.45532227,-0.9776001,-0.09185791,-3.890625,7.140625,8.203125
1695397353871,-0.30249023,-0.8442993,-0.1687622,-8.921875,11.453125,-2.015625
1695397353916,-0.12792969,-0.9439087,-0.21124268,-3.09375,0.46875,-1.71875
1695397353945,-0.2602539,-0.9019165,-0.030578613,-5.15625,-0.71875,3.421875
1695397353990,-0.12890625,-0.64678955,-0.013244629,-9.71875,3.953125,10.671875
1695397354035,-0.29638672,-0.5288696,-0.022277832,-2.15625,11.859375,2.15625
1695397354065,-0.26831055,-0.71588135,-0.027648926,-0.578125,9.90625,0.015625
1695397354111,-0.14868164,-0.75494385,-0.03253174,8.9375,13.78125,3.484375
1695397354155,-0.25708008,-0.83673096,-0.027160645,6.828125,14.8125,3.84375
1695397354185,-0.34472656,-0.88946533,0.07220459,10.515625,15.875,4.046875
1695397354231,-0.3515625,-1.0564575,0.06854248,10.328125,15.46875,1.453125
1695397354260,-0.2265625,-1.3255005,-0.1795044,-2.265625,-7.890625,-4.0
1695397354305,-0.11303711,-1.6380005,0.073913574,7.171875,0.0625,8.109375
1695397354351,-1.4074707,-1.5637817,-0.38116455,7.03125,-4.3125,8.265625
1695397354380,-0.055419922,-0.7962036,-0.6062622,-16.421875,33.609375,-16.703125
1695397354426,0.22045898,-0.91973877,-0.62701416,21.1875,33.84375,10.34375
1695397354456,-0.27563477,-0.6970825,-0.3587036,8.71875,22.171875,-0.46875
1695397354501,-0.19067383,-0.8496704,-0.32965088,12.421875,18.296875,0.328125
1695397354546,-0.34814453,-0.79107666,-0.27545166,8.0625,23.609375,0.125
1695397354576,-0.3461914,-0.80548096,-0.32110596,13.59375,31.15625,1.078125
1695397354621,-0.30541992,-0.8933716,-0.26861572,7.109375,30.484375,0.390625
1695397354665,-0.26513672,-0.85821533,-0.13873291,15.015625,33.8125,7.1875
1695397354696,-0.32421875,-0.8267212,-0.1026001,2.15625,25.765625,8.484375
1695397354741,-0.30810547,-0.75177,-0.10235596,0.34375,30.015625,2.1875
1695397354770,-0.38061523,-0.7053833,-0.17901611,-2.75,23.265625,7.203125
1695397354816,-0.47460938,-0.736145,-0.109436035,5.03125,28.984375,0.625
1695397354861,-0.28881836,-0.8262329,-0.14752197,-2.53125,25.046875,0.65625
1695397354890,-0.26220703,-0.82354736,-0.13067627,-1.3125,13.421875,7.1875
1695397354937,-0.47973633,-0.9365845,-0.039855957,0.046875,15.828125,4.0
1695397354981,-0.6843262,-1.1433716,0.019714355,-2.984375,24.015625,3.359375
1695397355010,-0.6652832,-1.2842407,-0.24542236,-16.46875,5.3125,0.859375
1695397355056,-0.43188477,-1.6345825,-0.4212036,-0.90625,-2.640625,5.859375
1695397355085,-0.06518555,-1.5454712,-0.34747314,-7.1875,14.0,17.765625
1695397355131,-0.3696289,-0.7774048,-0.19805908,-4.921875,2.96875,20.625
1695397355176,-0.026855469,-0.62872314,-0.38604736,-8.0,8.484375,-4.390625
1695397355205,0.08081055,-1.2481079,-0.10040283,10.734375,12.421875,-1.5
1695397355251,-0.34985352,-0.8604126,-0.027893066,-8.296875,9.0625,10.546875
1695397355281,-0.30029297,-0.7402954,-0.11968994,-2.765625,13.5,-0.359375
1695397355326,-0.10595703,-0.83013916,-0.0947876,5.125,14.359375,2.625
1695397355371,-0.22436523,-0.77471924,-0.031799316,8.515625,18.296875,7.609375
1695397355400,-0.21826172,-0.70635986,0.011413574,2.015625,14.015625,8.484375
1695397355446,-0.18310547,-0.64068604,-0.02178955,5.734375,15.234375,6.5625
1695397355490,-0.15991211,-0.7710571,0.028015137,8.390625,16.078125,4.828125
1695397355520,-0.2565918,-0.9146118,-0.030822754,7.1875,12.859375,4.203125
1695397355566,-0.38720703,-1.1084595,0.0446167,7.546875,25.109375,-1.15625
1695397355595,-0.40771484,-1.1714478,0.02532959,7.125,31.5,-5.640625
1695397355641,-0.5041504,-1.3516235,-0.054504395,14.078125,30.59375,-11.59375
1695397355685,-0.13232422,-1.2478638,-0.5615845,9.46875,10.71875,-12.046875
1695397355716,-0.20996094,-1.1270142,-0.29327393,27.421875,19.78125,12.328125
1695397355760,-0.64404297,-0.8508911,-0.30670166,10.234375,36.921875,-0.171875
1695397355790,-0.13183594,-0.8723755,-0.36846924,22.5,36.75,-9.4375
1695397355836,-0.07421875,-1.0894165,-0.11920166,19.453125,19.78125,5.984375
1695397355881,-0.5541992,-0.72979736,-0.1663208,4.8125,19.640625,4.890625
1695397355910,-0.45263672,-0.72369385,-0.16705322,4.375,28.328125,-0.84375
1695397355956,-0.13891602,-0.74957275,-0.24395752,15.484375,22.625,1.859375
1695397356031,-0.14819336,-0.79229736,-0.078186035,17.953125,22.421875,6.65625
1695397356032,-0.3581543,-0.73394775,-0.07550049,7.9375,15.703125,5.515625
1695397356076,-0.34399414,-0.8088989,-0.16729736,17.1875,17.171875,2.828125
1695397356105,-0.3708496,-0.8831177,-0.19805908,8.71875,12.53125,4.953125
1695397356150,-0.46362305,-0.97369385,-0.17340088,6.875,13.0,4.25
1695397356196,-0.5161133,-1.2285767,-0.14263916,2.46875,11.203125,4.921875
1695397356226,-0.53027344,-1.0859985,-0.36505127,-14.46875,-5.828125,11.375
1695397356271,-0.28344727,-1.4424438,-0.57403564,-5.421875,-2.046875,8.125
1695397356301,0.2890625,-1.4180298,-0.23492432,-4.59375,7.453125,21.890625
1695397356345,-0.43554688,-0.58477783,-0.04937744,-4.359375,-7.3125,30.234375
1695397356391,-0.28149414,-0.7966919,-0.17608643,-13.3125,4.078125,-8.453125
1695397356420,-0.095703125,-1.1963501,-0.08062744,-2.59375,3.859375,5.90625
1695397356466,-0.23901367,-0.87701416,0.034118652,-25.65625,3.671875,7.265625
1695397356511,-0.27441406,-0.8777466,-0.11968994,-20.1875,1.234375,-3.859375
1695397356540,-0.17993164,-0.86553955,-0.05718994,-8.625,7.9375,2.921875
1695397356586,-0.17456055,-0.85040283,0.031677246,0.390625,8.34375,7.15625
1695397356616,-0.19140625,-0.7954712,-0.023742676,-2.65625,5.03125,7.0
1695397356660,-0.13964844,-0.7944946,0.04437256,3.75,6.9375,9.0625
1695397356705,-0.18530273,-0.78204346,0.04852295,0.109375,2.921875,8.515625
1695397356736,-0.23901367,-0.72076416,0.07952881,12.28125,9.90625,9.75
1695397356780,-0.29663086,-0.7346802,0.06414795,6.625,10.640625,3.375
1695397356811,-0.18603516,-0.92022705,0.089538574,16.21875,17.625,1.796875
1695397356856,-0.38012695,-0.99713135,0.12982178,16.578125,26.78125,5.0
1695397356900,-0.3696289,-1.1050415,0.11444092,11.609375,20.171875,-3.609375
1695397356930,-0.3112793,-1.5286255,0.039978027,12.578125,13.328125,0.0625
1695397356976,-0.34545898,-1.4917603,-0.004699707,0.671875,-2.328125,-4.34375
1695397357052,-0.7836914,-1.5327759,-0.44976807,16.078125,-1.078125,-11.78125
1695397357053,0.15673828,-0.7564087,-0.5540161,-7.71875,33.375,8.59375
1695397357096,0.068847656,-0.8858032,-0.41314697,29.125,12.796875,7.109375
1695397357126,-0.21435547,-1.0215454,-0.26690674,-2.484375,40.140625,-0.625
1695397357170,-0.55078125,-0.8855591,-0.32696533,2.671875,35.828125,-3.640625
1695397357215,-0.1706543,-0.8604126,-0.36871338,5.140625,40.546875,-7.765625
1695397357246,-0.115234375,-0.9439087,-0.23199463,11.5,27.578125,3.4375
1695397357291,-0.2944336,-0.86383057,-0.15826416,6.8125,31.609375,0.953125
1695397357321,-0.47436523,-0.7683716,-0.18951416,9.515625,30.1875,2.5
1695397357366,-0.18115234,-0.77911377,-0.09552002,19.765625,44.90625,0.859375
1695397357410,-0.25585938,-0.7214966,-0.0044555664,14.25,39.90625,6.625
1695397357441,-0.45898438,-0.62164307,-0.16949463,1.234375,35.828125,2.796875
1695397357486,-0.23486328,-0.7605591,-0.21490479,8.609375,32.265625,1.234375
1695397357531,-0.08203125,-0.90411377,-0.19268799,12.140625,27.734375,5.125
1695397357561,-0.39746094,-0.91973877,0.013366699,2.84375,22.84375,7.203125
1695397357605,-0.6291504,-1.0679321,0.027038574,3.1875,26.15625,2.1875
1695397357636,-0.6352539,-1.2097778,-0.17437744,-9.65625,9.671875,4.5625
1695397357681,-0.5854492,-1.3118286,-0.36676025,-14.15625,-2.4375,5.203125
1695397357725,-0.16088867,-1.8999634,-0.46392822,12.046875,19.515625,-1.125
1695397357755,-0.18969727,-0.9258423,-0.37701416,-12.75,4.078125,18.1875
1695397357800,-0.23706055,-0.58477783,-0.34796143,0.703125,8.359375,4.96875
1695397357830,0.057373047,-1.2837524,-0.2341919,14.421875,16.578125,-9.265625
1695397357876,-0.22583008,-1.0288696,-0.090148926,-11.078125,0.734375,13.265625
1695397357921,-0.30639648,-0.6333618,-0.11553955,-0.796875,11.328125,3.53125
1695397357950,-0.16113281,-0.7788696,-0.14605713,1.765625,9.4375,-1.359375
1695397357996,-0.14257812,-0.7842407,-0.07745361,3.875,7.15625,8.46875
1695397358041,-0.32348633,-0.71759033,-0.010070801,-5.484375,8.8125,7.890625
1695397358070,-0.25268555,-0.6921997,-0.11383057,-4.90625,19.765625,-1.578125
1695397358116,-0.20922852,-0.80059814,-0.042785645,11.515625,19.921875,3.34375
1695397358208,-0.15356445,-0.93756104,-0.03717041,6.203125,11.65625,-0.796875
1695397358209,-0.3713379,-1.0501099,0.11639404,3.8125,17.828125,-3.953125
1695397358236,-0.49365234,-1.1152954,0.066589355,-5.109375,20.953125,-7.953125
1695397358266,-0.5070801,-1.4378052,-0.16265869,5.0625,23.0625,-22.546875
1695397358311,-0.13134766,-1.2092896,-0.50909424,-0.234375,-1.140625,-5.484375
1695397358340,-0.5900879,-0.96343994,-0.14898682,13.03125,21.40625,10.453125
1695397358385,-0.43798828,-0.7781372,-0.38433838,-5.6875,49.1875,-17.9375
1695397358430,0.038085938,-1.0244751,-0.19317627,25.9375,27.0,-10.65625
1695397358460,-0.19921875,-1.0205688,-0.09283447,8.78125,18.515625,1.046875
1695397358506,-0.47705078,-0.6494751,-0.02520752,7.09375,18.984375,1.25
1695397358551,-0.35498047,-0.64678955,0.024841309,-2.34375,13.953125,-1.65625
1695397358580,-0.2841797,-0.6506958,-0.12872314,10.015625,15.5625,-4.546875
1695397358626,-0.2368164,-0.8052368,-0.09283447,12.671875,11.40625,-1.3125
1695397358656,-0.32617188,-0.96588135,-0.066223145,7.9375,4.0625,2.859375
1695397358701,-0.42919922,-0.9026489,-0.030822754,11.109375,0.46875,3.734375
1695397358746,-0.5239258,-0.96051025,-0.07183838,2.203125,3.515625,1.625
1695397358775,-0.6726074,-1.1880493,-0.0115356445,6.390625,9.390625,-0.46875
1695397358821,-0.5461426,-1.2883911,-0.27471924,-14.234375,0.328125,3.28125
1695397358851,-0.40112305,-1.1777954,-0.41949463,-11.75,-25.359375,5.3125
1695397358895,0.08666992,-1.3396606,-0.2210083,3.078125,-1.296875,3.609375
1695397358941,-0.0715332,-0.98931885,-0.06964111,-1.09375,3.4375,14.46875
1695397358970,-0.43823242,-0.72320557,-0.16827393,-10.203125,-17.640625,4.921875
1695397359016,-0.27148438,-0.9546509,0.012878418,6.71875,8.546875,-3.25
1695397359060,-0.31030273,-0.7966919,-0.016662598,-10.6875,-2.75,0.28125
1695397359090,-0.21777344,-0.67755127,-0.094055176,-5.75,0.328125,1.1875
1695397359136,-0.17382812,-0.6873169,-0.028137207,-2.03125,-8.828125,1.796875
1695397359165,-0.26733398,-0.6538696,0.07318115,9.21875,-0.671875,7.40625
1695397359210,-0.38476562,-0.725647,0.0053100586,-3.40625,-1.3125,1.234375
1695397359256,-0.3034668,-0.90631104,0.039978027,0.625,0.21875,-2.234375
1695397359285,-0.24804688,-0.9780884,0.026306152,-0.078125,-1.46875,-0.34375
1695397359331,-0.3461914,-1.1758423,0.15179443,-1.59375,3.90625,-4.359375
1695397359375,-0.5090332,-1.2800903,0.07537842,-7.8125,-0.671875,-8.53125
1695397359405,-0.41796875,-1.2129517,-0.30426025,-8.328125,-22.296875,-9.609375
1695397359451,-0.15893555,-1.5740356,-0.26593018,12.890625,-1.359375,-0.875
1695397359481,-0.6281738,-0.95196533,-0.10772705,6.15625,7.84375,11.15625
1695397359526,-0.34985352,-0.5623169,-0.2756958,5.578125,13.09375,-6.328125
1695397359571,-0.064208984,-0.97052,-0.17193604,24.984375,10.5,-5.265625
1695397359601,-0.39868164,-0.97247314,-0.074035645,6.71875,5.296875,4.8125
1695397359646,-0.5205078,-0.7859497,-0.04840088,5.671875,10.78125,-5.1875
1695397359675,-0.36572266,-0.8057251,-0.12188721,-1.09375,7.84375,1.140625
1695397359721,-0.27026367,-0.7283325,-0.11627197,8.703125,3.484375,0.28125
1695397359766,-0.21240234,-0.8062134,-0.018371582,15.1875,5.015625,1.296875
1695397359795,-0.34545898,-0.66729736,-0.0012817383,6.21875,2.984375,6.28125
1695397359841,-0.3713379,-0.6668091,-0.070617676,10.375,-0.421875,2.65625
1695397359886,-0.38916016,-0.9038696,-0.07305908,10.0,1.40625,-0.875
1695397359916,-0.54052734,-0.9746704,-0.12628174,9.625,0.6875,1.6875
1695397359961,-0.56152344,-1.3399048,-0.1963501,4.75,5.671875,-2.6875
1695397359991,-0.54248047,-1.2625122,-0.3657837,-21.96875,-26.21875,3.640625
1695397360036,-0.29345703,-1.5447388,-0.4212036,-25.046875,-19.0,-7.546875
1695397360081,-0.010498047,-1.2251587,-0.22833252,-10.359375,-10.984375,9.40625
1695397360110,-0.29956055,-0.7649536,-0.12652588,-7.765625,-13.5,17.421875
1695397360155,-0.044921875,-0.8909302,-0.09893799,-10.0625,-6.140625,3.921875
1695397360185,-0.38842773,-0.90509033,0.026794434,-8.671875,-2.78125,6.203125
1695397360230,-0.2409668,-0.8357544,-0.026672363,-7.15625,-5.125,-2.546875
1695397360276,-0.20532227,-0.6939087,-0.10333252,1.171875,-3.984375,6.109375
1695397360305,-0.22607422,-0.5928345,-0.07696533,-1.578125,-5.4375,2.640625
1695397360351,-0.24169922,-0.69244385,0.00970459,5.78125,0.9375,4.46875
1695397360396,-0.24023438,-0.7605591,0.05657959,-1.859375,-4.390625,4.296875
1695397360426,-0.17871094,-0.8291626,-0.015197754,-4.90625,-8.515625,1.828125
1695397360470,-0.22485352,-1.0093384,-0.007385254,0.453125,-8.328125,4.703125
1695397360501,-0.42749023,-1.3130493,0.22235107,15.125,16.046875,-3.140625
1695397360545,-0.48706055,-1.3464966,-0.054992676,3.8125,5.71875,-8.515625
1695397360590,-0.3701172,-1.4067993,-0.32110596,4.765625,-17.03125,-12.453125
1695397360621,-0.30615234,-1.4744263,-0.3008423,4.03125,-1.5,0.015625
1695397360666,-0.49316406,-0.6814575,-0.15582275,3.0625,27.3125,1.34375
1695397360696,-0.14160156,-0.8555298,-0.3953247,3.703125,9.359375,-9.734375
1695397360742,0.045166016,-1.185852,-0.028625488,22.8125,3.421875,-1.9375
1695397360786,-0.4387207,-0.7371216,-0.06842041,-12.34375,1.765625,10.515625
1695397360816,-0.49389648,-0.53082275,-0.030334473,0.90625,12.625,-7.25
1695397360861,-0.15185547,-0.68585205,-0.1831665,8.53125,5.28125,-2.296875
1695397360906,-0.06347656,-0.76226807,-0.16900635,18.5625,1.203125,4.921875
1695397360936,-0.2775879,-0.74591064,-0.030578613,8.34375,0.078125,2.796875
1695397360980,-0.38891602,-0.7620239,-0.09649658,14.296875,-0.421875,4.15625
1695397361010,-0.39990234,-0.94976807,-0.11553955,11.15625,2.953125,-1.28125
1695397361056,-0.47460938,-1.1570435,-0.13702393,3.1875,8.28125,-1.046875
1695397361100,-0.39648438,-1.2659302,-0.17022705,-4.4375,-3.046875,2.59375
1695397361131,-0.5463867,-1.4788208,-0.4656372,-22.046875,-23.03125,5.34375
1695397361176,-0.08862305,-1.0859985,-0.5510864,0.484375,-11.859375,13.34375
1695397361205,0.22192383,-1.1345825,-0.23809814,6.015625,14.46875,9.953125
1695397361251,-0.16870117,-0.96710205,-0.059143066,-11.671875,-13.28125,11.640625
1695397361295,-0.7663574,-0.6577759,-0.026672363,-13.0625,-13.21875,9.625
1695397361326,-0.23266602,-0.94317627,-0.19439697,3.265625,27.03125,-15.828125
1695397361371,-0.05444336,-0.90460205,-0.18243408,-2.578125,12.515625,8.078125
1695397361416,-0.1262207,-0.6914673,-0.12945557,2.625,4.09375,10.1875
1695397361446,-0.1616211,-0.72662354,-0.0095825195,1.296875,-2.859375,11.828125
1695397361491,-0.23754883,-0.67071533,0.02166748,2.046875,11.234375,12.96875
1695397361521,-0.31103516,-0.6748657,-0.0022583008,0.9375,11.625,5.203125
1695397361566,-0.19628906,-0.85601807,-0.09112549,3.125,7.890625,0.6875
1695397361611,-0.3149414,-1.0388794,-0.058410645,2.609375,12.0,-0.359375
1695397361641,-0.4116211,-1.2935181,0.078308105,9.890625,20.359375,-10.59375
1695397361685,-0.4326172,-1.5586548,-0.1494751,1.59375,5.109375,-11.359375
1695397361716,-0.26367188,-1.2295532,-0.4649048,-1.375,2.015625,-11.484375
1695397361761,-0.16967773,-1.0703735,-0.35894775,15.65625,15.515625,1.484375
1695397361806,-0.27294922,-0.83306885,-0.37384033,13.4375,20.796875,-1.1875
1695397361836,-0.24267578,-1.0332642,-0.14434814,15.40625,22.15625,-11.734375
1695397361881,-0.20678711,-0.73223877,-0.24298096,8.9375,7.84375,-1.09375
1695397361926,-0.4255371,-0.86065674,-0.16851807,-2.765625,4.125,-4.796875
1695397361956,-0.18188477,-0.9741821,-0.19805908,10.671875,12.75,-5.75
1695397362001,-0.29296875,-0.82281494,-0.13897705,0.203125,-0.375,7.3125
1695397362030,-0.27368164,-0.75323486,-0.07354736,14.1875,7.484375,5.609375
1695397362076,-0.29125977,-0.74468994,-0.15777588,2.140625,10.84375,3.4375
1695397362120,-0.37963867,-0.65338135,-0.12164307,1.078125,7.359375,3.46875
1695397362150,-0.2565918,-0.7139282,-0.1338501,2.0625,3.609375,2.578125
1695397362196,-0.23388672,-0.7683716,-0.049621582,4.171875,2.65625,5.078125
1695397362226,-0.42016602,-0.7439575,-0.0010375977,6.765625,4.140625,5.703125
1695397362271,-0.46679688,-0.95098877,0.03314209,3.171875,-4.828125,1.0
1695397362316,-0.51123047,-1.305481,-0.0335083,9.9375,-2.65625,-1.53125
1695397362346,-0.79003906,-1.7107544,-0.15240479,-6.125,-11.140625,7.609375
1695397362391,-0.65185547,-1.4683228,-0.2732544,-14.4375,-23.90625,20.265625
1695397362437,-0.04248047,-1.0745239,-0.65704346,-21.890625,-12.75,12.4375
1695397362466,-0.21679688,-0.8948364,-0.49957275,-5.421875,-4.96875,7.0
1695397362510,-0.15551758,-0.81988525,-0.36846924,-14.15625,21.671875,0.53125
1695397362540,-0.072021484,-0.8687134,-0.24786377,-22.78125,22.640625,-7.078125
1695397362586,-0.27563477,-0.9326782,-0.010559082,-3.59375,29.75,-6.109375
1695397362631,-0.43066406,-0.847229,-0.24249268,-5.8125,41.703125,-6.953125
1695397362661,-0.18701172,-0.80181885,-0.3352661,2.46875,42.078125,-4.875
1695397362705,-0.22875977,-0.8467407,-0.117492676,10.078125,42.0625,-2.09375
1695397362736,-0.44335938,-0.7756958,-0.02911377,7.625,52.359375,5.84375
1695397362781,-0.3034668,-0.67266846,-0.051086426,6.890625,56.390625,4.421875
1695397362825,-0.076660156,-0.7720337,-0.07720947,12.140625,42.484375,10.875
1695397362856,-0.115234375,-0.8008423,-0.04156494,12.140625,26.0625,15.0625
1695397362900,-0.2421875,-0.72491455,9.1552734E-4,5.3125,31.421875,12.234375
1695397362945,-0.5373535,-0.8987427,-0.01739502,14.8125,31.53125,6.15625
1695397362975,-0.4104004,-1.0488892,0.02166748,20.53125,32.296875,7.25
1695397363020,-0.43359375,-1.2832642,0.04046631,11.3125,32.359375,0.0
1695397363051,-0.5541992,-1.4275513,-0.124816895,12.28125,14.34375,-10.390625
1695397363096,-0.22558594,-1.4788208,-0.46246338,12.546875,-2.578125,-7.1875
1695397363140,-0.52368164,-1.1028442,-0.40118408,17.078125,35.734375,4.0625
1695397363171,-0.12792969,-0.75177,-0.65826416,10.53125,39.4375,-3.265625
1695397363215,0.022460938,-1.0820923,-0.28790283,37.03125,24.828125,4.609375
1695397363246,-0.32983398,-0.8237915,-0.2546997,-3.09375,15.390625,6.8125
1695397363291,-0.4963379,-0.72662354,-0.15533447,22.578125,32.546875,5.546875
1695397363336,-0.2915039,-0.7288208,-0.18487549,2.1875,24.5,2.59375
1695397363366,-0.17382812,-0.72003174,-0.1975708,18.109375,25.765625,5.359375
1695397363410,-0.20019531,-0.72198486,-0.11895752,6.953125,19.671875,8.734375
1695397363456,-0.3395996,-0.68463135,-0.09210205,19.390625,17.453125,2.8125
1695397363486,-0.31958008,-0.77423096,-0.21954346,7.078125,14.4375,3.375
1695397363530,-0.42529297,-0.9824829,-0.20220947,17.140625,23.203125,1.265625
1695397363560,-0.5593262,-1.1502075,-0.17022705,8.9375,28.84375,5.46875
1695397363606,-0.42993164,-1.1567993,-0.25372314,-6.25,16.8125,8.25
1695397363651,-0.513916,-1.218811,-0.36383057,-20.5625,-6.578125,7.0
1695397363681,-0.20483398,-1.2466431,-0.53204346,-7.71875,1.28125,3.453125
1695397363726,0.05834961,-1.0847778,-0.36090088,3.890625,11.0,12.625
1695397363755,-0.024658203,-0.9343872,-0.11846924,-6.296875,-7.0625,8.5625
1695397363801,-0.5341797,-0.7786255,-0.09844971,-4.59375,-7.8125,8.53125
1695397363846,-0.4519043,-0.9031372,-0.085510254,-9.09375,8.484375,-8.65625
1695397363877,-0.14550781,-0.8015747,-0.16583252,-7.734375,8.671875,-1.328125
1695397363921,-0.12084961,-0.6704712,-0.0803833,6.984375,6.328125,6.78125
1695397363966,-0.15917969,-0.6812134,-0.016418457,-5.5625,-3.078125,10.875
1695397363995,-0.30493164,-0.59820557,0.032409668,0.3125,7.265625,6.765625
1695397364040,-0.35302734,-0.7749634,0.046325684,2.71875,6.3125,3.125
1695397364070,-0.20922852,-0.8904419,-0.09112549,3.0625,0.671875,3.625
1695397364115,-0.2685547,-1.0632935,0.020202637,2.28125,9.125,3.21875
1695397364160,-0.3696289,-1.2254028,0.15057373,4.953125,11.34375,-1.140625
1695397364190,-0.28955078,-1.3601685,0.049987793,-9.734375,-3.390625,-4.546875
1695397364236,-0.31640625,-1.1948853,-0.37017822,-17.0625,-29.265625,-12.90625
1695397364281,-0.55126953,-1.1965942,-0.4151001,20.53125,-14.59375,-6.859375
1695397364311,-0.3161621,-0.9192505,-0.35723877,16.34375,26.703125,-0.3125
1695397364357,-0.2109375,-0.84820557,-0.31134033,16.71875,10.75,-2.484375
1695397364386,-0.07104492,-1.085022,-0.039123535,31.890625,5.09375,-3.5625
1695397364431,-0.5510254,-0.9312134,-0.20709229,-10.15625,14.71875,3.40625
1695397364476,-0.3996582,-0.74591064,-0.10675049,-2.25,16.46875,-4.078125
1695397364506,-0.40356445,-0.8110962,-0.16607666,6.484375,13.875,-0.484375
1695397364566,-0.3330078,-0.80548096,-0.17803955,8.359375,19.109375,0.0
1695397364581,-0.21264648,-0.78302,-0.11798096,12.046875,19.703125,3.953125
1695397364626,-0.31884766,-0.6514282,-0.0869751,9.78125,13.359375,7.1875
1695397364670,-0.4189453,-0.67315674,-0.09088135,8.765625,15.984375,1.390625
1695397364700,-0.31762695,-0.722229,-0.12823486,7.375,20.90625,3.1875
1695397364746,-0.2980957,-0.78082275,-0.04522705,11.359375,9.078125,4.484375
1695397364790,-0.3347168,-0.9158325,-0.0029907227,7.5625,9.875,5.15625
1695397364821,-0.5576172,-1.0120239,0.034851074,9.609375,-2.828125,9.296875
1695397364865,-0.8093262,-1.4307251,0.06707764,31.71875,18.703125,17.734375
1695397364895,-1.0869141,-1.3369751,-0.270813,-10.921875,11.859375,27.609375
1695397364941,-0.115722656,-1.2512817,-0.7217407,-4.359375,-2.09375,3.90625
1695397364986,-0.011962891,-0.8418579,-0.4915161,1.78125,13.90625,19.28125
1695397365016,-0.17089844,-0.9573364,-0.61798096,5.78125,25.46875,14.703125
1695397365060,-0.05419922,-0.9031372,-0.31695557,-0.15625,31.984375,10.703125
1695397365090,-0.33740234,-0.77301025,-0.18218994,-6.65625,38.0,6.078125
1695397365136,-0.3779297,-0.7979126,-0.3406372,-3.6875,44.859375,-7.015625
1695397365181,-0.24829102,-0.8826294,-0.49249268,7.0625,47.09375,-1.375
1695397365210,-0.18652344,-0.7798462,-0.26739502,5.5,49.875,-1.046875
1695397365256,-0.29956055,-0.8374634,-0.19952393,-4.09375,40.96875,-0.796875
1695397365332,-0.22338867,-0.8921509,-0.11846924,5.671875,55.046875,1.90625
1695397365333,-0.29492188,-0.74664307,-0.101379395,10.75,60.6875,7.828125
1695397365376,-0.32421875,-0.77838135,-0.19976807,-4.640625,50.25,7.1875
1695397365405,-0.20874023,-0.9663696,-0.05206299,7.796875,46.609375,6.625
1695397365451,-0.3857422,-0.862854,0.046813965,1.71875,42.375,13.21875
1695397365496,-0.40649414,-0.66192627,-0.012512207,7.765625,48.0,9.0625
1695397365526,-0.35375977,-0.6880493,-0.082092285,16.15625,43.25,2.578125
1695397365572,-0.2626953,-0.8936157,-0.011291504,18.875,37.15625,3.5625
1695397365600,-0.35888672,-0.8904419,0.027038574,11.734375,30.734375,5.1875
1695397365646,-0.3840332,-1.000061,0.10345459,15.921875,28.65625,6.65625
1695397365691,-0.44335938,-1.1633911,0.23626709,14.890625,12.296875,2.0
1695397365728,-0.40454102,-1.5354614,-0.24932861,25.5625,-3.234375,-8.6875
1695397365765,-0.64990234,-1.9295044,-0.24395752,9.5625,-6.015625,4.890625
1695397365811,-0.42260742,-1.1299438,-0.6675415,-12.140625,22.546875,3.484375
1695397365841,-0.22509766,-0.42437744,-0.42242432,-10.9375,13.84375,11.921875
1695397365886,0.044677734,-0.8423462,-0.41705322,11.609375,11.484375,-14.15625
1695397365915,-0.19506836,-1.0664673,-0.13140869,4.078125,15.375,1.828125
1695397365961,-0.5085449,-0.7984009,-0.17315674,-1.9375,14.71875,6.671875
1695397366006,-0.24536133,-0.79156494,-0.27960205,-2.375,13.40625,1.671875
1695397366035,-0.1965332,-0.8538208,-0.089904785,6.953125,16.046875,3.53125
1695397366081,-0.35595703,-0.8518677,0.030456543,1.671875,23.484375,2.25
1695397366111,-0.3779297,-0.7217407,-0.059631348,-6.328125,20.40625,-3.40625
1695397366156,-0.33862305,-0.616272,-0.105285645,5.0625,14.78125,-5.828125
1695397366200,-0.35107422,-0.7463989,-0.07086182,11.8125,14.09375,-4.125
1695397366231,-0.32250977,-0.880188,-0.06451416,7.046875,14.671875,-3.3125
1695397366276,-0.42651367,-0.89678955,-0.11138916,5.859375,11.5,-1.765625
1695397366352,-0.6567383,-1.0464478,-0.024475098,5.515625,17.15625,0.828125
1695397366353,-0.44921875,-1.1084595,-0.4102173,-11.15625,-6.578125,4.640625
1695397366396,-0.47680664,-1.3953247,-0.3838501,12.65625,-5.265625,-2.984375
1695397366426,-0.1538086,-1.7095337,-0.26690674,9.203125,20.953125,9.421875
1695397366471,-0.2277832,-0.9019165,-0.2930298,0.546875,-5.265625,15.6875
1695397366516,0.007080078,-0.8255005,-0.14215088,8.25,4.296875,6.03125
1695397366546,0.028564453,-1.1575317,-0.10772705,2.609375,-2.515625,4.984375
1695397366591,-0.44091797,-0.79156494,0.031677246,-4.0,-6.40625,10.0
1695397366621,-0.30395508,-0.70758057,-0.04840088,-3.375,-5.15625,-4.71875
1695397366666,-0.08886719,-0.76812744,-0.14727783,7.984375,-3.390625,1.171875
1695397366710,-0.17578125,-0.6123657,-0.05645752,7.3125,-10.28125,6.71875
1695397366741,-0.21826172,-0.5479126,0.043884277,-0.859375,-10.265625,3.421875
1695397366786,-0.28320312,-0.7542114,0.023376465,-2.109375,-10.015625,1.53125
1695397366831,-0.25683594,-0.8867798,-0.06939697,-2.546875,-7.09375,-2.015625
1695397366861,-0.2705078,-1.0603638,-0.026916504,6.828125,-3.625,-2.90625
1695397366905,-0.40893555,-1.3989868,0.06341553,11.4375,0.515625,-5.109375
1695397366936,-0.41210938,-1.2852173,-0.009338379,-3.890625,-6.75,-5.140625
1695397366981,-0.34985352,-1.1343384,-0.37139893,-5.265625,-26.90625,-10.0
1695397367026,-0.2854004,-1.645813,-0.33966064,15.5625,-7.984375,-13.3125
1695397367056,-0.5058594,-1.0339966,-0.14801025,1.984375,13.640625,4.78125
1695397367101,-0.43139648,-0.47564697,-0.4578247,-6.8125,14.0,-5.953125
1695397367130,0.09814453,-1.0274048,-0.25445557,32.359375,15.171875,-7.4375
1695397367175,-0.3269043,-0.93927,-0.0647583,-2.609375,-5.84375,11.09375
1695397367221,-0.64941406,-0.57037354,-0.12554932,-3.296875,9.484375,-4.203125
1695397367251,-0.17578125,-0.7576294,-0.12188721,3.3125,16.796875,-3.15625
1695397367295,-0.1394043,-0.6741333,-0.26934814,8.921875,1.859375,-1.640625
1695397367341,-0.23217773,-0.8008423,-0.08453369,14.515625,5.390625,2.15625
1695397367370,-0.36791992,-0.7505493,-0.08453369,7.890625,2.53125,6.359375
1695397367416,-0.38623047,-0.7678833,-0.20953369,0.640625,-0.515625,-2.40625
1695397367446,-0.36499023,-1.0425415,-0.17974854,7.6875,1.140625,-3.421875
1695397367491,-0.6315918,-1.2468872,-0.12554932,-6.921875,-1.984375,6.078125
1695397367535,-0.5214844,-1.3460083,-0.36236572,-15.28125,0.25,2.640625
1695397367566,-0.3425293,-1.2554321,-0.5635376,-17.8125,-11.84375,5.96875
1695397367611,0.14355469,-1.1504517,-0.35235596,-10.140625,2.90625,12.984375
1695397367641,-0.048339844,-1.013977,-0.1560669,-8.78125,-4.578125,9.578125
1695397367686,-0.24926758,-0.8674927,-0.16046143,-22.125,-20.875,3.5
1695397367731,-0.2854004,-0.9644165,-0.02154541,-0.125,1.203125,1.0
1695397367761,-0.34643555,-0.72662354,-0.094055176,-23.21875,1.421875,-1.796875
1695397367805,-0.16674805,-0.7197876,-0.06866455,-3.8125,-4.078125,-2.296875
1695397367851,-0.13891602,-0.7151489,-0.016906738,0.625,-5.09375,4.765625
1695397367881,-0.23413086,-0.5564575,-0.0017700195,-1.890625,-2.484375,3.140625
1695397367926,-0.2331543,-0.67193604,-0.010314941,0.15625,-2.40625,-0.265625
1695397367955,-0.22607422,-0.862854,0.022888184,4.609375,0.921875,-0.28125
1695397368001,-0.20605469,-0.9780884,-0.0134887695,-2.09375,-12.125,-1.5
1695397368045,-0.26635742,-1.3386841,0.054870605,5.34375,-7.25,-3.125
1695397368075,-0.4934082,-1.2654419,0.070739746,0.84375,-0.46875,-4.703125
1695397368121,-0.39941406,-1.267395,-0.17999268,1.25,-7.703125,-14.375
1695397368151,-0.2211914,-1.5476685,-0.31280518,14.5,-9.6875,-9.53125
1695397368196,-0.4621582,-1.1548462,-0.3015747,9.734375,10.515625,6.75
1695397368241,-0.26513672,-0.72003174,-0.39508057,-1.078125,17.15625,-1.4375
1695397368271,-0.06225586,-1.0115356,-0.077697754,20.875,13.5625,-5.671875
1695397368315,-0.3400879,-0.76885986,-0.15582275,-1.359375,6.71875,4.140625
1695397368361,-0.38793945,-0.7588501,-0.08673096,5.109375,11.71875,-6.015625
1695397368391,-0.28222656,-0.7593384,-0.10870361,3.5625,9.0625,-4.234375
1695397368436,-0.22998047,-0.64923096,-0.12945557,4.34375,8.734375,-1.203125
1695397368466,-0.24267578,-0.7283325,-0.06451416,9.046875,7.890625,0.921875
1695397368510,-0.22436523,-0.770813,-0.09039307,8.0625,3.015625,0.84375
1695397368555,-0.3635254,-0.7842407,-0.0947876,4.734375,-1.03125,-0.109375
1695397368586,-0.41918945,-0.866272,-0.08917236,9.546875,1.78125,-2.421875
1695397368631,-0.53930664,-1.0652466,-0.113098145,-1.296875,4.5,-4.015625
1695397368676,-0.4921875,-1.274231,-0.22686768,-10.0625,2.5625,-5.546875
1695397368705,-0.5180664,-1.2710571,-0.31793213,-13.703125,-15.484375,-0.28125
1695397368752,-0.3955078,-1.4780884,-0.42266846,-4.34375,-11.015625,7.046875
1695397368781,7.324219E-4,-1.1079712,-0.3147583,-1.53125,9.28125,11.046875
1695397368825,-0.18359375,-0.7647095,-0.13677979,2.1875,-4.953125,14.921875
1695397368871,-0.16674805,-1.0679321,-0.093322754,-0.453125,2.09375,0.0
1695397368901,-0.4140625,-0.91412354,-0.0032348633,-8.125,3.328125,6.046875
1695397368946,-0.2783203,-0.69122314,-0.12896729,-10.421875,1.625,-3.34375
1695397368976,-0.14233398,-0.8364868,-0.12164307,-0.859375,-1.390625,-2.53125
1695397369021,-0.17871094,-0.736145,-0.06085205,2.265625,-3.15625,5.0625
1695397369066,-0.26953125,-0.62286377,-0.028625488,5.71875,0.171875,6.734375
1695397369096,-0.18408203,-0.6531372,0.016052246,2.53125,-4.046875,1.25
1695397369140,-0.21606445,-0.7852173,1.8310547E-4,3.453125,-1.71875,2.71875
1695397369186,-0.17773438,-0.86187744,-0.054748535,-0.015625,-8.921875,-2.609375
1695397369216,-0.2841797,-1.1189575,0.059509277,0.78125,-10.390625,-3.46875
1695397369261,-0.46923828,-1.2991333,0.10736084,-4.71875,-3.796875,-3.78125
1695397369290,-0.5004883,-1.0979614,-0.13043213,-2.28125,-8.46875,-9.765625
