timestamp,accel_x,accel_y,accel_z,gyro_x,gyro_y,gyro_z
1695397338450,0.20678711,-0.958313,-0.11602783,-5.03125,-4.890625,10.484375
1695397338490,-0.32202148,-0.89263916,-0.003967285,1.96875,-10.4375,10.28125
1695397338530,-0.16381836,-1.0549927,-0.07769775400000001,-7.453125,-5.609375,0.40625
1695397338570,-0.33276367,-0.88067627,-0.03253174,-6.984375,-8.3125,7.09375
1695397338610,-0.23950195,-0.7312622,-0.027893066,-8.609375,-5.3125,-0.078125
1695397338650,-0.12988281,-0.68292236,-0.024963378999999997,-1.703125,-7.328125,4.546875
1695397338690,-0.19824219,-0.53912354,0.05218506,-1.5,-6.9375,8.96875
1695397338730,-0.26782227,-0.6939086999999999,0.035827637,2.015625,-8.875,-0.578125
1695397338770,-0.20849610000000002,-0.88775635,0.015808105,3.484375,-4.53125,-0.84375
1695397338810,-0.20727539,-0.9451294,0.01776123,-1.953125,-9.671875,5.28125
1695397338850,-0.2824707,-1.0991821000000002,0.15301514,1.109375,-6.5625,2.015625
1695397338890,-0.37817383,-1.2046508999999999,0.16131592,9.15625,-0.328125,-3.265625
1695397338930,-0.45996094,-1.2398071000000002,-0.07647705,4.1875,-15.6875,-5.609375
1695397338970,-0.27734375,-1.3796997,-0.46221924,14.296875,-1.046875,-1.4375
1695397339010,-0.23120117,-1.4768677,-0.2600708,12.84375,2.265625,4.15625
1695397339050,-0.43457029999999996,-0.89312744,-0.17633057,14.0,11.9375,9.53125
1695397339090,-0.39770508,-0.5862427,-0.40264893,13.625,18.40625,-2.28125
1695397339130,-0.0021972656,-0.9783325,-0.25299072,23.0,2.828125,-10.75
1695397339170,-0.53027344,-1.171936,-0.13311768,6.359375,-3.578125,1.0625
1695397339210,-0.41601562,-0.66851807,-0.17926025,4.71875,8.078125,1.125
1695397339250,-0.19409179999999998,-0.66607666,-0.09796142599999999,9.078125,6.296875,-0.40625
1695397339290,-0.15795898,-0.6555786,-0.09307861,10.28125,12.640625,0.59375
1695397339330,-0.32202148,-0.5964965999999999,-0.11529541,5.296875,5.046875,3.625
1695397339370,-0.22290039,-0.6929320999999999,-0.13116455,2.9375,7.4375,-2.328125
1695397339410,-0.3684082,-0.81744385,-0.10870361,3.40625,9.03125,-0.96875
1695397339450,-0.50097656,-0.88775635,-0.15264893,-1.109375,11.9375,-2.578125
1695397339490,-0.6772461,-1.2061157,-0.19830322,8.3125,13.5625,-3.078125
1695397339530,-0.58813477,-1.3235473999999998,-0.22882080000000002,1.3125,14.296875,7.9375
1695397339570,-0.4116210999999999,-1.2178345,-0.48590088,-7.203125,-0.484375,10.671875
1695397339610,-0.07714844,-1.2053833,-0.39019775,1.078125,6.5625,16.75
1695397339650,-0.28076172,-0.6956177,-0.35528564,5.421875,-0.015625,22.8125
1695397339690,-0.30908203,-1.0498657,-0.28570557,11.609375,35.03125,-12.46875
1695397339730,-0.29516602,-1.2063598999999998,-0.04864502,-7.0625,12.5,12.234375
1695397339770,-0.44628906,-0.6338501,-0.24835205,-14.203125,15.171875,-4.296875
1695397339810,-0.19042969,-1.0952758999999999,-0.23956299,5.890625,30.03125,-3.359375
1695397339850,-0.12182617,-0.9014281999999999,-0.14044189999999998,-4.421875,16.453125,8.3125
1695397339890,-0.31933594,-0.6983031999999999,-0.10113525400000001,2.53125,17.46875,12.328125
1695397339930,-0.29785156,-0.6951294,-0.028137207,6.515625,18.859375,8.03125
1695397339970,-0.23095703,-0.677063,-0.038879395,3.421875,22.578125,7.796875
1695397340010,-0.26928709999999995,-0.6553345,-0.09405517599999999,3.265625,21.546875,9.03125
1695397340050,-0.18383789,-0.63604736,-0.020080566,16.0,16.859375,9.5
1695397340090,-0.41992188,-0.77056885,0.07293701,11.078125,22.296875,10.828125
1695397340130,-0.2939453,-0.8428344999999999,-0.031311035,11.96875,24.53125,8.484375
1695397340170,-0.3173828,-1.1482544,0.10394287,22.140625,19.015625,1.984375
1695397340210,-0.6291504,-1.3919066999999998,-0.121154785,2.328125,7.40625,-7.1875
1695397340250,-0.07006836,-1.21344,-0.21734619,18.71875,-4.203125,-5.203125
1695397340290,-0.90722656,-1.7422485,-0.14093018,20.296875,5.53125,12.046875
1695397340330,-0.43237305,-0.6524048000000001,-0.5667114000000001,-11.28125,33.59375,8.078125
1695397340370,0.06103515599999999,-0.75909424,-0.5996704,11.90625,22.34375,4.546875
1695397340410,-0.2541504,-0.90948486,-0.27496338,13.171875,37.703125,3.859375
1695397340450,-0.54833984,-0.70440674,-0.43804932,-16.3125,20.25,-7.53125
1695397340490,-0.3076172,-0.9522094999999999,-0.26031494,7.875,26.40625,-10.0625
1695397340530,-0.30908203,-0.986145,-0.2000122,3.140625,24.890625,3.078125
1695397340570,-0.40014648,-0.79034424,-0.31524658,0.6875,22.078125,3.6875
1695397340610,-0.32446290000000005,-0.8257445999999999,-0.17901611,9.59375,26.921875,4.078125
1695397340650,-0.37597656,-0.7810669,-0.15679932,9.15625,30.4375,6.140625
1695397340690,-0.421875,-0.64630127,-0.19659424,10.46875,26.734375,5.765625
1695397340730,-0.29785156,-0.7542114000000001,-0.22369385,16.875,23.234375,3.765625
1695397340770,-0.23681639999999998,-0.8345336999999999,-0.17877197,9.25,19.015625,3.140625
1695397340810,-0.41137695,-0.77227783,-0.11602783,8.25,12.71875,9.15625
1695397340850,-0.38061523,-0.7769165,-0.10430908,5.703125,15.0625,2.828125
1695397340890,-0.4091797,-0.84552,-0.105285645,5.53125,13.125,5.484375
1695397340930,-0.43579102,-0.9780884,-0.08013916,-0.296875,8.875,4.5
1695397340970,-0.41503906,-1.0029907,-0.054504395,-3.984375,5.296875,3.125
1695397341010,-0.5942383000000001,-1.0691528000000001,0.0016479492000000002,-6.375,4.734375,8.5625
1695397341050,-0.81225586,-1.1985473999999998,-0.16485596,-5.5625,0.484375,5.1875
1695397341090,-0.34985352,-1.616272,-0.37701416,3.625,14.6875,-2.3125
1695397341130,-0.43286133,-1.019104,-0.5510864000000001,-6.125,2.59375,12.125
1695397341170,-0.13012695,-0.8760376,-0.5984497,4.8125,8.984375,2.4375
1695397341210,0.13330078,-1.2510376,-0.19195557,11.890625,23.0625,4.921875
1695397341250,-0.6435546999999999,-0.8584594999999999,-0.21588135,-8.5,8.46875,16.1875
1695397341290,-0.34472656,-0.70318604,-0.31036377,-5.453125,28.015625,-5.5625
1695397341330,0.09301758,-0.88775635,-0.18243408,5.828125,20.421875,2.875
1695397341370,-0.18920898,-0.788147,-0.057922363,-1.671875,2.6875,8.65625
1695397341410,-0.31640625,-0.7617798000000001,-0.06573486,-7.21875,6.015625,10.0
1695397341450,-0.22753906,-0.5737915,-0.023010253999999997,2.8125,21.953125,6.390625
1695397341490,-0.28637695,-0.65826416,-0.11627197,2.609375,11.46875,2.1875
1695397341530,-0.17211914,-0.8765259,-0.097717285,7.671875,8.203125,0.84375
1695397341570,-0.30810547,-0.89630127,-0.08673096,3.125,17.03125,5.75
1695397341610,-0.34521484,-1.0896606000000002,0.053894042999999996,4.765625,15.828125,-2.03125
1695397341650,-0.41748047,-1.2913208,0.054870605,7.359375,17.09375,-0.96875
1695397341690,-0.40795898,-1.0046997,-0.25616455,-0.46875,9.21875,-7.296875
1695397341730,-0.21752929999999995,-1.5161743,-0.5281372,27.828125,-0.796875,-8.140625
1695397341770,-0.43652344,-1.3416138000000002,-0.222229,9.0625,16.421875,11.03125
1695397341810,-0.4765625,-0.614563,-0.30426025,0.875,22.3125,2.890625
1695397341850,-0.005126953,-0.66290283,-0.30670166,21.390625,14.828125,-2.265625
1695397341890,-0.16210938,-1.0615845,-0.081848145,9.734375,6.84375,-0.46875
1695397341930,-0.703125,-0.77789307,-0.11798096,-1.6875,11.671875,-2.34375
1695397341970,-0.30517578,-0.7280884,-0.11627197,3.96875,19.296875,-2.765625
1695397342010,-0.23046875,-0.71539307,-0.17364502,2.03125,9.59375,-1.5625
1695397342050,-0.26098633,-0.7793579,-0.10235596,8.09375,13.5625,1.375
1695397342090,-0.27319336,-0.70928955,-0.06524658,6.0,10.78125,3.125
1695397342130,-0.37353516,-0.76397705,-0.07598877,9.0625,9.765625,2.703125
1695397342170,-0.4152832,-0.8533325,-0.16265869,5.765625,7.625,-0.171875
1695397342210,-0.4987793,-1.0037231,-0.11602783,6.453125,7.78125,-3.375
1695397342250,-0.5205078,-1.142395,-0.14825439999999998,1.078125,5.4375,-1.5625
1695397342290,-0.5007324000000001,-1.2014770000000001,-0.25372314,-9.6875,-5.0625,-0.921875
1695397342330,-0.64941406,-1.2722778000000001,-0.4348755,-11.671875,-16.6875,2.953125
1695397342370,-0.06298828,-1.5806274,-0.57403564,3.03125,4.90625,0.390625
1695397342410,0.123535156,-0.92315674,-0.012268066000000001,-10.8125,-11.703125,18.6875
1695397342450,-0.43920898,-0.6433715999999999,-0.038635254,-1.421875,-15.453125,11.96875
1695397342490,-0.16040039,-1.010315,-0.16387939999999998,-2.78125,-8.265625,-11.046875
1695397342530,-0.25683594,-0.96099854,-0.12701416,-8.21875,-3.453125,1.734375
1695397342570,-0.2553711,-0.7119751,-0.07940674,-5.25,-5.046875,-0.234375
1695397342610,-0.22143555,-0.7468872,-0.10968017599999999,-1.84375,-9.8125,0.203125
1695397342650,-0.23950195,-0.6218872,-0.016174316,0.5,-6.71875,6.390625
1695397342690,-0.19604492,-0.6404419,0.020690918,5.03125,-11.859375,1.3125
1695397342730,-0.30371094,-0.800354,-0.019104003999999997,-4.96875,-10.859375,0.21875
1695397342770,-0.20581055,-0.90338135,-0.046691895,-0.671875,-7.953125,-0.875
1695397342810,-0.27490234,-1.1773071000000002,-0.016418457,1.40625,-5.09375,-0.03125
1695397342850,-0.517334,-1.2158813,0.034851073999999996,1.765625,3.796875,-1.625
1695397342890,-0.3293457,-1.2791138000000002,-0.22882080000000002,3.109375,-8.140625,-11.546875
1695397342930,-0.063964844,-1.6358032,-0.31304932,16.765625,-2.171875,-1.4375
1695397342970,-0.55615234,-0.8870239,-0.26641846,7.046875,11.34375,12.265625
1695397343010,-0.45532227,-0.6968384,-0.36846924,2.890625,16.953125,-3.96875
1695397343050,0.025634766,-1.0022583,-0.28253174,20.375,2.5625,-6.328125
1695397343090,-0.32055664,-1.0044556,-0.1585083,4.875,6.03125,6.828125
1695397343130,-0.5625,-0.71661377,-0.10577392599999999,-5.34375,11.046875,-5.34375
1695397343170,-0.23754883,-0.6326294,-0.10845947,1.984375,12.65625,-2.671875
1695397343210,-0.17895508,-0.7046509,-0.16949463,6.890625,8.421875,-4.375
1695397343250,-0.2800293,-0.7424927,-0.08892822,4.25,13.265625,-0.5625
1695397343290,-0.29321290000000005,-0.7119751,-0.124816895,3.40625,4.5625,1.140625
1695397343330,-0.31787109999999996,-0.76348877,-0.10186767599999999,7.078125,4.578125,-1.0
1695397343370,-0.4272460999999999,-0.89556885,-0.13702393,2.875,2.75,-2.8125
1695397343410,-0.57470703,-1.0903931,-0.13995361,8.1875,4.75,-4.875
1695397343450,-0.48828125,-1.2300415,-0.19586182,-4.1875,1.375,-1.9375
1695397343490,-0.62768555,-1.3792114,-0.31280518,-9.953125,-9.96875,3.1875
1695397343530,-0.46289062,-1.2920532,-0.5574340999999999,-8.125,-7.15625,7.703125
1695397343570,0.050048828,-1.2766723999999998,-0.34649658,-1.828125,7.890625,7.59375
1695397343610,-0.041015625,-0.7991333,-0.027160645,-10.359375,-10.484375,15.8125
1695397343650,-0.34936523,-0.7996215999999999,-0.15386963,-9.703125,-9.5625,1.25
1695397343690,-0.23974610000000002,-1.0481566999999998,-0.05328369,-5.734375,-6.546875,0.21875
1695397343730,-0.38452148,-0.7671509,-0.14898682,-10.0625,1.359375,1.84375
1695397343770,-0.13964844,-0.7752074999999999,-0.10284424,-0.078125,0.421875,-4.21875
1695397343810,-0.15307617,-0.7918090999999999,-0.06964111,-5.421875,-12.234375,3.265625
1695397343850,-0.28320312,-0.63897705,-0.010314941,-1.234375,-7.125,6.859375
1695397343890,-0.27880859999999996,-0.70147705,-0.0005493164,6.5,-1.734375,0.171875
1695397343930,-0.24462889999999998,-0.76348877,-0.012023926,5.265625,-1.21875,3.015625
1695397343970,-0.23583984,-0.89971924,0.0026245116999999997,2.9375,-5.75,2.09375
1695397344010,-0.33007812,-1.1607056,-0.02178955,-0.703125,-12.21875,-3.234375
1695397344050,-0.3623047,-1.3379517,0.038024902,10.75,5.0,-4.0
1695397344090,-0.45898438,-1.2837524,-0.15216064,4.578125,-4.8125,-3.6875
1695397344130,-0.22753906,-1.4038696000000002,-0.46588135,15.375,-2.703125,-7.984375
1695397344170,-0.25024414,-1.0227661,-0.38214109999999996,8.84375,6.578125,8.65625
1695397344210,-0.44384766,-0.79644775,-0.23663330000000002,14.15625,8.78125,5.21875
1695397344250,-0.060302734000000004,-0.89849854,-0.19439697,12.796875,5.359375,-2.625
1695397344290,-0.3371582,-0.8579711999999999,-0.14581299,-0.078125,5.359375,4.453125
1695397344330,-0.46313477,-0.8023070999999999,-0.15411377,-4.59375,5.78125,-4.015625
1695397344370,-0.28588867,-0.7515259,-0.109436035,1.59375,10.8125,-3.9375
1695397344410,-0.25976562,-0.75909424,-0.12310791,-0.34375,6.171875,-1.859375
1695397344450,-0.23242188,-0.7456665,-0.12335205,0.921875,6.9375,-0.375
1695397344490,-0.24511719,-0.7761840999999999,-0.06719971,6.796875,6.453125,0.828125
1695397344530,-0.34985352,-0.77130127,-0.11456299,5.265625,4.875,-0.78125
1695397344570,-0.36816406,-0.86505127,-0.13922119,3.546875,2.4375,-3.78125
1695397344610,-0.421875,-1.0957642,-0.117248535,8.234375,9.03125,-2.25
1695397344650,-0.5876465,-1.203186,-0.13970947,-4.96875,2.25,1.640625
1695397344690,-0.55078125,-1.2625122,-0.3850708,-3.859375,-8.140625,3.203125
1695397344730,-0.32080078,-1.3150024,-0.55596924,-2.609375,-9.796875,8.1875
1695397344770,0.029296875,-1.1187133999999999,-0.36846924,-2.578125,-1.0,9.59375
1695397344810,-0.23413086,-0.9578247,-0.15997314,-4.296875,-5.984375,7.421875
1695397344850,-0.25048828,-0.9795531999999999,-0.17510986,-2.75,2.125,0.8125
1695397344890,-0.40185547,-0.9590453999999999,-0.113098145,-1.53125,8.125,2.34375
1695397344930,-0.30126953,-0.7756958,-0.1428833,-3.90625,9.296875,-1.5
1695397344970,-0.15136719,-0.8491820999999999,-0.15557861,-4.046875,-1.8125,0.453125
1695397345010,-0.16845703,-0.6831665,-0.07061767599999999,1.234375,-0.09375,7.625
1695397345050,-0.24365234,-0.6121215999999999,-0.04425049,0.484375,0.328125,4.4375
1695397345090,-0.24633789,-0.7971802,-0.0635376,2.78125,1.109375,1.71875
1695397345130,-0.21557617,-0.8064574999999999,-0.078186035,4.875,6.9375,3.265625
1695397345170,-0.29223633,-0.9014281999999999,-0.07501221,2.9375,2.359375,-1.515625
1695397345210,-0.35668945,-0.98760986,-0.06671142599999999,2.09375,6.96875,-2.40625
1695397345250,-0.40209959999999995,-1.0567017,-0.03302002,-7.078125,10.796875,-7.71875
1695397345290,-0.25,-1.2488403000000001,-0.13067627,1.609375,-9.53125,-13.640625
1695397345330,-0.32568359999999996,-1.4505005,-0.32159424,4.046875,-2.359375,-2.96875
1695397345370,-0.37426758,-0.90753174,-0.40655518,4.859375,4.09375,4.03125
1695397345410,-0.42700195,-0.8171997,-0.409729,13.921875,5.5,1.484375
1695397345450,-0.22924805,-1.0108032,-0.33746338,19.328125,16.953125,-3.0625
1695397345490,-0.2590332,-0.93170166,-0.21685791,13.328125,9.328125,5.0
1695397345530,-0.3894043,-0.9234009,-0.16827393,7.953125,4.03125,3.4375
1695397345570,-0.34521484,-0.77471924,-0.13824463,4.578125,10.03125,5.6875
1695397345610,-0.41674805,-0.784729,-0.18658447,6.953125,13.25,-0.4375
1695397345650,-0.2980957,-0.8545531999999999,-0.19293213,6.296875,16.046875,1.0625
1695397345690,-0.31982422,-0.7539673000000001,-0.12139892599999999,4.96875,17.5625,6.25
1695397345730,-0.35302734,-0.79351807,-0.16827393,1.984375,11.421875,3.296875
1695397345770,-0.34155273,-0.7925415,-0.19390869,2.75,12.125,4.390625
1695397345810,-0.32788086,-0.7007445999999999,-0.13287354,7.78125,12.203125,7.53125
1695397345850,-0.3972168,-0.7986449999999999,-0.10675049,4.1875,9.25,5.78125
1695397345890,-0.34985352,-0.89630127,-0.028625487999999998,10.484375,13.1875,5.6875
1695397345930,-0.55200195,-0.9170531999999999,-0.023010253999999997,0.4375,8.0625,8.046875
1695397345970,-0.69921875,-1.2183228000000002,-0.09527588,-0.578125,6.078125,3.890625
1695397346010,-0.6826171999999999,-1.5576782,-0.39019775,-8.53125,5.421875,6.859375
1695397346050,-0.47363279999999996,-1.2644653000000001,-0.41192627,-17.25,0.5625,20.375
1695397346090,0.107910156,-1.0737915,-0.36358643,0.25,18.296875,15.296875
1695397346130,-0.31469727,-0.8526001,-0.42803955,1.546875,14.578125,19.21875
1695397346170,-0.24829102,-0.8027954,-0.30181885,-14.34375,29.40625,5.8125
1695397346210,-0.13891602,-0.8225708,-0.22686768,-4.390625,37.140625,2.890625
1695397346250,-0.25585938,-0.88726807,-0.19610596,-13.390625,34.03125,-0.671875
1695397346290,-0.24877929999999995,-0.9788208,-0.27520752,-13.40625,24.296875,-5.609375
1695397346330,-0.16992188,-0.88604736,-0.24053955,1.3125,34.671875,0.5625
1695397346370,-0.2939453,-0.848938,-0.16046143,5.8125,34.03125,5.609375
1695397346410,-0.203125,-0.8584594999999999,-0.074035645,8.53125,36.34375,1.078125
1695397346450,-0.34179688,-0.90045166,-0.018615723,2.140625,35.984375,6.5625
1695397346490,-0.33325195,-0.74102783,-0.0034790040000000004,9.640625,46.578125,9.03125
1695397346530,-0.17163086,-0.7317505,-0.010314941,13.890625,42.34375,6.609375
1695397346570,-0.31054688,-0.8267211999999999,-0.006164551,6.3125,29.8125,10.078125
1695397346610,-0.39868164,-0.73028564,-0.08868408,11.515625,37.03125,7.03125
1695397346650,-0.24072266,-0.8652953999999999,-0.020324707,16.984375,30.90625,6.03125
1695397346690,-0.41259766,-1.0003052,0.14471436,7.328125,36.671875,5.703125
1695397346730,-0.5085449000000001,-1.1055298,0.17303467,3.578125,43.46875,-10.34375
1695397346770,-0.6599121,-1.236145,-0.09185791,3.0,19.78125,-18.984375
1695397346810,0.018798828,-1.6672973999999998,-0.41241455,23.90625,-1.21875,-21.734375
1695397346850,-0.61987305,-1.5593872,-0.21026611,20.078125,0.34375,11.5
1695397346890,-0.45483398,-0.6423949999999999,-0.50787354,1.140625,39.5,-6.1875
1695397346930,0.103027344,-0.91363525,-0.5430298000000001,16.5625,10.59375,-5.859375
1695397346970,-0.13500977,-1.1919556,-0.19512939999999998,18.390625,15.578125,1.015625
1695397347010,-0.45361328,-0.80181885,-0.1687622,2.9375,16.40625,6.140625
1695397347050,-0.23486328,-0.75445557,-0.15460205,1.0625,12.34375,-2.96875
1695397347090,-0.31689453,-0.73638916,-0.18609619,-2.296875,8.484375,4.4375
1695397347130,-0.27880859999999996,-0.69781494,-0.14117432,0.125,11.65625,-0.96875
1695397347170,-0.1899414,-0.78082275,-0.12994385,9.328125,6.8125,2.265625
1695397347210,-0.31860352,-0.7744751,-0.031799316,-1.53125,3.640625,3.390625
1695397347250,-0.35717773,-0.76031494,-0.07110596,-3.3125,7.90625,-1.6875
1695397347290,-0.38793945,-0.73394775,-0.13067627,2.71875,4.109375,-0.078125
1695397347330,-0.45605470000000004,-0.90582275,-0.058410645,6.9375,7.046875,-1.296875
1695397347370,-0.49951172,-1.0088501,-0.085754395,-2.09375,9.65625,-3.1875
1695397347410,-0.49414062,-1.1663208,-0.08746338,-0.390625,10.1875,2.875
1695397347450,-0.52001953,-1.1504517,-0.2678833,-2.1875,-0.34375,8.25
1695397347490,-0.3466797,-1.5264282,-0.37432859999999996,7.171875,-7.359375,-0.78125
1695397347530,-0.059326172,-1.2918091,-0.32696533,2.28125,-0.375,18.203125
1695397347570,-0.12866211,-0.78009033,-0.17169189999999998,-1.546875,-9.828125,16.078125
1695397347610,-0.22119139999999998,-0.8381958,-0.13214111,-1.09375,-6.125,-0.28125
1695397347650,-0.29370117,-0.95196533,-0.074035645,4.109375,7.609375,5.9375
1695397347690,-0.48950195,-0.8057251,-0.022277832,-5.640625,11.96875,-1.3125
1695397347730,-0.24194336,-0.84698486,-0.10992432,1.984375,12.125,-3.046875
1695397347770,-0.18383789,-0.7817993000000001,-0.12579346,3.390625,-0.203125,5.3125
1695397347810,-0.23657227,-0.7503052,-0.016906738,5.03125,2.890625,6.796875
1695397347850,-0.30224609999999996,-0.70440674,-0.034973145,6.03125,3.015625,7.46875
1695397347890,-0.25585938,-0.77838135,-0.028625487999999998,10.5,5.640625,7.3125
1695397347930,-0.21386719,-0.81866455,-0.07379150400000001,5.296875,3.421875,5.59375
1695397347970,-0.21826172,-1.0142212,0.0021362305,10.84375,8.796875,4.03125
1695397348010,-0.42626953,-1.0994263000000002,0.023376465,5.65625,13.40625,2.40625
1695397348050,-0.40893555,-1.2192993,-0.09332275400000001,3.09375,7.75,-6.125
1695397348090,-0.24023438,-1.4827270000000001,-0.45758057,20.34375,2.640625,-3.796875
1695397348130,-0.28149414,-1.1084595,-0.35699463,-2.140625,-4.546875,10.390625
1695397348170,-0.31152344,-0.7515259,-0.36602783,14.9375,13.90625,11.65625
1695397348210,-0.37670898,-1.0613403000000001,-0.4216919,15.0625,33.9375,-2.515625
1695397348250,-0.24389648,-0.94854736,-0.22784424,14.390625,18.1875,-0.953125
1695397348290,-0.40966797,-0.94195557,-0.17315674,-4.765625,5.578125,4.703125
1695397348330,-0.48242188,-0.68634033,-0.19366455,-4.359375,17.15625,-0.328125
1695397348370,-0.24584961,-0.69122314,-0.19122314,10.234375,22.265625,2.9375
1695397348410,-0.18457031,-0.7383423000000001,-0.14263916,4.359375,16.796875,-0.015625
1695397348450,-0.30395508,-0.7756958,-0.12774658,10.453125,21.328125,4.5
1695397348490,-0.36352540000000005,-0.84381104,-0.15362549,1.625,18.921875,2.4375
1695397348530,-0.3503418,-0.82476807,-0.19805908,7.546875,17.703125,1.984375
1695397348570,-0.3701172,-0.77545166,-0.13580322,6.875,17.9375,5.71875
1695397348610,-0.29760742,-0.8682251,-0.10040283,9.546875,14.484375,1.765625
1695397348650,-0.35546875,-0.84552,-0.03741455,5.0,9.96875,8.171875
1695397348690,-0.37255859999999996,-0.9507445999999999,-0.04937744,0.578125,-1.421875,2.796875
1695397348730,-0.36401367,-1.227356,-0.10772705,1.171875,-2.359375,2.5625
1695397348770,-0.9909667999999999,-1.0359497,-0.07891846,10.140625,-4.0625,30.390625
1695397348810,-0.513916,-1.65802,-0.39117432,-5.5,-2.21875,-4.28125
1695397348850,-0.13232422,-1.2158813,-0.49127197,-20.578125,-13.40625,15.328125
1695397348890,-0.22021484,-0.93341064,-0.41802979999999995,-7.34375,-7.375,17.9375
1695397348930,-0.0871582,-0.91729736,-0.36407470000000003,-25.125,10.359375,1.109375
1695397348970,-0.14575195,-0.7258911,-0.18780518,-21.1875,35.734375,2.8125
1695397349010,-0.2800293,-0.6831665,-0.06524658,-17.546875,38.984375,-10.46875
1695397349050,-0.19677734,-1.0105591,-0.159729,-2.34375,35.953125,-15.96875
1695397349090,-0.38671875,-0.9014281999999999,-0.25421143,4.234375,39.96875,-1.15625
1695397349130,-0.10278319999999999,-0.74786377,-0.19342041,3.265625,41.703125,-8.390625
1695397349170,-0.21655273,-0.89190674,-0.02545166,-3.109375,37.90625,-6.71875
1695397349210,-0.22875977,-0.9439086999999999,0.02532959,-0.484375,36.984375,-4.09375
1695397349250,-0.34326172,-0.8015747,0.035339355,5.515625,44.3125,1.640625
1695397349290,-0.39160156,-0.81695557,0.005065918,7.671875,45.921875,-3.296875
1695397349330,-0.33374023,-0.9133911,-0.024475097999999997,-1.140625,41.15625,-0.46875
1695397349370,-0.3137207,-0.6946411,0.058044434000000006,8.21875,38.140625,-1.15625
1695397349410,-0.3190918,-0.70098877,0.06048584,17.515625,36.59375,-3.609375
1695397349450,-0.24707031,-0.85040283,0.004333496,17.15625,25.265625,1.203125
1695397349490,-0.4519043,-0.9204711999999999,0.105651855,27.34375,29.34375,5.1875
1695397349530,-0.6394043,-1.1255493,0.23284912,23.03125,33.203125,1.5625
1695397349570,-0.53344727,-1.1101685,0.048034667999999996,10.125,25.65625,-8.328125
1695397349610,-0.23242188,-1.5952758999999999,-0.17218018,27.078125,9.53125,-5.375
1695397349650,-0.73291016,-1.8018188000000002,-0.13482666,9.9375,8.328125,14.46875
1695397349690,-0.38696290000000005,-0.6375122,-0.30792236,-8.625,19.5,3.1875
1695397349730,-0.17553711,-0.76275635,-0.38238525,12.53125,11.734375,-1.5625
1695397349770,-0.18164062,-1.1980591,-0.48736572,12.921875,21.4375,-3.953125
1695397349810,-0.3828125,-1.017395,-0.12237549,8.359375,22.765625,8.015625
1695397349850,-0.27612305,-0.8394165000000001,-0.08843994,4.5625,22.328125,2.4375
1695397349890,-0.29907227,-0.8164673000000001,-0.21392822,4.890625,18.046875,1.390625
1695397349930,-0.2939453,-0.7127074999999999,-0.12066650400000001,9.328125,19.703125,1.703125
1695397349970,-0.34741209999999995,-0.7276001,-0.047424315999999994,11.828125,20.75,1.03125
1695397350010,-0.28344727,-0.7630005,-0.11773682,8.796875,19.90625,2.140625
1695397350050,-0.25683594,-0.7476195999999999,-0.08843994,12.390625,16.75,3.453125
1695397350090,-0.35498047,-0.74420166,-0.028137207,8.140625,17.65625,4.625
1695397350130,-0.34838867,-0.7437134,-0.08526611,10.1875,14.78125,-0.3125
1695397350170,-0.37939453,-0.8250122,-0.13555908,9.125,12.28125,-1.40625
1695397350210,-0.5085449000000001,-1.039856,-0.08770752,4.21875,12.359375,-0.59375
1695397350250,-0.5358887,-1.1592407,-0.1807251,1.171875,2.921875,0.203125
1695397350290,-0.4152832,-1.3338013000000002,-0.30572509999999997,4.078125,-6.375,5.0
1695397350330,-0.39868164,-1.6497191999999998,-0.30792236,2.203125,0.078125,8.734375
1695397350370,-0.23168945,-1.1365356000000002,-0.18780518,-1.421875,-0.953125,12.40625
1695397350410,-0.20971679999999995,-0.74468994,-0.2637329,-15.578125,-12.34375,7.546875
1695397350450,0.018798828,-1.0076294,-0.12042236,4.875,-0.390625,-1.390625
1695397350490,-0.28491209999999995,-0.98321533,-0.00592041,-2.6875,0.875,9.21875
1695397350530,-0.35131836,-0.753479,-0.018371582,-9.703125,-3.109375,3.046875
1695397350570,-0.16284179999999998,-0.77545166,-0.06085205,-0.28125,-10.546875,-2.9375
1695397350610,-0.24877929999999995,-0.6470336999999999,-0.04058838,3.09375,-7.15625,3.59375
1695397350650,-0.17700195,-0.6428833,-0.024230957,-1.484375,-5.265625,2.9375
1695397350690,-0.21484375,-0.79693604,-0.07135010000000001,3.375,-12.125,4.875
1695397350730,-0.38891602,-0.8179320999999999,0.022644043,1.8125,0.296875,6.015625
1695397350770,-0.2607422,-0.98321533,-0.08746338,1.171875,-4.46875,-0.3125
1695397350810,-0.24951172,-1.269104,0.06829834,8.703125,3.34375,-3.375
1695397350850,-0.5500488,-1.3965454,-0.018615723,2.609375,9.359375,-5.75
1695397350890,-0.39331055,-1.3274536,-0.30181885,-2.734375,-3.046875,-17.171875
1695397350930,-0.25976562,-1.3352661,-0.31329346,8.109375,13.109375,-2.265625
1695397350970,-0.21679688,-0.74102783,-0.4036255,-1.640625,21.5,1.765625
1695397351010,-0.25390625,-0.8623656999999999,-0.19049072,20.375,24.109375,-9.9375
1695397351050,-0.21386719,-1.05719,-0.08160400400000001,6.828125,8.15625,-2.75
1695397351090,-0.3779297,-0.7276001,-0.1026001,-0.3125,7.328125,3.9375
1695397351130,-0.34179688,-0.63604736,-0.07110596,11.078125,16.515625,-2.671875
1695397351170,-0.2800293,-0.6199340999999999,-0.09698486,12.3125,15.625,-0.28125
1695397351210,-0.15747070000000002,-0.6321411,-0.035949707000000004,11.765625,10.90625,2.109375
1695397351250,-0.28198242,-0.7642211999999999,-0.09820557,1.71875,-0.4375,2.53125
1695397351290,-0.3684082,-0.85601807,-0.07867432,2.15625,-4.3125,-0.0625
1695397351330,-0.46777344,-0.88604736,-0.1038208,9.3125,-3.109375,0.203125
1695397351370,-0.46655273,-1.0569458,-0.07501221,8.25,1.671875,-0.453125
1695397351410,-0.54541016,-1.1436157,-0.08673096,4.40625,6.640625,0.984375
1695397351450,-0.5769043,-1.2693481000000002,-0.25250244,-2.703125,-5.390625,4.828125
1695397351490,-0.41113279999999996,-1.468811,-0.49224854,-6.609375,-21.125,5.5
1695397351530,0.08764648400000001,-1.5562133999999999,-0.42828370000000004,-11.578125,-2.46875,12.125
1695397351570,-0.1665039,-0.8796997,-0.06866455,-9.0,-9.921875,22.421875
1695397351610,-0.50561523,-0.50128174,-0.37261963,-22.046875,-33.90625,13.4375
1695397351650,0.104003906,-1.104065,-0.08135986,10.265625,15.328125,-7.609375
1695397351690,-0.40454102,-0.8850708,-0.035949707000000004,-13.640625,0.40625,11.515625
1695397351730,-0.16674805,-0.6370239000000001,-0.034240723,-15.28125,-5.046875,-6.65625
1695397351770,-0.084472656,-0.77349854,-0.06500244,-6.140625,-5.921875,-4.03125
1695397351810,-0.21655273,-0.6553345,-0.0012817383,3.03125,-3.265625,3.671875
1695397351850,-0.17602539,-0.72247314,0.015319824,8.90625,0.53125,5.59375
1695397351890,-0.2565918,-0.7854614000000001,-0.06036377,1.15625,-1.546875,2.265625
1695397351930,-0.22021484,-0.97198486,0.009216309,2.625,-6.0625,0.84375
1695397351970,-0.29833984,-1.0840454,0.051696777,6.125,-0.953125,-0.40625
1695397352010,-0.40380859999999996,-1.2056274,0.059509277,-3.5,0.890625,-4.65625
1695397352050,-0.40307617,-1.2703247,-0.08746338,-1.953125,4.875,-11.9375
1695397352090,-0.32421875,-1.3308716,-0.38385009999999997,-0.296875,-21.34375,-8.296875
1695397352130,-0.28076172,-1.5745239,-0.19805908,11.484375,4.34375,-3.125
1695397352170,-0.4284668,-0.77789307,-0.22760010000000003,1.296875,18.703125,5.78125
1695397352210,-0.15258789,-0.7151489000000001,-0.35699463,0.21875,13.359375,-9.25
1695397352250,0.00390625,-1.1792603000000002,-0.21905518,22.0,7.234375,-4.265625
1695397352290,-0.38867188,-0.9048461999999999,-0.070129395,0.90625,6.65625,8.515625
1695397352330,-0.45581055,-0.76934814,-0.08770752,2.546875,11.71875,-6.234375
1695397352370,-0.21435547,-0.64263916,-0.13482666,1.390625,5.75,-0.875
1695397352410,-0.09667969,-0.6445923000000001,-0.07476807,11.90625,5.875,0.796875
1695397352450,-0.21972656,-0.67974854,-0.035461426000000004,9.578125,5.109375,-1.53125
1695397352490,-0.26708984,-0.6680298000000001,-0.08380127,8.203125,-1.484375,-3.171875
1695397352530,-0.3203125,-0.93170166,-0.117004395,1.53125,-0.546875,-6.328125
1695397352570,-0.5444336,-1.1907348999999998,-0.120910645,1.203125,1.828125,-4.546875
1695397352610,-0.5263671999999999,-1.3264770000000001,-0.13189697,-3.453125,1.0625,-0.796875
1695397352650,-0.41088867,-1.3023071000000002,-0.39678955,-14.8125,-5.515625,6.03125
1695397352690,-0.34204102,-1.3169556,-0.4307251,-8.59375,-8.765625,10.90625
1695397352730,0.05078125,-1.1709595,-0.25299072,-4.140625,2.5625,5.578125
1695397352770,-0.15820312,-0.78570557,-0.15240479,-7.96875,-12.25,10.328125
1695397352810,-0.19116211,-0.90704346,-0.1807251,-4.59375,-15.671875,-4.28125
1695397352850,-0.26879883,-1.0784302,0.011169433999999999,-7.109375,-3.515625,6.59375
1695397352890,-0.41894529999999996,-0.7007445999999999,-0.09918213,-4.140625,0.03125,2.140625
1695397352930,-0.08959961,-0.7246704,-0.19073486,6.15625,-0.65625,-0.734375
1695397352970,-0.08959961,-0.7307739000000001,-0.054748535,2.875,-6.984375,8.734375
1695397353010,-0.23535156,-0.6658324999999999,0.041931152,11.0,-1.71875,7.984375
1695397353050,-0.27416992,-0.7349243000000001,-0.024475097999999997,-4.8125,-6.75,3.015625
1695397353090,-0.1875,-0.8442993000000001,-0.08062744,-3.1875,-3.09375,0.484375
1695397353130,-0.20703125,-1.0479126,-0.018859863,8.953125,1.625,3.0
1695397353170,-0.3605957,-1.2590941999999998,0.07977295,2.109375,4.703125,-2.5625
1695397353210,-0.4819335999999999,-1.2808228000000002,-0.09429932,-0.1875,12.625,-8.65625
1695397353250,-0.24438477,-1.3440552,-0.45343018,7.921875,-0.1875,-6.140625
1695397353290,-0.17749023,-1.4172973999999998,-0.30426025,7.6875,6.171875,2.015625
1695397353330,-0.40185547,-0.7979126,-0.18536377,7.921875,16.875,8.515625
1695397353370,-0.30395508,-0.7324829,-0.25299072,7.96875,21.53125,-9.15625
1695397353410,-0.028076172000000003,-0.87994385,-0.22540283,11.46875,7.484375,-5.96875
1695397353450,-0.36621094,-0.8623656999999999,-0.19171143,-2.0,1.015625,1.546875
1695397353490,-0.5473633000000001,-0.76397705,-0.1296997,-7.4375,14.78125,-6.34375
1695397353530,-0.23168945,-0.69073486,-0.1819458,4.15625,17.8125,-4.125
1695397353570,-0.18090820000000002,-0.81573486,-0.16387939999999998,-1.328125,5.109375,-4.203125
1695397353610,-0.29296875,-0.739563,-0.12628174,0.234375,8.1875,2.515625
1695397353650,-0.3425293,-0.7437134,-0.037902832000000004,6.859375,9.671875,0.9375
1695397353690,-0.32983398,-0.8328247,-0.15924072,6.78125,12.90625,1.046875
1695397353730,-0.3720703,-0.9241333,-0.16534424,5.203125,7.890625,3.4375
1695397353770,-0.46069336,-0.9180298000000001,-0.10089111,8.5,7.34375,1.890625
1695397353810,-0.5053711,-0.9470825,-0.03765869,7.984375,10.9375,2.796875
1695397353850,-0.47143555,-1.1194458,-0.11212158,7.0,13.859375,0.578125
1695397353890,-0.4272460999999999,-1.190979,-0.20904541,1.28125,-0.640625,1.8125
1695397353930,-0.5656738,-1.3325806,-0.25738525,4.40625,-9.484375,10.671875
1695397353970,-0.27197266,-1.6380005,-0.46759033,4.484375,-6.578125,10.953125
1695397354010,-0.23999023,-0.9536743000000001,-0.29864502,-1.515625,-4.65625,13.96875
1695397354050,-0.14086914,-0.5913695999999999,-0.22003174,12.921875,-2.0,15.703125
1695397354090,-0.01586914,-1.0422974,-0.1260376,4.484375,7.484375,-8.515625
1695397354130,-0.45532227,-0.9776001,-0.09185791,-3.890625,7.140625,8.203125
1695397354170,-0.30249023,-0.8442993000000001,-0.1687622,-8.921875,11.453125,-2.015625
1695397354210,-0.12792969,-0.9439086999999999,-0.21124268,-3.09375,0.46875,-1.71875
1695397354250,-0.2602539,-0.9019165000000001,-0.030578612999999998,-5.15625,-0.71875,3.421875
1695397354290,-0.12890625,-0.64678955,-0.013244628999999999,-9.71875,3.953125,10.671875
1695397354330,-0.29638672,-0.5288695999999999,-0.022277832,-2.15625,11.859375,2.15625
1695397354370,-0.26831055,-0.71588135,-0.027648926,-0.578125,9.90625,0.015625
1695397354410,-0.14868164,-0.75494385,-0.03253174,8.9375,13.78125,3.484375
1695397354450,-0.25708008,-0.83673096,-0.027160645,6.828125,14.8125,3.84375
1695397354490,-0.34472656,-0.88946533,0.07220459,10.515625,15.875,4.046875
1695397354530,-0.3515625,-1.0564575,0.06854248,10.328125,15.46875,1.453125
1695397354570,-0.2265625,-1.3255005,-0.17950439999999998,-2.265625,-7.890625,-4.0
1695397354610,-0.11303711,-1.6380005,0.07391357400000001,7.171875,0.0625,8.109375
1695397354650,-1.4074707,-1.5637816999999998,-0.38116455,7.03125,-4.3125,8.265625
1695397354690,-0.055419922,-0.7962036,-0.6062622,-16.421875,33.609375,-16.703125
1695397354730,0.22045898,-0.91973877,-0.62701416,21.1875,33.84375,10.34375
1695397354770,-0.27563477,-0.6970824999999999,-0.35870359999999996,8.71875,22.171875,-0.46875
1695397354810,-0.19067383,-0.8496703999999999,-0.32965088,12.421875,18.296875,0.328125
1695397354850,-0.34814453,-0.79107666,-0.27545166,8.0625,23.609375,0.125
1695397354890,-0.34619140000000004,-0.80548096,-0.32110596,13.59375,31.15625,1.078125
1695397354930,-0.30541992,-0.8933716,-0.26861572,7.109375,30.484375,0.390625
1695397354970,-0.26513672,-0.85821533,-0.13873291,15.015625,33.8125,7.1875
1695397355010,-0.32421875,-0.8267211999999999,-0.1026001,2.15625,25.765625,8.484375
1695397355050,-0.30810547,-0.7517699999999999,-0.10235596,0.34375,30.015625,2.1875
1695397355090,-0.38061523,-0.7053833,-0.17901611,-2.75,23.265625,7.203125
1695397355130,-0.47460938,-0.7361449999999999,-0.109436035,5.03125,28.984375,0.625
1695397355170,-0.28881836,-0.8262328999999999,-0.14752197,-2.53125,25.046875,0.65625
1695397355210,-0.26220703,-0.82354736,-0.13067627,-1.3125,13.421875,7.1875
1695397355250,-0.47973633,-0.9365844999999999,-0.039855957000000004,0.046875,15.828125,4.0
1695397355290,-0.6843262,-1.1433716,0.019714355,-2.984375,24.015625,3.359375
1695397355330,-0.6652832,-1.2842407,-0.24542236,-16.46875,5.3125,0.859375
1695397355370,-0.43188477,-1.6345825,-0.4212036,-0.90625,-2.640625,5.859375
1695397355410,-0.06518555,-1.5454712,-0.34747314,-7.1875,14.0,17.765625
1695397355450,-0.36962890000000004,-0.7774048000000001,-0.19805908,-4.921875,2.96875,20.625
1695397355490,-0.026855469,-0.62872314,-0.38604736,-8.0,8.484375,-4.390625
1695397355530,0.08081055,-1.2481079,-0.10040283,10.734375,12.421875,-1.5
1695397355570,-0.34985352,-0.8604126,-0.027893066,-8.296875,9.0625,10.546875
1695397355610,-0.30029297,-0.7402954,-0.11968994,-2.765625,13.5,-0.359375
1695397355650,-0.10595703,-0.83013916,-0.09478760000000001,5.125,14.359375,2.625
1695397355690,-0.22436523,-0.77471924,-0.031799316,8.515625,18.296875,7.609375
1695397355730,-0.21826172,-0.70635986,0.011413574,2.015625,14.015625,8.484375
1695397355770,-0.18310547,-0.64068604,-0.02178955,5.734375,15.234375,6.5625
1695397355810,-0.15991211,-0.7710570999999999,0.028015137000000002,8.390625,16.078125,4.828125
1695397355850,-0.2565918,-0.9146118000000001,-0.030822753999999997,7.1875,12.859375,4.203125
1695397355890,-0.38720703,-1.1084595,0.044616699999999995,7.546875,25.109375,-1.15625
1695397355930,-0.40771484,-1.1714478000000002,0.02532959,7.125,31.5,-5.640625
1695397355970,-0.5041504,-1.3516235,-0.054504395,14.078125,30.59375,-11.59375
1695397356010,-0.13232422,-1.2478638000000002,-0.5615845,9.46875,10.71875,-12.046875
1695397356050,-0.20996094,-1.1270142,-0.29327393,27.421875,19.78125,12.328125
1695397356090,-0.64404297,-0.8508911,-0.30670166,10.234375,36.921875,-0.171875
1695397356130,-0.13183594,-0.8723755,-0.36846924,22.5,36.75,-9.4375
1695397356170,-0.07421875,-1.0894165,-0.11920166,19.453125,19.78125,5.984375
1695397356210,-0.5541991999999999,-0.72979736,-0.1663208,4.8125,19.640625,4.890625
1695397356250,-0.45263672,-0.72369385,-0.16705322,4.375,28.328125,-0.84375
1695397356290,-0.13891602,-0.74957275,-0.24395752,15.484375,22.625,1.859375
1695397356330,-0.14819336,-0.79229736,-0.078186035,17.953125,22.421875,6.65625
1695397356370,-0.3581543,-0.73394775,-0.07550049,7.9375,15.703125,5.515625
1695397356410,-0.34399414,-0.8088989000000001,-0.16729736,17.1875,17.171875,2.828125
1695397356450,-0.37084959999999995,-0.8831177,-0.19805908,8.71875,12.53125,4.953125
1695397356490,-0.46362305,-0.97369385,-0.17340088,6.875,13.0,4.25
1695397356530,-0.5161133,-1.2285767,-0.14263916,2.46875,11.203125,4.921875
1695397356570,-0.53027344,-1.0859985,-0.36505127,-14.46875,-5.828125,11.375
1695397356610,-0.28344727,-1.4424438,-0.57403564,-5.421875,-2.046875,8.125
1695397356650,0.2890625,-1.4180298,-0.23492432,-4.59375,7.453125,21.890625
1695397356690,-0.43554688,-0.58477783,-0.04937744,-4.359375,-7.3125,30.234375
1695397356730,-0.28149414,-0.7966919,-0.17608643,-13.3125,4.078125,-8.453125
1695397356770,-0.095703125,-1.1963501,-0.08062744,-2.59375,3.859375,5.90625
1695397356810,-0.23901367,-0.87701416,0.034118652,-25.65625,3.671875,7.265625
1695397356850,-0.27441406,-0.8777466,-0.11968994,-20.1875,1.234375,-3.859375
1695397356890,-0.17993164,-0.86553955,-0.05718994,-8.625,7.9375,2.921875
1695397356930,-0.17456055,-0.85040283,0.031677246,0.390625,8.34375,7.15625
1695397356970,-0.19140625,-0.7954711999999999,-0.023742676,-2.65625,5.03125,7.0
1695397357010,-0.13964844,-0.7944945999999999,0.04437256,3.75,6.9375,9.0625
1695397357050,-0.18530273,-0.78204346,0.04852295,0.109375,2.921875,8.515625
1695397357090,-0.23901367,-0.72076416,0.07952881,12.28125,9.90625,9.75
1695397357130,-0.29663086,-0.7346802,0.06414795,6.625,10.640625,3.375
1695397357170,-0.18603516,-0.92022705,0.08953857400000001,16.21875,17.625,1.796875
1695397357210,-0.38012695,-0.99713135,0.12982178,16.578125,26.78125,5.0
1695397357250,-0.36962890000000004,-1.1050415,0.11444092,11.609375,20.171875,-3.609375
1695397357290,-0.3112793,-1.5286255,0.039978027,12.578125,13.328125,0.0625
1695397357330,-0.34545898,-1.4917603000000002,-0.004699707,0.671875,-2.328125,-4.34375
1695397357370,-0.7836914,-1.5327758999999999,-0.44976807,16.078125,-1.078125,-11.78125
1695397357410,0.15673828,-0.7564086999999999,-0.5540161,-7.71875,33.375,8.59375
1695397357450,0.068847656,-0.8858031999999999,-0.41314697,29.125,12.796875,7.109375
1695397357490,-0.21435547,-1.0215454,-0.26690674,-2.484375,40.140625,-0.625
1695397357530,-0.55078125,-0.8855591,-0.32696533,2.671875,35.828125,-3.640625
1695397357570,-0.17065429999999998,-0.8604126,-0.36871338,5.140625,40.546875,-7.765625
1695397357610,-0.115234375,-0.9439086999999999,-0.23199463,11.5,27.578125,3.4375
1695397357650,-0.29443359999999996,-0.86383057,-0.15826416,6.8125,31.609375,0.953125
1695397357690,-0.47436523,-0.7683715999999999,-0.18951416,9.515625,30.1875,2.5
1695397357730,-0.18115234,-0.77911377,-0.09552002,19.765625,44.90625,0.859375
1695397357770,-0.25585938,-0.7214965999999999,-0.0044555664,14.25,39.90625,6.625
1695397357810,-0.45898438,-0.62164307,-0.16949463,1.234375,35.828125,2.796875
1695397357850,-0.23486328,-0.7605590999999999,-0.21490479,8.609375,32.265625,1.234375
1695397357890,-0.08203125,-0.90411377,-0.19268799,12.140625,27.734375,5.125
1695397357930,-0.39746094,-0.91973877,0.013366699,2.84375,22.84375,7.203125
1695397357970,-0.6291504,-1.0679321000000002,0.027038574,3.1875,26.15625,2.1875
1695397358010,-0.6352539,-1.2097778000000001,-0.17437744,-9.65625,9.671875,4.5625
1695397358050,-0.5854491999999999,-1.3118286,-0.36676025,-14.15625,-2.4375,5.203125
1695397358090,-0.16088867,-1.8999633999999999,-0.46392822,12.046875,19.515625,-1.125
1695397358130,-0.18969727,-0.9258423000000001,-0.37701416,-12.75,4.078125,18.1875
1695397358170,-0.23706055,-0.58477783,-0.34796143,0.703125,8.359375,4.96875
1695397358210,0.057373047,-1.2837524,-0.23419189999999998,14.421875,16.578125,-9.265625
1695397358250,-0.22583008,-1.0288696,-0.09014892599999999,-11.078125,0.734375,13.265625
1695397358290,-0.30639648,-0.6333618000000001,-0.11553955,-0.796875,11.328125,3.53125
1695397358330,-0.16113281,-0.7788695999999999,-0.14605713,1.765625,9.4375,-1.359375
1695397358370,-0.14257812,-0.7842406999999999,-0.07745361,3.875,7.15625,8.46875
1695397358410,-0.32348633,-0.71759033,-0.010070800999999999,-5.484375,8.8125,7.890625
1695397358450,-0.25268555,-0.6921997,-0.11383057,-4.90625,19.765625,-1.578125
1695397358490,-0.20922852,-0.80059814,-0.042785645,11.515625,19.921875,3.34375
1695397358530,-0.15356445,-0.93756104,-0.03717041,6.203125,11.65625,-0.796875
1695397358570,-0.37133790000000005,-1.0501098999999998,0.11639404,3.8125,17.828125,-3.953125
1695397358610,-0.49365234,-1.1152954,0.066589355,-5.109375,20.953125,-7.953125
1695397358650,-0.5070800999999999,-1.4378052,-0.16265869,5.0625,23.0625,-22.546875
1695397358690,-0.13134766,-1.2092896,-0.50909424,-0.234375,-1.140625,-5.484375
1695397358730,-0.5900879,-0.96343994,-0.14898682,13.03125,21.40625,10.453125
1695397358770,-0.43798828,-0.7781372,-0.38433838,-5.6875,49.1875,-17.9375
1695397358810,0.038085938,-1.0244751,-0.19317627,25.9375,27.0,-10.65625
1695397358850,-0.19921875,-1.0205688,-0.09283447,8.78125,18.515625,1.046875
1695397358890,-0.47705078,-0.6494751,-0.02520752,7.09375,18.984375,1.25
1695397358930,-0.35498047,-0.64678955,0.024841309,-2.34375,13.953125,-1.65625
1695397358970,-0.2841797,-0.6506958,-0.12872314,10.015625,15.5625,-4.546875
1695397359010,-0.23681639999999998,-0.8052368000000001,-0.09283447,12.671875,11.40625,-1.3125
1695397359050,-0.32617188,-0.96588135,-0.066223145,7.9375,4.0625,2.859375
1695397359090,-0.42919922,-0.9026489,-0.030822753999999997,11.109375,0.46875,3.734375
1695397359130,-0.5239258,-0.96051025,-0.07183838,2.203125,3.515625,1.625
1695397359170,-0.6726074000000001,-1.1880493,-0.0115356445,6.390625,9.390625,-0.46875
1695397359210,-0.5461425999999999,-1.2883911,-0.27471924,-14.234375,0.328125,3.28125
1695397359250,-0.40112305,-1.1777954,-0.41949463,-11.75,-25.359375,5.3125
1695397359290,0.08666992,-1.3396606000000002,-0.22100830000000002,3.078125,-1.296875,3.609375
1695397359330,-0.0715332,-0.98931885,-0.06964111,-1.09375,3.4375,14.46875
1695397359370,-0.43823242,-0.72320557,-0.16827393,-10.203125,-17.640625,4.921875
1695397359410,-0.27148438,-0.9546509,0.012878418,6.71875,8.546875,-3.25
1695397359450,-0.31030273,-0.7966919,-0.016662598,-10.6875,-2.75,0.28125
1695397359490,-0.21777344,-0.67755127,-0.09405517599999999,-5.75,0.328125,1.1875
1695397359530,-0.17382812,-0.6873169,-0.028137207,-2.03125,-8.828125,1.796875
1695397359570,-0.26733398,-0.6538695999999999,0.07318115,9.21875,-0.671875,7.40625
1695397359610,-0.38476562,-0.725647,0.0053100586,-3.40625,-1.3125,1.234375
1695397359650,-0.3034668,-0.90631104,0.039978027,0.625,0.21875,-2.234375
1695397359690,-0.24804688,-0.9780884,0.026306152000000003,-0.078125,-1.46875,-0.34375
1695397359730,-0.34619140000000004,-1.1758423,0.15179443,-1.59375,3.90625,-4.359375
1695397359770,-0.5090332000000001,-1.2800903000000001,0.07537842,-7.8125,-0.671875,-8.53125
1695397359810,-0.41796875,-1.2129517,-0.30426025,-8.328125,-22.296875,-9.609375
1695397359850,-0.15893555,-1.5740356000000002,-0.26593018,12.890625,-1.359375,-0.875
1695397359890,-0.6281738,-0.95196533,-0.10772705,6.15625,7.84375,11.15625
1695397359930,-0.34985352,-0.5623169,-0.2756958,5.578125,13.09375,-6.328125
1695397359970,-0.06420898400000001,-0.97052,-0.17193604,24.984375,10.5,-5.265625
1695397360010,-0.39868164,-0.97247314,-0.074035645,6.71875,5.296875,4.8125
1695397360050,-0.5205078,-0.7859497,-0.04840088,5.671875,10.78125,-5.1875
1695397360090,-0.36572266,-0.8057251,-0.12188721,-1.09375,7.84375,1.140625
1695397360130,-0.27026367,-0.7283324999999999,-0.11627197,8.703125,3.484375,0.28125
1695397360170,-0.21240234,-0.8062134,-0.018371582,15.1875,5.015625,1.296875
1695397360210,-0.34545898,-0.66729736,-0.0012817383,6.21875,2.984375,6.28125
1695397360250,-0.37133790000000005,-0.6668090999999999,-0.07061767599999999,10.375,-0.421875,2.65625
1695397360290,-0.38916016,-0.9038695999999999,-0.07305908,10.0,1.40625,-0.875
1695397360330,-0.54052734,-0.9746703999999999,-0.12628174,9.625,0.6875,1.6875
1695397360370,-0.56152344,-1.3399048,-0.1963501,4.75,5.671875,-2.6875
1695397360410,-0.54248047,-1.2625122,-0.3657837,-21.96875,-26.21875,3.640625
1695397360450,-0.29345703,-1.5447388000000002,-0.4212036,-25.046875,-19.0,-7.546875
1695397360490,-0.010498047,-1.2251587,-0.22833252,-10.359375,-10.984375,9.40625
1695397360530,-0.29956055,-0.7649536,-0.12652588,-7.765625,-13.5,17.421875
1695397360570,-0.044921875,-0.8909302,-0.09893799,-10.0625,-6.140625,3.921875
1695397360610,-0.38842773,-0.90509033,0.026794434,-8.671875,-2.78125,6.203125
1695397360650,-0.24096679999999995,-0.8357544,-0.026672362999999998,-7.15625,-5.125,-2.546875
1695397360690,-0.20532227,-0.6939086999999999,-0.10333252,1.171875,-3.984375,6.109375
1695397360730,-0.22607422,-0.5928345,-0.07696533,-1.578125,-5.4375,2.640625
1695397360770,-0.24169922,-0.69244385,0.00970459,5.78125,0.9375,4.46875
1695397360810,-0.24023438,-0.7605590999999999,0.05657959,-1.859375,-4.390625,4.296875
1695397360850,-0.17871094,-0.8291626,-0.015197753999999999,-4.90625,-8.515625,1.828125
1695397360890,-0.22485352,-1.0093384,-0.007385254,0.453125,-8.328125,4.703125
1695397360930,-0.42749023,-1.3130493,0.22235107,15.125,16.046875,-3.140625
1695397360970,-0.48706055,-1.3464966,-0.054992676,3.8125,5.71875,-8.515625
1695397361010,-0.3701172,-1.4067993,-0.32110596,4.765625,-17.03125,-12.453125
1695397361050,-0.30615234,-1.4744263000000002,-0.30084229999999995,4.03125,-1.5,0.015625
1695397361090,-0.49316406,-0.6814574999999999,-0.15582275,3.0625,27.3125,1.34375
1695397361130,-0.14160156,-0.8555298000000001,-0.39532470000000003,3.703125,9.359375,-9.734375
1695397361170,0.045166015999999996,-1.1858520000000001,-0.028625487999999998,22.8125,3.421875,-1.9375
1695397361210,-0.4387207,-0.7371215999999999,-0.06842041,-12.34375,1.765625,10.515625
1695397361250,-0.49389648,-0.53082275,-0.030334472999999997,0.90625,12.625,-7.25
1695397361290,-0.15185547,-0.68585205,-0.1831665,8.53125,5.28125,-2.296875
1695397361330,-0.06347656,-0.76226807,-0.16900635,18.5625,1.203125,4.921875
1695397361370,-0.27758790000000005,-0.74591064,-0.030578612999999998,8.34375,0.078125,2.796875
1695397361410,-0.38891602,-0.7620239000000001,-0.09649658,14.296875,-0.421875,4.15625
1695397361450,-0.39990234,-0.94976807,-0.11553955,11.15625,2.953125,-1.28125
1695397361490,-0.47460938,-1.1570435,-0.13702393,3.1875,8.28125,-1.046875
1695397361530,-0.39648438,-1.2659302,-0.17022705,-4.4375,-3.046875,2.59375
1695397361570,-0.5463866999999999,-1.4788208,-0.46563720000000003,-22.046875,-23.03125,5.34375
1695397361610,-0.08862305,-1.0859985,-0.5510864000000001,0.484375,-11.859375,13.34375
1695397361650,0.22192383,-1.1345825,-0.23809814,6.015625,14.46875,9.953125
1695397361690,-0.16870117,-0.96710205,-0.059143065999999994,-11.671875,-13.28125,11.640625
1695397361730,-0.7663574000000001,-0.6577759,-0.026672362999999998,-13.0625,-13.21875,9.625
1695397361770,-0.23266602,-0.94317627,-0.19439697,3.265625,27.03125,-15.828125
1695397361810,-0.05444336,-0.90460205,-0.18243408,-2.578125,12.515625,8.078125
1695397361850,-0.1262207,-0.6914673000000001,-0.12945557,2.625,4.09375,10.1875
1695397361890,-0.1616211,-0.72662354,-0.0095825195,1.296875,-2.859375,11.828125
1695397361930,-0.23754883,-0.67071533,0.02166748,2.046875,11.234375,12.96875
1695397361970,-0.31103516,-0.6748656999999999,-0.0022583008,0.9375,11.625,5.203125
1695397362010,-0.19628906,-0.85601807,-0.09112549,3.125,7.890625,0.6875
1695397362050,-0.31494140000000004,-1.0388794,-0.058410645,2.609375,12.0,-0.359375
1695397362090,-0.4116210999999999,-1.2935181,0.078308105,9.890625,20.359375,-10.59375
1695397362130,-0.43261720000000004,-1.5586548,-0.1494751,1.59375,5.109375,-11.359375
1695397362170,-0.26367188,-1.2295532,-0.46490479999999995,-1.375,2.015625,-11.484375
1695397362210,-0.16967773,-1.0703735,-0.35894775,15.65625,15.515625,1.484375
1695397362250,-0.27294922,-0.83306885,-0.37384033,13.4375,20.796875,-1.1875
1695397362290,-0.24267578,-1.0332642,-0.14434814,15.40625,22.15625,-11.734375
1695397362330,-0.20678711,-0.73223877,-0.24298096,8.9375,7.84375,-1.09375
1695397362370,-0.4255371,-0.86065674,-0.16851807,-2.765625,4.125,-4.796875
1695397362410,-0.18188477,-0.9741820999999999,-0.19805908,10.671875,12.75,-5.75
1695397362450,-0.29296875,-0.82281494,-0.13897705,0.203125,-0.375,7.3125
1695397362490,-0.27368164,-0.75323486,-0.07354736,14.1875,7.484375,5.609375
1695397362530,-0.29125977,-0.74468994,-0.15777588,2.140625,10.84375,3.4375
1695397362570,-0.37963867,-0.65338135,-0.12164307,1.078125,7.359375,3.46875
1695397362610,-0.2565918,-0.7139281999999999,-0.1338501,2.0625,3.609375,2.578125
1695397362650,-0.23388672,-0.7683715999999999,-0.049621582000000004,4.171875,2.65625,5.078125
1695397362690,-0.42016602,-0.7439574999999999,-0.0010375977,6.765625,4.140625,5.703125
1695397362730,-0.46679688,-0.95098877,0.03314209,3.171875,-4.828125,1.0
1695397362770,-0.51123047,-1.305481,-0.033508300000000005,9.9375,-2.65625,-1.53125
1695397362810,-0.79003906,-1.7107544,-0.15240479,-6.125,-11.140625,7.609375
1695397362850,-0.65185547,-1.4683228000000002,-0.2732544,-14.4375,-23.90625,20.265625
1695397362890,-0.04248047,-1.0745239,-0.65704346,-21.890625,-12.75,12.4375
1695397362930,-0.21679688,-0.8948364,-0.49957275,-5.421875,-4.96875,7.0
1695397362970,-0.15551758,-0.81988525,-0.36846924,-14.15625,21.671875,0.53125
1695397363010,-0.07202148400000001,-0.8687134,-0.24786377,-22.78125,22.640625,-7.078125
1695397363050,-0.27563477,-0.9326781999999999,-0.010559082,-3.59375,29.75,-6.109375
1695397363090,-0.43066406,-0.8472290000000001,-0.24249268,-5.8125,41.703125,-6.953125
1695397363130,-0.18701172,-0.80181885,-0.33526609999999996,2.46875,42.078125,-4.875
1695397363170,-0.22875977,-0.8467406999999999,-0.11749267599999999,10.078125,42.0625,-2.09375
1695397363210,-0.44335938,-0.7756958,-0.02911377,7.625,52.359375,5.84375
1695397363250,-0.3034668,-0.67266846,-0.051086426,6.890625,56.390625,4.421875
1695397363290,-0.076660156,-0.7720336999999999,-0.07720947,12.140625,42.484375,10.875
1695397363330,-0.115234375,-0.8008423000000001,-0.04156494,12.140625,26.0625,15.0625
1695397363370,-0.2421875,-0.72491455,0.00091552734,5.3125,31.421875,12.234375
1695397363410,-0.5373535,-0.8987427,-0.01739502,14.8125,31.53125,6.15625
1695397363450,-0.4104004,-1.0488892,0.02166748,20.53125,32.296875,7.25
1695397363490,-0.43359375,-1.2832642,0.04046631,11.3125,32.359375,0.0
1695397363530,-0.5541991999999999,-1.4275513000000002,-0.124816895,12.28125,14.34375,-10.390625
1695397363570,-0.22558594,-1.4788208,-0.46246338,12.546875,-2.578125,-7.1875
1695397363610,-0.52368164,-1.1028441999999998,-0.40118408,17.078125,35.734375,4.0625
1695397363650,-0.12792969,-0.7517699999999999,-0.65826416,10.53125,39.4375,-3.265625
1695397363690,0.022460938,-1.0820923,-0.28790283,37.03125,24.828125,4.609375
1695397363730,-0.32983398,-0.8237915000000001,-0.25469970000000003,-3.09375,15.390625,6.8125
1695397363770,-0.4963379,-0.72662354,-0.15533447,22.578125,32.546875,5.546875
1695397363810,-0.29150390000000004,-0.7288208,-0.18487549,2.1875,24.5,2.59375
1695397363850,-0.17382812,-0.72003174,-0.1975708,18.109375,25.765625,5.359375
1695397363890,-0.20019531,-0.72198486,-0.11895752,6.953125,19.671875,8.734375
1695397363930,-0.33959959999999995,-0.68463135,-0.09210205,19.390625,17.453125,2.8125
1695397363970,-0.31958008,-0.77423096,-0.21954346,7.078125,14.4375,3.375
1695397364010,-0.42529297,-0.9824828999999999,-0.20220947,17.140625,23.203125,1.265625
1695397364050,-0.5593262,-1.1502075,-0.17022705,8.9375,28.84375,5.46875
1695397364090,-0.42993164,-1.1567993,-0.25372314,-6.25,16.8125,8.25
1695397364130,-0.513916,-1.218811,-0.36383057,-20.5625,-6.578125,7.0
1695397364170,-0.20483398,-1.2466431,-0.53204346,-7.71875,1.28125,3.453125
1695397364210,0.05834961,-1.0847778000000001,-0.36090088,3.890625,11.0,12.625
1695397364250,-0.024658202999999997,-0.9343872,-0.11846924,-6.296875,-7.0625,8.5625
1695397364290,-0.5341796999999999,-0.7786255,-0.09844971,-4.59375,-7.8125,8.53125
1695397364330,-0.4519043,-0.9031372,-0.08551025400000001,-9.09375,8.484375,-8.65625
1695397364370,-0.14550781,-0.8015747,-0.16583252,-7.734375,8.671875,-1.328125
1695397364410,-0.12084961,-0.6704711999999999,-0.0803833,6.984375,6.328125,6.78125
1695397364450,-0.15917969,-0.6812134,-0.016418457,-5.5625,-3.078125,10.875
1695397364490,-0.30493164,-0.59820557,0.032409667999999996,0.3125,7.265625,6.765625
1695397364530,-0.35302734,-0.7749634,0.046325684000000006,2.71875,6.3125,3.125
1695397364570,-0.20922852,-0.8904419,-0.09112549,3.0625,0.671875,3.625
1695397364610,-0.2685547,-1.0632935,0.020202637,2.28125,9.125,3.21875
1695397364650,-0.36962890000000004,-1.2254028000000001,0.15057373,4.953125,11.34375,-1.140625
1695397364690,-0.28955078,-1.3601685,0.049987792999999996,-9.734375,-3.390625,-4.546875
1695397364730,-0.31640625,-1.1948853000000002,-0.37017822,-17.0625,-29.265625,-12.90625
1695397364770,-0.55126953,-1.1965941999999998,-0.4151001,20.53125,-14.59375,-6.859375
1695397364810,-0.31616209999999995,-0.9192505,-0.35723877,16.34375,26.703125,-0.3125
1695397364850,-0.2109375,-0.84820557,-0.31134033,16.71875,10.75,-2.484375
1695397364890,-0.07104492,-1.085022,-0.039123535,31.890625,5.09375,-3.5625
1695397364930,-0.5510254,-0.9312134,-0.20709229,-10.15625,14.71875,3.40625
1695397364970,-0.3996582,-0.74591064,-0.10675049,-2.25,16.46875,-4.078125
1695397365010,-0.40356445,-0.8110961999999999,-0.16607666,6.484375,13.875,-0.484375
1695397365050,-0.3330078,-0.80548096,-0.17803955,8.359375,19.109375,0.0
1695397365090,-0.21264648,-0.7830199999999999,-0.11798096,12.046875,19.703125,3.953125
1695397365130,-0.31884766,-0.6514281999999999,-0.08697510000000001,9.78125,13.359375,7.1875
1695397365170,-0.41894529999999996,-0.67315674,-0.09088135,8.765625,15.984375,1.390625
1695397365210,-0.31762695,-0.722229,-0.12823486,7.375,20.90625,3.1875
1695397365250,-0.2980957,-0.78082275,-0.04522705,11.359375,9.078125,4.484375
1695397365290,-0.3347168,-0.9158325,-0.0029907227,7.5625,9.875,5.15625
1695397365330,-0.5576171999999999,-1.0120239,0.034851073999999996,9.609375,-2.828125,9.296875
1695397365370,-0.8093262,-1.4307251,0.06707764,31.71875,18.703125,17.734375
1695397365410,-1.0869141000000002,-1.3369751,-0.270813,-10.921875,11.859375,27.609375
1695397365450,-0.115722656,-1.2512816999999998,-0.7217406999999999,-4.359375,-2.09375,3.90625
1695397365490,-0.011962891000000002,-0.8418578999999999,-0.4915161,1.78125,13.90625,19.28125
1695397365530,-0.17089844,-0.9573364,-0.61798096,5.78125,25.46875,14.703125
1695397365570,-0.05419922,-0.9031372,-0.31695557,-0.15625,31.984375,10.703125
1695397365610,-0.33740234,-0.77301025,-0.18218994,-6.65625,38.0,6.078125
1695397365650,-0.3779297,-0.7979126,-0.34063720000000003,-3.6875,44.859375,-7.015625
1695397365690,-0.24829102,-0.8826294,-0.49249268,7.0625,47.09375,-1.375
1695397365730,-0.18652344,-0.7798461999999999,-0.26739502,5.5,49.875,-1.046875
1695397365770,-0.29956055,-0.8374634,-0.19952393,-4.09375,40.96875,-0.796875
1695397365810,-0.22338867,-0.8921509,-0.11846924,5.671875,55.046875,1.90625
1695397365850,-0.29492188,-0.74664307,-0.101379395,10.75,60.6875,7.828125
1695397365890,-0.32421875,-0.77838135,-0.19976807,-4.640625,50.25,7.1875
1695397365930,-0.20874023,-0.9663695999999999,-0.05206299,7.796875,46.609375,6.625
1695397365970,-0.3857422,-0.8628540000000001,0.046813965,1.71875,42.375,13.21875
1695397366010,-0.40649414,-0.66192627,-0.012512207,7.765625,48.0,9.0625
1695397366050,-0.35375977,-0.6880493000000001,-0.082092285,16.15625,43.25,2.578125
1695397366090,-0.2626953,-0.8936156999999999,-0.011291503999999999,18.875,37.15625,3.5625
1695397366130,-0.35888672,-0.8904419,0.027038574,11.734375,30.734375,5.1875
1695397366170,-0.3840332,-1.000061,0.10345459,15.921875,28.65625,6.65625
1695397366210,-0.44335938,-1.1633911,0.23626709,14.890625,12.296875,2.0
1695397366250,-0.40454102,-1.5354614,-0.24932861,25.5625,-3.234375,-8.6875
1695397366290,-0.64990234,-1.9295044,-0.24395752,9.5625,-6.015625,4.890625
1695397366330,-0.42260742,-1.1299438,-0.6675415,-12.140625,22.546875,3.484375
1695397366370,-0.22509766,-0.42437744,-0.42242432,-10.9375,13.84375,11.921875
1695397366410,0.044677734000000004,-0.8423461999999999,-0.41705322,11.609375,11.484375,-14.15625
1695397366450,-0.19506836,-1.0664673,-0.13140869,4.078125,15.375,1.828125
1695397366490,-0.5085449000000001,-0.7984009,-0.17315674,-1.9375,14.71875,6.671875
1695397366530,-0.24536133,-0.79156494,-0.27960205,-2.375,13.40625,1.671875
1695397366570,-0.19653320000000002,-0.8538208,-0.089904785,6.953125,16.046875,3.53125
1695397366610,-0.35595703,-0.8518677,0.030456543,1.671875,23.484375,2.25
1695397366650,-0.3779297,-0.7217406999999999,-0.059631348,-6.328125,20.40625,-3.40625
1695397366690,-0.33862305,-0.616272,-0.105285645,5.0625,14.78125,-5.828125
1695397366730,-0.35107422,-0.7463989000000001,-0.07086182,11.8125,14.09375,-4.125
1695397366770,-0.32250977,-0.880188,-0.06451416,7.046875,14.671875,-3.3125
1695397366810,-0.42651367,-0.89678955,-0.11138916,5.859375,11.5,-1.765625
1695397366850,-0.6567383000000001,-1.0464478000000002,-0.024475097999999997,5.515625,17.15625,0.828125
1695397366890,-0.44921875,-1.1084595,-0.41021729999999995,-11.15625,-6.578125,4.640625
1695397366930,-0.47680664,-1.3953247,-0.38385009999999997,12.65625,-5.265625,-2.984375
1695397366970,-0.1538086,-1.7095337,-0.26690674,9.203125,20.953125,9.421875
1695397367010,-0.22778320000000005,-0.9019165000000001,-0.29302979999999995,0.546875,-5.265625,15.6875
1695397367050,0.007080078,-0.8255005,-0.14215088,8.25,4.296875,6.03125
1695397367090,0.028564452999999997,-1.1575316999999998,-0.10772705,2.609375,-2.515625,4.984375
1695397367130,-0.44091797,-0.79156494,0.031677246,-4.0,-6.40625,10.0
1695397367170,-0.30395508,-0.70758057,-0.04840088,-3.375,-5.15625,-4.71875
1695397367210,-0.08886719,-0.76812744,-0.14727783,7.984375,-3.390625,1.171875
1695397367250,-0.17578125,-0.6123656999999999,-0.05645752,7.3125,-10.28125,6.71875
1695397367290,-0.21826172,-0.5479126,0.043884277,-0.859375,-10.265625,3.421875
1695397367330,-0.28320312,-0.7542114000000001,0.023376465,-2.109375,-10.015625,1.53125
1695397367370,-0.25683594,-0.8867798000000001,-0.06939697,-2.546875,-7.09375,-2.015625
1695397367410,-0.2705078,-1.0603638000000002,-0.026916503999999997,6.828125,-3.625,-2.90625
1695397367450,-0.40893555,-1.3989868,0.06341553,11.4375,0.515625,-5.109375
1695397367490,-0.41210938,-1.2852173,-0.009338379,-3.890625,-6.75,-5.140625
1695397367530,-0.34985352,-1.1343383999999999,-0.37139893,-5.265625,-26.90625,-10.0
1695397367570,-0.28540040000000005,-1.6458130000000002,-0.33966064,15.5625,-7.984375,-13.3125
1695397367610,-0.5058594,-1.0339966,-0.14801025,1.984375,13.640625,4.78125
1695397367650,-0.43139648,-0.47564697,-0.45782470000000003,-6.8125,14.0,-5.953125
1695397367690,0.09814453,-1.0274048,-0.25445557,32.359375,15.171875,-7.4375
1695397367730,-0.3269043,-0.93927,-0.0647583,-2.609375,-5.84375,11.09375
1695397367770,-0.64941406,-0.57037354,-0.12554932,-3.296875,9.484375,-4.203125
1695397367810,-0.17578125,-0.7576294,-0.12188721,3.3125,16.796875,-3.15625
1695397367850,-0.13940429999999998,-0.6741333,-0.26934814,8.921875,1.859375,-1.640625
1695397367890,-0.23217773,-0.8008423000000001,-0.08453369,14.515625,5.390625,2.15625
1695397367930,-0.36791992,-0.7505493000000001,-0.08453369,7.890625,2.53125,6.359375
1695397367970,-0.38623047,-0.7678833,-0.20953369,0.640625,-0.515625,-2.40625
1695397368010,-0.36499023,-1.0425415,-0.17974854,7.6875,1.140625,-3.421875
1695397368050,-0.6315918,-1.2468872,-0.12554932,-6.921875,-1.984375,6.078125
1695397368090,-0.5214844,-1.3460083,-0.36236572,-15.28125,0.25,2.640625
1695397368130,-0.3425293,-1.2554321000000002,-0.5635376,-17.8125,-11.84375,5.96875
1695397368170,0.14355469,-1.1504517,-0.35235596,-10.140625,2.90625,12.984375
1695397368210,-0.04833984400000001,-1.0139770000000001,-0.15606689999999998,-8.78125,-4.578125,9.578125
1695397368250,-0.24926758,-0.8674927,-0.16046143,-22.125,-20.875,3.5
1695397368290,-0.28540040000000005,-0.9644165000000001,-0.02154541,-0.125,1.203125,1.0
1695397368330,-0.34643555,-0.72662354,-0.09405517599999999,-23.21875,1.421875,-1.796875
1695397368370,-0.16674805,-0.7197876,-0.06866455,-3.8125,-4.078125,-2.296875
1695397368410,-0.13891602,-0.7151489000000001,-0.016906738,0.625,-5.09375,4.765625
1695397368450,-0.23413086,-0.5564574999999999,-0.0017700195,-1.890625,-2.484375,3.140625
1695397368490,-0.23315429999999995,-0.67193604,-0.010314941,0.15625,-2.40625,-0.265625
1695397368530,-0.22607422,-0.8628540000000001,0.022888184,4.609375,0.921875,-0.28125
1695397368570,-0.20605469,-0.9780884,-0.0134887695,-2.09375,-12.125,-1.5
1695397368610,-0.26635742,-1.3386841,0.054870605,5.34375,-7.25,-3.125
1695397368650,-0.4934082,-1.2654419,0.07073974599999999,0.84375,-0.46875,-4.703125
1695397368690,-0.39941406,-1.267395,-0.17999268,1.25,-7.703125,-14.375
1695397368730,-0.22119139999999998,-1.5476685,-0.31280518,14.5,-9.6875,-9.53125
1695397368770,-0.4621582,-1.1548462,-0.30157470000000003,9.734375,10.515625,6.75
1695397368810,-0.26513672,-0.72003174,-0.39508057,-1.078125,17.15625,-1.4375
