# Sensor type: Respeck
# Activity type: Sitting
# Activity subtype: Coughing
# Subject id: s2094833
# Notes: AA02
timestamp,accel_x,accel_y,accel_z,gyro_x,gyro_y,gyro_z
1696161557023,-0.3071289,-0.8916626,0.41400146,1.25,-0.34375,0.375
1696161557072,-0.3125,-0.8892212,0.41497803,1.0625,1.046875,0.171875
1696161557102,-0.30566406,-0.8867798,0.41644287,1.875,-0.65625,0.546875
1696161557147,-0.29614258,-0.8718872,0.39715576,0.734375,-0.78125,0.0
1696161557180,-0.29492188,-0.9180298,0.40252686,-0.953125,0.09375,0.40625
1696161557229,-0.3125,-0.89385986,0.40960693,0.421875,-1.90625,0.234375
1696161557262,-0.29736328,-0.87994385,0.39666748,1.734375,0.328125,1.015625
1696161557304,-0.29785156,-0.8789673,0.38690186,1.421875,-0.125,0.84375
1696161557338,-0.29174805,-0.91363525,0.38885498,0.21875,3.125,-0.359375
1696161557385,-0.29736328,-0.87701416,0.42474365,7.609375,3.5,1.015625
1696161557417,-0.30200195,-0.89971924,0.40496826,2.453125,0.4375,1.125
1696161557462,-0.29370117,-0.8880005,0.3739624,0.609375,-0.6875,0.875
1696161557496,-0.2919922,-0.9011841,0.39544678,1.28125,-1.21875,0.796875
1696161557541,-0.2944336,-0.89971924,0.38201904,0.375,-1.703125,1.09375
1696161557574,-0.29003906,-0.8999634,0.3925171,0.078125,-3.34375,1.265625
1696161557609,-0.28466797,-0.9048462,0.3768921,0.328125,-3.6875,1.21875
1696161557654,-0.28442383,-0.9053345,0.37078857,0.40625,-2.625,0.890625
1696161557688,-0.2956543,-0.9158325,0.3710327,0.265625,-1.90625,0.71875
1696161557733,-0.2590332,-0.9439087,0.28778076,-5.921875,6.578125,-3.046875
1696161557766,-0.23413086,-0.90338135,0.3048706,21.328125,16.75,-6.234375
1696161557811,-0.30517578,-0.8726196,0.21795654,36.4375,8.75,-1.65625
1696161557844,-0.23242188,-0.90753174,0.34588623,19.109375,2.59375,2.234375
1696161557890,-0.22265625,-0.97906494,0.2255249,22.21875,1.8125,6.484375
1696161557924,-0.34594727,-0.8467407,0.54315186,-15.78125,1.140625,-4.296875
1696161557971,-0.39990234,-0.97662354,0.4142456,-2.46875,-2.1875,0.140625
1696161558002,-0.43798828,-1.0081177,0.43182373,13.640625,1.640625,5.703125
1696161558049,-0.27905273,-0.8723755,0.36444092,13.03125,-2.21875,6.625
1696161558082,-0.12133789,-0.8267212,0.10272217,-16.609375,6.8125,-1.796875
1696161558126,-0.08959961,-0.9241333,0.061462402,-2.921875,-12.890625,-2.59375
1696161558158,-0.2368164,-1.0012817,0.26312256,-0.875,-2.5,10.765625
1696161558208,-0.1850586,-0.8916626,0.20648193,10.0,0.328125,4.65625
1696161558239,-0.5061035,-1.185852,0.5321655,22.28125,8.1875,5.109375
1696161558285,-0.30004883,-0.9209595,0.37615967,8.890625,-10.390625,8.265625
1696161558331,-0.061523438,-0.798645,0.0602417,-33.515625,14.9375,-5.890625
1696161558362,-0.21655273,-1.0613403,0.19915771,3.296875,-29.859375,-0.578125
1696161558397,-0.1887207,-0.598938,0.24554443,6.640625,8.390625,3.96875
1696161558442,-0.3828125,-1.0508423,0.3991089,10.9375,-12.484375,1.796875
1696161558475,-0.32788086,-1.2698364,0.3139038,7.34375,6.8125,0.859375
1696161558520,-0.23730469,-0.9924927,0.33026123,-16.03125,-20.1875,-0.5625
1696161558554,-0.11254883,-0.78692627,-0.0134887695,-28.390625,22.890625,0.71875
1696161558599,-0.24609375,-0.9458618,0.105163574,-6.09375,-8.546875,5.375
1696161558632,-0.1328125,-0.71881104,0.39300537,-22.78125,5.125,-9.53125
1696161558678,-0.3684082,-1.0437622,0.49700928,3.609375,-19.953125,-2.828125
1696161558711,-0.5620117,-1.3926392,0.5499878,15.484375,10.421875,1.96875
1696161558745,-0.2697754,-0.87506104,0.3163452,0.25,-12.328125,4.75
1696161558790,-0.22045898,-0.6638794,0.3619995,-2.890625,-9.5,0.828125
1696161558823,-0.12817383,-0.79815674,0.28094482,-16.9375,7.453125,-2.390625
1696161558868,-0.25585938,-0.9536743,0.37908936,-9.828125,-2.453125,-4.046875
1696161558902,-0.30517578,-1.0935669,0.35003662,-9.640625,11.359375,-4.78125
1696161558948,-0.24926758,-0.9158325,0.28900146,-0.1875,-4.203125,-0.59375
1696161558981,-0.21655273,-0.92852783,0.2929077,2.125,-5.078125,3.03125
1696161559027,-0.22485352,-0.8945923,0.24945068,19.140625,-8.390625,5.359375
1696161559060,-0.2536621,-0.9871216,0.15496826,25.984375,15.734375,4.03125
1696161559106,-0.22143555,-0.9163208,0.31048584,31.703125,-14.34375,4.078125
1696161559150,-0.08325195,-1.0042114,0.1708374,-1.1875,22.90625,-1.203125
1696161559184,-0.34228516,-1.0217896,0.097351074,-4.5625,-2.03125,0.859375
1696161559218,-0.021972656,-0.45880127,0.3234253,-3.25,-13.0,-9.21875
1696161559262,-0.7192383,-1.2698364,0.7982788,-4.625,-0.703125,-3.0
1696161559295,-0.41381836,-1.2427368,0.44256592,-2.34375,13.765625,2.875
1696161559341,-0.40966797,-0.9299927,0.2374878,-4.578125,-8.4375,1.078125
1696161559375,-0.14746094,-0.65875244,0.2543335,11.28125,-2.21875,7.140625
1696161559420,0.08886719,-0.8189087,0.13641357,-9.40625,7.984375,5.171875
1696161559453,-0.30493164,-0.96173096,0.006286621,3.359375,3.9375,3.109375
1696161559499,-0.26586914,-0.83795166,0.513855,12.71875,-28.109375,-2.8125
1696161559532,-0.4519043,-1.3284302,0.44940186,9.15625,21.015625,5.078125
1696161559579,-0.27368164,-1.1868286,0.22772217,-4.65625,-23.046875,2.0
1696161559611,-0.06347656,-0.7163696,0.059020996,5.59375,4.625,6.703125
1696161559655,-0.14331055,-0.77056885,0.14154053,5.78125,-3.265625,6.09375
1696161559689,-0.04711914,-0.9837036,0.11468506,-9.90625,1.4375,-1.546875
1696161559734,-0.18896484,-0.7756958,0.18939209,1.578125,8.421875,-5.890625
1696161559768,-0.5061035,-0.93707275,0.70428467,-5.515625,-18.34375,-1.296875
1696161559804,-0.36010742,-1.2478638,0.2789917,-3.984375,1.296875,2.234375
1696161559848,-0.2368164,-0.9937134,0.37005615,-29.375,-11.453125,-4.71875
1696161559882,-0.19140625,-0.6836548,0.07659912,-8.15625,9.125,0.28125
1696161559927,-0.15625,-0.8677368,0.31707764,4.609375,-11.203125,-1.140625
1696161559960,-0.2397461,-0.9678345,0.3300171,-4.296875,7.90625,-2.140625
1696161560006,-0.22705078,-1.0630493,0.22894287,-6.4375,2.359375,-4.234375
1696161560039,-0.19165039,-1.039856,0.3143921,0.03125,-0.46875,-3.890625
1696161560084,-0.28149414,-0.944397,0.25823975,-0.390625,2.828125,0.0625
1696161560118,-0.24145508,-0.8381958,0.3180542,5.171875,-6.625,0.15625
1696161560164,-0.24560547,-0.8916626,0.29730225,0.921875,-4.359375,3.203125
1696161560197,-0.25268555,-0.97442627,0.2140503,6.78125,7.21875,-0.15625
1696161560242,-0.23828125,-0.9751587,0.26898193,5.265625,3.59375,-3.59375
1696161560276,-0.17895508,-0.8779907,0.13348389,-5.765625,0.296875,-7.34375
1696161560320,-0.16210938,-1.036438,0.16131592,-12.078125,-16.890625,-4.984375
1696161560354,-0.4399414,-0.85162354,0.50653076,-12.625,-3.96875,5.40625
1696161560399,-0.12207031,-0.7979126,0.26678467,-8.15625,1.75,-4.5625
1696161560433,-0.5449219,-1.1460571,0.6605835,9.578125,-7.921875,1.859375
1696161560478,-0.4345703,-0.9241333,0.48114014,21.296875,1.453125,12.3125
1696161560511,-0.23217773,-0.8555298,0.2687378,6.640625,15.078125,3.109375
1696161560557,-0.17333984,-0.9458618,0.16082764,3.328125,-0.953125,-1.8125
1696161560590,-0.099121094,-0.79888916,0.15667725,-8.703125,-1.296875,-1.5
1696161560635,-0.012207031,-1.1690063,-0.027648926,-25.453125,9.609375,-9.5
1696161560668,-0.064208984,-0.7600708,0.37664795,-4.53125,-19.84375,-8.046875
1696161560714,-0.63305664,-0.88409424,0.6310425,13.671875,5.265625,6.0625
1696161560748,-0.3918457,-1.2693481,0.3361206,22.9375,17.46875,9.65625
1696161560794,-0.22216797,-1.0210571,0.29534912,4.59375,-10.6875,2.421875
1696161560826,-0.23022461,-0.67266846,0.17547607,4.296875,-6.359375,10.8125
1696161560886,-0.12841797,-0.75250244,0.25286865,2.78125,-2.140625,-2.5
1696161560905,-0.12573242,-0.96295166,0.14813232,-1.265625,1.21875,-4.109375
1696161560939,-0.18896484,-1.083313,0.1906128,2.125,-0.09375,-5.90625
1696161560984,-0.32543945,-1.036438,0.34490967,3.921875,-6.8125,3.578125
1696161561018,-0.37060547,-1.0532837,0.35784912,15.609375,5.625,9.203125
1696161561062,-0.3046875,-1.0422974,0.26385498,13.421875,3.78125,8.296875
1696161561096,-0.20678711,-0.8423462,0.23602295,-9.28125,-6.296875,2.890625
1696161561153,-0.10913086,-0.8579712,0.13372803,-4.25,-6.90625,-1.4375
1696161561176,-0.18286133,-0.91290283,0.24432373,-7.703125,-13.859375,-6.578125
1696161561220,-0.25463867,-0.9614868,0.2958374,-22.171875,-9.375,-9.75
1696161561253,-0.20922852,-1.0027466,0.33050537,-22.65625,-4.78125,-5.71875
1696161561298,-0.24731445,-1.0244751,0.18914795,-9.953125,4.0625,1.296875
1696161561333,-0.2602539,-0.93951416,0.22454834,12.71875,-10.609375,2.703125
1696161561377,-0.28759766,-0.9053345,0.27288818,4.8125,-1.609375,4.40625
1696161561411,-0.20019531,-0.9234009,0.2074585,15.859375,-2.609375,4.015625
1696161561456,-0.21655273,-1.0039673,0.18231201,11.3125,10.8125,-0.09375
1696161561491,-0.17358398,-0.9439087,0.17840576,2.953125,-2.0625,-2.328125
1696161561536,-0.2355957,-0.9607544,0.085876465,-17.953125,-2.984375,-2.59375
1696161561568,-0.1850586,-0.92803955,0.1696167,-16.15625,3.34375,-2.765625
1696161561613,-0.25830078,-0.6638794,0.38079834,-14.1875,-8.53125,-9.71875
1696161561649,-0.5576172,-1.1372681,0.74627686,1.03125,5.5625,6.46875
1696161561693,-0.36816406,-1.171936,0.33538818,3.046875,10.03125,1.21875
1696161561727,-0.2878418,-1.0003052,0.3114624,-3.109375,-4.640625,0.703125
1696161561772,-0.3088379,-0.69781494,0.24481201,15.328125,3.328125,10.203125
1696161561805,-0.012207031,-0.75128174,0.16351318,-1.546875,9.109375,-0.5625
1696161561852,-0.16674805,-1.0935669,0.14471436,-4.890625,-4.1875,-6.75
1696161561884,-0.107910156,-1.0379028,0.07659912,-10.84375,5.3125,1.78125
1696161561965,-0.13305664,-0.85943604,0.3468628,-14.109375,-10.171875,-10.734375
1696161561968,-0.49121094,-1.0352173,0.6161499,16.25,-6.234375,9.71875
1696161562007,-0.32666016,-1.1106567,0.2958374,10.640625,4.453125,4.078125
1696161562041,-0.28808594,-1.041565,0.30194092,-7.03125,-7.234375,3.859375
1696161562075,-0.11010742,-0.6838989,0.19891357,-5.640625,-0.5625,2.796875
1696161562120,-0.22827148,-0.77227783,0.23040771,-8.859375,-6.28125,-1.703125
1696161562167,-0.13671875,-0.9697876,0.2411499,-11.09375,-0.5625,-5.09375
1696161562199,-0.28564453,-1.0195923,0.3131714,0.390625,-9.484375,-1.640625
1696161562234,-0.45629883,-1.0369263,0.3829956,2.609375,5.625,0.734375
1696161562277,-0.23266602,-1.0794067,0.2921753,7.796875,5.171875,6.484375
1696161562357,-0.20141602,-0.83428955,0.2423706,8.03125,-2.5625,5.671875
1696161562360,-0.095214844,-0.82037354,0.15863037,3.0625,4.765625,2.046875
1696161562390,-0.08544922,-0.93878174,0.16571045,-0.03125,-0.84375,0.28125
1696161562436,-0.25512695,-0.8945923,0.3793335,-4.90625,-3.1875,-7.859375
1696161562469,-0.52441406,-1.0195923,0.5031128,0.703125,-3.484375,-0.0625
1696161562514,-0.26098633,-1.1970825,0.2831421,2.109375,1.140625,2.671875
1696161562548,-0.2644043,-0.8945923,0.25335693,-2.578125,-3.921875,-3.15625
1696161562594,-0.13061523,-0.75372314,0.2555542,-5.6875,-2.078125,2.203125
1696161562627,-0.1328125,-0.9116821,0.18475342,-5.703125,-0.8125,-2.03125
1696161562672,-0.27392578,-1.0327759,0.3361206,-12.609375,1.484375,-6.59375
1696161562705,-0.2565918,-1.0393677,0.31219482,-22.0,7.71875,-5.3125
1696161562751,-0.22241211,-0.90167236,0.30999756,-13.71875,-1.71875,-3.765625
1696161562783,-0.25756836,-0.88604736,0.27752686,8.890625,-3.8125,2.484375
1696161562829,-0.2758789,-0.95098877,0.36419678,7.328125,-7.921875,2.46875
1696161562863,-0.26245117,-0.90411377,0.3295288,1.140625,-2.1875,1.546875
1696161562908,-0.2854004,-0.9299927,0.31732178,1.75,-1.125,-0.3125
1696161562941,-0.2800293,-0.91241455,0.28900146,-2.453125,-2.0,-0.609375
1696161562986,-0.23291016,-0.94659424,0.31243896,-4.21875,-1.421875,-1.921875
1696161563021,-0.21069336,-0.9312134,0.2662964,3.875,-0.875,0.453125
1696161563066,-0.19384766,-0.9319458,0.20819092,15.203125,2.1875,2.515625
1696161563120,-0.17749023,-0.97906494,0.215271,11.90625,11.609375,1.4375
1696161563143,-0.30737305,-0.88116455,0.37200928,15.1875,-18.390625,6.40625
1696161563176,-0.28125,-0.9649048,0.30267334,-6.015625,7.359375,-0.703125
1696161563211,-0.19897461,-0.9351196,0.25286865,-3.75,4.078125,-2.421875
1696161563255,-0.26953125,-0.9475708,0.30584717,0.53125,-1.578125,-1.59375
1696161563291,-0.2619629,-0.9463501,0.2296753,1.53125,2.765625,-1.53125
1696161563335,-0.18237305,-0.9053345,0.21160889,4.140625,-14.90625,-3.109375
1696161563368,-0.037353516,-0.98443604,0.08758545,-8.546875,10.90625,-7.28125
1696161563413,-0.2927246,-0.95098877,0.29803467,-19.640625,-37.53125,-1.71875
1696161563447,-0.37963867,-0.8093872,0.32855225,-8.125,2.234375,-1.8125
1696161563493,-0.27294922,-0.83306885,0.35369873,-13.828125,16.34375,-7.96875
1696161563526,-0.61035156,-1.1047974,0.668396,8.640625,-10.046875,0.75
1696161563571,-0.42578125,-0.9751587,0.4088745,15.390625,13.046875,8.265625
1696161563606,-0.26171875,-0.85528564,0.31463623,7.8125,6.015625,6.203125
1696161563651,-0.2626953,-0.82281494,0.23114014,10.84375,2.734375,8.359375
1696161563684,-0.1171875,-0.8677368,0.15130615,-0.65625,1.875,2.5625
1696161563728,-0.11254883,-0.97857666,0.1605835,-5.34375,-3.546875,-6.125
1696161563764,-0.08154297,-1.0484009,0.19500732,1.5625,3.421875,-0.9375
1696161563809,-0.12475586,-0.8640747,0.094177246,-0.046875,19.109375,5.609375
1696161563842,-0.4399414,-0.91778564,0.5372925,17.359375,-26.296875,6.46875
1696161563886,-0.27319336,-1.0855103,0.307312,17.078125,12.515625,7.75
1696161563920,-0.2705078,-1.005188,0.33026123,-1.21875,-17.21875,2.515625
1696161563966,-0.24511719,-0.85943604,0.12835693,2.328125,-2.90625,4.734375
1696161563999,-0.068115234,-0.8098755,0.19451904,-0.21875,1.875,1.53125
1696161564043,-0.15429688,-0.9517212,0.1539917,2.125,13.625,-3.140625
1696161564077,-0.36083984,-0.897522,0.2772827,3.8125,-7.359375,4.0625
1696161564122,-0.3449707,-1.0491333,0.4389038,2.796875,5.796875,-1.984375
1696161564157,-0.25878906,-1.2068481,0.3241577,-1.03125,0.609375,0.421875
1696161564202,-0.2175293,-0.9048462,0.27459717,-19.6875,4.390625,-3.40625
1696161564234,-0.028076172,-0.7786255,0.05657959,-6.84375,8.0625,0.3125
1696161564269,-0.13085938,-0.8982544,0.13909912,-0.875,-8.703125,-3.453125
1696161564315,-0.19604492,-0.9783325,0.27386475,-8.96875,6.1875,-7.015625
1696161564348,-0.20532227,-0.9092407,0.14178467,6.625,-8.765625,0.21875
1696161564393,-0.43920898,-1.0371704,0.526062,9.03125,-8.546875,4.40625
1696161564427,-0.30981445,-1.0271606,0.19232178,5.875,-0.609375,2.21875
1696161564473,-0.21362305,-0.91412354,0.34124756,0.09375,-1.921875,1.734375
1696161564506,-0.23999023,-0.89923096,0.2789917,-9.28125,-0.375,-0.109375
1696161564550,-0.12963867,-0.94317627,0.20599365,-11.75,-0.484375,-4.734375
1696161564583,-0.2006836,-0.9522095,0.26287842,-16.5625,-5.375,-4.328125
1696161564629,-0.26000977,-1.0181274,0.28045654,-29.734375,1.578125,-7.34375
1696161564663,-0.20532227,-0.9277954,0.2897339,-16.234375,-0.375,-5.8125
1696161564708,-0.24633789,-0.91729736,0.20843506,14.4375,-10.78125,3.28125
1696161564740,-0.2529297,-0.9480591,0.27874756,6.75,-12.453125,0.078125
1696161564787,-0.2199707,-0.94317627,0.26971436,0.78125,4.375,-2.125
1696161564822,-0.22509766,-0.9006958,0.18572998,3.15625,-2.1875,-5.078125
1696161564866,-0.16674805,-0.9194946,0.2699585,3.546875,-6.4375,-1.234375
1696161564902,-0.19726562,-0.99102783,0.3126831,-7.28125,-0.671875,0.0625
1696161564944,-0.2915039,-0.9060669,0.24066162,7.453125,2.78125,4.140625
1696161564979,-0.4284668,-0.85723877,0.4298706,5.921875,0.484375,3.625
1696161565025,-0.40478516,-1.1526489,0.44769287,6.703125,4.359375,2.796875
1696161565057,-0.27661133,-0.91656494,0.33709717,-0.625,0.515625,2.90625
1696161565101,-0.12695312,-0.7893677,0.06903076,-4.296875,4.859375,-0.6875
1696161565138,-0.103271484,-0.8999634,0.24041748,-0.65625,-6.8125,-2.421875
1696161565182,-0.1706543,-0.86431885,0.11566162,16.328125,9.921875,4.53125
1696161565213,-0.34423828,-1.0596313,0.4598999,16.59375,-17.171875,4.09375
1696161565258,-0.31225586,-1.2210083,0.23504639,13.125,-3.9375,8.703125
1696161565292,-0.22021484,-0.9697876,0.22161865,0.78125,-8.875,4.140625
1696161565341,-0.2109375,-0.78619385,0.0914917,5.71875,-0.15625,5.21875
1696161565372,-0.15185547,-0.85650635,0.18572998,0.53125,-5.375,-0.703125
1696161565406,-0.2536621,-1.0264282,0.101501465,-12.359375,7.625,-3.328125
1696161565452,-0.26245117,-0.9702759,0.37005615,-4.921875,-3.640625,-6.140625
1696161565484,-0.28564453,-1.1607056,0.2423706,-2.359375,9.296875,4.453125
1696161565530,-0.25341797,-0.9727173,0.21087646,-7.703125,-0.90625,5.59375
1696161565563,-0.053222656,-0.77960205,0.10369873,-1.84375,4.53125,0.671875
1696161565608,-0.18334961,-0.9170532,0.23944092,-0.40625,-6.375,-1.078125
1696161565644,-0.2097168,-0.9561157,0.20819092,-3.453125,2.125,-2.859375
1696161565687,-0.37841797,-1.0864868,0.31610107,4.828125,-3.109375,0.765625
1696161565721,-0.26489258,-0.9927368,0.24432373,3.4375,10.640625,0.21875
1696161565768,-0.21704102,-0.9746704,0.2855835,-0.953125,-3.75,1.3125
1696161565799,-0.24975586,-0.90289307,0.24188232,-11.828125,-0.28125,-1.515625
1696161565844,-0.14282227,-0.9143677,0.21942139,-24.953125,-3.0625,-8.703125
1696161565878,-0.12768555,-0.9793091,0.17132568,-7.671875,-3.0,-6.125
1696161565923,-0.24316406,-0.9360962,0.27630615,-7.703125,-0.03125,-7.546875
1696161565959,-0.3395996,-1.017395,0.33294678,-4.328125,-5.078125,-2.296875
1696161566003,-0.3232422,-1.0005493,0.33392334,-5.203125,-5.078125,1.4375
1696161566035,-0.31567383,-0.8460083,0.30877686,-5.59375,2.296875,0.359375
1696161566081,-0.19384766,-0.87384033,0.25726318,5.65625,2.921875,1.84375
1696161566115,-0.25048828,-0.9299927,0.29510498,8.734375,0.859375,0.84375
1696161566161,-0.25073242,-0.9788208,0.28704834,4.8125,7.203125,1.53125
1696161566194,-0.18188477,-0.9614868,0.21551514,4.234375,1.0625,1.46875
1696161566239,-0.16113281,-0.92144775,0.20135498,4.640625,-0.765625,1.90625
1696161566273,-0.083740234,-1.010315,0.11590576,4.09375,0.734375,2.96875
1696161566318,-0.21289062,-0.8579712,0.34466553,-17.28125,-3.046875,-11.328125
1696161566351,-0.33691406,-0.6321411,0.479187,-15.84375,-10.859375,-3.65625
1696161566430,-0.44091797,-1.116272,0.5895386,6.921875,-4.0625,-2.1875
1696161566433,-0.47045898,-1.1992798,0.43572998,-2.09375,1.984375,-1.6875
1696161566476,-0.3630371,-0.88897705,0.38226318,-4.609375,2.765625,11.703125
1696161566508,-0.1015625,-0.6135864,0.17889404,6.28125,6.78125,9.96875
1696161566545,-0.21948242,-0.9204712,0.24212646,4.4375,-16.828125,1.578125
1696161566587,-0.125,-1.0747681,0.2140503,-7.90625,4.390625,-3.65625
1696161566622,-0.17260742,-1.0222778,0.25408936,-14.5625,3.546875,-5.578125
1696161566678,-0.17944336,-0.9546509,0.17767334,-2.234375,2.296875,-1.4375
1696161566698,-0.19946289,-0.9470825,0.21722412,12.46875,-5.796875,3.953125
1696161566746,-0.21313477,-0.9639282,0.20135498,14.46875,-0.109375,4.203125
1696161566779,-0.20507812,-0.97125244,0.18060303,10.046875,3.6875,3.109375
1696161566823,-0.27856445,-0.9746704,0.11834717,-3.53125,-10.734375,2.53125
1696161566858,0.0146484375,-0.81329346,0.43426514,-17.984375,-26.25,-4.265625
1696161566901,-0.54907227,-0.68170166,0.32928467,-24.625,13.65625,-5.6875
1696161566938,-0.21899414,-1.1609497,0.4298706,-15.984375,15.3125,-10.890625
1696161566980,-0.49145508,-1.1506958,0.6708374,11.8125,1.046875,1.09375
1696161567013,-0.35668945,-0.78253174,0.3595581,18.171875,0.25,9.21875
1696161567058,-0.15161133,-0.7581177,0.23577881,1.78125,9.9375,8.40625
1696161567092,-0.11303711,-0.89141846,0.14935303,5.03125,-4.46875,2.265625
1696161567138,-0.08276367,-0.90093994,0.22698975,4.09375,11.140625,-0.5625
1696161567171,-0.24121094,-1.133606,0.1930542,6.78125,0.15625,-1.890625
1696161567219,-0.25439453,-0.9348755,0.42791748,11.28125,-8.96875,-3.234375
1696161567250,-0.25854492,-1.0767212,0.33416748,15.71875,-11.421875,1.953125
1696161567297,-0.1875,-0.9673462,0.24993896,0.546875,0.25,2.0625
1696161567329,-0.0949707,-0.8530884,0.06707764,-3.65625,5.03125,-2.109375
1696161567378,-0.19018555,-0.9204712,0.3710327,-1.546875,-7.265625,-2.953125
1696161567410,-0.17797852,-0.92559814,0.06365967,3.984375,14.40625,-2.53125
1696161567454,-0.26000977,-1.0144653,0.43841553,6.734375,-17.046875,-2.984375
1696161567488,-0.4296875,-1.0176392,0.21380615,16.453125,-6.359375,2.90625
1696161567535,-0.26391602,-1.0308228,0.21990967,5.65625,7.90625,6.078125
1696161567566,-0.32666016,-0.89190674,0.28460693,-6.546875,-2.46875,2.6875
1696161567613,-0.12231445,-0.91656494,0.09637451,-13.765625,6.125,-4.1875
1696161567645,-0.18652344,-0.96881104,0.21942139,-12.078125,1.625,-3.640625
1696161567676,-0.25024414,-0.98321533,0.3012085,-18.484375,12.796875,-3.65625
1696161567723,-0.18286133,-0.96051025,0.32659912,-12.375,10.703125,-2.875
1696161567758,-0.29418945,-1.0549927,0.23602295,-24.078125,7.296875,2.5625
1696161567801,-0.14648438,-0.8447876,0.18109131,-4.921875,-10.390625,-0.5625
1696161567837,-0.2529297,-0.88604736,0.31781006,6.34375,-12.03125,2.34375
1696161567880,-0.2565918,-0.93048096,0.29925537,9.03125,-7.578125,3.546875
1696161567915,-0.22705078,-0.9319458,0.24554443,6.65625,2.484375,2.21875
1696161567959,-0.16992188,-0.9968872,0.18963623,7.828125,9.421875,-1.828125
1696161567994,-0.09423828,-0.9348755,0.2699585,12.4375,-0.421875,2.921875
1696161568040,-0.099121094,-0.88531494,0.05731201,10.9375,-18.484375,7.421875
1696161568072,-0.1940918,-1.1953735,0.27215576,-15.28125,-22.796875,-3.140625
1696161568118,0.009521484,-0.8870239,0.28778076,-21.4375,14.90625,-12.796875
1696161568150,-0.48266602,-0.7564087,0.5116577,13.28125,-25.140625,4.890625
1696161568195,-0.4128418,-1.1707153,0.32269287,2.296875,18.9375,0.46875
1696161568229,-0.27172852,-1.0410767,0.3739624,0.578125,9.734375,4.171875
1696161568276,-0.24194336,-0.8101196,0.2819214,-2.34375,5.234375,4.578125
1696161568308,-0.12768555,-0.8821411,0.17596436,-8.96875,1.359375,2.78125
1696161568356,-0.09838867,-0.92510986,0.15325928,4.359375,1.6875,-2.34375
1696161568388,-0.19702148,-0.892395,0.26385498,14.65625,-13.390625,6.015625
1696161568435,-0.4008789,-1.0435181,0.41937256,31.40625,-9.40625,14.046875
1696161568466,-0.21142578,-1.1126099,0.1408081,9.875,5.546875,10.21875
1696161568509,-0.1628418,-1.0154419,0.3048706,12.78125,-2.265625,10.453125
1696161568544,-0.10424805,-0.89678955,0.19769287,6.859375,1.765625,6.125
1696161568589,0.029296875,-0.93341064,0.07537842,1.03125,6.390625,-0.5625
1696161568624,-0.10498047,-0.9241333,0.18475342,-0.921875,-2.96875,-0.25
1696161568667,-0.07348633,-1.0457153,0.10101318,-3.125,3.0,-2.3125
1696161568702,-0.27124023,-0.9595337,0.21795654,2.8125,-2.0625,6.78125
1696161568749,-0.24023438,-0.9336548,0.1828003,-1.125,11.875,4.015625
1696161568781,-0.1472168,-1.0838013,0.18206787,3.890625,4.0625,3.25
1696161568813,-0.17260742,-0.93585205,0.2579956,-5.0625,-1.421875,-1.03125
1696161568860,-0.0949707,-0.9006958,0.16253662,-23.921875,6.25,-9.171875
1696161568893,-0.14379883,-1.0147095,0.25628662,-19.375,-8.53125,-9.625
1696161568939,-0.14160156,-0.9746704,0.2645874,-29.0,4.390625,-9.6875
1696161568972,-0.16430664,-0.9924927,0.31072998,-16.625,0.734375,-4.796875
1696161569016,-0.2097168,-0.9697876,0.2243042,-11.515625,-1.03125,0.9375
1696161569050,-0.14794922,-0.93218994,0.30169678,1.453125,-17.046875,5.25
1696161569095,-0.17504883,-0.956604,0.31292725,2.75,-8.15625,4.96875
1696161569129,-0.15942383,-0.94317627,0.28533936,3.328125,-6.8125,2.359375
1696161569174,-0.19262695,-0.9561157,0.30706787,-0.421875,-7.34375,0.421875
1696161569209,-0.17504883,-0.9434204,0.29974365,-5.796875,-6.5625,-2.390625
1696161569253,-0.13720703,-0.9331665,0.22796631,-4.0625,-1.953125,-2.859375
1696161569286,-0.1274414,-0.99713135,0.2074585,6.59375,9.140625,-1.96875
1696161569332,-0.18334961,-1.0042114,0.20037842,12.296875,6.1875,-2.4375
1696161569368,-0.17626953,-0.9168091,0.24139404,11.3125,1.953125,-1.28125
1696161569410,-0.19702148,-0.89727783,0.31951904,14.921875,-22.359375,6.4375
1696161569444,-0.12451172,-1.0923462,0.20111084,1.9375,6.03125,1.921875
1696161569493,-0.05908203,-0.8677368,0.23284912,-10.8125,10.875,-4.84375
1696161569523,-0.35058594,-0.9216919,0.449646,7.015625,-3.15625,-1.0625
1696161569569,-0.22314453,-1.1504517,0.27874756,5.28125,9.015625,2.03125
1696161569601,-0.19873047,-0.9800415,0.2645874,0.203125,0.765625,-1.546875
1696161569648,-0.11425781,-0.87579346,0.15228271,-0.234375,-0.75,-0.3125
1696161569680,-0.111083984,-0.8843384,0.24945068,0.40625,0.734375,-4.796875
1696161569726,-0.08227539,-1.0493774,0.031921387,6.171875,21.796875,1.734375
1696161569758,-0.16015625,-0.991272,0.3012085,8.25,-11.1875,-1.171875
1696161569841,-0.26513672,-1.0918579,0.2477417,11.171875,2.359375,4.59375
1696161569843,-0.24951172,-1.0569458,0.28460693,-7.265625,-7.484375,0.109375
1696161569872,-0.15356445,-0.8740845,0.2374878,-16.703125,-1.890625,-2.3125
1696161569919,-0.13305664,-0.9356079,0.09686279,-1.828125,-5.671875,-4.53125
1696161569952,-0.107421875,-0.9077759,0.24554443,-1.203125,5.890625,-3.234375
1696161569994,-0.20239258,-0.9378052,0.1437378,16.90625,-9.53125,3.625
1696161570028,-0.31835938,-1.0005493,0.2609253,8.3125,4.046875,1.09375
1696161570075,-0.2109375,-1.1480103,0.27264404,3.78125,-0.359375,1.890625
1696161570108,-0.25610352,-0.9529419,0.25042725,-4.5,-7.21875,1.1875
1696161570155,-0.1081543,-0.82281494,0.06878662,-6.984375,6.921875,-0.265625
1696161570188,-0.041992188,-0.9302368,0.14471436,-0.515625,-8.109375,-5.234375
1696161570233,-0.16699219,-0.9985962,0.15106201,-10.421875,3.890625,-5.65625
1696161570266,-0.26416016,-1.0618286,0.20794678,11.453125,-7.09375,5.90625
1696161570312,-0.24291992,-0.92633057,0.17547607,2.796875,7.8125,5.8125
1696161570345,-0.25317383,-1.0706177,0.24017334,7.109375,0.875,3.265625
1696161570391,-0.20947266,-1.0169067,0.25531006,0.484375,-7.59375,1.859375
1696161570424,-0.21557617,-0.9182739,0.17645264,-2.109375,3.0625,4.671875
1696161570467,-0.110839844,-0.9109497,0.19866943,-9.90625,-1.015625,-0.515625
1696161570503,-0.13061523,-0.98760986,0.18939209,-12.1875,-1.046875,-4.390625
1696161570548,-0.13574219,-1.005188,0.14642334,-7.734375,-0.375,-5.5
1696161570580,-0.14038086,-1.0007935,0.20599365,-8.265625,-4.5,-4.515625
1696161570626,-0.16333008,-0.97979736,0.18621826,-8.90625,-1.609375,-0.59375
1696161570658,-0.17138672,-0.96221924,0.23529053,-2.390625,-5.484375,0.3125
1696161570706,-0.1977539,-0.97491455,0.2982788,-5.5625,-1.84375,0.53125
1696161570739,-0.2199707,-0.9273071,0.25701904,-5.703125,-0.234375,-0.53125
1696161570784,-0.22802734,-0.93707275,0.29437256,-2.765625,-1.328125,-2.078125
1696161570816,-0.23779297,-0.9729614,0.28704834,-6.671875,1.6875,-2.703125
1696161570864,-0.20166016,-0.96295166,0.23822021,-4.46875,0.3125,-3.296875
1696161570896,-0.18603516,-0.97906494,0.25164795,-0.984375,-0.59375,-2.28125
1696161570940,-0.17749023,-0.9417114,0.20697021,12.296875,-1.65625,-1.140625
1696161570973,-0.14086914,-0.96710205,0.22845459,3.671875,-2.96875,-3.6875
1696161571009,-0.18359375,-0.95391846,0.1984253,3.890625,0.265625,-5.796875
1696161571054,-0.22094727,-0.880188,0.38128662,3.171875,-25.15625,-2.015625
1696161571089,-0.17749023,-0.97906494,0.15423584,-4.4375,4.859375,-4.109375
1696161571131,-0.21484375,-0.8833618,0.16131592,5.296875,-10.625,1.15625
1696161571167,-0.21289062,-1.0020142,0.35906982,-13.53125,-11.25,-8.953125
1696161571210,-0.16235352,-0.95928955,0.15985107,-35.96875,20.625,-11.625
1696161571244,-0.4338379,-0.85601807,0.5499878,10.734375,-21.3125,9.96875
1696161571288,-0.4633789,-0.9507446,0.27069092,5.828125,14.625,12.953125
1696161571324,-0.17773438,-1.0422974,0.2579956,19.65625,-4.453125,17.5625
1696161571369,-0.33398438,-0.95025635,0.29071045,24.796875,-12.484375,16.046875
1696161571403,-0.15014648,-0.8772583,0.09832764,13.453125,4.328125,5.9375
1696161571446,-0.014160156,-0.99102783,0.101745605,6.734375,-1.015625,-0.703125
1696161571481,0.024902344,-0.9368286,0.09906006,-11.921875,-5.421875,-5.25
1696161571525,0.020019531,-0.9932251,-0.070129395,-19.15625,-4.953125,-8.109375
1696161571559,-0.14868164,-1.1189575,0.28656006,-39.015625,-5.40625,-17.75
1696161571603,-0.15600586,-0.784729,0.17352295,-24.9375,3.203125,-8.859375
1696161571638,-0.37353516,-0.93170166,0.5397339,3.875,-1.265625,1.875
1696161571684,-0.4008789,-1.072815,0.4335327,11.90625,8.546875,7.359375
1696161571716,-0.37475586,-1.0420532,0.4015503,13.953125,-3.546875,7.171875
1696161571761,-0.24169922,-0.88116455,0.3192749,10.140625,2.546875,5.5
1696161571795,-0.13891602,-0.72784424,0.07220459,6.328125,-3.671875,7.578125
1696161571843,-0.16870117,-0.9780884,0.2111206,4.921875,-10.484375,-0.734375
1696161571874,-0.12426758,-1.0567017,0.109313965,-11.28125,2.515625,-3.953125
1696161571919,-0.13891602,-0.81817627,0.26385498,-11.578125,-2.203125,-11.96875
1696161571955,-0.48461914,-1.0090942,0.4960327,6.578125,2.140625,-0.25
1696161572033,-0.20336914,-1.1838989,0.22503662,16.40625,7.5625,6.765625
1696161572035,-0.30371094,-1.0401001,0.26409912,6.953125,-10.21875,1.859375
1696161572076,-0.078125,-0.92193604,0.12298584,-3.96875,8.15625,7.65625
1696161572109,-0.09277344,-0.8286743,0.0927124,-4.640625,-11.34375,-2.96875
1696161572145,-0.068847656,-0.92510986,0.21575928,-9.421875,4.03125,-4.71875
1696161572189,-0.32104492,-0.9612427,0.3312378,6.59375,-15.859375,2.03125
1696161572223,-0.3005371,-1.1240845,0.17816162,-2.78125,15.78125,2.75
1696161572268,-0.19897461,-1.1047974,0.18914795,0.546875,-1.078125,3.40625
1696161572302,-0.23242188,-0.85040283,0.31097412,0.65625,-2.40625,2.4375
1696161572348,-0.1538086,-0.8196411,0.20599365,-2.9375,-0.953125,-2.5625
1696161572426,-0.1472168,-1.0315552,0.26727295,-3.953125,-3.515625,-7.53125
1696161572428,-0.22314453,-1.0095825,0.26141357,-15.453125,-1.984375,-10.921875
1696161572459,-0.2434082,-0.9651489,0.28460693,-21.265625,2.421875,-9.265625
1696161572504,-0.15991211,-0.94854736,0.27264404,-4.390625,-0.5,-1.6875
1696161572539,-0.27807617,-0.9590454,0.28167725,-3.90625,-1.78125,1.296875
1696161572584,-0.2109375,-0.9661255,0.2826538,-9.0625,2.765625,-0.703125
1696161572617,-0.24316406,-0.94537354,0.2819214,-2.09375,0.625,-0.265625
1696161572663,-0.22265625,-0.9187622,0.2855835,-7.453125,4.703125,-3.484375
1696161572696,-0.26049805,-0.9109497,0.34246826,-0.046875,3.140625,-1.1875
1696161572742,-0.24682617,-0.9302368,0.30560303,-2.75,3.671875,-0.859375
1696161572774,-0.1928711,-0.9155884,0.27825928,5.5625,-1.15625,1.484375
1696161572821,-0.23071289,-0.92755127,0.27313232,8.96875,-0.34375,1.265625
1696161572853,-0.14404297,-0.9324341,0.17840576,24.03125,6.0625,3.4375
1696161572899,-0.29760742,-0.89263916,0.39666748,20.40625,-22.09375,9.109375
1696161572931,-0.2939453,-1.0403442,0.2831421,-5.453125,1.25,4.1875
1696161572977,-0.1237793,-0.9492798,0.23138428,6.328125,-3.375,1.484375
1696161573009,-0.2705078,-0.954895,0.2243042,-1.4375,-1.953125,-1.953125
1696161573056,-0.21533203,-1.0149536,0.12615967,-9.328125,2.875,-8.78125
1696161573091,0.0029296875,-0.9234009,0.18695068,-19.25,-9.0625,-5.640625
1696161573133,-0.23632812,-0.7852173,0.120788574,-41.328125,0.28125,-16.359375
1696161573167,-0.30200195,-0.78497314,0.6117554,-22.703125,-5.15625,-4.765625
1696161573213,-0.5319824,-1.0698853,0.68792725,4.5625,-3.96875,6.390625
1696161573246,-0.35717773,-1.1135864,0.37957764,18.25,13.078125,9.3125
1696161573282,-0.46533203,-1.0012817,0.47161865,20.8125,4.875,13.234375
1696161573326,-0.12158203,-0.6638794,0.19036865,11.34375,17.1875,11.453125
1696161573359,-0.08129883,-0.84503174,0.07977295,18.65625,-5.796875,6.4375
1696161573407,-0.031982422,-1.1043091,0.1161499,0.640625,-7.640625,-1.328125
1696161573438,0.09082031,-0.92266846,0.01361084,14.09375,-8.296875,-4.15625
1696161573483,-0.26538086,-0.98150635,0.21356201,-17.890625,12.15625,-6.6875
1696161573516,-0.1628418,-0.9678345,0.39788818,1.984375,-8.046875,-5.5625
1696161573561,-0.42871094,-0.9963989,0.4052124,10.078125,-6.5,4.28125
1696161573594,-0.26953125,-1.0540161,0.24945068,5.171875,-3.078125,6.1875
1696161573642,-0.31176758,-0.9661255,0.34246826,12.8125,-8.734375,9.03125
1696161573686,-0.22558594,-0.8218384,0.22528076,-1.5,0.828125,5.671875
1696161573720,-0.16894531,-0.8743286,0.12567139,1.15625,-3.609375,-2.390625
1696161573754,-0.11694336,-0.989563,0.17962646,-15.484375,0.046875,-4.75
1696161573799,-0.1640625,-1.0388794,0.18865967,-19.46875,-2.90625,-11.734375
1696161573832,-0.119140625,-0.9854126,0.19818115,-32.265625,12.8125,-12.21875
1696161573880,-0.3149414,-0.8584595,0.37445068,-7.265625,-15.15625,-0.484375
1696161573910,-0.34350586,-1.02594,0.35980225,6.21875,2.59375,6.796875
1696161573955,-0.3317871,-0.99835205,0.38690186,3.9375,-9.5625,10.421875
1696161573990,-0.36499023,-0.88775635,0.38616943,4.078125,-2.140625,4.328125
1696161574034,-0.21850586,-0.8440552,0.30511475,2.328125,-0.828125,2.453125
1696161574069,-0.14355469,-0.89385986,0.2616577,-5.78125,-7.0625,-0.703125
1696161574115,-0.18432617,-0.92071533,0.26190186,-5.53125,-2.625,-0.109375
1696161574148,-0.19140625,-0.9902954,0.22283936,-1.96875,-1.390625,-1.015625
1696161574192,-0.19824219,-1.0391235,0.26727295,8.375,-0.71875,-0.84375
1696161574226,-0.20996094,-1.0015259,0.21600342,23.921875,16.171875,1.75
1696161574271,-0.18286133,-0.9673462,0.17010498,19.90625,27.765625,0.890625
1696161574305,-0.21166992,-0.9133911,0.20672607,17.90625,6.203125,5.1875
1696161574339,-0.19140625,-0.92974854,0.2267456,-1.9375,-4.484375,-1.171875
1696161574384,-0.16894531,-0.9768677,0.24749756,-6.28125,-2.921875,-3.359375
1696161574418,-0.2133789,-0.95928955,0.27288818,-8.75,-7.296875,-4.578125
1696161574462,-0.20458984,-0.9614868,0.21600342,-9.390625,-6.703125,-3.09375
1696161574497,-0.17871094,-0.9751587,0.20770264,1.984375,-8.6875,-0.53125
1696161574541,-0.20385742,-0.97125244,0.22088623,4.3125,-1.640625,0.71875
1696161574575,-0.19213867,-0.9714966,0.14715576,13.40625,3.03125,4.484375
1696161574622,-0.26831055,-0.9343872,0.34588623,8.484375,-17.796875,8.046875
1696161574653,-0.2241211,-1.0100708,0.18035889,-7.828125,4.90625,-1.921875
1696161574700,-0.20605469,-0.9351196,0.20843506,-2.265625,-5.828125,-3.984375
1696161574732,-0.23535156,-1.0120239,0.1798706,-1.9375,-2.9375,-8.09375
1696161574779,-0.2043457,-0.96661377,0.2267456,-10.140625,-10.515625,-8.640625
1696161574810,-0.023925781,-1.0095825,0.117614746,-30.0625,1.0,-12.8125
1696161574856,-0.2331543,-0.8076782,0.29119873,-36.15625,-15.140625,-11.96875
1696161574889,-0.32788086,-0.7749634,0.35198975,-31.296875,11.3125,-9.859375
1696161574936,-0.47192383,-1.0838013,0.5836792,-7.0625,5.046875,4.359375
1696161574969,-0.4140625,-0.97906494,0.36688232,0.328125,-0.21875,8.875
1696161575013,-0.40795898,-0.9248657,0.51898193,5.234375,-7.5,11.375
1696161575047,-0.25927734,-0.7642212,0.3595581,-0.625,-0.03125,6.6875
1696161575094,-0.17089844,-0.76763916,0.26190186,2.734375,1.25,3.8125
1696161575126,-0.18798828,-0.9898071,0.31756592,4.078125,-10.015625,-1.6875
1696161575170,-0.18896484,-1.0095825,0.33514404,0.0,-5.703125,-3.125
1696161575207,-0.16357422,-0.96710205,0.29388428,-3.140625,0.03125,1.203125
1696161575249,-0.17016602,-0.9690552,0.23260498,10.609375,-5.1875,3.921875
1696161575283,-0.24243164,-0.95758057,0.27142334,13.984375,-1.140625,4.9375
1696161575328,-0.19897461,-0.92681885,0.26409912,8.109375,-0.21875,3.140625
1696161575361,-0.2163086,-0.944397,0.26800537,2.4375,-1.09375,0.859375
1696161575407,-0.26831055,-0.973938,0.30926514,3.6875,1.84375,-1.3125
1696161575439,-0.26953125,-0.9343872,0.26971436,-1.53125,2.71875,-3.96875
1696161575474,-0.2397461,-0.9326782,0.30413818,-1.53125,5.25,-4.765625
1696161575518,-0.28125,-0.88360596,0.3048706,5.984375,-6.375,0.765625
1696161575552,-0.27514648,-1.0713501,0.28851318,7.078125,-2.28125,3.65625
1696161575599,-0.08276367,-0.98760986,0.1552124,-10.78125,12.53125,-8.234375
1696161575632,-0.27246094,-0.88067627,0.28363037,-5.265625,-14.203125,-6.96875
1696161575675,-0.13183594,-0.9343872,0.16644287,-15.609375,4.3125,-5.421875
1696161575712,-0.1694336,-1.0115356,0.36029053,-33.765625,-3.34375,-8.21875
1696161575756,-0.35888672,-0.81378174,0.34735107,-30.15625,13.09375,-8.3125
1696161575788,-0.35791016,-0.73394775,0.6095581,-9.65625,0.1875,-2.15625
1696161575834,-0.5756836,-1.0418091,0.58221436,2.1875,12.765625,4.796875
1696161575868,-0.29125977,-0.9126587,0.4725952,16.8125,6.390625,11.046875
1696161575915,-0.34985352,-0.82354736,0.46063232,7.21875,0.5625,8.125
1696161575948,-0.19580078,-0.8362427,0.36541748,5.578125,-3.046875,6.75
1696161575991,-0.1381836,-0.8960571,0.2518921,-5.0,-7.78125,1.4375
1696161576027,-0.1850586,-0.9795532,0.32928467,1.328125,-7.296875,-2.359375
1696161576070,-0.18798828,-0.9866333,0.3463745,-1.0,-2.53125,0.171875
1696161576106,-0.19189453,-0.94537354,0.24603271,7.5625,-5.0,2.015625
1696161576148,-0.21411133,-0.9837036,0.29681396,10.65625,-4.421875,3.8125
1696161576181,-0.15991211,-0.8862915,0.24603271,8.109375,-1.390625,3.5625
1696161576227,-0.19799805,-0.9619751,0.2616577,14.828125,2.5,2.390625
1696161576260,-0.25708008,-0.9241333,0.32318115,7.71875,-0.421875,-1.796875
1696161576306,-0.23925781,-0.9282837,0.29974365,7.421875,-8.40625,0.375
1696161576340,-0.30664062,-0.9631958,0.42474365,-5.859375,-4.046875,-4.859375
1696161576387,-0.1977539,-0.94854736,0.2543335,-7.375,0.921875,-5.921875
1696161576420,-0.27685547,-0.9390259,0.25946045,4.125,-4.359375,-4.796875
1696161576464,-0.12573242,-0.92510986,0.3007202,-8.46875,-5.21875,-2.265625
1696161576499,-0.18286133,-0.9368286,0.22406006,-30.359375,-3.296875,-5.203125
1696161576546,-0.30908203,-0.7576294,0.32122803,-31.765625,11.65625,-5.59375
1696161576577,-0.5410156,-0.9570923,0.7189331,-1.578125,-7.671875,1.546875
1696161576610,-0.42407227,-1.0230103,0.4520874,1.078125,10.96875,5.359375
1696161576656,-0.45288086,-0.9558716,0.5075073,12.625,0.296875,8.953125
1696161576688,-0.2434082,-0.77838135,0.42303467,9.9375,-0.8125,11.328125
1696161576736,-0.09082031,-0.73638916,0.2411499,16.171875,3.25,11.921875
1696161576770,-0.19213867,-0.95318604,0.29974365,5.171875,-6.234375,0.890625
1696161576813,-0.110839844,-0.97857666,0.31097412,2.796875,-3.46875,1.40625
1696161576846,-0.1899414,-1.0112915,0.30145264,2.375,-1.5,1.96875
1696161576894,-0.18432617,-1.0276489,0.24432373,0.84375,-2.71875,2.34375
1696161576925,-0.15258789,-0.92633057,0.27679443,7.703125,-2.375,4.546875
1696161576970,-0.16064453,-0.93218994,0.22406006,8.640625,-3.546875,5.046875
1696161577005,-0.16894531,-0.95684814,0.2514038,12.640625,-1.078125,3.296875
1696161577052,-0.12426758,-0.9795532,0.18109131,16.109375,9.65625,-1.765625
1696161577084,-0.18579102,-0.9968872,0.08465576,17.75,11.96875,-4.375
1696161577128,-0.2446289,-0.87042236,0.33050537,-9.6875,-20.984375,-3.59375
1696161577161,-0.29174805,-0.96539307,0.25531006,-42.40625,-28.5,-10.015625
1696161577206,-0.15307617,-0.85821533,0.23773193,-31.75,23.796875,-13.65625
1696161577241,-0.41577148,-0.79229736,0.6251831,1.46875,-5.0,-1.15625
1696161577286,-0.42089844,-1.3689575,0.48162842,11.390625,17.953125,-4.171875
1696161577319,-0.29223633,-0.96954346,0.3595581,17.140625,3.75,9.53125
1696161577364,-0.19433594,-0.7107544,0.2789917,12.453125,2.046875,8.0625
1696161577398,-0.122802734,-0.8130493,0.14837646,1.109375,1.3125,4.109375
1696161577443,-0.22827148,-0.9182739,0.18670654,15.09375,14.328125,10.09375
1696161577476,-0.06713867,-0.8362427,0.17889404,11.046875,-6.875,-7.21875
1696161577522,-0.4399414,-1.27594,0.5507202,10.46875,6.25,-0.015625
1696161577557,-0.24316406,-1.166565,0.18353271,1.796875,3.0,3.9375
1696161577634,-0.107421875,-0.7522583,0.16815186,-5.796875,-5.0,1.734375
1696161577636,-0.13964844,-0.8731079,0.18939209,2.203125,-8.6875,6.953125
1696161577678,-0.067871094,-1.0054321,0.05999756,20.0625,12.25,9.9375
1696161577713,-0.1352539,-0.7280884,0.29071045,15.34375,-18.28125,-11.640625
1696161577747,-0.5319824,-1.286438,0.3739624,3.90625,20.90625,-5.3125
1696161577794,-0.2133789,-1.3296509,0.20574951,-4.625,7.3125,-3.8125
1696161577840,-0.08618164,-0.861145,0.17547607,-15.671875,6.765625,1.921875
1696161577872,-0.05908203,-0.710022,0.012390137,-2.140625,-3.984375,5.890625
1696161577905,-0.111816406,-0.9194946,0.24603271,0.953125,-12.15625,-3.1875
1696161577949,-0.17016602,-0.8501587,-0.0095825195,5.25,6.609375,9.0
1696161577984,-0.47705078,-1.0293579,0.5048218,11.859375,-22.09375,-12.09375
1696161578029,-0.3815918,-1.140686,0.20794678,-3.859375,26.15625,1.09375
1696161578063,-0.100097656,-0.94000244,0.15765381,-15.8125,6.09375,-1.9375
1696161578107,-0.16064453,-0.84942627,0.16400146,-4.46875,-2.828125,4.21875
1696161578141,-0.013427734,-0.881897,0.14569092,-15.140625,5.71875,-4.515625
1696161578184,-0.29052734,-0.94781494,0.12176514,4.84375,-16.421875,2.578125
1696161578220,-0.111816406,-0.89385986,0.2880249,-11.125,0.21875,-9.703125
1696161578265,-0.5192871,-1.0794067,0.5048218,-1.953125,-21.125,-7.6875
1696161578297,-0.2631836,-1.0213013,0.22698975,0.1875,10.78125,1.109375
1696161578345,-0.16674805,-0.94415283,0.32196045,-3.0,-1.828125,2.34375
1696161578377,-0.15600586,-0.8723755,0.24871826,-5.96875,0.734375,1.453125
1696161578422,-0.19335938,-0.91607666,0.2741089,-3.8125,-8.015625,-1.90625
1696161578455,-0.22045898,-0.9685669,0.27093506,-4.46875,-1.40625,-2.6875
1696161578504,-0.20605469,-1.0230103,0.26727295,-6.953125,-2.234375,-3.953125
1696161578537,-0.21948242,-0.9692993,0.23138428,-8.40625,-1.671875,-2.90625
1696161578579,-0.24072266,-0.9439087,0.28851318,-4.875,-3.375,0.515625
1696161578614,-0.23730469,-0.92315674,0.26507568,0.421875,-3.203125,2.1875
1696161578669,-0.26245117,-0.94976807,0.2999878,0.671875,-6.390625,1.875
1696161578692,-0.22460938,-0.9036255,0.2765503,3.15625,-1.875,0.921875
1696161578738,-0.1887207,-0.9299927,0.18719482,5.75,4.3125,1.21875
1696161578772,-0.111083984,-0.9168091,0.12884521,15.5,3.515625,4.609375
1696161578816,-0.23754883,-0.9500122,0.36273193,-14.9375,-0.9375,-0.890625
1696161578849,-0.1928711,-0.93414307,0.3336792,-4.5,-1.125,0.078125
1696161578884,-0.24414062,-0.92633057,0.3287964,2.3125,-6.421875,5.640625
1696161578928,-0.21704102,-0.9717407,0.28460693,11.03125,0.296875,1.71875
1696161578961,-0.2265625,-0.96759033,0.33709717,9.734375,-8.609375,2.640625
1696161579009,-0.37597656,-1.0359497,0.22381592,2.421875,5.984375,5.015625
1696161579040,-0.057617188,-1.038147,0.25994873,4.328125,2.046875,4.71875
1696161579086,-0.016845703,-1.0005493,-0.04840088,0.0625,20.1875,-0.171875
1696161579120,0.075683594,-0.83795166,0.23626709,-11.328125,-22.59375,-13.578125
1696161579163,-0.18774414,-0.69659424,0.22283936,-9.09375,-6.9375,-9.046875
1696161579199,-0.4375,-1.2078247,0.50408936,-5.859375,-14.703125,-3.46875
1696161579243,-0.4650879,-1.1873169,0.44110107,-6.8125,17.890625,-0.140625
1696161579276,-0.2849121,-1.00177,0.20477295,14.3125,13.984375,12.515625
1696161579323,-0.296875,-0.788147,0.27093506,5.5625,-1.203125,10.140625
1696161579357,-0.125,-0.817688,0.16131592,4.25,5.765625,5.421875
1696161579402,-0.038330078,-0.8723755,0.086120605,-2.703125,-2.140625,-2.203125
1696161579435,-0.060302734,-0.9976196,0.17547607,1.765625,-12.296875,-2.15625
1696161579478,-0.04663086,-1.1321411,-0.041809082,0.3125,11.953125,3.734375
1696161579514,0.005859375,-0.92071533,0.4845581,11.40625,-16.96875,-4.015625
1696161579558,-0.3864746,-0.99468994,0.3427124,13.609375,10.0,8.109375
1696161579592,-0.2915039,-1.1316528,0.29022217,-0.578125,7.4375,6.09375
1696161579638,-0.2409668,-0.8789673,0.2982788,3.0,5.53125,4.015625
1696161579683,-0.19921875,-0.7920532,0.18060303,2.0625,4.0,5.515625
1696161579715,-0.017089844,-0.9126587,0.10076904,-1.1875,-0.796875,-2.734375
1696161579750,-0.19555664,-1.0071411,0.19134521,-8.921875,-6.796875,-10.046875
1696161579793,-0.050048828,-0.9717407,0.093933105,-9.84375,-3.203125,-7.21875
1696161579829,-0.17089844,-1.0879517,0.13861084,-11.734375,-18.484375,-3.234375
1696161579874,-0.07885742,-0.8460083,0.32684326,2.109375,5.421875,-1.265625
1696161579906,-0.23754883,-0.7527466,0.11517334,-2.21875,18.890625,0.609375
1696161579942,-0.3076172,-1.1199341,0.50531006,1.625,-12.171875,-1.03125
1696161579987,-0.36157227,-1.0698853,0.28778076,3.546875,-0.296875,-2.5
1696161580020,-0.20629883,-0.8591919,0.3102417,3.578125,3.875,8.203125
1696161580064,-0.12426758,-0.7510376,0.16888428,0.875,3.140625,1.71875
1696161580100,-0.08178711,-0.98028564,0.2345581,-2.375,-2.96875,-6.109375
1696161580146,-0.05078125,-1.0012817,0.10809326,-6.4375,-0.25,-3.609375
1696161580178,-0.24902344,-1.0820923,0.33636475,-18.5625,-5.921875,-2.078125
1696161580222,-0.19433594,-0.9690552,0.35272217,4.546875,15.3125,6.921875
1696161580257,-0.13110352,-0.9788208,0.048034668,2.609375,-7.203125,9.453125
1696161580302,-0.2866211,-1.0183716,0.36102295,7.921875,-15.359375,-0.46875
1696161580335,-0.32543945,-0.92559814,0.28094482,10.46875,-11.0,1.890625
1696161580382,-0.103027344,-0.78204346,0.24969482,2.625,0.765625,-0.828125
1696161580412,-0.11230469,-0.86602783,0.23675537,-6.171875,4.6875,-8.21875
1696161580460,-0.032958984,-1.069397,0.22503662,-5.109375,2.265625,-9.453125
1696161580492,-0.15283203,-1.0430298,0.25482178,-9.890625,-8.25,-4.453125
1696161580539,-0.27197266,-1.0562134,0.40325928,0.828125,-1.046875,3.671875
1696161580570,-0.21801758,-1.036438,0.08685303,-5.53125,0.875,7.515625
1696161580615,-0.21777344,-0.9302368,0.37445068,6.3125,-13.75,1.328125
1696161580650,-0.17407227,-0.82281494,0.23480225,1.671875,-5.109375,-3.71875
1696161580695,-0.22924805,-0.9065552,0.26849365,1.65625,-4.09375,-6.28125
1696161580728,-0.24633789,-1.0232544,0.3012085,-8.609375,7.359375,-5.265625
1696161580774,-0.16601562,-1.036438,0.2177124,-20.53125,5.0625,-6.1875
1696161580807,-0.24047852,-0.9639282,0.28363037,-11.015625,-10.921875,-5.75
1696161580853,-0.27270508,-0.91607666,0.29022217,4.875,-5.625,-0.078125
1696161580886,-0.23657227,-0.9380493,0.25726318,-1.34375,-6.859375,0.765625
1696161580931,-0.19995117,-0.97076416,0.2987671,-3.828125,0.953125,-1.734375
1696161580966,-0.24365234,-0.9019165,0.2826538,-3.65625,-2.90625,-0.828125
1696161581011,-0.24389648,-0.9065552,0.23626709,4.234375,0.828125,-0.6875
1696161581042,-0.17773438,-0.98028564,0.24017334,7.265625,7.453125,0.5625
1696161581077,-0.23901367,-0.91485596,0.24578857,7.65625,3.046875,2.0625
1696161581122,-0.24633789,-0.9690552,0.3439331,11.15625,0.953125,5.359375
1696161581156,-0.2019043,-0.987854,0.24188232,6.15625,5.890625,2.125
1696161581202,-0.20092773,-0.9495239,0.21966553,6.734375,3.390625,1.890625
1696161581234,-0.2241211,-0.9649048,0.24163818,5.859375,5.375,-0.6875
1696161581282,-0.2133789,-0.94244385,0.16033936,11.4375,0.90625,-2.75
1696161581314,-0.1303711,-0.86798096,0.054870605,-24.984375,-8.859375,3.90625
1696161581358,-0.24047852,-0.97052,0.19085693,-26.3125,-24.140625,-4.390625
1696161581393,-0.16992188,-0.46343994,0.29486084,-17.21875,-6.609375,-2.484375
1696161581438,-0.44970703,-1.1870728,0.6576538,-2.4375,9.265625,-2.21875
1696161581472,-0.4802246,-1.3621216,0.4953003,8.75,16.453125,4.28125
1696161581516,-0.35595703,-0.9163208,0.43060303,12.0625,11.390625,7.65625
1696161581548,-0.25146484,-0.68878174,0.23529053,8.765625,7.28125,8.3125
1696161581594,-0.024169922,-0.8311157,0.08685303,4.5,3.875,5.546875
1696161581630,-0.09082031,-0.9158325,0.13787842,2.109375,-22.3125,-1.015625
1696161581674,-0.15576172,-0.99298096,0.07318115,8.015625,1.859375,2.375
1696161581706,-0.36767578,-1.0171509,0.51971436,7.828125,-19.15625,1.21875
1696161581752,-0.24584961,-1.1992798,0.18328857,16.390625,11.921875,9.328125
1696161581786,-0.16333008,-1.0515747,0.18865967,6.5625,-8.671875,6.1875
1696161581832,-0.15942383,-0.82696533,0.1329956,-6.453125,-1.0,-0.640625
1696161581863,-0.047851562,-0.913147,0.15814209,-2.5625,-9.1875,-3.203125
1696161581912,-0.12036133,-0.83184814,0.18841553,2.40625,-6.765625,-7.234375
1696161581943,-0.33813477,-1.0806274,0.26385498,-1.625,-3.515625,-0.28125
1696161581989,-0.18896484,-1.1360474,0.19769287,0.3125,1.234375,5.421875
1696161582021,-0.203125,-0.9714966,0.21380615,-4.421875,-6.9375,-0.65625
1696161582101,-0.32617188,-1.0332642,0.29901123,-6.25,-6.09375,-0.59375
1696161582112,-0.17700195,-0.8526001,0.21844482,-25.390625,9.90625,-4.203125
1696161582145,-0.09350586,-0.92559814,0.020446777,-18.765625,10.625,-2.84375
1696161582181,-0.08642578,-0.9585571,0.31951904,-14.6875,-5.515625,-6.515625
1696161582214,-0.19213867,-0.8772583,0.20257568,-10.15625,0.96875,-3.78125
1696161582259,-0.30126953,-1.0808716,0.2826538,18.5625,-12.015625,3.21875
1696161582293,-0.3269043,-0.95318604,0.5014038,6.0,-8.6875,-1.3125
1696161582338,-0.30371094,-0.9175415,0.30926514,6.03125,-6.453125,0.484375
1696161582374,-0.20727539,-0.9014282,0.33221436,-8.46875,1.34375,-6.421875
1696161582416,-0.19824219,-0.8677368,0.24603271,-13.734375,-4.703125,-6.203125
1696161582451,-0.20605469,-1.05719,0.24359131,-3.796875,-3.4375,-2.359375
1696161582496,-0.17553711,-0.8960571,0.21282959,-5.921875,0.53125,-2.59375
1696161582529,-0.23291016,-0.9570923,0.27215576,-0.90625,2.25,0.984375
1696161582573,-0.30004883,-1.0100708,0.24310303,18.421875,-12.59375,8.796875
1696161582606,-0.35766602,-0.944397,0.33294678,5.296875,13.171875,-0.046875
1696161582653,-0.24780273,-1.0093384,0.33709717,-0.046875,-5.203125,0.265625
1696161582699,-0.2866211,-0.8652954,0.3456421,-5.875,-2.125,-3.265625
1696161582729,-0.24951172,-0.9356079,0.2645874,-20.015625,5.890625,-4.421875
1696161582764,-0.21362305,-0.9697876,0.260437,-15.03125,-4.390625,-8.515625
1696161582811,-0.25146484,-0.94610596,0.31732178,-17.578125,-4.78125,-7.578125
1696161582846,-0.28808594,-0.9824829,0.3222046,-21.265625,-6.40625,-4.75
1696161582891,-0.2084961,-0.9026489,0.34539795,-12.921875,-2.8125,-1.78125
1696161582924,-0.27001953,-0.8748169,0.32904053,3.265625,0.859375,2.421875
1696161582968,-0.3203125,-0.92388916,0.40374756,0.921875,-0.953125,-0.328125
1696161583001,-0.2980957,-0.9126587,0.3908081,-4.4375,0.671875,0.203125
1696161583046,-0.29223633,-0.87164307,0.38079834,-1.390625,-2.34375,-0.890625
1696161583080,-0.29003906,-0.9319458,0.33587646,-6.65625,-3.734375,-0.03125
1696161583125,-0.26538086,-0.90631104,0.37127686,1.359375,-4.3125,0.234375
1696161583158,-0.26391602,-0.89190674,0.29974365,2.34375,-5.21875,1.90625
1696161583202,-0.18139648,-0.9175415,0.27386475,15.71875,2.515625,0.703125
1696161583236,-0.29956055,-0.95758057,0.26531982,13.515625,0.53125,1.25
1696161583285,-0.30859375,-0.90167236,0.33563232,5.0625,-12.203125,1.28125
1696161583315,-0.2006836,-0.9175415,0.22845459,-2.875,9.578125,5.546875
1696161583348,-0.2626953,-0.9282837,0.4142456,-0.90625,4.53125,5.171875
1696161583393,-0.29003906,-0.9146118,0.48138428,9.328125,-7.671875,3.0
1696161583429,-0.40576172,-0.9356079,0.39276123,9.125,10.28125,2.125
1696161583472,-0.3232422,-1.0859985,0.42962646,5.578125,0.90625,1.984375
1696161583506,-0.22094727,-0.77545166,0.32318115,5.234375,5.671875,4.328125
1696161583551,-0.19042969,-0.93170166,0.21942139,-5.25,4.8125,-2.078125
1696161583585,-0.13085938,-0.9990845,0.17449951,-3.203125,-1.65625,-2.84375
1696161583632,-0.16625977,-0.8804321,0.25701904,-5.0,-1.21875,-2.640625
1696161583664,-0.19116211,-0.9517212,0.28411865,4.1875,-4.296875,2.15625
1696161583710,-0.35864258,-1.0650024,0.37713623,7.65625,-5.875,7.890625
1696161583744,-0.2902832,-0.9558716,0.31488037,4.328125,-0.0625,4.9375
1696161583789,-0.30322266,-0.9260864,0.31292725,3.1875,1.921875,2.0625
1696161583821,-0.1899414,-0.8562622,0.30145264,-2.390625,0.765625,-0.171875
1696161583866,-0.23657227,-0.9404907,0.2982788,-9.390625,1.265625,-3.359375
1696161583901,-0.17333984,-1.0015259,0.24554443,-20.75,4.53125,-8.328125
1696161583948,-0.19506836,-0.9627075,0.31048584,-22.578125,-1.984375,-8.59375
1696161583979,-0.28979492,-0.92266846,0.42425537,-12.953125,-2.234375,-2.703125
1696161584024,-0.21459961,-0.9133911,0.32757568,-8.6875,0.375,-1.078125
1696161584059,-0.27905273,-0.8989868,0.4003296,1.40625,-1.203125,0.703125
1696161584105,-0.30517578,-0.8960571,0.39178467,-2.9375,5.265625,-1.03125
1696161584136,-0.22094727,-0.87384033,0.4147339,9.09375,3.484375,-0.65625
1696161584181,-0.23242188,-0.9336548,0.34539795,9.984375,4.984375,4.140625
1696161584216,-0.27270508,-0.9517212,0.32757568,8.875,5.953125,1.59375
1696161584261,-0.23242188,-0.9038696,0.30413818,3.875,-1.34375,3.59375
1696161584294,-0.21362305,-0.9487915,0.2789917,5.703125,-4.125,0.90625
1696161584339,-0.2265625,-0.9168091,0.31781006,3.78125,-2.171875,-0.265625
1696161584374,-0.23046875,-0.9221802,0.26556396,-1.328125,-3.125,-1.28125
1696161584419,-0.26000977,-0.9458618,0.28094482,4.859375,-8.28125,-4.046875
1696161584453,-0.23144531,-0.8796997,0.39959717,2.671875,-12.96875,-0.53125
1696161584485,-0.15283203,-0.9529419,0.25115967,-14.703125,-3.484375,-1.28125
1696161584531,-0.28686523,-0.881897,0.4442749,-5.328125,-11.0625,-1.828125
1696161584566,-0.32177734,-0.9585571,0.3451538,-5.703125,4.15625,1.109375
1696161584608,-0.37231445,-1.0105591,0.44818115,2.9375,4.578125,0.9375
1696161584644,-0.35595703,-0.93536377,0.4069214,1.6875,10.109375,3.8125
1696161584688,-0.2409668,-0.8237915,0.3192749,6.875,8.640625,3.9375
1696161584723,-0.2055664,-0.8999634,0.28631592,1.65625,-2.9375,2.5625
1696161584766,-0.13110352,-0.95513916,0.21844482,1.34375,5.203125,-3.109375
1696161584801,-0.1394043,-0.9246216,0.25750732,-3.296875,1.703125,-2.984375
1696161584846,-0.1850586,-0.97491455,0.24700928,0.421875,-8.453125,1.25
1696161584879,-0.18579102,-0.9307251,0.3522339,7.578125,-8.125,7.015625
1696161584926,-0.4567871,-0.92559814,0.41766357,12.890625,5.0,5.3125
1696161584958,-0.26513672,-1.0281372,0.42059326,3.703125,8.796875,1.703125
1696161585015,-0.30297852,-0.91241455,0.3139038,7.65625,-4.484375,3.328125
1696161585049,-0.23535156,-0.8911743,0.3859253,-2.515625,2.25,-2.6875
1696161585083,-0.05419922,-0.83551025,0.004333496,-17.421875,10.421875,-2.984375
1696161585116,-0.15307617,-0.9338989,0.46697998,0.3125,-25.15625,-4.765625
1696161585163,-0.24316406,-1.0596313,0.1552124,2.28125,-1.796875,6.015625
1696161585205,-0.25634766,-1.071106,0.34466553,5.046875,-15.265625,5.859375
1696161585240,-0.33203125,-0.82037354,0.34735107,3.90625,7.71875,3.75
1696161585274,-0.16748047,-1.0029907,0.37591553,1.6875,0.875,-1.625
1696161585319,-0.23510742,-0.84576416,0.26385498,-4.75,7.40625,-3.6875
1696161585352,-0.21679688,-1.0339966,0.29486084,-9.75,0.171875,-7.75
1696161585399,-0.15161133,-0.9060669,0.24334717,-5.40625,0.1875,-5.3125
1696161585431,-0.23535156,-0.91241455,0.2921753,0.265625,-5.25,-1.53125
1696161585510,-0.22753906,-1.0188599,0.25115967,8.125,-7.15625,3.46875
1696161585512,-0.27661133,-0.9639282,0.31976318,9.046875,-4.25,4.71875
1696161585543,-0.2692871,-0.9089966,0.32781982,1.5625,0.140625,0.3125
1696161585589,-0.29785156,-0.9373169,0.3583374,3.140625,2.734375,1.390625
1696161585621,-0.23022461,-0.9458618,0.2982788,-3.640625,6.5,-0.71875
1696161585666,-0.2241211,-0.92388916,0.27947998,-9.5625,-0.6875,-0.796875
1696161585699,-0.22705078,-0.97442627,0.30096436,-13.796875,-0.21875,-1.234375
1696161585747,-0.2253418,-0.98565674,0.3307495,-17.0,-6.625,-3.484375
1696161585779,-0.22509766,-0.9295044,0.3300171,-17.390625,-8.78125,-7.078125
1696161585835,-0.1850586,-0.8970337,0.20843506,0.046875,-9.84375,-1.0
1696161585859,-0.25561523,-0.93096924,0.39178467,4.90625,-14.125,-1.53125
1696161585904,-0.234375,-0.9446411,0.34954834,-0.46875,1.125,-1.734375
1696161585937,-0.2644043,-0.923645,0.27557373,13.515625,2.390625,-2.546875
1696161585985,-0.2529297,-0.95025635,0.34954834,12.609375,6.15625,-0.3125
1696161586015,-0.27441406,-0.91485596,0.25115967,10.015625,5.875,-0.125
1696161586062,-0.19995117,-0.9741821,0.25482178,7.765625,4.796875,-1.765625
1696161586095,-0.23632812,-0.83966064,0.10491943,5.515625,-7.515625,3.625
1696161586139,-0.056640625,-0.9949341,0.28338623,-5.828125,-6.90625,-6.546875
1696161586174,-0.45214844,-0.79888916,0.28582764,-10.375,-6.265625,-0.75
1696161586218,-0.3388672,-1.0044556,0.56243896,-6.5625,-6.5,-3.015625
1696161586253,-0.37329102,-1.0393677,0.38861084,0.15625,4.5,2.234375
1696161586296,-0.42236328,-0.9697876,0.32269287,5.078125,3.578125,5.03125
1696161586330,-0.2536621,-0.8460083,0.3270874,1.671875,1.71875,2.75
1696161586376,-0.2133789,-0.786438,0.20062256,1.90625,-6.359375,5.609375
1696161586410,-0.09277344,-0.8989868,0.1486206,-5.078125,4.359375,1.734375
1696161586456,-0.2944336,-1.0601196,0.3024292,10.703125,-6.421875,4.84375
1696161586487,-0.32495117,-1.003479,0.3751831,15.03125,1.453125,6.9375
1696161586533,-0.33666992,-1.0825806,0.29486084,8.96875,6.96875,8.9375
1696161586567,-0.22485352,-0.90460205,0.3151245,12.203125,-1.625,7.28125
1696161586612,-0.12695312,-0.8040161,0.15618896,-2.609375,5.28125,-0.046875
1696161586646,-0.13989258,-0.95684814,0.0758667,0.203125,-4.359375,-1.859375
1696161586680,-0.17333984,-0.986145,0.26898193,-3.71875,-5.140625,-6.234375
1696161586726,-0.1394043,-0.9421997,0.13983154,-6.828125,-0.53125,-1.90625
1696161586760,-0.1928711,-1.0027466,0.27752686,-1.5625,-8.25,-2.703125
1696161586803,-0.31201172,-0.99786377,0.2982788,-1.046875,3.40625,2.84375
1696161586838,-0.26904297,-0.96539307,0.27215576,0.125,2.515625,2.015625
1696161586894,-0.2861328,-0.93829346,0.30804443,0.171875,-2.875,2.03125
1696161586917,-0.25219727,-0.89923096,0.27581787,-5.4375,-2.1875,-2.703125
1696161586961,-0.23364258,-0.9524536,0.27752686,-13.078125,-6.75,-8.015625
1696161586997,-0.22314453,-0.9727173,0.26800537,-18.390625,-7.109375,-10.625
1696161587039,-0.22070312,-0.9920044,0.3131714,-20.859375,-5.78125,-7.96875
1696161587074,-0.21899414,-0.9414673,0.28778076,-13.4375,2.84375,-3.984375
1696161587118,-0.27246094,-0.9356079,0.3283081,-7.515625,-0.671875,-1.609375
1696161587152,-0.28515625,-0.894104,0.36932373,-10.1875,-1.921875,-2.078125
1696161587197,-0.28857422,-0.88482666,0.3637085,-19.125,0.859375,-4.546875
1696161587231,-0.3149414,-0.8977661,0.39813232,-10.40625,2.390625,-3.25
1696161587276,-0.29638672,-0.8977661,0.37860107,-3.90625,1.46875,-3.8125
1696161587309,-0.28173828,-0.89141846,0.36346436,1.84375,-2.546875,-1.140625
1696161587357,-0.28271484,-0.9089966,0.37176514,5.234375,0.703125,1.265625
1696161587401,-0.2854004,-0.91412354,0.40008545,5.203125,7.578125,1.75
1696161587432,-0.28808594,-0.90509033,0.39886475,5.984375,6.328125,2.546875
1696161587468,-0.25610352,-0.92437744,0.35247803,-5.609375,0.21875,0.875
1696161587512,-0.25585938,-0.9019165,0.3788452,3.515625,-0.3125,0.28125
1696161587546,-0.26245117,-0.9067993,0.3427124,-1.015625,-1.71875,2.671875
1696161587591,-0.12768555,-0.8369751,0.13104248,29.65625,3.125,8.765625
1696161587631,-0.33666992,-0.90753174,0.5751343,6.78125,-29.0625,1.84375
1696161587705,-0.29711914,-0.98150635,0.3126831,-4.234375,-0.375,3.5625
1696161587707,-0.2133789,-0.94610596,0.3312378,-6.09375,-1.84375,-3.40625
1696161587748,-0.2890625,-0.9048462,0.36834717,0.09375,-0.6875,-1.234375
1696161587781,-0.24438477,-0.9290161,0.22894287,1.96875,3.21875,-1.96875
1696161587816,-0.21557617,-0.98101807,0.21575928,9.78125,-12.0,0.15625
1696161587861,-0.35009766,-0.90826416,0.45257568,-14.453125,-1.53125,0.359375
1696161587894,-0.24438477,-0.7564087,0.30804443,-10.609375,-2.328125,-0.859375
1696161587940,-0.4477539,-0.94732666,0.51556396,1.640625,3.734375,2.65625
1696161587972,-0.43798828,-1.0549927,0.49505615,12.109375,7.578125,9.15625
1696161588017,-0.3815918,-0.92681885,0.38226318,2.78125,8.109375,8.828125
1696161588098,-0.15039062,-0.798645,0.2609253,8.21875,6.875,5.046875
1696161588100,-0.14135742,-0.91192627,0.3143921,3.90625,-1.09375,3.640625
1696161588131,-0.19873047,-0.96466064,0.27923584,-3.078125,-4.59375,1.171875
1696161588175,-0.118896484,-0.97320557,0.22601318,-5.046875,-2.0625,0.46875
1696161588208,-0.15649414,-1.008606,0.24310303,-2.59375,-5.640625,1.078125
1696161588253,-0.23046875,-0.9627075,0.30584717,0.15625,-4.890625,0.65625
1696161588289,-0.21679688,-0.9348755,0.293396,-2.34375,-2.09375,1.1875
1696161588335,-0.21435547,-0.9138794,0.32806396,0.15625,-6.28125,-0.65625
1696161588369,-0.26879883,-0.9380493,0.35516357,-0.515625,-0.859375,-1.640625
1696161588414,-0.2199707,-0.9512329,0.3168335,2.171875,-2.46875,-2.5625
1696161588445,-0.2578125,-0.9351196,0.34466553,-0.78125,1.171875,-3.140625
1696161588490,-0.2397461,-0.9258423,0.34466553,-3.90625,0.9375,-1.390625
1696161588524,-0.22241211,-0.96417236,0.32269287,-5.546875,-2.625,-0.546875
1696161588571,-0.21142578,-0.90875244,0.26361084,-2.859375,-2.9375,-0.328125
1696161588603,-0.24169922,-0.89508057,0.28070068,10.703125,-1.234375,0.171875
1696161588650,-0.15063477,-0.99542236,0.12200928,11.796875,23.515625,-1.265625
1696161588694,-0.27685547,-0.88238525,0.4611206,7.46875,-12.953125,-2.640625
1696161588726,-0.23266602,-0.92755127,0.30047607,-5.671875,6.140625,-6.609375
1696161588761,-0.18481445,-0.92315674,0.36029053,-5.03125,-2.984375,-5.53125
1696161588806,-0.26904297,-0.9299927,0.3595581,-1.96875,1.671875,-3.828125
1696161588841,-0.28808594,-0.95977783,0.3234253,-6.09375,-0.75,-3.859375
1696161588885,-0.2775879,-0.9146118,0.31536865,-6.921875,-9.140625,-2.265625
1696161588918,-0.31225586,-0.8779907,0.34490967,-11.0,-10.8125,-1.828125
1696161588952,-0.23266602,-0.8196411,0.36663818,-7.453125,2.09375,-1.140625
1696161588998,-0.40576172,-0.93829346,0.4887085,5.1875,-6.15625,5.921875
1696161589032,-0.35668945,-1.0449829,0.4081421,10.140625,4.59375,6.078125
1696161589076,-0.2878418,-0.94366455,0.40789795,1.28125,4.375,7.796875
1696161589110,-0.19262695,-0.8562622,0.17645264,3.296875,0.59375,3.125
1696161589156,-0.16699219,-0.8982544,0.3475952,4.78125,-3.484375,3.34375
1696161589188,-0.19970703,-0.98101807,0.25701904,-0.953125,2.078125,1.546875
1696161589233,-0.1508789,-0.9890747,0.22088623,-1.171875,-0.328125,0.09375
1696161589266,-0.24536133,-0.9849243,0.29534912,-2.203125,-4.0625,-1.75
1696161589314,-0.25219727,-0.9505005,0.28485107,-8.921875,3.015625,-2.234375
1696161589358,-0.21240234,-0.90045166,0.27142334,-10.75,-3.671875,-1.953125
1696161589391,-0.2758789,-0.9365845,0.37347412,-2.890625,-1.984375,-1.921875
1696161589423,-0.24023438,-0.92803955,0.33294678,-7.015625,-1.96875,-4.203125
1696161589470,-0.27026367,-0.9380493,0.36297607,-4.703125,-2.328125,-2.75
1696161589504,-0.2849121,-0.8909302,0.35247803,-2.3125,-0.203125,-1.8125
1696161589548,-0.25170898,-0.9072876,0.31732178,-3.21875,-1.953125,-1.375
1696161589585,-0.23413086,-0.9209595,0.36029053,-2.90625,-0.78125,-1.796875
1696161589627,-0.23754883,-0.90997314,0.37249756,-0.03125,-1.4375,-1.28125
1696161589661,-0.27856445,-0.92315674,0.34613037,-0.65625,-3.609375,0.84375
1696161589705,-0.23730469,-0.9260864,0.276062,16.796875,0.734375,0.84375
1696161589740,-0.13012695,-0.8826294,0.24822998,-1.296875,2.09375,-2.40625
1696161589784,-0.3022461,-0.85772705,0.2243042,-1.234375,-2.21875,3.359375
1696161589818,-0.3708496,-0.9331665,0.35687256,-16.359375,-12.078125,4.59375
1696161589864,-0.4128418,-0.68634033,0.43988037,-2.109375,20.171875,0.21875
1696161589896,-0.35986328,-1.0979614,0.6444702,0.671875,-3.34375,5.03125
1696161589965,-0.29223633,-0.9624634,0.37664795,8.515625,7.296875,0.015625
1696161589975,-0.41455078,-0.9505005,0.5536499,8.421875,-6.515625,1.890625
1696161590010,-0.34179688,-0.80718994,0.4569702,6.640625,-0.59375,0.609375
1696161590053,-0.05078125,-0.78912354,0.19329834,6.953125,9.40625,4.75
1696161590088,-0.16259766,-1.034729,0.25775146,4.78125,-12.953125,0.421875
1696161590134,-0.12426758,-0.8843384,0.16668701,0.765625,1.234375,3.140625
1696161590168,-0.22290039,-0.99224854,0.21063232,7.0625,-5.046875,4.625
1696161590211,-0.23388672,-0.94000244,0.324646,10.953125,9.90625,1.828125
1696161590249,-0.35473633,-1.0889282,0.52142334,20.5,-3.0,10.46875
1696161590291,-0.2746582,-1.008606,0.2802124,10.609375,1.78125,6.671875
1696161590325,-0.19506836,-0.9234009,0.2333374,4.078125,-3.296875,3.734375
1696161590371,-0.21508789,-0.8765259,0.21673584,1.78125,-6.21875,0.921875
1696161590402,-0.16552734,-0.8484497,0.22625732,2.484375,-4.671875,3.21875
1696161590448,-0.16015625,-0.93585205,0.11248779,9.484375,-0.046875,-0.671875
1696161590483,-0.2253418,-0.9636841,0.35736084,3.953125,9.453125,0.625
1696161590528,-0.21166992,-1.1990356,0.18597412,-3.625,1.484375,3.1875
1696161590562,-0.2614746,-0.9573364,0.29779053,-9.46875,-8.8125,2.265625
1696161590607,-0.07861328,-0.8335571,0.09686279,-7.25,8.1875,-1.484375
1696161590640,-0.11303711,-0.9204712,0.24700928,-0.328125,-11.015625,-0.34375
1696161590686,-0.1706543,-0.9505005,0.1708374,-7.515625,3.96875,-3.84375
1696161590718,-0.20092773,-0.9077759,0.32318115,9.671875,-27.1875,3.453125
1696161590763,-0.21362305,-1.0210571,0.124938965,-6.46875,8.40625,-0.671875
1696161590798,-0.35668945,-1.0083618,0.45135498,3.015625,-15.109375,3.609375
1696161590841,-0.21459961,-0.98809814,0.19891357,-1.265625,12.125,1.875
1696161590876,-0.17602539,-0.89849854,0.32269287,-2.703125,-4.65625,-0.90625
1696161590920,-0.13452148,-0.93878174,0.1630249,-17.71875,2.03125,-7.1875
1696161590954,-0.10961914,-0.97125244,0.24261475,-9.609375,-2.3125,-9.015625
1696161591000,-0.21044922,-0.98443604,0.24822998,-13.921875,-0.078125,-11.71875
1696161591033,-0.13989258,-0.9522095,0.25335693,-16.0,0.203125,-8.921875
1696161591077,-0.25756836,-0.9541626,0.338562,-17.53125,-4.15625,-7.765625
1696161591113,-0.27612305,-0.9187622,0.37835693,-14.90625,3.53125,-6.671875
1696161591147,-0.29101562,-0.88848877,0.3986206,-10.234375,-0.40625,-6.140625
1696161591201,-0.31591797,-0.8765259,0.41815186,-7.71875,1.203125,-3.703125
1696161591223,-0.32348633,-0.8960571,0.42596436,-7.640625,-1.421875,-3.703125
1696161591271,-0.29223633,-0.8640747,0.40570068,-4.1875,-2.15625,-2.109375
1696161591304,-0.28979492,-0.91241455,0.39813232,-6.234375,-2.53125,-1.296875
1696161591348,-0.2697754,-0.8855591,0.41497803,-3.0625,-6.9375,0.140625
1696161591381,-0.25952148,-0.9031372,0.38250732,-7.453125,-0.21875,0.625
1696161591426,-0.26342773,-0.8845825,0.38812256,0.953125,-2.109375,1.421875
1696161591464,-0.29077148,-0.8821411,0.4142456,0.484375,-1.25,0.625
