# Sensor type: Respeck
# Activity type: Ascending stairs
# Activity subtype: Normal
# Subject id: s2030861
# Notes: 
timestamp,accel_x,accel_y,accel_z,gyro_x,gyro_y,gyro_z
1695895559216,0.038085938,-1.1502075,0.14642334,-3.90625,-11.921875,2.59375
1695895559246,0.068115234,-1.260315,0.14544678,-10.421875,-19.0,13.46875
1695895559290,0.15234375,-1.5527954,-0.4163208,-2.265625,-48.203125,14.125
1695895559335,0.9375,-1.598938,0.17254639,4.6875,-1.140625,12.015625
1695895559365,0.234375,-1.2376099,0.015563965,-4.421875,9.515625,21.234375
1695895559411,-0.17041016,-0.88848877,-0.22735596,-9.640625,-9.59375,-15.34375
1695895559456,0.58081055,-1.2544556,0.1317749,-0.921875,-3.625,0.484375
1695895559486,0.23803711,-1.0457153,0.023620605,-6.5,2.859375,-1.4375
1695895559532,0.037353516,-0.5215454,0.05316162,-1.421875,3.640625,2.0625
1695895559607,0.10888672,-0.5137329,0.09613037,5.609375,3.359375,2.890625
1695895559611,0.076660156,-0.50177,0.07098389,4.5,-1.5625,0.640625
1695895559651,0.016601562,-0.5203247,0.027526855,5.46875,0.34375,-1.1875
1695895559679,0.025634766,-0.63360596,0.1359253,7.5625,9.3125,-5.8125
1695895559725,0.10986328,-0.77423096,0.032165527,2.109375,12.203125,-7.046875
1695895559771,0.20776367,-0.93634033,0.19085693,2.765625,6.953125,-10.09375
1695895559801,0.046875,-1.4512329,-0.22003174,15.671875,3.640625,-23.375
1695895559846,0.3269043,-1.694397,-0.04449463,-7.5625,-9.828125,-16.0625
1695895559876,0.16381836,-1.7793579,-0.22979736,1.921875,34.078125,1.90625
1695895559920,-0.053955078,-0.74224854,-0.14312744,-14.859375,16.390625,-3.390625
1695895559966,0.37475586,-1.2080688,-0.12310791,7.765625,16.3125,5.125
1695895559995,0.12133789,-1.1570435,-0.016906738,-7.046875,12.78125,6.921875
1695895560041,0.095214844,-0.7276001,0.031188965,-7.375,16.359375,12.171875
1695895560085,0.0068359375,-0.692688,-0.020812988,-3.96875,8.03125,10.375
1695895560116,0.052490234,-0.6380005,-0.042297363,-4.578125,6.921875,13.640625
1695895560159,0.14331055,-0.6087036,-0.030334473,-1.265625,7.0,12.953125
1695895560235,0.0036621094,-0.6826782,0.08660889,1.046875,3.234375,2.9375
1695895560240,-0.06958008,-0.81378174,0.012878418,2.609375,6.6875,-2.9375
1695895560279,0.08984375,-0.99420166,0.0028686523,-4.375,2.6875,-6.625
1695895560310,0.14575195,-1.2146606,0.0927124,-6.734375,-4.375,-3.75
1695895560355,0.2680664,-1.4155884,-0.16607666,0.046875,-19.9375,6.59375
1695895560400,0.8664551,-1.404602,-0.10675049,-1.796875,-18.28125,5.96875
1695895560431,0.16040039,-1.1587524,-0.06719971,0.921875,-19.078125,11.109375
1695895560476,0.16333008,-0.8789673,0.027770996,3.171875,-18.65625,-8.375
1695895560520,0.17944336,-1.2012329,0.06488037,4.421875,-15.0,-8.65625
1695895560549,0.115722656,-0.95806885,0.09637451,0.171875,-0.453125,-9.40625
1695895560595,0.125,-0.7112427,0.137146,1.828125,0.296875,-4.5
1695895560640,0.111816406,-0.6055298,0.15960693,5.75,1.796875,-2.59375
1695895560669,0.04296875,-0.6585083,0.058044434,9.828125,-6.59375,-4.75
1695895560730,0.2199707,-0.68341064,0.15325928,4.46875,-7.3125,-6.3125
1695895560744,-0.103759766,-0.79107666,0.06878662,-0.375,-7.3125,-6.734375
1695895560789,0.10107422,-0.73101807,0.086364746,-4.28125,2.890625,-7.71875
1695895560835,0.2578125,-0.84698486,0.004333496,-1.328125,-8.578125,-3.125
1695895560866,0.09033203,-1.0359497,0.2843628,8.828125,-9.3125,-10.75
1695895560909,0.019042969,-2.0,0.029724121,-2.53125,1.640625,-28.8125
1695895560955,0.3310547,-1.7295532,0.034851074,-15.265625,7.5,2.796875
1695895560986,-0.21557617,-0.9859009,-0.27374268,-10.5,20.4375,4.875
1695895561030,0.203125,-1.00177,-0.117248535,13.953125,26.5,0.5625
1695895561061,0.2626953,-1.1560669,-0.010803223,0.171875,13.59375,6.421875
1695895561108,0.035888672,-0.76885986,0.074645996,-6.609375,4.84375,8.421875
1695895561149,-0.091796875,-0.6409302,0.09051514,-3.40625,12.421875,4.359375
1695895561180,0.048583984,-0.57891846,0.006286621,-4.125,4.78125,2.890625
1695895561227,0.057373047,-0.59820557,0.066833496,0.6875,10.578125,4.75
1695895561270,0.051757812,-0.5408325,0.031188965,3.296875,2.015625,4.59375
1695895561301,0.114746094,-0.6326294,0.10321045,7.21875,0.953125,-0.4375
1695895561347,-0.060302734,-1.0093384,0.0446167,8.125,-4.40625,-6.34375
1695895561389,-0.036865234,-1.3218384,-0.0044555664,0.828125,-5.15625,-9.890625
1695895561420,0.18701172,-1.6367798,-0.097717285,-3.40625,-6.78125,0.625
1695895561469,0.52197266,-1.6206665,-0.097717285,-12.375,-21.578125,3.875
1695895561510,0.38598633,-1.3045044,-0.03253174,-12.28125,-16.71875,13.203125
1695895561540,0.024414062,-1.0410767,-0.16339111,-2.984375,-12.015625,6.609375
1695895561586,0.32617188,-1.0076294,0.04534912,10.109375,-12.875,-1.84375
1695895561616,0.17553711,-1.0073853,0.015808105,13.6875,-3.46875,3.515625
1695895561660,-0.005126953,-0.7505493,0.105163574,3.59375,-1.921875,3.09375
1695895561709,0.03955078,-0.50909424,0.093688965,1.484375,-7.5,0.828125
1695895561735,0.1027832,-0.50616455,0.03363037,4.296875,-5.703125,0.265625
1695895561782,0.07324219,-0.5027466,0.06878662,2.046875,-10.125,2.546875
1695895561825,0.08276367,-0.6152954,0.10687256,6.953125,-10.71875,-0.09375
1695895561855,0.083740234,-0.9109497,0.120788574,8.34375,-4.484375,-0.484375
1695895561900,0.109375,-1.2681274,0.10321045,6.515625,-1.9375,-5.53125
1695895561930,0.1821289,-1.3418579,0.15228271,5.78125,4.546875,-6.15625
1695895561975,0.04736328,-1.421936,-0.1687622,5.625,3.484375,-11.75
1695895562020,0.47192383,-1.3328247,-0.2695923,1.078125,-11.15625,-8.171875
1695895562051,0.084228516,-1.6348267,-0.18511963,9.78125,13.40625,3.96875
1695895562095,-0.32617188,-0.76275635,-0.20880127,-16.34375,31.8125,-8.234375
1695895562140,0.4814453,-0.81085205,-0.109191895,3.59375,26.828125,2.25
1695895562168,0.23120117,-1.1802368,0.047302246,0.34375,12.5,8.75
1695895562215,-0.18896484,-0.7510376,-0.008850098,-12.171875,20.953125,12.125
1695895562244,0.049804688,-0.49639893,-0.058654785,-2.65625,21.703125,7.546875
1695895562289,0.16186523,-0.6382446,-0.04815674,2.671875,11.28125,7.46875
1695895562335,0.08935547,-0.6958618,-0.024719238,1.5625,4.578125,1.859375
1695895562365,0.040771484,-0.7678833,0.039489746,1.0625,4.953125,-2.09375
1695895562409,0.0068359375,-0.91973877,0.015808105,1.03125,3.375,-3.859375
1695895562455,0.076660156,-1.2017212,0.026306152,-6.34375,-0.78125,-7.484375
1695895562487,0.15234375,-1.4141235,0.04925537,-11.75,-12.875,-1.046875
1695895562531,0.18041992,-1.6550903,-0.19537354,-6.9375,-16.21875,5.109375
1695895562576,0.61035156,-1.2991333,-0.121154785,-3.734375,-8.21875,6.28125
1695895562605,0.36132812,-0.909729,-0.06744385,0.375,-18.296875,13.8125
1695895562651,-0.23339844,-0.92633057,-0.09136963,-2.84375,-17.28125,-3.609375
1695895562679,0.3557129,-0.9151001,0.009216309,4.765625,-9.84375,-7.8125
1695895562728,0.21386719,-1.1890259,0.081970215,-2.140625,-11.140625,-6.90625
1695895562771,-0.072509766,-0.84088135,0.05267334,-8.8125,-1.78125,-0.78125
1695895562800,0.1508789,-0.52960205,0.066589355,1.875,-0.96875,-1.84375
1695895562846,0.16259766,-0.6746216,0.08319092,8.84375,-6.5625,1.4375
1695895562891,0.064208984,-0.6819458,0.06390381,2.375,-7.53125,2.28125
1695895562920,0.024414062,-0.72247314,0.109313965,8.390625,-0.84375,0.390625
1695895562995,0.06689453,-0.894104,0.21478271,13.203125,4.34375,-2.984375
1695895563012,0.11206055,-1.131897,0.09515381,4.3125,-1.375,-4.40625
1695895563040,0.16577148,-1.2905884,0.15911865,4.765625,3.828125,-11.546875
1695895563087,0.26904297,-1.8928833,-0.16925049,-3.75,-5.6875,-17.421875
1695895563115,0.34179688,-1.6814575,-0.09844971,-5.625,8.484375,-1.515625
1695895563159,-0.24169922,-0.9402466,-0.25177002,-21.9375,17.953125,1.953125
1695895563206,0.19897461,-0.6187134,-0.16021729,-3.3125,26.84375,0.328125
1695895563237,0.4543457,-1.2478638,-0.07891846,10.765625,11.078125,0.109375
1695895563279,0.021484375,-1.0408325,0.05267334,-5.921875,11.8125,9.921875
1695895563326,-0.16601562,-0.55841064,0.02557373,-4.265625,27.390625,8.890625
1695895563355,0.03955078,-0.56451416,0.04071045,3.0625,21.984375,5.625
1695895563399,0.16210938,-0.6109009,0.01727295,4.65625,15.0,4.625
1695895563431,0.09326172,-0.5654907,-0.024719238,-1.96875,1.203125,4.34375
1695895563476,0.07519531,-0.6709595,0.023376465,-4.890625,-4.6875,-3.296875
1695895563519,0.015136719,-0.98516846,0.039001465,1.609375,-8.4375,-8.5625
1695895563551,0.11425781,-1.312561,0.10296631,-10.796875,-22.1875,-3.40625
1695895563595,0.33129883,-1.7371216,-0.14508057,-4.546875,-7.578125,-3.640625
1695895563640,0.6899414,-1.3130493,-0.011047363,-1.640625,-22.390625,6.796875
1695895563670,0.09643555,-1.2161255,-0.08868408,-2.296875,-16.359375,15.6875
1695895563715,-0.1965332,-0.7210083,-0.22003174,-3.890625,-9.03125,-11.640625
1695895563760,0.47460938,-1.031311,0.06976318,16.015625,-14.03125,-3.359375
1695895563789,0.035888672,-1.0877075,0.023864746,-1.5,-9.625,-5.375
1695895563836,0.052246094,-0.6526489,0.1071167,-2.734375,-4.609375,0.609375
1695895563866,0.15625,-0.64019775,0.1329956,5.859375,-10.515625,0.0625
1695895563909,0.09814453,-0.739563,0.08416748,0.640625,-15.71875,-0.046875
1695895563955,0.038330078,-0.71539307,0.0119018555,-3.5625,-14.34375,-0.90625
1695895563987,0.068847656,-0.8167114,0.14056396,5.078125,-12.359375,-2.296875
1695895564029,0.043701172,-0.9907837,0.15228271,4.890625,-0.140625,-2.703125
1695895564075,0.016601562,-1.045227,0.07220459,0.1875,-0.015625,-5.703125
1695895564106,0.07495117,-1.1140747,0.11907959,4.734375,14.015625,-12.734375
1695895564149,0.22827148,-1.3391724,-0.14654541,-7.5625,-19.390625,-11.375
1695895564197,0.421875,-1.5784302,-0.14093018,18.578125,3.828125,1.046875
1695895564226,-0.2512207,-1.3152466,-0.19781494,-14.09375,15.84375,-7.96875
1695895564269,0.21972656,-0.6213989,-0.13531494,1.296875,30.921875,3.96875
1695895564299,0.2775879,-1.3154907,-0.058654785,9.40625,11.34375,2.6875
1695895564361,0.05517578,-1.0076294,0.06732178,-1.25,16.171875,6.109375
1695895564389,0.03100586,-0.6531372,0.10296631,0.640625,18.53125,8.171875
1695895564419,-0.05517578,-0.788147,-0.019592285,1.625,20.28125,10.046875
1695895564467,0.040039062,-0.6668091,-0.043762207,3.390625,16.34375,7.40625
1695895564509,0.12963867,-0.6914673,0.007019043,10.4375,17.375,8.890625
1695895564539,0.043945312,-0.80303955,0.023864746,7.5,10.6875,3.546875
1695895564600,0.038085938,-0.8953247,0.011657715,8.21875,5.0625,1.09375
1695895564615,0.033203125,-1.1043091,-0.055236816,5.125,-0.65625,-1.046875
1695895564676,-0.0107421875,-1.2241821,-0.0029907227,-1.546875,7.359375,1.5625
1695895564706,0.27246094,-1.33844,-0.24517822,-1.875,-3.546875,7.25
1695895564735,0.7788086,-1.4138794,-0.22930908,5.265625,-5.40625,2.796875
1695895564779,0.15258789,-1.1323853,-0.2805786,-7.21875,-7.953125,16.5
1695895564827,0.24780273,-0.7136841,-0.12921143,2.28125,0.234375,-1.3125
1695895564870,0.3371582,-0.9590454,-0.093322754,7.921875,-13.40625,-2.484375
1695895564903,0.07324219,-0.9805298,-0.028625488,-8.984375,-0.921875,-2.5625
1695895564944,0.09082031,-0.7095337,-0.017150879,-9.375,0.96875,-3.078125
1695895564974,0.20605469,-0.6980591,-0.0020141602,0.078125,-0.28125,-0.625
1695895565019,0.15551758,-0.6765747,-0.014221191,-2.515625,-1.09375,-0.953125
1695895565051,0.13793945,-0.42730713,0.0036010742,-4.140625,2.796875,2.96875
1695895565096,0.014160156,-0.21881104,-0.05255127,3.203125,6.984375,3.296875
1695895565139,0.045654297,-0.24298096,-0.12677002,3.1875,-6.734375,5.375
1695895565170,0.26391602,-0.29083252,-0.02520752,8.46875,-7.28125,-0.53125
1695895565216,0.0036621094,-0.8748169,-0.2107544,21.359375,-19.234375,-13.265625
1695895565260,0.39160156,-2.0,0.10321045,15.875,-14.15625,-36.078125
1695895565306,0.14257812,-2.0,-0.08331299,-4.390625,-9.921875,-20.921875
1695895565336,0.6411133,-2.0,-0.0025024414,-39.828125,-3.46875,-17.453125
1695895565379,0.3251953,-1.8167114,-0.0115356445,-12.5,13.5625,13.859375
1695895565411,-0.1328125,-0.54522705,-0.2732544,-54.171875,14.0,17.296875
1695895565459,-0.1303711,0.5680542,-0.17706299,-45.296875,7.28125,10.25
1695895565485,0.038085938,0.38494873,-0.074279785,0.09375,-1.484375,2.4375
1695895565531,0.09472656,-0.08917236,-0.077941895,24.46875,-6.25,-8.515625
1695895565607,0.061523438,-0.09234619,-0.054016113,17.140625,-10.859375,5.515625
1695895565611,-0.06201172,-0.00982666,-0.021057129,7.65625,-6.859375,7.3125
1695895565651,-0.015136719,0.078063965,0.021911621,13.609375,6.890625,7.265625
1695895565709,-0.060302734,0.005065918,0.008483887,9.890625,-0.765625,2.578125
1695895565727,-0.08520508,0.03656006,-0.04815674,15.328125,-15.484375,2.5
1695895565771,-0.005859375,-0.05279541,0.31072998,18.515625,-9.6875,4.046875
1695895565816,0.51660156,-2.0,-0.2744751,89.125,34.859375,-69.46875
1695895565847,0.970459,-2.0,0.15545654,-13.984375,-34.9375,29.765625
1695895565890,-0.4111328,-1.9959106,-0.18243408,0.0625,8.703125,-21.390625
1695895565936,1.0124512,-2.0,-0.26690674,-0.125,-2.921875,-4.53125
1695895565966,0.17602539,-1.7666626,-0.22418213,-21.296875,9.59375,12.09375
1695895566009,-0.13623047,-0.7463989,0.14984131,-35.859375,27.078125,-2.84375
1695895566039,0.072753906,-0.24029541,-0.04034424,-27.0,13.078125,1.03125
1695895566103,0.033935547,-0.13482666,-0.08087158,-11.125,5.75,10.96875
1695895566131,-0.18798828,-0.41192627,-0.089416504,-7.0625,9.421875,-13.015625
1695895566160,0.05419922,-0.51934814,-0.07525635,-8.421875,12.78125,-5.46875
1695895566204,0.08178711,-0.67437744,-0.09283447,1.625,7.96875,-4.53125
1695895566234,-0.06518555,-1.0147095,0.023620605,7.765625,14.5625,-10.359375
1695895566280,0.045654297,-1.1499634,0.11541748,-6.84375,11.015625,-5.390625
1695895566326,0.1171875,-1.0757446,-0.04058838,-17.703125,3.9375,0.515625
1695895566357,0.29614258,-0.88482666,-0.014953613,-19.515625,-21.015625,16.609375
1695895566400,0.17480469,-1.1985474,-0.128479,7.4375,-22.609375,7.015625
1695895566444,0.52734375,-1.0767212,0.07879639,-26.921875,-54.453125,10.96875
1695895566474,-0.022705078,-1.510315,0.2514038,-2.609375,-8.140625,0.0
1695895566519,-0.011230469,-1.0908813,-6.1035156E-5,-2.125,-18.859375,-10.5625
1695895566595,0.43652344,-1.0203247,0.16497803,2.78125,-16.484375,0.125
1695895566599,0.017089844,-0.90948486,0.06121826,1.9375,-9.46875,-0.21875
1695895566639,9.765625E-4,-0.6062622,0.11102295,4.5625,-5.546875,1.078125
1695895566671,0.13256836,-0.66656494,0.12420654,10.640625,-2.296875,-6.0
1695895566715,0.203125,-0.72662354,0.12664795,4.609375,-3.875,-2.40625
1695895566765,0.123046875,-0.7481079,0.12591553,5.34375,-24.828125,-3.578125
1695895566794,0.011230469,-0.76348877,0.16278076,9.296875,-13.921875,-2.859375
1695895566833,0.068359375,-0.8609009,0.1515503,12.171875,-23.015625,-13.375
1695895566879,0.14208984,-1.3579712,0.038024902,17.828125,-14.03125,-26.359375
1695895566909,0.41796875,-1.6013794,-0.05987549,-1.765625,-40.703125,-21.78125
1695895566960,0.2927246,-1.0808716,0.0138549805,-10.078125,1.140625,15.71875
1695895567000,-0.3461914,-0.6712036,-0.045959473,-11.34375,-13.53125,-20.1875
1695895567029,0.44677734,-1.078186,-0.08062744,17.421875,-27.25,-16.5
1695895567078,0.4555664,-1.8191528,-0.050598145,-9.84375,-40.671875,0.546875
1695895567103,-0.057373047,-0.7498169,-0.036193848,-15.5,-34.578125,7.6875
1695895567148,-0.010009766,-0.6240845,0.043884277,5.84375,-36.265625,-3.515625
1695895567194,0.234375,-0.8687134,-0.038146973,6.953125,-44.453125,0.5
1695895567224,-0.08618164,-0.7324829,0.109802246,3.84375,-43.53125,-3.921875
1695895567285,-0.111816406,-0.74176025,0.14520264,1.890625,-43.4375,-5.671875
1695895567313,0.09814453,-0.8591919,0.11077881,4.375,-36.265625,3.890625
1695895567344,0.03540039,-1.112854,-0.027160645,0.65625,-42.53125,2.0
1695895567389,0.009521484,-1.0581665,0.0770874,-1.46875,-37.921875,3.0
1695895567421,0.17944336,-1.0791626,-0.21148682,-2.578125,-53.34375,13.859375
1695895567479,0.9958496,-1.2869263,0.1642456,0.125,-44.484375,16.875
1695895567510,0.14672852,-1.1223755,0.024841309,12.09375,-57.09375,18.75
1695895567541,-0.28759766,-1.2717896,-0.07110596,7.9375,-56.0,-26.03125
1695895567584,0.5427246,-1.114563,0.04827881,4.671875,-44.109375,3.25
1695895567630,0.16625977,-0.9085083,0.08807373,10.90625,-49.96875,7.953125
1695895567659,-0.16625977,-0.6199341,0.14935303,1.515625,-41.734375,-11.1875
1695895567705,0.28955078,-0.598938,0.16009521,-1.21875,-39.71875,2.375
1695895567751,0.076416016,-0.79156494,0.21917725,6.375,-43.078125,-5.109375
1695895567780,0.12915039,-0.82476807,0.12176514,-0.3125,-39.28125,-5.0
1695895567824,0.34179688,-0.7883911,0.2868042,1.890625,-32.84375,-3.921875
1695895567855,0.27905273,-0.8911743,0.061706543,9.078125,-51.421875,-7.890625
1695895567903,-0.1274414,-1.2468872,0.074157715,12.234375,-29.265625,-25.109375
1695895567945,0.24414062,-1.5806274,-0.11187744,-1.765625,-62.015625,-29.8125
1695895567973,0.5012207,-1.0049438,-0.1362915,-5.328125,-43.046875,8.234375
1695895568020,-0.35986328,-0.9146118,0.034606934,10.96875,-44.65625,0.75
1695895568063,0.29418945,-1.0999146,0.13226318,-11.546875,-73.46875,-5.953125
1695895568094,0.2919922,-1.3018188,-0.08502197,-4.265625,-66.28125,14.5
1695895568142,-0.088378906,-0.80670166,0.011169434,9.625,-55.4375,7.015625
1695895568184,0.107421875,-0.7241821,0.07977295,4.03125,-65.4375,5.5625
1695895568214,0.0034179688,-1.0247192,0.13861084,10.34375,-68.796875,9.859375
1695895568259,-0.15014648,-0.8970337,0.09197998,6.59375,-51.328125,1.21875
1695895568289,-0.19238281,-0.78131104,0.12835693,7.140625,-44.625,-0.671875
1695895568334,0.012939453,-0.97735596,0.15374756,-5.75,-57.109375,4.421875
1695895568380,0.022705078,-0.94732666,0.15130615,-4.921875,-42.90625,9.703125
1695895568409,-0.072265625,-0.8987427,0.09515381,-6.40625,-39.109375,7.546875
1695895568472,0.19897461,-0.9981079,-0.13092041,-7.890625,-62.15625,12.25
1695895568500,0.7770996,-1.583313,0.37371826,22.71875,-22.921875,15.4375
1695895568529,0.24072266,-1.1016235,-0.12652588,2.4375,-30.265625,19.703125
1695895568574,-0.06567383,-1.0527954,0.024108887,15.484375,-24.625,-3.671875
1695895568608,0.40161133,-1.0791626,-0.0037231445,13.515625,-29.953125,0.078125
1695895568650,0.28759766,-1.0454712,0.07122803,17.625,-26.875,6.96875
1695895568695,0.05444336,-0.70928955,0.06097412,13.453125,-19.6875,1.546875
1695895568726,0.3059082,-0.61016846,0.027770996,16.0625,-22.859375,12.15625
1695895568769,0.20043945,-0.63067627,0.016052246,18.265625,-17.25,8.90625
1695895568816,0.024414062,-0.49395752,-0.041809082,20.84375,1.734375,9.140625
1695895568846,-0.048583984,-0.15655518,-0.09942627,14.5625,15.328125,6.890625
1695895568888,0.20751953,-0.06817627,-0.362854,11.328125,-18.515625,11.484375
1695895568937,0.49389648,-0.51348877,0.0018920898,45.328125,-34.328125,3.390625
1695895568964,-0.27270508,-1.9512329,-0.105285645,38.09375,-28.484375,-31.90625
1695895569009,0.42993164,-2.0,-0.4602661,-24.75,18.390625,-39.359375
1695895569056,1.5217285,-2.0,-0.25054932,-11.328125,0.609375,-22.546875
1695895569085,-0.40771484,-2.0,-0.18634033,-21.828125,12.9375,-22.265625
1695895569130,0.018310547,-1.3086548,-0.097717285,-53.28125,41.234375,-4.046875
1695895569161,0.4807129,0.022888184,-0.49908447,-64.625,13.21875,24.4375
1695895569206,-0.021240234,0.8825073,-0.065979004,-21.71875,2.875,24.28125
1695895569252,0.026611328,0.31878662,-0.28131104,34.484375,-11.28125,-7.828125
1695895569280,0.14233398,-0.0569458,0.13934326,45.171875,-0.578125,1.4375
1695895569324,-0.06958008,-0.2600708,0.1473999,35.25,-14.453125,21.25
1695895569369,-0.115234375,-0.3711548,0.10101318,13.515625,-1.65625,7.296875
1695895569400,-0.051513672,-0.16680908,0.0072631836,-11.21875,-6.78125,5.609375
1695895569446,-0.049316406,0.008483887,0.10247803,-15.75,-4.1875,12.078125
1695895569475,-0.15820312,0.23577881,0.25213623,-21.8125,-7.609375,7.609375
1695895569521,0.103027344,-0.25079346,-0.708313,24.09375,7.03125,1.96875
1695895569568,1.9987793,-2.0,1.3536987,2.34375,-48.546875,-72.015625
1695895569596,-0.8425293,-2.0,-0.75567627,-23.4375,-25.390625,17.390625
1695895569640,0.11230469,-1.0662231,0.06732178,-23.59375,35.234375,-30.71875
1695895569686,0.99853516,-2.0,-0.04449463,6.40625,-3.234375,19.421875
1695895569718,-0.021484375,-1.2407837,-0.0029907227,-15.171875,14.03125,7.515625
1695895569759,-0.28173828,-0.3369751,-0.10015869,-29.171875,21.5,-13.65625
1695895569789,0.27563477,-0.4258423,-0.10089111,-5.328125,7.671875,5.0625
1695895569836,0.122558594,-0.8843384,-0.03375244,-0.640625,-16.34375,-0.4375
1695895569881,-0.08544922,-0.90802,-0.04034424,-9.46875,-1.640625,-9.421875
1695895569910,0.07324219,-0.71661377,-0.06378174,-12.65625,9.296875,-0.78125
1695895569956,0.13549805,-0.7151489,-0.021057129,-1.984375,7.484375,-2.125
1695895570001,0.1459961,-0.82525635,0.023376465,2.84375,5.453125,-2.640625
1695895570029,0.05493164,-0.9414673,-0.0056762695,-4.46875,-7.0625,-5.71875
1695895570075,0.05078125,-1.0278931,0.1149292,-2.125,7.765625,-8.578125
1695895570121,-0.04736328,-1.0713501,0.16156006,-9.671875,7.078125,-8.421875
1695895570149,0.13061523,-1.2249146,0.1984253,-10.234375,-9.984375,-0.0625
1695895570196,0.2915039,-1.3828735,-0.11407471,-5.828125,-23.28125,18.875
1695895570259,0.25976562,-1.5357056,-0.32598877,-7.78125,-52.046875,13.796875
1695895570269,0.77563477,-1.3657837,-0.0569458,15.578125,-8.875,8.328125
1695895570316,-0.10229492,-1.0564575,-0.13531494,-0.921875,-8.53125,-0.71875
1695895570346,0.25219727,-0.8743286,0.035339355,3.109375,-9.84375,-8.953125
1695895570389,0.2512207,-1.1248169,0.11590576,6.265625,-9.25,-10.078125
1695895570436,0.05810547,-0.6995239,0.018981934,-0.5625,0.03125,-2.265625
1695895570466,0.059326172,-0.37408447,0.13006592,5.65625,-3.65625,0.265625
1695895570509,0.10839844,-0.48614502,-0.011047363,7.71875,-8.015625,1.921875
1695895570586,0.09863281,-0.4727173,-0.005432129,3.390625,-8.734375,0.78125
1695895570590,0.045166016,-0.5401001,0.05267334,9.265625,-3.25,-1.15625
1695895570631,0.115478516,-0.7715454,0.1005249,8.0625,-3.25,-1.40625
1695895570660,0.18066406,-1.1516724,0.11810303,3.0,-9.125,-1.015625
1695895570705,0.3486328,-1.5603638,0.38201904,8.15625,-1.0,-3.71875
1695895570750,-0.056640625,-1.7332153,0.24212646,-0.265625,-1.796875,-8.828125
1695895570780,0.16601562,-1.4146118,-0.09503174,-4.28125,-8.34375,-12.890625
1695895570825,0.43408203,-1.5044556,-0.0029907227,9.515625,6.40625,-8.921875
1695895570869,-0.23461914,-1.3042603,-0.2546997,-17.828125,24.578125,-6.546875
1695895570899,0.13989258,-0.57476807,-0.34942627,-17.65625,37.984375,0.359375
1695895570949,0.2878418,-1.2461548,-0.049865723,9.796875,34.734375,-4.375
1695895570974,0.100097656,-1.0032349,-0.04034424,-16.625,11.765625,8.46875
1695895571019,0.0014648438,-0.55059814,0.07489014,-6.625,20.53125,11.671875
1695895571067,-0.0546875,-0.581604,-0.08135986,3.125,21.625,7.703125
1695895571097,0.33447266,-0.5684204,0.0067749023,7.109375,13.875,14.890625
1695895571139,0.16040039,-0.57818604,-0.02911377,17.15625,-2.4375,12.453125
1695895571184,-0.031982422,-0.7761841,-0.031311035,16.125,0.671875,8.765625
1695895571214,-0.005126953,-0.9348755,0.020202637,15.25,1.703125,-2.75
1695895571259,-0.10229492,-1.1868286,-0.0881958,-1.1875,5.4375,-5.65625
1695895571305,0.23632812,-1.05719,-0.2119751,-10.15625,-8.46875,1.5
1695895571335,0.43408203,-1.5916138,-0.25274658,2.109375,-31.8125,3.546875
1695895571380,0.68603516,-1.3362427,-0.2144165,-3.46875,-15.8125,6.796875
1695895571410,0.25756836,-1.0667114,-0.12823486,4.84375,-14.15625,4.125
1695895571458,0.041015625,-1.1150513,-0.07989502,3.78125,-11.5625,-6.765625
1695895571500,0.16723633,-1.069397,-0.027404785,-0.125,1.484375,-11.859375
1695895571529,0.17358398,-0.8257446,0.04119873,-4.5,-3.109375,-6.5625
1695895571579,0.072753906,-0.5120239,0.039978027,-1.09375,-7.921875,0.046875
1695895571620,0.1315918,-0.48858643,0.046569824,7.3125,-8.5,2.21875
1695895571650,0.1262207,-0.61920166,0.031433105,6.625,-14.515625,-0.96875
1695895571698,0.09008789,-0.7402954,0.029724121,5.78125,-14.4375,-2.453125
1695895571739,0.08886719,-0.95440674,0.08831787,15.09375,-9.828125,-3.171875
1695895571770,0.13793945,-1.1409302,-0.02178955,2.078125,-5.921875,-4.046875
1695895571818,0.24487305,-1.0999146,0.093444824,0.984375,0.71875,-8.6875
1695895571846,0.111816406,-1.4522095,-0.13189697,19.65625,2.953125,-17.390625
1695895571905,0.35473633,-1.4746704,-0.34259033,-9.609375,5.921875,-11.9375
1695895571937,0.30419922,-1.2996216,-0.3538208,-5.421875,6.578125,8.25
1695895571966,-0.20947266,-0.9351196,-0.14801025,-13.15625,14.796875,-7.3125
1695895572009,0.37768555,-0.9085083,-0.16241455,-0.1875,18.890625,1.265625
1695895572058,0.37939453,-1.2632446,-0.08673096,-2.25,-2.953125,9.359375
1695895572085,-0.08544922,-0.8921509,0.016052246,-10.21875,2.90625,8.5625
1695895572129,-0.109375,-0.5484009,0.047546387,-2.34375,18.25,3.96875
1695895572161,0.11376953,-0.56915283,0.049743652,3.078125,19.0625,4.96875
1695895572206,0.1394043,-0.5852661,-0.02935791,-4.484375,2.984375,5.65625
1695895572249,0.072509766,-0.6050415,0.038757324,3.171875,-0.90625,1.53125
1695895572281,0.014160156,-0.7686157,0.032409668,4.0,2.765625,-3.4375
1695895572339,-0.078125,-0.9307251,-0.004211426,2.484375,3.6875,-9.3125
1695895572370,0.12109375,-1.1582642,0.027282715,2.78125,3.078125,-6.296875
1695895572400,0.18188477,-1.6028442,-0.18707275,-1.734375,-11.125,6.890625
1695895572446,0.4572754,-1.5344849,-0.30499268,-18.875,-16.765625,5.515625
1695895572505,0.7199707,-1.0635376,0.010192871,-2.96875,-16.15625,21.0625
1695895572520,-0.09692383,-1.0718384,-0.20733643,-2.03125,-29.078125,2.0625
1695895572566,0.21289062,-0.9067993,-0.046936035,11.5,-12.125,-3.859375
1695895572595,0.21069336,-1.0549927,0.0028686523,3.234375,-12.09375,-4.71875
1695895572642,0.07006836,-0.81256104,0.0524292,-7.15625,-11.4375,-1.328125
1695895572686,0.1184082,-0.57818604,0.11273193,-6.21875,-14.125,2.75
1695895572715,0.13769531,-0.56622314,0.026306152,2.640625,-12.328125,3.796875
1695895572761,0.052490234,-0.6370239,0.05706787,4.859375,-7.8125,-2.359375
1695895572819,-0.010253906,-0.68707275,0.046325684,6.609375,-2.28125,-7.15625
1695895572835,0.09765625,-0.84503174,0.07952881,6.9375,2.4375,-8.34375
1695895572881,0.18969727,-1.0481567,0.022155762,5.28125,0.453125,-6.671875
1695895572926,0.20776367,-1.130188,0.24285889,7.578125,5.578125,-12.9375
1695895572955,-0.060058594,-1.6411743,-0.31011963,0.59375,0.28125,-23.328125
1695895573002,0.50634766,-1.4797974,-0.22784424,-8.34375,-6.25,-3.53125
1695895573029,0.15356445,-1.5144653,-0.19586182,8.359375,22.71875,1.984375
1695895573079,-0.23608398,-0.89141846,-0.15142822,-14.25,32.453125,-7.265625
1695895573120,0.4111328,-1.0083618,-0.08062744,-0.671875,26.234375,6.609375
1695895573149,0.2097168,-1.1455688,-0.053527832,-3.15625,19.859375,8.4375
1695895573196,-0.020507812,-0.7444458,0.035827637,-6.5625,17.59375,7.140625
1695895573241,-0.013183594,-0.6489868,0.010925293,-6.640625,19.4375,3.03125
1695895573269,0.092041016,-0.6187134,-0.0335083,-1.3125,20.421875,4.4375
1695895573316,0.10571289,-0.6140747,-0.02130127,3.609375,12.703125,4.171875
1695895573359,0.08129883,-0.6878052,0.066345215,4.921875,9.0625,2.875
1695895573389,-0.044921875,-0.79571533,0.010681152,4.890625,8.734375,-2.109375
1695895573436,-0.022216797,-0.99420166,-0.081848145,-4.25,2.796875,-2.09375
1695895573509,0.14111328,-1.1919556,0.081970215,-2.09375,-5.984375,-2.953125
1695895573511,0.28979492,-1.3948364,-0.18267822,-1.28125,-18.625,14.171875
1695895573557,0.38061523,-1.4185181,-0.13409424,-5.296875,-31.0625,11.15625
1695895573585,0.56518555,-1.1275024,-0.06329346,9.609375,-1.609375,14.765625
1695895573629,0.011474609,-1.0674438,-0.19244385,-8.5,-25.046875,0.375
1695895573690,0.27563477,-0.9937134,-0.004211426,1.46875,-20.609375,-3.671875
1695895573704,0.26464844,-1.2727661,0.07879639,1.25,-10.609375,-5.796875
1695895573749,0.06982422,-0.9326782,0.014343262,-3.46875,-6.328125,-4.90625
1695895573779,0.16235352,-0.65216064,0.089538574,1.3125,-7.8125,-2.953125
1695895573825,0.13256836,-0.6519165,0.082458496,5.46875,-9.71875,1.0625
1695895573869,0.047851562,-0.62384033,-0.022766113,-1.84375,-12.015625,-1.1875
1695895573900,0.107421875,-0.58258057,0.022399902,1.890625,-8.71875,-2.296875
1695895573948,0.1184082,-0.67510986,0.066101074,9.78125,-7.15625,-3.0
1695895573989,0.14526367,-0.81256104,0.13397217,10.875,-8.03125,-1.984375
1695895574019,0.1796875,-1.0508423,0.06951904,5.875,-11.625,-3.875
1695895574066,0.06542969,-1.1587524,0.11956787,15.578125,4.421875,-13.40625
1695895574141,0.1743164,-1.569397,-0.116760254,3.21875,-19.59375,-16.671875
1695895574143,0.49926758,-1.6921997,-0.1296997,17.640625,-6.796875,-1.703125
1695895574186,-0.23291016,-1.270813,-0.3250122,-4.71875,20.8125,-12.765625
1695895574215,0.12890625,-0.74224854,-0.24761963,-6.234375,26.046875,0.671875
1695895574260,0.3461914,-1.2671509,-0.09429932,1.90625,15.796875,-0.125
1695895574324,0.0769043,-1.1289673,-0.15875244,-16.59375,10.734375,2.484375
1695895574334,0.122558594,-0.85528564,-0.06011963,-11.71875,8.328125,5.984375
1695895574379,-0.06323242,-0.78253174,-0.0025024414,1.703125,21.578125,6.75
1695895574425,0.018310547,-0.755188,-0.013000488,0.171875,26.15625,8.09375
1695895574456,0.15771484,-0.5881958,-0.0037231445,-2.40625,17.265625,9.40625
1695895574501,0.03564453,-0.66192627,-0.049621582,6.3125,11.546875,7.25
1695895574546,-0.009033203,-0.78619385,-0.05328369,5.203125,11.453125,2.40625
1695895574576,-0.009521484,-0.8928833,0.0014038086,-1.515625,10.8125,-1.671875
1695895574619,0.09106445,-1.0430298,0.07635498,-6.046875,10.703125,-1.765625
1695895574651,0.27539062,-1.1707153,-0.14971924,-9.828125,-13.765625,12.9375
1695895574696,0.38208008,-1.5042114,-0.2654419,-2.25,-16.3125,12.71875
1695895574739,0.5476074,-1.2173462,-0.15875244,-3.203125,-2.140625,15.703125
1695895574770,0.19750977,-1.0305786,-0.08087158,-5.046875,-0.453125,9.875
1695895574816,0.00390625,-1.0029907,-0.14190674,-5.25,-4.5,-2.328125
1695895574859,0.39697266,-1.1792603,-0.0022583008,-0.09375,0.796875,-4.421875
1695895574890,0.23388672,-0.9788208,-0.0178833,-7.078125,-2.71875,-1.5625
1695895574936,0.18310547,-0.6765747,0.039001465,-2.546875,-4.53125,2.21875
1695895574966,0.20214844,-0.59869385,0.047790527,4.375,-9.671875,-1.5625
1695895575009,0.09692383,-0.6013794,0.045837402,3.75,-13.015625,-4.578125
1695895575056,0.10839844,-0.53912354,0.03338623,4.53125,-14.578125,-4.828125
1695895575100,0.122802734,-0.6729126,0.055847168,7.328125,-15.203125,-6.21875
1695895575129,0.14648438,-0.79156494,0.15032959,13.296875,-13.796875,-6.609375
1695895575176,0.13134766,-0.9585571,0.12420654,6.359375,-17.890625,-6.953125
1695895575205,0.08251953,-1.1882935,0.13494873,4.390625,-7.328125,-11.734375
1695895575249,0.09643555,-1.3840942,-0.1675415,12.71875,-11.078125,-14.09375
1695895575295,0.54833984,-1.6104126,0.027282715,12.59375,-12.578125,-11.6875
1695895575325,0.064208984,-1.541565,-0.25665283,-10.1875,4.515625,4.234375
1695895575369,-0.0715332,-0.6553345,-0.25543213,-12.328125,23.21875,2.125
1695895575401,0.28930664,-1.0393677,-0.15582275,6.140625,15.921875,2.84375
1695895575446,0.19628906,-1.3259888,-0.0869751,-5.203125,9.703125,1.546875
1695895575489,0.16918945,-0.95318604,-0.043029785,-8.890625,15.484375,6.890625
1695895575520,0.060791016,-0.79522705,-0.023986816,-3.46875,16.765625,8.46875
1695895575565,0.017578125,-0.67315674,0.034362793,3.1875,20.671875,6.09375
1695895575609,0.063964844,-0.58135986,-0.012023926,-1.03125,15.28125,4.203125
1695895575640,0.115722656,-0.60406494,-0.025939941,-4.921875,3.03125,4.828125
1695895575687,0.08544922,-0.6914673,0.03363037,2.9375,-1.359375,0.015625
1695895575729,-0.037597656,-0.9121704,0.06463623,4.125,2.546875,-3.90625
1695895575759,0.0021972656,-1.130188,-0.06036377,-6.40625,-1.296875,-3.703125
1695895575806,0.17041016,-1.2261353,-0.11553955,-4.703125,-0.390625,0.125
1695895575836,0.43603516,-1.4644165,-0.19976807,-4.3125,-26.484375,5.953125
1695895575880,0.7080078,-1.2935181,-0.09503174,-3.046875,-18.0625,6.640625
1695895575925,0.19506836,-1.0335083,-0.16998291,-13.78125,-29.9375,8.6875
1695895575955,0.13745117,-0.81329346,-0.09185791,2.21875,-18.4375,-7.234375
1695895576002,0.24121094,-1.2293091,0.12249756,1.15625,-18.390625,-12.140625
1695895576045,0.11010742,-0.9841919,0.057556152,-10.65625,-10.1875,-6.296875
1695895576076,0.083984375,-0.64801025,0.051696777,-11.09375,-10.5,-4.21875
1695895576121,0.118652344,-0.6416626,0.13031006,3.25,-8.109375,-5.0625
1695895576150,0.09814453,-0.7095337,0.044128418,-0.703125,-8.640625,-3.640625
1695895576196,0.12670898,-0.6380005,0.11151123,-4.6875,-12.453125,-5.5
1695895576240,0.083740234,-0.76153564,0.1696167,-2.5,-13.40625,-5.8125
1695895576269,0.064453125,-0.8862915,0.22772217,-9.546875,-4.640625,-5.09375
1695895576315,0.037353516,-1.0188599,0.19989014,-6.3125,-2.203125,-8.03125
1695895576362,0.10668945,-1.0947876,0.12420654,5.78125,1.953125,-11.921875
1695895576390,0.31323242,-1.3938599,-0.026672363,-7.453125,-34.8125,-11.859375
1695895576436,0.27026367,-1.8167114,0.034362793,29.34375,9.3125,-0.703125
1695895576481,-0.30639648,-1.1592407,-0.20562744,-2.4375,23.21875,-16.46875
1695895576510,0.32666016,-0.74298096,-0.049621582,-11.0625,15.4375,2.53125
1695895576555,0.32666016,-1.3067017,-0.02960205,11.53125,8.640625,4.828125
1695895576586,-0.06665039,-1.0667114,0.038513184,0.359375,20.609375,4.671875
1695895576629,0.111083984,-0.79473877,0.13421631,1.546875,22.78125,3.859375
1695895576674,-0.032958984,-0.7649536,0.05316162,0.578125,20.40625,6.734375
1695895576704,-0.010986328,-0.6814575,0.018981934,1.15625,23.625,3.828125
1695895576750,0.0871582,-0.6350708,0.055358887,5.875,23.796875,4.84375
1695895576795,0.053710938,-0.6826782,0.047302246,5.765625,12.8125,5.71875
1695895576841,0.046142578,-0.7937622,0.0848999,5.5,12.625,0.828125
1695895576871,-0.010498047,-1.0117798,0.043151855,3.921875,9.953125,0.265625
1695895576915,0.057128906,-1.1575317,0.020935059,-0.375,9.875,1.875
1695895576946,0.14990234,-1.1797485,-0.070373535,-11.765625,-7.25,2.546875
1695895576989,0.2861328,-1.4666138,-0.10308838,0.59375,-13.640625,13.359375
1695895577020,0.548584,-1.2092896,-0.112854004,10.875,-8.328125,7.15625
1695895577067,0.2524414,-1.0737915,-0.028869629,7.859375,2.828125,11.59375
1695895577109,0.16186523,-0.8357544,-0.15460205,-10.515625,-23.609375,-2.796875
1695895577140,0.3527832,-1.1748657,0.14007568,1.0,-16.953125,-3.90625
1695895577185,0.080566406,-1.036438,0.042419434,-2.265625,-8.296875,-5.203125
1695895577232,0.1459961,-0.7053833,0.09124756,5.484375,-10.765625,-3.328125
1695895577261,0.1928711,-0.7695923,0.10614014,9.5625,-18.140625,-0.296875
1695895577304,0.072265625,-0.7588501,-0.004211426,1.359375,-15.6875,1.296875
1695895577335,0.103759766,-0.6013794,0.0072631836,2.8125,-15.75,-1.171875
1695895577396,0.0925293,-0.72857666,0.08856201,12.4375,-15.859375,-1.53125
1695895577424,0.09106445,-0.85284424,0.11444092,8.921875,-4.6875,0.046875
1695895577455,0.1616211,-0.87677,0.13421631,2.875,-5.75,-1.84375
1695895577500,0.13671875,-0.9390259,0.31243896,7.65625,-0.671875,-9.390625
1695895577543,0.09692383,-1.2964478,-0.29986572,5.34375,-27.4375,-5.546875
1695895577575,0.37817383,-1.6397095,0.0524292,23.125,-15.109375,-19.71875
1695895577619,-0.16015625,-1.6414185,-0.25372314,10.609375,11.703125,-6.078125
1695895577664,0.11621094,-0.928772,-0.30377197,-1.390625,12.546875,-6.796875
1695895577697,0.29467773,-1.5213013,-0.33062744,14.65625,18.203125,-3.53125
1695895577739,0.027832031,-1.492981,-0.2210083,-7.5,20.546875,-8.40625
1695895577770,0.20458984,-1.5220337,-0.2642212,-16.515625,9.59375,-2.796875
1695895577816,0.29052734,-1.0706177,-0.08673096,-5.859375,25.96875,14.75
1695895577859,0.1015625,-0.43218994,-0.13897705,-16.453125,0.90625,29.3125
1695895577890,-0.26000977,0.066345215,-0.024719238,-16.484375,9.59375,5.296875
1695895577937,0.057373047,0.097839355,-0.07525635,-3.109375,2.875,2.375
1695895577979,0.057373047,-0.0032348633,0.03265381,7.1875,0.4375,4.890625
1695895578009,-0.05053711,0.008728027,0.038513184,10.015625,-6.5625,5.296875
1695895578055,-0.064208984,0.08319092,-0.06915283,10.609375,-7.09375,8.390625
1695895578098,-0.02319336,0.07879639,-0.0725708,7.59375,-13.078125,8.109375
1695895578129,0.18847656,-0.75006104,-0.8340454,50.890625,-38.96875,-0.28125
1695895578176,0.5102539,-2.0,-0.11529541,55.21875,-67.828125,-42.8125
1695895578205,-0.2890625,-2.0,-0.3328247,-31.46875,17.921875,1.03125
1695895578249,1.2128906,-2.0,-0.25567627,11.953125,23.734375,-6.640625
1695895578296,0.4597168,-2.0,-0.3772583,-7.5625,29.46875,10.40625
1695895578325,0.028564453,-0.8574829,-0.36480713,-55.34375,38.0,19.21875
1695895578369,-0.17871094,0.60198975,-0.3821411,-52.328125,3.21875,5.96875
1695895578415,0.07446289,0.7543335,-0.25152588,10.109375,-1.65625,2.625
1695895578445,-0.024414062,-0.1963501,-0.028625488,42.59375,-7.875,-17.375
1695895578488,0.13623047,-0.20440674,0.013122559,17.328125,-4.546875,0.625
1695895578520,-0.044433594,0.12640381,-0.04058838,13.203125,-15.0625,13.328125
1695895578566,-0.0063476562,-0.03692627,0.023376465,18.890625,-11.625,3.125
1695895578609,-0.034423828,-0.2468872,0.13104248,13.34375,-14.9375,2.734375
1695895578640,-0.055908203,-0.09161377,0.027526855,-1.421875,-15.34375,7.03125
1695895578687,0.0087890625,-0.015930176,0.25042725,-4.6875,-14.765625,6.859375
1695895578729,0.17480469,0.059509277,-0.27252197,26.890625,-0.515625,-2.453125
1695895578760,0.47070312,-1.5720825,0.39886475,116.953125,11.0,-29.25
1695895578805,0.33544922,-2.0,-0.70440674,-49.296875,-51.515625,11.765625
1695895578849,0.47851562,-2.0,-0.05987549,-11.953125,-2.078125,-29.546875
1695895578879,1.1508789,-1.9954224,-0.53912354,20.25,-60.640625,-4.21875
1695895578925,0.04248047,-2.0,-0.2420044,-24.6875,-30.171875,-20.15625
1695895578955,0.17675781,-0.6008911,-0.25201416,-27.21875,-11.453125,-11.75
1695895578999,-0.014160156,-0.2630005,-0.06304932,-23.8125,-34.21875,-6.546875
1695895579046,-0.2849121,-0.43927002,-0.06060791,-13.140625,-22.59375,-16.53125
1695895579074,-0.025390625,-0.3447876,-0.06842041,-8.703125,-12.78125,-17.453125
1695895579119,0.12573242,-0.33233643,-0.06109619,4.5625,-11.71875,-6.75
1695895579164,0.01928711,-0.6536255,-0.10650635,13.5625,-21.15625,-12.015625
1695895579195,0.15844727,-0.88604736,0.032409668,12.78125,-29.015625,-15.90625
1695895579241,0.14379883,-1.1465454,0.04852295,6.65625,-34.65625,-4.375
1695895579286,-0.051757812,-1.1140747,0.0053100586,-2.578125,-21.125,-5.140625
1695895579315,0.16674805,-0.94610596,-0.00982666,-7.296875,-17.90625,0.09375
1695895579359,0.16210938,-1.0291138,-0.06866455,-5.34375,-29.9375,4.546875
1695895579407,0.2668457,-0.94366455,-0.20123291,-4.296875,-55.375,9.546875
1695895579435,0.28271484,-1.1062622,-0.22393799,-9.25,-47.609375,4.71875
1695895579480,0.28076172,-1.0598755,-0.17218018,4.453125,-50.890625,1.25
1695895579510,0.010986328,-1.4277954,-0.14385986,-2.734375,-46.265625,-18.203125
1695895579557,0.19995117,-1.156311,-0.14093018,-4.515625,-37.6875,-1.375
1695895579601,0.21459961,-0.8357544,-0.054748535,2.84375,-40.515625,-8.046875
1695895579630,0.15649414,-0.7036743,0.06951904,4.453125,-39.390625,-2.578125
1695895579675,0.111572266,-0.6868286,0.078552246,7.6875,-40.890625,-2.734375
1695895579720,0.07763672,-0.6934204,0.1359253,7.59375,-32.671875,-6.546875
1695895579749,0.060058594,-0.74713135,0.09613037,6.03125,-27.140625,-8.203125
1695895579796,0.16577148,-0.76397705,0.07659912,-0.5,-25.875,-11.84375
1695895579824,0.33935547,-0.78863525,0.070251465,7.296875,-37.9375,-18.953125
1695895579870,-0.0017089844,-1.0681763,0.15179443,17.609375,-40.375,-27.75
1695895579914,-0.38330078,-1.5401001,-0.27838135,9.8125,-41.671875,-40.75
1695895579945,0.5246582,-1.3279419,-0.30499268,-11.265625,-52.734375,-25.078125
1695895579990,0.61450195,-0.9951782,-0.25567627,-12.640625,-60.984375,12.140625
1695895580035,-0.031982422,-1.022522,0.026794434,9.65625,-61.203125,-8.5625
1695895580065,0.15698242,-1.100647,-0.17364502,-5.8125,-52.75,-12.21875
1695895580111,0.29833984,-1.3318481,-0.113586426,-11.703125,-68.125,0.59375
1695895580140,0.0793457,-0.83795166,-0.09552002,-7.84375,-76.484375,2.3125
1695895580185,0.10961914,-0.8340454,-0.047668457,9.828125,-74.140625,1.84375
1695895580230,0.14770508,-1.0120239,-0.05987549,7.84375,-76.59375,1.828125
1695895580259,0.0075683594,-0.848938,-0.046936035,12.21875,-70.625,3.140625
1695895580305,-0.0859375,-0.83184814,0.009216309,11.984375,-69.15625,-0.984375
1695895580351,-0.03564453,-0.8870239,-0.070373535,2.96875,-61.140625,4.921875
1695895580382,0.05493164,-0.79522705,-0.09088135,-1.0625,-61.65625,11.28125
1695895580425,0.16503906,-0.6560669,0.055358887,-8.265625,-63.03125,22.625
1695895580502,0.08911133,-0.92388916,-0.14190674,13.09375,-60.25,19.78125
1695895580506,0.4050293,-1.5803833,0.13787842,13.703125,-48.921875,13.890625
1695895580546,0.28930664,-1.3938599,-0.09991455,10.640625,-36.25,6.125
1695895580576,0.11987305,-1.1594849,0.03656006,16.890625,-19.6875,-1.34375
1695895580620,0.32885742,-0.9644165,0.058532715,12.5,-25.734375,6.578125
1695895580664,0.2277832,-0.7510376,-0.007385254,12.625,-24.890625,4.75
1695895580694,0.087402344,-0.4944458,-0.035705566,11.90625,-12.78125,3.796875
1695895580746,0.029541016,-0.2798462,-0.04547119,18.28125,-4.828125,4.21875
1695895580783,0.04638672,-0.17120361,-0.20367432,18.09375,-11.625,-1.203125
1695895580814,0.15991211,-0.17510986,-0.20611572,13.375,-20.15625,-5.203125
1695895580859,0.26733398,-0.79815674,-0.38702393,42.34375,-10.171875,-11.53125
1695895580906,0.3544922,-2.0,-0.2822876,27.5,-31.34375,-36.671875
1695895580936,0.17260742,-2.0,-0.11090088,-22.703125,4.921875,-15.4375
1695895580979,0.68896484,-2.0,-0.32940674,-36.375,-1.109375,-16.46875
1695895581010,0.36914062,-2.0,-0.09576416,5.59375,28.53125,12.421875
1695895581055,-0.12011719,-0.8936157,-0.1182251,-24.875,35.0,14.546875
1695895581099,0.19238281,0.25482178,-0.3250122,-37.46875,6.484375,18.484375
1695895581129,-0.39672852,0.34710693,-0.06011963,-5.609375,-7.75,10.8125
1695895581174,0.16796875,0.016784668,-0.12506104,-0.296875,4.46875,-8.6875
1695895581219,-0.16088867,-0.014953613,-0.15704346,6.90625,-15.5,-4.71875
1695895581249,-0.013183594,0.14056396,-0.09552002,11.3125,-8.78125,5.34375
1695895581296,0.03564453,0.022155762,-0.020568848,17.703125,-5.34375,1.390625
1695895581325,-0.060546875,0.020935059,0.049743652,16.453125,-6.203125,1.21875
1695895581369,-0.030029297,-0.15631104,0.10247803,19.234375,3.09375,-2.78125
1695895581415,0.2409668,-1.6765747,-1.6480103,84.296875,-41.9375,-15.6875
1695895581444,0.6369629,-2.0,-0.8921509,71.0625,-12.890625,-3.4375
1695895581491,-0.16772461,-2.0,-0.28985596,-53.53125,-9.921875,-8.265625
1695895581535,0.27197266,-1.6765747,-0.09161377,9.390625,22.78125,20.5
1695895581565,-0.075927734,-1.5808716,-0.34454346,-20.265625,19.703125,-5.53125
1695895581609,0.3786621,-0.9961548,-0.128479,-17.78125,31.1875,29.890625
1695895581655,-0.28833008,-0.4961548,-0.11016846,-9.109375,28.46875,-2.109375
1695895581685,0.20239258,-0.58843994,-0.19195557,-9.359375,33.40625,13.0625
1695895581728,0.24121094,-0.5471802,-0.113098145,-3.609375,17.21875,4.015625
1695895581759,0.04321289,-0.6626587,-0.14630127,-5.59375,3.28125,7.796875
1695895581806,0.12524414,-0.7192993,-0.16973877,2.75,-2.71875,7.609375
1695895581848,0.076416016,-0.9072876,-0.10040283,8.09375,-1.03125,2.109375
1695895581880,0.06689453,-0.99542236,-0.12823486,6.25,-0.234375,0.859375
1695895581925,0.15112305,-1.022522,-0.089904785,4.3125,8.703125,0.6875
1695895581970,0.12548828,-1.0789185,-0.09991455,-2.28125,5.109375,6.265625
1695895581999,0.1928711,-1.0737915,-0.13238525,-10.921875,-6.671875,7.4375
1695895582046,0.3239746,-1.062561,-0.2078247,-9.703125,-21.46875,13.03125
1695895582088,0.41748047,-1.1348267,-0.29205322,1.328125,-46.90625,16.34375
1695895582119,-0.010498047,-1.3584595,-0.69000244,-4.921875,-26.3125,1.828125
1695895582166,1.0397949,-1.0501099,-0.13458252,5.25,-21.0625,-7.765625
1695895582195,-0.010253906,-1.4246216,-0.20904541,-1.21875,-21.390625,2.453125
1695895582239,0.06201172,-0.9890747,-0.14801025,-11.71875,-1.203125,-17.5625
1695895582285,0.41918945,-0.91729736,-0.08013916,1.46875,-8.84375,-9.0
1695895582314,0.15649414,-0.77178955,-0.050598145,-3.9375,-12.625,-2.5
1695895582360,0.11279297,-0.4487915,0.074157715,2.859375,-4.234375,-0.25
1695895582406,0.0859375,-0.45147705,0.082214355,12.125,-4.15625,-2.125
1695895582434,0.079589844,-0.5757446,-0.023010254,1.671875,-10.640625,-5.75
1695895582478,0.031982422,-0.645813,-0.004699707,4.8125,3.09375,-10.59375
1695895582510,0.03149414,-0.81622314,-0.05230713,5.375,6.609375,-10.75
1695895582556,0.2890625,-0.8821411,0.07220459,0.46875,1.8125,-9.421875
1695895582598,0.22631836,-1.104065,-0.14849854,13.265625,4.953125,-19.125
1695895582630,0.17163086,-1.770813,-0.3743286,-0.65625,-25.109375,-26.34375
1695895582675,0.64990234,-2.0,-0.2510376,-3.25,24.546875,-4.328125
1695895582719,-0.42944336,-0.7349243,-0.48590088,-35.078125,2.65625,-6.953125
1695895582750,0.5427246,-0.61260986,-0.109680176,-5.671875,21.140625,-3.453125
1695895582795,0.21777344,-1.517395,-0.26763916,-11.578125,2.828125,-1.015625
1695895582838,0.09790039,-0.83673096,-0.11871338,-23.34375,17.546875,4.390625
1695895582870,0.095947266,-0.6646118,-0.030578613,-12.34375,8.71875,-2.640625
1695895582916,-0.02758789,-0.7539673,-0.0178833,-6.21875,12.9375,3.15625
1695895582945,0.055664062,-0.6604614,-0.059387207,-5.171875,14.96875,1.765625
1695895582990,0.14013672,-0.7034302,-0.02130127,-2.28125,10.609375,4.0
1695895583035,0.14941406,-0.737854,-0.0025024414,-0.015625,2.03125,4.609375
1695895583065,0.026855469,-0.8682251,0.05657959,5.03125,1.328125,3.46875
1695895583110,-0.07910156,-0.98272705,-0.04473877,-7.28125,-1.34375,2.40625
1695895583155,0.048095703,-1.0852661,0.05731201,-17.75,-1.3125,-1.046875
1695895583185,0.21557617,-1.161438,-0.09283447,-13.9375,-14.453125,14.765625
1695895583230,0.36010742,-1.381897,-0.05987549,-12.3125,-31.03125,13.765625
1695895583288,0.64404297,-1.4331665,-0.0020141602,-1.1875,-8.59375,12.578125
1695895583304,0.21142578,-1.1931763,0.054870605,-8.125,1.546875,0.734375
1695895583350,0.22729492,-0.97784424,-0.06793213,-0.78125,-16.890625,-0.171875
1695895583378,0.28222656,-1.138977,0.18817139,6.859375,-9.5,-2.0
1695895583425,0.047607422,-0.89508057,0.050964355,-3.390625,-9.59375,-4.0625
1695895583469,0.07421875,-0.61676025,0.06561279,1.15625,-8.625,-4.90625
1695895583499,0.14038086,-0.61383057,0.093444824,7.703125,-9.53125,-2.46875
1695895583545,0.060546875,-0.5869751,0.066589355,5.078125,-9.859375,-1.015625
1695895583590,0.048828125,-0.54644775,0.11932373,6.3125,-5.84375,-4.90625
1695895583619,0.06274414,-0.74176025,0.054870605,-0.71875,-6.8125,-5.765625
1695895583665,0.17163086,-0.82891846,0.116882324,0.765625,-4.859375,-4.046875
1695895583695,0.12402344,-1.0217896,0.14569092,9.296875,-9.90625,-5.953125
1695895583739,0.20678711,-1.1463013,0.28240967,14.75,-3.75,-8.21875
1695895583784,0.01953125,-1.5735474,-0.22515869,10.625,-6.734375,-11.96875
1695895583814,0.34204102,-1.5769653,-0.038635254,14.921875,0.53125,-5.859375
1695895583858,-0.057861328,-1.3616333,-0.19903564,6.203125,33.296875,-8.765625
1695895583906,0.12475586,-0.7805786,-0.159729,-6.1875,19.265625,2.0625
1695895583934,0.2709961,-1.161438,-0.15533447,8.34375,13.6875,2.875
1695895583978,0.083740234,-1.0427856,-0.037902832,1.96875,17.875,2.828125
1695895584025,0.10058594,-0.8892212,-0.027648926,2.75,14.515625,5.625
1695895584055,0.04272461,-0.81695557,0.031188965,5.859375,17.859375,6.734375
1695895584099,0.024902344,-0.7276001,-0.043762207,-2.25,16.34375,6.0
1695895584129,0.055908203,-0.6350708,0.0033569336,5.734375,13.390625,5.828125
1695895584174,0.09350586,-0.73272705,-0.053527832,5.203125,8.484375,6.4375
1695895584218,0.099121094,-0.7527466,-0.026672363,5.6875,2.84375,4.875
1695895584248,-0.011474609,-0.89141846,-0.03302002,6.296875,-3.0,1.515625
1695895584294,0.024414062,-1.0669556,-0.06304932,0.46875,7.90625,-0.96875
1695895584340,0.13989258,-1.1126099,0.0446167,-4.125,-0.359375,5.4375
1695895584368,0.15478516,-1.3626099,-0.27398682,-0.671875,-20.6875,12.59375
1695895584414,0.59277344,-1.4507446,-0.22491455,-1.25,-14.90625,2.015625
1695895584488,0.48364258,-1.138977,-0.21539307,-6.109375,-3.1875,10.078125
1695895584490,-0.010009766,-1.0300903,-0.21832275,-6.03125,-9.6875,1.234375
1695895584535,0.25708008,-0.99468994,-0.12310791,-1.875,-8.671875,-5.09375
1695895584565,0.33447266,-1.1028442,0.035339355,1.765625,-7.78125,-3.03125
1695895584609,-0.00390625,-0.87164307,-0.039367676,-8.34375,-6.921875,-0.84375
1695895584659,0.18041992,-0.5757446,0.0119018555,-2.28125,-4.765625,-0.640625
1695895584685,0.15722656,-0.612854,0.022888184,5.140625,-10.078125,0.609375
1695895584728,0.032470703,-0.565979,-0.0044555664,3.78125,-8.734375,-0.234375
1695895584775,0.09057617,-0.5610962,0.0211792,7.453125,-6.953125,-4.65625
1695895584805,0.11743164,-0.7608032,0.06854248,9.984375,-10.1875,-5.0625
1695895584848,0.21362305,-0.9241333,0.07757568,12.6875,-9.046875,-2.65625
1695895584880,0.24169922,-1.1240845,0.18157959,14.703125,-12.15625,-9.703125
1695895584926,0.052001953,-1.7009888,-0.25909424,18.765625,-8.1875,-13.71875
1695895584968,0.37524414,-1.50177,-0.2979126,9.59375,-7.53125,-10.28125
1695895584999,0.27124023,-1.3074341,-0.32086182,6.59375,4.390625,1.21875
1695895585046,-0.042236328,-0.8862915,-0.38409424,-5.84375,13.546875,-1.953125
1695895585089,0.21313477,-1.1050415,-0.20343018,-1.734375,16.078125,-1.59375
1695895585119,0.21777344,-1.0877075,-0.070129395,-7.796875,18.03125,-2.6875
1695895585166,-0.068359375,-0.8027954,-0.066223145,-18.0625,15.203125,-0.125
1695895585210,0.016357422,-0.7554321,-0.074279785,-8.453125,20.765625,1.546875
1695895585239,0.17944336,-0.74835205,-0.08111572,-8.40625,12.015625,6.953125
1695895585286,0.0690918,-0.73516846,-0.07696533,-7.859375,7.265625,8.078125
1695895585315,0.071777344,-0.72613525,-0.0134887695,-6.984375,6.109375,5.03125
1695895585360,0.05810547,-0.69415283,0.030212402,-1.046875,5.25,2.359375
1695895585406,-0.02319336,-0.8779907,-0.02130127,-2.1875,1.359375,0.125
1695895585435,0.049072266,-1.1387329,0.06951904,-8.828125,-0.78125,-5.5625
1695895585478,0.041748047,-1.2903442,0.04852295,-14.953125,-12.015625,0.515625
1695895585525,0.20288086,-1.3977661,-0.18536377,-11.765625,-10.5,9.953125
1695895585554,0.7060547,-1.3079224,-0.1194458,-3.609375,-7.015625,6.3125
1695895585600,0.47094727,-1.177063,-7.9345703E-4,6.4375,-6.28125,12.109375
1695895585646,0.005126953,-0.99468994,-0.15240479,-5.828125,-10.609375,2.1875
1695895585676,0.19824219,-0.92974854,-0.09942627,15.15625,-5.09375,-11.171875
1695895585720,0.23339844,-1.0300903,-0.024475098,0.40625,-10.0625,-6.546875
1695895585751,0.06982422,-0.6638794,-0.023986816,-4.203125,-10.53125,-2.84375
1695895585795,0.06713867,-0.6177368,0.1005249,6.015625,-11.09375,-3.8125
1695895585856,0.13183594,-0.67852783,-0.002746582,0.765625,-12.75,-3.828125
1695895585869,0.11010742,-0.631897,0.024841309,2.53125,-7.640625,-4.203125
1695895585915,0.10253906,-0.74468994,0.04876709,5.71875,-6.703125,-3.65625
1695895585958,0.11279297,-0.91973877,0.09857178,3.328125,-4.375,-3.171875
1695895585990,0.061767578,-0.9561157,0.117126465,2.078125,-3.25,-2.328125
1695895586035,0.16625977,-1.0496216,0.04534912,-2.328125,-11.46875,-0.328125
1695895586066,0.26123047,-1.0552368,0.24334717,8.671875,-3.515625,-1.75
1695895586110,-0.027832031,-1.43927,-0.19268799,3.25,-18.46875,-8.4375
1695895586155,0.28149414,-1.467102,-0.05718994,4.09375,-3.8125,-14.71875
1695895586185,-0.107421875,-1.5584106,-0.078186035,-2.171875,12.984375,-13.328125
1695895586230,0.1484375,-0.8999634,-0.190979,-20.3125,12.40625,-0.453125
1695895586275,0.42016602,-1.0523071,-0.17803955,0.484375,12.296875,3.375
1695895586306,0.10180664,-1.1497192,-0.031799316,5.03125,9.921875,1.0
1695895586351,0.06762695,-0.9771118,0.020935059,-1.734375,16.984375,2.921875
1695895586394,-0.03125,-0.81744385,0.02532959,1.390625,16.875,6.890625
1695895586425,-0.01977539,-0.6465454,0.026794434,0.140625,19.3125,8.765625
1695895586471,0.052001953,-0.5901489,-0.0068969727,5.5,17.09375,7.515625
1695895586499,0.048095703,-0.65460205,0.031433105,11.453125,14.3125,7.6875
1695895586545,0.09741211,-0.7307739,0.08099365,11.71875,13.375,4.296875
1695895586589,0.04711914,-0.8609009,-0.023498535,9.703125,7.75,3.375
1695895586618,7.324219E-4,-1.0366821,0.010925293,10.609375,8.109375,4.046875
1695895586665,0.084472656,-1.1690063,-0.027160645,-0.203125,10.171875,4.953125
1695895586710,0.20874023,-1.3670044,-0.38580322,0.359375,-3.359375,9.5
1695895586740,0.7363281,-1.3796997,-0.26812744,-1.1875,-13.484375,2.859375
1695895586785,0.51293945,-1.2197876,-0.20758057,-2.765625,-4.828125,17.734375
1695895586858,-0.1821289,-0.94195557,-0.24615479,-8.859375,-9.71875,-1.734375
1695895586860,0.37841797,-0.95147705,-0.14727783,7.234375,-5.140625,-6.609375
1695895586904,0.2607422,-1.1721802,-0.1182251,-2.953125,-7.0625,-3.21875
1695895586934,0.14135742,-0.7515259,-0.09112549,-8.609375,-6.09375,2.078125
1695895586978,0.2121582,-0.6773071,-0.06011963,-0.046875,-10.90625,1.03125
1695895587024,0.17578125,-0.73272705,-0.015930176,2.484375,-13.203125,-2.0625
1695895587056,0.11450195,-0.67388916,0.029724121,2.140625,-7.21875,-2.6875
1695895587098,0.07055664,-0.6519165,-0.013244629,-0.546875,-12.03125,-4.21875
1695895587145,0.1394043,-0.80255127,0.057556152,-0.25,-8.65625,-5.59375
1695895587177,0.13745117,-0.9019165,0.06878662,-3.8125,-13.84375,-5.4375
1695895587218,0.07861328,-0.9663696,0.13397217,1.671875,-10.625,-7.953125
1695895587269,0.028808594,-1.0969849,0.034118652,4.03125,-2.09375,-11.625
1695895587295,0.23803711,-1.3320923,-0.3171997,11.359375,-9.21875,-7.4375
1695895587339,0.3100586,-1.8035278,-0.07476807,14.8125,-4.0625,-10.46875
1695895587369,-0.07543945,-1.1714478,-0.2078247,-13.859375,23.65625,-6.21875
1695895587415,0.22167969,-0.68756104,-0.31573486,-1.484375,29.703125,-0.1875
1695895587459,0.27929688,-1.3423462,-0.13140869,1.1875,18.734375,-1.1875
1695895587490,0.11816406,-0.9612427,-0.10406494,-11.96875,20.40625,5.203125
1695895587535,0.119384766,-0.7149048,-0.109436035,-1.78125,15.8125,6.90625
1695895587579,-0.008300781,-0.86846924,-0.0256958,0.03125,13.921875,3.6875
1695895587610,0.014404297,-0.73883057,-0.03717041,-3.5,21.546875,1.578125
1695895587656,0.072265625,-0.6609497,-0.020568848,-0.828125,19.5625,5.59375
1695895587686,0.10595703,-0.70513916,-0.032287598,4.609375,11.03125,6.953125
1695895587730,0.11743164,-0.8220825,-0.054504395,6.6875,4.671875,4.1875
1695895587776,0.14038086,-0.9949341,0.004333496,4.84375,-2.28125,2.1875
1695895587806,0.045166016,-1.1885376,-0.1260376,-1.453125,-4.1875,7.265625
1695895587849,0.21386719,-1.0942993,-0.06378174,-6.703125,-9.8125,11.578125
1695895587896,0.09667969,-1.3858032,-0.35308838,-1.90625,-3.515625,4.609375
1695895587926,0.6386719,-1.2302856,-0.14190674,-16.578125,2.6875,1.140625
1695895587969,0.5058594,-1.1697388,-0.22613525,-9.34375,-24.703125,14.84375
1695895588051,0.012207031,-0.8596802,-0.26837158,-11.234375,-20.171875,0.40625
1695895588055,0.31835938,-0.9458618,0.061706543,0.53125,-16.34375,-6.703125
1695895588090,0.12768555,-1.1174927,-0.0713501,-7.609375,-13.671875,-8.78125
1695895588120,0.11669922,-0.71099854,0.06097412,-12.296875,-3.390625,-6.703125
1695895588169,0.19067383,-0.7124634,9.1552734E-4,-1.984375,-13.109375,-2.859375
1695895588211,0.12939453,-0.7373657,0.09613037,1.84375,-13.125,-7.8125
1695895588241,0.13427734,-0.68536377,0.117126465,2.46875,-9.53125,-5.03125
1695895588289,0.10839844,-0.753479,0.13323975,0.3125,-13.703125,-4.578125
1695895588330,0.08520508,-0.8911743,0.14202881,-2.015625,-7.65625,-6.796875
1695895588361,0.08520508,-0.9336548,0.18792725,1.46875,-1.984375,-5.71875
1695895588409,0.064697266,-1.0715942,0.17572021,1.15625,-0.796875,-10.1875
1695895588451,0.08569336,-1.1292114,0.1071167,4.328125,3.25,-13.484375
1695895588481,0.2746582,-1.2739868,-0.12750244,-0.5625,-21.5,-9.71875
1695895588537,0.30444336,-1.5171509,0.05731201,18.9375,-8.03125,-5.59375
1695895588555,-0.3864746,-1.3760376,-0.23516846,-5.609375,27.0,-13.9375
1695895588600,0.2956543,-0.65216064,0.01727295,-12.890625,27.5,-3.921875
1695895588648,0.18066406,-1.1646118,-0.15484619,5.5,16.75,0.78125
1695895588674,0.024902344,-0.98223877,0.07513428,-1.421875,22.953125,3.375
1695895588719,0.21850586,-0.8428345,0.047546387,-1.4375,10.453125,6.5625
1695895588765,-0.06518555,-0.8635864,0.073913574,10.078125,18.5625,8.21875
1695895588797,-0.05810547,-0.73638916,0.012390137,4.609375,20.71875,6.03125
1695895588839,0.059326172,-0.6663208,-0.008850098,6.21875,20.40625,5.96875
1695895588871,0.072753906,-0.7485962,-0.0115356445,11.8125,14.078125,6.21875
1695895588916,0.103027344,-0.83795166,-0.0015258789,15.375,12.3125,5.359375
1695895588960,0.08544922,-0.8677368,0.11126709,15.046875,7.90625,3.3125
1695895588990,0.021728516,-1.0200806,0.020202637,4.453125,-7.765625,3.890625
1695895589036,0.12475586,-1.1929321,-0.051330566,-7.171875,-5.296875,5.1875
1695895589080,0.044921875,-1.4085083,-0.3081665,-1.421875,-13.78125,8.890625
1695895589109,0.56347656,-1.4817505,-0.0051879883,-2.8125,-24.21875,13.171875
1695895589155,0.40576172,-1.2263794,-0.38433838,2.71875,20.203125,20.328125
1695895589199,0.18896484,-0.71173096,-0.42388916,5.875,-0.65625,6.140625
1695895589231,0.4321289,-0.9336548,-0.128479,17.453125,-4.796875,2.71875
1695895589276,0.13452148,-1.100647,-0.20343018,-0.65625,-6.6875,-1.03125
1695895589307,0.18920898,-0.75860596,-0.050842285,-2.453125,3.734375,-3.984375
1695895589350,0.19824219,-0.82598877,-0.016662598,2.75,0.34375,-1.46875
1695895589395,0.087646484,-0.69537354,-0.22613525,-4.1875,-2.9375,0.96875
1695895589427,0.2277832,-0.55352783,-0.15118408,4.4375,-1.359375,-0.15625
1695895589471,0.11401367,-0.5376587,-0.10015869,10.359375,-3.6875,0.6875
1695895589516,0.08666992,-0.42755127,0.029968262,13.203125,8.328125,0.140625
1695895589546,-0.11669922,-0.3320923,-0.08258057,11.6875,15.71875,1.015625
1695895589590,-0.022216797,-0.097473145,-0.2444458,-0.265625,22.78125,4.71875
1695895589634,0.29882812,-0.17608643,-0.3916626,20.03125,-8.859375,4.375
1695895589668,0.21313477,-0.91192627,-0.11920166,27.28125,-37.890625,-10.4375
1695895589717,0.06518555,-2.0,-0.101623535,0.25,-13.203125,-55.796875
1695895589755,0.6647949,-2.0,-0.47174072,-32.890625,9.15625,-9.390625
1695895589786,0.560791,-2.0,-0.5249634,-19.109375,-1.796875,-6.828125
1695895589832,0.17749023,-2.0,-0.0071411133,-20.8125,18.328125,-6.234375
1695895589862,0.18041992,-0.8442993,-0.32403564,-77.546875,21.8125,9.15625
1695895589906,-0.2084961,0.5453491,-0.46221924,-72.34375,3.109375,15.578125
1695895589952,-0.009521484,0.6403198,-0.1897583,-2.34375,-0.828125,-3.375
1695895589980,-0.045898438,-0.08477783,-0.14215088,22.015625,-11.1875,-16.3125
1695895590027,0.15258789,-0.07183838,-0.046691895,19.453125,-6.515625,-1.375
1695895590056,-0.07885742,0.010437012,-0.031555176,11.65625,-9.25,-2.15625
1695895590101,0.010253906,0.0026245117,-0.030822754,11.203125,-0.078125,-2.71875
1695895590146,0.06567383,-0.12286377,0.0368042,8.8125,-1.1875,-3.453125
1695895590192,-0.055908203,-0.043762207,0.02532959,7.484375,-8.5625,-0.015625
1695895590219,-0.09033203,0.029724121,0.082214355,-5.28125,-19.890625,11.515625
1695895590267,0.17651367,0.020690918,0.35076904,23.484375,-3.203125,2.5625
1695895590294,0.68847656,-2.0,-0.32183838,107.234375,68.6875,-66.75
1695895590340,0.07373047,-2.0,0.5050659,-19.09375,-2.890625,20.546875
1695895590387,-0.5095215,-1.9290161,-0.29718018,-11.1875,14.515625,-20.40625
1695895590416,0.39672852,-2.0,-0.08355713,-7.90625,12.515625,-15.84375
1695895590461,0.5407715,-1.645813,-0.042053223,-23.109375,2.078125,17.140625
1695895590489,-0.5332031,-1.079895,0.12786865,-21.640625,4.671875,-7.96875
1695895590535,0.08935547,-0.6453247,-0.02178955,-27.140625,4.0,8.0
1695895590581,0.03564453,-0.46783447,-0.024963379,-13.203125,8.34375,11.5625
1695895590610,-0.011230469,-0.47711182,-0.011291504,-2.28125,10.265625,-1.5
1695895590657,0.03125,-0.3735962,0.07147217,1.109375,8.453125,8.703125
1695895590700,-0.023925781,-0.4805298,0.074157715,3.90625,-6.921875,4.21875
1695895590730,-0.052490234,-0.69244385,0.031433105,1.71875,-3.390625,0.59375
1695895590777,0.07763672,-0.93292236,-0.027893066,-13.5625,-22.171875,3.84375
1695895590821,0.39624023,-1.1775513,-0.13043213,-5.53125,-39.75,8.078125
1695895590849,0.43359375,-1.6721802,0.09515381,5.75,-7.203125,12.046875
1695895590894,0.7956543,-1.1616821,-0.13970947,5.40625,-37.75,13.46875
1695895590925,0.053710938,-1.2232056,-0.085510254,-5.890625,-34.390625,4.703125
1695895590985,0.32958984,-1.0530396,-0.051574707,4.0625,-28.8125,3.21875
1695895591015,0.2421875,-1.0759888,0.0770874,8.59375,-30.609375,-8.078125
1695895591046,0.21923828,-0.772522,0.027526855,8.890625,-30.53125,-3.5
1695895591092,0.114746094,-0.72125244,0.09222412,7.03125,-35.09375,-9.15625
1695895591135,0.095703125,-0.6963501,0.08441162,4.296875,-30.125,-11.71875
1695895591166,0.21972656,-0.6514282,0.120788574,8.75,-31.28125,-7.84375
1695895591209,0.17529297,-0.76763916,0.20916748,11.84375,-30.375,-5.390625
1695895591240,0.16479492,-0.8467407,0.21844482,15.921875,-27.234375,-3.078125
1695895591285,0.28588867,-0.8447876,0.10809326,11.390625,-32.96875,-2.984375
1695895591330,0.27954102,-0.94366455,0.10760498,2.984375,-49.140625,-9.46875
1695895591360,-0.008056641,-1.2468872,-0.18218994,4.359375,-46.203125,-19.203125
1695895591405,0.27148438,-1.4985962,-0.109680176,10.109375,-38.875,-26.546875
1695895591450,0.28027344,-1.2666626,-0.08111572,-8.515625,-64.421875,-12.125
1695895591480,0.05419922,-0.9661255,-0.08770752,7.203125,-32.21875,-0.609375
1695895591525,0.13012695,-0.9265747,-0.0791626,4.53125,-26.5,-7.6875
1695895591569,0.38232422,-0.97784424,0.018249512,7.703125,-44.28125,3.09375
1695895591600,0.14013672,-0.84381104,-0.20050049,2.96875,-54.125,2.90625
1695895591645,0.045166016,-0.96466064,-0.07574463,14.5,-50.828125,-2.125
1695895591676,0.013427734,-1.1096802,0.023620605,4.328125,-55.140625,-7.640625
1695895591719,0.00390625,-0.9314575,0.082458496,-4.28125,-52.53125,-4.140625
1695895591769,-0.045410156,-0.85406494,-0.010314941,-7.5625,-52.8125,-3.265625
1695895591795,0.020751953,-0.90802,0.0016479492,-6.671875,-53.40625,-1.21875
1695895591839,-0.012207031,-1.0391235,0.038024902,-9.921875,-52.265625,-2.453125
1695895591885,0.08227539,-0.9807739,0.16912842,-12.875,-52.375,1.734375
1695895591916,0.1665039,-0.76031494,0.026062012,-3.40625,-49.75,11.734375
1695895591959,0.13696289,-0.92193604,-0.12164307,17.9375,-49.609375,16.453125
1695895592006,0.46313477,-1.0286255,0.15350342,25.515625,-57.609375,29.546875
1695895592035,0.055419922,-1.1956177,-0.016418457,11.171875,-66.703125,15.703125
1695895592079,-0.26611328,-1.3403931,-5.493164E-4,8.984375,-34.390625,-19.984375
1695895592111,0.5036621,-1.1895142,0.13909912,10.859375,-36.90625,-5.1875
1695895592157,0.12841797,-0.9678345,0.074401855,10.625,-43.46875,0.640625
1695895592199,0.06298828,-0.70098877,0.10369873,7.3125,-33.265625,-0.25
1695895592231,0.22875977,-0.60113525,0.09613037,10.53125,-36.46875,2.5
1695895592276,0.16699219,-0.81451416,0.1408081,15.984375,-32.75,-0.890625
1695895592319,0.087646484,-0.8870239,0.06463623,11.953125,-27.5625,-3.90625
1695895592351,0.22753906,-0.8609009,0.20477295,10.890625,-24.734375,-8.984375
1695895592396,0.10888672,-0.991272,-7.9345703E-4,13.65625,-36.4375,-14.421875
1695895592426,-0.12670898,-1.2078247,-0.36236572,28.390625,-41.046875,-24.671875
1695895592469,0.42138672,-1.6138306,-0.19732666,9.203125,-58.234375,-22.765625
1695895592517,0.4790039,-1.3823853,-0.22198486,-3.625,-32.796875,1.109375
1695895592545,-0.08886719,-0.7173462,-0.109680176,7.59375,-9.65625,6.828125
1695895592589,0.030517578,-0.66900635,-0.21929932,0.171875,-30.046875,-4.828125
1695895592636,0.2331543,-1.0662231,-0.23956299,8.640625,-29.453125,0.046875
1695895592666,0.20239258,-1.1050415,-0.21417236,8.140625,-26.640625,2.9375
1695895592709,0.064697266,-0.7473755,-0.24908447,7.078125,-33.59375,5.140625
1695895592758,0.018798828,-0.881897,-0.17047119,14.515625,-28.546875,-0.53125
1695895592785,0.15307617,-0.8179321,-0.15533447,11.640625,-31.78125,3.203125
1695895592829,0.16381836,-0.5593872,-0.1494751,13.15625,-37.09375,10.703125
1695895592860,0.063964844,-0.16827393,-0.10089111,7.90625,-41.390625,13.78125
1695895592915,-0.33520508,-0.04449463,-0.117004395,1.359375,-39.75,-2.984375
1695895592950,-0.06542969,-0.51812744,-0.23565674,6.65625,-27.546875,-21.78125
1695895592979,0.076171875,-1.2214966,-0.23321533,16.34375,-42.765625,-26.203125
1695895593025,0.38989258,-2.0,-0.47198486,-27.78125,-33.953125,-34.328125
1695895593069,0.37451172,-2.0,-0.19049072,-30.921875,-16.390625,3.734375
1695895593101,0.4501953,-2.0,-0.17144775,-6.5,2.5625,-5.765625
1695895593146,0.29711914,-1.826477,-0.06744385,-5.265625,20.703125,7.625
1695895593191,0.016845703,-0.58428955,-0.27618408,-50.03125,14.59375,22.921875
1695895593221,-0.11621094,0.590271,-0.2546997,-48.015625,-11.3125,11.234375
1695895593266,0.0036621094,0.5101929,-0.11456299,1.609375,-12.546875,-7.21875
1695895593296,-0.08544922,-0.09307861,-0.16558838,19.15625,-16.625,-0.359375
1695895593341,0.10131836,-0.070129395,-0.02130127,19.921875,4.15625,9.078125
1695895593386,-0.10083008,0.15594482,-0.08306885,17.875,-0.34375,15.828125
1695895593415,-0.026123047,0.035583496,-0.026916504,21.25,2.140625,6.4375
1695895593463,-0.02319336,-0.047668457,-0.0071411133,21.28125,3.296875,8.890625
1695895593506,-0.045654297,-0.09698486,0.10662842,9.046875,-2.234375,6.125
1695895593536,0.2619629,-0.39483643,-1.0942993,61.640625,-38.9375,-0.21875
1695895593582,0.94873047,-2.0,0.21795654,122.203125,33.296875,-49.03125
1695895593626,-0.20532227,-2.0,-0.2727661,-39.75,4.828125,25.6875
1695895593655,0.25317383,-1.5598755,-0.26470947,16.84375,38.0,-21.3125
1695895593702,0.6213379,-2.0,-0.3838501,-13.03125,4.203125,-10.34375
1695895593730,0.31884766,-1.2903442,-0.09307861,-35.828125,5.09375,18.40625
1695895593776,-0.35791016,-0.3789673,-0.2444458,-29.953125,29.671875,-14.609375
1695895593819,0.20092773,-0.13873291,-0.121154785,-27.046875,17.546875,5.3125
1695895593864,0.037841797,-0.29034424,-0.10064697,-8.671875,8.96875,6.84375
1695895593897,-0.27783203,-0.6157837,-0.21417236,-11.078125,22.796875,-6.296875
1695895593939,0.30566406,-0.6050415,-0.23492432,5.3125,42.515625,1.59375
1695895593969,0.2019043,-0.9470825,-0.06719971,19.53125,3.96875,6.390625
1695895594015,-0.011230469,-1.4998169,-0.07672119,6.703125,-0.25,1.46875
1695895594046,0.118896484,-1.0288696,-0.058166504,-9.8125,5.25,7.515625
1695895594089,0.034179688,-0.93463135,0.0021362305,-12.03125,-0.5,4.296875
1695895594140,0.03857422,-0.9002075,0.0016479492,-13.609375,1.78125,3.28125
1695895594165,0.072265625,-0.769104,0.026062012,-4.9375,3.796875,-0.40625
1695895594211,0.041259766,-0.87823486,0.021911621,-3.921875,-2.625,1.671875
1695895594258,0.064697266,-1.0422974,0.0770874,-0.953125,-6.671875,0.75
1695895594285,0.1940918,-1.2219849,0.043151855,0.375,-16.609375,9.546875
1695895594333,0.17651367,-1.2034302,-0.031799316,2.140625,-19.828125,15.640625
1695895594375,0.17871094,-1.3897095,-0.48272705,-8.828125,-42.46875,11.4375
1695895594406,1.0725098,-1.472229,-0.043762207,10.53125,-9.734375,12.125
1695895594449,0.021240234,-1.2078247,-0.18170166,-12.140625,-18.4375,11.796875
1695895594478,0.13745117,-0.52130127,-0.30914307,-10.96875,-10.328125,-9.96875
1695895594526,0.53125,-1.2068481,-0.09527588,2.84375,-13.09375,-3.484375
1695895594572,0.2121582,-0.95318604,0.022888184,-5.5,-9.25,-6.046875
1695895594599,0.19116211,-0.80255127,-0.0154418945,-3.328125,-8.65625,-9.765625
1695895594650,0.10180664,-0.8604126,0.026306152,3.15625,-0.734375,-13.453125
1695895594710,0.14013672,-0.74346924,0.034362793,1.6875,-1.078125,-9.640625
1695895594747,0.18676758,-0.6223755,0.07342529,4.34375,-6.78125,-2.484375
1695895594764,0.14624023,-0.6934204,0.08929443,8.671875,-7.78125,-0.765625
1695895594811,0.19165039,-0.74176025,-0.0032348633,4.109375,-9.96875,1.265625
1695895594840,0.28686523,-0.8477173,0.11151123,16.234375,-5.171875,0.796875
1695895594885,0.2175293,-1.0098267,0.26971436,10.953125,-14.515625,-5.1875
1695895594916,-0.01953125,-1.1868286,0.09613037,9.28125,2.96875,-16.4375
1695895594959,0.2084961,-1.3811646,-0.3110962,-9.734375,-7.890625,-12.859375
1695895595005,0.4321289,-1.5549927,-0.1729126,14.46875,-2.328125,-8.765625
1695895595035,-0.28930664,-1.3926392,-0.35699463,-9.328125,44.890625,-15.28125
1695895595079,0.4267578,-0.7283325,-0.16290283,-7.890625,49.078125,-6.171875
1695895595125,0.3623047,-1.2044067,-0.1531372,9.3125,17.59375,7.671875
1695895595155,-0.0390625,-0.99298096,-0.14971924,-0.03125,14.796875,2.984375
1695895595199,0.10546875,-0.80474854,-0.059387207,-3.53125,9.765625,1.40625
1695895595230,-0.0073242188,-0.7542114,-0.108947754,-2.03125,5.078125,5.953125
1695895595275,0.021484375,-0.7114868,-0.061828613,1.484375,11.703125,4.703125
1695895595319,0.036132812,-0.6721802,-0.0635376,3.015625,8.859375,3.96875
1695895595349,0.1352539,-0.6992798,-0.04937744,4.109375,0.640625,7.09375
1695895595398,0.0769043,-0.7871704,-0.03643799,5.59375,0.125,4.453125
1695895595440,0.05883789,-0.94659424,-0.011291504,-0.046875,-2.4375,2.4375
1695895595470,0.11230469,-1.1109009,-0.0134887695,-8.453125,-8.421875,4.984375
1695895595517,0.22705078,-1.2383423,-0.2288208,-7.859375,-24.453125,13.609375
1695895595560,0.4584961,-1.4746704,-0.18536377,-3.625,-33.59375,11.671875
1695895595589,0.45532227,-1.1604614,-0.13580322,6.03125,-10.515625,11.921875
1695895595638,0.12451172,-1.078186,-0.3670044,-11.203125,-16.5625,0.625
1695895595670,0.29785156,-1.0025024,-0.17120361,-5.453125,-9.484375,-0.546875
1695895595709,0.25390625,-1.112854,0.07611084,-1.6875,-5.96875,-7.15625
1695895595756,0.09838867,-0.85894775,-0.0154418945,-7.671875,-4.46875,-4.109375
1695895595785,0.15429688,-0.64190674,0.016296387,-1.09375,-1.828125,-2.515625
1695895595829,0.1171875,-0.62506104,0.023864746,4.59375,-4.765625,-2.390625
1695895595878,0.11010742,-0.6211548,-0.027893066,3.8125,-2.28125,-3.296875
1695895595905,0.19091797,-0.63165283,0.07122803,6.8125,-4.953125,-4.1875
1695895595958,0.07836914,-0.84747314,0.051452637,7.125,-1.484375,-3.046875
1695895595995,0.16967773,-0.87506104,0.055114746,4.9375,1.328125,-4.328125
1695895596026,0.23779297,-1.0232544,0.08416748,-0.09375,-5.84375,-7.234375
1695895596069,0.1081543,-1.2471313,0.028503418,9.046875,4.90625,-13.140625
1695895596100,0.2824707,-1.5925903,-0.17047119,-12.046875,-18.578125,-16.03125
1695895596146,0.26733398,-1.4761353,-0.20562744,14.0625,7.4375,-1.265625
1695895596190,-0.27563477,-1.1472778,-0.3171997,-6.25,29.1875,-12.8125
1695895596221,0.36376953,-0.85894775,-0.2420044,-5.78125,14.71875,-0.484375
1695895596265,0.4375,-1.2363892,-0.15142822,4.546875,3.84375,7.296875
1695895596309,0.014404297,-0.913147,-0.09942627,3.765625,12.15625,8.75
1695895596341,-0.049560547,-0.7214966,-0.023986816,1.625,10.03125,3.234375
1695895596385,-0.03149414,-0.7559204,-0.043029785,1.0625,15.21875,2.703125
1695895596415,0.053466797,-0.6980591,-0.08892822,-8.15625,12.03125,5.5
1695895596461,0.08569336,-0.63409424,-0.12554932,-2.171875,8.046875,8.84375
1695895596520,0.14379883,-0.7202759,-0.04034424,8.546875,9.015625,8.265625
1695895596535,0.009521484,-0.85162354,-0.0095825195,9.359375,2.546875,2.03125
1695895596581,0.0036621094,-0.99884033,-0.046936035,-2.75,-1.484375,-1.359375
1695895596626,0.16625977,-1.0859985,-0.082336426,-10.203125,-7.40625,2.828125
1695895596656,0.3100586,-1.2334595,-0.2300415,-6.265625,-24.90625,11.109375
1695895596701,0.26733398,-1.4876099,-0.37652588,-12.234375,-32.265625,8.1875
1695895596774,0.6867676,-1.1651001,-0.19244385,-4.03125,2.515625,7.9375
1695895596781,0.09375,-1.0752563,-0.17681885,-5.953125,-11.921875,6.140625
1695895596819,0.15722656,-0.96466064,-0.20074463,-1.5,-3.265625,-3.3125
1695895596848,0.36621094,-1.1951294,-0.108947754,-2.671875,-1.078125,-3.96875
1695895596909,0.10498047,-0.8936157,-0.07305908,-9.203125,-1.171875,-0.84375
1695895596939,0.18066406,-0.612854,0.026794434,0.34375,4.546875,0.4375
1695895596969,0.2355957,-0.6487427,0.0016479492,3.875,-3.296875,1.84375
1695895597015,0.12084961,-0.6333618,0.020690918,0.828125,-7.703125,-0.703125
1695895597078,0.14135742,-0.5772095,0.032409668,3.203125,-10.21875,-2.859375
1695895597089,0.14355469,-0.76763916,0.0524292,7.53125,-8.734375,-3.28125
1695895597136,0.13378906,-0.9529419,0.008239746,6.328125,-11.6875,-3.59375
1695895597181,0.14916992,-1.123352,0.05706787,4.0625,-5.953125,-8.609375
1695895597209,0.09326172,-1.2161255,0.082458496,2.59375,-0.796875,-14.59375
1695895597256,0.114746094,-1.3579712,-0.26861572,6.359375,-4.359375,-12.671875
1695895597286,0.5854492,-1.3650513,-0.13897705,13.859375,-12.953125,-11.0
1695895597329,0.014160156,-1.5071411,-0.18707275,-6.078125,6.828125,-10.21875
1695895597375,0.08300781,-0.9192505,-0.2649536,-10.421875,9.84375,-4.140625
1695895597406,0.34228516,-1.0615845,-0.302063,2.046875,7.25,0.859375
1695895597449,0.059326172,-1.2075806,-0.14776611,-3.328125,6.65625,1.6875
1695895597496,0.20751953,-0.87579346,-0.002746582,-5.09375,9.09375,6.078125
1695895597526,0.04711914,-0.722229,0.007019043,-1.390625,7.3125,9.328125
1695895597571,-0.046142578,-0.6489868,-0.034484863,1.328125,9.046875,9.09375
1695895597599,0.14282227,-0.6182251,0.04046631,8.078125,8.90625,3.484375
1695895597645,0.095458984,-0.66729736,0.012878418,8.359375,-1.515625,5.140625
1695895597691,0.103271484,-0.7234497,4.272461E-4,7.046875,-1.234375,0.8125
1695895597719,0.033203125,-0.9458618,0.014831543,4.75,-3.578125,-4.140625
1695895597765,-0.09643555,-1.1946411,-0.013244629,-11.421875,-0.28125,-4.859375
1695895597811,0.1171875,-1.2578735,-0.237854,-6.9375,3.5625,-1.8125
1695895597840,0.6196289,-1.4053345,-0.28497314,-7.828125,-18.015625,8.8125
1695895597885,0.501709,-1.1948853,-0.09625244,-10.859375,-25.1875,14.421875
1695895597930,0.09106445,-1.067688,-0.1807251,-8.078125,-13.15625,3.359375
1695895597960,0.29614258,-0.9819946,-0.0881958,-3.0625,-10.671875,-2.828125
1695895598005,0.23950195,-1.1033325,0.023864746,-1.828125,-8.65625,-7.0625
1695895598036,0.17041016,-0.8928833,0.12054443,-12.8125,-2.3125,-3.203125
1695895598080,0.10595703,-0.611145,0.09490967,-14.65625,-4.34375,-4.21875
1695895598126,0.15039062,-0.56695557,0.09466553,-6.109375,-8.125,-2.9375
1695895598156,0.16870117,-0.63287354,0.047302246,-4.015625,-12.734375,-4.046875
1695895598201,0.10058594,-0.64508057,0.08099365,-4.015625,-15.296875,-6.21875
1695895598246,0.099365234,-0.723938,0.1461792,-2.203125,-14.828125,-7.25
1695895598276,0.10986328,-0.8687134,0.1930542,3.34375,-9.5625,-5.421875
1695895598319,0.1003418,-1.0784302,0.20574951,3.359375,-10.625,-6.40625
1695895598366,0.04345703,-1.1973267,0.28338623,11.890625,6.140625,-11.453125
1695895598396,0.018066406,-1.3670044,-0.003479004,19.65625,0.3125,-15.890625
1695895598440,0.48095703,-1.47052,0.17352295,0.734375,-14.046875,-8.59375
1695895598489,0.09716797,-1.4954224,-0.1038208,6.6875,7.34375,-2.28125
1695895598515,-0.32592773,-0.9963989,-0.2354126,-10.53125,33.0625,-15.21875
1695895598558,0.37158203,-0.90704346,-5.493164E-4,-11.328125,24.078125,-3.140625
1695895598589,0.3466797,-1.1333618,-0.0134887695,-0.390625,6.390625,6.953125
1695895598637,0.024414062,-0.91241455,0.043395996,3.203125,14.390625,10.234375
1695895598679,-0.045166016,-0.68927,0.14447021,10.375,25.0625,7.390625
1695895598710,-0.10424805,-0.7527466,0.02142334,4.171875,26.84375,5.75
1695895598758,0.06738281,-0.61505127,-0.009094238,-0.828125,22.03125,3.546875
1695895598786,0.09814453,-0.63067627,0.02142334,16.109375,20.03125,6.21875
1695895598829,0.032226562,-0.7908325,0.15740967,17.515625,14.1875,3.5
1695895598877,-0.013916016,-1.0479126,0.120788574,7.90625,14.375,0.0625
1695895598906,0.0126953125,-1.2737427,0.109802246,-2.078125,12.484375,4.109375
1695895598949,0.17407227,-1.2593384,0.014831543,-19.515625,-3.359375,6.640625
1695895599013,0.33032227,-1.4295044,-0.1296997,-3.71875,-5.46875,15.640625
1695895599024,0.5371094,-1.1682739,-0.22125244,-1.96875,-22.484375,5.4375
1695895599068,0.3383789,-1.0747681,-0.10064697,8.609375,4.046875,10.984375
1695895599118,-0.049560547,-0.9241333,-0.18951416,-9.0625,-12.1875,-5.625
1695895599147,0.29223633,-1.0615845,0.05340576,0.71875,-11.25,-9.203125
1695895599191,0.08666992,-0.9788208,0.039001465,3.46875,1.6875,-7.640625
1695895599221,0.09741211,-0.55303955,0.15130615,6.546875,0.640625,-5.5625
1695895599266,0.21459961,-0.5779419,0.05340576,-1.640625,-14.546875,-0.3125
1695895599311,0.10888672,-0.6572876,0.09246826,8.734375,-7.65625,-0.09375
1695895599341,0.08935547,-0.6746216,0.050964355,2.296875,-8.796875,-3.71875
1695895599386,0.13647461,-0.78985596,0.1605835,5.125,-7.734375,-4.671875
1695895599429,0.06762695,-1.0046997,0.16351318,3.390625,-8.625,-4.6875
1695895599461,0.05419922,-1.161438,0.120788574,1.515625,-7.40625,-7.640625
1695895599507,0.1496582,-1.1621704,0.039001465,8.265625,-0.828125,-12.109375
1695895599579,0.3022461,-1.4592896,-0.11480713,1.328125,-22.984375,-7.734375
1695895599581,0.061279297,-1.6362915,-0.120910645,13.75,5.34375,-5.734375
1695895599625,-0.07885742,-0.97247314,-0.15948486,-1.265625,29.5,-12.625
1695895599654,0.3059082,-0.8567505,-0.17218018,-9.15625,14.484375,1.671875
1695895599700,0.17285156,-1.260315,-0.040100098,8.46875,13.515625,4.78125
1695895599746,0.06274414,-0.9871216,0.001159668,-2.21875,19.40625,4.15625
1695895599774,0.07470703,-0.78204346,0.04852295,-1.59375,13.8125,8.15625
1695895599821,-0.06591797,-0.7444458,-0.008361816,-6.3125,11.734375,7.03125
1695895599864,-0.010009766,-0.6592407,-0.0064086914,-1.359375,19.21875,3.9375
1695895599896,0.09350586,-0.66192627,0.011413574,3.734375,15.734375,5.328125
1695895599939,0.07910156,-0.80255127,-0.018371582,6.734375,8.0,4.515625
1695895599983,0.10107422,-0.9602661,0.093444824,12.8125,10.09375,3.796875
1695895600014,0.001953125,-1.1287231,0.09100342,6.453125,2.921875,3.203125
1695895600061,0.052490234,-1.1055298,0.03289795,-15.21875,0.71875,1.96875
1695895600091,0.16796875,-1.30719,-0.18511963,-11.4375,-11.859375,8.3125
1695895600138,0.61083984,-1.3257446,-0.0032348633,-5.640625,-17.5625,6.140625
1695895600179,0.35546875,-1.2527466,-0.06939697,8.015625,5.25,16.234375
1695895600210,0.026855469,-0.84820557,-0.24005127,-9.3125,-17.453125,-3.765625
1695895600260,0.3725586,-0.9788208,0.018005371,9.265625,-11.875,-0.4375
1695895600300,0.1081543,-1.0811157,-0.038146973,-0.34375,-11.046875,-6.0625
1695895600329,0.1394043,-0.69732666,0.058776855,-1.015625,-3.046875,-2.328125
1695895600375,0.1809082,-0.7202759,0.0028686523,2.0,-10.609375,-1.921875
1695895600405,0.1274414,-0.6531372,0.10345459,7.5625,-11.640625,-5.171875
1695895600451,0.12231445,-0.63775635,0.05633545,2.390625,-11.078125,-4.828125
1695895600494,0.14892578,-0.75201416,0.15496826,18.140625,-6.875,-1.0
1695895600524,0.079589844,-0.97320557,0.120788574,7.734375,-8.234375,-3.0
1695895600570,0.0925293,-0.9890747,0.113464355,7.25,-6.84375,-3.515625
1695895600617,0.020996094,-1.0718384,0.058288574,3.203125,-4.34375,-10.375
1695895600647,0.118652344,-1.085022,-0.0256958,12.625,5.5,-6.546875
1695895600690,0.41674805,-1.1878052,-0.109436035,5.203125,-20.71875,-2.75
1695895600734,0.18481445,-1.6221313,-0.25201416,11.84375,1.53125,-2.921875
1695895600766,-0.16088867,-1.0137329,-0.27618408,-6.96875,23.515625,-11.765625
1695895600811,0.32714844,-0.6868286,-0.27520752,10.875,26.25,5.859375
1695895600839,0.22143555,-1.3174438,-0.07354736,6.625,14.796875,-1.046875
1695895600886,0.08935547,-0.93463135,-0.043029785,-1.78125,15.28125,5.65625
1695895600930,0.057617188,-0.8648071,-0.06939697,2.21875,9.53125,8.625
1695895600960,-0.022216797,-0.8711548,-0.07525635,1.40625,20.421875,6.734375
1695895601005,0.12915039,-0.70562744,-0.06427002,1.984375,19.96875,9.359375
1695895601051,0.106933594,-0.6914673,-0.07647705,6.59375,12.421875,12.4375
1695895601079,0.09887695,-0.7817993,-0.058898926,7.765625,8.375,7.171875
1695895601124,0.11743164,-0.8567505,0.013122559,9.0625,0.640625,2.59375
1695895601171,0.08227539,-1.0698853,-0.11895752,7.640625,-5.0,2.5
1695895601201,0.18579102,-1.225647,-0.058166504,-0.71875,-6.125,5.28125
1695895601244,0.1015625,-1.21344,-0.33111572,-2.046875,-0.28125,10.953125
1695895601276,0.51123047,-1.1690063,-0.25299072,-11.953125,-17.609375,10.75
1695895601320,0.4399414,-1.2903442,-0.24468994,-4.796875,-7.171875,6.859375
1695895601365,0.20214844,-0.8377075,-0.32110596,-10.796875,-7.4375,9.125
1695895601395,0.5214844,-0.70562744,-0.18658447,5.09375,-10.828125,1.78125
1695895601455,0.19091797,-1.0901489,-0.13922119,3.515625,-16.296875,-2.125
1695895601486,0.17553711,-0.8567505,-0.09869385,-3.15625,-3.734375,-5.40625
1695895601516,0.2722168,-0.8665161,-0.020324707,2.328125,-1.90625,-5.65625
1695895601560,0.111328125,-0.81915283,-0.08648682,-1.109375,-0.53125,-2.828125
1695895601590,0.21020508,-0.6201782,-0.06060791,2.09375,0.015625,-2.0
1695895601634,0.1652832,-0.53375244,0.0038452148,6.25,0.15625,-5.1875
1695895601680,0.052490234,-0.41558838,-0.035217285,4.484375,8.171875,-4.78125
1695895601709,-0.04248047,-0.2546997,-0.097717285,-2.328125,7.546875,-10.140625
1695895601755,0.12060547,-0.18048096,-0.124816895,-4.21875,2.0,-10.640625
1695895601799,0.20361328,-0.4570923,-0.5088501,13.515625,-24.484375,0.03125
1695895601831,0.45703125,-0.96832275,0.31903076,19.734375,-21.46875,-12.5625
1695895601876,-0.2944336,-2.0,-0.3970337,-48.390625,-17.375,-56.890625
1695895601919,0.5109863,-2.0,-0.347229,-30.4375,15.453125,-6.234375
1695895601949,0.35913086,-2.0,-0.20123291,-19.328125,-10.25,-8.078125
1695895601994,-0.07373047,-1.8186646,-0.062316895,-24.65625,14.328125,3.953125
1695895602024,0.051513672,-0.5654907,-0.06768799,-43.953125,35.296875,4.140625
1695895602069,0.07446289,0.2868042,-0.34405518,-51.140625,12.375,18.59375
1695895602114,-0.16186523,0.45477295,-0.065979004,-20.53125,15.234375,-8.40625
1695895602147,0.071777344,-0.04107666,-0.19854736,1.4375,4.078125,-11.734375
1695895602189,0.14941406,-0.1182251,-0.035461426,9.9375,-9.28125,-6.796875
1695895602234,0.016845703,-0.013244629,-0.022521973,-2.671875,-24.65625,0.765625
1695895602264,-0.12231445,0.043151855,-0.03277588,-1.15625,-16.140625,0.09375
1695895602311,-0.12036133,0.012878418,-0.10821533,-1.0,-10.625,-0.890625
1695895602356,-0.016601562,0.07147217,0.19769287,-1.796875,-18.1875,-0.90625
1695895602386,-0.25732422,-0.7559204,-0.85284424,68.75,-44.65625,-4.0
1695895602431,0.40014648,-2.0,0.37005615,54.375,-48.78125,-8.71875
1695895602461,0.23657227,-2.0,0.67523193,-48.78125,-3.015625,7.890625
1695895602505,-0.032714844,-2.0,0.50042725,11.9375,28.4375,2.390625
1695895602553,0.13720703,-1.256897,-0.21246338,-7.875,8.34375,7.046875
1695895602579,-0.0031738281,-0.6201782,-0.031311035,-8.5,8.828125,15.03125
1695895602625,-0.25805664,-0.09527588,0.13348389,-2.0,10.328125,-2.078125
1695895602671,-0.10961914,-0.20465088,-0.14019775,3.78125,19.390625,8.671875
1695895602700,-0.061767578,-0.59381104,-0.028381348,22.546875,34.59375,-4.15625
1695895602751,0.15625,-1.050354,0.05999756,16.609375,10.640625,-7.296875
1695895602789,0.11035156,-1.161438,0.049743652,3.6875,14.15625,5.578125
1695895602819,0.0107421875,-1.0200806,0.1671753,5.421875,5.046875,11.046875
1695895602865,-0.025390625,-1.0293579,0.11468506,-4.140625,14.3125,12.09375
1695895602909,0.22216797,-0.85723877,-0.108947754,-5.46875,5.875,16.5
1695895602945,0.32666016,-0.7788696,-0.08428955,-1.125,-36.4375,17.046875
1695895602986,0.36279297,-0.9561157,-0.02154541,14.640625,-29.140625,24.4375
1695895603016,0.23779297,-1.013977,-0.1975708,3.25,-50.140625,19.0625
1695895603063,0.10986328,-1.0020142,0.046325684,19.078125,-34.53125,-6.578125
1695895603106,0.50634766,-1.430481,0.12689209,15.046875,-34.71875,-5.671875
1695895603135,0.1899414,-1.1338501,0.047546387,5.546875,-38.34375,-0.015625
1695895603179,0.14794922,-0.9578247,0.039001465,17.828125,-28.984375,-11.109375
1695895603209,0.27807617,-0.7686157,0.12884521,15.234375,-27.671875,-1.734375
1695895603255,0.2446289,-0.7017212,0.08660889,15.203125,-35.6875,0.1875
1695895603300,0.19604492,-0.76226807,0.09124756,16.21875,-35.65625,-3.984375
1695895603331,0.26513672,-0.80010986,0.12713623,17.078125,-32.953125,-4.265625
1695895603375,0.22314453,-0.93414307,0.04071045,16.25,-32.640625,-4.125
1695895603420,0.21948242,-1.0181274,0.09100342,8.3125,-30.21875,-13.390625
1695895603451,0.19799805,-0.9685669,0.08465576,9.703125,-28.765625,-22.984375
1695895603496,0.037841797,-1.3589478,-0.1885376,15.421875,-36.46875,-28.265625
1695895603539,0.32714844,-1.4456177,-0.4258423,-2.25,-35.03125,-21.859375
1695895603571,0.4453125,-1.2185669,-0.22979736,-4.171875,-25.265625,-7.515625
1695895603615,0.1003418,-0.8989868,-0.04815674,-8.03125,-26.859375,-3.296875
1695895603646,0.24975586,-0.7744751,-0.061340332,-5.09375,-36.578125,-9.796875
1695895603690,0.2084961,-1.0818481,-0.08526611,-2.6875,-40.640625,-6.859375
1695895603735,0.19726562,-0.85528564,-0.124816895,-6.0625,-40.796875,-6.0
1695895603766,0.08227539,-0.7942505,-0.020080566,1.59375,-49.21875,-8.0625
1695895603811,0.09350586,-1.0376587,0.011169434,2.25,-52.40625,-7.8125
1695895603856,0.08984375,-1.0015259,0.10687256,-7.265625,-52.65625,-6.359375
1695895603886,-0.036865234,-0.8413696,0.059509277,-6.09375,-48.140625,-2.734375
1695895603931,0.01928711,-0.9036255,0.0021362305,-6.328125,-46.40625,1.0625
1695895603960,0.017822266,-1.0264282,0.081970215,-2.140625,-47.25,-1.53125
1695895604006,0.043945312,-1.0479126,0.17816162,-5.953125,-46.625,-0.484375
1695895604051,0.043945312,-0.89801025,0.13568115,-11.234375,-54.1875,3.328125
1695895604081,0.30493164,-0.85284424,-0.124816895,-12.96875,-78.0,21.4375
1695895604126,0.6098633,-1.1680298,0.07244873,20.28125,-34.703125,30.953125
1695895604171,0.29296875,-1.0950317,0.039001465,14.15625,-61.734375,28.53125
1695895604199,-0.24902344,-1.4373169,-0.06036377,-4.203125,-56.234375,-19.578125
1695895604245,0.44604492,-1.0283813,0.17108154,11.84375,-35.203125,-7.71875
1695895604291,0.21289062,-0.9336548,0.20526123,17.953125,-43.515625,2.171875
1695895604320,-0.0847168,-0.6987915,0.10662842,2.984375,-35.328125,-6.859375
1695895604365,0.16748047,-0.59869385,0.22406006,12.171875,-30.984375,-0.15625
1695895604396,0.24682617,-0.8123169,0.16326904,8.265625,-39.0,-3.5625
1695895604440,0.14086914,-0.8674927,0.19207764,7.765625,-30.1875,-4.234375
1695895604486,0.16088867,-0.8670044,0.13983154,8.78125,-30.640625,-1.015625
1695895604515,0.22070312,-0.9414673,0.16107178,2.546875,-44.484375,-3.8125
1695895604561,0.15063477,-1.05719,0.11663818,7.109375,-48.109375,-6.953125
1695895604606,-0.18237305,-1.159729,-0.018371582,9.3125,-37.671875,-23.6875
1695895604635,0.039794922,-1.3518677,0.01727295,17.75,-7.8125,-21.859375
1695895604679,0.32299805,-1.1887817,0.09954834,1.1875,-32.359375,-3.453125
1695895604725,0.06542969,-0.9710083,-0.1296997,-0.703125,-17.46875,-7.828125
1695895604755,0.08959961,-0.878479,-0.105285645,8.828125,-4.84375,-0.140625
1695895604800,0.20727539,-1.0545044,-0.061828613,6.828125,-15.65625,0.4375
1695895604831,0.24072266,-1.1055298,-0.073791504,9.40625,-33.0,8.09375
1695895604875,0.12670898,-0.8557739,-0.14727783,15.9375,-34.03125,13.34375
1695895604923,0.047851562,-0.9065552,-0.07891846,26.46875,-28.5,9.734375
1695895604949,0.025390625,-0.9295044,-0.120910645,14.6875,-43.75,6.09375
1695895604995,0.09692383,-0.81207275,-0.1260376,12.796875,-51.703125,8.65625
1695895605041,0.18652344,-0.60943604,-0.1572876,18.1875,-54.890625,18.734375
1695895605069,0.23901367,-0.14117432,-0.16290283,6.859375,-71.8125,36.734375
1695895605115,-0.43481445,0.21990967,0.1251831,6.59375,-68.65625,14.359375
1695895605160,-0.2626953,-0.72906494,-0.6069946,31.875,-48.078125,-20.234375
1695895605190,0.64208984,-1.8877563,0.1293335,12.078125,-50.328125,-32.5
1695895605237,0.8322754,-2.0,-0.108947754,-24.28125,-31.703125,-15.484375
1695895605265,0.12231445,-2.0,-0.16485596,-35.734375,-6.15625,-14.578125
1695895605309,0.6467285,-2.0,0.15423584,5.484375,29.625,-6.703125
1695895605356,0.37109375,-1.3086548,-0.0335083,-7.625,24.0625,0.859375
1695895605386,0.30395508,-0.3748169,-0.22930908,-38.546875,15.03125,12.828125
1695895605430,-0.11230469,0.6522827,-0.13702393,-25.890625,-18.265625,1.125
1695895605476,-0.15698242,0.3151245,-0.18365479,7.046875,-15.28125,-1.875
1695895605506,-0.053466797,-0.25958252,-0.10845947,15.734375,-6.5625,-4.28125
1695895605550,0.022460938,-0.0154418945,-0.09918213,0.921875,-14.28125,3.984375
1695895605581,0.03173828,0.16937256,-0.024230957,9.4375,-13.90625,5.359375
1695895605627,-0.040039062,-0.04107666,-0.08062744,17.140625,-5.828125,1.953125
1695895605670,0.02368164,-0.12701416,-0.10650635,10.375,-5.171875,4.0625
1695895605700,0.28271484,-0.5508423,-0.41461182,63.890625,-10.625,1.640625
1695895605750,1.2175293,-2.0,1.4950562,67.203125,2.8125,-39.109375
1695895605789,-0.3083496,-2.0,-0.028137207,-15.203125,32.921875,21.984375
1695895605820,0.4326172,-1.1514282,0.11151123,1.8125,64.59375,-24.515625
1695895605868,0.5041504,-1.5361938,-0.017150879,-10.65625,7.09375,41.109375
1695895605942,-0.25878906,-0.27911377,-0.09136963,-34.0625,-11.09375,5.9375
1695895605945,-0.14672852,-0.13409424,-0.09234619,-15.40625,14.046875,-14.421875
1695895605987,0.4333496,-0.40045166,-0.16046143,-2.015625,7.25,-3.859375
1695895606016,0.09448242,-0.8135376,-0.16412354,2.5,-9.078125,-8.40625
1695895606060,-0.2175293,-1.0188599,-0.22979736,-10.34375,14.0625,-12.75
1695895606109,0.21679688,-0.7620239,-0.11431885,-5.734375,26.640625,1.15625
1695895606135,0.23486328,-1.2236938,-0.124816895,7.6875,11.515625,2.21875
1695895606179,0.23486328,-1.4522095,0.04876709,-1.390625,2.109375,0.984375
1695895606226,0.099365234,-1.0789185,0.1671753,-8.78125,10.421875,10.125
1695895606255,-0.067871094,-0.737854,0.027038574,-5.84375,13.65625,3.703125
1695895606300,0.17602539,-0.8875122,0.016784668,4.328125,3.4375,5.234375
1695895606347,0.009033203,-0.93536377,-0.04815674,5.265625,-1.078125,-1.53125
1695895606376,0.13085938,-0.96466064,0.03656006,6.484375,4.21875,0.421875
1695895606419,0.18237305,-1.0374146,0.051452637,3.546875,-3.640625,5.453125
1695895606451,-0.0017089844,-0.94366455,-0.028869629,-2.1875,-7.28125,3.875
1695895606495,0.02758789,-0.9265747,0.012145996,-1.203125,-0.890625,2.28125
1695895606539,-0.0026855469,-1.0403442,0.018493652,-9.359375,-6.671875,0.15625
1695895606570,-0.03955078,-1.1045532,-0.014709473,-13.375,-5.609375,-3.453125
1695895606615,0.1940918,-1.128479,0.034362793,-4.640625,-10.921875,1.234375
1695895606660,0.33374023,-1.3491821,-0.2263794,-0.9375,-16.453125,15.4375
1695895606691,0.57055664,-1.4871216,-0.27838135,-0.53125,-22.640625,10.4375
1695895606735,0.53564453,-1.3284302,0.0072631836,-2.875,-22.140625,20.03125
1695895606765,0.021972656,-0.8413696,-0.24639893,-14.09375,-11.6875,-1.125
1695895606811,0.5073242,-0.94488525,-0.06890869,8.171875,-10.703125,-0.921875
1695895606855,0.30688477,-1.22052,-0.07696533,-5.640625,-14.640625,-3.765625
1695895606886,0.29785156,-0.7827759,0.047058105,-4.21875,-9.3125,-1.328125
1695895606932,0.15527344,-0.74224854,0.012878418,-3.78125,-16.328125,-5.34375
1695895606975,0.22167969,-0.66656494,0.07366943,-5.8125,-13.046875,-5.203125
1695895607007,0.16186523,-0.65704346,0.11004639,4.40625,-9.125,-1.5
1695895607050,0.0871582,-0.69976807,0.012145996,1.0625,-5.0,-5.21875
1695895607096,0.10888672,-0.7029419,0.061706543,5.53125,12.84375,-9.15625
1695895607125,0.12963867,-0.7307739,0.06829834,5.96875,5.046875,-8.609375
1695895607172,0.20776367,-0.86260986,0.19476318,6.59375,5.5,-10.5
1695895607200,0.06640625,-1.0054321,0.2658081,4.953125,3.546875,-20.140625
1695895607245,0.026367188,-1.2144165,0.03753662,-1.75,-0.3125,-23.109375
1695895607290,0.39501953,-1.5808716,-0.32330322,-13.390625,-34.71875,-12.375
1695895607320,0.2956543,-1.7422485,-0.057678223,24.28125,23.125,-7.453125
1695895607365,-0.4169922,-1.1177368,-0.41436768,2.265625,37.390625,-20.625
1695895607411,0.41967773,-0.82354736,-0.058410645,-4.78125,24.890625,2.84375
1695895607440,0.30810547,-1.2786255,-0.10064697,-2.78125,-7.0625,7.0
1695895607485,0.017822266,-0.9336548,-0.08673096,6.109375,16.015625,9.3125
1695895607532,-0.008544922,-0.7251587,-0.007385254,8.484375,25.15625,4.90625
1695895607560,-0.068115234,-0.7131958,-0.012268066,-3.359375,16.5625,5.5
1695895607605,-0.018554688,-0.5857544,-0.07965088,-5.90625,12.6875,4.5625
1695895607635,0.023925781,-0.61431885,-0.014465332,8.140625,22.75,5.921875
1695895607680,0.036376953,-0.72979736,0.031188965,8.859375,18.765625,3.1875
1695895607725,0.099121094,-0.8604126,-0.046203613,3.65625,9.296875,2.953125
1695895607756,0.0949707,-1.045227,0.023132324,10.8125,1.578125,7.328125
1695895607816,0.013671875,-1.2590942,0.0014038086,-5.1875,-4.359375,7.25
1695895607846,0.10986328,-1.2637329,0.019470215,-11.78125,-11.359375,9.515625
1695895607877,0.31298828,-1.2647095,-0.23931885,-6.453125,-12.59375,26.375
1695895607935,0.58374023,-1.3848267,-0.27398682,-2.53125,-31.40625,12.0
1695895607965,0.48046875,-1.1323853,-0.10992432,4.28125,-5.109375,11.203125
1695895607996,0.080078125,-1.0454712,-0.14923096,-8.40625,-13.40625,-0.84375
1695895608040,0.1928711,-1.06427,-0.15435791,-14.1875,-14.421875,-3.40625
1695895608070,0.18237305,-0.9678345,-0.038391113,-10.203125,-8.25,-8.8125
1695895608116,0.15356445,-0.6499634,0.04534912,-1.34375,-7.03125,-5.203125
1695895608159,0.17749023,-0.6013794,0.03753662,-0.078125,-11.6875,-0.5
1695895608190,0.11621094,-0.5935669,0.044128418,3.65625,-6.15625,-2.265625
1695895608236,0.1003418,-0.55718994,0.026062012,5.65625,-9.046875,-3.390625
1695895608279,0.15014648,-0.6506958,0.07952881,8.625,-12.671875,-4.65625
1695895608310,0.107910156,-0.9295044,0.09246826,9.765625,-8.84375,-4.25
1695895608356,0.15600586,-1.0454712,0.117370605,5.171875,-8.59375,-7.359375
1695895608386,0.09814453,-1.1050415,0.13909912,16.0,2.71875,-16.96875
1695895608429,0.26831055,-1.446106,-0.14093018,9.265625,-10.046875,-13.546875
1695895608475,0.39819336,-1.4485474,-0.11383057,7.734375,-17.375,-10.0625
1695895608505,-0.12158203,-1.3538208,-0.24151611,8.078125,21.203125,-7.34375
1695895608549,0.12207031,-0.81915283,-0.25909424,-8.296875,14.828125,-1.390625
1695895608595,0.42529297,-1.2901001,-0.1651001,7.984375,11.59375,2.90625
1695895608625,0.12597656,-1.031311,-0.054504395,0.71875,9.765625,5.75
1695895608670,0.040527344,-0.7913208,-0.019104004,2.71875,16.25,8.453125
1695895608716,-0.07836914,-0.8555298,-0.031311035,-2.578125,16.3125,3.8125
1695895608746,0.06982422,-0.7283325,-0.07550049,-8.5625,14.609375,4.890625
1695895608792,0.07836914,-0.66070557,-0.04815674,-4.8125,16.15625,7.046875
1695895608820,0.017822266,-0.6531372,-0.035949707,-0.734375,16.28125,6.921875
1695895608866,0.04663086,-0.69488525,-0.044006348,-1.71875,12.0625,0.953125
1695895608909,0.06567383,-0.81817627,0.027282715,6.453125,14.59375,1.15625
1695895608939,0.06762695,-1.0088501,0.011413574,3.984375,6.421875,1.71875
1695895608985,0.18017578,-1.218811,-0.0029907227,4.203125,-2.953125,2.25
1695895609029,0.09716797,-1.4119263,-0.23712158,2.9375,-6.15625,16.890625
1695895609060,0.37573242,-1.2842407,-0.27105713,-12.390625,-20.828125,17.0625
1695895609105,0.7163086,-1.4060669,-0.112854004,7.484375,10.21875,5.671875
1695895609135,0.12890625,-1.0039673,-0.27105713,-4.75,-11.515625,5.4375
1695895609180,0.39257812,-0.77008057,-0.11920166,4.921875,-12.1875,-4.03125
1695895609226,0.22363281,-1.2525024,-0.1038208,4.109375,-13.859375,-9.78125
1695895609256,0.20117188,-0.92974854,-0.062805176,-7.859375,-5.703125,-5.21875
1695895609299,0.27124023,-0.6760864,0.031188965,2.953125,-0.953125,-1.1875
1695895609349,0.15405273,-0.7280884,-0.031066895,7.0,-6.0625,-1.90625
1695895609376,0.18261719,-0.67144775,0.023864746,4.6875,-6.796875,-2.4375
1695895609419,0.11743164,-0.6213989,0.0028686523,6.671875,-10.734375,-1.890625
1695895609466,0.080078125,-0.7246704,0.04437256,8.28125,-6.59375,-3.546875
1695895609495,0.11328125,-0.85601807,0.0446167,8.359375,-4.453125,-3.859375
1695895609539,0.16357422,-0.97540283,-0.02154541,4.234375,-3.734375,-4.875
1695895609571,0.20483398,-1.1338501,-0.05670166,2.265625,1.53125,-14.25
1695895609615,0.38623047,-1.4646606,-0.34991455,3.84375,-9.8125,-12.875
1695895609659,0.34960938,-1.6043091,-0.24151611,1.046875,-9.421875,-12.421875
1695895609691,-0.14819336,-0.9998169,-0.31866455,-11.6875,9.65625,-7.484375
1695895609736,0.29785156,-0.8052368,-0.3225708,3.09375,20.984375,-0.984375
1695895609779,0.33618164,-1.3504028,-0.21270752,2.109375,4.5,2.046875
1695895609809,0.14941406,-0.8916626,-0.08892822,-12.53125,3.546875,6.25
1695895609855,0.020019531,-0.77349854,-0.08892822,-5.390625,1.125,1.421875
1695895609899,0.03857422,-0.82159424,-0.039367676,-8.140625,6.796875,1.015625
1695895609931,0.038085938,-0.73883057,-0.044006348,-9.796875,3.359375,0.859375
1695895609975,0.06616211,-0.72857666,-0.05621338,-7.59375,0.6875,2.703125
1695895610007,0.09082031,-0.7581177,-0.059631348,-1.25,-2.15625,1.171875
1695895610050,0.080322266,-0.8587036,0.0065307617,6.140625,-3.59375,-2.921875
1695895610095,0.056396484,-0.9758911,0.08929443,1.96875,-6.171875,-6.359375
1695895610126,0.07763672,-1.1624146,0.034362793,-0.453125,-0.53125,-7.375
1695895610171,0.12402344,-1.2061157,-0.034240723,-8.0625,-0.40625,-1.90625
1695895610215,0.037597656,-1.2857056,-0.26226807,-10.109375,-7.578125,4.296875
1695895610245,0.44628906,-1.3140259,-0.18267822,-15.90625,-15.65625,1.046875
1695895610292,0.40771484,-1.3042603,0.036071777,-8.578125,-10.859375,7.546875
1695895610320,-7.324219E-4,-1.008606,-0.3027954,-19.546875,-16.765625,0.734375
1695895610366,0.5004883,-0.8743286,-0.026916504,-1.890625,-8.46875,1.53125
1695895610411,0.040527344,-1.1604614,0.04827881,-12.296875,-14.53125,-2.828125
1695895610441,-0.0146484375,-0.7398071,0.08343506,-11.25,-1.390625,-11.515625
1695895610485,0.21289062,-0.6436157,0.11077881,-2.84375,-5.0,-1.171875
1695895610532,0.1315918,-0.723938,0.05999756,-0.59375,-10.875,-3.59375
1695895610560,0.09423828,-0.66607666,0.13519287,2.4375,-7.421875,-1.21875
1695895610608,0.10229492,-0.7180786,0.10809326,4.875,-10.09375,-0.96875
1695895610650,0.1237793,-0.9038696,0.21478271,8.6875,-6.265625,-1.15625
1695895610680,0.022460938,-1.0598755,0.18426514,3.5,-5.21875,-2.5625
1695895610725,0.025634766,-1.076477,0.16668701,0.96875,-2.3125,-9.15625
1695895610756,0.1081543,-1.1860962,-0.04815674,-1.203125,-5.625,-10.421875
1695895610799,0.44189453,-1.3899536,-0.044006348,-11.234375,-27.34375,-2.71875
1695895610846,0.040527344,-1.5596313,-0.097717285,18.75,13.734375,-1.859375
1695895610876,-0.17089844,-0.99835205,-0.16680908,-10.8125,22.765625,-9.4375
1695895610919,0.40063477,-0.9607544,-0.029846191,-2.0625,10.171875,3.671875
1695895610967,0.03955078,-1.1790161,-0.008117676,5.953125,13.5,6.84375
1695895610995,0.029785156,-0.83917236,0.0524292,-4.859375,18.265625,10.515625
1695895611040,0.052734375,-0.74346924,0.018737793,5.265625,17.890625,11.515625
1695895611112,-0.031982422,-0.80010986,0.043884277,4.046875,17.734375,4.9375
1695895611120,0.061279297,-0.6760864,-0.003479004,0.03125,17.4375,3.15625
1695895611158,0.10180664,-0.6897583,-0.0335083,-4.671875,5.25,3.53125
1695895611189,0.0031738281,-0.8167114,-0.02178955,-3.046875,2.09375,-0.015625
1695895611236,0.01977539,-0.88531494,0.1383667,4.765625,4.109375,-4.578125
1695895611279,0.075927734,-1.0249634,0.124938965,4.59375,5.859375,0.390625
1695895611310,0.08105469,-1.2317505,0.004333496,0.5625,-5.515625,2.6875
1695895611358,0.087402344,-1.5073853,-0.06109619,0.65625,-2.03125,7.640625
1695895611400,0.40942383,-1.3963013,-0.23248291,-10.875,-14.8125,8.78125
1695895611430,0.5625,-1.0906372,-0.016906738,12.375,7.78125,10.78125
1695895611476,-0.08154297,-1.0183716,-0.18341064,-5.390625,-6.21875,0.578125
1695895611520,0.32299805,-0.8074341,-0.06573486,-0.453125,-2.59375,-6.875
1695895611549,0.2553711,-1.1426392,-0.07574463,-9.0,-11.609375,-3.640625
1695895611596,-0.019042969,-0.85162354,-0.030578613,-10.390625,-3.65625,-7.40625
1695895611669,0.14501953,-0.71173096,0.026550293,-1.4375,1.0625,-5.28125
1695895611673,0.26245117,-0.78863525,0.054626465,6.3125,1.234375,-1.578125
1695895611716,0.1328125,-0.72906494,0.06048584,3.875,-5.0,0.390625
1695895611746,0.08154297,-0.68218994,0.047790527,6.171875,-5.5625,-0.78125
1695895611790,0.08178711,-0.79107666,0.078063965,8.71875,-0.84375,-3.296875
1695895611836,0.07373047,-0.8911743,0.097839355,10.078125,-3.703125,-2.21875
1695895611865,0.004638672,-1.031311,0.07147217,5.75,-9.71875,-2.65625
1695895611910,0.09301758,-1.1687622,0.078552246,6.203125,8.53125,-7.921875
1695895611939,0.24169922,-1.2883911,-0.19976807,4.671875,-8.625,-4.46875
1695895611987,0.50341797,-1.3491821,-0.22955322,9.390625,-17.453125,0.03125
1695895612046,-0.17163086,-1.4490356,-0.19805908,1.375,-9.171875,4.609375
1695895612059,0.026367188,-0.6851196,-0.333313,0.421875,30.0625,3.546875
1695895612108,0.46289062,-1.1272583,-0.21612549,20.859375,9.953125,7.90625
1695895612160,0.19970703,-1.3325806,-0.10357666,-8.984375,-3.78125,9.09375
1695895612180,0.103271484,-0.78790283,-0.09869385,-5.765625,3.8125,12.875
1695895612225,0.076171875,-0.93414307,-0.04107666,0.75,2.234375,2.734375
1695895612300,-0.018066406,-0.82159424,-0.0725708,-6.25,7.578125,3.59375
1695895612308,-0.036376953,-0.673645,-0.0022583008,-4.484375,14.03125,0.015625
1695895612344,0.034423828,-0.70684814,-0.085754395,-9.1875,22.703125,-0.5
1695895612375,0.12963867,-0.6836548,-0.07550049,-7.65625,15.890625,1.0
1695895612420,0.07006836,-0.76348877,0.015075684,-0.703125,10.609375,-3.15625
1695895612465,0.15991211,-0.95391846,0.08514404,3.734375,7.9375,-5.484375
1695895612497,0.27172852,-1.190979,6.713867E-4,-0.265625,2.046875,-1.40625
1695895612539,0.24267578,-1.1980591,-0.07989502,-1.390625,-8.359375,8.125
1695895612586,0.008300781,-1.4302368,-0.29449463,-2.3125,-6.6875,5.625
1695895612614,0.4025879,-1.2659302,-0.255188,-15.96875,4.40625,-5.125
1695895612660,0.57543945,-1.0335083,-0.059387207,-6.625,-14.328125,9.25
1695895612705,-0.1171875,-0.98028564,-0.34429932,-15.6875,-27.671875,-2.46875
1695895612734,0.2854004,-0.8123169,-0.17095947,-2.28125,-9.25,-11.25
1695895612779,0.33862305,-1.234436,-0.11236572,-10.8125,-22.71875,-9.015625
1695895612809,0.07421875,-0.9168091,-0.0012817383,-15.8125,-27.15625,-8.625
1695895612855,0.18310547,-0.73101807,0.11419678,-7.84375,-19.0625,-3.390625
1695895612900,0.079589844,-0.7971802,0.11541748,-0.390625,-17.921875,-3.453125
1695895612931,0.0546875,-0.71710205,0.016296387,0.46875,-11.921875,-2.890625
1695895612975,0.075683594,-0.62945557,0.105651855,4.640625,-12.140625,-4.203125
1695895613023,0.060302734,-0.81695557,0.17132568,7.765625,-11.234375,-2.5
1695895613049,0.0107421875,-0.9277954,0.12322998,5.6875,-3.71875,-1.6875
1695895613095,0.010986328,-0.9981079,0.13446045,3.90625,-2.40625,-6.890625
1695895613124,0.041748047,-1.1514282,-0.024963379,4.890625,-5.25,-12.203125
1695895613169,0.37597656,-1.364563,-0.050354004,-7.296875,-20.078125,-6.734375
1695895613216,0.05053711,-1.5657349,-0.13067627,7.28125,2.015625,-1.640625
1695895613245,-0.19213867,-1.0010376,-0.25299072,-10.65625,21.65625,-8.671875
1695895613290,0.35742188,-0.9338989,-0.1482544,-3.5625,17.609375,4.640625
1695895613334,0.09887695,-1.2649536,-0.08795166,5.6875,17.671875,1.0625
1695895613365,0.025634766,-0.92266846,0.050964355,-2.171875,15.375,6.859375
1695895613410,0.061279297,-0.8735962,0.043151855,-0.796875,12.046875,6.40625
1695895613459,-0.076416016,-0.84210205,-0.003479004,2.078125,21.0,6.40625
1695895613485,0.009033203,-0.68878174,0.006286621,4.1875,19.015625,5.34375
1695895613532,0.10644531,-0.6760864,0.008728027,-0.8125,11.546875,7.34375
1695895613561,0.10107422,-0.6968384,-0.0256958,-1.3125,11.203125,8.5
1695895613606,0.0048828125,-0.8140259,0.11541748,11.9375,9.078125,6.25
1695895613650,0.071777344,-0.94732666,0.020202637,4.75,7.765625,6.578125
1695895613679,0.12939453,-1.0618286,0.06365967,2.46875,0.453125,9.203125
1695895613726,0.045410156,-1.2478638,-0.3526001,1.390625,-8.515625,10.734375
1695895613771,0.5830078,-1.3484497,0.039733887,-1.15625,-29.125,14.46875
1695895613800,0.4465332,-1.4241333,-0.21270752,18.8125,14.1875,20.65625
1695895613845,0.099121094,-0.8657837,-0.36846924,-6.75,-5.34375,4.203125
1695895613890,0.60668945,-0.7925415,-0.082092285,19.484375,-0.921875,3.84375
1695895613920,0.2475586,-1.1699829,-0.11138916,3.171875,-13.84375,0.78125
1695895613965,0.16040039,-0.7527466,-0.14874268,-4.5,-0.359375,-4.0625
1695895613996,0.24804688,-0.84210205,0.0067749023,6.046875,-0.390625,-3.515625
1695895614039,0.14355469,-0.86602783,-0.07891846,-1.46875,-3.125,-1.328125
1695895614085,0.22387695,-0.5786743,-0.06817627,0.953125,5.0,0.109375
1695895614116,0.084228516,-0.53302,-0.06842041,5.796875,2.265625,-1.390625
1695895614159,0.11791992,-0.43536377,-0.007873535,7.34375,9.15625,-1.40625
1695895614205,0.05908203,-0.30548096,-0.15411377,10.0,9.6875,0.90625
1695895614236,0.026367188,-0.20074463,-0.093566895,9.28125,20.296875,-3.78125
1695895614280,0.24414062,-0.18585205,-0.19830322,17.84375,-1.34375,3.828125
1695895614310,0.35913086,-0.550354,-0.25933838,28.125,-46.671875,4.21875
1695895614358,0.115722656,-1.4309692,-0.019836426,41.828125,-47.65625,-33.59375
1695895614399,0.09350586,-2.0,-0.3237915,-24.984375,4.375,-35.703125
1695895614430,1.4614258,-2.0,-0.7036743,-18.359375,-1.171875,-12.875
1695895614490,0.15771484,-2.0,-0.19146729,-15.859375,-9.1875,0.546875
1695895614520,0.122802734,-1.6226196,-0.24908447,-36.515625,38.53125,-10.921875
1695895614549,0.27075195,-0.24249268,-0.15875244,-75.46875,11.15625,16.359375
1695895614596,-0.28759766,0.6552124,-0.32110596,-44.109375,-2.1875,8.6875
1695895614641,-0.09301758,0.30511475,-0.024475098,-2.625,2.828125,-11.84375
1695895614671,0.09375,-0.057434082,-0.13653564,17.15625,4.25,-13.203125
1695895614716,0.17626953,-0.116760254,-0.0049438477,10.953125,-8.890625,0.171875
1695895614745,-0.015625,0.061462402,-0.020568848,5.796875,-12.21875,-2.3125
1695895614789,-0.09057617,-0.010314941,0.043151855,7.296875,-3.234375,-3.453125
1695895614850,0.055908203,-0.093322754,-0.049621582,-3.03125,-7.140625,-1.265625
1695895614865,-0.048339844,-0.0029907227,0.14349365,-9.65625,-16.1875,1.078125
1695895614909,-0.07543945,-0.10675049,-0.16485596,18.890625,-4.828125,2.984375
1695895614955,0.63378906,-2.0,-0.8154907,38.234375,49.703125,-74.203125
1695895614986,0.08935547,-2.0,-0.013000488,-13.3125,-29.703125,14.984375
1695895615030,-0.6464844,-1.9990845,0.53240967,-42.53125,12.734375,-23.859375
1695895615076,0.7729492,-1.8220825,-0.394104,-16.15625,24.40625,-4.21875
1695895615106,0.578125,-1.3760376,-0.20367432,-18.5625,-6.84375,7.578125
1695895615153,-0.37036133,-0.77789307,0.22381592,-18.421875,-2.03125,4.21875
1695895615180,-0.13110352,-0.2966919,-0.06939697,-24.859375,0.65625,-8.5625
1695895615229,0.2121582,-0.45806885,0.04095459,-0.171875,3.484375,7.421875
1695895615269,-0.13256836,-0.93756104,0.062927246,7.5625,1.15625,-9.453125
1695895615300,0.053466797,-0.7229614,-0.010559082,-2.703125,10.171875,-2.4375
1695895615345,0.091796875,-0.68341064,0.124938965,10.515625,4.21875,4.578125
1695895615405,-0.075683594,-1.020813,0.06707764,11.875,1.078125,-2.765625
1695895615436,0.14941406,-0.9260864,0.055603027,-2.203125,-5.0,2.59375
1695895615466,0.1784668,-0.8960571,0.07928467,-1.046875,-24.890625,8.046875
1695895615509,0.29858398,-1.0083618,-0.16412354,-15.265625,-57.6875,14.296875
1695895615539,0.39770508,-1.4431763,0.07684326,18.265625,-22.515625,16.328125
1695895615585,0.45043945,-1.0117798,-0.041809082,14.203125,-49.3125,18.03125
1695895615616,0.12988281,-0.9937134,-0.11212158,2.75,-29.78125,1.359375
1695895615659,0.37402344,-1.0696411,0.02508545,8.15625,-37.515625,-1.671875
1695895615705,0.17529297,-1.0459595,-0.050598145,5.765625,-44.875,-7.53125
1695895615736,0.23461914,-0.78253174,0.0048217773,13.765625,-35.515625,-3.453125
1695895615779,0.18530273,-0.76446533,0.043640137,11.90625,-41.015625,-1.921875
1695895615827,0.20336914,-0.71759033,0.14666748,15.75,-34.671875,-4.84375
1695895615855,0.2253418,-0.7017212,0.22357178,15.5625,-37.328125,-4.640625
1695895615901,0.15844727,-0.7737427,0.17425537,10.40625,-32.734375,-4.203125
1695895615931,0.08300781,-0.8982544,0.1239624,13.875,-31.046875,-7.859375
1695895615978,0.28442383,-0.8899536,0.113220215,5.890625,-39.53125,-17.734375
1695895616019,0.16040039,-1.0935669,0.07513428,19.203125,-44.28125,-20.609375
1695895616049,-0.2241211,-1.437561,-0.058410645,29.484375,-25.375,-39.0625
1695895616098,0.18969727,-1.3557739,0.009216309,-5.859375,-14.15625,-30.34375
1695895616139,0.49487305,-0.9338989,-0.10406494,-17.0625,-21.0,-6.0625
1695895616170,0.123291016,-0.82891846,-0.105285645,-2.09375,-30.453125,-4.625
1695895616218,0.14428711,-0.94195557,-0.1326294,-4.53125,-39.265625,-7.296875
1695895616260,0.35864258,-1.1028442,-0.105041504,1.796875,-38.234375,-0.875
1695895616289,0.24658203,-0.97320557,-0.10015869,-2.984375,-53.15625,4.40625
1695895616338,-2.4414062E-4,-0.8213501,-0.06329346,4.4375,-55.109375,6.28125
1695895616366,0.033691406,-0.9534302,-3.0517578E-4,5.6875,-59.59375,-3.65625
1695895616409,0.0073242188,-0.93292236,0.06561279,4.203125,-57.953125,-0.78125
1695895616455,-0.1303711,-0.87042236,0.11639404,7.578125,-47.546875,-4.09375
1695895616486,-0.08544922,-0.9089966,0.13494873,8.859375,-45.3125,-3.0625
1695895616529,0.13793945,-0.9631958,0.14300537,7.53125,-44.390625,5.734375
1695895616578,0.15527344,-1.0178833,0.1227417,1.21875,-47.078125,13.8125
1695895616605,-0.057128906,-0.9834595,-3.0517578E-4,-0.75,-40.21875,10.328125
1695895616649,0.21533203,-1.0083618,0.054382324,5.1875,-44.453125,18.125
1695895616680,0.35205078,-1.4475708,-0.41705322,7.65625,-86.953125,23.609375
1695895616726,0.9187012,-1.0818481,-0.1951294,11.15625,-60.90625,18.9375
1695895616770,0.09814453,-0.7925415,-0.040100098,25.109375,-58.40625,20.65625
1695895616801,-0.26464844,-1.1856079,-0.19000244,30.953125,-51.390625,-27.4375
1695895616845,0.76293945,-1.1079712,-0.061340332,23.3125,-43.671875,2.078125
1695895616890,0.23022461,-0.9824829,-0.023010254,17.53125,-56.90625,1.25
1695895616921,-0.09814453,-0.63946533,0.025817871,11.9375,-44.0625,-8.75
1695895616965,0.26635742,-0.65509033,0.08709717,20.625,-36.640625,-4.765625
1695895617009,0.19433594,-0.81988525,0.08660889,19.21875,-30.71875,-8.78125
1695895617040,0.18164062,-0.89508057,-0.06036377,4.421875,-21.234375,-10.421875
1695895617085,0.47460938,-0.8755493,0.012634277,7.234375,-9.203125,-11.53125
1695895617116,0.10058594,-0.85943604,-0.06304932,6.28125,-12.3125,-25.3125
1695895617160,-0.17114258,-1.1946411,-0.53912354,13.796875,-6.765625,-38.515625
1695895617206,0.86376953,-1.3989868,-0.10479736,10.5625,-22.171875,-20.078125
1695895617236,0.18286133,-1.3198853,-0.1560669,-26.203125,-38.78125,18.59375
1695895617280,-0.32543945,-0.38336182,-0.11553955,-15.609375,-12.234375,-26.1875
1695895617325,0.2668457,-0.97198486,-0.13287354,12.078125,-14.75,-9.609375
1695895617355,0.34106445,-1.1748657,-0.14239502,0.046875,-32.78125,-5.125
1695895617401,-0.17797852,-0.67144775,-0.15484619,-4.9375,-30.703125,-11.03125
1695895617474,0.1652832,-0.6663208,-0.1873169,9.84375,-31.546875,-2.828125
1695895617480,0.19116211,-1.0122681,-0.24224854,8.421875,-50.140625,6.046875
1695895617521,0.15307617,-0.7131958,-0.061828613,5.375,-35.296875,11.234375
1695895617550,-0.0107421875,-0.032043457,0.08758545,-8.625,-31.234375,22.90625
1695895617595,-0.3918457,0.066589355,-0.2354126,10.375,-10.078125,1.40625
1695895617641,0.055908203,-0.83258057,-0.222229,25.0,15.75,-28.25
1695895617669,0.32617188,-1.4143677,-0.124572754,5.046875,-34.40625,-9.125
1695895617716,0.41381836,-2.0,-0.26324463,-6.703125,-15.171875,-9.78125
1695895617759,-0.0847168,-2.0,-0.4505005,-37.125,-14.53125,-14.359375
1695895617790,0.7878418,-2.0,-0.093566895,-13.625,0.4375,-3.703125
1695895617835,-0.017578125,-1.7168579,-0.10675049,-26.046875,2.609375,4.640625
1695895617883,0.10595703,-0.39434814,-0.20709229,-41.265625,33.578125,22.5625
1695895617912,0.19042969,0.31854248,-0.13214111,-26.015625,14.1875,3.234375
1695895617956,-0.09277344,0.31219482,-0.17681885,5.84375,-15.828125,3.875
1695895617986,-0.022949219,0.027038574,-0.21832275,17.078125,-19.6875,3.9375
1695895618029,0.0847168,0.020690918,-0.12506104,21.03125,-17.34375,6.59375
1695895618076,-0.06933594,-0.03692627,-0.042541504,18.515625,-14.453125,3.203125
1695895618106,-0.07861328,-0.05328369,-0.014953613,14.625,-4.3125,0.15625
1695895618150,-0.008056641,-0.053771973,0.12762451,9.21875,-14.546875,3.53125
1695895618197,0.06201172,-0.43927002,-0.42022705,31.484375,0.421875,-5.4375
1695895618226,0.11328125,-2.0,-1.810852,100.5625,-37.640625,-41.53125
1695895618270,0.97021484,-2.0,0.009460449,4.125,-17.640625,29.0
1695895618300,-0.091308594,-1.9732056,-0.1873169,-27.921875,-6.703125,-6.125
1695895618362,0.31103516,-1.8840942,-0.07159424,3.515625,2.296875,6.765625
1695895618389,0.20703125,-1.0315552,-0.2798462,-39.78125,6.453125,11.40625
1695895618419,-0.14501953,-0.37408447,-0.15118408,-28.4375,7.234375,3.015625
1695895618465,-0.0034179688,-0.18634033,-0.08404541,-16.71875,14.328125,-1.921875
1695895618509,0.0546875,-0.49713135,-0.12652588,-7.125,3.28125,0.109375
1695895618540,-0.09301758,-0.74713135,-0.17633057,-9.421875,2.765625,-15.3125
1695895618586,0.1821289,-0.86016846,-0.21295166,-6.046875,2.34375,-7.75
1695895618629,0.15625,-1.0618286,-0.031799316,8.21875,8.21875,1.171875
1695895618659,-0.20117188,-1.0740356,-0.04864502,3.1875,17.046875,-1.671875
1695895618706,0.1381836,-1.1433716,0.03289795,4.828125,25.0625,0.59375
1695895618736,0.26464844,-1.2647095,0.070495605,2.5,10.59375,2.484375
1695895618779,0.08569336,-1.0552368,0.017028809,-4.0,11.765625,5.921875
1695895618826,0.05859375,-0.81329346,0.053894043,-1.296875,16.59375,8.109375
1695895618855,0.14672852,-0.77545166,-0.061584473,5.359375,12.078125,9.421875
1695895618899,0.2265625,-0.82769775,-0.20391846,17.84375,-7.171875,12.59375
1695895618947,0.14477539,-1.1099243,0.04119873,22.015625,-9.546875,-1.125
1695895618974,-0.18725586,-1.2959595,0.10394287,2.328125,6.5625,-4.890625
1695895619020,0.010498047,-0.85040283,0.08709717,-6.359375,20.34375,5.53125
1695895619064,0.1315918,-0.88409424,0.051208496,2.234375,5.59375,8.421875
1695895619097,-0.061035156,-1.0178833,0.061706543,2.03125,6.359375,-0.9375
1695895619139,0.16088867,-1.0859985,0.022155762,-5.265625,-0.3125,2.140625
1695895619170,0.2163086,-1.0610962,-0.1182251,-5.546875,-9.953125,16.078125
1695895619219,0.19262695,-1.1773071,-0.43463135,-1.15625,-20.890625,19.484375
1695895619260,0.7236328,-1.4273071,-0.20098877,-7.1875,-22.984375,9.203125
1695895619289,0.39282227,-1.4873657,-0.39361572,-13.578125,-37.453125,11.5
1695895619339,0.14257812,-0.9116821,-0.31939697,-15.21875,-21.65625,2.4375
1695895619380,0.44213867,-0.91192627,-0.08502197,4.5,-20.828125,-8.53125
1695895619411,0.19360352,-1.1148071,-0.09844971,-8.5,-19.40625,-4.09375
1695895619459,0.34472656,-0.76690674,-0.0725708,-11.53125,-21.96875,-2.0625
1695895619485,0.18823242,-0.7632446,0.018005371,-1.96875,-20.421875,-4.265625
1695895619530,0.13623047,-0.7168579,0.07318115,-1.296875,-13.078125,-5.953125
1695895619578,0.15454102,-0.66729736,0.09075928,-0.5625,-11.46875,-4.015625
1695895619606,0.11621094,-0.70928955,-0.002746582,-2.6875,-12.28125,-5.265625
1695895619648,0.13964844,-0.75982666,0.07562256,-3.265625,-12.40625,-8.3125
1695895619697,0.20458984,-0.8328247,0.1281128,2.46875,-4.5,-6.78125
1695895619726,0.2211914,-1.0669556,0.18841553,2.46875,-5.1875,-4.71875
1695895619769,0.21289062,-1.0818481,0.32635498,-3.59375,-3.71875,-11.53125
1695895619816,0.10888672,-1.0552368,-0.116760254,5.015625,-4.796875,-10.71875
1695895619844,0.24902344,-1.3113403,0.040222168,6.734375,-6.609375,-19.609375
1695895619890,-0.017578125,-1.6629028,-0.15240479,11.4375,24.109375,-22.828125
1695895619921,-0.09765625,-1.0542603,-0.22442627,-10.328125,41.375,-20.234375
1695895619965,0.28393555,-1.0881958,-0.013244629,-0.140625,42.28125,-8.640625
1695895620012,-2.4414062E-4,-1.0388794,0.024353027,-2.96875,33.734375,-3.328125
1695895620039,0.16894531,-0.87384033,-0.03375244,-6.75,20.0625,-3.046875
