# Sensor type: Respeck
# Activity type: Standing
# Activity subtype: Talking
# Subject id: s2030861
# Notes: 
timestamp,accel_x,accel_y,accel_z,gyro_x,gyro_y,gyro_z
1695655977808,-0.11035156,-0.97857666,0.30804443,0.359375,3.078125,-0.9375
1695655977838,-0.11376953,-0.97076416,0.3078003,-0.0625,5.390625,-2.03125
1695655977882,-0.119384766,-0.95928955,0.30438232,1.59375,5.125,-1.796875
1695655977926,-0.115722656,-0.94610596,0.30706787,3.140625,2.484375,-1.046875
1695655977961,-0.12792969,-0.9517212,0.293396,4.328125,2.265625,-0.375
1695655977999,-0.12890625,-0.9607544,0.28240967,2.265625,3.703125,-0.046875
1695655978046,-0.12158203,-0.97613525,0.2868042,3.4375,3.21875,-0.296875
1695655978084,-0.11206055,-0.95147705,0.2814331,3.1875,3.1875,0.296875
1695655978121,-0.119384766,-0.9793091,0.2518921,3.390625,4.453125,0.5
1695655978151,-0.107666016,-0.9595337,0.23626709,2.65625,2.8125,0.953125
1695655978196,-0.12426758,-0.93951416,0.2975464,1.328125,-3.0,1.828125
1695655978241,-0.12548828,-0.95269775,0.27386475,-3.34375,-4.640625,1.609375
1695655978271,-0.10644531,-0.9656372,0.28704834,-1.828125,-4.15625,1.765625
1695655978317,-0.11303711,-0.9741821,0.27142334,-1.609375,-2.15625,0.796875
1695655978361,-0.095947266,-0.9795532,0.26531982,-1.3125,-1.078125,0.25
1695655978391,-0.122802734,-0.9717407,0.2616577,-0.421875,-1.125,-0.328125
1695655978437,-0.11328125,-0.9656372,0.27825928,-1.25,0.125,-0.5625
1695655978481,-0.1184082,-0.9595337,0.27825928,-1.640625,0.09375,-0.984375
1695655978511,-0.1171875,-0.95635986,0.2670288,-2.484375,-0.34375,-0.828125
1695655978558,-0.11694336,-0.97735596,0.28070068,-2.421875,0.71875,-1.171875
1695655978587,-0.111816406,-0.9631958,0.28070068,-2.5625,0.53125,-0.953125
1695655978631,-0.12548828,-0.9578247,0.2958374,-1.59375,1.578125,-0.453125
1695655978678,-0.1171875,-0.9631958,0.2831421,-2.15625,0.578125,-0.5625
1695655978710,-0.119628906,-0.96173096,0.30096436,-0.421875,0.765625,-0.234375
1695655978755,-0.1328125,-0.97198486,0.30291748,-0.78125,1.59375,0.390625
1695655978795,-0.13476562,-0.9468384,0.30389404,-0.8125,1.171875,0.03125
1695655978826,-0.12866211,-0.9614868,0.29632568,0.0,1.46875,0.375
1695655978872,-0.12011719,-0.96173096,0.2850952,0.171875,0.859375,0.734375
1695655978917,-0.119628906,-0.96221924,0.28460693,-0.828125,0.609375,0.734375
1695655978946,-0.12475586,-0.9614868,0.3012085,-0.234375,0.265625,0.625
1695655978992,-0.1237793,-0.9524536,0.3012085,-0.6875,0.828125,0.984375
1695655979070,-0.12597656,-0.9495239,0.3060913,-0.9375,0.359375,1.078125
1695655979075,-0.13598633,-0.9536743,0.31414795,0.359375,0.359375,1.609375
1695655979111,-0.114746094,-0.94488525,0.29364014,-2.9375,-0.4375,0.921875
1695655979142,-0.11816406,-0.9624634,0.2929077,-1.609375,-0.4375,1.078125
1695655979187,-0.118652344,-0.9631958,0.2994995,-2.265625,0.515625,0.90625
1695655979231,-0.12890625,-0.9451294,0.31195068,-1.875,0.765625,0.390625
1695655979266,-0.11425781,-0.95098877,0.3060913,-3.15625,-0.96875,-0.03125
1695655979309,-0.13427734,-0.95513916,0.32391357,-1.53125,-0.90625,-0.421875
1695655979358,-0.13745117,-0.94732666,0.3307495,-0.359375,0.9375,-0.15625
1695655979381,-0.122558594,-0.9456177,0.3222046,-0.5625,0.671875,0.03125
1695655979442,-0.12402344,-0.9446411,0.307312,-0.921875,1.234375,0.03125
1695655979491,-0.12207031,-0.9585571,0.33026123,0.484375,1.265625,0.34375
1695655979500,-0.111816406,-0.9475708,0.31732178,-0.171875,1.25,0.296875
1695655979546,-0.12182617,-0.9487915,0.31292725,-0.125,1.53125,0.46875
1695655979592,-0.110839844,-0.9529419,0.3139038,-0.671875,1.046875,0.515625
1695655979625,-0.12475586,-0.9729614,0.3131714,-1.109375,1.59375,0.75
1695655979668,-0.1184082,-0.93218994,0.33563232,0.984375,2.09375,0.59375
1695655979697,-0.11694336,-0.95758057,0.3209839,-1.78125,0.625,0.4375
1695655979743,-0.11987305,-0.942688,0.32318115,-0.59375,0.28125,0.53125
1695655979788,-0.11767578,-0.94781494,0.3295288,0.578125,0.953125,0.625
1695655979816,-0.13110352,-0.9558716,0.30975342,-0.28125,1.234375,0.640625
1695655979863,-0.11254883,-0.9561157,0.32196045,-0.140625,0.921875,0.28125
1695655979908,-0.10888672,-0.95562744,0.3007202,-0.6875,1.171875,0.390625
1695655979937,-0.10668945,-0.9536743,0.29559326,-0.375,0.125,0.6875
1695655979982,-0.119140625,-0.96661377,0.32733154,0.5625,1.15625,0.8125
1695655980027,-0.12890625,-0.9673462,0.32781982,0.359375,2.0625,1.015625
1695655980058,-0.11621094,-0.9351196,0.307312,-0.375,2.25,0.734375
1695655980103,-0.11303711,-0.94488525,0.32196045,-0.859375,0.71875,0.015625
1695655980131,-0.12841797,-0.9585571,0.3180542,-0.671875,1.03125,-0.171875
1695655980176,-0.11621094,-0.9590454,0.3114624,-1.03125,1.078125,-0.484375
1695655980220,-0.1081543,-0.94366455,0.30438232,-2.53125,1.125,-0.984375
1695655980250,-0.11010742,-0.96588135,0.32513428,-1.703125,1.75,-1.296875
1695655980295,-0.13476562,-0.9480591,0.3336792,-0.578125,1.234375,-0.484375
1695655980343,-0.12011719,-0.94488525,0.33026123,-0.5625,0.484375,-0.46875
1695655980371,-0.1237793,-0.96173096,0.32781982,-2.078125,1.1875,-0.515625
1695655980418,-0.12475586,-0.94732666,0.3312378,-0.359375,1.515625,-0.59375
1695655980461,-0.12207031,-0.9522095,0.33465576,-0.375,2.0,-0.421875
1695655980491,-0.111083984,-0.95196533,0.32489014,-0.46875,2.59375,-0.25
1695655980536,-0.115478516,-0.9331665,0.32611084,-1.140625,1.46875,0.171875
1695655980581,-0.13305664,-0.9619751,0.34075928,0.484375,-0.125,0.65625
1695655980611,-0.1262207,-0.9439087,0.32855225,0.359375,2.09375,0.046875
1695655980657,-0.11987305,-0.94317627,0.3287964,0.046875,0.359375,-0.328125
1695655980686,-0.13208008,-0.9402466,0.3307495,-0.546875,0.40625,-0.3125
1695655980733,-0.12207031,-0.96417236,0.32928467,-0.875,0.03125,-0.796875
1695655980776,-0.125,-0.9495239,0.33636475,-0.40625,0.203125,-1.0
1695655980804,-0.12060547,-0.9663696,0.31048584,-0.5,2.140625,-1.125
1695655980850,-0.13769531,-0.9783325,0.33880615,4.125,4.015625,-0.5
1695655980894,-0.1159668,-0.96051025,0.3024292,1.109375,0.84375,-0.484375
1695655980925,-0.14355469,-0.942688,0.33563232,4.140625,2.375,-0.5
1695655980971,-0.13647461,-0.9417114,0.3163452,5.5,3.640625,-0.078125
1695655981017,-0.13183594,-0.9295044,0.2982788,1.765625,0.75,-0.421875
1695655981045,-0.14135742,-0.93927,0.3390503,0.625,2.265625,-0.109375
1695655981092,-0.11450195,-0.9429321,0.29486084,-1.859375,0.703125,-0.046875
1695655981122,-0.13500977,-0.9529419,0.32733154,-1.640625,-0.3125,0.359375
1695655981183,-0.12036133,-0.960022,0.29901123,-1.984375,-1.515625,0.25
1695655981217,-0.11743164,-0.9661255,0.32489014,-1.890625,-1.84375,0.28125
1695655981242,-0.14135742,-0.9505005,0.30267334,-1.03125,-0.390625,0.40625
1695655981286,-0.13696289,-0.95513916,0.32562256,0.140625,0.1875,0.25
1695655981332,-0.13989258,-0.96099854,0.32440186,0.5625,-0.421875,0.609375
1695655981361,-0.12817383,-0.9338989,0.3085327,-1.96875,0.875,-0.296875
1695655981408,-0.13842773,-0.9631958,0.3456421,0.640625,0.890625,0.375
1695655981453,-0.12841797,-0.93170166,0.32659912,-1.046875,0.703125,0.046875
1695655981481,-0.1381836,-0.9522095,0.322937,0.0625,1.046875,0.46875
1695655981527,-0.12939453,-0.94415283,0.33148193,-1.40625,0.734375,-0.09375
1695655981604,-0.13305664,-0.94781494,0.322937,-0.609375,1.765625,0.265625
1695655981610,-0.13793945,-0.94195557,0.32269287,-1.59375,1.15625,0.0625
1695655981648,-0.14428711,-0.95196533,0.32781982,-0.6875,0.3125,0.640625
1695655981676,-0.1340332,-0.9529419,0.3373413,-0.078125,1.390625,0.34375
1695655981721,-0.14257812,-0.9463501,0.33172607,0.34375,1.78125,0.984375
1695655981767,-0.12963867,-0.9505005,0.324646,1.171875,1.296875,0.921875
1695655981800,-0.1328125,-0.9458618,0.32855225,1.578125,2.40625,0.984375
1695655981843,-0.12426758,-0.9573364,0.31097412,1.203125,2.265625,1.046875
1695655981887,-0.12817383,-0.958313,0.31756592,1.328125,1.78125,1.09375
1695655981923,-0.12548828,-0.95098877,0.3217163,-0.03125,1.125,0.828125
1695655981962,-0.11791992,-0.95196533,0.3241577,-2.609375,2.75,-0.234375
1695655982008,-0.1328125,-0.9795532,0.34661865,-0.296875,2.484375,0.359375
1695655982036,-0.12084961,-0.9421997,0.33050537,-2.765625,3.1875,-0.953125
1695655982080,-0.1274414,-0.9373169,0.3180542,-2.015625,1.984375,-0.703125
1695655982127,-0.13476562,-0.9336548,0.3456421,-3.546875,0.1875,-1.390625
1695655982156,-0.12695312,-0.9541626,0.33685303,-3.4375,1.65625,-0.59375
1695655982215,-0.14453125,-0.94976807,0.3295288,-3.84375,-0.75,0.0
1695655982229,-0.12060547,-0.95391846,0.35906982,-1.9375,-0.40625,0.078125
1695655982275,-0.12182617,-0.9319458,0.33514404,-1.609375,0.75,0.28125
1695655982335,-0.12988281,-0.93829346,0.33929443,-3.015625,2.109375,0.46875
1695655982350,-0.1105957,-0.9536743,0.3517456,-4.8125,5.109375,0.609375
1695655982396,-0.15649414,-0.9512329,0.35906982,-2.484375,-0.609375,1.796875
1695655982442,-0.118896484,-0.9360962,0.35247803,0.28125,1.328125,1.34375
1695655982470,-0.13769531,-0.960022,0.36468506,2.28125,3.046875,1.25
1695655982516,-0.11669922,-0.93218994,0.35736084,0.703125,1.828125,0.875
1695655982561,-0.10644531,-0.93170166,0.35028076,-0.28125,4.15625,0.40625
1695655982591,-0.12841797,-0.944397,0.3607788,0.015625,3.296875,0.640625
1695655982637,-0.11816406,-0.9404907,0.34466553,-0.515625,2.0625,-0.6875
1695655982666,-0.123046875,-0.9404907,0.3546753,-0.125,1.09375,-0.265625
1695655982711,-0.122802734,-0.9402466,0.35198975,0.0625,1.3125,-0.109375
1695655982759,-0.10522461,-0.9385376,0.3607788,0.21875,0.546875,0.1875
1695655982786,-0.118896484,-0.9434204,0.3427124,-0.796875,0.34375,0.359375
1695655982831,-0.11694336,-0.9421997,0.36956787,1.6875,0.828125,0.28125
1695655982879,-0.119628906,-0.93463135,0.36029053,-0.671875,0.875,0.015625
1695655982906,-0.118652344,-0.9385376,0.3571167,-0.5625,0.359375,-0.1875
1695655982952,-0.114746094,-0.92803955,0.3534546,-0.390625,1.765625,-0.0625
1695655983009,-0.12524414,-0.93878174,0.36297607,-0.03125,1.265625,0.203125
1695655983032,-0.12451172,-0.9456177,0.34979248,-0.328125,1.0,-0.015625
1695655983070,-0.125,-0.92510986,0.34490967,-1.53125,1.015625,-0.03125
1695655983114,-0.12866211,-0.954895,0.35614014,0.515625,0.796875,-0.4375
1695655983144,-0.1262207,-0.9390259,0.3546753,0.703125,1.734375,-0.515625
1695655983192,-0.12915039,-0.93634033,0.3529663,-0.015625,1.1875,-0.25
1695655983221,-0.11230469,-0.94195557,0.3546753,0.015625,1.75,-0.328125
1695655983267,-0.12426758,-0.9397583,0.35662842,0.125,1.71875,-0.421875
1695655983343,-0.12597656,-0.9553833,0.3414917,1.203125,2.234375,-0.09375
1695655983348,-0.12426758,-0.93463135,0.34979248,0.5,2.375,-0.296875
1695655983387,-0.12646484,-0.9561157,0.3546753,0.890625,2.0625,-0.078125
1695655983447,-0.114990234,-0.9458618,0.3456421,0.546875,2.078125,-0.5
1695655983460,-0.12988281,-0.93707275,0.35369873,0.359375,1.734375,-0.125
1695655983506,-0.13256836,-0.95196533,0.3378296,-1.328125,1.0625,-0.625
1695655983551,-0.1159668,-0.9241333,0.3612671,0.40625,1.359375,-0.0625
1695655983580,-0.1274414,-0.93756104,0.33319092,-0.890625,-0.0625,-0.046875
1695655983628,-0.13354492,-0.954895,0.36541748,2.640625,0.0625,0.25
1695655983688,-0.12939453,-0.9421997,0.3534546,2.34375,1.609375,0.453125
1695655983702,-0.13134766,-0.93292236,0.34246826,0.890625,0.90625,0.5
1695655983745,-0.11328125,-0.9522095,0.33587646,-0.1875,0.828125,0.109375
1695655983776,-0.13134766,-0.94732666,0.3414917,-0.296875,1.078125,0.046875
1695655983821,-0.11743164,-0.9390259,0.33392334,0.65625,1.1875,0.234375
1695655983866,-0.1303711,-0.95318604,0.3480835,-0.265625,1.359375,-0.171875
1695655983896,-0.1262207,-0.94073486,0.34368896,-0.71875,1.34375,0.0625
1695655983943,-0.1262207,-0.94854736,0.35101318,-0.5625,1.1875,0.234375
1695655983988,-0.12109375,-0.93927,0.34124756,-0.765625,1.109375,-0.0625
1695655984017,-0.11694336,-0.9360962,0.33441162,-1.6875,1.625,0.015625
1695655984063,-0.14526367,-0.95977783,0.34857178,0.015625,1.84375,0.1875
1695655984108,-0.12133789,-0.92681885,0.3295288,0.0625,2.671875,0.0625
1695655984138,-0.12060547,-0.94366455,0.35614014,0.828125,0.828125,0.3125
1695655984183,-0.125,-0.9421997,0.33953857,0.78125,1.65625,0.1875
1695655984212,-0.12524414,-0.9524536,0.34832764,0.75,1.828125,0.0625
1695655984258,-0.13549805,-0.9360962,0.3312378,0.09375,0.921875,0.0625
1695655984302,-0.123046875,-0.9595337,0.35321045,1.296875,1.96875,-0.140625
1695655984333,-0.11425781,-0.9429321,0.33343506,-0.390625,1.25,-0.15625
1695655984394,-0.1394043,-0.9451294,0.36029053,1.0625,1.21875,0.515625
1695655984423,-0.12133789,-0.94244385,0.33441162,0.984375,2.28125,0.125
1695655984451,-0.11767578,-0.9380493,0.33294678,-0.359375,1.828125,0.125
1695655984496,-0.12963867,-0.9495239,0.34466553,0.046875,1.5625,0.515625
1695655984541,-0.12036133,-0.94610596,0.33026123,-1.125,0.71875,0.15625
1695655984572,-0.118896484,-0.9480591,0.34710693,-1.875,0.328125,0.203125
1695655984616,-0.1303711,-0.9451294,0.34954834,-2.1875,1.1875,0.0
1695655984692,-0.1159668,-0.9397583,0.35272217,-2.71875,1.390625,1.078125
1695655984699,-0.12963867,-0.9507446,0.34466553,-0.3125,-0.375,1.046875
1695655984737,-0.11987305,-0.9402466,0.35028076,0.453125,0.71875,0.75
1695655984767,-0.11669922,-0.9390259,0.33465576,-0.328125,0.796875,0.546875
1695655984812,-0.12426758,-0.9517212,0.35003662,0.953125,0.265625,0.796875
1695655984860,-0.123291016,-0.9397583,0.3361206,0.234375,0.84375,0.921875
1695655984887,-0.12402344,-0.9456177,0.34051514,1.0625,1.03125,0.609375
1695655984938,-0.123535156,-0.9500122,0.3373413,0.421875,1.09375,0.0625
1695655984984,-0.119384766,-0.9507446,0.34979248,0.53125,0.125,0.1875
1695655985007,-0.13574219,-0.9380493,0.3493042,0.4375,1.875,0.265625
1695655985053,-0.10620117,-0.942688,0.3468628,2.5,2.125,0.234375
1695655985096,-0.11254883,-0.94366455,0.33392334,0.203125,1.015625,0.203125
1695655985134,-0.13134766,-0.95196533,0.3517456,-0.328125,0.609375,0.578125
1695655985186,-0.111328125,-0.94610596,0.32781982,1.109375,2.734375,0.515625
1695655985202,-0.11425781,-0.95025635,0.340271,0.578125,1.109375,0.609375
1695655985245,-0.12719727,-0.9456177,0.33099365,-0.328125,0.90625,0.03125
1695655985293,-0.123046875,-0.9529419,0.35321045,-0.984375,0.046875,-0.5
1695655985322,-0.1237793,-0.9451294,0.355896,1.109375,0.21875,0.140625
1695655985369,-0.13134766,-0.96417236,0.32147217,4.78125,0.125,-0.234375
1695655985414,-0.088134766,-0.94976807,0.32489014,5.03125,0.234375,-0.078125
1695655985443,-0.13769531,-0.95025635,0.3060913,3.328125,-1.734375,0.203125
1695655985488,-0.12084961,-0.9463501,0.31756592,0.9375,-1.171875,0.078125
1695655985531,-0.12548828,-0.9390259,0.31585693,-1.1875,1.734375,0.234375
1695655985561,-0.1262207,-0.96343994,0.3126831,-1.90625,0.03125,0.671875
1695655985607,-0.111572266,-0.95513916,0.30291748,-2.5625,0.390625,0.203125
1695655985652,-0.12719727,-0.95513916,0.3131714,-0.953125,1.375,-0.4375
1695655985683,-0.11303711,-0.9585571,0.307312,0.21875,4.0,-0.625
1695655985726,-0.1274414,-0.93951416,0.3439331,2.703125,2.59375,0.375
1695655985756,-0.119384766,-0.94537354,0.30511475,0.34375,1.484375,0.4375
1695655985801,-0.11743164,-0.95562744,0.3192749,1.703125,1.5,0.875
1695655985846,-0.106933594,-0.9475708,0.30706787,-1.09375,-0.109375,0.5
1695655985876,-0.13769531,-0.94781494,0.32513428,-1.78125,-0.5625,0.484375
1695655985920,-0.111572266,-0.94854736,0.32733154,-0.734375,0.546875,0.0625
1695655985964,-0.12597656,-0.95513916,0.3204956,-0.046875,0.234375,0.21875
1695655985998,-0.11254883,-0.95806885,0.31781006,2.171875,0.46875,-0.21875
1695655986051,-0.123535156,-0.95391846,0.29632568,2.28125,1.1875,0.171875
1695655986088,-0.12084961,-0.96710205,0.3270874,2.90625,0.71875,0.390625
1695655986116,-0.11767578,-0.9505005,0.31732178,0.140625,0.671875,0.515625
1695655986163,-0.119628906,-0.9612427,0.30926514,-0.375,0.984375,-0.3125
1695655986209,-0.11816406,-0.9483032,0.30828857,-0.609375,0.0,0.0625
1695655986236,-0.13061523,-0.9558716,0.30340576,-0.421875,0.359375,0.109375
1695655986282,-0.119140625,-0.96343994,0.31072998,-0.53125,0.453125,0.296875
1695655986318,-0.1237793,-0.95758057,0.3270874,-0.25,0.34375,0.390625
1695655986356,-0.12207031,-0.94488525,0.31829834,1.171875,0.59375,0.234375
1695655986401,-0.11669922,-0.9573364,0.29534912,6.78125,1.1875,0.40625
1695655986438,-0.13232422,-0.9612427,0.30023193,5.453125,0.453125,0.171875
1695655986477,-0.13085938,-0.9487915,0.29266357,4.578125,0.703125,-0.265625
1695655986521,-0.13671875,-0.9627075,0.29071045,0.234375,2.015625,-0.390625
1695655986551,-0.13989258,-0.98223877,0.29510498,4.046875,1.515625,-0.3125
1695655986595,-0.118652344,-0.9710083,0.28900146,4.234375,2.84375,-0.453125
1695655986640,-0.14282227,-0.97540283,0.2753296,4.390625,1.125,-0.46875
1695655986673,-0.1237793,-0.9585571,0.26483154,2.8125,-1.75,-0.453125
1695655986715,-0.13330078,-0.96881104,0.25604248,0.453125,1.796875,-0.859375
1695655986752,-0.11791992,-0.96295166,0.23895264,-0.09375,1.921875,-0.453125
1695655986791,-0.14111328,-0.95513916,0.22283936,-4.9375,14.421875,2.375
1695655986838,-0.1081543,-0.96221924,0.31072998,-0.84375,5.546875,1.5
1695655986913,-0.12231445,-0.97003174,0.27581787,-2.1875,0.828125,1.46875
1695655986918,-0.111328125,-0.95758057,0.30413818,-1.0,-1.640625,-0.65625
1695655986959,-0.12597656,-0.96881104,0.2970581,-0.90625,-2.3125,-1.15625
1695655986985,-0.123291016,-0.9614868,0.27044678,-0.421875,-0.375,-1.0625
1695655987032,-0.12939453,-0.958313,0.2921753,-0.09375,-0.875,-0.71875
1695655987081,-0.13134766,-0.97125244,0.27679443,-1.171875,-1.015625,-0.65625
1695655987107,-0.13671875,-0.97076416,0.2789917,-0.75,-0.375,-0.296875
1695655987151,-0.13085938,-0.95318604,0.2921753,0.015625,-0.203125,-0.5
1695655987197,-0.13769531,-0.96588135,0.27215576,-2.4375,0.328125,-0.828125
1695655987229,-0.13305664,-0.95928955,0.27923584,-2.734375,-1.578125,-1.21875
1695655987271,-0.13842773,-0.96295166,0.31243896,0.546875,0.203125,-0.46875
1695655987303,-0.10644531,-0.95147705,0.27703857,2.015625,-1.59375,-0.359375
1695655987347,-0.14575195,-0.960022,0.2633667,-0.109375,-1.578125,-0.421875
1695655987396,-0.15966797,-0.96759033,0.2843628,0.234375,1.0625,-0.21875
1695655987421,-0.12768555,-0.96099854,0.2814331,-0.59375,0.65625,0.296875
1695655987466,-0.14624023,-0.9578247,0.27630615,-0.34375,0.765625,0.78125
1695655987512,-0.14794922,-0.9573364,0.2892456,-0.109375,0.84375,1.109375
1695655987540,-0.13305664,-0.9656372,0.27996826,-0.5,0.828125,1.09375
1695655987589,-0.13452148,-0.9656372,0.28533936,-0.375,1.5,0.703125
1695655987633,-0.13085938,-0.95880127,0.2819214,-0.484375,0.765625,0.609375
1695655987662,-0.13500977,-0.9692993,0.28118896,-0.296875,1.109375,0.4375
1695655987708,-0.12524414,-0.9573364,0.26556396,-0.671875,1.703125,0.078125
1695655987753,-0.13012695,-0.9631958,0.29534912,-0.25,0.21875,-0.0625
1695655987783,-0.12402344,-0.9680786,0.26141357,-2.0,-0.453125,-0.953125
1695655987828,-0.14160156,-0.95928955,0.27947998,2.40625,0.296875,0.078125
1695655987857,-0.16259766,-0.96173096,0.29315186,0.265625,-0.9375,0.0625
1695655987904,-0.14819336,-0.95635986,0.30804443,0.328125,-1.5,0.5625
1695655987952,-0.15136719,-0.96759033,0.28997803,-1.75,0.046875,0.34375
1695655987977,-0.12182617,-0.9607544,0.28167725,-0.171875,-0.140625,-0.09375
1695655988021,-0.14819336,-0.9668579,0.29730225,0.578125,-0.21875,0.453125
1695655988067,-0.14233398,-0.9717407,0.27972412,-0.359375,-2.0,0.734375
1695655988099,-0.13769531,-0.9614868,0.262146,1.015625,-1.421875,0.90625
1695655988142,-0.13867188,-0.96661377,0.27435303,1.28125,-0.984375,1.1875
1695655988187,-0.13061523,-0.95977783,0.26116943,1.765625,-0.984375,1.09375
1695655988216,-0.13720703,-0.9636841,0.2670288,0.140625,-1.125,1.296875
1695655988262,-0.14526367,-0.95440674,0.27923584,-2.0,-1.625,0.875
1695655988295,-0.13867188,-0.96295166,0.28411865,-2.65625,-1.125,1.015625
1695655988336,-0.14379883,-0.96417236,0.28118896,-1.984375,-1.875,1.171875
1695655988381,-0.12451172,-0.9561157,0.27752686,-2.671875,0.203125,0.609375
1695655988413,-0.13427734,-0.9570923,0.26385498,-3.921875,1.796875,-0.15625
1695655988455,-0.1303711,-0.9776001,0.29901123,-2.875,0.6875,-0.140625
1695655988501,-0.13623047,-0.9480591,0.30267334,-1.34375,1.421875,-0.046875
1695655988533,-0.14550781,-0.96881104,0.29656982,-2.03125,0.40625,0.140625
1695655988576,-0.14135742,-0.9512329,0.30047607,-2.03125,-0.90625,0.03125
1695655988622,-0.13574219,-0.95562744,0.30584717,-0.953125,2.0625,0.078125
1695655988650,-0.1340332,-0.9536743,0.30169678,-0.5625,1.15625,0.296875
1695655988697,-0.13378906,-0.9612427,0.30389404,-0.6875,0.21875,0.453125
1695655988770,-0.12988281,-0.9558716,0.29534912,-1.0,0.921875,0.0625
1695655988775,-0.13305664,-0.956604,0.3078003,-0.71875,1.28125,-0.109375
1695655988816,-0.14160156,-0.9590454,0.30340576,-0.640625,0.578125,0.65625
1695655988844,-0.1315918,-0.9480591,0.28875732,-1.5,1.703125,0.28125
1695655988891,-0.14208984,-0.9661255,0.30560303,-1.0625,0.359375,0.265625
1695655988934,-0.13745117,-0.9458618,0.3024292,-0.6875,1.09375,0.484375
1695655988966,-0.14355469,-0.9507446,0.29852295,-0.703125,0.53125,0.140625
1695655989012,-0.13330078,-0.95806885,0.30413818,-0.25,0.59375,0.5
1695655989059,-0.13256836,-0.94732666,0.30438232,-0.265625,0.40625,0.59375
1695655989087,-0.14038086,-0.9595337,0.3180542,-0.4375,-0.140625,0.40625
1695655989133,-0.13769531,-0.95880127,0.29388428,-0.421875,0.78125,0.6875
1695655989178,-0.12963867,-0.9456177,0.33026123,1.515625,1.625,0.234375
1695655989207,-0.14282227,-0.958313,0.29681396,-0.359375,1.140625,0.25
1695655989252,-0.13598633,-0.94781494,0.29437256,-0.703125,1.640625,0.015625
1695655989290,-0.1459961,-0.95977783,0.31341553,0.21875,2.765625,-0.15625
1695655989327,-0.13061523,-0.9524536,0.29437256,-0.03125,1.59375,-0.125
1695655989373,-0.14086914,-0.958313,0.31195068,-0.453125,1.609375,-0.09375
1695655989402,-0.13647461,-0.9570923,0.30389404,-0.3125,2.015625,-0.1875
1695655989447,-0.13671875,-0.956604,0.3114624,-0.28125,1.90625,-0.421875
1695655989493,-0.140625,-0.9541626,0.31170654,-1.1875,1.5625,-0.390625
1695655989523,-0.14355469,-0.9492798,0.30975342,-0.5,1.734375,-0.171875
1695655989565,-0.13720703,-0.95513916,0.3012085,0.03125,0.953125,-0.296875
1695655989614,-0.14257812,-0.9522095,0.3151245,1.125,1.109375,-0.015625
1695655989639,-0.14086914,-0.9561157,0.2946167,2.28125,3.078125,0.78125
1695655989686,-0.14208984,-0.958313,0.31536865,0.984375,1.203125,0.3125
1695655989731,-0.11645508,-0.9507446,0.29901123,1.484375,0.53125,1.046875
1695655989762,-0.13867188,-0.960022,0.3024292,0.765625,1.703125,0.390625
1695655989808,-0.14648438,-0.96417236,0.29852295,0.9375,0.8125,0.28125
1695655989837,-0.13745117,-0.958313,0.30218506,-0.109375,1.640625,0.171875
1695655989882,-0.12451172,-0.9512329,0.30194092,-0.890625,2.46875,0.0
1695655989927,-0.1418457,-0.95928955,0.28363037,-1.34375,1.46875,0.421875
1695655989958,-0.13452148,-0.9561157,0.30560303,-1.8125,0.234375,-0.015625
1695655990002,-0.15112305,-0.9602661,0.30413818,0.015625,1.625,0.078125
1695655990047,-0.13916016,-0.95758057,0.2987671,-1.0,1.15625,0.109375
1695655990078,-0.14038086,-0.95269775,0.29779053,0.203125,1.109375,0.34375
1695655990122,-0.13500977,-0.96051025,0.30047607,0.859375,2.046875,0.234375
1695655990168,-0.13452148,-0.9517212,0.30267334,0.3125,2.171875,0.265625
1695655990198,-0.13891602,-0.9480591,0.29144287,-0.796875,3.046875,0.234375
1695655990245,-0.13427734,-0.960022,0.31878662,-0.09375,3.515625,0.203125
1695655990294,-0.13452148,-0.9636841,0.30291748,0.125,2.46875,0.34375
1695655990314,-0.1352539,-0.95880127,0.31243896,0.78125,2.03125,0.15625
1695655990360,-0.14453125,-0.9536743,0.3007202,0.15625,2.625,-0.0625
1695655990390,-0.12182617,-0.9644165,0.29681396,-0.265625,3.03125,-0.25
1695655990436,-0.13452148,-0.9487915,0.29925537,-0.734375,2.421875,-0.234375
1695655990481,-0.13232422,-0.9602661,0.3065796,-0.640625,1.171875,-0.21875
1695655990512,-0.13012695,-0.9624634,0.3114624,-0.328125,1.1875,-0.1875
1695655990556,-0.13989258,-0.9536743,0.31097412,0.390625,1.453125,-0.0625
1695655990618,-0.12451172,-0.9534302,0.2970581,-1.640625,0.203125,-0.328125
1695655990632,-0.1352539,-0.960022,0.30560303,-0.375,0.0625,0.203125
1695655990676,-0.13720703,-0.95147705,0.30804443,-1.484375,-0.984375,-0.15625
1695655990722,-0.13549805,-0.9558716,0.31488037,-1.03125,0.15625,0.171875
1695655990752,-0.1315918,-0.9524536,0.3053589,-1.484375,0.625,0.203125
1695655990797,-0.15063477,-0.95391846,0.30950928,-0.78125,-0.203125,0.09375
1695655990828,-0.13305664,-0.9570923,0.3168335,-0.78125,0.515625,-0.0625
1695655990872,-0.13110352,-0.9470825,0.30877686,-0.59375,0.265625,0.03125
1695655990917,-0.1418457,-0.9507446,0.309021,-0.734375,0.15625,0.234375
1695655990991,-0.1303711,-0.95440674,0.31707764,-0.34375,1.84375,-0.296875
1695655990997,-0.15136719,-0.95391846,0.31903076,-0.390625,0.328125,0.140625
1695655991050,-0.14379883,-0.9536743,0.33270264,1.359375,0.640625,-0.21875
1695655991066,-0.13476562,-0.95391846,0.30682373,0.453125,0.1875,0.296875
1695655991112,-0.13745117,-0.9614868,0.32073975,3.859375,1.34375,0.0625
1695655991156,-0.13891602,-0.9570923,0.32318115,3.734375,-0.71875,0.3125
1695655991186,-0.14477539,-0.9529419,0.3163452,-0.703125,-1.765625,0.0625
1695655991231,-0.13476562,-0.9507446,0.30926514,-0.953125,-0.703125,-0.328125
1695655991278,-0.15991211,-0.9492798,0.31097412,-3.453125,-0.640625,-0.078125
1695655991310,-0.13671875,-0.95806885,0.30047607,-5.953125,0.875,-0.40625
1695655991353,-0.14160156,-0.9536743,0.31072998,2.453125,1.734375,-0.265625
1695655991385,-0.13720703,-0.9553833,0.27166748,-0.96875,1.96875,-0.65625
1695655991428,-0.1430664,-0.958313,0.2982788,1.921875,0.109375,-0.609375
1695655991473,-0.14428711,-0.9331665,0.28753662,-0.921875,2.875,-1.125
1695655991503,-0.14257812,-0.9495239,0.31048584,-2.3125,2.71875,-0.53125
1695655991567,-0.16040039,-0.9512329,0.3378296,-1.234375,0.703125,0.703125
1695655991594,-0.14746094,-0.9487915,0.31170654,-0.34375,2.390625,1.328125
1695655991621,-0.14672852,-0.94659424,0.31292725,-1.625,1.09375,1.0625
1695655991666,-0.13696289,-0.958313,0.32025146,-0.484375,1.375,0.484375
1695655991725,-0.12817383,-0.94854736,0.3007202,-0.359375,2.515625,-0.03125
1695655991749,-0.16186523,-0.94488525,0.324646,1.53125,0.109375,0.609375
1695655991786,-0.13989258,-0.9429321,0.3139038,0.046875,0.375,0.375
1695655991830,-0.14282227,-0.956604,0.33050537,0.59375,2.640625,0.125
1695655991859,-0.13745117,-0.9512329,0.31658936,1.515625,1.03125,0.796875
1695655991906,-0.14672852,-0.9507446,0.31219482,1.453125,0.625,0.359375
1695655991937,-0.14086914,-0.95635986,0.3114624,0.53125,0.625,0.46875
1695655991983,-0.1394043,-0.94000244,0.29803467,-0.53125,-0.15625,0.390625
1695655992026,-0.13916016,-0.96759033,0.32366943,0.953125,1.34375,0.09375
1695655992056,-0.14160156,-0.9578247,0.28656006,-0.765625,0.9375,-0.03125
1695655992101,-0.1472168,-0.9553833,0.30755615,-1.203125,-0.453125,-0.015625
1695655992146,-0.13720703,-0.944397,0.31121826,-0.09375,1.421875,0.125
1695655992177,-0.14038086,-0.9492798,0.3085327,-0.4375,0.828125,0.21875
1695655992222,-0.14501953,-0.9524536,0.3163452,-0.5,0.515625,0.359375
1695655992266,-0.13916016,-0.9534302,0.31121826,0.171875,0.96875,0.53125
1695655992296,-0.12841797,-0.9451294,0.31048584,0.765625,0.8125,0.453125
1695655992342,-0.1508789,-0.9475708,0.3065796,1.078125,0.203125,0.296875
1695655992370,-0.1574707,-0.9505005,0.322937,1.03125,1.21875,0.328125
1695655992416,-0.14794922,-0.9487915,0.3036499,-0.484375,0.171875,0.328125
1695655992460,-0.14379883,-0.9612427,0.30438232,-0.71875,0.734375,0.0
1695655992490,-0.14233398,-0.9541626,0.30462646,-0.390625,1.390625,-0.015625
1695655992535,-0.1459961,-0.95098877,0.30340576,-0.3125,1.21875,-0.296875
1695655992580,-0.14550781,-0.9487915,0.31414795,0.5,1.21875,-0.03125
1695655992611,-0.14477539,-0.9417114,0.3192749,1.0625,0.828125,0.171875
1695655992657,-0.13671875,-0.9546509,0.27435303,-2.390625,0.53125,0.046875
1695655992703,-0.14575195,-0.9639282,0.33514404,2.4375,1.0,0.421875
1695655992733,-0.14672852,-0.9439087,0.28900146,-1.0,0.546875,0.0625
1695655992777,-0.13696289,-0.9475708,0.30291748,-0.359375,0.796875,0.265625
1695655992823,-0.14941406,-0.95806885,0.31048584,0.609375,2.375,-0.1875
1695655992854,-0.14111328,-0.9541626,0.31341553,0.9375,2.4375,0.6875
1695655992898,-0.13891602,-0.94854736,0.30633545,0.359375,2.390625,-0.15625
1695655992929,-0.14086914,-0.95928955,0.3060913,0.078125,2.140625,0.25
1695655992972,-0.13232422,-0.9495239,0.3060913,-0.140625,0.578125,0.0625
1695655993018,-0.14575195,-0.95318604,0.2999878,-0.015625,1.4375,0.0625
1695655993048,-0.14013672,-0.9602661,0.30755615,-0.03125,0.765625,0.1875
1695655993093,-0.14672852,-0.96539307,0.3007202,-0.203125,1.59375,-0.09375
1695655993139,-0.13964844,-0.9602661,0.29119873,-0.828125,2.390625,-0.359375
1695655993166,-0.1352539,-0.9524536,0.3048706,-1.40625,0.703125,-0.28125
1695655993213,-0.14453125,-0.96099854,0.29632568,-2.546875,1.59375,-0.265625
1695655993258,-0.12988281,-0.9487915,0.31121826,-1.546875,1.203125,-0.1875
1695655993288,-0.14135742,-0.94854736,0.31536865,-1.15625,1.390625,0.09375
1695655993333,-0.15405273,-0.96173096,0.31463623,1.0,1.953125,0.65625
1695655993364,-0.13574219,-0.9319458,0.3209839,0.734375,0.78125,0.53125
1695655993408,-0.15698242,-0.97003174,0.31097412,-0.421875,2.03125,0.390625
1695655993452,-0.13793945,-0.9517212,0.30389404,-0.484375,0.328125,0.390625
1695655993482,-0.13891602,-0.9429321,0.31219482,0.328125,1.4375,0.4375
1695655993527,-0.14453125,-0.9578247,0.30413818,0.140625,1.296875,0.40625
1695655993589,-0.123046875,-0.9541626,0.31292725,-0.5,1.703125,0.234375
1695655993601,-0.15332031,-0.96051025,0.30999756,0.203125,2.21875,0.109375
1695655993650,-0.1303711,-0.94903564,0.31195068,-0.296875,2.328125,0.21875
1695655993695,-0.14770508,-0.9495239,0.29730225,-0.65625,0.953125,0.0
1695655993723,-0.13989258,-0.9480591,0.31219482,-0.34375,1.5625,0.140625
1695655993768,-0.14038086,-0.9595337,0.31488037,0.3125,1.4375,0.171875
1695655993842,-0.1328125,-0.9534302,0.31292725,0.125,1.375,-0.203125
1695655993847,-0.14624023,-0.9534302,0.31878662,0.71875,1.625,0.171875
1695655993888,-0.13964844,-0.9561157,0.31292725,0.46875,1.40625,0.078125
1695655993919,-0.13891602,-0.9541626,0.31341553,-0.125,1.21875,-0.03125
1695655993959,-0.14013672,-0.954895,0.30462646,-0.96875,1.109375,-0.015625
1695655994006,-0.13256836,-0.9468384,0.3114624,-0.34375,0.546875,0.0
1695655994045,-0.14428711,-0.9553833,0.31097412,-1.515625,0.6875,-0.03125
1695655994082,-0.13842773,-0.9446411,0.32684326,-0.046875,1.15625,0.328125
1695655994127,-0.14282227,-0.95318604,0.30804443,-1.40625,1.03125,0.0625
1695655994157,-0.14331055,-0.94976807,0.31585693,-0.5625,0.15625,0.421875
1695655994203,-0.13671875,-0.94073486,0.3065796,-0.296875,1.171875,0.078125
1695655994248,-0.13891602,-0.9673462,0.32611084,1.140625,1.40625,0.609375
1695655994278,-0.14233398,-0.9373169,0.31610107,-0.21875,1.046875,-0.78125
1695655994324,-0.11401367,-0.94854736,0.2929077,-1.265625,-1.625,-0.75
1695655994368,-0.1652832,-0.9639282,0.31829834,-0.640625,-1.375,-0.90625
1695655994400,-0.14477539,-0.95025635,0.3053589,-0.28125,-0.265625,-0.6875
1695655994452,-0.15771484,-0.9661255,0.3209839,0.5,-0.3125,-0.28125
1695655994472,-0.16064453,-0.93829346,0.31854248,-0.328125,-0.453125,0.328125
1695655994516,-0.13476562,-0.95635986,0.309021,-1.28125,-0.296875,0.0
1695655994562,-0.16040039,-0.9553833,0.3192749,-1.703125,-0.015625,0.0625
1695655994591,-0.13793945,-0.9546509,0.31536865,-1.296875,0.203125,-0.09375
1695655994634,-0.14257812,-0.95098877,0.3156128,-1.28125,0.640625,-0.109375
1695655994682,-0.15698242,-0.9483032,0.30950928,-0.75,0.640625,-0.453125
1695655994712,-0.14892578,-0.9649048,0.29901123,-1.34375,-0.171875,-0.140625
1695655994755,-0.15039062,-0.9456177,0.33807373,1.0,0.9375,-0.015625
1695655994800,-0.16625977,-0.95758057,0.3139038,0.21875,2.0625,0.171875
1695655994829,-0.15258789,-0.9492798,0.32611084,2.046875,-0.34375,0.390625
1695655994876,-0.14941406,-0.956604,0.33563232,5.59375,3.5,0.71875
1695655994905,-0.15234375,-0.9517212,0.29901123,3.40625,1.640625,0.78125
1695655994950,-0.13769531,-0.93707275,0.29559326,2.703125,-1.59375,0.953125
1695655994996,-0.15820312,-0.96099854,0.28485107,1.3125,0.6875,0.4375
1695655995026,-0.13671875,-0.95318604,0.28875732,0.640625,0.734375,0.28125
1695655995070,-0.15527344,-0.95562744,0.27850342,0.890625,1.859375,0.0625
1695655995115,-0.14648438,-0.9639282,0.2826538,2.984375,5.296875,0.28125
1695655995146,-0.1496582,-0.9663696,0.25653076,0.125,7.453125,0.8125
1695655995191,-0.14526367,-0.91851807,0.32122803,0.96875,1.21875,2.34375
1695655995236,-0.15063477,-0.96881104,0.28240967,-0.21875,0.546875,1.796875
1695655995266,-0.13452148,-0.94781494,0.3053589,-0.59375,-0.578125,0.5
1695655995329,-0.13891602,-0.9690552,0.29241943,-0.375,-0.984375,-0.1875
1695655995354,-0.14648438,-0.9553833,0.28948975,-0.90625,0.28125,-0.96875
1695655995386,-0.14355469,-0.97540283,0.2826538,0.171875,1.828125,-0.71875
1695655995430,-0.1381836,-0.9507446,0.28900146,-0.125,1.640625,-1.171875
1695655995460,-0.14819336,-0.9702759,0.30438232,-0.21875,2.109375,-0.546875
1695655995506,-0.15478516,-0.95025635,0.3065796,-0.25,2.59375,-0.5625
1695655995551,-0.13867188,-0.9529419,0.29925537,-0.578125,3.953125,-0.359375
1695655995588,-0.15136719,-0.96295166,0.2921753,-0.140625,3.296875,-0.3125
1695655995629,-0.14135742,-0.9524536,0.30194092,-0.125,2.515625,0.375
1695655995672,-0.13354492,-0.9607544,0.30413818,-0.375,2.0625,0.359375
1695655995704,-0.13842773,-0.9546509,0.2868042,-0.8125,0.734375,0.796875
1695655995749,-0.14282227,-0.9534302,0.29974365,-0.59375,-0.390625,0.5
1695655995797,-0.15551758,-0.9607544,0.30511475,-0.28125,0.265625,0.5625
1695655995838,-0.14331055,-0.95758057,0.29315186,-0.78125,0.25,0.6875
1695655995874,-0.13623047,-0.94537354,0.28533936,-0.984375,0.21875,0.46875
1695655995912,-0.15625,-0.9639282,0.30169678,-0.59375,-0.109375,0.640625
1695655995953,-0.14331055,-0.9639282,0.2987671,0.484375,1.765625,0.578125
1695655995988,-0.15063477,-0.9475708,0.30511475,0.640625,1.21875,1.171875
1695655996017,-0.1550293,-0.9553833,0.30999756,-1.078125,1.484375,0.046875
1695655996064,-0.13989258,-0.9578247,0.29119873,-0.34375,1.390625,0.328125
1695655996105,-0.14746094,-0.94854736,0.3065796,0.75,2.03125,0.203125
1695655996137,-0.14135742,-0.9553833,0.29510498,-0.984375,1.46875,-0.09375
1695655996184,-0.14160156,-0.9529419,0.31195068,0.34375,2.109375,0.046875
1695655996227,-0.1430664,-0.95025635,0.30047607,-0.40625,2.0625,0.09375
1695655996262,-0.13842773,-0.9595337,0.30462646,-0.125,1.40625,0.109375
1695655996303,-0.15161133,-0.95391846,0.30462646,-0.34375,1.296875,-0.40625
1695655996347,-0.13330078,-0.9541626,0.29412842,-0.046875,1.421875,-0.078125
1695655996377,-0.14135742,-0.95196533,0.30023193,-0.875,0.734375,-0.375
1695655996423,-0.14404297,-0.9505005,0.31292725,0.03125,0.859375,-0.15625
1695655996459,-0.14257812,-0.9470825,0.29119873,-0.03125,1.421875,-0.078125
1695655996498,-0.14892578,-0.95928955,0.31170654,-0.21875,0.59375,-0.140625
1695655996546,-0.1472168,-0.95513916,0.29119873,-0.140625,1.6875,0.28125
1695655996572,-0.14208984,-0.9546509,0.30316162,-0.609375,0.921875,0.03125
1695655996617,-0.14453125,-0.9553833,0.30169678,-0.921875,1.171875,-0.03125
1695655996661,-0.14672852,-0.9536743,0.29608154,-0.3125,1.5625,0.0625
1695655996693,-0.15722656,-0.9595337,0.2850952,-1.21875,3.734375,0.484375
1695655996738,-0.14404297,-0.9529419,0.33587646,2.109375,3.578125,1.015625
1695655996783,-0.14453125,-0.96539307,0.28485107,0.46875,1.765625,1.46875
1695655996812,-0.12817383,-0.9614868,0.30194092,2.03125,0.484375,0.671875
1695655996859,-0.13720703,-0.95440674,0.2958374,1.453125,0.734375,0.453125
1695655996902,-0.13427734,-0.96051025,0.2687378,1.1875,1.640625,0.609375
1695655996936,-0.14282227,-0.95635986,0.31219482,-0.578125,0.234375,0.71875
1695655996976,-0.15649414,-0.9585571,0.3053589,-0.015625,2.671875,0.53125
1695655997009,-0.12695312,-0.94610596,0.30438232,0.796875,2.796875,0.328125
1695655997050,-0.14819336,-0.96221924,0.29266357,0.671875,2.125,0.671875
1695655997095,-0.12451172,-0.9373169,0.28485107,0.21875,0.515625,0.1875
1695655997125,-0.14038086,-0.9702759,0.28900146,-0.828125,0.953125,0.0
1695655997171,-0.13867188,-0.9456177,0.30169678,-1.046875,1.4375,0.0
1695655997216,-0.12451172,-0.95562744,0.29144287,-0.875,0.46875,-0.140625
1695655997246,-0.13989258,-0.9614868,0.2999878,-0.96875,0.671875,0.078125
1695655997309,-0.13574219,-0.9524536,0.29144287,-0.765625,0.5625,0.15625
1695655997336,-0.13330078,-0.95880127,0.29803467,-1.5,-0.09375,0.09375
1695655997366,-0.14770508,-0.96466064,0.30047607,-1.65625,-0.203125,-0.015625
1695655997412,-0.12866211,-0.940979,0.31951904,0.390625,0.453125,0.203125
1695655997440,-0.15136719,-0.9595337,0.2921753,-1.203125,0.640625,0.109375
1695655997502,-0.13793945,-0.9590454,0.29901123,-0.78125,-0.84375,-0.359375
1695655997532,-0.13476562,-0.95635986,0.31854248,-0.515625,0.671875,-0.234375
1695655997561,-0.1484375,-0.9522095,0.2975464,-2.0,0.15625,-0.375
1695655997605,-0.14331055,-0.95025635,0.3143921,-0.5625,1.203125,-0.484375
1695655997650,-0.14648438,-0.9585571,0.31341553,-0.28125,0.625,0.125
1695655997684,-0.14355469,-0.9468384,0.29779053,-0.640625,1.234375,-0.34375
1695655997725,-0.14624023,-0.9546509,0.3168335,-0.234375,0.890625,-0.375
1695655997771,-0.15112305,-0.95196533,0.3114624,-0.546875,1.09375,-0.3125
1695655997801,-0.14648438,-0.9522095,0.2987671,-0.53125,0.9375,-0.265625
1695655997847,-0.14575195,-0.95318604,0.31414795,-0.59375,0.421875,-0.34375
1695655997924,-0.14526367,-0.9661255,0.30828857,-0.40625,0.875,-0.390625
1695655997929,-0.13671875,-0.94976807,0.3139038,-0.296875,0.65625,-0.390625
1695655997968,-0.15429688,-0.95147705,0.32904053,0.90625,-0.53125,-0.125
1695655997996,-0.15136719,-0.95928955,0.3114624,1.9375,-2.546875,0.1875
1695655998042,-0.15258789,-0.9529419,0.30584717,1.78125,0.234375,0.0
1695655998086,-0.15063477,-0.95391846,0.29412842,1.1875,-0.296875,0.171875
1695655998121,-0.15161133,-0.9475708,0.30950928,2.328125,0.21875,0.40625
1695655998161,-0.16186523,-0.9639282,0.28338623,1.328125,0.203125,0.28125
1695655998207,-0.14819336,-0.9492798,0.2975464,0.828125,-0.6875,0.609375
1695655998237,-0.15722656,-0.9524536,0.27752686,0.609375,0.109375,0.375
1695655998282,-0.14648438,-0.9507446,0.28460693,-0.4375,0.8125,0.078125
1695655998326,-0.14501953,-0.9458618,0.28607178,-1.484375,1.0625,0.109375
1695655998355,-0.15551758,-0.960022,0.2814331,-2.375,0.421875,0.390625
1695655998401,-0.1508789,-0.96881104,0.29901123,-1.28125,0.71875,0.28125
1695655998446,-0.1550293,-0.95147705,0.29925537,-1.203125,1.375,0.125
1695655998478,-0.15625,-0.9649048,0.28729248,-1.296875,0.984375,-0.140625
1695655998524,-0.1484375,-0.95513916,0.2999878,-1.234375,-0.046875,-0.296875
1695655998552,-0.16015625,-0.9492798,0.30926514,-1.765625,0.65625,-0.453125
1695655998598,-0.16113281,-0.9546509,0.3024292,-1.40625,1.15625,-0.5
1695655998658,-0.15185547,-0.95196533,0.30706787,-0.125,1.8125,-0.25
1695655998671,-0.15600586,-0.95196533,0.30804443,-0.03125,1.921875,0.25
1695655998718,-0.16381836,-0.9458618,0.32269287,0.625,1.3125,0.453125
1695655998762,-0.14746094,-0.9495239,0.29364014,-1.640625,0.828125,0.21875
1695655998793,-0.16040039,-0.95196533,0.31072998,0.796875,1.390625,0.484375
1695655998839,-0.14501953,-0.9631958,0.29656982,-1.21875,1.046875,-0.046875
1695655998882,-0.15307617,-0.9495239,0.3048706,-0.421875,0.578125,-0.03125
1695655998912,-0.1628418,-0.9480591,0.31732178,0.234375,1.234375,0.234375
1695655998958,-0.16259766,-0.94976807,0.307312,0.203125,1.28125,0.5625
1695655998989,-0.15917969,-0.9507446,0.3053589,0.359375,1.234375,0.796875
1695655999030,-0.15625,-0.9541626,0.30975342,0.40625,1.375,0.703125
1695655999077,-0.15014648,-0.9475708,0.3036499,0.46875,1.296875,0.484375
1695655999109,-0.1538086,-0.95196533,0.30828857,-0.125,0.46875,0.328125
1695655999152,-0.15136719,-0.95318604,0.30584717,-0.765625,1.03125,0.390625
1695655999196,-0.14648438,-0.95684814,0.30584717,-0.421875,1.578125,0.140625
1695655999226,-0.15161133,-0.9495239,0.29437256,0.109375,1.609375,0.09375
1695655999273,-0.14941406,-0.9512329,0.307312,0.03125,1.765625,-0.1875
1695655999318,-0.14916992,-0.95269775,0.30511475,-0.15625,2.296875,-0.25
1695655999351,-0.14770508,-0.9529419,0.30413818,-0.546875,1.515625,-0.296875
1695655999396,-0.15209961,-0.9505005,0.30413818,-0.484375,1.515625,0.109375
1695655999438,-0.14892578,-0.9656372,0.28216553,-1.921875,1.078125,0.015625
1695655999471,-0.14038086,-0.94317627,0.3192749,0.234375,1.671875,-0.40625
1695655999513,-0.14794922,-0.95562744,0.2868042,-1.375,0.734375,-0.078125
1695655999542,-0.14746094,-0.9585571,0.31219482,-0.421875,-0.171875,0.109375
1695655999586,-0.15673828,-0.9578247,0.31903076,0.671875,1.671875,0.625
1695655999637,-0.14794922,-0.95318604,0.30389404,0.328125,1.046875,0.5
1695655999663,-0.14697266,-0.9500122,0.3060913,0.1875,0.671875,0.203125
1695655999709,-0.14550781,-0.9507446,0.30511475,-0.015625,0.75,0.390625
1695655999750,-0.1484375,-0.95391846,0.30804443,-0.1875,0.3125,0.265625
1695655999781,-0.15234375,-0.9417114,0.30975342,-0.796875,0.71875,-0.046875
1695655999824,-0.1538086,-0.9529419,0.31072998,-2.140625,0.1875,0.3125
1695655999871,-0.16821289,-0.9500122,0.3163452,-2.03125,0.203125,0.5
1695655999901,-0.16210938,-0.94854736,0.3192749,-0.359375,0.453125,0.734375
1695655999948,-0.14160156,-0.9507446,0.309021,-0.703125,2.078125,0.0625
1695655999977,-0.15161133,-0.9451294,0.3258667,0.609375,1.375,0.15625
1695656000023,-0.1352539,-0.9378052,0.29388428,-0.703125,2.890625,-0.40625
1695656000068,-0.15332031,-0.956604,0.3283081,0.109375,2.703125,-0.390625
1695656000101,-0.14282227,-0.9483032,0.309021,0.140625,2.0,-0.25
1695656000143,-0.1550293,-0.9558716,0.3102417,-0.75,1.96875,-0.4375
1695656000188,-0.15795898,-0.9522095,0.338562,1.421875,2.59375,-0.46875
1695656000217,-0.15454102,-0.9446411,0.30389404,-0.28125,2.734375,0.296875
1695656000263,-0.15625,-0.9517212,0.3192749,-0.8125,1.84375,-0.4375
1695656000308,-0.16113281,-0.9536743,0.3241577,-0.59375,2.75,-0.015625
1695656000338,-0.15039062,-0.944397,0.2994995,-1.203125,2.265625,-0.046875
1695656000382,-0.1352539,-0.94854736,0.32073975,-1.046875,1.421875,0.015625
1695656000428,-0.15625,-0.95562744,0.32000732,0.234375,1.5,0.0625
1695656000457,-0.13183594,-0.9480591,0.31756592,0.140625,2.203125,0.171875
1695656000503,-0.16137695,-0.95318604,0.32489014,0.1875,2.25,0.359375
1695656000532,-0.15795898,-0.9439087,0.32073975,-0.09375,1.234375,0.6875
1695656000580,-0.14257812,-0.95196533,0.3234253,-0.203125,1.015625,0.15625
1695656000628,-0.15795898,-0.9522095,0.30950928,-0.1875,1.265625,0.203125
1695656000654,-0.15063477,-0.9421997,0.31463623,0.015625,1.203125,0.28125
1695656000696,-0.1459961,-0.95147705,0.3217163,0.125,0.609375,0.078125
1695656000743,-0.15551758,-0.9468384,0.32073975,-0.046875,1.109375,-0.03125
1695656000777,-0.1459961,-0.9390259,0.31976318,-0.375,0.515625,0.078125
1695656000817,-0.14868164,-0.9468384,0.31976318,-0.421875,0.625,0.203125
1695656000861,-0.14331055,-0.9500122,0.3258667,0.65625,1.0625,0.203125
1695656000892,-0.15283203,-0.9500122,0.30706787,-0.203125,1.390625,0.09375
1695656000938,-0.15673828,-0.9492798,0.3300171,0.859375,1.46875,0.296875
1695656000982,-0.14697266,-0.94732666,0.3143921,-0.6875,0.828125,-0.0625
1695656001012,-0.15844727,-0.9480591,0.31536865,-0.265625,1.421875,0.109375
1695656001057,-0.1430664,-0.94854736,0.31585693,0.125,2.0625,-0.1875
1695656001092,-0.14160156,-0.9429321,0.31414795,0.1875,1.078125,-0.296875
1695656001132,-0.15478516,-0.95977783,0.3192749,-0.21875,1.71875,-0.015625
1695656001176,-0.14648438,-0.9536743,0.30950928,0.296875,1.359375,-0.03125
1695656001210,-0.15185547,-0.94781494,0.31536865,-0.046875,1.78125,-0.046875
1695656001249,-0.16552734,-0.9536743,0.33636475,-0.078125,1.671875,0.4375
1695656001295,-0.14550781,-0.9434204,0.3126831,-0.453125,1.4375,0.28125
1695656001327,-0.15039062,-0.9475708,0.31414795,-0.296875,1.625,0.3125
1695656001371,-0.14624023,-0.9451294,0.3180542,-0.421875,1.046875,0.078125
1695656001417,-0.15649414,-0.95391846,0.31878662,-0.953125,0.78125,-0.015625
1695656001445,-0.15307617,-0.9463501,0.32000732,-0.84375,0.609375,-0.03125
1695656001493,-0.15844727,-0.9553833,0.32318115,-0.96875,0.734375,-0.296875
1695656001521,-0.14746094,-0.9541626,0.32025146,-0.671875,0.375,-0.5
1695656001568,-0.15527344,-0.94537354,0.35321045,1.234375,-0.90625,0.078125
1695656001628,-0.15405273,-0.9451294,0.32318115,1.484375,-3.5,0.171875
1695656001641,-0.14868164,-0.95440674,0.3468628,1.1875,0.265625,-0.125
1695656001688,-0.16064453,-0.9434204,0.30096436,0.640625,-0.65625,0.15625
1695656001732,-0.17871094,-0.95269775,0.32244873,2.609375,-0.3125,0.25
1695656001764,-0.15649414,-0.9470825,0.29364014,1.34375,1.71875,1.234375
1695656001808,-0.13964844,-0.94976807,0.26727295,1.03125,-0.859375,0.734375
1695656001853,-0.15844727,-0.95025635,0.3036499,0.078125,0.28125,0.6875
1695656001885,-0.16894531,-0.9458618,0.291687,0.125,0.6875,0.625
1695656001929,-0.15478516,-0.94976807,0.30633545,1.0,1.265625,0.671875
1695656002000,-0.14770508,-0.95196533,0.30511475,4.90625,2.625,0.6875
1695656002006,-0.16113281,-0.9639282,0.2975464,2.796875,1.84375,0.765625
1695656002053,-0.1418457,-0.94781494,0.28070068,0.859375,-0.015625,0.671875
1695656002075,-0.15161133,-0.9541626,0.29901123,1.125,0.03125,0.6875
1695656002120,-0.15722656,-0.9561157,0.28948975,-0.21875,0.234375,0.390625
1695656002167,-0.15454102,-0.9500122,0.29632568,-1.109375,0.15625,0.234375
1695656002198,-0.16333008,-0.958313,0.29144287,-1.34375,1.015625,0.234375
1695656002241,-0.15332031,-0.9507446,0.29534912,-0.125,0.796875,0.140625
1695656002286,-0.14819336,-0.94854736,0.28118896,-1.0625,1.078125,0.015625
1695656002318,-0.15283203,-0.96173096,0.30169678,1.0625,1.46875,0.265625
1695656002362,-0.14404297,-0.9495239,0.2748413,-1.34375,1.6875,-0.21875
1695656002422,-0.17480469,-0.9656372,0.31121826,-0.3125,0.8125,-0.3125
1695656002435,-0.1538086,-0.9529419,0.29266357,0.078125,2.03125,-0.421875
1695656002481,-0.14697266,-0.95562744,0.2929077,-0.765625,1.1875,-0.15625
1695656002531,-0.15673828,-0.9602661,0.2909546,-0.21875,1.328125,-0.34375
1695656002556,-0.15722656,-0.96881104,0.30413818,-0.125,1.9375,0.21875
1695656002601,-0.14233398,-0.9636841,0.28289795,0.390625,2.390625,-0.234375
1695656002647,-0.13232422,-0.9429321,0.28533936,-0.96875,-0.09375,-0.40625
1695656002674,-0.15551758,-0.9649048,0.29022217,-1.625,-0.921875,-0.3125
1695656002720,-0.15185547,-0.94976807,0.29315186,-1.21875,0.34375,-0.234375
1695656002762,-0.1574707,-0.94415283,0.309021,-0.609375,-0.453125,0.53125
1695656002795,-0.16870117,-0.9595337,0.2994995,-0.0625,-0.96875,0.40625
1695656002840,-0.1628418,-0.9492798,0.29852295,-0.109375,-0.15625,0.484375
1695656002874,-0.15722656,-0.9558716,0.30267334,-0.421875,-0.28125,0.375
1695656002916,-0.15600586,-0.9505005,0.29559326,-0.484375,-0.859375,0.6875
1695656002962,-0.15258789,-0.95391846,0.2982788,-1.5,-0.234375,0.375
1695656002991,-0.16259766,-0.95758057,0.30340576,-0.21875,0.1875,0.671875
1695656003037,-0.14941406,-0.94244385,0.30047607,-1.375,0.125,0.40625
1695656003073,-0.17114258,-0.9524536,0.3192749,-0.953125,0.0625,0.28125
1695656003111,-0.14819336,-0.94854736,0.2999878,-0.828125,1.046875,0.390625
1695656003156,-0.15991211,-0.9517212,0.30682373,-0.03125,1.046875,0.359375
1695656003186,-0.15454102,-0.9470825,0.3143921,0.125,1.25,0.390625
1695656003247,-0.15942383,-0.95684814,0.2946167,-0.1875,1.046875,0.421875
1695656003293,-0.15112305,-0.9483032,0.2994995,-0.796875,0.671875,0.46875
1695656003307,-0.14990234,-0.95098877,0.3024292,-1.828125,1.171875,0.078125
1695656003353,-0.15551758,-0.95098877,0.3217163,-0.234375,1.578125,0.453125
1695656003396,-0.16210938,-0.9495239,0.2970581,-0.953125,1.234375,0.484375
1695656003426,-0.14746094,-0.9619751,0.3131714,-0.828125,0.71875,0.109375
1695656003470,-0.14990234,-0.93878174,0.31072998,-1.140625,0.796875,0.25
1695656003516,-0.15820312,-0.95806885,0.31732178,-0.171875,0.40625,0.078125
1695656003549,-0.14208984,-0.9561157,0.3102417,-0.5,0.375,0.203125
1695656003590,-0.16577148,-0.95440674,0.31585693,0.203125,0.84375,0.046875
1695656003620,-0.14111328,-0.9390259,0.31341553,-0.625,0.90625,-0.234375
1695656003667,-0.15844727,-0.95440674,0.31121826,-0.640625,1.34375,0.078125
1695656003712,-0.14453125,-0.9500122,0.32025146,-1.65625,0.578125,0.0
1695656003741,-0.14550781,-0.95269775,0.32513428,-0.859375,1.421875,0.171875
1695656003786,-0.14819336,-0.95758057,0.3287964,-0.40625,1.75,0.59375
1695656003835,-0.15039062,-0.94854736,0.34954834,1.125,2.484375,0.84375
1695656003861,-0.14916992,-0.9656372,0.31878662,7.03125,3.734375,0.59375
1695656003907,-0.14501953,-0.95098877,0.25653076,3.359375,2.0,1.234375
1695656003951,-0.14501953,-0.9529419,0.2868042,1.328125,0.53125,0.40625
1695656003983,-0.15161133,-0.9570923,0.2897339,-0.78125,0.578125,0.09375
1695656004029,-0.15356445,-0.95806885,0.29559326,-2.234375,0.265625,-0.109375
1695656004061,-0.14892578,-0.95562744,0.30706787,-3.25,0.5,0.015625
1695656004100,-0.15185547,-0.9507446,0.31292725,-3.078125,1.640625,-0.453125
1695656004161,-0.16577148,-0.94903564,0.3151245,-2.78125,1.140625,-0.40625
1695656004175,-0.15234375,-0.93756104,0.3270874,-2.015625,1.84375,-1.046875
1695656004235,-0.16308594,-0.9480591,0.30828857,-2.234375,2.3125,-0.578125
1695656004268,-0.14233398,-0.9529419,0.3053589,-1.890625,1.625,-0.40625
1695656004295,-0.1508789,-0.94415283,0.34417725,-0.421875,2.390625,-0.375
1695656004342,-0.16333008,-0.9480591,0.3156128,-0.84375,0.546875,0.34375
1695656004386,-0.15063477,-0.9417114,0.3270874,-1.1875,0.9375,0.109375
1695656004416,-0.15722656,-0.94317627,0.33026123,0.0625,1.109375,0.109375
1695656004461,-0.16357422,-0.940979,0.31976318,0.03125,1.40625,-0.109375
1695656004506,-0.14526367,-0.9507446,0.32196045,0.96875,0.921875,0.109375
1695656004550,-0.1772461,-0.95806885,0.32147217,0.34375,1.3125,0.28125
1695656004581,-0.13769531,-0.9402466,0.3131714,0.0,1.65625,0.109375
1695656004611,-0.15698242,-0.94122314,0.30633545,-0.1875,3.046875,0.5625
1695656004656,-0.16064453,-0.9517212,0.32904053,1.515625,1.8125,0.453125
1695656004701,-0.15258789,-0.95147705,0.3156128,1.75,1.609375,0.75
1695656004732,-0.16455078,-0.9421997,0.32147217,2.015625,2.890625,0.3125
1695656004777,-0.15722656,-0.95269775,0.3126831,1.46875,1.9375,0.28125
1695656004821,-0.1508789,-0.94610596,0.32147217,0.25,1.890625,0.21875
1695656004852,-0.16455078,-0.9558716,0.32025146,0.640625,2.09375,-0.078125
1695656004896,-0.16088867,-0.94073486,0.29656982,1.078125,2.46875,0.234375
1695656004940,-0.15551758,-0.95684814,0.3065796,-0.171875,1.125,0.203125
1695656004981,-0.14868164,-0.9524536,0.32659912,0.484375,1.4375,0.015625
1695656005018,-0.14697266,-0.95758057,0.29412842,-0.90625,0.140625,-0.0625
1695656005063,-0.16381836,-0.9573364,0.34295654,-0.1875,-0.640625,-0.171875
1695656005092,-0.1665039,-0.93218994,0.3204956,0.09375,1.453125,0.046875
1695656005152,-0.15112305,-0.9536743,0.31170654,-1.3125,0.734375,-0.3125
1695656005167,-0.16040039,-0.94976807,0.31536865,-1.3125,1.046875,-0.53125
1695656005212,-0.14770508,-0.9458618,0.3048706,-1.40625,1.1875,-0.625
1695656005257,-0.13769531,-0.95562744,0.31463623,-2.3125,0.765625,-0.65625
1695656005288,-0.16821289,-0.9417114,0.32366943,-1.3125,0.03125,-0.453125
1695656005332,-0.16503906,-0.95098877,0.3295288,-1.09375,0.296875,-0.421875
1695656005377,-0.15820312,-0.9495239,0.3234253,-0.921875,-0.640625,-0.0625
1695656005411,-0.16088867,-0.93829346,0.34320068,0.671875,-2.671875,0.9375
1695656005452,-0.15966797,-0.9558716,0.3241577,1.234375,-1.421875,0.859375
1695656005497,-0.15454102,-0.9553833,0.3222046,4.171875,-1.4375,0.796875
1695656005526,-0.16430664,-0.9404907,0.30828857,3.09375,-1.234375,0.703125
1695656005569,-0.19433594,-0.9475708,0.322937,2.4375,-1.65625,0.75
1695656005600,-0.13574219,-0.9402466,0.28363037,0.6875,-1.578125,0.421875
1695656005646,-0.1743164,-0.9500122,0.29071045,3.390625,0.484375,0.484375
1695656005690,-0.15112305,-0.9512329,0.2687378,-0.3125,2.03125,-0.09375
1695656005724,-0.1550293,-0.94732666,0.29656982,0.015625,4.015625,0.28125
1695656005767,-0.16235352,-0.9475708,0.30096436,-0.8125,2.1875,0.078125
1695656005812,-0.15576172,-0.9536743,0.2892456,-0.78125,1.4375,0.484375
1695656005842,-0.15576172,-0.96099854,0.2999878,-1.359375,0.671875,0.046875
1695656005886,-0.15258789,-0.9512329,0.29119873,-0.125,0.921875,0.09375
1695656005947,-0.15039062,-0.95635986,0.2958374,0.296875,0.90625,-0.21875
1695656005960,-0.17138672,-0.9463501,0.32122803,0.609375,1.25,0.0625
1695656006006,-0.15795898,-0.9439087,0.2987671,-0.09375,1.828125,0.15625
1695656006051,-0.15820312,-0.9522095,0.30145264,-1.046875,0.96875,-0.046875
1695656006083,-0.16577148,-0.9517212,0.29241943,-1.03125,3.578125,0.203125
1695656006127,-0.14038086,-0.9627075,0.31072998,-0.71875,4.03125,0.25
1695656006157,-0.15136719,-0.9468384,0.3078003,-0.65625,2.4375,0.8125
1695656006202,-0.15820312,-0.95098877,0.32025146,0.875,1.96875,0.484375
1695656006253,-0.14135742,-0.9585571,0.30267334,-0.015625,1.203125,0.390625
1695656006279,-0.15258789,-0.9487915,0.31732178,1.34375,1.5625,0.609375
1695656006326,-0.14355469,-0.95806885,0.30340576,-0.28125,0.3125,0.34375
1695656006368,-0.16308594,-0.954895,0.31488037,0.4375,1.046875,0.59375
1695656006399,-0.15429688,-0.9492798,0.30560303,1.65625,2.015625,0.34375
1695656006440,-0.14379883,-0.954895,0.2897339,0.15625,1.234375,0.421875
1695656006486,-0.15527344,-0.9590454,0.30316162,-1.234375,1.109375,0.09375
1695656006517,-0.15283203,-0.95147705,0.30096436,-0.515625,1.671875,0.421875
1695656006562,-0.16113281,-0.9627075,0.29656982,0.734375,2.546875,-0.03125
1695656006607,-0.14575195,-0.9495239,0.31292725,0.609375,5.234375,-0.453125
1695656006641,-0.1586914,-0.9578247,0.31585693,0.78125,3.84375,-0.234375
1695656006683,-0.15966797,-0.95440674,0.3048706,0.8125,2.90625,0.15625
1695656006715,-0.14477539,-0.944397,0.29632568,0.5625,2.375,-0.203125
1695656006757,-0.15771484,-0.9463501,0.29119873,-0.1875,1.953125,-0.015625
1695656006803,-0.13623047,-0.9590454,0.277771,0.046875,0.96875,0.328125
1695656006835,-0.1394043,-0.9480591,0.29119873,-0.71875,1.171875,-0.09375
1695656006893,-0.16796875,-0.97076416,0.31243896,0.578125,1.25,-0.125
1695656006927,-0.14794922,-0.95025635,0.29315186,-0.046875,1.84375,0.671875
1695656006953,-0.15649414,-0.96221924,0.30682373,-0.046875,0.953125,-0.09375
1695656006997,-0.1496582,-0.96343994,0.29974365,0.234375,1.125,0.21875
1695656007043,-0.1508789,-0.942688,0.2946167,-0.375,1.578125,0.375
1695656007072,-0.14672852,-0.9534302,0.3012085,-0.0625,1.234375,0.1875
1695656007118,-0.15454102,-0.96051025,0.2909546,0.0625,0.71875,0.578125
1695656007146,-0.1459961,-0.9534302,0.29901123,-0.21875,1.0,0.046875
1695656007193,-0.16577148,-0.9524536,0.29852295,-0.5625,0.453125,0.375
1695656007239,-0.14990234,-0.9483032,0.29559326,-0.203125,1.21875,-0.015625
1695656007266,-0.15356445,-0.96221924,0.2904663,-0.234375,0.859375,0.3125
1695656007315,-0.14282227,-0.9529419,0.30560303,0.0,1.375,-0.140625
1695656007357,-0.14526367,-0.9546509,0.29119873,0.0,1.3125,-0.21875
1695656007388,-0.1508789,-0.95758057,0.29901123,0.046875,0.984375,0.015625
1695656007433,-0.15307617,-0.958313,0.29315186,-0.421875,0.671875,-0.09375
1695656007480,-0.15771484,-0.95513916,0.3085327,0.328125,0.703125,0.1875
1695656007510,-0.15551758,-0.9522095,0.30194092,0.0,1.203125,0.421875
1695656007552,-0.15478516,-0.9500122,0.30682373,0.234375,0.796875,0.46875
1695656007629,-0.15649414,-0.96954346,0.3102417,-0.234375,-0.328125,0.859375
1695656007638,-0.15014648,-0.9483032,0.31243896,-0.796875,2.328125,0.15625
1695656007672,-0.14501953,-0.9595337,0.2987671,-0.421875,2.109375,0.515625
1695656007704,-0.13867188,-0.9495239,0.29852295,-0.875,1.984375,-0.328125
1695656007747,-0.16088867,-0.9644165,0.30682373,-0.59375,2.5,0.0
1695656007792,-0.15258789,-0.95562744,0.29730225,-0.078125,2.34375,0.015625
1695656007823,-0.1538086,-0.95318604,0.3053589,0.515625,1.484375,0.6875
1695656007868,-0.15576172,-0.9451294,0.30194092,-0.25,2.234375,0.265625
1695656007916,-0.15405273,-0.96221924,0.30438232,0.359375,1.0625,0.640625
1695656007942,-0.14428711,-0.9536743,0.29437256,1.21875,2.609375,-0.25
1695656007988,-0.14501953,-0.9627075,0.29486084,0.375,2.4375,0.203125
1695656008033,-0.15478516,-0.95025635,0.30340576,0.59375,1.671875,0.578125
1695656008062,-0.1394043,-0.9529419,0.30706787,-0.625,2.21875,0.1875
1695656008108,-0.14916992,-0.95440674,0.30462646,-1.25,0.84375,0.53125
1695656008139,-0.15161133,-0.9578247,0.29974365,-1.84375,0.078125,0.109375
1695656008182,-0.14672852,-0.9692993,0.33221436,-0.34375,0.5,0.21875
1695656008228,-0.15112305,-0.9495239,0.2831421,-1.859375,1.1875,0.484375
1695656008257,-0.14990234,-0.95196533,0.29608154,-1.296875,-0.3125,-0.15625
1695656008302,-0.14550781,-0.95758057,0.29632568,-1.296875,1.015625,-0.09375
1695656008347,-0.15356445,-0.9397583,0.307312,-0.890625,0.734375,0.0625
1695656008377,-0.1430664,-0.9602661,0.30633545,-1.25,0.421875,-0.1875
1695656008422,-0.1508789,-0.9534302,0.30999756,-0.234375,0.484375,0.203125
1695656008467,-0.14526367,-0.9505005,0.3053589,0.296875,1.140625,0.0625
1695656008497,-0.1484375,-0.9470825,0.32122803,0.046875,0.140625,0.09375
1695656008543,-0.15039062,-0.95269775,0.31072998,-0.15625,1.65625,0.015625
1695656008588,-0.1459961,-0.956604,0.30877686,-0.140625,0.734375,0.140625
1695656008617,-0.14794922,-0.95318604,0.3048706,-0.0625,1.1875,0.171875
1695656008662,-0.15014648,-0.95391846,0.31292725,0.140625,1.5625,0.296875
1695656008693,-0.14379883,-0.9534302,0.30950928,0.46875,1.359375,0.28125
1695656008738,-0.14819336,-0.95391846,0.30389404,-0.125,0.96875,0.328125
1695656008783,-0.14868164,-0.95758057,0.31292725,-0.21875,1.46875,0.0625
1695656008813,-0.14648438,-0.9507446,0.30511475,-0.203125,1.65625,0.328125
1695656008858,-0.1508789,-0.94610596,0.3163452,0.703125,0.96875,0.1875
1695656008920,-0.15429688,-0.9590454,0.29925537,-0.09375,1.375,0.421875
1695656008933,-0.13891602,-0.9456177,0.30584717,-0.53125,1.125,-0.046875
1695656008977,-0.15258789,-0.9507446,0.31658936,-0.046875,0.734375,-0.046875
1695656009026,-0.14404297,-0.9534302,0.31195068,-0.625,0.46875,-0.09375
1695656009053,-0.1538086,-0.95098877,0.31658936,0.359375,0.53125,0.171875
1695656009113,-0.15795898,-0.95098877,0.31097412,1.21875,1.09375,0.328125
1695656009143,-0.14794922,-0.9517212,0.30218506,1.484375,0.484375,0.046875
1695656009178,-0.15332031,-0.9570923,0.2958374,1.1875,-0.046875,-0.125
1695656009218,-0.1574707,-0.96295166,0.2958374,1.859375,-0.75,-0.46875
1695656009248,-0.1616211,-0.9692993,0.307312,3.4375,-2.578125,-0.15625
1695656009309,-0.15307617,-0.9529419,0.3048706,5.03125,-0.859375,-0.03125
1695656009337,-0.1538086,-0.9649048,0.28631592,4.5625,-0.875,-0.421875
1695656009369,-0.1574707,-0.95684814,0.2616577,3.03125,1.609375,-0.09375
1695656009414,-0.14697266,-0.95758057,0.26898193,2.84375,5.265625,-0.609375
1695656009458,-0.15527344,-0.9451294,0.23114014,-0.34375,2.40625,-0.203125
1695656009487,-0.15771484,-0.9631958,0.2921753,-1.296875,1.90625,0.109375
1695656009533,-0.15307617,-0.9446411,0.26361084,-2.578125,2.3125,-0.40625
1695656009578,-0.1694336,-0.9685669,0.28582764,-1.671875,2.515625,-0.1875
1695656009623,-0.15429688,-0.96221924,0.2518921,-1.65625,1.5,-0.390625
1695656009653,-0.15332031,-0.9585571,0.28826904,-1.578125,-0.015625,-0.125
1695656009682,-0.1628418,-0.9578247,0.29315186,-0.25,0.4375,0.1875
1695656009728,-0.16357422,-0.95391846,0.28118896,-0.734375,1.1875,-0.125
1695656009788,-0.14794922,-0.9573364,0.27972412,-0.125,1.125,-0.15625
1695656009801,-0.16430664,-0.9607544,0.27972412,0.03125,0.25,0.078125
1695656009847,-0.14477539,-0.96343994,0.28631592,-0.46875,1.234375,-0.1875
1695656009893,-0.15039062,-0.95318604,0.26922607,0.375,1.0625,-0.390625
1695656009923,-0.17700195,-0.95928955,0.2929077,0.890625,1.25,0.375
1695656009968,-0.15527344,-0.9534302,0.2819214,-0.890625,1.0,0.28125
1695656010013,-0.16455078,-0.9607544,0.2855835,0.25,0.96875,0.59375
1695656010042,-0.15161133,-0.9573364,0.28167725,-0.203125,0.84375,0.484375
1695656010087,-0.1640625,-0.95684814,0.28704834,0.234375,0.5625,0.78125
1695656010133,-0.15893555,-0.9495239,0.27947998,-0.015625,1.078125,0.6875
1695656010162,-0.15039062,-0.95391846,0.27996826,0.015625,1.15625,0.59375
1695656010207,-0.15600586,-0.9546509,0.26507568,-0.53125,0.328125,0.875
1695656010239,-0.15722656,-0.96661377,0.29681396,0.75,1.3125,0.484375
1695656010282,-0.15429688,-0.9480591,0.26971436,-0.921875,0.828125,0.796875
1695656010328,-0.16918945,-0.9578247,0.2909546,-0.234375,0.046875,0.234375
1695656010357,-0.16259766,-0.9627075,0.28485107,0.203125,2.109375,0.40625
1695656010402,-0.16137695,-0.9541626,0.28118896,-0.484375,1.59375,0.578125
1695656010448,-0.16235352,-0.954895,0.28094482,-1.171875,2.046875,0.171875
1695656010478,-0.15844727,-0.9595337,0.2892456,-0.109375,2.015625,0.25
1695656010523,-0.15283203,-0.9602661,0.28631592,-0.453125,1.3125,0.125
1695656010569,-0.15356445,-0.95196533,0.2826538,-1.140625,1.5625,0.25
1695656010598,-0.15625,-0.9639282,0.29266357,-0.640625,1.203125,0.046875
1695656010643,-0.1496582,-0.95513916,0.27581787,-0.640625,1.75,-0.1875
1695656010690,-0.14868164,-0.9541626,0.3012085,-0.0625,1.5,-0.109375
1695656010727,-0.16796875,-0.9607544,0.28070068,-0.59375,1.734375,-0.046875
1695656010765,-0.1538086,-0.9570923,0.2826538,-0.484375,1.984375,0.1875
1695656010807,-0.14697266,-0.954895,0.29241943,-0.15625,1.734375,-0.140625
1695656010837,-0.1616211,-0.95318604,0.27996826,-0.1875,1.09375,0.15625
1695656010882,-0.15258789,-0.9644165,0.28533936,-0.046875,0.921875,0.078125
1695656010917,-0.14892578,-0.9558716,0.28460693,0.0,1.0625,0.203125
1695656010957,-0.16455078,-0.9614868,0.2838745,0.125,1.375,0.3125
1695656011003,-0.14624023,-0.96417236,0.29486084,-0.03125,0.359375,0.203125
1695656011033,-0.1628418,-0.95684814,0.29022217,-0.375,1.34375,0.28125
1695656011078,-0.14746094,-0.9558716,0.2904663,0.1875,1.046875,0.1875
1695656011123,-0.15527344,-0.95318604,0.2909546,0.34375,1.390625,0.15625
1695656011152,-0.15917969,-0.95977783,0.29534912,-0.3125,1.671875,0.140625
1695656011197,-0.15771484,-0.9529419,0.2975464,0.046875,1.28125,0.421875
1695656011229,-0.15185547,-0.9607544,0.291687,-2.1875,1.984375,-0.0625
1695656011274,-0.15722656,-0.9573364,0.3078003,0.0625,2.140625,0.40625
1695656011317,-0.14550781,-0.94781494,0.29144287,-0.703125,1.25,0.109375
1695656011349,-0.16210938,-0.9524536,0.29437256,-0.640625,0.828125,0.3125
1695656011394,-0.14746094,-0.96466064,0.30096436,-1.078125,1.421875,-0.015625
1695656011438,-0.15478516,-0.95562744,0.29388428,-0.78125,0.859375,0.421875
1695656011471,-0.1484375,-0.960022,0.2999878,-0.71875,1.65625,-0.046875
1695656011514,-0.15112305,-0.95562744,0.30584717,-0.6875,1.015625,0.265625
1695656011560,-0.1496582,-0.95196533,0.30682373,-1.90625,1.34375,0.3125
1695656011589,-0.13061523,-0.94854736,0.24432373,3.125,5.28125,0.609375
1695656011632,-0.14794922,-0.9495239,0.29071045,1.84375,2.9375,0.375
1695656011708,-0.17895508,-0.9492798,0.30389404,-2.265625,1.609375,-0.4375
1695656011713,-0.16552734,-0.9692993,0.3102417,-1.671875,1.71875,-0.21875
1695656011752,-0.14501953,-0.95513916,0.3024292,-0.671875,2.640625,0.28125
1695656011781,-0.14697266,-0.9495239,0.2904663,0.578125,0.765625,0.859375
1695656011830,-0.14453125,-0.958313,0.29388428,-0.234375,0.703125,-0.078125
1695656011895,-0.15258789,-0.9524536,0.28778076,-1.046875,0.4375,-0.03125
1695656011902,-0.14111328,-0.9558716,0.30096436,-1.671875,0.4375,-0.25
1695656011945,-0.15454102,-0.9607544,0.29852295,-1.328125,0.328125,-0.28125
1695656011990,-0.15478516,-0.9458618,0.3131714,-0.96875,0.0625,0.171875
1695656012021,-0.15478516,-0.94854736,0.30047607,-0.390625,0.875,0.5625
1695656012067,-0.16235352,-0.95440674,0.31854248,0.09375,0.109375,0.765625
1695656012112,-0.15039062,-0.94000244,0.29974365,0.125,1.03125,0.578125
1695656012158,-0.15063477,-0.9529419,0.293396,-0.09375,0.5,0.640625
1695656012193,-0.15161133,-0.95391846,0.29803467,0.078125,1.375,0.5625
1695656012219,-0.15209961,-0.95318604,0.30877686,-0.125,0.890625,0.46875
1695656012262,-0.15625,-0.95928955,0.29510498,-0.03125,0.328125,0.765625
1695656012307,-0.14526367,-0.9495239,0.31097412,0.515625,1.109375,0.421875
1695656012341,-0.16357422,-0.95269775,0.29144287,-0.265625,0.546875,0.5625
1695656012381,-0.15112305,-0.9534302,0.30877686,-0.296875,1.5625,0.3125
1695656012426,-0.15112305,-0.9492798,0.30169678,-0.25,1.734375,0.4375
1695656012462,-0.14550781,-0.9529419,0.3048706,-0.25,1.71875,0.09375
1695656012502,-0.14697266,-0.9439087,0.30218506,0.1875,0.84375,0.734375
1695656012549,-0.15673828,-0.95880127,0.29388428,-0.921875,1.3125,-0.046875
1695656012577,-0.13330078,-0.94781494,0.31072998,-0.796875,1.4375,0.21875
1695656012622,-0.15966797,-0.9487915,0.30023193,-0.9375,1.3125,0.171875
1695656012667,-0.14697266,-0.96099854,0.3102417,-1.140625,1.53125,-0.171875
1695656012699,-0.15478516,-0.9487915,0.30828857,-0.796875,0.4375,0.171875
1695656012743,-0.15258789,-0.958313,0.30706787,-0.640625,0.375,-0.0625
1695656012772,-0.13842773,-0.9536743,0.3065796,0.5625,-0.765625,-0.125
1695656012819,-0.15795898,-0.9614868,0.32196045,1.609375,-2.53125,0.0625
1695656012862,-0.14428711,-0.96343994,0.30706787,1.265625,-2.078125,1.265625
1695656012893,-0.15112305,-0.9439087,0.30169678,-0.328125,0.546875,0.828125
1695656012935,-0.17114258,-0.9866333,0.31341553,1.046875,1.484375,0.3125
1695656012983,-0.1508789,-0.9446411,0.3139038,1.859375,0.859375,0.390625
1695656013014,-0.1743164,-0.9680786,0.30267334,5.328125,0.765625,1.515625
1695656013058,-0.119140625,-0.94537354,0.2694702,2.796875,-1.828125,0.8125
1695656013102,-0.13623047,-0.9507446,0.277771,0.953125,0.03125,1.203125
1695656013133,-0.15136719,-0.94415283,0.26922607,-1.03125,0.140625,0.78125
1695656013178,-0.1381836,-0.9483032,0.2748413,-3.0625,-0.28125,1.046875
1695656013222,-0.16479492,-0.9534302,0.30584717,-1.875,0.078125,0.484375
1695656013252,-0.13891602,-0.9751587,0.2999878,-1.234375,-1.703125,0.359375
1695656013298,-0.14526367,-0.95684814,0.29730225,-1.6875,-1.265625,0.28125
1695656013327,-0.15307617,-0.96099854,0.29071045,-0.734375,0.46875,-0.1875
1695656013373,-0.13916016,-0.9536743,0.29803467,-0.09375,0.421875,-0.1875
1695656013417,-0.15209961,-0.9468384,0.29534912,-0.546875,0.546875,-0.109375
1695656013448,-0.1496582,-0.9697876,0.30413818,-0.546875,1.984375,-0.421875
1695656013493,-0.14550781,-0.9558716,0.29559326,0.0,2.0625,-0.15625
1695656013554,-0.14990234,-0.95928955,0.3036499,0.640625,1.6875,0.203125
1695656013567,-0.13989258,-0.96759033,0.2897339,0.859375,1.140625,0.421875
1695656013613,-0.14990234,-0.9434204,0.293396,0.078125,0.3125,0.28125
1695656013655,-0.14892578,-0.9627075,0.30096436,0.640625,0.796875,0.578125
1695656013688,-0.13476562,-0.9558716,0.293396,-0.875,0.296875,0.21875
1695656013731,-0.15185547,-0.956604,0.2994995,-0.546875,0.28125,0.40625
1695656013761,-0.14501953,-0.96221924,0.28729248,0.9375,1.5,0.25
1695656013809,-0.14135742,-0.95147705,0.29144287,0.390625,1.78125,0.15625
1695656013861,-0.14038086,-0.95635986,0.27947998,0.046875,1.5625,0.0625
1695656013881,-0.14086914,-0.95684814,0.28753662,0.15625,1.1875,0.15625
1695656013927,-0.15991211,-0.94976807,0.28997803,0.53125,1.328125,0.421875
1695656013973,-0.14990234,-0.9541626,0.29144287,-0.125,1.421875,0.28125
1695656014006,-0.1484375,-0.95758057,0.2831421,-0.921875,1.1875,0.15625
1695656014047,-0.15039062,-0.96881104,0.28460693,-0.125,1.640625,-0.171875
1695656014093,-0.14453125,-0.95025635,0.28607178,1.015625,1.078125,-0.265625
1695656014123,-0.15991211,-0.958313,0.2999878,0.015625,1.828125,0.109375
1695656014167,-0.15356445,-0.95025635,0.2970581,-0.203125,1.09375,0.015625
1695656014213,-0.16064453,-0.9636841,0.28875732,-0.390625,1.71875,0.09375
1695656014242,-0.14135742,-0.9512329,0.3048706,0.28125,1.1875,-0.109375
1695656014288,-0.1508789,-0.97052,0.28607178,-1.59375,1.609375,-0.46875
1695656014317,-0.1508789,-0.9534302,0.29071045,-1.6875,0.109375,-0.140625
1695656014364,-0.15258789,-0.95880127,0.31170654,-1.140625,1.171875,-0.015625
1695656014407,-0.15014648,-0.9553833,0.2946167,-1.75,1.765625,-0.109375
1695656014438,-0.140625,-0.9505005,0.28826904,-0.578125,1.46875,-0.03125
1695656014479,-0.16088867,-0.9507446,0.29852295,0.21875,1.65625,0.140625
1695656014531,-0.13867188,-0.95318604,0.2994995,-0.15625,1.75,0.078125
1695656014557,-0.14355469,-0.9573364,0.29412842,-0.546875,0.96875,0.21875
1695656014602,-0.14428711,-0.9487915,0.30194092,0.265625,0.96875,0.390625
1695656014649,-0.15332031,-0.9661255,0.29901123,-0.4375,0.8125,0.34375
1695656014677,-0.14038086,-0.9522095,0.29315186,-0.5,1.125,0.1875
1695656014723,-0.13916016,-0.95635986,0.2909546,-0.796875,0.6875,0.015625
1695656014768,-0.15576172,-0.95880127,0.3060913,-1.09375,1.296875,0.171875
1695656014798,-0.14550781,-0.940979,0.30975342,-0.25,1.0625,0.265625
1695656014844,-0.15185547,-0.9661255,0.27557373,-1.5625,1.0625,0.0625
1695656014873,-0.14135742,-0.9607544,0.31414795,0.6875,0.765625,0.25
1695656014917,-0.15039062,-0.9487915,0.2880249,-0.953125,-0.046875,-0.03125
1695656014963,-0.15893555,-0.9644165,0.3078003,-1.640625,0.015625,0.0625
1695656014994,-0.1430664,-0.94537354,0.29534912,-0.421875,1.15625,0.109375
1695656015038,-0.1652832,-0.958313,0.30194092,-1.59375,0.28125,0.015625
1695656015083,-0.14550781,-0.9507446,0.3078003,-0.484375,1.84375,-0.15625
1695656015111,-0.15673828,-0.94976807,0.29510498,-0.09375,-0.171875,0.5
1695656015155,-0.15283203,-0.9561157,0.30316162,-0.125,0.484375,0.140625
1695656015207,-0.16064453,-0.9429321,0.30340576,0.21875,0.9375,0.25
1695656015230,-0.15991211,-0.9487915,0.30316162,0.640625,1.171875,0.078125
1695656015276,-0.15356445,-0.95880127,0.307312,0.421875,1.109375,0.390625
1695656015312,-0.1496582,-0.9456177,0.30682373,0.75,1.015625,0.4375
1695656015351,-0.15527344,-0.954895,0.29681396,0.34375,0.828125,0.1875
1695656015397,-0.15209961,-0.9558716,0.307312,0.546875,1.1875,0.1875
1695656015427,-0.15673828,-0.94610596,0.31121826,1.046875,1.375,0.09375
1695656015472,-0.15332031,-0.94976807,0.29974365,-0.046875,0.421875,0.015625
1695656015518,-0.15136719,-0.9529419,0.3053589,0.40625,0.9375,0.078125
1695656015546,-0.15307617,-0.94195557,0.30169678,-1.0625,-0.25,-0.15625
1695656015608,-0.16430664,-0.9651489,0.3139038,0.203125,-1.671875,0.03125
1695656015635,-0.17260742,-0.9627075,0.32513428,2.328125,0.765625,0.1875
1695656015667,-0.13574219,-0.9541626,0.30316162,4.78125,1.96875,0.625
1695656015712,-0.16455078,-0.9507446,0.29364014,4.953125,-0.46875,0.53125
1695656015756,-0.15209961,-0.9546509,0.2531128,1.53125,-4.125,0.484375
1695656015791,-0.1430664,-0.9627075,0.27923584,2.015625,0.578125,-0.21875
1695656015830,-0.15893555,-0.9456177,0.27435303,0.46875,0.109375,0.40625
1695656015866,-0.15112305,-0.95928955,0.276062,-2.140625,0.859375,0.71875
1695656015907,-0.15283203,-0.96221924,0.2921753,-1.078125,0.03125,0.5625
1695656015951,-0.15527344,-0.95440674,0.27288818,-1.46875,0.296875,0.5625
1695656015982,-0.1574707,-0.9636841,0.29071045,-0.390625,0.28125,0.703125
1695656016029,-0.14794922,-0.94195557,0.2765503,-2.84375,0.375,0.265625
1695656016073,-0.16796875,-0.97052,0.29266357,-1.296875,1.421875,-0.1875
1695656016105,-0.14038086,-0.9468384,0.29901123,0.03125,0.5625,0.328125
1695656016150,-0.15844727,-0.960022,0.2765503,-2.03125,0.1875,-0.078125
1695656016193,-0.16674805,-0.9763794,0.3085327,-0.75,0.671875,-0.15625
1695656016222,-0.1538086,-0.9439087,0.29144287,-0.234375,2.328125,0.0625
1695656016269,-0.15795898,-0.9636841,0.30194092,-0.59375,1.953125,0.03125
1695656016297,-0.15283203,-0.9534302,0.28851318,-0.25,0.953125,0.09375
1695656016343,-0.15356445,-0.9685669,0.29071045,-0.5,1.640625,-0.078125
1695656016388,-0.14892578,-0.9578247,0.30194092,0.21875,1.046875,0.0
1695656016417,-0.1652832,-0.95196533,0.2982788,-0.59375,2.25,0.15625
1695656016463,-0.14160156,-0.9614868,0.29266357,-0.296875,1.265625,-0.25
1695656016508,-0.16503906,-0.954895,0.29315186,-0.25,1.671875,0.078125
1695656016537,-0.15942383,-0.9573364,0.29241943,0.125,1.640625,0.21875
1695656016582,-0.15258789,-0.9458618,0.26971436,-2.03125,1.578125,0.046875
1695656016635,-0.16455078,-0.96051025,0.31219482,-0.4375,2.546875,-0.25
1695656016656,-0.16088867,-0.9624634,0.30438232,1.265625,2.078125,0.375
1695656016702,-0.14672852,-0.95025635,0.29681396,-0.109375,1.03125,-0.015625
1695656016777,-0.15429688,-0.954895,0.27996826,-0.546875,1.5625,0.109375
1695656016782,-0.15844727,-0.9512329,0.31243896,-0.4375,1.109375,-0.21875
1695656016824,-0.15161133,-0.9522095,0.3078003,0.609375,3.8125,0.046875
1695656016852,-0.14892578,-0.9512329,0.28900146,0.359375,1.46875,0.203125
1695656016897,-0.15454102,-0.96173096,0.31072998,-0.84375,1.53125,0.234375
1695656016941,-0.16625977,-0.95806885,0.2929077,-0.46875,2.65625,0.671875
1695656016971,-0.14453125,-0.956604,0.2904663,-1.171875,1.828125,0.125
1695656017017,-0.15112305,-0.958313,0.30194092,-0.53125,1.640625,0.171875
1695656017062,-0.14892578,-0.9468384,0.29925537,0.46875,1.125,0.28125
1695656017091,-0.15429688,-0.9468384,0.2892456,-0.6875,1.078125,0.15625
1695656017137,-0.15576172,-0.95684814,0.30706787,0.203125,1.140625,0.078125
1695656017181,-0.14428711,-0.94781494,0.293396,-0.046875,1.46875,-0.140625
1695656017215,-0.15454102,-0.95562744,0.29974365,-0.296875,1.625,0.15625
1695656017256,-0.15698242,-0.9534302,0.32244873,0.8125,1.671875,0.359375
1695656017299,-0.13916016,-0.94366455,0.27557373,-1.171875,1.84375,-0.078125
1695656017333,-0.15820312,-0.9602661,0.31536865,0.875,1.1875,0.328125
1695656017377,-0.13671875,-0.9495239,0.29144287,-1.125,0.953125,0.21875
1695656017409,-0.16064453,-0.956604,0.30194092,-0.546875,0.5,0.21875
1695656017450,-0.15332031,-0.9558716,0.2987671,-0.5625,1.3125,0.171875
1695656017496,-0.15283203,-0.960022,0.30023193,0.328125,0.9375,0.453125
1695656017528,-0.15478516,-0.9614868,0.29486084,-0.265625,1.3125,0.421875
1695656017587,-0.14111328,-0.95880127,0.29144287,-0.453125,0.96875,0.359375
1695656017622,-0.13696289,-0.95684814,0.29364014,0.515625,-0.265625,0.625
1695656017646,-0.15722656,-0.95147705,0.30194092,-0.078125,-2.015625,0.765625
1695656017692,-0.13574219,-0.9602661,0.30267334,-0.40625,-3.140625,1.21875
1695656017737,-0.15161133,-0.960022,0.29608154,1.5625,-3.125,1.359375
1695656017769,-0.14794922,-0.9585571,0.29486084,1.765625,-1.78125,1.453125
1695656017812,-0.15307617,-0.95928955,0.28704834,2.328125,-1.609375,1.203125
1695656017845,-0.15844727,-0.9536743,0.28216553,2.78125,0.71875,1.46875
1695656017888,-0.15136719,-0.94781494,0.28118896,4.21875,-0.203125,1.484375
1695656017931,-0.14941406,-0.9656372,0.2658081,1.90625,2.203125,1.125
1695656017970,-0.14135742,-0.95684814,0.2855835,5.234375,1.890625,1.265625
1695656018005,-0.1328125,-0.9661255,0.24066162,2.171875,0.34375,1.125
1695656018053,-0.1394043,-0.98321533,0.2831421,3.859375,0.984375,1.859375
