,timestamp,accel_x,accel_y,accel_z,gyro_x,gyro_y,gyro_z,ind
0,1696201051257,0.27661133,-0.9636841,0.11590576,-0.453125,3.4375,-0.609375,31
1,1696201051297,0.28344727,-0.9619751,0.10345459,2.671875,5.09375,0.9375,32
2,1696201051337,0.2800293,-0.9534302,0.07952881,1.59375,4.9375,-1.28125,33
3,1696201051377,0.27905273,-0.9351196,0.054138184,1.59375,4.234375,-2.328125,34
4,1696201051417,0.28930664,-0.9536743,0.040222168,0.84375,2.15625,2.125,35
5,1696201051457,0.28515625,-0.9558716,0.07122803,-0.671875,2.796875,0.578125,36
6,1696201051497,0.2861328,-0.9578247,0.042663574,-0.46875,2.25,0.28125,37
7,1696201051537,0.27661133,-0.9295044,0.06072998,-0.25,1.078125,-0.875,38
8,1696201051577,0.28515625,-0.94000244,0.05657959,-0.390625,-0.125,-1.328125,39
9,1696201051617,0.2927246,-0.923645,0.04144287,-0.953125,-1.3125,0.46875,40
10,1696201051657,0.2824707,-0.93756104,0.0758667,-0.859375,-1.15625,1.109375,41
11,1696201051697,0.296875,-0.9458618,0.062438965,-0.578125,-1.359375,-1.09375,42
12,1696201051737,0.2919922,-0.9417114,0.062683105,1.40625,-1.875,-1.421875,43
13,1696201051777,0.2956543,-0.93951416,0.04144287,0.53125,-3.453125,-1.90625,44
14,1696201051817,0.28564453,-0.9417114,0.04071045,-0.140625,-6.28125,1.96875,45
15,1696201051857,0.26391602,-0.9314575,0.09710693,2.609375,-3.75,3.734375,46
16,1696201051897,0.27807617,-0.96539307,0.07562256,2.21875,-3.859375,0.96875,47
17,1696201051937,0.29589844,-0.9492798,0.05291748,0.90625,-1.359375,-1.875,48
18,1696201051977,0.29516602,-0.9373169,0.058776855,-0.5,-0.265625,-2.609375,49
19,1696201052017,0.28710938,-0.9627075,0.06463623,-1.78125,-1.265625,-1.640625,50
20,1696201052057,0.29492188,-0.96588135,0.0680542,-1.265625,-0.609375,-1.0625,51
21,1696201052097,0.28198242,-0.9595337,0.07342529,-1.71875,0.703125,-0.671875,52
22,1696201052137,0.27856445,-0.94976807,0.07244873,-1.375,0.875,-0.546875,53
23,1696201052177,0.2775879,-0.9470825,0.07879639,-0.53125,0.625,-0.375,54
24,1696201052217,0.2758789,-0.958313,0.08270264,-1.296875,0.15625,-0.109375,55
25,1696201052257,0.26831055,-0.958313,0.11981201,-2.046875,1.96875,-0.828125,56
26,1696201052297,0.29882812,-0.9985962,0.061462402,-1.5,1.984375,-1.703125,57
27,1696201052337,0.27954102,-0.9307251,0.070739746,-0.21875,2.109375,-5.515625,58
28,1696201052377,0.2685547,-0.9175415,0.058044434,0.625,2.078125,-1.953125,59
29,1696201052417,0.27954102,-0.97198486,0.06365967,-0.609375,3.65625,2.09375,60
30,1696201052457,0.2783203,-0.9536743,0.062927246,0.03125,3.59375,0.96875,61
31,1696201052497,0.2783203,-0.9299927,0.06121826,0.671875,1.984375,0.734375,62
32,1696201052537,0.2709961,-0.94000244,0.058288574,-0.203125,0.234375,1.09375,63
33,1696201052577,0.2849121,-0.9495239,0.062927246,0.59375,-0.515625,1.109375,64
34,1696201052617,0.28735352,-0.93829346,0.06756592,0.703125,-1.09375,1.0625,65
35,1696201052657,0.29101562,-0.9500122,0.06829834,0.59375,-1.453125,-0.28125,66
36,1696201052697,0.29248047,-0.94317627,0.0524292,0.046875,-1.578125,-1.421875,67
37,1696201052737,0.28857422,-0.93756104,0.046569824,0.453125,-2.40625,-0.890625,68
38,1696201052777,0.28833008,-0.940979,0.058044434,-0.203125,-3.796875,0.984375,69
39,1696201052817,0.2680664,-0.9373169,0.08514404,3.046875,-1.75,3.09375,70
40,1696201052857,0.29003906,-0.956604,0.08148193,1.953125,-0.890625,0.875,71
41,1696201052897,0.29760742,-0.9570923,0.059753418,-1.1875,-2.265625,-1.828125,72
42,1696201052937,0.28222656,-0.9534302,0.06341553,-0.359375,-0.875,-2.78125,73
43,1696201052977,0.2783203,-0.9573364,0.062438965,-1.09375,-0.671875,-1.296875,74
44,1696201053017,0.28735352,-0.960022,0.07904053,-2.125,0.40625,0.125,75
45,1696201053057,0.28149414,-0.94610596,0.08538818,-0.578125,-0.125,1.25,76
46,1696201053097,0.27929688,-0.9631958,0.08026123,-1.296875,1.21875,-0.796875,77
47,1696201053137,0.265625,-0.93756104,0.097839355,2.21875,0.09375,0.375,78
48,1696201053177,0.2836914,-0.96588135,0.093444824,-3.4375,1.84375,-1.734375,79
49,1696201053217,0.26831055,-0.97662354,0.09613037,0.28125,3.046875,-0.609375,80
50,1696201053257,0.2944336,-0.96295166,0.07293701,0.0,1.6875,-2.046875,81
51,1696201053297,0.2697754,-0.93951416,0.057800293,-1.234375,-0.359375,-4.015625,82
52,1696201053337,0.26464844,-0.93829346,0.06390381,1.265625,1.015625,-2.96875,83
53,1696201053377,0.2783203,-0.95025635,0.055114746,-0.40625,2.4375,-1.765625,84
54,1696201053417,0.2763672,-0.9561157,0.055358887,1.546875,2.0625,-0.21875,85
55,1696201053457,0.27612305,-0.92852783,0.053649902,1.296875,1.75,1.390625,86
56,1696201053497,0.2578125,-0.9536743,0.062683105,0.59375,0.671875,2.0,87
57,1696201053537,0.28759766,-0.9507446,0.055847168,0.25,-0.921875,1.359375,88
58,1696201053577,0.28344727,-0.93829346,0.05706787,0.90625,-1.578125,2.078125,89
59,1696201053617,0.28466797,-0.94903564,0.078063965,0.578125,-0.125,1.03125,90
60,1696201053657,0.29785156,-0.9573364,0.06439209,-0.421875,-0.671875,-0.796875,91
61,1696201053697,0.28833008,-0.9429321,0.0524292,1.609375,-0.71875,-1.3125,92
62,1696201053737,0.28295898,-0.93634033,0.053894043,-0.40625,-1.625,-0.140625,93
63,1696201053777,0.28710938,-0.9192505,0.034606934,-0.25,-0.96875,4.34375,94
64,1696201053817,0.2758789,-0.9402466,0.07122803,-0.734375,-0.3125,7.546875,95
65,1696201053857,0.31347656,-0.96539307,0.07098389,0.890625,0.015625,5.21875,96
66,1696201053897,0.33569336,-0.927063,0.058044434,1.546875,-0.75,4.640625,97
67,1696201053937,0.28295898,-0.9522095,0.07098389,-1.453125,-2.296875,1.40625,98
68,1696201053977,0.3088379,-0.97491455,0.06781006,0.875,-1.546875,-0.859375,99
69,1696201054017,0.29492188,-0.94122314,0.085876465,-1.46875,-1.703125,-2.34375,100
70,1696201054057,0.30981445,-0.9651489,0.06561279,-1.09375,0.734375,-0.359375,101
71,1696201054097,0.2980957,-0.9553833,0.07952881,-2.296875,-0.859375,-1.296875,102
72,1696201054137,0.28930664,-0.9439087,0.07611084,-0.453125,1.328125,-0.6875,103
73,1696201054177,0.30664062,-0.9573364,0.08782959,-0.984375,2.34375,-0.5,104
74,1696201054217,0.2956543,-0.97198486,0.070007324,-0.671875,1.875,-1.4375,105
75,1696201054257,0.3203125,-0.9351196,0.07269287,-0.109375,-0.140625,-5.96875,106
76,1696201054297,0.31298828,-0.9151001,0.061950684,-1.765625,0.78125,-4.640625,107
77,1696201054337,0.3034668,-0.9451294,0.047302246,-1.09375,1.71875,-3.65625,108
78,1696201054377,0.29882812,-0.9529419,0.06048584,3.0,2.71875,-1.484375,109
79,1696201054417,0.27563477,-0.9446411,0.05706787,1.953125,1.578125,0.15625,110
80,1696201054457,0.28930664,-0.95147705,0.059265137,0.65625,1.84375,0.546875,111
81,1696201054497,0.28686523,-0.9480591,0.0524292,0.6875,1.625,0.03125,112
82,1696201054537,0.28930664,-0.9348755,0.0446167,0.125,0.984375,-0.890625,113
83,1696201054577,0.28833008,-0.94781494,0.04486084,0.21875,0.3125,0.375,114
84,1696201054617,0.29760742,-0.93634033,0.030944824,1.171875,-0.078125,1.5625,115
85,1696201054657,0.29101562,-0.9468384,0.054870605,-0.375,-0.9375,2.171875,116
86,1696201054697,0.29663086,-0.9475708,0.05291748,0.109375,-0.40625,0.0625,117
87,1696201054737,0.29516602,-0.94244385,0.055603027,-0.171875,-0.921875,-2.515625,118
88,1696201054777,0.29760742,-0.944397,0.035827637,-0.125,-2.140625,-1.765625,119
89,1696201054817,0.29052734,-0.93585205,0.02947998,-0.21875,-3.640625,-0.0625,120
90,1696201054857,0.27734375,-0.91778564,0.08074951,1.125,-3.015625,4.3125,121
91,1696201054897,0.29907227,-0.9624634,0.08001709,0.25,-0.90625,3.453125,122
92,1696201054937,0.30126953,-0.93096924,0.0770874,4.03125,-0.5625,1.625,123
93,1696201054977,0.3215332,-0.9458618,0.03656006,-4.3125,-0.90625,-1.0,124
94,1696201055017,0.2956543,-0.958313,0.047790527,-1.671875,-1.5625,-0.296875,125
95,1696201055057,0.30517578,-0.95098877,0.07147217,-1.296875,-0.125,-0.1875,126
96,1696201055097,0.3005371,-0.9607544,0.06463623,-2.671875,0.09375,-0.4375,127
97,1696201055137,0.29345703,-0.942688,0.06488037,-0.578125,0.953125,-0.8125,128
98,1696201055177,0.30029297,-0.942688,0.07904053,-1.40625,0.5625,-0.984375,129
99,1696201055217,0.30419922,-0.9480591,0.09442139,0.203125,2.90625,-1.859375,130
100,1696201055257,0.29956055,-0.9734497,0.074157715,-0.28125,2.15625,-1.640625,131
101,1696201055297,0.2902832,-0.9524536,0.08294678,2.125,1.90625,-4.53125,132
102,1696201055337,0.2861328,-0.93878174,0.053894043,-0.359375,-0.1875,-3.953125,133
103,1696201055377,0.29345703,-0.9402466,0.053649902,-0.421875,1.359375,0.9375,134
104,1696201055417,0.29174805,-0.97247314,0.07537842,1.046875,2.9375,-0.1875,135
105,1696201055457,0.28686523,-0.9326782,0.039001465,0.8125,1.90625,-0.84375,136
106,1696201055497,0.2788086,-0.927063,0.04486084,0.625,1.265625,1.421875,137
107,1696201055537,0.29125977,-0.9429321,0.04119873,-0.4375,-0.265625,1.1875,138
108,1696201055577,0.2927246,-0.9338989,0.047790527,0.484375,-0.15625,2.15625,139
109,1696201055617,0.29638672,-0.958313,0.070007324,-0.546875,-0.1875,1.890625,140
110,1696201055657,0.3083496,-0.95098877,0.047546387,-0.140625,-0.71875,0.0,141
111,1696201055697,0.30395508,-0.94122314,0.05609131,0.265625,-1.03125,-0.734375,142
112,1696201055737,0.3022461,-0.94610596,0.051696777,-1.171875,-1.890625,-1.8125,143
113,1696201055777,0.2939453,-0.9468384,0.038269043,-1.09375,-2.953125,0.546875,144
114,1696201055817,0.28076172,-0.927063,0.08758545,-2.640625,-0.015625,2.546875,145
115,1696201055857,0.29418945,-0.9421997,0.06951904,-3.0625,-1.078125,0.78125,146
116,1696201055897,0.3232422,-0.9495239,0.062194824,-1.8125,-4.296875,-3.28125,147
117,1696201055937,0.29492188,-0.9307251,0.07269287,2.546875,-2.1875,-2.328125,148
118,1696201055977,0.29589844,-0.96173096,0.07879639,-1.71875,-1.796875,-1.828125,149
119,1696201056017,0.29492188,-0.95928955,0.077819824,-0.265625,-0.640625,-0.65625,150
120,1696201056057,0.2878418,-0.94415283,0.07122803,-0.09375,1.15625,-0.25,151
121,1696201056097,0.28979492,-0.9451294,0.08123779,0.0625,1.25,-0.390625,152
122,1696201056137,0.29077148,-0.94537354,0.08734131,-0.375,0.8125,0.234375,153
123,1696201056177,0.29614258,-0.9524536,0.074157715,-0.984375,1.46875,-0.265625,154
124,1696201056217,0.28076172,-0.9495239,0.10858154,1.109375,2.78125,0.625,155
125,1696201056257,0.29077148,-0.9758911,0.061462402,-1.296875,0.8125,1.15625,156
126,1696201056297,0.2944336,-0.9553833,0.07196045,0.234375,0.34375,-2.5,157
127,1696201056337,0.30444336,-0.9234009,0.06317139,0.96875,1.625,-4.109375,158
128,1696201056377,0.3046875,-0.9446411,0.050476074,-1.8125,2.578125,-0.453125,159
129,1696201056417,0.30517578,-0.9402466,0.04437256,1.421875,3.5,-0.4375,160
130,1696201056457,0.29907227,-0.93829346,0.055847168,2.625,2.484375,1.046875,161
131,1696201056497,0.28271484,-0.94122314,0.06097412,0.921875,1.453125,0.703125,162
132,1696201056537,0.28125,-0.94903564,0.047302246,0.390625,0.21875,0.9375,163
133,1696201056577,0.2919922,-0.9277954,0.038513184,0.15625,-1.484375,1.140625,164
134,1696201056617,0.30029297,-0.9312134,0.043884277,-1.1875,-1.765625,1.28125,165
135,1696201056657,0.30688477,-0.94317627,0.047546387,-1.078125,-3.640625,1.03125,166
136,1696201056697,0.30639648,-0.9429321,0.07147217,-1.6875,-1.875,-0.8125,167
137,1696201056737,0.28076172,-0.9380493,0.07684326,1.75,-3.734375,1.140625,168
138,1696201056777,0.29492188,-0.9536743,0.0758667,-1.203125,-2.28125,-1.828125,169
139,1696201056817,0.2939453,-0.92852783,0.06341553,-1.140625,-4.6875,-0.84375,170
140,1696201056857,0.2861328,-0.95025635,0.07196045,-2.0,-1.625,-0.09375,171
141,1696201056897,0.29174805,-0.9512329,0.078308105,-1.34375,-0.125,1.46875,172
142,1696201056937,0.30297852,-0.95269775,0.08343506,-2.453125,1.4375,1.296875,173
143,1696201056977,0.30615234,-0.95318604,0.08685303,-1.0625,1.265625,0.171875,174
144,1696201057017,0.29663086,-0.9421997,0.085632324,0.0625,1.21875,-0.5,175
145,1696201057057,0.30493164,-0.93756104,0.0770874,0.34375,1.734375,-0.5625,176
146,1696201057097,0.29663086,-0.9314575,0.08465576,-0.328125,0.625,-0.578125,177
147,1696201057137,0.29833984,-0.9483032,0.10394287,-0.125,0.46875,0.1875,178
148,1696201057177,0.29467773,-0.954895,0.08074951,0.609375,0.609375,0.046875,179
149,1696201057217,0.29296875,-0.9446411,0.09442139,2.296875,2.6875,-0.953125,180
150,1696201057257,0.30004883,-0.9710083,0.08294678,-0.65625,1.234375,-2.6875,181
151,1696201057297,0.3071289,-0.9546509,0.08294678,1.4375,0.9375,-4.421875,182
152,1696201057337,0.28320312,-0.9209595,0.054382324,1.65625,2.125,-4.0625,183
153,1696201057377,0.29003906,-0.9307251,0.042663574,1.21875,5.59375,-3.140625,184
154,1696201057417,0.27612305,-0.94659424,0.047790527,1.421875,2.875,-0.15625,185
155,1696201057457,0.28295898,-0.9429321,0.06072998,1.421875,1.484375,1.5625,186
156,1696201057497,0.28320312,-0.9290161,0.051940918,0.078125,0.46875,1.34375,187
157,1696201057537,0.29345703,-0.93927,0.06732178,1.0,-0.59375,1.4375,188
158,1696201057577,0.29516602,-0.94415283,0.05633545,0.25,1.171875,0.1875,189
159,1696201057617,0.29345703,-0.9319458,0.053894043,1.0,-1.75,-0.453125,190
160,1696201057657,0.30615234,-0.93756104,0.043395996,-0.984375,-1.0,-1.09375,191
161,1696201057697,0.29516602,-0.94366455,0.06488037,1.234375,-0.96875,0.296875,192
162,1696201057737,0.29882812,-0.9368286,0.054626465,0.390625,-0.46875,-0.234375,193
163,1696201057777,0.28466797,-0.9241333,0.04901123,1.6875,-1.390625,4.71875,194
164,1696201057817,0.28857422,-0.93756104,0.07489014,2.03125,0.78125,6.640625,195
165,1696201057857,0.3112793,-0.9751587,0.062438965,-0.890625,-0.015625,3.25,196
166,1696201057897,0.32055664,-0.940979,0.049743652,0.265625,0.171875,0.859375,197
167,1696201057937,0.3161621,-0.927063,0.04852295,-0.375,1.0625,1.015625,198
168,1696201057977,0.32250977,-0.9558716,0.05657959,-1.078125,-0.34375,-0.25,199
169,1696201058017,0.31103516,-0.9456177,0.06048584,0.171875,0.15625,-0.59375,200
170,1696201058057,0.31518555,-0.9463501,0.046569824,-1.265625,-0.25,-0.953125,201
171,1696201058097,0.31396484,-0.93536377,0.066345215,0.328125,0.03125,-1.421875,202
172,1696201058137,0.3251953,-0.9414673,0.05657959,-4.640625,1.6875,-0.75,203
173,1696201058177,0.30615234,-0.94244385,0.07220459,2.71875,1.65625,-0.25,204
174,1696201058217,0.30395508,-0.944397,0.074401855,-1.21875,4.046875,0.921875,205
175,1696201058257,0.3166504,-0.9805298,0.061706543,-0.15625,2.203125,-0.953125,206
176,1696201058297,0.2998047,-0.9234009,0.059265137,3.0625,1.171875,-3.375,207
177,1696201058337,0.30029297,-0.93218994,0.04925537,-2.0,1.28125,-1.421875,208
178,1696201058377,0.31860352,-0.9717407,0.036071777,-1.671875,1.265625,-0.625,209
179,1696201058417,0.31225586,-0.93707275,0.058776855,1.9375,1.65625,0.328125,210
180,1696201058457,0.30273438,-0.94415283,0.034851074,-0.8125,0.140625,1.5625,211
181,1696201058497,0.2902832,-0.9209595,0.013366699,2.421875,1.265625,2.515625,212
182,1696201058537,0.33911133,-0.9429321,0.02532959,6.625,3.125,3.09375,213
183,1696201058577,0.3251953,-0.9209595,0.018249512,0.4375,0.421875,2.71875,214
184,1696201058617,0.33398438,-0.9273071,0.018737793,-0.484375,-0.765625,0.546875,215
185,1696201058657,0.34106445,-0.9248657,0.030212402,-0.671875,-1.0625,-0.8125,216
186,1696201058697,0.33764648,-0.9209595,0.019226074,-1.296875,-3.546875,-1.28125,217
187,1696201058737,0.31420898,-0.9487915,0.045837402,-8.0625,-7.6875,0.65625,218
188,1696201058777,0.34106445,-0.91412354,0.053894043,-7.203125,-5.8125,2.8125,219
189,1696201058817,0.34887695,-0.92510986,0.06414795,-3.59375,-7.171875,-2.671875,220
190,1696201058857,0.31298828,-0.9553833,0.06121826,1.5625,-4.75,-3.0,221
191,1696201058897,0.30273438,-0.92803955,0.06781006,0.640625,-1.734375,-3.09375,222
192,1696201058937,0.30151367,-0.9385376,0.08514404,-3.734375,-2.109375,-3.234375,223
193,1696201058977,0.30297852,-0.9429321,0.07611084,-0.515625,-1.265625,-1.5625,224
194,1696201059017,0.30249023,-0.94415283,0.09075928,-0.578125,1.328125,-1.515625,225
195,1696201059057,0.31323242,-0.9439087,0.08416748,-0.71875,0.921875,-0.71875,226
196,1696201059097,0.30810547,-0.94610596,0.09466553,1.46875,1.5625,0.390625,227
197,1696201059137,0.29907227,-0.9507446,0.08660889,1.9375,1.875,-0.265625,228
198,1696201059177,0.29003906,-0.9373169,0.08709717,5.515625,5.1875,2.09375,229
199,1696201059217,0.30493164,-0.960022,0.08880615,2.375,6.75,0.0625,230
200,1696201059257,0.31225586,-0.9602661,0.05706787,0.984375,3.84375,-1.359375,231
201,1696201059297,0.3034668,-0.9343872,-0.004211426,0.984375,7.03125,-0.109375,232
202,1696201059337,0.32006836,-0.91192627,0.029724121,0.828125,6.78125,1.59375,233
203,1696201059377,0.3239746,-0.93048096,0.035339355,-0.265625,5.046875,3.140625,234
204,1696201059417,0.3322754,-0.9331665,0.035339355,0.375,2.421875,3.203125,235
205,1696201059457,0.32641602,-0.9331665,0.03753662,1.625,2.46875,2.71875,236
206,1696201059497,0.33007812,-0.9209595,0.022644043,1.84375,-0.09375,0.59375,237
207,1696201059537,0.33081055,-0.92315674,0.026550293,1.328125,-0.078125,-0.09375,238
208,1696201059577,0.34033203,-0.9216919,0.026550293,-0.140625,-2.15625,-0.921875,239
209,1696201059617,0.33081055,-0.9343872,0.027038574,0.03125,-2.5,-0.953125,240
210,1696201059657,0.32055664,-0.9348755,0.03289795,-1.15625,-3.15625,-2.046875,241
211,1696201059697,0.3474121,-0.9570923,-0.022521973,-7.484375,-8.234375,1.0,242
212,1696201059737,0.32641602,-0.91070557,0.06951904,2.359375,-0.53125,1.421875,243
213,1696201059777,0.32006836,-0.96417236,0.078552246,2.5625,-3.28125,1.421875,244
214,1696201059817,0.3232422,-0.9404907,0.046569824,2.140625,-0.15625,0.25,245
215,1696201059857,0.33154297,-0.91192627,0.047790527,0.796875,0.3125,-0.328125,246
216,1696201059897,0.33276367,-0.9463501,0.055358887,-2.046875,1.125,-2.21875,247
217,1696201059937,0.32592773,-0.9295044,0.046813965,1.734375,-0.1875,-0.140625,248
218,1696201059977,0.34570312,-0.9290161,0.04486084,-0.828125,1.46875,-2.578125,249
219,1696201060017,0.31933594,-0.94415283,0.062927246,-0.140625,-0.28125,-1.046875,250
220,1696201060057,0.32348633,-0.9524536,0.06756592,-0.875,0.78125,-1.15625,251
221,1696201060097,0.32861328,-0.94732666,0.06732178,-1.78125,1.265625,-2.5,252
222,1696201060137,0.31762695,-0.95562744,0.066345215,-1.375,-0.171875,-2.859375,253
223,1696201060177,0.3232422,-0.93536377,0.062683105,-2.109375,-0.53125,-3.453125,254
224,1696201060217,0.3034668,-0.9368286,0.021911621,0.296875,2.6875,-3.359375,255
225,1696201060257,0.32592773,-0.95513916,0.034851074,-0.953125,2.71875,-2.875,256
226,1696201060297,0.30541992,-0.9385376,0.03729248,1.609375,3.59375,-0.015625,257
227,1696201060337,0.2956543,-0.9561157,0.03753662,-0.765625,0.796875,0.578125,258
228,1696201060377,0.32836914,-0.9290161,0.031433105,1.796875,-0.28125,0.34375,259
229,1696201060417,0.30737305,-0.928772,0.04876709,-0.046875,-1.03125,0.046875,260
230,1696201060457,0.3178711,-0.92510986,0.042419434,0.375,-2.015625,-0.078125,261
231,1696201060497,0.31884766,-0.92144775,0.035095215,-0.53125,-2.046875,-0.265625,262
232,1696201060537,0.32617188,-0.927063,0.036315918,-0.1875,-1.515625,0.546875,263
233,1696201060577,0.31274414,-0.9397583,0.04510498,0.0,-1.390625,0.0625,264
234,1696201060617,0.32788086,-0.9163208,0.029968262,1.4375,0.828125,3.015625,265
235,1696201060657,0.32788086,-0.9336548,-0.00030517578,1.21875,-1.296875,6.765625,266
236,1696201060697,0.28930664,-0.96221924,0.13470459,3.25,-5.359375,2.84375,267
237,1696201060737,0.33251953,-0.9602661,0.06561279,0.265625,0.28125,1.078125,268
238,1696201060777,0.31689453,-0.92388916,0.035583496,-0.609375,-0.09375,-1.0,269
239,1696201060817,0.33398438,-0.93096924,0.058776855,-0.34375,-0.125,-1.03125,270
240,1696201060857,0.3334961,-0.9351196,0.04046631,-2.1875,-0.140625,-0.75,271
241,1696201060897,0.32495117,-0.9265747,0.04925537,-0.3125,0.90625,-1.296875,272
242,1696201060937,0.33154297,-0.94781494,0.050476074,-1.84375,-1.078125,-1.390625,273
243,1696201060977,0.31958008,-0.93096924,0.050720215,1.171875,0.125,-2.171875,274
244,1696201061017,0.3203125,-0.94244385,0.06829834,0.359375,0.578125,-2.390625,275
245,1696201061057,0.31274414,-0.94976807,0.05633545,0.5625,2.015625,-2.59375,276
246,1696201061097,0.30517578,-0.95562744,0.05609131,-1.234375,0.671875,-2.40625,277
247,1696201061137,0.3215332,-0.94781494,0.05706787,-1.65625,-0.625,-2.5,278
248,1696201061177,0.3088379,-0.94317627,0.06732178,-0.875,2.015625,-2.109375,279
249,1696201061217,0.3088379,-0.954895,0.058532715,-0.671875,3.265625,-3.171875,280
250,1696201061257,0.3034668,-0.9404907,0.051208496,0.5,3.125,-3.578125,281
251,1696201061297,0.3046875,-0.93414307,0.042907715,0.984375,2.34375,-2.46875,282
252,1696201061337,0.29589844,-0.9343872,0.017028809,-0.5,2.125,-0.203125,283
253,1696201061377,0.30151367,-0.93634033,0.02923584,-0.28125,0.84375,2.15625,284
254,1696201061417,0.30078125,-0.9312134,0.029968262,0.1875,-0.46875,3.359375,285
255,1696201061457,0.32080078,-0.94903564,0.049743652,-2.046875,-0.015625,-0.1875,286
256,1696201061497,0.32763672,-0.9331665,0.027282715,-0.515625,-4.53125,-1.515625,287
257,1696201061537,0.29101562,-0.95025635,0.03778076,-3.5625,-4.109375,-2.125,288
258,1696201061577,0.33032227,-0.93878174,0.0602417,-0.765625,-2.203125,-1.03125,289
259,1696201061617,0.31103516,-0.9639282,0.039489746,-4.125,-4.734375,0.078125,290
260,1696201061657,0.30273438,-0.9356079,0.049743652,-1.328125,-5.171875,0.40625,291
261,1696201061697,0.2939453,-0.9204712,0.094177246,-3.234375,-5.09375,-0.78125,292
262,1696201061737,0.2998047,-0.9480591,0.08856201,-2.328125,-2.8125,-1.421875,293
263,1696201061777,0.28515625,-0.9578247,0.07537842,-1.875,-1.1875,0.59375,294
264,1696201061817,0.29882812,-0.94122314,0.0848999,-2.546875,0.125,0.625,295
265,1696201061857,0.30200195,-0.9429321,0.098083496,-2.65625,0.828125,-1.03125,296
266,1696201061897,0.30395508,-0.942688,0.093933105,0.84375,-0.21875,-1.78125,297
267,1696201061937,0.2993164,-0.94000244,0.08123779,0.890625,1.390625,-1.375,298
268,1696201061977,0.30151367,-0.94317627,0.09686279,1.859375,1.25,-0.234375,299
269,1696201062017,0.2919922,-0.9480591,0.09906006,1.375,2.203125,0.03125,300
270,1696201062057,0.28955078,-0.95098877,0.09442139,4.109375,4.390625,1.625,301
271,1696201062097,0.2841797,-0.9553833,0.07635498,4.046875,5.859375,2.640625,302
272,1696201062137,0.3059082,-0.95928955,0.070739746,1.28125,3.796875,-1.0,303
273,1696201062177,0.3322754,-0.9429321,0.040222168,-1.296875,0.71875,-1.84375,304
274,1696201062217,0.30029297,-0.92633057,0.055847168,7.1875,7.90625,-0.46875,305
275,1696201062257,0.32958984,-0.9558716,0.0040893555,3.703125,11.875,2.578125,306
276,1696201062297,0.2836914,-0.95758057,0.0211792,3.28125,9.4375,5.125,307
277,1696201062337,0.31689453,-0.93951416,-0.00030517578,3.046875,2.4375,3.140625,308
278,1696201062377,0.30859375,-0.91607666,-0.004211426,-0.203125,1.6875,4.03125,309
279,1696201062417,0.33129883,-0.90509033,0.018981934,-0.078125,2.5625,1.578125,310
280,1696201062457,0.35009766,-0.95147705,0.011413574,-1.265625,1.453125,1.03125,311
281,1696201062497,0.3461914,-0.8982544,0.0016479492,0.375,-0.21875,0.046875,312
282,1696201062537,0.34936523,-0.9312134,0.00091552734,-2.53125,-2.09375,-1.15625,313
283,1696201062577,0.33422852,-0.9380493,0.024108887,-1.25,-3.625,-0.796875,314
284,1696201062617,0.3305664,-0.9558716,0.004333496,-4.703125,-9.59375,0.296875,315
285,1696201062657,0.32104492,-0.913147,0.051452637,-3.28125,-7.5,2.4375,316
286,1696201062697,0.31933594,-0.9451294,0.05657959,-4.140625,-6.28125,1.125,317
287,1696201062737,0.32910156,-0.94659424,0.043640137,-4.375,-4.8125,-1.734375,318
288,1696201062777,0.34301758,-0.91973877,0.058288574,-2.65625,-4.046875,-2.28125,319
289,1696201062817,0.32617188,-0.94610596,0.059509277,-2.828125,-2.28125,-2.78125,320
290,1696201062857,0.3161621,-0.9338989,0.07977295,-0.1875,-1.0,-2.15625,321
291,1696201062897,0.31079102,-0.93927,0.08392334,-1.421875,0.296875,-2.171875,322
292,1696201062937,0.31030273,-0.9290161,0.08319092,0.453125,0.234375,-0.1875,323
293,1696201062977,0.32080078,-0.93414307,0.078063965,-0.46875,1.109375,-1.03125,324
294,1696201063017,0.31713867,-0.9290161,0.09881592,1.796875,4.203125,-1.0,325
295,1696201063057,0.30639648,-0.9380493,0.07733154,5.90625,9.828125,-0.328125,326
296,1696201063097,0.32641602,-0.94732666,0.049743652,8.921875,11.84375,0.40625,327
297,1696201063137,0.32788086,-0.9651489,0.04901123,8.59375,8.09375,-1.34375,328
298,1696201063177,0.32495117,-0.9192505,-0.011779785,4.96875,4.4375,-0.875,329
299,1696201063217,0.3203125,-0.9480591,-0.0064086914,6.15625,5.234375,2.40625,330
300,1696201063257,0.3227539,-0.9216919,-0.012268066,7.65625,8.59375,-0.5,331
301,1696201063297,0.3395996,-0.9314575,-0.018859863,3.8125,4.78125,-0.84375,332
302,1696201063337,0.3088379,-0.9468384,-0.019348145,-2.84375,0.46875,-1.765625,333
303,1696201063377,0.31420898,-0.91900635,-0.04937744,-3.234375,-3.453125,-0.71875,334
304,1696201063417,0.31201172,-0.9277954,-0.008361816,-9.578125,-7.953125,-2.25,335
305,1696201063457,0.34375,-0.9385376,0.035583496,-2.8125,-0.859375,-0.90625,336
306,1696201063497,0.33666992,-0.9246216,-0.024230957,-4.9375,-4.84375,-2.21875,337
307,1696201063537,0.33374023,-0.92315674,0.00091552734,-6.53125,-8.078125,0.1875,338
308,1696201063577,0.32080078,-0.9524536,0.02947998,-11.65625,-13.78125,-0.671875,339
309,1696201063617,0.32226562,-0.95025635,0.062683105,-7.578125,-14.828125,-3.96875,340
310,1696201063657,0.2939453,-0.9121704,0.07733154,-1.5625,-10.625,-3.90625,341
311,1696201063697,0.3005371,-0.9463501,0.059509277,-3.203125,-4.75,-4.5625,342
312,1696201063737,0.2980957,-0.9463501,0.08782959,-3.421875,-1.21875,0.125,343
313,1696201063777,0.29296875,-0.9656372,0.094177246,-0.953125,0.015625,-0.140625,344
314,1696201063817,0.2939453,-0.9627075,0.08734131,0.53125,-0.625,-0.46875,345
315,1696201063857,0.28466797,-0.92681885,0.08782959,1.0625,1.734375,-0.71875,346
316,1696201063897,0.2866211,-0.9314575,0.08856201,-0.09375,2.078125,-0.46875,347
317,1696201063937,0.2956543,-0.9451294,0.07635498,1.546875,2.09375,0.3125,348
318,1696201063977,0.3017578,-0.9397583,0.093444824,3.75,4.5,0.625,349
319,1696201064017,0.2800293,-0.96588135,0.09539795,2.859375,3.609375,2.375,350
320,1696201064057,0.29223633,-0.9883423,0.08392334,-1.90625,-0.71875,-1.921875,351
321,1696201064097,0.3017578,-0.95928955,0.07318115,-2.84375,-3.8125,-8.921875,352
322,1696201064137,0.2902832,-0.925354,0.050964355,-0.421875,0.984375,-5.84375,353
323,1696201064177,0.31225586,-0.94659424,0.05731201,0.203125,3.03125,-1.0,354
324,1696201064217,0.2939453,-0.94415283,0.08685303,-0.140625,4.15625,0.828125,355
325,1696201064257,0.28393555,-0.954895,0.06903076,2.203125,3.75,1.125,356
326,1696201064297,0.27319336,-0.93951416,0.050476074,2.265625,3.25,0.828125,357
327,1696201064337,0.2631836,-0.9524536,0.039978027,1.0625,1.875,0.5625,358
328,1696201064377,0.2800293,-0.91412354,0.005554199,0.828125,4.546875,-0.9375,359
329,1696201064417,0.28466797,-0.92681885,0.03338623,0.828125,-1.1875,2.890625,360
330,1696201064457,0.30249023,-0.9365845,0.06365967,-1.046875,-0.796875,0.75,361
331,1696201064497,0.29516602,-0.9434204,0.046325684,-0.703125,-1.21875,-1.40625,362
332,1696201064537,0.3083496,-0.96710205,0.0065307617,-4.125,-9.15625,-1.859375,363
333,1696201064577,0.30566406,-0.9570923,0.05267334,-7.203125,-19.0,-1.890625,364
334,1696201064617,0.26831055,-0.93096924,0.14837646,-0.703125,-20.578125,-8.5625,365
335,1696201064657,0.26342773,-0.95196533,0.10443115,-0.46875,-3.875,-3.4375,366
336,1696201064697,0.2692871,-0.91534424,0.04876709,-0.5,-2.5,-0.1875,367
337,1696201064737,0.2836914,-0.96759033,0.11932373,-1.6875,0.53125,-1.796875,368
338,1696201064777,0.2524414,-0.9487915,0.109313965,2.296875,1.734375,0.234375,369
339,1696201064817,0.25317383,-0.9483032,0.101501465,1.171875,3.8125,1.359375,370
340,1696201064857,0.26733398,-0.9536743,0.08856201,1.96875,5.4375,3.25,371
341,1696201064897,0.28442383,-0.9385376,0.101989746,3.1875,8.453125,3.609375,372
342,1696201064937,0.28393555,-0.9746704,0.09613037,1.328125,8.5625,3.78125,373
343,1696201064977,0.2915039,-0.9651489,0.05706787,-0.3125,5.4375,1.296875,374
344,1696201065017,0.29785156,-0.9456177,0.0770874,0.0625,2.84375,-1.171875,375
345,1696201065057,0.29345703,-0.95513916,0.06072998,-2.984375,0.375,-0.453125,376
346,1696201065097,0.28320312,-0.9356079,0.055114746,-0.015625,3.015625,-2.640625,377
347,1696201065137,0.27368164,-0.93170166,0.06829834,3.34375,4.671875,-0.359375,378
348,1696201065177,0.28955078,-0.9487915,0.0602417,2.125,5.640625,-0.90625,379
349,1696201065217,0.28833008,-0.92974854,0.07171631,7.09375,7.859375,0.5625,380
350,1696201065257,0.29125977,-0.9602661,0.013366699,2.890625,4.65625,1.90625,381
351,1696201065297,0.29125977,-0.9277954,0.022644043,4.3125,3.53125,1.265625,382
352,1696201065337,0.29638672,-0.9522095,0.015563965,0.1875,0.78125,1.90625,383
353,1696201065377,0.30810547,-0.9348755,0.014587402,0.171875,-0.78125,1.53125,384
354,1696201065417,0.31054688,-0.93951416,0.02923584,-0.359375,-1.4375,0.984375,385
355,1696201065457,0.31933594,-0.94244385,-0.0015258789,-1.40625,-4.4375,-1.546875,386
356,1696201065497,0.2915039,-0.9783325,0.014099121,-13.5,-17.203125,-1.046875,387
357,1696201065537,0.2758789,-0.9727173,0.10882568,-7.375,-20.4375,-4.53125,388
358,1696201065577,0.3310547,-0.9360962,0.062927246,-1.609375,-7.921875,-2.203125,389
359,1696201065617,0.2614746,-0.8845825,0.08294678,3.09375,2.265625,3.578125,390
360,1696201065657,0.29882812,-0.9439087,0.057800293,-6.765625,1.3125,0.796875,391
361,1696201065697,0.30908203,-0.97247314,0.09686279,1.0625,2.4375,-1.03125,392
362,1696201065737,0.2763672,-0.93414307,0.09100342,4.5,2.296875,-1.515625,393
363,1696201065777,0.28637695,-0.95880127,0.06976318,1.625,3.234375,-1.046875,394
364,1696201065817,0.29467773,-0.93829346,0.08050537,4.609375,3.15625,0.703125,395
365,1696201065857,0.31079102,-0.96099854,0.06414795,0.5625,3.390625,0.375,396
366,1696201065897,0.28710938,-0.9585571,0.06341553,-0.34375,0.234375,0.8125,397
367,1696201065937,0.2878418,-0.9380493,0.09442139,0.796875,2.140625,0.546875,398
368,1696201065977,0.3010254,-0.99713135,0.07220459,-6.75,-0.59375,-2.140625,399
369,1696201066017,0.29370117,-0.9373169,0.06390381,0.5,0.734375,-6.765625,400
370,1696201066057,0.30371094,-0.923645,0.047058105,-0.609375,2.625,-3.453125,401
371,1696201066097,0.2878418,-0.93096924,0.043151855,3.265625,7.859375,1.390625,402
372,1696201066137,0.29833984,-0.9380493,0.042419434,3.703125,7.6875,1.328125,403
373,1696201066177,0.26293945,-0.9290161,0.047302246,7.4375,6.5625,1.890625,404
374,1696201066217,0.2668457,-0.9714966,0.035827637,2.375,5.640625,1.75,405
375,1696201066257,0.30151367,-0.9434204,0.026550293,3.9375,4.921875,0.03125,406
376,1696201066297,0.3017578,-0.94195557,0.0099487305,0.75,0.859375,1.796875,407
377,1696201066337,0.31811523,-0.9451294,0.006286621,-1.625,-1.90625,2.46875,408
378,1696201066377,0.3076172,-0.9456177,0.01361084,-2.21875,-3.96875,1.453125,409
379,1696201066417,0.31420898,-0.9500122,0.018981934,-3.96875,-7.78125,-0.3125,410
380,1696201066457,0.29003906,-0.92193604,0.062194824,-1.40625,-10.65625,0.5,411
381,1696201066497,0.31054688,-0.92803955,0.08709717,4.1875,-2.609375,-0.3125,412
382,1696201066537,0.2902832,-0.9404907,0.009460449,-0.0625,-2.8125,1.203125,413
383,1696201066577,0.33691406,-0.94610596,0.026794434,-0.0625,1.09375,-1.109375,414
384,1696201066617,0.29858398,-0.94415283,0.050964355,-0.671875,1.8125,1.84375,415
385,1696201066657,0.31225586,-0.9612427,0.051452637,-0.78125,2.5625,-0.21875,416
386,1696201066697,0.31689453,-0.95318604,0.050476074,0.765625,1.40625,-1.234375,417
387,1696201066737,0.3022461,-0.9380493,0.03753662,0.859375,1.734375,-1.390625,418
388,1696201066777,0.3022461,-0.9434204,0.050231934,-1.15625,0.953125,-1.359375,419
389,1696201066817,0.3083496,-0.9492798,0.051696777,0.21875,2.390625,-1.46875,420
390,1696201066857,0.30737305,-0.9746704,0.042907715,-0.0625,4.953125,-2.171875,421
391,1696201066897,0.29589844,-0.93414307,0.035583496,1.90625,3.828125,-2.78125,422
392,1696201066937,0.28833008,-0.9434204,0.027770996,-0.875,0.390625,-2.953125,423
393,1696201066977,0.28759766,-0.93951416,0.010681152,0.65625,2.234375,-0.59375,424
394,1696201067017,0.30249023,-0.9536743,0.035095215,0.765625,2.140625,-0.390625,425
395,1696201067057,0.29858398,-0.958313,0.026794434,0.9375,1.890625,0.25,426
396,1696201067097,0.29052734,-0.9229126,0.015319824,2.53125,1.6875,0.46875,427
397,1696201067137,0.30126953,-0.94122314,0.024353027,2.65625,1.640625,0.46875,428
398,1696201067177,0.3046875,-0.94488525,0.00091552734,2.671875,2.890625,0.265625,429
399,1696201067217,0.2919922,-0.9365845,-0.015197754,1.96875,0.375,1.40625,430
400,1696201067257,0.29467773,-0.9402466,0.00579834,-1.4375,-0.4375,2.296875,431
401,1696201067297,0.30151367,-0.9439087,-0.012023926,-3.9375,-3.859375,2.140625,432
402,1696201067337,0.2956543,-0.9651489,-0.012023926,-7.375,-8.765625,2.078125,433
403,1696201067377,0.31811523,-0.9175415,0.06048584,-5.5625,-9.125,-0.828125,434
404,1696201067417,0.3203125,-0.9573364,0.07635498,-3.90625,-10.375,-0.453125,435
405,1696201067457,0.31396484,-0.9343872,-0.018127441,-0.46875,-4.890625,-2.5,436
406,1696201067497,0.31933594,-0.9273071,0.031677246,-0.8125,-2.859375,-0.875,437
407,1696201067537,0.29638672,-0.95684814,0.066589355,-1.4375,-2.46875,-0.53125,438
408,1696201067577,0.29638672,-0.9492798,0.062683105,0.875,1.09375,0.125,439
409,1696201067617,0.29467773,-0.95098877,0.06414795,0.15625,1.5,-1.15625,440
410,1696201067657,0.3005371,-0.9495239,0.055114746,1.46875,1.671875,-0.890625,441
411,1696201067697,0.28979492,-0.9507446,0.055114746,0.15625,2.3125,-1.15625,442
412,1696201067737,0.30004883,-0.9378052,0.055603027,0.296875,2.59375,-0.171875,443
413,1696201067777,0.30395508,-0.94537354,0.07196045,-1.09375,1.90625,0.328125,444
414,1696201067817,0.2915039,-0.96710205,0.070007324,-0.8125,1.5625,1.296875,445
415,1696201067857,0.30639648,-0.9546509,0.058776855,-1.78125,1.671875,-1.390625,446
416,1696201067897,0.30297852,-0.9360962,0.049743652,-0.546875,2.609375,-2.609375,447
417,1696201067937,0.30126953,-0.9216919,0.047790527,0.78125,4.03125,-0.859375,448
418,1696201067977,0.29516602,-0.94122314,0.042663574,6.84375,7.765625,0.5625,449
419,1696201068017,0.30517578,-0.9458618,0.022888184,6.375,5.0,1.28125,450
420,1696201068057,0.29125977,-0.9273071,0.0065307617,4.46875,3.34375,0.484375,451
421,1696201068097,0.2890625,-0.92510986,0.025817871,5.140625,4.109375,0.015625,452
422,1696201068137,0.31445312,-0.9639282,0.0021362305,2.421875,2.171875,0.921875,453
423,1696201068177,0.31152344,-0.9248657,-0.004699707,1.328125,0.171875,0.328125,454
424,1696201068217,0.30932617,-0.93341064,0.0028686523,-0.78125,-1.359375,-0.3125,455
425,1696201068257,0.30078125,-0.93536377,-0.01373291,-2.109375,-1.890625,0.171875,456
426,1696201068297,0.3125,-0.9439087,-0.01763916,-4.890625,-3.28125,1.28125,457
427,1696201068337,0.32250977,-0.9439087,-0.0056762695,-9.6875,-9.109375,-0.125,458
428,1696201068377,0.3022461,-0.944397,0.06097412,-8.71875,-11.21875,-1.65625,459
429,1696201068417,0.31396484,-0.9434204,0.07879639,-3.890625,-8.453125,-2.046875,460
430,1696201068457,0.31396484,-0.91363525,0.04071045,-1.59375,-6.953125,-1.5,461
431,1696201068497,0.3005371,-0.9224243,0.06829834,-0.640625,-1.96875,-2.1875,462
432,1696201068537,0.29907227,-0.9573364,0.078063965,-1.03125,-3.4375,-1.546875,463
433,1696201068577,0.30029297,-0.95635986,0.07537842,0.640625,-0.734375,-1.34375,464
434,1696201068617,0.29296875,-0.95635986,0.06781006,-0.125,0.875,-0.53125,465
435,1696201068657,0.29418945,-0.9512329,0.06341553,0.859375,1.859375,-0.375,466
436,1696201068697,0.2854004,-0.94537354,0.074157715,1.4375,2.09375,0.265625,467
437,1696201068737,0.29663086,-0.9331665,0.074157715,2.953125,2.9375,2.078125,468
438,1696201068777,0.30078125,-0.9590454,0.06341553,-1.84375,3.484375,1.03125,469
439,1696201068817,0.30126953,-0.956604,0.08734131,-1.609375,5.671875,1.390625,470
440,1696201068857,0.32348633,-0.95440674,0.04827881,-2.015625,2.25,-3.125,471
441,1696201068897,0.3034668,-0.92071533,0.03729248,3.921875,6.34375,-0.453125,472
442,1696201068937,0.30541992,-0.9578247,0.031433105,3.484375,5.078125,0.609375,473
443,1696201068977,0.3112793,-0.91485596,0.034606934,7.65625,8.25,1.015625,474
444,1696201069017,0.29638672,-0.9697876,0.0036010742,4.6875,6.46875,-0.296875,475
445,1696201069057,0.31860352,-0.9072876,-0.009094238,7.640625,6.796875,-0.125,476
446,1696201069097,0.30126953,-0.92926025,-0.0049438477,3.28125,4.578125,0.765625,477
447,1696201069137,0.31225586,-0.9512329,-0.026184082,0.4375,1.4375,-0.8125,478
448,1696201069177,0.3095703,-0.93829346,-0.0256958,-2.96875,-2.59375,-0.71875,479
449,1696201069217,0.3059082,-0.9224243,-0.0068969727,-3.265625,-3.28125,-1.03125,480
450,1696201069257,0.31103516,-0.92681885,-0.0071411133,-4.21875,-5.0625,-1.234375,481
451,1696201069297,0.30395508,-0.94366455,-0.012756348,-5.15625,-6.625,-1.125,482
452,1696201069337,0.30786133,-0.92926025,0.016296387,-8.546875,-12.03125,1.25,483
453,1696201069377,0.29711914,-0.9505005,0.11077881,0.515625,-8.15625,2.421875,484
454,1696201069417,0.30126953,-0.95098877,0.06536865,-2.09375,-5.671875,-3.359375,485
455,1696201069457,0.32910156,-0.91900635,-0.002746582,0.640625,-3.78125,-2.84375,486
456,1696201069497,0.31176758,-0.9522095,0.0680542,-1.796875,-2.890625,-6.046875,487
457,1696201069537,0.28149414,-0.96710205,0.062438965,1.890625,-1.046875,-2.703125,488
458,1696201069577,0.27563477,-0.96466064,0.05609131,-1.09375,0.9375,-2.734375,489
459,1696201069617,0.27734375,-0.9685669,0.053649902,-0.796875,1.109375,-1.515625,490
460,1696201069657,0.27319336,-0.9421997,0.051940918,-0.28125,0.796875,-1.15625,491
461,1696201069697,0.28076172,-0.94854736,0.04437256,-3.265625,0.03125,-1.3125,492
462,1696201069737,0.29296875,-0.95513916,0.04949951,-1.890625,-0.4375,-0.125,493
463,1696201069777,0.28198242,-0.9649048,0.07733154,-2.21875,1.671875,0.109375,494
464,1696201069817,0.29223633,-0.9668579,0.070739746,-0.90625,1.453125,-2.59375,495
465,1696201069857,0.29296875,-0.96343994,0.04901123,0.65625,3.6875,-1.171875,496
466,1696201069897,0.2775879,-0.9570923,0.054626465,2.671875,6.546875,2.046875,497
467,1696201069937,0.27807617,-0.913147,0.03314209,2.53125,6.890625,1.5625,498
468,1696201069977,0.2841797,-0.9397583,0.045837402,3.703125,6.25,1.21875,499
469,1696201070017,0.2849121,-0.94659424,0.022888184,3.265625,4.296875,-0.140625,500
470,1696201070057,0.29370117,-0.9429321,0.023620605,2.78125,2.765625,-0.03125,501
471,1696201070097,0.3005371,-0.94537354,0.009460449,-0.296875,0.5,0.234375,502
472,1696201070137,0.29052734,-0.9324341,0.016540527,-0.40625,-0.78125,1.140625,503
473,1696201070177,0.30419922,-0.9446411,0.023620605,-1.25,-0.96875,-1.390625,504
474,1696201070217,0.29833984,-0.94000244,0.0026245117,-0.734375,-1.859375,-0.8125,505
475,1696201070257,0.27807617,-0.9368286,0.016296387,-1.8125,-2.09375,0.109375,506
476,1696201070297,0.29760742,-0.954895,-0.027648926,-5.84375,-8.015625,-2.234375,507
477,1696201070337,0.2866211,-0.92755127,0.051940918,-5.875,-11.921875,0.671875,508
478,1696201070377,0.2578125,-0.9360962,0.12664795,0.75,-9.953125,1.328125,509
479,1696201070417,0.31811523,-0.9644165,0.07147217,-5.90625,-6.296875,-3.625,510
480,1696201070457,0.31347656,-0.92681885,0.04925537,-0.15625,-2.984375,-1.421875,511
481,1696201070497,0.2705078,-0.94976807,0.059753418,-1.203125,-1.1875,0.078125,512
482,1696201070537,0.2722168,-0.9788208,0.07196045,0.96875,0.96875,-0.84375,513
483,1696201070577,0.27514648,-0.9585571,0.06365967,0.515625,1.25,-1.25,514
484,1696201070617,0.27416992,-0.9595337,0.07879639,0.421875,0.890625,-1.09375,515
485,1696201070657,0.2680664,-0.94488525,0.08343506,0.421875,2.15625,-0.6875,516
486,1696201070697,0.27856445,-0.96295166,0.08148193,-2.84375,3.078125,0.125,517
487,1696201070737,0.29516602,-0.9534302,0.08514404,0.21875,3.671875,-1.34375,518
488,1696201070777,0.2861328,-0.94903564,0.05657959,-1.0,0.703125,-1.640625,519
489,1696201070817,0.27416992,-0.92755127,0.059753418,1.109375,4.578125,-0.140625,520
490,1696201070857,0.29125977,-0.96759033,0.05657959,0.0625,5.34375,-1.734375,521
491,1696201070897,0.28955078,-0.944397,0.06341553,5.359375,4.71875,-1.65625,522
492,1696201070937,0.27075195,-0.95928955,0.047302246,2.9375,2.4375,-2.328125,523
493,1696201070977,0.2614746,-0.9639282,0.03314209,1.546875,1.109375,-0.25,524
494,1696201071017,0.27294922,-0.95098877,0.022155762,0.71875,0.890625,-0.0625,525
495,1696201071057,0.26635742,-0.94073486,0.010681152,0.4375,2.171875,0.34375,526
496,1696201071097,0.2854004,-0.93170166,0.00579834,-0.546875,2.140625,0.515625,527
497,1696201071137,0.2763672,-0.9451294,0.0079956055,-1.828125,-0.9375,-0.0625,528
498,1696201071177,0.27539062,-0.94244385,0.010681152,-0.640625,-2.8125,1.625,529
499,1696201071217,0.29077148,-0.9439087,-0.0032348633,-6.640625,-7.0,0.546875,530
500,1696201071257,0.2783203,-0.9536743,0.085632324,-2.609375,-6.21875,2.515625,531
501,1696201071297,0.2722168,-0.9807739,0.07147217,-1.265625,-6.765625,-0.84375,532
502,1696201071337,0.30566406,-0.9302368,0.046569824,0.3125,-4.46875,-2.90625,533
503,1696201071377,0.2927246,-0.9351196,0.06365967,-1.796875,-2.578125,-1.484375,534
504,1696201071417,0.26708984,-0.9590454,0.07171631,-2.015625,-1.90625,0.375,535
505,1696201071457,0.28759766,-0.9729614,0.07293701,-1.453125,0.1875,1.046875,536
506,1696201071497,0.2836914,-0.9619751,0.074645996,-0.453125,1.421875,0.21875,537
507,1696201071537,0.27001953,-0.94659424,0.078308105,2.375,1.15625,-0.046875,538
508,1696201071577,0.28125,-0.9458618,0.06365967,-0.21875,1.34375,-1.953125,539
509,1696201071617,0.2800293,-0.94732666,0.06561279,0.328125,-0.53125,0.859375,540
510,1696201071657,0.2775879,-0.9487915,0.06585693,-2.359375,-0.6875,-0.34375,541
511,1696201071697,0.27368164,-0.94317627,0.10784912,-0.703125,2.3125,0.625,542
512,1696201071737,0.28222656,-0.9944458,0.0848999,-2.953125,3.546875,-2.5625,543
513,1696201071777,0.28173828,-0.9512329,0.05291748,0.15625,2.296875,-3.625,544
514,1696201071817,0.2668457,-0.93829346,0.059265137,-0.109375,2.265625,0.203125,545
515,1696201071857,0.2697754,-0.95562744,0.082458496,0.375,2.828125,1.234375,546
516,1696201071897,0.28271484,-0.956604,0.06317139,0.625,2.78125,1.578125,547
517,1696201071937,0.27929688,-0.9429321,0.05609131,2.421875,2.96875,2.15625,548
518,1696201071977,0.2854004,-0.95196533,0.046569824,2.0625,3.0,0.578125,549
519,1696201072017,0.28735352,-0.9380493,0.03729248,1.765625,0.90625,0.9375,550
520,1696201072057,0.27954102,-0.93341064,0.023376465,1.546875,-1.296875,1.046875,551
521,1696201072097,0.29760742,-0.9314575,0.016784668,0.828125,-1.546875,2.4375,552
522,1696201072137,0.31152344,-0.9385376,0.023132324,-3.0625,-5.234375,3.171875,553
523,1696201072177,0.31176758,-0.92803955,0.06781006,-1.609375,-5.171875,1.5625,554
524,1696201072217,0.28515625,-0.9373169,0.059020996,4.71875,-1.21875,3.1875,555
525,1696201072257,0.34570312,-0.96295166,0.04827881,1.203125,3.125,2.6875,556
526,1696201072297,0.30371094,-0.928772,0.08270264,5.203125,-2.65625,-3.671875,557
527,1696201072337,0.296875,-0.9741821,0.04119873,0.671875,-2.796875,-3.328125,558
528,1696201072377,0.2854004,-0.9541626,0.04559326,-0.046875,-2.140625,-0.65625,559
529,1696201072417,0.2800293,-0.95025635,0.066101074,-1.125,0.1875,0.0,560
530,1696201072457,0.28955078,-0.95562744,0.046569824,-0.875,0.8125,1.015625,561
531,1696201072497,0.29248047,-0.93096924,0.03753662,-0.515625,2.109375,0.140625,562
532,1696201072537,0.2919922,-0.9414673,0.0368042,-3.03125,1.5625,1.625,563
533,1696201072577,0.30249023,-0.9468384,0.055603027,-2.53125,1.921875,2.515625,564
534,1696201072617,0.30444336,-0.96417236,0.066833496,-2.359375,3.265625,1.453125,565
535,1696201072657,0.31762695,-0.9553833,0.058532715,-1.0,4.359375,-0.984375,566
536,1696201072697,0.3149414,-0.9299927,0.043151855,-0.0625,1.921875,-1.4375,567
537,1696201072737,0.31201172,-0.9302368,0.0446167,2.921875,4.9375,-0.546875,568
538,1696201072777,0.3178711,-0.97662354,0.047302246,3.015625,6.453125,0.15625,569
539,1696201072817,0.296875,-0.92022705,0.004333496,6.921875,3.96875,-1.921875,570
540,1696201072857,0.31713867,-0.94195557,0.0211792,3.5625,4.734375,-0.46875,571
541,1696201072897,0.30297852,-0.9512329,0.008972168,2.9375,2.078125,-0.21875,572
542,1696201072937,0.29223633,-0.94415283,0.00579834,2.703125,1.0625,-0.953125,573
543,1696201072977,0.30786133,-0.9397583,-0.01373291,0.8125,0.375,0.75,574
544,1696201073017,0.3215332,-0.942688,-0.028625488,-3.15625,0.03125,-0.515625,575
545,1696201073057,0.30004883,-0.92755127,-0.018127441,-2.359375,-2.21875,2.390625,576
546,1696201073097,0.31860352,-0.9277954,-0.026916504,-4.8125,-5.953125,2.171875,577
547,1696201073137,0.32788086,-0.92315674,0.04559326,1.09375,-1.703125,4.453125,578
548,1696201073177,0.32495117,-0.9378052,0.024353027,1.796875,-2.53125,4.453125,579
549,1696201073217,0.32983398,-0.92437744,-0.0051879883,-1.765625,0.71875,2.65625,580
550,1696201073257,0.33569336,-0.9404907,0.05267334,-2.75,-0.59375,0.484375,581
551,1696201073297,0.33447266,-0.9697876,0.04876709,-1.25,-1.296875,1.453125,582
552,1696201073337,0.31982422,-0.93292236,0.0602417,-2.8125,-0.90625,-0.265625,583
553,1696201073377,0.34692383,-0.9417114,0.04486084,-4.140625,-0.53125,-1.75,584
554,1696201073417,0.33447266,-0.9324341,0.051696777,-0.609375,-0.921875,-1.1875,585
555,1696201073457,0.33666992,-0.9421997,0.053894043,0.34375,-0.71875,-1.75,586
556,1696201073497,0.32128906,-0.9302368,0.045837402,-0.234375,-1.75,-1.875,587
557,1696201073537,0.31835938,-0.9319458,0.043640137,1.578125,-0.9375,-2.484375,588
558,1696201073577,0.31469727,-0.9402466,0.04534912,0.375,1.0,-2.984375,589
559,1696201073617,0.31811523,-0.95806885,0.042419434,0.78125,3.734375,-4.40625,590
560,1696201073657,0.31030273,-0.958313,0.012145996,1.578125,4.15625,-4.296875,591
561,1696201073697,0.30517578,-0.9234009,0.014099121,6.0625,3.328125,-1.90625,592
562,1696201073737,0.29492188,-0.927063,0.027038574,2.59375,4.859375,-0.1875,593
563,1696201073777,0.3100586,-0.94317627,0.019470215,2.625,4.4375,2.15625,594
564,1696201073817,0.3083496,-0.9295044,0.012634277,2.4375,4.125,-0.71875,595
565,1696201073857,0.31152344,-0.93170166,0.0065307617,3.9375,3.71875,-1.203125,596
566,1696201073897,0.32592773,-0.9421997,-0.014953613,2.484375,2.53125,-2.015625,597
567,1696201073937,0.30444336,-0.9417114,-0.030334473,1.671875,-0.171875,-0.9375,598
568,1696201073977,0.31079102,-0.9373169,-0.034973145,-0.9375,-1.5,-0.578125,599
569,1696201074017,0.29858398,-0.91973877,-0.012512207,-2.859375,-3.828125,0.234375,600
570,1696201074057,0.3137207,-0.942688,-0.0335083,-5.75,-7.8125,0.921875,601
571,1696201074097,0.31225586,-0.91656494,0.031433105,-4.84375,-6.4375,1.640625,602
572,1696201074137,0.28979492,-0.95196533,0.07244873,-4.6875,-8.6875,2.046875,603
573,1696201074177,0.3256836,-0.9483032,0.05316162,-0.171875,-3.609375,-2.671875,604
574,1696201074217,0.3305664,-0.923645,0.008483887,-1.84375,-3.09375,-3.703125,605
575,1696201074257,0.30493164,-0.96881104,0.0065307617,-0.53125,-1.28125,-2.4375,606
576,1696201074297,0.29736328,-0.9710083,0.039001465,-0.734375,-1.4375,-2.453125,607
577,1696201074337,0.30004883,-0.9451294,0.035583496,0.796875,0.65625,-2.46875,608
578,1696201074377,0.28198242,-0.940979,0.06488037,-0.09375,0.09375,-0.5,609
579,1696201074417,0.2956543,-0.94537354,0.05340576,-0.171875,2.078125,-2.078125,610
580,1696201074457,0.28198242,-0.9390259,0.043640137,2.03125,0.34375,1.515625,611
581,1696201074497,0.29516602,-0.94244385,0.042175293,-1.3125,-0.859375,-0.796875,612
582,1696201074537,0.28808594,-0.9619751,0.07269287,1.46875,1.671875,0.5,613
583,1696201074577,0.28833008,-0.9837036,0.031188965,-2.21875,1.328125,-0.625,614
584,1696201074617,0.31225586,-0.95806885,0.042175293,-0.765625,2.125,-4.15625,615
585,1696201074657,0.28710938,-0.9417114,0.028503418,1.21875,4.6875,-3.296875,616
586,1696201074697,0.2861328,-0.9175415,0.008728027,1.140625,4.40625,-1.484375,617
587,1696201074737,0.2890625,-0.93414307,0.012878418,1.625,5.78125,0.578125,618
588,1696201074777,0.29003906,-0.93096924,0.018737793,1.5625,3.421875,2.3125,619
589,1696201074817,0.2932129,-0.94122314,0.027770996,1.125,2.5,1.078125,620
590,1696201074857,0.31225586,-0.95147705,0.013366699,1.859375,2.34375,0.75,621
591,1696201074897,0.30004883,-0.94195557,0.0045776367,1.21875,-0.203125,-0.296875,622
592,1696201074937,0.30126953,-0.94122314,-0.006652832,0.046875,-1.5625,0.359375,623
593,1696201074977,0.28979492,-0.92510986,-0.0037231445,-0.453125,-2.59375,1.671875,624
594,1696201075017,0.3010254,-0.93756104,0.018249512,-2.453125,-2.203125,1.0625,625
595,1696201075057,0.29882812,-0.93927,0.013122559,-4.03125,-6.609375,-0.328125,626
596,1696201075097,0.29736328,-0.94781494,0.030212402,-2.890625,-5.03125,1.1875,627
597,1696201075137,0.296875,-0.9155884,0.090026855,1.390625,-4.0625,1.21875,628
598,1696201075177,0.31860352,-0.9717407,0.039245605,-3.640625,-6.015625,-3.546875,629
599,1696201075217,0.29736328,-0.94610596,0.035095215,1.140625,-1.984375,-0.765625,630
600,1696201075257,0.29589844,-0.96173096,0.06536865,-2.140625,-2.078125,-1.078125,631
601,1696201075297,0.28955078,-0.9558716,0.053894043,-1.265625,-1.203125,-1.875,632
602,1696201075337,0.2932129,-0.9483032,0.050231934,-0.15625,-0.15625,-0.90625,633
603,1696201075377,0.27856445,-0.94195557,0.055603027,-0.671875,1.265625,-0.78125,634
604,1696201075417,0.29760742,-0.94732666,0.05657959,-0.109375,3.171875,-0.6875,635
605,1696201075457,0.29858398,-0.93951416,0.050964355,4.453125,7.9375,1.875,636
606,1696201075497,0.30029297,-0.9546509,0.019958496,5.734375,7.796875,3.234375,637
607,1696201075537,0.29492188,-0.9631958,0.029724121,5.0,7.734375,3.671875,638
608,1696201075577,0.30151367,-0.95562744,0.0060424805,6.171875,6.75,3.328125,639
609,1696201075617,0.31958008,-0.94195557,-0.014709473,4.578125,6.046875,1.78125,640
610,1696201075657,0.31201172,-0.9260864,-0.011291504,4.21875,4.390625,2.359375,641
611,1696201075697,0.3125,-0.9356079,-0.01739502,4.25,3.9375,1.21875,642
612,1696201075737,0.32250977,-0.9194946,-0.042785645,2.78125,2.78125,-0.015625,643
613,1696201075777,0.32983398,-0.9302368,-0.027648926,1.390625,1.078125,0.046875,644
614,1696201075817,0.35107422,-0.93096924,-0.07159424,-1.296875,0.875,-2.0,645
615,1696201075857,0.3310547,-0.91900635,-0.058898926,-4.65625,-3.046875,0.484375,646
616,1696201075897,0.32592773,-0.9373169,-0.0256958,-7.859375,-6.53125,0.078125,647
617,1696201075937,0.33544922,-0.9302368,-0.019836426,-7.09375,-6.015625,-2.40625,648
618,1696201075977,0.30297852,-0.9385376,0.051940918,-3.125,-9.421875,0.484375,649
619,1696201076017,0.27807617,-0.9487915,0.039001465,-3.03125,-7.03125,0.5625,650
620,1696201076057,0.34301758,-0.9158325,-0.0005493164,-4.453125,-4.390625,-3.78125,651
621,1696201076097,0.32592773,-0.9343872,0.039733887,-4.375,-4.5,-0.890625,652
622,1696201076137,0.31274414,-0.956604,0.046081543,-2.421875,-2.9375,0.0625,653
623,1696201076177,0.328125,-0.94244385,0.039978027,-1.90625,-1.765625,-1.28125,654
624,1696201076217,0.31030273,-0.93218994,0.047058105,0.0625,-0.5625,-0.640625,655
625,1696201076257,0.30297852,-0.9636841,0.055358887,-1.03125,-1.28125,-0.515625,656
626,1696201076297,0.30249023,-0.92852783,0.062194824,0.484375,0.703125,-0.65625,657
627,1696201076337,0.3100586,-0.9404907,0.055603027,-1.140625,1.078125,0.640625,658
628,1696201076377,0.3149414,-0.94781494,0.059020996,0.953125,2.0625,1.59375,659
629,1696201076417,0.31469727,-0.9492798,0.0524292,1.0625,1.6875,-0.5625,660
630,1696201076457,0.3190918,-0.9373169,0.04510498,2.109375,4.078125,-2.6875,661
631,1696201076497,0.31469727,-0.9517212,0.0099487305,0.65625,4.75,-2.171875,662
632,1696201076537,0.2939453,-0.9192505,0.044128418,6.828125,6.109375,-0.4375,663
633,1696201076577,0.30126953,-0.93096924,0.025817871,-0.828125,2.953125,-0.78125,664
634,1696201076617,0.30151367,-0.94976807,0.019958496,2.109375,3.75,0.203125,665
635,1696201076657,0.31884766,-0.93096924,0.011169434,0.9375,2.21875,0.1875,666
636,1696201076697,0.31103516,-0.925354,0.009460449,-0.078125,-0.28125,0.234375,667
637,1696201076737,0.3251953,-0.92144775,0.010925293,-0.3125,-0.625,-0.09375,668
638,1696201076777,0.32128906,-0.93292236,0.0014038086,-0.65625,-1.59375,-0.140625,669
639,1696201076817,0.3088379,-0.93634033,0.012878418,-0.4375,-1.5,0.015625,670
640,1696201076857,0.31469727,-0.93096924,0.010925293,-1.453125,-2.6875,-0.984375,671
641,1696201076897,0.31347656,-0.93536377,-0.013000488,-2.234375,-3.90625,-0.84375,672
642,1696201076937,0.32617188,-0.93048096,0.012145996,-3.109375,-4.796875,1.8125,673
643,1696201076977,0.2902832,-0.9483032,0.08343506,-0.921875,-6.46875,1.59375,674
644,1696201077017,0.3251953,-0.94244385,0.023620605,-1.5625,-3.71875,-2.75,675
645,1696201077057,0.33081055,-0.9368286,0.035339355,-0.625,-3.1875,-1.75,676
646,1696201077097,0.30444336,-0.9470825,0.049743652,-1.59375,-2.265625,-2.046875,677
647,1696201077137,0.31323242,-0.9558716,0.05316162,0.21875,-1.59375,-1.078125,678
648,1696201077177,0.31323242,-0.9458618,0.04071045,-0.859375,0.390625,-1.9375,679
649,1696201077217,0.28955078,-0.9468384,0.049987793,0.4375,0.34375,0.203125,680
650,1696201077257,0.29907227,-0.94854736,0.062194824,-2.515625,0.28125,-1.671875,681
651,1696201077297,0.29638672,-0.94000244,0.082458496,0.46875,2.984375,0.484375,682
652,1696201077337,0.31323242,-0.9651489,0.059753418,0.25,3.640625,-0.921875,683
653,1696201077377,0.27905273,-0.9299927,0.029968262,1.640625,4.234375,-2.734375,684
654,1696201077417,0.3083496,-0.9414673,0.026550293,-0.4375,4.84375,0.265625,685
655,1696201077457,0.31054688,-0.9468384,0.04486084,4.296875,6.109375,2.0625,686
656,1696201077497,0.3100586,-0.9500122,0.02532959,2.875,4.234375,2.078125,687
657,1696201077537,0.3083496,-0.9331665,0.022888184,3.859375,4.40625,1.265625,688
658,1696201077577,0.3166504,-0.95269775,0.01776123,2.625,3.21875,0.5,689
659,1696201077617,0.3166504,-0.9085083,-6.1035156e-05,2.96875,2.28125,0.53125,690
660,1696201077657,0.31103516,-0.9326782,-0.007385254,0.75,0.65625,0.203125,691
661,1696201077697,0.32421875,-0.92315674,-0.010559082,-0.4375,-1.890625,1.28125,692
662,1696201077737,0.328125,-0.9290161,-0.010070801,-1.890625,-3.15625,1.90625,693
663,1696201077777,0.33740234,-0.93414307,-0.010314941,-5.328125,-6.4375,0.3125,694
664,1696201077817,0.31201172,-0.93218994,0.082458496,-1.28125,-7.21875,0.546875,695
665,1696201077857,0.30322266,-0.9507446,0.038513184,-2.34375,-4.71875,-0.578125,696
666,1696201077897,0.31689453,-0.94659424,0.023376465,-0.671875,-4.078125,0.21875,697
667,1696201077937,0.34423828,-0.9248657,0.01727295,-4.453125,-3.53125,-0.265625,698
668,1696201077977,0.3317871,-0.95098877,0.054626465,-1.4375,-3.109375,-1.109375,699
669,1696201078017,0.33203125,-0.96295166,0.07122803,-0.765625,1.28125,-1.9375,700
670,1696201078057,0.30786133,-0.9421997,0.047058105,1.296875,2.296875,-1.484375,701
671,1696201078097,0.31445312,-0.9343872,0.050476074,-0.03125,1.3125,-0.546875,702
672,1696201078137,0.3112793,-0.9295044,0.06341553,0.046875,3.078125,0.203125,703
673,1696201078177,0.32104492,-0.9356079,0.042907715,-0.25,3.46875,0.53125,704
674,1696201078217,0.32666016,-0.9336548,0.062438965,2.953125,5.15625,-0.234375,705
675,1696201078257,0.31469727,-0.94903564,0.04510498,1.171875,5.515625,-1.484375,706
676,1696201078297,0.3232422,-0.9585571,0.029968262,2.453125,4.9375,-2.78125,707
677,1696201078337,0.31811523,-0.9570923,0.02557373,3.703125,4.5625,-2.453125,708
678,1696201078377,0.3227539,-0.9536743,0.007751465,3.484375,3.0,-1.78125,709
679,1696201078417,0.30273438,-0.91778564,-0.0010375977,2.515625,0.953125,0.234375,710
680,1696201078457,0.30419922,-0.9319458,0.0016479492,2.15625,2.53125,1.1875,711
681,1696201078497,0.30541992,-0.9338989,0.004333496,1.21875,2.953125,-0.515625,712
682,1696201078537,0.3083496,-0.93634033,0.011413574,0.71875,1.15625,-0.59375,713
683,1696201078577,0.3046875,-0.9187622,0.0028686523,1.5625,-0.390625,-0.203125,714
684,1696201078617,0.30541992,-0.9277954,-0.016418457,-2.515625,-2.21875,-0.078125,715
685,1696201078657,0.3154297,-0.93707275,-0.006164551,-2.46875,-2.546875,1.28125,716
686,1696201078697,0.33911133,-0.93463135,-0.00982666,-6.21875,-6.453125,0.078125,717
687,1696201078737,0.2927246,-0.928772,0.045837402,-2.875,-6.375,1.15625,718
688,1696201078777,0.32006836,-0.9302368,0.050231934,-1.421875,-5.8125,0.875,719
689,1696201078817,0.32128906,-0.9451294,0.022644043,-2.828125,-3.671875,-1.578125,720
690,1696201078857,0.31689453,-0.94781494,0.027282715,-0.9375,-2.75,-0.984375,721
691,1696201078897,0.31030273,-0.95635986,0.049987793,0.046875,0.40625,-2.0625,722
692,1696201078937,0.3149414,-0.9553833,0.044128418,-1.796875,-0.984375,-0.734375,723
693,1696201078977,0.3137207,-0.96051025,0.04559326,-0.328125,0.15625,-0.953125,724
694,1696201079017,0.3059082,-0.9505005,0.051696777,-0.03125,0.34375,-0.578125,725
695,1696201079057,0.3046875,-0.9365845,0.049743652,0.8125,2.625,-0.703125,726
696,1696201079097,0.31567383,-0.9439087,0.03338623,2.234375,3.53125,-0.203125,727
697,1696201079137,0.2998047,-0.9312134,0.05609131,3.3125,4.6875,1.328125,728
698,1696201079177,0.30859375,-0.9524536,0.046569824,3.984375,7.9375,-1.765625,729
699,1696201079217,0.31835938,-0.9631958,-0.012023926,5.671875,6.8125,-1.234375,730
700,1696201079257,0.32617188,-0.9194946,-0.002746582,6.484375,7.796875,-1.078125,731
701,1696201079297,0.30541992,-0.9487915,-0.0491333,4.078125,5.078125,0.46875,732
702,1696201079337,0.29492188,-0.9302368,-0.027648926,4.296875,6.1875,-0.015625,733
703,1696201079377,0.30639648,-0.9319458,-0.031311035,3.59375,4.296875,-1.53125,734
704,1696201079417,0.31347656,-0.9277954,-0.049621582,1.734375,1.3125,-1.1875,735
705,1696201079457,0.30517578,-0.9338989,-0.065979004,0.75,0.484375,-1.15625,736
706,1696201079497,0.30541992,-0.92803955,-0.06378174,-1.828125,-2.71875,-0.96875,737
707,1696201079537,0.30371094,-0.92144775,-0.05645752,-3.0,-4.15625,0.703125,738
708,1696201079577,0.32788086,-0.93341064,-0.044006348,-7.71875,-7.6875,0.265625,739
709,1696201079617,0.30151367,-0.9246216,-0.0010375977,-6.3125,-7.640625,0.703125,740
710,1696201079657,0.29101562,-0.9661255,0.046569824,-3.515625,-6.34375,1.8125,741
711,1696201079697,0.32202148,-0.95562744,0.028503418,1.90625,-0.1875,-3.28125,742
712,1696201079737,0.33813477,-0.90826416,-0.018371582,-2.703125,-4.1875,-3.96875,743
713,1696201079777,0.3010254,-0.9487915,0.026062012,-2.28125,-3.9375,-1.3125,744
714,1696201079817,0.30126953,-0.95635986,0.024353027,-1.265625,-1.28125,0.09375,745
715,1696201079857,0.2993164,-0.95196533,0.0072631836,-1.9375,-1.28125,-0.984375,746
716,1696201079897,0.29003906,-0.9534302,0.008728027,-1.8125,-1.484375,-0.421875,747
717,1696201079937,0.29003906,-0.94195557,0.043884277,0.90625,-0.109375,-0.03125,748
718,1696201079977,0.30371094,-0.95806885,0.0138549805,-2.90625,0.671875,-0.4375,749
719,1696201080017,0.30566406,-0.9529419,0.04876709,-1.515625,4.25,-0.359375,750
720,1696201080057,0.32421875,-0.9619751,0.028747559,3.328125,6.78125,-0.953125,751
721,1696201080097,0.3088379,-0.9434204,-0.0017700195,2.5625,5.203125,-1.828125,752
722,1696201080137,0.2919922,-0.9390259,0.014343262,3.828125,6.734375,1.046875,753
723,1696201080177,0.29785156,-0.9397583,-0.028137207,4.1875,4.8125,0.3125,754
724,1696201080217,0.29101562,-0.9338989,-0.02178955,3.890625,4.515625,0.453125,755
725,1696201080257,0.29858398,-0.928772,-0.02130127,4.828125,3.859375,0.125,756
726,1696201080297,0.3034668,-0.9475708,-0.02935791,0.984375,1.265625,1.140625,757
727,1696201080337,0.3154297,-0.92852783,-0.047424316,-0.578125,-1.015625,1.078125,758
728,1696201080377,0.3161621,-0.9221802,-0.0413208,-4.78125,-4.203125,0.703125,759
729,1696201080417,0.31689453,-0.92974854,-0.039367676,-8.921875,-7.765625,0.1875,760
730,1696201080457,0.31518555,-0.91851807,0.009460449,-6.921875,-7.578125,-1.078125,761
731,1696201080497,0.3034668,-0.9439087,0.047546387,-3.8125,-7.640625,0.484375,762
732,1696201080537,0.31396484,-0.9126587,0.0060424805,2.046875,0.296875,4.296875,763
733,1696201080577,0.3112793,-0.95147705,0.003112793,-3.875,-3.4375,2.28125,764
734,1696201080617,0.33422852,-0.96588135,0.05340576,-0.1875,0.4375,-0.84375,765
735,1696201080657,0.3076172,-0.95977783,0.039733887,-0.140625,-2.078125,1.46875,766
736,1696201080697,0.3215332,-0.94732666,0.020690918,-2.46875,-0.3125,-3.4375,767
737,1696201080737,0.31982422,-0.9273071,0.03387451,-0.25,0.125,-0.078125,768
738,1696201080777,0.32250977,-0.93634033,0.01727295,-0.421875,-0.328125,-1.03125,769
739,1696201080817,0.30639648,-0.9402466,0.028259277,-0.203125,-0.15625,-0.609375,770
740,1696201080857,0.32788086,-0.9404907,0.047546387,1.46875,5.828125,-1.9375,771
741,1696201080897,0.3149414,-0.9505005,0.030212402,5.3125,7.328125,-0.984375,772
742,1696201080937,0.31054688,-0.9602661,-0.007873535,3.0625,4.140625,-2.328125,773
743,1696201080977,0.3112793,-0.9295044,0.0067749023,6.734375,6.546875,-0.34375,774
744,1696201081017,0.30664062,-0.9590454,-0.023254395,1.359375,2.796875,0.546875,775
745,1696201081057,0.32202148,-0.9421997,-0.020080566,5.421875,3.703125,0.046875,776
746,1696201081097,0.30395508,-0.9258423,-0.03326416,1.921875,1.46875,0.046875,777
747,1696201081137,0.31152344,-0.9282837,-0.033996582,1.515625,2.953125,0.140625,778
748,1696201081177,0.30908203,-0.9241333,-0.055236816,-0.125,-0.421875,0.28125,779
749,1696201081217,0.31835938,-0.91290283,-0.04058838,-3.609375,-3.140625,1.328125,780
750,1696201081257,0.32299805,-0.9302368,-0.018371582,-4.65625,-3.1875,1.21875,781
751,1696201081297,0.32617188,-0.9456177,-0.04522705,-8.765625,-8.765625,0.078125,782
752,1696201081337,0.3112793,-0.92926025,0.02947998,-8.484375,-9.375,-0.640625,783
753,1696201081377,0.3227539,-0.94854736,0.05316162,-7.96875,-9.390625,-1.90625,784
754,1696201081417,0.32788086,-0.92974854,0.02923584,-5.03125,-5.5,-2.28125,785
755,1696201081457,0.32202148,-0.9429321,0.03704834,-1.328125,-4.90625,-1.609375,786
756,1696201081497,0.30273438,-0.95196533,0.08807373,-0.734375,-3.421875,-2.734375,787
757,1696201081537,0.29956055,-0.9434204,0.046081543,0.984375,-1.0625,-2.3125,788
758,1696201081577,0.29101562,-0.9536743,0.05731201,1.3125,2.140625,-0.9375,789
759,1696201081617,0.29516602,-0.9487915,0.04510498,1.53125,1.3125,0.421875,790
760,1696201081657,0.30566406,-0.95391846,0.055847168,0.0625,3.140625,0.375,791
761,1696201081697,0.3005371,-0.94732666,0.050231934,0.296875,5.296875,0.84375,792
762,1696201081737,0.3034668,-0.9536743,0.030212402,0.796875,4.421875,0.625,793
763,1696201081777,0.32470703,-0.9307251,0.022888184,3.1875,6.84375,-0.546875,794
764,1696201081817,0.31713867,-0.9314575,0.020202637,2.78125,6.15625,-0.546875,795
765,1696201081857,0.3112793,-0.9439087,0.005554199,5.234375,5.6875,0.84375,796
766,1696201081897,0.29858398,-0.94195557,-0.003967285,3.703125,3.828125,1.53125,797
767,1696201081937,0.31152344,-0.927063,0.00018310547,3.734375,4.140625,0.625,798
768,1696201081977,0.3088379,-0.93292236,-0.006652832,2.53125,2.015625,1.015625,799
769,1696201082017,0.31640625,-0.9258423,-0.0017700195,2.984375,2.921875,-0.0625,800
770,1696201082057,0.32055664,-0.9224243,-0.0178833,1.296875,0.484375,1.078125,801
771,1696201082097,0.3161621,-0.92022705,-0.033996582,-0.578125,-0.71875,-0.453125,802
