,timestamp,accel_x,accel_y,accel_z,gyro_x,gyro_y,gyro_z,mag_x,mag_y,mag_z,ind
0,1696200543649,-0.08203125,-0.09277344,-0.21289062,16.375,-21.40625,-13.84375,0.0,0.0,0.0,0
1,1696200543689,-0.3515625,0.12890625,-0.25390625,57.9375,-36.0,-44.5,-55.5,-54.6875,-85.875,1
2,1696200543729,-1.4287109,0.25195312,-0.43945312,89.0,-92.34375,-8.0625,0.0,0.0,0.0,2
3,1696200543769,-1.984375,0.35546875,0.22558594,18.25,-46.75,31.9375,0.0,0.0,0.0,3
4,1696200543809,-1.9052734,-0.013671875,0.43359375,-66.4375,-39.0,17.65625,0.0,0.0,0.0,4
5,1696200543849,-1.8330078,-0.53222656,0.59375,-33.0625,-18.78125,54.875,0.0,0.0,0.0,5
6,1696200543889,-1.0664062,-0.27148438,0.5498047,-15.71875,15.5,58.90625,0.0,0.0,0.0,6
7,1696200543929,-0.2607422,-0.08984375,0.109375,-28.71875,13.875,39.5625,0.0,0.0,0.0,7
8,1696200543969,0.2705078,0.390625,0.15039062,-23.375,14.15625,2.5,0.0,0.0,0.0,8
9,1696200544009,0.11230469,0.05078125,0.18652344,-45.6875,-42.15625,-49.90625,0.0,0.0,0.0,9
10,1696200544049,-0.5058594,0.09472656,-0.4580078,-52.28125,-74.09375,-64.75,0.0,0.0,0.0,10
11,1696200544089,-0.9658203,-0.048828125,-0.19628906,2.75,-16.28125,-58.21875,0.0,0.0,0.0,11
12,1696200544129,-1.984375,0.18945312,-0.107421875,64.40625,19.125,46.875,0.0,0.0,0.0,12
13,1696200544169,-1.5009766,0.21972656,0.4169922,42.9375,39.25,13.1875,0.0,0.0,0.0,13
14,1696200544209,-1.4863281,-0.0546875,0.5859375,18.25,89.125,-27.03125,-53.875,-50.9375,-80.75,14
15,1696200544249,-1.5283203,-0.19042969,0.20800781,-4.9375,121.21875,-39.46875,0.0,0.0,0.0,15
16,1696200544289,-1.3632812,-0.10058594,0.17285156,-14.15625,105.65625,-26.53125,0.0,0.0,0.0,16
17,1696200544329,-0.7294922,0.18847656,0.125,-5.65625,37.0,-2.5,0.0,0.0,0.0,17
18,1696200544369,-0.34765625,0.14550781,-0.18359375,-49.125,-22.75,32.71875,0.0,0.0,0.0,18
19,1696200544409,-0.08496094,-0.043945312,-0.18066406,-2.65625,-23.1875,8.8125,0.0,0.0,0.0,19
20,1696200544449,-0.083984375,0.047851562,-0.19238281,35.59375,-34.125,-31.96875,0.0,0.0,0.0,20
21,1696200544489,-0.7392578,0.26367188,-0.33984375,54.21875,-59.75,-17.9375,0.0,0.0,0.0,21
22,1696200544529,-1.8447266,-0.018554688,-0.08496094,97.84375,-76.09375,35.65625,0.0,0.0,0.0,22
23,1696200544569,-1.984375,0.15234375,0.4423828,-4.5625,-6.78125,21.25,0.0,0.0,0.0,23
24,1696200544609,-1.8701172,-0.13574219,0.5517578,-42.53125,-20.875,44.875,0.0,0.0,0.0,24
25,1696200544649,-1.4560547,-0.2548828,0.5605469,-36.125,-0.84375,53.78125,0.0,0.0,0.0,25
26,1696200544689,-0.57714844,-0.26464844,0.23925781,-33.125,-8.59375,56.03125,-54.75,-48.25,-81.625,26
27,1696200544729,0.31445312,-0.053710938,-0.08300781,-23.0625,53.59375,47.4375,0.0,0.0,0.0,27
28,1696200544769,0.25878906,0.26757812,0.078125,16.3125,-14.40625,-13.46875,0.0,0.0,0.0,28
29,1696200544809,-0.10644531,-0.026367188,0.076171875,-56.75,-44.71875,-78.0625,0.0,0.0,0.0,29
30,1696200544849,-0.7128906,0.3623047,0.31640625,13.4375,-38.0625,-54.6875,0.0,0.0,0.0,30
31,1696200544889,-1.984375,0.2919922,0.47558594,71.3125,-88.4375,47.0625,0.0,0.0,0.0,31
32,1696200544929,-1.4951172,-0.5107422,0.037109375,-20.0,45.1875,8.6875,0.0,0.0,0.0,32
33,1696200544969,-1.1171875,0.013671875,0.46484375,94.5,84.71875,-38.4375,0.0,0.0,0.0,33
34,1696200545009,-1.8339844,0.09277344,0.2861328,50.3125,127.15625,-28.6875,0.0,0.0,0.0,34
35,1696200545049,-1.4785156,0.0,0.0703125,-16.46875,107.75,-47.78125,0.0,0.0,0.0,35
36,1696200545089,-0.82128906,0.05859375,0.20507812,-41.5625,59.59375,-23.90625,0.0,0.0,0.0,36
37,1696200545129,-0.3857422,-0.052734375,-0.09863281,-46.625,3.25,25.40625,0.0,0.0,0.0,37
38,1696200545169,-0.18359375,0.125,-0.2578125,7.9375,-3.71875,19.28125,0.0,0.0,0.0,38
39,1696200545209,-0.18164062,0.15625,-0.0146484375,43.65625,-16.09375,-22.15625,-49.8125,-53.1875,-93.0625,39
40,1696200545249,-0.40625,0.22753906,-0.41210938,24.0,-45.84375,-30.5,0.0,0.0,0.0,40
41,1696200545289,-1.4658203,0.21777344,-0.5996094,55.6875,-98.0625,-4.03125,0.0,0.0,0.0,41
42,1696200545329,-1.984375,0.13574219,0.14453125,80.28125,-83.1875,12.75,0.0,0.0,0.0,42
43,1696200545369,-1.984375,0.20605469,0.5283203,-60.78125,-22.40625,24.84375,0.0,0.0,0.0,43
44,1696200545409,-1.8583984,-0.44921875,0.6113281,-88.25,-28.875,62.6875,0.0,0.0,0.0,44
45,1696200545449,-1.1816406,-0.52246094,0.38378906,-71.6875,11.59375,60.1875,0.0,0.0,0.0,45
46,1696200545489,-0.31835938,-0.20605469,0.16503906,-49.3125,38.21875,47.5625,0.0,0.0,0.0,46
47,1696200545529,0.5253906,0.31054688,0.05859375,-33.8125,75.3125,13.6875,0.0,0.0,0.0,47
48,1696200545569,0.28808594,0.07714844,0.037109375,-36.25,-59.3125,-52.25,0.0,0.0,0.0,48
49,1696200545609,-0.640625,-0.13476562,-0.11328125,-55.71875,-72.5,-95.9375,0.0,0.0,0.0,49
50,1696200545649,-1.2109375,-0.25097656,-0.07714844,4.34375,-40.15625,-34.78125,0.0,0.0,0.0,50
51,1696200545689,-1.9257812,-0.6347656,0.4296875,80.9375,-60.125,81.1875,-55.9375,-52.4375,-78.375,51
52,1696200545729,-1.34375,-0.24609375,0.42773438,72.03125,9.78125,-2.3125,0.0,0.0,0.0,52
53,1696200545769,-1.0751953,0.09472656,0.30273438,70.5,75.9375,-40.40625,0.0,0.0,0.0,53
54,1696200545809,-1.671875,0.09667969,0.10449219,16.875,123.4375,-11.71875,0.0,0.0,0.0,54
55,1696200545849,-1.4873047,-0.03515625,0.15625,-44.40625,91.3125,-21.78125,0.0,0.0,0.0,55
56,1696200545889,-0.75683594,0.01953125,0.15625,-33.8125,31.4375,-11.78125,0.0,0.0,0.0,56
57,1696200545929,-0.25097656,0.07519531,-0.12402344,-42.40625,-18.5,7.53125,0.0,0.0,0.0,57
58,1696200545969,0.034179688,-0.10546875,-0.1640625,2.9375,-23.375,-8.21875,0.0,0.0,0.0,58
59,1696200546009,-0.029296875,0.013671875,-0.08300781,87.21875,-20.375,-55.59375,0.0,0.0,0.0,59
60,1696200546049,-0.72558594,0.24609375,-0.39648438,68.8125,-41.5,-41.9375,0.0,0.0,0.0,60
61,1696200546089,-1.984375,0.296875,-0.171875,114.875,-110.59375,44.8125,0.0,0.0,0.0,61
62,1696200546129,-1.984375,0.19140625,0.50390625,-66.5,-33.875,-0.78125,0.0,0.0,0.0,62
63,1696200546169,-1.6416016,-0.24511719,0.5234375,-80.5,-49.0625,38.21875,0.0,0.0,0.0,63
64,1696200546209,-1.6142578,-0.4189453,0.6894531,-28.96875,8.4375,74.15625,-56.875,-51.5625,-83.0,64
65,1696200546249,-0.796875,-0.19726562,0.33496094,-28.78125,16.375,64.28125,0.0,0.0,0.0,65
66,1696200546289,0.034179688,-0.025390625,-0.19140625,-9.25,39.75,50.5,0.0,0.0,0.0,66
67,1696200546329,0.5566406,0.32910156,-0.00390625,17.78125,-23.71875,-6.78125,0.0,0.0,0.0,67
68,1696200546369,-0.11230469,0.0078125,0.1796875,-29.15625,-94.03125,-71.28125,0.0,0.0,0.0,68
69,1696200546409,-0.7373047,0.14941406,0.041015625,-49.3125,-28.0625,-79.21875,0.0,0.0,0.0,69
70,1696200546449,-1.984375,-0.36523438,-0.12402344,50.75,-76.71875,48.21875,0.0,0.0,0.0,70
71,1696200546489,-1.5195312,-0.60839844,0.32617188,-0.34375,22.28125,50.0625,0.0,0.0,0.0,71
72,1696200546529,-1.2490234,0.06738281,0.81640625,8.1875,87.78125,-38.5,0.0,0.0,0.0,72
73,1696200546569,-1.3896484,-0.34765625,0.37304688,13.875,117.3125,-35.8125,0.0,0.0,0.0,73
74,1696200546609,-1.3935547,-0.107421875,0.19140625,25.09375,130.0,-7.125,0.0,0.0,0.0,74
75,1696200546649,-1.1171875,0.16503906,0.13183594,-11.21875,75.75,-2.96875,0.0,0.0,0.0,75
76,1696200546689,-0.49121094,0.2265625,-0.13867188,-53.40625,-9.75,22.34375,-52.1875,-54.6875,-90.5,76
77,1696200546729,-0.07421875,0.022460938,-0.171875,-69.5625,-24.03125,29.84375,0.0,0.0,0.0,77
78,1696200546769,0.048828125,-0.099609375,-0.041015625,13.875,-33.25,-14.34375,0.0,0.0,0.0,78
79,1696200546809,-0.22949219,0.07910156,-0.22363281,51.96875,-35.15625,-39.0,0.0,0.0,0.0,79
80,1696200546849,-1.2109375,0.18261719,-0.3984375,71.84375,-72.875,0.1875,0.0,0.0,0.0,80
81,1696200546889,-1.984375,-0.26953125,0.15820312,118.65625,-32.875,39.6875,0.0,0.0,0.0,81
82,1696200546929,-1.984375,0.359375,0.68652344,-31.25,-10.96875,16.71875,0.0,0.0,0.0,82
83,1696200546969,-1.6103516,-0.32910156,0.58496094,-51.375,5.9375,56.96875,0.0,0.0,0.0,83
84,1696200547009,-1.0546875,-0.33203125,0.30078125,-25.375,16.65625,69.40625,0.0,0.0,0.0,84
85,1696200547049,-0.14550781,0.08496094,0.018554688,-30.25,42.25,51.71875,0.0,0.0,0.0,85
86,1696200547089,0.5566406,0.3203125,0.045898438,-17.6875,21.375,6.34375,0.0,0.0,0.0,86
87,1696200547129,0.032226562,0.001953125,0.060546875,-50.71875,-47.59375,-61.8125,0.0,0.0,0.0,87
88,1696200547169,-0.47460938,-0.032226562,-0.16699219,-44.0625,-66.59375,-82.875,0.0,0.0,0.0,88
89,1696200547209,-0.96484375,-0.08105469,-0.18652344,-25.75,-14.53125,-68.34375,-54.75,-50.375,-82.6875,89
90,1696200547249,-1.984375,0.21972656,-0.083984375,6.1875,-23.5,15.21875,0.0,0.0,0.0,90
91,1696200547289,-1.5615234,0.0126953125,0.42285156,3.4375,17.59375,3.5,0.0,0.0,0.0,91
92,1696200547329,-0.87109375,0.15917969,0.9160156,25.71875,84.125,-44.96875,0.0,0.0,0.0,92
93,1696200547369,-1.7080078,-0.38671875,0.21777344,34.75,131.71875,-15.125,0.0,0.0,0.0,93
94,1696200547409,-1.4707031,-0.009765625,0.21972656,10.75,119.21875,-31.1875,0.0,0.0,0.0,94
95,1696200547449,-0.76953125,0.28515625,0.23925781,-10.125,20.21875,-17.5625,0.0,0.0,0.0,95
96,1696200547489,-0.24511719,0.0234375,-0.27539062,-61.9375,-31.1875,18.0,0.0,0.0,0.0,96
97,1696200547529,-0.032226562,-0.056640625,-0.125,20.78125,-29.90625,0.1875,0.0,0.0,0.0,97
98,1696200547569,0.00390625,0.19140625,-0.21386719,62.15625,-43.5625,-25.5625,0.0,0.0,0.0,98
99,1696200547609,-0.55371094,0.3232422,-0.21777344,0.4375,-62.3125,-17.875,0.0,0.0,0.0,99
100,1696200547649,-1.9404297,-0.17578125,-0.203125,7.40625,-63.84375,21.96875,0.0,0.0,0.0,100
101,1696200547689,-1.984375,0.0078125,0.47070312,42.5625,-48.40625,22.40625,-55.9375,-56.0625,-84.375,101
102,1696200547729,-1.8349609,0.06933594,0.64453125,-31.65625,-31.125,41.34375,0.0,0.0,0.0,102
103,1696200547769,-1.5957031,-0.27539062,0.6748047,-39.0625,-13.125,66.28125,0.0,0.0,0.0,103
104,1696200547809,-0.7216797,-0.38476562,0.23730469,-27.9375,1.28125,56.09375,0.0,0.0,0.0,104
105,1696200547849,0.11621094,-0.025390625,-0.10449219,15.15625,33.09375,57.625,0.0,0.0,0.0,105
106,1696200547889,0.22949219,0.35546875,0.0146484375,12.09375,18.375,5.125,0.0,0.0,0.0,106
107,1696200547929,-0.08886719,0.07421875,0.1484375,-36.53125,-65.59375,-63.46875,0.0,0.0,0.0,107
108,1696200547969,-0.33203125,0.17089844,-0.06640625,-40.21875,-12.75,-76.46875,0.0,0.0,0.0,108
109,1696200548009,-1.3925781,-0.23730469,-0.18457031,37.0,-51.3125,-4.5625,0.0,0.0,0.0,109
110,1696200548049,-1.5566406,-0.74121094,0.35351562,36.03125,-33.125,94.5,0.0,0.0,0.0,110
111,1696200548089,-1.3945312,-0.018554688,0.59472656,20.875,38.03125,-49.3125,0.0,0.0,0.0,111
112,1696200548129,-1.0,-0.24804688,0.4375,50.5625,111.15625,-54.6875,0.0,0.0,0.0,112
113,1696200548169,-1.6982422,-0.045898438,0.18945312,31.09375,137.8125,-5.1875,0.0,0.0,0.0,113
114,1696200548209,-1.3203125,0.091796875,0.19824219,-26.21875,95.78125,-16.34375,-51.3125,-54.25,-88.875,114
115,1696200548249,-0.73828125,0.12792969,0.05078125,-36.0,29.84375,0.125,0.0,0.0,0.0,115
116,1696200548289,-0.22070312,0.16992188,-0.15136719,-66.03125,-22.21875,9.90625,0.0,0.0,0.0,116
117,1696200548329,0.034179688,-0.10449219,-0.09082031,-14.15625,-24.09375,-20.3125,0.0,0.0,0.0,117
118,1696200548369,-0.24414062,0.022460938,-0.4892578,51.34375,-18.125,-59.625,0.0,0.0,0.0,118
119,1696200548409,-1.53125,0.25683594,-0.3779297,93.53125,-71.78125,-31.84375,0.0,0.0,0.0,119
120,1696200548449,-1.9560547,0.07128906,0.12011719,57.28125,-46.875,34.625,0.0,0.0,0.0,120
121,1696200548489,-1.984375,-0.2734375,0.42285156,-28.375,-13.34375,16.84375,0.0,0.0,0.0,121
122,1696200548529,-1.8955078,-0.18359375,0.54785156,-4.1875,0.3125,59.625,0.0,0.0,0.0,122
123,1696200548569,-1.2509766,0.017578125,0.4091797,-41.125,-7.0625,64.78125,0.0,0.0,0.0,123
124,1696200548609,-0.4189453,-0.203125,0.107421875,-43.25,-4.3125,68.125,0.0,0.0,0.0,124
125,1696200548649,0.2890625,-0.18164062,-0.0146484375,-42.46875,47.4375,29.71875,0.0,0.0,0.0,125
126,1696200548689,0.22460938,0.3310547,0.06347656,-14.34375,-24.78125,-31.78125,-56.375,-46.625,-85.375,126
127,1696200548729,-0.16796875,0.036132812,-0.22753906,-39.09375,-83.96875,-87.15625,0.0,0.0,0.0,127
128,1696200548769,-0.8652344,0.12890625,-0.05078125,-22.6875,-57.375,-46.125,0.0,0.0,0.0,128
129,1696200548809,-1.984375,-0.15039062,0.4326172,66.1875,-127.3125,59.53125,0.0,0.0,0.0,129
130,1696200548849,-1.6123047,-0.6826172,0.3515625,43.03125,17.34375,-0.78125,0.0,0.0,0.0,130
131,1696200548889,-1.2353516,0.2734375,0.7421875,111.84375,96.9375,-55.84375,0.0,0.0,0.0,131
132,1696200548929,-1.5302734,0.0859375,0.32128906,37.90625,123.0625,-27.21875,0.0,0.0,0.0,132
133,1696200548969,-1.4257812,-0.08105469,0.087890625,-27.375,109.8125,-22.21875,0.0,0.0,0.0,133
134,1696200549009,-0.9472656,0.12695312,0.047851562,-19.40625,60.1875,-9.8125,0.0,0.0,0.0,134
135,1696200549049,-0.47851562,0.27734375,-0.12109375,-55.21875,-15.125,27.0625,0.0,0.0,0.0,135
136,1696200549089,-0.02734375,-0.07910156,-0.15722656,-67.71875,-31.71875,7.625,0.0,0.0,0.0,136
137,1696200549129,0.051757812,-0.06640625,-0.22070312,28.03125,-33.375,-31.375,0.0,0.0,0.0,137
138,1696200549169,-0.43359375,0.1171875,-0.26171875,47.4375,-43.75,-34.28125,0.0,0.0,0.0,138
139,1696200549209,-1.8925781,0.23339844,-0.2890625,68.0,-88.6875,8.125,-55.0625,-53.375,-86.875,139
140,1696200549249,-1.984375,0.4033203,0.296875,32.125,-29.65625,31.5625,0.0,0.0,0.0,140
141,1696200549289,-1.984375,0.24121094,0.5566406,-57.71875,-32.09375,16.625,0.0,0.0,0.0,141
142,1696200549329,-1.6220703,-0.38476562,0.65625,-31.1875,-2.90625,48.21875,0.0,0.0,0.0,142
143,1696200549369,-0.9453125,-0.3779297,0.2841797,-41.5625,-11.28125,35.96875,0.0,0.0,0.0,143
144,1696200549409,0.057617188,-0.12597656,0.040039062,-15.4375,37.125,26.0625,0.0,0.0,0.0,144
145,1696200549449,0.5341797,0.37304688,0.060546875,19.84375,10.1875,5.875,0.0,0.0,0.0,145
146,1696200549489,-0.08105469,0.04296875,-0.07128906,-17.9375,-26.0,-50.59375,0.0,0.0,0.0,146
147,1696200549529,-0.640625,0.24316406,-0.6298828,-7.5625,-72.4375,-66.15625,0.0,0.0,0.0,147
148,1696200549569,-0.68359375,0.032226562,-0.18457031,-17.8125,-29.84375,-38.75,0.0,0.0,0.0,148
149,1696200549609,-1.984375,0.23144531,0.053710938,63.96875,-36.90625,72.46875,0.0,0.0,0.0,149
150,1696200549649,-1.5068359,-0.06542969,0.4658203,6.78125,1.96875,18.3125,0.0,0.0,0.0,150
151,1696200549689,-1.3125,-0.07128906,0.59375,-18.1875,62.03125,-31.375,-49.0625,-49.9375,-82.5625,151
152,1696200549729,-1.4277344,-0.32617188,0.3125,1.71875,126.0,3.0625,0.0,0.0,0.0,152
153,1696200549769,-1.6826172,-0.1171875,0.20996094,-5.21875,125.0625,-8.34375,0.0,0.0,0.0,153
154,1696200549809,-1.0986328,0.1953125,0.07910156,-28.71875,53.90625,-17.3125,0.0,0.0,0.0,154
155,1696200549849,-0.4189453,0.15917969,-0.12011719,-66.6875,-14.03125,14.28125,0.0,0.0,0.0,155
156,1696200549889,0.00390625,-0.009765625,-0.07714844,-42.21875,-23.96875,21.90625,0.0,0.0,0.0,156
157,1696200549929,0.05859375,-0.013671875,-0.09765625,8.0625,-21.84375,-13.28125,0.0,0.0,0.0,157
158,1696200549969,-0.5292969,0.099609375,-0.31933594,28.28125,-28.625,-27.40625,0.0,0.0,0.0,158
159,1696200550009,-1.6074219,0.09082031,-0.35546875,99.375,-71.40625,8.4375,0.0,0.0,0.0,159
160,1696200550049,-1.984375,0.3388672,0.24707031,81.25,-50.28125,11.4375,0.0,0.0,0.0,160
161,1696200550089,-1.984375,0.17578125,0.5917969,-41.6875,-32.09375,17.40625,0.0,0.0,0.0,161
162,1696200550129,-1.6035156,-0.43652344,0.63378906,-36.53125,-38.9375,45.3125,0.0,0.0,0.0,162
163,1696200550169,-1.0966797,-0.27734375,0.39453125,-21.90625,-15.1875,49.25,0.0,0.0,0.0,163
164,1696200550209,-0.12890625,-0.111328125,-0.0009765625,-21.59375,30.84375,59.875,-56.25,-47.0625,-80.3125,164
165,1696200550249,0.53125,0.109375,0.072265625,2.53125,60.0625,23.1875,0.0,0.0,0.0,165
166,1696200550289,0.036132812,0.20214844,0.080078125,-3.53125,-52.71875,-45.28125,0.0,0.0,0.0,166
167,1696200550329,-0.3095703,0.22460938,-0.36132812,-24.46875,-92.65625,-82.4375,0.0,0.0,0.0,167
168,1696200550369,-0.86035156,0.29003906,-0.3154297,-33.0,-30.8125,-66.21875,0.0,0.0,0.0,168
169,1696200550409,-1.984375,-1.0439453,0.5683594,75.34375,3.71875,131.96875,0.0,0.0,0.0,169
170,1696200550449,-1.59375,-0.095703125,0.48535156,61.125,21.5625,2.21875,0.0,0.0,0.0,170
171,1696200550489,-1.3212891,0.026367188,0.4580078,34.9375,87.46875,-54.875,0.0,0.0,0.0,171
172,1696200550529,-1.5712891,-0.005859375,0.17675781,12.84375,117.375,-22.28125,0.0,0.0,0.0,172
173,1696200550569,-1.328125,0.030273438,0.091796875,-56.4375,93.625,-23.1875,0.0,0.0,0.0,173
174,1696200550609,-0.8144531,0.0234375,0.140625,-66.34375,11.90625,9.84375,0.0,0.0,0.0,174
175,1696200550649,-0.22070312,-0.16113281,-0.20117188,-74.15625,-16.40625,22.28125,0.0,0.0,0.0,175
176,1696200550689,0.02734375,-0.0390625,-0.16796875,30.46875,-15.375,4.71875,-55.625,-51.25,-89.875,176
177,1696200550729,-0.032226562,0.064453125,-0.14160156,60.9375,-29.03125,-27.28125,0.0,0.0,0.0,177
178,1696200550769,-0.4921875,0.25878906,-0.2607422,35.71875,-33.0625,-30.625,0.0,0.0,0.0,178
179,1696200550809,-1.3925781,-0.099609375,-0.29296875,39.0625,-57.59375,17.65625,0.0,0.0,0.0,179
180,1696200550849,-1.984375,0.024414062,0.13964844,91.875,-40.28125,57.1875,0.0,0.0,0.0,180
181,1696200550889,-1.984375,0.35253906,0.6191406,-52.65625,10.09375,32.59375,0.0,0.0,0.0,181
182,1696200550929,-1.8007812,-0.2841797,0.6972656,-77.8125,-30.75,63.4375,0.0,0.0,0.0,182
183,1696200550969,-0.92089844,-0.5908203,0.36328125,-57.125,-5.65625,55.71875,0.0,0.0,0.0,183
184,1696200551009,-0.20898438,-0.33007812,0.048828125,2.625,31.375,51.8125,0.0,0.0,0.0,184
185,1696200551049,0.49902344,0.31152344,0.103515625,50.96875,41.8125,-2.4375,0.0,0.0,0.0,185
186,1696200551089,0.15527344,0.22753906,0.03515625,43.21875,-66.59375,-58.71875,0.0,0.0,0.0,186
187,1696200551129,-0.47753906,0.21289062,-0.21777344,-5.28125,-87.03125,-76.40625,0.0,0.0,0.0,187
188,1696200551169,-0.59472656,0.09082031,-0.16699219,-34.65625,-42.59375,-60.0,0.0,0.0,0.0,188
189,1696200551209,-1.984375,-0.5722656,0.22265625,56.84375,-42.59375,127.03125,-58.8125,-48.25,-82.6875,189
190,1696200551249,-1.5517578,-0.16894531,0.37597656,26.9375,1.90625,25.34375,0.0,0.0,0.0,190
191,1696200551289,-1.1035156,-0.017578125,0.51953125,-0.15625,94.90625,-49.3125,0.0,0.0,0.0,191
192,1696200551329,-1.5917969,-0.2265625,0.14355469,-14.5,128.4375,-24.96875,0.0,0.0,0.0,192
193,1696200551369,-1.4716797,-0.04296875,0.1796875,-41.71875,113.59375,-29.53125,0.0,0.0,0.0,193
194,1696200551409,-0.89941406,0.068359375,0.17578125,-34.90625,42.375,-4.875,0.0,0.0,0.0,194
195,1696200551449,-0.38671875,0.07421875,-0.24316406,-48.15625,-13.71875,24.59375,0.0,0.0,0.0,195
196,1696200551489,-0.10253906,0.068359375,-0.21484375,9.71875,-19.9375,19.90625,0.0,0.0,0.0,196
197,1696200551529,-0.09472656,0.115234375,-0.09277344,17.15625,-44.5,-11.21875,0.0,0.0,0.0,197
198,1696200551569,-0.40820312,0.19140625,-0.25878906,-12.875,-67.75,-16.71875,0.0,0.0,0.0,198
199,1696200551609,-1.3251953,0.028320312,-0.3310547,26.25,-92.71875,-1.28125,0.0,0.0,0.0,199
200,1696200551649,-1.984375,0.203125,0.28320312,60.5,-60.46875,2.9375,0.0,0.0,0.0,200
201,1696200551689,-1.984375,0.24121094,0.6455078,-50.46875,-5.1875,5.4375,-57.4375,-47.375,-87.5,201
202,1696200551729,-1.6669922,-0.55859375,0.5498047,-15.84375,18.25,61.09375,0.0,0.0,0.0,202
203,1696200551769,-1.1708984,-0.28320312,0.4970703,-5.0,49.6875,64.21875,0.0,0.0,0.0,203
204,1696200551809,-0.20898438,0.04296875,-0.033203125,-16.15625,30.84375,39.625,0.0,0.0,0.0,204
205,1696200551849,0.7207031,0.39648438,0.08300781,-3.21875,26.75,2.5,0.0,0.0,0.0,205
206,1696200551889,-0.08496094,0.01953125,0.14453125,-13.96875,-54.6875,-60.0625,0.0,0.0,0.0,206
207,1696200551929,-0.4765625,-0.08691406,-0.38085938,-32.875,-64.8125,-77.4375,0.0,0.0,0.0,207
208,1696200551969,-0.5888672,-0.06542969,-0.2890625,-2.1875,-15.3125,-62.375,0.0,0.0,0.0,208
209,1696200552009,-1.984375,0.3251953,0.00390625,83.6875,-24.46875,88.9375,0.0,0.0,0.0,209
210,1696200552049,-1.7246094,-0.001953125,0.5019531,22.28125,22.96875,5.0625,0.0,0.0,0.0,210
211,1696200552089,-1.1464844,-0.087890625,0.5332031,35.0,62.21875,-44.96875,0.0,0.0,0.0,211
212,1696200552129,-1.7324219,-0.15136719,0.18847656,49.09375,112.3125,-15.625,0.0,0.0,0.0,212
213,1696200552169,-1.3417969,0.20703125,0.11035156,-24.65625,97.0,-27.09375,0.0,0.0,0.0,213
214,1696200552209,-0.77441406,-0.099609375,0.12207031,-65.40625,31.0625,-2.75,-53.375,-50.6875,-95.125,214
215,1696200552249,-0.37402344,0.025390625,-0.17285156,-30.4375,-3.34375,29.1875,0.0,0.0,0.0,215
216,1696200552289,-0.10546875,0.080078125,-0.15039062,-1.3125,-15.0,9.96875,0.0,0.0,0.0,216
217,1696200552329,-0.07128906,0.059570312,-0.03515625,20.28125,-21.15625,-26.0,0.0,0.0,0.0,217
218,1696200552369,-0.5410156,-0.0048828125,-0.60546875,8.0,-24.09375,-36.375,0.0,0.0,0.0,218
219,1696200552409,-1.984375,-0.14941406,-0.2578125,122.03125,-96.90625,36.1875,0.0,0.0,0.0,219
220,1696200552449,-1.984375,0.54296875,0.21972656,-64.9375,-77.8125,13.625,0.0,0.0,0.0,220
221,1696200552489,-1.9296875,-0.42578125,0.38476562,-90.8125,-57.90625,43.65625,0.0,0.0,0.0,221
222,1696200552529,-1.6572266,-0.4736328,0.60058594,-26.09375,-13.84375,75.75,0.0,0.0,0.0,222
223,1696200552569,-0.8027344,-0.20019531,0.27734375,-20.3125,-2.1875,72.28125,0.0,0.0,0.0,223
224,1696200552609,-0.048828125,0.024414062,0.037109375,-22.5,46.8125,66.53125,0.0,0.0,0.0,224
225,1696200552649,0.3984375,0.11816406,0.21386719,-20.96875,11.96875,-6.53125,0.0,0.0,0.0,225
226,1696200552689,0.12207031,0.055664062,0.04296875,-39.40625,-68.78125,-67.9375,-52.375,-43.3125,-83.875,226
227,1696200552729,-0.4296875,0.09765625,-0.62109375,-48.9375,-72.3125,-65.25,0.0,0.0,0.0,227
228,1696200552769,-1.5400391,-0.020507812,-0.34570312,27.3125,-12.75,-21.65625,0.0,0.0,0.0,228
229,1696200552809,-1.7734375,-0.30859375,0.203125,14.71875,19.125,66.40625,0.0,0.0,0.0,229
230,1696200552849,-1.5527344,-0.14941406,0.30664062,67.28125,-15.90625,-2.96875,0.0,0.0,0.0,230
231,1696200552889,-1.1757812,0.09472656,0.4169922,53.96875,76.90625,-40.15625,0.0,0.0,0.0,231
232,1696200552929,-1.4931641,0.0703125,0.2548828,24.4375,116.28125,-29.78125,0.0,0.0,0.0,232
233,1696200552969,-1.3330078,-0.11035156,0.21582031,-27.5,104.3125,-29.03125,0.0,0.0,0.0,233
234,1696200553009,-0.7451172,0.10253906,0.19238281,6.5,52.3125,-4.375,0.0,0.0,0.0,234
235,1696200553049,-0.3623047,0.059570312,-0.078125,-39.0625,-7.75,19.90625,0.0,0.0,0.0,235
236,1696200553089,-0.0048828125,-0.140625,-0.19238281,24.375,-10.375,1.34375,0.0,0.0,0.0,236
237,1696200553129,-0.06347656,0.1015625,-0.17871094,99.0,-10.3125,-32.8125,0.0,0.0,0.0,237
238,1696200553169,-0.7285156,0.31933594,-0.33984375,72.65625,-35.03125,-26.71875,0.0,0.0,0.0,238
239,1696200553209,-1.84375,0.21289062,-0.36328125,84.125,-104.65625,36.09375,-53.5625,-50.8125,-87.1875,239
240,1696200553249,-1.984375,0.4091797,0.19042969,-30.0625,-31.0,20.875,0.0,0.0,0.0,240
241,1696200553289,-1.984375,0.036132812,0.44921875,-84.28125,-19.15625,35.59375,0.0,0.0,0.0,241
242,1696200553329,-1.5917969,-0.43359375,0.578125,-51.75,5.125,60.96875,0.0,0.0,0.0,242
243,1696200553369,-0.9248047,-0.2578125,0.3173828,-52.78125,14.84375,52.125,0.0,0.0,0.0,243
244,1696200553409,0.034179688,-0.09375,0.009765625,-34.03125,49.625,39.625,0.0,0.0,0.0,244
245,1696200553449,0.4453125,0.35546875,0.21582031,0.4375,7.40625,1.09375,0.0,0.0,0.0,245
246,1696200553489,-0.15332031,0.12988281,0.140625,-39.71875,-59.0,-55.53125,0.0,0.0,0.0,246
247,1696200553529,-0.8330078,0.296875,0.025390625,-49.25,-80.9375,-59.0625,0.0,0.0,0.0,247
248,1696200553569,-1.4296875,-0.064453125,-0.328125,-11.9375,-9.5625,-34.34375,0.0,0.0,0.0,248
249,1696200553609,-1.984375,-0.20898438,-0.076171875,14.78125,41.6875,53.90625,0.0,0.0,0.0,249
250,1696200553649,-1.5058594,0.4345703,0.4638672,39.5,35.34375,12.59375,0.0,0.0,0.0,250
251,1696200553689,-1.4863281,-0.0009765625,0.3798828,-6.03125,66.21875,-32.46875,-51.3125,-47.375,-79.375,251
252,1696200553729,-1.3349609,-0.25878906,0.13476562,-26.09375,104.1875,-54.6875,0.0,0.0,0.0,252
253,1696200553769,-1.2167969,-0.0107421875,0.17578125,-19.75,92.78125,-33.25,0.0,0.0,0.0,253
254,1696200553809,-0.71875,0.10253906,0.2890625,-29.78125,22.28125,6.0,0.0,0.0,0.0,254
255,1696200553849,-0.13769531,0.025390625,-0.21484375,-48.1875,-22.6875,28.21875,0.0,0.0,0.0,255
256,1696200553889,0.034179688,-0.001953125,-0.1796875,24.3125,-18.96875,7.21875,0.0,0.0,0.0,256
257,1696200553929,-0.171875,0.051757812,-0.23632812,64.71875,-26.65625,-38.5625,0.0,0.0,0.0,257
258,1696200553969,-0.765625,0.17871094,-0.20214844,59.28125,-55.84375,-22.9375,0.0,0.0,0.0,258
259,1696200554009,-1.6435547,0.15429688,-0.17382812,37.0,-87.34375,28.625,0.0,0.0,0.0,259
260,1696200554049,-1.984375,0.1875,0.32226562,8.25,-28.6875,24.25,0.0,0.0,0.0,260
261,1696200554089,-1.984375,-0.09765625,0.50878906,-32.53125,0.5,33.03125,0.0,0.0,0.0,261
262,1696200554129,-1.8105469,-0.3955078,0.6064453,-14.4375,12.09375,42.96875,0.0,0.0,0.0,262
263,1696200554169,-0.8359375,-0.17871094,0.2841797,-18.0,18.625,40.21875,0.0,0.0,0.0,263
264,1696200554209,-0.15136719,0.14941406,0.12402344,2.625,38.65625,45.1875,-56.375,-45.125,-81.5,264
265,1696200554249,0.3359375,0.3623047,0.09375,-4.25,19.46875,-6.28125,0.0,0.0,0.0,265
266,1696200554289,-0.0107421875,0.051757812,0.115234375,-16.21875,-49.96875,-51.03125,0.0,0.0,0.0,266
267,1696200554329,-0.41796875,0.10546875,-0.11621094,-21.34375,-70.78125,-76.53125,0.0,0.0,0.0,267
268,1696200554369,-1.0175781,0.14160156,-0.30371094,-21.09375,-15.8125,-68.34375,0.0,0.0,0.0,268
269,1696200554409,-1.984375,-0.6464844,0.072265625,22.59375,18.6875,115.25,0.0,0.0,0.0,269
270,1696200554449,-1.6953125,0.12402344,0.42773438,30.90625,-4.5625,20.53125,0.0,0.0,0.0,270
271,1696200554489,-1.1298828,-0.095703125,0.45703125,-13.71875,72.6875,-42.21875,0.0,0.0,0.0,271
272,1696200554529,-1.5419922,-0.27246094,0.1953125,-15.5,118.90625,-28.625,0.0,0.0,0.0,272
273,1696200554569,-1.3417969,-0.025390625,0.20019531,-10.71875,105.1875,-31.65625,0.0,0.0,0.0,273
274,1696200554609,-0.73046875,-0.08691406,0.14550781,8.875,34.5625,0.625,0.0,0.0,0.0,274
275,1696200554649,-0.21972656,-0.028320312,-0.2783203,29.25,5.1875,30.78125,0.0,0.0,0.0,275
276,1696200554689,-0.026367188,0.22265625,-0.119140625,51.84375,-3.53125,17.78125,-54.875,-49.4375,-89.875,276
277,1696200554729,-0.23730469,0.17773438,-0.15039062,28.28125,-27.21875,-25.125,0.0,0.0,0.0,277
278,1696200554769,-0.7001953,0.21972656,-0.47753906,-26.53125,-64.0625,-18.3125,0.0,0.0,0.0,278
279,1696200554809,-1.984375,-0.24902344,-0.31933594,74.96875,-96.0625,31.1875,0.0,0.0,0.0,279
280,1696200554849,-1.984375,0.21484375,0.33789062,13.4375,-19.65625,28.15625,0.0,0.0,0.0,280
281,1696200554889,-1.8662109,0.12890625,0.47265625,-46.6875,-19.03125,47.6875,0.0,0.0,0.0,281
282,1696200554929,-1.6572266,-0.33496094,0.5390625,-45.75,-9.09375,57.5625,0.0,0.0,0.0,282
283,1696200554969,-0.7626953,-0.25585938,0.15722656,-38.375,-8.0625,64.03125,0.0,0.0,0.0,283
284,1696200555009,0.27929688,-0.11230469,-0.048828125,-26.65625,58.40625,55.78125,0.0,0.0,0.0,284
285,1696200555049,0.4716797,0.33398438,0.12109375,-5.84375,23.1875,-14.09375,0.0,0.0,0.0,285
286,1696200555089,-0.12402344,0.12988281,0.12890625,-32.8125,-113.5625,-80.875,0.0,0.0,0.0,286
287,1696200555129,-0.75,0.053710938,0.0126953125,-34.21875,-65.25,-68.15625,0.0,0.0,0.0,287
288,1696200555169,-1.4814453,-0.19238281,-0.27929688,31.8125,-37.78125,-13.25,0.0,0.0,0.0,288
289,1696200555209,-1.984375,-0.3125,0.045898438,27.96875,40.84375,59.875,-58.1875,-46.1875,-78.9375,289
290,1696200555249,-1.3154297,0.40722656,0.57128906,53.59375,50.53125,-13.28125,0.0,0.0,0.0,290
291,1696200555289,-1.3847656,0.10253906,0.37109375,4.53125,92.0625,-51.8125,0.0,0.0,0.0,291
292,1696200555329,-1.5205078,-0.061523438,0.19628906,-19.875,110.25,-44.96875,0.0,0.0,0.0,292
293,1696200555369,-1.1835938,-0.08691406,0.115234375,-50.875,87.03125,-34.21875,0.0,0.0,0.0,293
294,1696200555409,-0.5371094,0.076171875,0.22851562,-25.6875,33.75,5.5,0.0,0.0,0.0,294
295,1696200555449,-0.3486328,0.03125,-0.20605469,-38.1875,-10.125,23.5,0.0,0.0,0.0,295
296,1696200555489,-0.0126953125,0.038085938,-0.16699219,32.3125,-19.65625,-5.90625,0.0,0.0,0.0,296
297,1696200555529,-0.13964844,0.09667969,-0.13769531,65.875,-28.1875,-28.0625,0.0,0.0,0.0,297
298,1696200555569,-0.61328125,0.115234375,-0.2578125,20.34375,-39.53125,-17.75,0.0,0.0,0.0,298
299,1696200555609,-1.984375,0.19238281,-0.21386719,105.71875,-109.3125,39.875,0.0,0.0,0.0,299
300,1696200555649,-1.984375,0.20800781,0.3623047,-30.4375,-15.5625,14.71875,0.0,0.0,0.0,300
301,1696200555689,-1.984375,-0.11621094,0.39746094,-57.0625,-31.125,31.3125,-60.875,-46.75,-83.0,301
302,1696200555729,-1.6513672,-0.29785156,0.703125,-36.0,-2.125,68.625,0.0,0.0,0.0,302
303,1696200555769,-0.89941406,-0.25195312,0.4091797,-69.625,1.78125,46.53125,0.0,0.0,0.0,303
304,1696200555809,0.072265625,-0.16796875,-0.09082031,-48.4375,51.28125,42.96875,0.0,0.0,0.0,304
305,1696200555849,0.34375,0.30078125,0.12402344,20.9375,-7.5,8.90625,0.0,0.0,0.0,305
306,1696200555889,0.013671875,0.19921875,0.11425781,-22.5,-39.53125,-59.625,0.0,0.0,0.0,306
307,1696200555929,-0.48828125,0.07910156,-0.53808594,-28.84375,-81.84375,-59.3125,0.0,0.0,0.0,307
308,1696200555969,-0.75,0.032226562,-0.26464844,15.875,-25.5625,-50.71875,0.0,0.0,0.0,308
309,1696200556009,-1.984375,-0.053710938,-0.041992188,35.53125,-4.875,83.5625,0.0,0.0,0.0,309
310,1696200556049,-1.6650391,0.1015625,0.45214844,15.40625,22.46875,5.6875,0.0,0.0,0.0,310
311,1696200556089,-1.1816406,-0.08984375,0.4013672,6.4375,73.375,-31.1875,0.0,0.0,0.0,311
312,1696200556129,-1.5263672,-0.13769531,0.23925781,8.6875,120.8125,-33.3125,0.0,0.0,0.0,312
313,1696200556169,-1.3261719,-0.046875,0.16113281,-40.09375,97.78125,-36.375,0.0,0.0,0.0,313
314,1696200556209,-0.6425781,-0.06640625,0.20117188,-32.34375,42.3125,-7.125,-54.0,-51.5625,-86.625,314
315,1696200556249,-0.375,0.18554688,-0.24902344,-2.1875,-2.1875,23.8125,0.0,0.0,0.0,315
316,1696200556289,-0.12207031,0.25390625,-0.14941406,-6.53125,-30.09375,7.6875,0.0,0.0,0.0,316
317,1696200556329,-0.08203125,0.07910156,-0.06738281,-26.28125,-60.40625,-25.875,0.0,0.0,0.0,317
318,1696200556369,-0.49414062,-0.049804688,-0.44140625,-4.0,-53.875,-44.4375,0.0,0.0,0.0,318
319,1696200556409,-1.8642578,-0.14453125,-0.32128906,143.03125,-87.15625,8.625,0.0,0.0,0.0,319
320,1696200556449,-1.984375,0.7138672,0.3076172,8.875,-44.4375,9.34375,0.0,0.0,0.0,320
321,1696200556489,-1.6767578,-0.38867188,0.32617188,-39.78125,-37.65625,30.96875,0.0,0.0,0.0,321
322,1696200556529,-1.7304688,-0.5830078,0.54785156,22.125,18.9375,54.03125,0.0,0.0,0.0,322
323,1696200556569,-1.0175781,-0.08496094,0.4326172,14.84375,-4.9375,62.6875,0.0,0.0,0.0,323
324,1696200556609,-0.022460938,-0.24121094,0.02734375,-6.21875,21.6875,47.5,0.0,0.0,0.0,324
325,1696200556649,0.46972656,0.125,0.115234375,39.25,2.5625,2.6875,0.0,0.0,0.0,325
326,1696200556689,0.1328125,0.07421875,0.053710938,18.9375,-22.40625,-51.3125,-57.625,-45.6875,-83.0,326
327,1696200556729,-0.61816406,0.125,-0.091796875,24.3125,-66.53125,-49.25,0.0,0.0,0.0,327
328,1696200556769,-0.92871094,0.20214844,-0.5361328,9.34375,-16.53125,-46.5625,0.0,0.0,0.0,328
329,1696200556809,-1.984375,-0.80566406,-0.05859375,22.53125,-22.40625,108.90625,0.0,0.0,0.0,329
330,1696200556849,-1.3544922,-0.10058594,0.39453125,49.34375,-1.28125,10.03125,0.0,0.0,0.0,330
331,1696200556889,-1.4179688,0.10449219,0.5625,32.375,84.3125,-37.15625,0.0,0.0,0.0,331
332,1696200556929,-1.7138672,-0.13867188,0.21972656,-19.625,105.1875,-19.34375,0.0,0.0,0.0,332
333,1696200556969,-1.4453125,-0.14746094,0.111328125,-54.25,100.53125,-31.90625,0.0,0.0,0.0,333
334,1696200557009,-0.8925781,-0.059570312,0.21289062,-27.21875,63.3125,-19.03125,0.0,0.0,0.0,334
335,1696200557049,-0.5058594,0.05078125,0.043945312,-40.625,-18.1875,9.46875,0.0,0.0,0.0,335
336,1696200557089,0.06738281,-0.07910156,-0.16015625,-33.75,-17.15625,4.59375,0.0,0.0,0.0,336
337,1696200557129,-0.026367188,0.018554688,-0.115234375,60.125,-1.09375,-12.1875,0.0,0.0,0.0,337
338,1696200557169,-0.48242188,-0.00390625,-0.28027344,56.84375,-10.375,-35.40625,0.0,0.0,0.0,338
339,1696200557209,-1.8876953,0.1328125,-0.42285156,102.5,-57.1875,12.59375,-60.0,-54.25,-89.875,339
340,1696200557249,-1.984375,0.54296875,0.03125,41.46875,-50.21875,11.90625,0.0,0.0,0.0,340
341,1696200557289,-1.8046875,-0.024414062,0.24414062,-46.3125,-39.78125,3.90625,0.0,0.0,0.0,341
342,1696200557329,-1.9570312,-0.45410156,0.45410156,-17.9375,-10.90625,58.1875,0.0,0.0,0.0,342
343,1696200557369,-1.2666016,-0.21582031,0.44726562,-36.125,-6.34375,58.65625,0.0,0.0,0.0,343
344,1696200557409,-0.3095703,-0.13085938,-0.024414062,-33.875,3.0,60.1875,0.0,0.0,0.0,344
345,1696200557449,0.5185547,0.25390625,0.08105469,-40.03125,47.3125,20.8125,0.0,0.0,0.0,345
346,1696200557489,0.21582031,0.16894531,0.12207031,-32.40625,-51.75,-41.3125,0.0,0.0,0.0,346
347,1696200557529,-0.28515625,-0.21679688,0.13183594,-44.34375,-88.25,-71.09375,0.0,0.0,0.0,347
348,1696200557569,-0.578125,0.22558594,-0.21484375,-16.9375,-33.25,-45.65625,0.0,0.0,0.0,348
349,1696200557609,-1.2792969,-0.13769531,0.0703125,52.75,-17.75,10.1875,0.0,0.0,0.0,349
350,1696200557649,-1.984375,-0.85253906,0.087890625,-11.71875,-0.59375,68.25,0.0,0.0,0.0,350
351,1696200557689,-1.4267578,0.034179688,0.7402344,28.40625,54.28125,-15.5,-60.75,-49.9375,-84.9375,351
352,1696200557729,-1.375,-0.07128906,0.5449219,-4.3125,99.8125,-44.4375,0.0,0.0,0.0,352
353,1696200557769,-1.3769531,-0.16699219,0.25683594,-23.375,107.6875,-19.28125,0.0,0.0,0.0,353
354,1696200557809,-1.21875,-0.12207031,0.13476562,-34.53125,81.125,-13.84375,0.0,0.0,0.0,354
355,1696200557849,-0.6308594,0.06738281,0.15625,-28.96875,14.40625,4.15625,0.0,0.0,0.0,355
356,1696200557889,-0.12890625,-0.07714844,-0.18457031,-48.4375,-23.78125,25.09375,0.0,0.0,0.0,356
357,1696200557929,-0.078125,-0.041992188,-0.18457031,52.625,-30.5,15.8125,0.0,0.0,0.0,357
358,1696200557969,-0.42871094,0.076171875,-0.56640625,88.625,-33.9375,-35.15625,0.0,0.0,0.0,358
359,1696200558009,-1.4755859,0.14160156,-0.3720703,141.25,-57.59375,-0.96875,0.0,0.0,0.0,359
360,1696200558049,-1.7939453,0.734375,-0.020507812,47.9375,-58.34375,8.8125,0.0,0.0,0.0,360
361,1696200558089,-1.8085938,-0.11425781,0.31054688,-33.25,-46.8125,10.5625,0.0,0.0,0.0,361
362,1696200558129,-1.9316406,-0.5078125,0.44628906,-7.5,-11.03125,32.28125,0.0,0.0,0.0,362
363,1696200558169,-1.3339844,-0.16894531,0.45410156,14.25,3.3125,45.40625,0.0,0.0,0.0,363
364,1696200558209,-0.6621094,-0.12988281,0.24121094,9.15625,18.875,45.40625,-64.1875,-51.125,-86.125,364
365,1696200558249,-0.1796875,0.109375,-0.024414062,2.46875,19.125,21.8125,0.0,0.0,0.0,365
366,1696200558289,0.39160156,0.30078125,0.036132812,-5.96875,-17.15625,-39.46875,0.0,0.0,0.0,366
367,1696200558329,-0.06542969,0.091796875,0.24609375,-31.25,-59.375,-74.625,0.0,0.0,0.0,367
368,1696200558369,-0.8466797,0.17578125,-0.0107421875,-13.96875,-62.0625,-49.625,0.0,0.0,0.0,368
369,1696200558409,-1.984375,-0.15722656,-0.35546875,16.0,-50.96875,38.46875,0.0,0.0,0.0,369
370,1696200558449,-1.1279297,-0.5253906,0.17382812,11.84375,2.21875,85.53125,0.0,0.0,0.0,370
371,1696200558489,-1.0507812,0.16308594,0.6220703,-7.0,20.8125,-25.625,0.0,0.0,0.0,371
372,1696200558529,-0.24414062,0.19238281,-0.02734375,-19.9375,-29.71875,20.21875,0.0,0.0,0.0,372
373,1696200558569,0.07714844,-0.044921875,-0.14941406,-1.875,-54.75,19.90625,0.0,0.0,0.0,373
374,1696200558609,0.0126953125,0.14941406,-0.18457031,30.09375,-49.3125,-5.96875,0.0,0.0,0.0,374
375,1696200558649,-0.49121094,0.30566406,-0.24023438,6.1875,-53.8125,-23.90625,0.0,0.0,0.0,375
376,1696200558689,-1.859375,-0.13964844,-0.15722656,4.21875,-52.0,-4.75,0.0,0.0,0.0,376
377,1696200558729,-1.984375,-0.109375,0.2548828,46.65625,-50.28125,16.0,0.0,0.0,0.0,377
378,1696200558769,-1.6845703,0.059570312,0.5800781,42.0625,-15.25,27.96875,0.0,0.0,0.0,378
379,1696200558809,-1.7041016,0.0078125,0.6953125,-3.40625,-12.5,41.6875,0.0,0.0,0.0,379
380,1696200558849,-1.0527344,-0.21875,0.4658203,-38.25,7.21875,52.9375,-66.625,-73.9375,-81.8125,380
381,1696200558889,-0.21386719,-0.22753906,-0.04296875,-26.78125,19.71875,50.375,0.0,0.0,0.0,381
382,1696200558929,0.3232422,0.20605469,0.20898438,-28.125,47.1875,3.25,0.0,0.0,0.0,382
383,1696200558969,0.20410156,0.02734375,0.05078125,-33.6875,-50.15625,-59.9375,0.0,0.0,0.0,383
384,1696200559009,-0.42382812,0.0146484375,0.30273438,-9.5,-84.09375,-70.5625,0.0,0.0,0.0,384
385,1696200559049,-1.1552734,0.37109375,-0.25,-33.875,-26.71875,-54.625,0.0,0.0,0.0,385
386,1696200559089,-0.6435547,-0.53222656,0.3173828,14.1875,44.625,51.40625,0.0,0.0,0.0,386
387,1696200559129,-1.1376953,0.234375,0.5097656,75.46875,26.5,-2.0,0.0,0.0,0.0,387
388,1696200559169,-1.3222656,0.13183594,0.3232422,6.1875,106.21875,-49.375,0.0,0.0,0.0,388
389,1696200559209,-1.6962891,-0.07324219,0.12695312,-35.75,104.3125,-25.125,0.0,0.0,0.0,389
390,1696200559249,-1.2861328,-0.21679688,0.21289062,-75.78125,84.90625,-43.6875,0.0,0.0,0.0,390
391,1696200559289,-0.7294922,-0.05078125,0.23730469,-6.53125,26.5625,-17.8125,0.0,0.0,0.0,391
392,1696200559329,-0.34570312,0.060546875,-0.14941406,-0.46875,-13.25,10.875,0.0,0.0,0.0,392
393,1696200559369,-0.0703125,0.06640625,-0.14941406,16.5625,-18.96875,7.21875,-58.375,-80.9375,-93.1875,393
394,1696200559409,0.00390625,0.17871094,-0.11230469,18.5,-41.6875,-19.78125,0.0,0.0,0.0,394
395,1696200559449,-0.43652344,0.2685547,-0.15625,3.90625,-50.28125,-29.96875,0.0,0.0,0.0,395
396,1696200559489,-1.7089844,0.076171875,-0.2763672,31.15625,-84.28125,-9.4375,0.0,0.0,0.0,396
397,1696200559529,-1.984375,0.171875,0.21679688,20.59375,-63.59375,3.25,0.0,0.0,0.0,397
398,1696200559569,-1.8515625,-0.111328125,0.5390625,-15.4375,-42.21875,15.375,0.0,0.0,0.0,398
399,1696200559609,-1.7548828,-0.5732422,0.70703125,11.78125,12.875,56.59375,0.0,0.0,0.0,399
400,1696200559649,-1.1816406,-0.2763672,0.45410156,9.0625,31.3125,60.75,0.0,0.0,0.0,400
401,1696200559689,-0.31933594,-0.07714844,0.036132812,14.71875,43.59375,63.71875,0.0,0.0,0.0,401
402,1696200559729,0.4560547,0.21679688,0.21191406,15.9375,35.71875,20.875,0.0,0.0,0.0,402
403,1696200559769,0.19628906,0.13671875,0.05859375,14.0,-53.59375,-49.5,0.0,0.0,0.0,403
404,1696200559809,-0.48242188,0.17773438,0.20410156,-7.90625,-49.0,-95.8125,0.0,0.0,0.0,404
405,1696200559849,-1.4560547,0.39160156,-0.45703125,-19.21875,-20.1875,-62.5625,-61.375,-81.4375,-79.5625,405
406,1696200559889,-1.4775391,-0.28515625,-0.08203125,-7.1875,37.78125,53.96875,0.0,0.0,0.0,406
407,1696200559929,-1.2246094,0.08886719,0.27148438,58.84375,19.28125,1.46875,0.0,0.0,0.0,407
408,1696200559969,-1.4248047,0.15722656,0.36035156,31.6875,83.8125,-37.34375,0.0,0.0,0.0,408
409,1696200560009,-1.6210938,-0.16894531,0.17285156,-21.65625,104.4375,-35.34375,0.0,0.0,0.0,409
410,1696200560049,-1.1298828,-0.06738281,0.16503906,-51.0625,83.8125,-37.09375,0.0,0.0,0.0,410
411,1696200560089,-0.7373047,0.0048828125,0.21386719,-27.15625,30.28125,-0.53125,0.0,0.0,0.0,411
412,1696200560129,-0.44433594,0.09375,-0.1015625,-36.4375,-28.1875,17.28125,0.0,0.0,0.0,412
413,1696200560169,0.0107421875,-0.09472656,-0.18261719,-8.46875,-29.71875,1.84375,0.0,0.0,0.0,413
414,1696200560209,-0.076171875,0.09375,-0.20800781,59.21875,-24.03125,-31.90625,0.0,0.0,0.0,414
415,1696200560249,-0.7246094,0.1484375,-0.4169922,53.3125,-52.65625,-36.84375,0.0,0.0,0.0,415
416,1696200560289,-1.9794922,0.1640625,-0.14160156,95.84375,-87.21875,32.46875,0.0,0.0,0.0,416
417,1696200560329,-1.984375,0.31640625,0.2529297,-13.09375,-30.4375,32.1875,0.0,0.0,0.0,417
418,1696200560369,-1.9335938,-0.037109375,0.4892578,-62.71875,-24.03125,42.0,-63.875,-81.6875,-84.0625,418
419,1696200560409,-1.6357422,-0.4013672,0.5761719,-37.9375,-10.3125,59.46875,0.0,0.0,0.0,419
420,1696200560449,-0.7675781,-0.36328125,0.3330078,-35.375,-9.375,56.15625,0.0,0.0,0.0,420
421,1696200560489,0.036132812,-0.14746094,-0.01953125,-28.1875,50.0,48.90625,0.0,0.0,0.0,421
422,1696200560529,0.4794922,0.3798828,0.21972656,-0.40625,27.46875,-5.3125,0.0,0.0,0.0,422
423,1696200560569,0.07128906,0.15039062,0.20019531,-50.46875,-36.375,-60.34375,0.0,0.0,0.0,423
424,1696200560609,-0.8886719,0.14941406,0.25097656,-30.0,-66.03125,-69.5,0.0,0.0,0.0,424
425,1696200560649,-1.984375,0.203125,-0.28320312,50.25,-43.3125,-2.1875,0.0,0.0,0.0,425
426,1696200560689,-1.03125,0.0048828125,0.19042969,0.25,57.8125,32.78125,0.0,0.0,0.0,426
427,1696200560729,-1.2216797,0.19335938,0.34179688,47.0625,42.125,-22.34375,0.0,0.0,0.0,427
428,1696200560769,-1.2685547,0.125,0.36621094,26.03125,104.3125,-33.625,0.0,0.0,0.0,428
429,1696200560809,-1.5957031,-0.13769531,0.21777344,-32.34375,102.5,-29.78125,0.0,0.0,0.0,429
430,1696200560849,-1.0527344,-0.13964844,0.18945312,-51.5625,78.0,-41.96875,-57.4375,-83.0625,-90.1875,430
431,1696200560889,-0.6357422,0.08984375,0.17578125,-9.3125,27.59375,-6.03125,0.0,0.0,0.0,431
432,1696200560929,-0.2626953,0.2109375,-0.15527344,-30.1875,-14.75,8.0,0.0,0.0,0.0,432
433,1696200560969,0.036132812,0.030273438,-0.15917969,-9.6875,-24.65625,-16.40625,0.0,0.0,0.0,433
434,1696200561009,-0.24511719,0.076171875,-0.19238281,44.625,-21.40625,-56.8125,0.0,0.0,0.0,434
435,1696200561049,-1.1816406,0.12792969,-0.37109375,58.59375,-63.59375,-34.125,0.0,0.0,0.0,435
436,1696200561089,-1.984375,0.040039062,-0.01953125,67.28125,-106.4375,26.4375,0.0,0.0,0.0,436
437,1696200561129,-1.984375,-0.07910156,0.5917969,-28.5625,-15.0,19.71875,0.0,0.0,0.0,437
438,1696200561169,-1.8564453,-0.421875,0.5722656,-28.78125,-21.15625,46.21875,0.0,0.0,0.0,438
439,1696200561209,-1.1650391,-0.296875,0.51171875,-21.59375,23.625,48.65625,0.0,0.0,0.0,439
440,1696200561249,-0.4951172,-0.20019531,0.21386719,2.15625,18.6875,66.65625,0.0,0.0,0.0,440
441,1696200561289,0.0703125,-0.051757812,-0.038085938,13.5625,50.25,59.09375,0.0,0.0,0.0,441
442,1696200561329,0.46191406,0.40527344,0.11230469,16.125,-2.625,-15.96875,0.0,0.0,0.0,442
443,1696200561369,-0.14160156,0.10644531,0.08300781,-33.5,-100.75,-85.3125,-61.1875,-80.0625,-89.125,443
444,1696200561409,-0.91796875,0.16113281,-0.20019531,-35.1875,-75.375,-65.59375,0.0,0.0,0.0,444
445,1696200561449,-1.984375,-0.6660156,-0.001953125,115.5625,-138.1875,120.125,0.0,0.0,0.0,445
446,1696200561489,-1.3798828,-0.18261719,0.23632812,80.9375,21.8125,27.0,0.0,0.0,0.0,446
447,1696200561529,-1.2373047,0.50683594,0.60058594,69.03125,98.15625,-28.625,0.0,0.0,0.0,447
448,1696200561569,-1.7255859,0.16113281,0.23730469,-24.40625,106.6875,-33.0625,0.0,0.0,0.0,448
449,1696200561609,-1.4179688,-0.14648438,0.125,-73.46875,99.0,-42.03125,0.0,0.0,0.0,449
450,1696200561649,-0.91015625,-0.09375,0.19824219,-45.09375,69.59375,-19.8125,0.0,0.0,0.0,450
451,1696200561689,-0.52246094,-0.0126953125,0.13378906,-34.40625,3.90625,13.0,0.0,0.0,0.0,451
452,1696200561729,-0.043945312,-0.09472656,-0.265625,-12.9375,-10.125,17.71875,0.0,0.0,0.0,452
453,1696200561769,-0.095703125,0.08105469,-0.044921875,74.28125,-10.125,-15.375,0.0,0.0,0.0,453
454,1696200561809,-0.359375,0.14160156,-0.28027344,78.8125,-29.28125,-40.875,0.0,0.0,0.0,454
455,1696200561849,-1.0810547,0.15625,-0.50097656,76.4375,-65.125,-6.03125,-55.9375,-88.9375,-92.0,455
456,1696200561889,-1.984375,0.055664062,-0.14746094,115.6875,-59.0625,20.875,0.0,0.0,0.0,456
457,1696200561929,-1.984375,0.171875,0.4111328,-14.09375,-2.125,27.0,0.0,0.0,0.0,457
458,1696200561969,-1.8652344,-0.1796875,0.5175781,-48.09375,-15.0625,52.25,0.0,0.0,0.0,458
459,1696200562009,-1.3964844,-0.28808594,0.56152344,-59.5,-12.8125,48.90625,0.0,0.0,0.0,459
460,1696200562049,-0.5341797,-0.26464844,0.1484375,-42.28125,2.03125,56.96875,0.0,0.0,0.0,460
461,1696200562089,0.30273438,0.08203125,-0.07421875,-32.34375,61.15625,41.40625,0.0,0.0,0.0,461
462,1696200562129,0.3251953,0.31445312,0.056640625,-19.40625,-8.40625,-26.65625,0.0,0.0,0.0,462
463,1696200562169,-0.23046875,0.044921875,0.109375,-76.78125,-115.84375,-67.0,0.0,0.0,0.0,463
464,1696200562209,-0.703125,0.14453125,-0.13476562,-67.71875,-56.875,-47.90625,0.0,0.0,0.0,464
465,1696200562249,-1.984375,0.24414062,-0.20996094,100.125,-54.75,50.1875,0.0,0.0,0.0,465
466,1696200562289,-1.3623047,0.068359375,0.4765625,-6.875,51.9375,34.90625,0.0,0.0,0.0,466
467,1696200562329,-1.6640625,0.048828125,0.5878906,-12.0625,69.90625,-13.40625,0.0,0.0,0.0,467
468,1696200562369,-1.5761719,-0.21191406,0.30859375,-4.125,98.59375,-36.0,-58.1875,-81.875,-88.125,468
469,1696200562409,-1.5693359,-0.09082031,0.22167969,-17.5625,97.40625,-47.65625,0.0,0.0,0.0,469
470,1696200562449,-0.87890625,0.0859375,0.109375,-36.0625,40.65625,-19.40625,0.0,0.0,0.0,470
471,1696200562489,-0.31152344,0.12402344,-0.12011719,-10.53125,-13.65625,15.9375,0.0,0.0,0.0,471
472,1696200562529,-0.040039062,0.021484375,-0.18164062,1.0625,-18.0625,4.34375,0.0,0.0,0.0,472
473,1696200562569,-0.01953125,0.017578125,-0.048828125,38.71875,-29.03125,-23.3125,0.0,0.0,0.0,473
474,1696200562609,-0.27929688,0.10058594,-0.29785156,33.84375,-50.09375,-32.53125,0.0,0.0,0.0,474
475,1696200562649,-1.1542969,-0.06738281,-0.3544922,55.5,-60.65625,-11.03125,0.0,0.0,0.0,475
476,1696200562689,-1.984375,0.048828125,-0.04296875,112.8125,-79.09375,27.09375,0.0,0.0,0.0,476
477,1696200562729,-1.984375,0.30566406,0.57714844,-9.6875,-19.8125,12.28125,0.0,0.0,0.0,477
478,1696200562769,-1.8730469,-0.45703125,0.5673828,-17.5,-30.9375,46.6875,0.0,0.0,0.0,478
479,1696200562809,-1.4257812,-0.359375,0.6748047,-4.1875,0.5,43.46875,0.0,0.0,0.0,479
480,1696200562849,-0.37402344,-0.171875,0.1015625,-3.15625,6.84375,49.5,-63.75,-81.875,-84.625,480
481,1696200562889,0.2685547,0.15429688,-0.140625,7.59375,43.53125,46.21875,0.0,0.0,0.0,481
482,1696200562929,0.19238281,0.28027344,0.041992188,5.5,-3.59375,-18.0,0.0,0.0,0.0,482
483,1696200562969,-0.23144531,0.08300781,0.1640625,-63.71875,-57.90625,-61.28125,0.0,0.0,0.0,483
484,1696200563009,-0.5097656,0.22949219,0.059570312,-24.09375,-68.78125,-56.75,0.0,0.0,0.0,484
485,1696200563049,-1.984375,0.06738281,0.11035156,101.5625,-111.4375,77.28125,0.0,0.0,0.0,485
486,1696200563089,-1.0488281,-0.1015625,0.39453125,23.40625,43.21875,21.3125,0.0,0.0,0.0,486
487,1696200563129,-1.46875,0.103515625,0.48046875,48.71875,60.75,-16.15625,0.0,0.0,0.0,487
488,1696200563169,-1.5810547,-0.09277344,0.296875,22.28125,110.1875,-25.125,0.0,0.0,0.0,488
489,1696200563209,-1.4326172,-0.0859375,0.15625,-1.9375,105.21875,-53.21875,0.0,0.0,0.0,489
490,1696200563249,-0.95410156,0.17285156,0.15429688,-8.15625,64.21875,-43.09375,0.0,0.0,0.0,490
491,1696200563289,-0.50097656,0.115234375,0.021484375,-38.8125,-2.5625,1.53125,0.0,0.0,0.0,491
492,1696200563329,-0.01953125,-0.052734375,-0.22851562,-30.4375,-16.84375,10.875,0.0,0.0,0.0,492
493,1696200563369,-0.021484375,0.103515625,-0.07324219,44.375,-9.75,-18.84375,-54.125,-86.375,-92.75,493
494,1696200563409,-0.28125,0.26660156,-0.2705078,36.40625,-35.8125,-26.90625,0.0,0.0,0.0,494
495,1696200563449,-1.1494141,0.14355469,-0.2939453,37.4375,-61.15625,-0.90625,0.0,0.0,0.0,495
496,1696200563489,-1.984375,-0.08203125,0.01171875,65.5,-93.8125,23.9375,0.0,0.0,0.0,496
497,1696200563529,-1.984375,0.18164062,0.6113281,-45.9375,11.4375,8.25,0.0,0.0,0.0,497
498,1696200563569,-1.9453125,-0.3955078,0.66015625,-34.03125,1.28125,59.8125,0.0,0.0,0.0,498
499,1696200563609,-1.25,-0.3876953,0.43066406,-41.1875,34.0,59.09375,0.0,0.0,0.0,499
500,1696200563649,-0.45507812,0.0029296875,0.13867188,-17.0625,50.5,57.5,0.0,0.0,0.0,500
501,1696200563689,0.44726562,0.203125,0.021484375,-40.34375,82.78125,17.71875,0.0,0.0,0.0,501
502,1696200563729,0.107421875,0.05859375,0.15820312,-9.6875,-25.5,-34.46875,0.0,0.0,0.0,502
503,1696200563769,-0.24511719,-0.13769531,-0.12402344,-41.71875,-95.21875,-81.84375,0.0,0.0,0.0,503
504,1696200563809,-0.60058594,0.18066406,0.09863281,-17.375,-63.03125,-50.59375,0.0,0.0,0.0,504
505,1696200563849,-1.984375,0.5810547,-0.11816406,88.75,-102.53125,42.84375,-55.9375,-84.125,-87.5,505
506,1696200563889,-1.0810547,-0.11230469,0.26367188,-24.75,42.96875,8.75,0.0,0.0,0.0,506
507,1696200563929,-1.2207031,0.047851562,0.69140625,37.90625,91.9375,-30.09375,0.0,0.0,0.0,507
508,1696200563969,-1.6748047,0.0029296875,0.2998047,29.96875,125.625,-32.21875,0.0,0.0,0.0,508
509,1696200564009,-1.59375,-0.07421875,0.09667969,-5.0625,112.1875,-39.3125,0.0,0.0,0.0,509
510,1696200564049,-0.9951172,0.099609375,0.123046875,-11.40625,58.1875,-26.3125,0.0,0.0,0.0,510
511,1696200564089,-0.45996094,0.10449219,-0.1328125,-29.71875,-18.1875,28.625,0.0,0.0,0.0,511
512,1696200564129,-0.09277344,0.0009765625,-0.21289062,-21.21875,-23.625,23.3125,0.0,0.0,0.0,512
513,1696200564169,0.036132812,0.13769531,-0.0078125,22.59375,-34.40625,-18.375,0.0,0.0,0.0,513
514,1696200564209,-0.22265625,0.21289062,-0.20019531,16.1875,-49.90625,-34.0625,0.0,0.0,0.0,514
515,1696200564249,-1.0537109,0.087890625,-0.43847656,30.03125,-71.21875,-20.8125,0.0,0.0,0.0,515
516,1696200564289,-1.984375,-0.37402344,-0.018554688,108.40625,-70.90625,30.15625,0.0,0.0,0.0,516
517,1696200564329,-1.984375,0.13964844,0.703125,7.71875,14.71875,26.0625,0.0,0.0,0.0,517
518,1696200564369,-1.984375,-0.30078125,0.72558594,-17.6875,-26.25,54.4375,-56.375,-83.375,-84.375,518
519,1696200564409,-1.1962891,-0.4560547,0.41992188,-34.59375,9.84375,43.84375,0.0,0.0,0.0,519
520,1696200564449,-0.23046875,-0.30859375,0.16210938,-6.6875,52.5,54.875,0.0,0.0,0.0,520
521,1696200564489,0.32617188,0.20507812,-0.016601562,18.8125,54.625,37.4375,0.0,0.0,0.0,521
522,1696200564529,0.14941406,0.31152344,-0.0126953125,9.53125,-25.6875,-32.65625,0.0,0.0,0.0,522
523,1696200564569,-0.29101562,-0.032226562,-0.0146484375,-38.25,-106.0,-97.90625,0.0,0.0,0.0,523
524,1696200564609,-0.65625,0.31152344,-0.3779297,-35.4375,-64.375,-62.4375,0.0,0.0,0.0,524
525,1696200564649,-1.984375,-0.61816406,0.13769531,73.125,-93.4375,119.75,0.0,0.0,0.0,525
526,1696200564689,-1.5361328,-0.17285156,0.38378906,70.5625,28.375,28.875,0.0,0.0,0.0,526
527,1696200564729,-1.1933594,0.4091797,0.6542969,46.40625,87.90625,-34.40625,0.0,0.0,0.0,527
528,1696200564769,-1.7548828,-0.06542969,0.21875,-34.59375,101.15625,-17.5,0.0,0.0,0.0,528
529,1696200564809,-1.3037109,-0.16894531,0.107421875,-70.1875,91.6875,-52.46875,0.0,0.0,0.0,529
530,1696200564849,-0.66308594,0.056640625,0.21484375,-29.84375,41.6875,-19.46875,-50.5625,-86.9375,-88.5625,530
531,1696200564889,-0.3330078,0.11035156,-0.13085938,-29.65625,-9.75,25.40625,0.0,0.0,0.0,531
532,1696200564929,-0.08300781,-0.034179688,-0.23925781,-11.34375,-8.96875,12.09375,0.0,0.0,0.0,532
533,1696200564969,-0.055664062,0.10253906,-0.087890625,46.53125,-25.4375,-28.75,0.0,0.0,0.0,533
534,1696200565009,-0.34570312,0.19335938,-0.3408203,43.90625,-40.21875,-30.5,0.0,0.0,0.0,534
535,1696200565049,-1.1503906,0.14648438,-0.2841797,36.40625,-83.3125,11.25,0.0,0.0,0.0,535
536,1696200565089,-1.984375,-0.0546875,-0.06542969,83.5625,-83.3125,51.71875,0.0,0.0,0.0,536
537,1696200565129,-1.984375,0.23632812,0.6455078,-50.34375,-14.34375,14.53125,0.0,0.0,0.0,537
538,1696200565169,-1.8935547,-0.44921875,0.671875,-54.78125,-28.6875,54.40625,0.0,0.0,0.0,538
539,1696200565209,-1.0966797,-0.46875,0.36816406,-48.375,19.59375,55.84375,0.0,0.0,0.0,539
540,1696200565249,-0.35742188,-0.09472656,0.20019531,-5.78125,45.125,73.625,0.0,0.0,0.0,540
541,1696200565289,0.3857422,0.3125,0.0390625,-24.9375,93.6875,39.375,0.0,0.0,0.0,541
542,1696200565329,0.1796875,0.21875,-0.036132812,-21.34375,-21.53125,-36.78125,0.0,0.0,0.0,542
543,1696200565369,-0.23144531,0.05078125,0.23046875,-82.3125,-94.90625,-82.9375,-59.6875,-79.0,-84.375,543
544,1696200565409,-0.5292969,0.34472656,0.13476562,-63.8125,-64.375,-68.40625,0.0,0.0,0.0,544
545,1696200565449,-1.9091797,0.030273438,-0.21777344,137.28125,-91.3125,42.625,0.0,0.0,0.0,545
546,1696200565489,-1.2304688,-0.4189453,0.12890625,1.125,9.15625,51.46875,0.0,0.0,0.0,546
547,1696200565529,-1.5322266,0.07128906,0.6152344,43.59375,20.5625,-28.25,0.0,0.0,0.0,547
548,1696200565569,-1.1572266,-0.08984375,0.40429688,31.03125,94.375,-63.65625,0.0,0.0,0.0,548
549,1696200565609,-1.4414062,-0.099609375,0.171875,-0.84375,113.65625,-35.15625,0.0,0.0,0.0,549
550,1696200565649,-1.1376953,-0.08691406,0.2548828,-20.75,83.375,-23.1875,0.0,0.0,0.0,550
551,1696200565689,-0.47851562,0.07519531,0.12597656,-27.5625,9.90625,1.84375,0.0,0.0,0.0,551
552,1696200565729,-0.125,-0.052734375,-0.29003906,-27.375,-13.65625,17.03125,0.0,0.0,0.0,552
553,1696200565769,-0.12207031,0.026367188,-0.20507812,75.15625,-4.875,-12.3125,0.0,0.0,0.0,553
554,1696200565809,-0.27539062,0.41308594,-0.26464844,73.1875,-25.875,-45.15625,0.0,0.0,0.0,554
555,1696200565849,-0.9482422,0.37304688,-0.4091797,9.71875,-68.34375,-6.78125,-53.375,-88.1875,-86.75,555
556,1696200565889,-1.984375,0.041992188,-0.13183594,31.4375,-74.75,31.375,0.0,0.0,0.0,556
557,1696200565929,-1.984375,-0.17480469,0.5136719,-41.5,-25.75,3.71875,0.0,0.0,0.0,557
558,1696200565969,-1.9667969,-0.5957031,0.5957031,-0.03125,-16.78125,55.4375,0.0,0.0,0.0,558
559,1696200566009,-1.5214844,-0.20605469,0.54589844,4.65625,-4.5625,75.75,0.0,0.0,0.0,559
560,1696200566049,-0.6699219,-0.111328125,0.2890625,-18.59375,18.625,68.1875,0.0,0.0,0.0,560
561,1696200566089,0.11328125,-0.08300781,-0.0068359375,-5.1875,37.53125,56.40625,0.0,0.0,0.0,561
562,1696200566129,0.3408203,0.4892578,0.16992188,-14.375,20.40625,-21.90625,0.0,0.0,0.0,562
563,1696200566169,0.140625,0.013671875,0.001953125,-84.40625,-84.84375,-91.59375,0.0,0.0,0.0,563
564,1696200566209,-0.7363281,-0.0078125,-0.01953125,-66.03125,-56.5,-75.1875,0.0,0.0,0.0,564
565,1696200566249,-1.984375,0.040039062,-0.21972656,56.65625,-35.21875,24.46875,0.0,0.0,0.0,565
566,1696200566289,-1.3261719,-0.15039062,0.10253906,3.5625,17.78125,43.09375,0.0,0.0,0.0,566
567,1696200566329,-1.2470703,0.23828125,0.43164062,61.53125,17.09375,-23.78125,-60.875,-83.1875,-81.9375,567
568,1696200566369,-1.3056641,-0.0703125,0.4638672,41.59375,109.03125,-32.46875,0.0,0.0,0.0,568
569,1696200566409,-1.6679688,-0.047851562,0.18359375,2.34375,115.25,-14.03125,0.0,0.0,0.0,569
570,1696200566449,-1.1777344,-0.12109375,0.13183594,-30.75,92.0,-33.1875,0.0,0.0,0.0,570
571,1696200566489,-0.5810547,0.07324219,0.25878906,-10.65625,21.3125,-2.5625,0.0,0.0,0.0,571
572,1696200566529,-0.17089844,-0.034179688,-0.18359375,-40.625,-25.0625,24.53125,0.0,0.0,0.0,572
573,1696200566569,-0.001953125,-0.064453125,-0.1171875,25.71875,-7.0625,-2.5,0.0,0.0,0.0,573
574,1696200566609,-0.040039062,0.14257812,-0.15039062,73.3125,-21.21875,-37.84375,0.0,0.0,0.0,574
575,1696200566649,-0.33691406,0.20214844,-0.3515625,47.0625,-50.28125,-22.15625,0.0,0.0,0.0,575
576,1696200566689,-1.5712891,0.4189453,-0.51171875,62.75,-53.46875,-4.5625,0.0,0.0,0.0,576
577,1696200566729,-1.984375,0.39941406,0.19335938,26.9375,-47.40625,4.40625,0.0,0.0,0.0,577
578,1696200566769,-1.8857422,-0.025390625,0.5341797,-99.03125,-41.0,15.09375,0.0,0.0,0.0,578
579,1696200566809,-1.8339844,-0.62597656,0.6669922,-43.9375,-40.875,67.6875,0.0,0.0,0.0,579
580,1696200566849,-1.0341797,-0.375,0.34765625,-0.90625,7.6875,81.25,-62.375,-80.9375,-82.6875,580
581,1696200566889,-0.029296875,0.0029296875,0.0546875,-5.65625,81.375,80.28125,0.0,0.0,0.0,581
582,1696200566929,0.41992188,0.3876953,0.17382812,-22.03125,102.5,19.25,0.0,0.0,0.0,582
583,1696200566969,0.08496094,0.34472656,0.111328125,-44.59375,-57.375,-38.25,0.0,0.0,0.0,583
584,1696200567009,-0.24609375,-0.032226562,-0.07714844,-97.875,-120.96875,-88.25,0.0,0.0,0.0,584
585,1696200567049,-0.72265625,-0.06640625,-0.24414062,-96.25,-54.375,-63.53125,0.0,0.0,0.0,585
586,1696200567089,-1.984375,-0.30664062,0.20214844,151.6875,-114.5625,92.71875,0.0,0.0,0.0,586
587,1696200567129,-1.5361328,-0.064453125,0.640625,61.125,31.5625,19.71875,0.0,0.0,0.0,587
588,1696200567169,-1.4130859,-0.017578125,0.64160156,62.15625,96.3125,-20.25,0.0,0.0,0.0,588
589,1696200567209,-1.921875,-0.030273438,0.29296875,34.875,109.3125,-23.90625,0.0,0.0,0.0,589
590,1696200567249,-1.4199219,-0.0546875,0.20410156,-20.6875,109.9375,-55.40625,0.0,0.0,0.0,590
591,1696200567289,-0.83496094,-0.0009765625,0.15136719,-7.625,77.15625,-26.40625,0.0,0.0,0.0,591
592,1696200567329,-0.49316406,0.125,0.0048828125,-21.96875,3.65625,22.65625,-54.0,-83.9375,-93.1875,592
593,1696200567369,-0.115234375,-0.032226562,-0.23828125,-26.46875,-12.5625,21.1875,0.0,0.0,0.0,593
594,1696200567409,-0.11230469,0.09472656,-0.087890625,42.875,-5.25,-11.46875,0.0,0.0,0.0,594
595,1696200567449,-0.22851562,0.22070312,-0.18652344,29.4375,-29.21875,-25.9375,0.0,0.0,0.0,595
596,1696200567489,-0.83203125,0.21972656,-0.36621094,16.25,-71.65625,1.40625,0.0,0.0,0.0,596
597,1696200567529,-1.7988281,-0.056640625,-0.18359375,46.71875,-86.78125,22.34375,0.0,0.0,0.0,597
598,1696200567569,-1.984375,0.064453125,0.40820312,43.34375,-10.0625,19.53125,0.0,0.0,0.0,598
599,1696200567609,-1.9453125,-0.0859375,0.5371094,-21.21875,6.1875,31.25,0.0,0.0,0.0,599
600,1696200567649,-1.5205078,-0.3125,0.5019531,-18.0,8.25,43.71875,0.0,0.0,0.0,600
601,1696200567689,-0.7167969,-0.1953125,0.27441406,-12.125,16.5,51.15625,0.0,0.0,0.0,601
602,1696200567729,-0.09765625,-0.057617188,-0.016601562,-8.53125,33.40625,47.4375,0.0,0.0,0.0,602
603,1696200567769,0.4453125,0.2578125,0.045898438,17.28125,-9.5,-18.5,0.0,0.0,0.0,603
604,1696200567809,-0.034179688,0.15429688,0.123046875,-37.46875,-81.96875,-76.28125,0.0,0.0,0.0,604
605,1696200567849,-0.77246094,0.2939453,0.39746094,-22.875,-57.0,-70.3125,-57.3125,-79.1875,-82.375,605
606,1696200567889,-1.984375,0.17773438,-0.22753906,37.125,-51.0625,-4.5,0.0,0.0,0.0,606
607,1696200567929,-1.0253906,0.13085938,0.12109375,-20.1875,78.625,25.46875,0.0,0.0,0.0,607
608,1696200567969,-1.4023438,0.5019531,0.39160156,20.8125,35.40625,-9.75,0.0,0.0,0.0,608
609,1696200568009,-1.5185547,-0.076171875,0.38964844,-20.0625,85.9375,-38.75,0.0,0.0,0.0,609
610,1696200568049,-1.5234375,-0.2841797,0.091796875,-37.8125,113.71875,-40.03125,0.0,0.0,0.0,610
611,1696200568089,-1.0146484,0.13867188,0.14160156,-23.96875,113.0,-13.125,0.0,0.0,0.0,611
612,1696200568129,-0.57910156,-0.0107421875,0.21582031,-41.84375,35.40625,27.84375,0.0,0.0,0.0,612
613,1696200568169,-0.23535156,-0.025390625,-0.22949219,-30.375,-15.6875,35.28125,0.0,0.0,0.0,613
614,1696200568209,-0.14355469,-0.044921875,-0.13964844,17.40625,-10.78125,4.09375,0.0,0.0,0.0,614
615,1696200568249,-0.12597656,0.11816406,-0.18945312,40.125,-38.9375,-24.09375,0.0,0.0,0.0,615
616,1696200568289,-0.5917969,0.17089844,-0.2841797,16.5,-58.09375,-23.78125,0.0,0.0,0.0,616
617,1696200568329,-1.9248047,-0.12988281,-0.453125,109.375,-92.875,16.3125,-55.8125,-82.4375,-89.75,617
618,1696200568369,-1.984375,0.38964844,0.29785156,51.34375,-41.4375,-8.28125,0.0,0.0,0.0,618
619,1696200568409,-1.9257812,0.030273438,0.453125,-28.1875,-40.53125,24.90625,0.0,0.0,0.0,619
620,1696200568449,-1.7285156,-0.56933594,0.5048828,20.09375,4.09375,56.96875,0.0,0.0,0.0,620
621,1696200568489,-1.1650391,-0.09863281,0.3798828,31.375,21.5625,73.375,0.0,0.0,0.0,621
622,1696200568529,-0.046875,0.061523438,0.03515625,-28.0625,55.25,60.8125,0.0,0.0,0.0,622
623,1696200568569,0.6640625,0.2919922,0.24609375,-36.25,41.09375,-12.125,0.0,0.0,0.0,623
624,1696200568609,0.01171875,0.15722656,0.140625,-36.25,-70.59375,-74.5,0.0,0.0,0.0,624
625,1696200568649,-0.4609375,-0.12792969,-0.041992188,-55.65625,-88.8125,-93.5,0.0,0.0,0.0,625
626,1696200568689,-0.6513672,-0.18945312,-0.24902344,-16.90625,-35.28125,-41.8125,0.0,0.0,0.0,626
627,1696200568729,-1.984375,0.39257812,-0.38964844,172.25,-9.5625,45.71875,0.0,0.0,0.0,627
628,1696200568769,-1.2529297,0.076171875,0.30664062,-8.84375,31.25,34.0625,0.0,0.0,0.0,628
629,1696200568809,-1.6865234,0.13574219,0.64453125,-36.84375,53.0625,-39.25,0.0,0.0,0.0,629
630,1696200568849,-1.5947266,-0.31054688,0.2890625,-21.71875,101.8125,-31.90625,-55.8125,-78.875,-84.5,630
631,1696200568889,-1.5292969,-0.13574219,0.10644531,-16.09375,111.15625,-26.34375,0.0,0.0,0.0,631
632,1696200568929,-0.8652344,0.23925781,0.14746094,-10.25,63.375,-26.1875,0.0,0.0,0.0,632
633,1696200568969,-0.5371094,0.16796875,-0.017578125,-64.1875,-27.09375,8.8125,0.0,0.0,0.0,633
634,1696200569009,-0.017578125,-0.09082031,-0.18652344,-49.90625,-26.3125,18.0,0.0,0.0,0.0,634
635,1696200569049,0.0107421875,0.032226562,-0.15234375,33.875,-8.46875,-13.0625,0.0,0.0,0.0,635
636,1696200569089,-0.3544922,0.265625,-0.34277344,22.15625,-29.28125,-37.53125,0.0,0.0,0.0,636
637,1696200569129,-1.1552734,0.2783203,-0.39453125,26.3125,-74.46875,-19.09375,0.0,0.0,0.0,637
638,1696200569169,-1.984375,0.052734375,-0.020507812,23.5,-98.625,18.375,0.0,0.0,0.0,638
639,1696200569209,-1.984375,-0.16308594,0.56152344,-65.40625,-13.65625,20.46875,0.0,0.0,0.0,639
640,1696200569249,-1.7675781,-0.3798828,0.5644531,-34.71875,-14.59375,60.9375,0.0,0.0,0.0,640
641,1696200569289,-1.3730469,-0.33007812,0.49414062,-39.90625,-6.71875,55.6875,0.0,0.0,0.0,641
642,1696200569329,-0.44335938,-0.2783203,0.19042969,-37.8125,40.21875,45.25,-57.875,-77.1875,-83.875,642
643,1696200569369,0.37890625,0.19921875,0.059570312,-12.375,52.625,35.53125,0.0,0.0,0.0,643
644,1696200569409,0.23242188,0.2890625,0.06640625,-10.4375,-22.625,-16.34375,0.0,0.0,0.0,644
645,1696200569449,-0.296875,0.051757812,0.028320312,-59.96875,-96.25,-58.28125,0.0,0.0,0.0,645
646,1696200569489,-0.53125,0.2265625,0.16308594,-24.46875,-45.71875,-51.75,0.0,0.0,0.0,646
647,1696200569529,-1.3623047,-0.20117188,0.10839844,76.625,-21.65625,4.9375,0.0,0.0,0.0,647
648,1696200569569,-1.984375,-0.8359375,0.12695312,25.53125,9.53125,85.6875,0.0,0.0,0.0,648
649,1696200569609,-1.5878906,0.14941406,0.7783203,35.28125,49.75,-23.90625,0.0,0.0,0.0,649
650,1696200569649,-1.0429688,-0.140625,0.4345703,27.65625,99.5,-56.03125,0.0,0.0,0.0,650
651,1696200569689,-1.6035156,-0.08496094,0.14648438,22.21875,119.15625,-26.0,0.0,0.0,0.0,651
652,1696200569729,-1.2773438,0.08691406,0.16992188,-18.96875,86.875,-31.25,0.0,0.0,0.0,652
653,1696200569769,-0.5888672,0.14648438,0.078125,-23.71875,16.3125,-6.09375,0.0,0.0,0.0,653
654,1696200569809,-0.16210938,0.1171875,-0.21777344,-43.3125,-17.9375,25.46875,0.0,0.0,0.0,654
655,1696200569849,-0.0107421875,-0.024414062,-0.053710938,12.40625,-19.65625,4.65625,-50.25,-82.4375,-92.875,655
656,1696200569889,-0.1015625,0.080078125,-0.15234375,54.65625,-29.59375,-37.03125,0.0,0.0,0.0,656
657,1696200569929,-0.7373047,0.16601562,-0.19335938,45.3125,-53.21875,-14.625,0.0,0.0,0.0,657
658,1696200569969,-1.984375,0.29785156,-0.2998047,64.90625,-107.15625,41.40625,0.0,0.0,0.0,658
659,1696200570009,-1.984375,0.27734375,0.41210938,-7.3125,-32.71875,20.5625,0.0,0.0,0.0,659
660,1696200570049,-1.7900391,0.07714844,0.5800781,-80.625,-44.96875,22.59375,0.0,0.0,0.0,660
661,1696200570089,-1.5117188,-0.56933594,0.6074219,-53.4375,-19.34375,48.46875,0.0,0.0,0.0,661
662,1696200570129,-0.70214844,-0.38671875,0.38085938,-34.78125,41.5,40.09375,0.0,0.0,0.0,662
663,1696200570169,-0.091796875,-0.087890625,-0.12695312,11.5,50.59375,39.8125,0.0,0.0,0.0,663
664,1696200570209,0.27441406,0.21582031,0.27441406,24.71875,24.0,9.53125,0.0,0.0,0.0,664
665,1696200570249,-0.018554688,0.19921875,0.03125,-31.25,-26.78125,-48.75,0.0,0.0,0.0,665
666,1696200570289,-0.59472656,0.29785156,0.123046875,-40.75,-80.375,-54.375,0.0,0.0,0.0,666
667,1696200570329,-1.3183594,0.2685547,-0.0859375,-0.65625,-35.15625,-42.90625,-58.0625,-79.1875,-81.625,667
668,1696200570369,-1.2988281,-0.234375,0.27246094,31.03125,32.84375,63.125,0.0,0.0,0.0,668
669,1696200570409,-1.6181641,0.41992188,0.44140625,36.21875,23.5,16.78125,0.0,0.0,0.0,669
670,1696200570449,-1.421875,-0.06738281,0.46679688,6.96875,83.625,-28.25,0.0,0.0,0.0,670
671,1696200570489,-1.4628906,-0.18847656,0.21191406,-1.625,114.875,-34.125,0.0,0.0,0.0,671
672,1696200570529,-1.3056641,0.061523438,0.13574219,-13.28125,95.96875,-26.3125,0.0,0.0,0.0,672
673,1696200570569,-0.7128906,-0.013671875,0.23535156,-28.96875,11.4375,0.375,0.0,0.0,0.0,673
674,1696200570609,-0.09863281,-0.21484375,-0.16113281,-38.0625,-15.6875,21.1875,0.0,0.0,0.0,674
675,1696200570649,0.09765625,-0.09082031,-0.14746094,66.0625,1.90625,-5.375,0.0,0.0,0.0,675
676,1696200570689,-0.15234375,0.18652344,-0.21972656,79.375,-11.46875,-51.875,0.0,0.0,0.0,676
677,1696200570729,-0.75683594,0.38378906,-0.37304688,56.65625,-58.59375,-32.40625,0.0,0.0,0.0,677
678,1696200570769,-1.984375,0.20898438,-0.34570312,66.46875,-97.71875,16.25,0.0,0.0,0.0,678
679,1696200570809,-1.984375,0.20605469,0.3232422,-7.625,-27.03125,15.09375,0.0,0.0,0.0,679
680,1696200570849,-1.9052734,-0.06542969,0.51953125,-52.59375,-34.28125,33.28125,-58.5,-79.75,-83.3125,680
681,1696200570889,-1.5996094,-0.39160156,0.6113281,-33.90625,-9.75,52.375,0.0,0.0,0.0,681
682,1696200570929,-0.75683594,-0.17773438,0.27929688,-34.78125,21.625,62.25,0.0,0.0,0.0,682
683,1696200570969,0.109375,-0.03515625,0.06347656,-20.6875,67.6875,63.96875,0.0,0.0,0.0,683
684,1696200571009,0.42773438,0.0126953125,0.18945312,-16.28125,47.96875,-2.96875,0.0,0.0,0.0,684
685,1696200571049,-0.095703125,0.10839844,0.16894531,-29.28125,-50.59375,-64.6875,0.0,0.0,0.0,685
686,1696200571089,-0.41601562,0.26171875,-0.32421875,-27.09375,-82.625,-77.375,0.0,0.0,0.0,686
687,1696200571129,-1.3701172,0.13671875,-0.076171875,5.1875,-55.65625,-25.4375,0.0,0.0,0.0,687
688,1696200571169,-1.984375,-0.35742188,0.1015625,6.5,-13.0625,60.375,0.0,0.0,0.0,688
689,1696200571209,-1.5820312,-0.15625,0.23046875,74.0,7.28125,6.53125,0.0,0.0,0.0,689
690,1696200571249,-1.5195312,0.2861328,0.48339844,68.8125,84.90625,-25.75,0.0,0.0,0.0,690
691,1696200571289,-1.7685547,0.038085938,0.30273438,1.46875,95.78125,-31.375,0.0,0.0,0.0,691
692,1696200571329,-1.2529297,-0.12597656,0.13476562,-58.40625,87.03125,-41.0625,-54.125,-82.3125,-88.125,692
693,1696200571369,-0.60839844,0.049804688,0.17871094,-29.84375,40.40625,-8.21875,0.0,0.0,0.0,693
694,1696200571409,-0.33789062,0.018554688,-0.19042969,-36.3125,-10.78125,27.34375,0.0,0.0,0.0,694
695,1696200571449,-0.041992188,-0.005859375,-0.17871094,-3.21875,0.0,12.53125,0.0,0.0,0.0,695
696,1696200571489,-0.11621094,0.16992188,-0.041015625,29.8125,-20.9375,-17.09375,0.0,0.0,0.0,696
697,1696200571529,-0.54003906,0.07324219,-0.16699219,-8.53125,-49.1875,-16.46875,0.0,0.0,0.0,697
698,1696200571569,-1.1533203,0.025390625,-0.48242188,32.96875,-92.46875,6.59375,0.0,0.0,0.0,698
699,1696200571609,-1.984375,0.10546875,0.09375,141.125,-63.90625,5.625,0.0,0.0,0.0,699
700,1696200571649,-1.984375,0.36523438,0.6113281,-23.125,12.59375,23.375,0.0,0.0,0.0,700
701,1696200571689,-1.734375,-0.4873047,0.55371094,-50.8125,-25.5,56.09375,0.0,0.0,0.0,701
702,1696200571729,-1.0664062,-0.40429688,0.44628906,-25.8125,9.84375,59.625,0.0,0.0,0.0,702
703,1696200571769,-0.22851562,-0.12597656,-0.022460938,-13.71875,34.5,67.9375,0.0,0.0,0.0,703
704,1696200571809,0.45996094,0.3642578,0.10839844,-7.375,71.71875,15.21875,0.0,0.0,0.0,704
705,1696200571849,0.18359375,0.24804688,0.095703125,-27.15625,-44.96875,-49.25,-58.9375,-78.25,-86.4375,705
706,1696200571889,-0.40039062,-0.033203125,-0.111328125,-70.3125,-82.28125,-84.59375,0.0,0.0,0.0,706
707,1696200571929,-0.58691406,0.1875,-0.46875,-56.375,-30.5,-65.25,0.0,0.0,0.0,707
708,1696200571969,-1.984375,0.29296875,-0.0859375,123.71875,-38.3125,49.6875,0.0,0.0,0.0,708
709,1696200572009,-1.4453125,-0.0859375,0.36816406,-11.46875,45.125,32.34375,0.0,0.0,0.0,709
710,1696200572049,-1.6132812,0.0068359375,0.73535156,-2.375,75.625,-40.15625,0.0,0.0,0.0,710
711,1696200572089,-1.6210938,-0.10449219,0.25195312,8.125,98.28125,-44.0625,0.0,0.0,0.0,711
712,1696200572129,-1.3388672,-0.13964844,0.115234375,-6.21875,95.46875,-35.75,0.0,0.0,0.0,712
713,1696200572169,-0.76953125,-0.123046875,0.17871094,-14.9375,50.125,-10.625,0.0,0.0,0.0,713
714,1696200572209,-0.234375,-0.07128906,-0.07324219,-13.09375,-9.8125,24.59375,0.0,0.0,0.0,714
715,1696200572249,-0.10449219,-0.026367188,-0.19628906,23.9375,-3.15625,20.03125,0.0,0.0,0.0,715
716,1696200572289,-0.045898438,0.111328125,-0.16992188,52.875,-19.09375,-18.96875,0.0,0.0,0.0,716
717,1696200572329,-0.4423828,0.3017578,-0.3310547,21.0625,-34.34375,-39.125,-55.5,-83.5,-89.4375,717
718,1696200572369,-1.4892578,-0.015625,-0.33789062,25.46875,-81.65625,-0.96875,0.0,0.0,0.0,718
719,1696200572409,-1.984375,0.29296875,-0.044921875,4.78125,-71.15625,6.28125,0.0,0.0,0.0,719
720,1696200572449,-1.984375,-0.12988281,0.4189453,-36.65625,20.09375,17.65625,0.0,0.0,0.0,720
721,1696200572489,-1.984375,-0.36132812,0.6328125,-21.71875,-13.0625,63.5,0.0,0.0,0.0,721
722,1696200572529,-1.2568359,-0.29003906,0.4765625,-33.4375,-16.84375,54.5,0.0,0.0,0.0,722
723,1696200572569,-0.27734375,-0.234375,0.14355469,-4.0625,14.46875,57.75,0.0,0.0,0.0,723
724,1696200572609,0.22070312,0.057617188,-0.052734375,9.96875,41.15625,37.0,0.0,0.0,0.0,724
725,1696200572649,0.1484375,0.3857422,0.13378906,18.15625,-16.46875,-32.21875,0.0,0.0,0.0,725
726,1696200572689,-0.109375,0.15136719,-0.040039062,-26.15625,-90.9375,-63.46875,0.0,0.0,0.0,726
727,1696200572729,-0.35546875,0.072265625,-0.07128906,-12.75,-56.21875,-59.4375,0.0,0.0,0.0,727
728,1696200572769,-1.2490234,0.09765625,-0.20117188,54.03125,-12.25,-25.9375,0.0,0.0,0.0,728
729,1696200572809,-1.6132812,-0.5253906,0.19921875,-14.75,-6.65625,43.46875,0.0,0.0,0.0,729
730,1696200572849,-1.4306641,0.087890625,0.5205078,38.84375,4.21875,-8.46875,-55.625,-79.3125,-82.875,730
731,1696200572889,-1.1630859,0.087890625,0.5371094,28.875,90.78125,-50.15625,0.0,0.0,0.0,731
732,1696200572929,-1.5791016,-0.09863281,0.34570312,-10.96875,113.40625,-23.96875,0.0,0.0,0.0,732
733,1696200572969,-1.3232422,-0.3955078,0.26953125,-67.625,92.78125,-29.21875,0.0,0.0,0.0,733
734,1696200573009,-0.6113281,0.06933594,0.25195312,13.0,51.40625,-7.375,0.0,0.0,0.0,734
735,1696200573049,-0.3359375,0.25878906,-0.16992188,-14.5,-0.53125,19.1875,0.0,0.0,0.0,735
736,1696200573089,-0.10546875,0.043945312,-0.19335938,8.8125,-2.6875,4.40625,0.0,0.0,0.0,736
737,1696200573129,-0.15820312,0.18066406,-0.19824219,53.3125,-19.65625,-24.65625,0.0,0.0,0.0,737
738,1696200573169,-0.5371094,0.20898438,-0.14648438,10.9375,-47.46875,-16.65625,0.0,0.0,0.0,738
739,1696200573209,-1.4248047,0.044921875,-0.29589844,25.40625,-86.1875,28.28125,0.0,0.0,0.0,739
740,1696200573249,-1.984375,0.13769531,0.13378906,63.625,-62.625,16.0625,0.0,0.0,0.0,740
741,1696200573289,-1.984375,0.23828125,0.69140625,-22.375,-21.71875,16.78125,0.0,0.0,0.0,741
742,1696200573329,-1.5185547,-0.36621094,0.5654297,-19.21875,-18.59375,57.03125,-57.125,-79.3125,-85.375,742
743,1696200573369,-0.96875,-0.3359375,0.26757812,-26.0,18.375,66.0,0.0,0.0,0.0,743
744,1696200573409,-0.07910156,0.061523438,-0.020507812,-23.0625,44.75,57.0625,0.0,0.0,0.0,744
745,1696200573449,0.4267578,0.3857422,0.1875,-24.71875,21.75,1.90625,0.0,0.0,0.0,745
746,1696200573489,-0.018554688,0.046875,0.25390625,-59.6875,-65.3125,-55.96875,0.0,0.0,0.0,746
747,1696200573529,-0.50390625,-0.099609375,-0.21289062,-66.5,-85.8125,-74.15625,0.0,0.0,0.0,747
748,1696200573569,-0.59375,-0.20410156,-0.29101562,-3.46875,-1.6875,-62.25,0.0,0.0,0.0,748
749,1696200573609,-1.984375,0.6455078,-0.21972656,84.65625,10.03125,91.4375,0.0,0.0,0.0,749
750,1696200573649,-1.6845703,0.265625,0.4814453,-6.03125,6.34375,40.21875,0.0,0.0,0.0,750
751,1696200573689,-0.9785156,-0.2734375,0.70214844,0.5625,55.125,-49.78125,0.0,0.0,0.0,751
752,1696200573729,-1.5166016,-0.22363281,0.18652344,56.03125,120.8125,-25.625,0.0,0.0,0.0,752
753,1696200573769,-1.6943359,0.041015625,0.15527344,13.5625,116.03125,-28.5,0.0,0.0,0.0,753
754,1696200573809,-0.8925781,0.20898438,0.26367188,-1.15625,60.375,-35.21875,0.0,0.0,0.0,754
755,1696200573849,-0.39453125,0.24707031,-0.091796875,-49.1875,-5.96875,15.15625,-50.875,-81.875,-94.125,755
756,1696200573889,-0.13476562,-0.103515625,-0.15039062,-46.5,-23.84375,18.4375,0.0,0.0,0.0,756
757,1696200573929,-0.05078125,-0.040039062,-0.13769531,23.5,-30.5,-19.875,0.0,0.0,0.0,757
758,1696200573969,-0.33789062,0.08105469,-0.24316406,30.65625,-31.71875,-35.15625,0.0,0.0,0.0,758
759,1696200574009,-1.3310547,0.171875,-0.29492188,66.71875,-71.15625,4.78125,0.0,0.0,0.0,759
760,1696200574049,-1.984375,0.053710938,0.16503906,48.34375,-54.5,19.46875,0.0,0.0,0.0,760
761,1696200574089,-1.984375,0.045898438,0.61328125,-36.3125,3.625,16.84375,0.0,0.0,0.0,761
762,1696200574129,-1.6894531,-0.3408203,0.60839844,-16.65625,-20.25,57.375,0.0,0.0,0.0,762
763,1696200574169,-1.1171875,-0.24414062,0.3935547,-17.9375,16.125,55.5625,0.0,0.0,0.0,763
764,1696200574209,-0.26464844,-0.17578125,0.056640625,-10.46875,47.75,54.6875,0.0,0.0,0.0,764
765,1696200574249,0.3955078,0.24023438,0.1953125,-8.59375,67.75,18.375,0.0,0.0,0.0,765
766,1696200574289,0.17285156,0.34179688,0.08105469,-9.09375,-48.6875,-41.125,0.0,0.0,0.0,766
767,1696200574329,-0.2841797,-0.140625,0.099609375,-47.90625,-95.28125,-73.21875,-57.875,-77.5,-90.9375,767
768,1696200574369,-0.38867188,0.033203125,-0.08300781,-38.4375,-39.0,-61.875,0.0,0.0,0.0,768
769,1696200574409,-1.984375,0.44140625,-0.375,115.3125,-62.5,13.75,0.0,0.0,0.0,769
770,1696200574449,-0.9921875,-0.043945312,0.06933594,-14.34375,35.03125,10.9375,0.0,0.0,0.0,770
771,1696200574489,-1.5039062,0.6464844,0.796875,-6.21875,68.3125,-52.71875,0.0,0.0,0.0,771
772,1696200574529,-1.2519531,-0.25195312,0.2548828,-8.53125,106.625,-61.5,0.0,0.0,0.0,772
773,1696200574569,-1.5898438,-0.21777344,0.1328125,13.75,117.0625,-23.0,0.0,0.0,0.0,773
774,1696200574609,-1.0117188,0.08203125,0.21191406,-20.25,82.09375,-26.125,0.0,0.0,0.0,774
775,1696200574649,-0.5673828,0.10644531,0.0859375,-31.71875,-4.875,-2.25,0.0,0.0,0.0,775
776,1696200574689,-0.13769531,-0.018554688,-0.25097656,-42.03125,-24.65625,4.40625,0.0,0.0,0.0,776
777,1696200574729,-0.043945312,-0.0009765625,-0.13867188,70.6875,-7.1875,-16.15625,0.0,0.0,0.0,777
778,1696200574769,-0.27929688,0.2783203,-0.2607422,67.59375,-23.125,-32.46875,0.0,0.0,0.0,778
779,1696200574809,-1.1757812,0.22949219,-0.40234375,46.78125,-61.34375,5.875,0.0,0.0,0.0,779
780,1696200574849,-1.984375,0.0234375,-0.15722656,29.3125,-95.15625,37.0625,-57.125,-82.3125,-92.75,780
781,1696200574889,-1.984375,-0.21191406,0.42578125,-56.4375,14.90625,7.28125,0.0,0.0,0.0,781
782,1696200574929,-1.984375,-0.28710938,0.53027344,-21.96875,8.96875,63.5,0.0,0.0,0.0,782
783,1696200574969,-1.3720703,-0.19921875,0.4609375,-36.1875,-9.625,60.9375,0.0,0.0,0.0,783
784,1696200575009,-0.5605469,-0.25195312,0.20996094,-37.78125,4.21875,54.4375,0.0,0.0,0.0,784
785,1696200575049,0.3017578,0.03515625,-0.09375,-19.8125,47.375,40.09375,0.0,0.0,0.0,785
786,1696200575089,0.33398438,0.2705078,0.060546875,11.0625,-17.03125,-21.34375,0.0,0.0,0.0,786
787,1696200575129,-0.10058594,0.16308594,0.16210938,-37.03125,-69.5625,-63.53125,0.0,0.0,0.0,787
788,1696200575169,-0.515625,-0.03125,0.15722656,-44.46875,-77.8125,-59.25,0.0,0.0,0.0,788
789,1696200575209,-1.7753906,0.08203125,-0.50097656,77.15625,-39.1875,-17.625,0.0,0.0,0.0,789
790,1696200575249,-0.98046875,-0.09765625,0.24804688,5.375,60.6875,33.625,0.0,0.0,0.0,790
791,1696200575289,-1.5927734,0.24511719,0.4267578,42.5,19.53125,-19.9375,0.0,0.0,0.0,791
792,1696200575329,-1.3349609,-0.06738281,0.42773438,25.96875,92.21875,-32.21875,-59.125,-79.1875,-87.9375,792
793,1696200575369,-1.7587891,-0.025390625,0.12890625,4.90625,111.28125,-35.625,0.0,0.0,0.0,793
794,1696200575409,-1.1875,0.07519531,0.09667969,-55.65625,93.34375,-54.9375,0.0,0.0,0.0,794
