,timestamp,accel_x,accel_y,accel_z,gyro_x,gyro_y,gyro_z
0,1697605965,-0.1652832,-0.897522,-0.02130127,21.625,21.1875,3.140625
1,1697606005,0.18383789,-1.3464966,-0.026184082,24.484375,20.859375,4.296875
2,1697606045,0.12548828,-2.0,0.29144287,3.734375,5.328125,10.296875
3,1697606085,-0.61083984,-1.616272,-0.38848877,-7.203125,-1.46875,-12.3125
4,1697606125,0.45874023,-1.3726196,-0.5147095,7.046875,-0.84375,-16.21875
5,1697606165,0.65625,-1.1321411,-0.50372314,-19.375,12.78125,7.671875
6,1697606205,0.1928711,-1.263977,-0.27960205,-1.53125,9.671875,0.1875
7,1697606245,-0.051757812,-1.2276001,0.059753418,-9.625,0.0625,-17.453125
8,1697606285,-0.026855469,-0.644104,-0.13433838,-30.6875,7.375,-1.90625
9,1697606325,0.08154297,-0.11480713,-0.19146729,-23.046875,3.4375,0.109375
10,1697606365,0.21484375,-0.22467041,-0.21295166,2.1875,-15.484375,-0.546875
11,1697606405,0.10644531,-0.57696533,-0.1194458,8.578125,-21.390625,6.484375
12,1697606445,-0.1159668,-0.7012329,0.0446167,1.921875,-21.390625,11.15625
13,1697606485,-0.3305664,-0.7449341,0.011657715,0.59375,-18.4375,3.15625
14,1697606525,-0.23828125,-0.9973755,-0.014709473,11.296875,-13.640625,-4.140625
15,1697606565,-0.068847656,-1.8433228,0.022888184,6.640625,0.859375,3.53125
16,1697606605,-0.40771484,-1.6384888,-0.15655518,-19.890625,-20.65625,5.34375
17,1697606645,-0.2265625,-1.6118774,-0.20123291,1.0,3.5625,-6.875
18,1697606685,0.97387695,-1.0791626,-0.08795166,-17.40625,20.125,1.5625
19,1697606725,0.7915039,-0.7996216,-0.16241455,-4.0,-40.28125,-10.390625
20,1697606765,-0.21166992,-1.3743286,-0.09185791,4.890625,-27.953125,-21.515625
21,1697606805,-0.018066406,-1.0344849,-0.046447754,-23.78125,-10.703125,-18.515625
22,1697606845,0.025390625,-0.50006104,0.07489014,-18.078125,2.203125,-5.203125
23,1697606885,-0.03564453,-0.3928833,0.14569092,-7.046875,7.078125,0.65625
24,1697606925,-0.041992188,-0.50128174,0.11077881,-0.65625,12.671875,-2.921875
25,1697606965,-0.018310547,-0.38336182,0.14910889,0.828125,12.953125,-1.25
26,1697607005,-0.19946289,-0.44415283,0.24822998,8.34375,11.671875,2.125
27,1697607045,-0.17602539,-0.80670166,-0.06451416,20.296875,21.234375,-1.921875
28,1697607085,0.3178711,-1.2559204,0.07611084,23.65625,18.65625,6.078125
29,1697607125,-0.17211914,-2.0,0.47113037,-3.90625,7.34375,19.15625
30,1697607165,-0.35302734,-1.6731567,-0.27227783,7.765625,-7.078125,-20.484375
31,1697607205,0.55444336,-1.3079224,-0.21636963,-4.5625,19.421875,-4.09375
32,1697607245,0.30908203,-0.91900635,-0.2876587,-10.78125,8.109375,9.15625
33,1697607285,0.13623047,-1.3318481,-0.25982666,6.4375,5.84375,-4.546875
34,1697607325,0.010253906,-1.3106079,0.0446167,-10.375,-6.34375,-4.8125
35,1697607365,-0.15332031,-0.63409424,0.0004272461,-23.84375,2.1875,-2.734375
36,1697607405,0.015136719,-0.1531372,-0.16192627,-11.9375,0.59375,-3.46875
37,1697607445,0.17358398,-0.27056885,-0.1651001,9.09375,-12.65625,0.21875
38,1697607485,0.057861328,-0.6626587,-0.019836426,13.59375,-21.796875,9.46875
39,1697607525,-0.22485352,-0.7346802,0.061950684,0.953125,-19.78125,8.46875
40,1697607565,-0.38867188,-0.756897,0.012390137,-0.4375,-13.03125,5.015625
41,1697607605,-0.21508789,-0.93829346,0.050476074,3.78125,-1.28125,-2.390625
42,1697607645,-0.19995117,-1.6504517,0.08270264,10.53125,8.5,1.71875
43,1697607685,-0.25927734,-1.7022095,-0.09527588,-11.921875,-5.546875,4.296875
44,1697607725,0.033447266,-1.7158813,-0.23028564,4.859375,2.421875,4.125
45,1697607765,0.9333496,-1.0820923,-0.003479004,-17.15625,-0.71875,11.0625
46,1697607805,0.40795898,-0.87994385,-0.117492676,-7.15625,-44.8125,-9.953125
47,1697607845,-0.22436523,-1.4295044,-0.023986816,7.828125,-19.875,-11.1875
48,1697607885,0.06713867,-0.94903564,0.109802246,-15.375,-9.640625,-8.5
49,1697607925,-0.0063476562,-0.47540283,0.04437256,-17.71875,-2.65625,-4.890625
50,1697607965,-0.12524414,-0.28448486,0.113220215,-5.5625,8.375,1.46875
51,1697608005,0.03515625,-0.39141846,0.06414795,4.015625,16.71875,-1.15625
52,1697608045,0.10913086,-0.44122314,0.20721436,6.109375,15.359375,1.3125
53,1697608085,-0.09887695,-0.58673096,0.17791748,8.734375,10.578125,-0.53125
54,1697608125,-0.16796875,-0.83599854,0.028259277,17.65625,15.890625,-5.3125
55,1697608165,0.111816406,-1.5698853,0.1395874,29.5625,20.375,3.640625
56,1697608205,-0.37182617,-2.0,0.19110107,-13.984375,11.390625,5.609375
57,1697608245,-0.15429688,-1.4431763,-0.35211182,11.171875,10.15625,-29.71875
58,1697608285,0.55126953,-1.2276001,-0.21051025,-10.59375,24.921875,2.328125
59,1697608325,0.3461914,-1.005188,-0.32452393,-9.859375,9.234375,8.796875
60,1697608365,0.05493164,-1.234436,-0.22906494,7.96875,5.703125,-1.84375
61,1697608405,0.0048828125,-1.2937622,0.04144287,-11.28125,0.65625,-9.96875
62,1697608445,-0.076416016,-0.70391846,-0.101623535,-29.65625,9.796875,0.984375
63,1697608485,-0.006591797,-0.16607666,-0.14312744,-13.5,2.578125,0.515625
64,1697608525,0.04321289,-0.2876587,-0.10772705,7.65625,-8.75,-2.515625
65,1697608565,-0.043701172,-0.6477661,-0.0049438477,13.828125,-10.140625,6.0
66,1697608605,-0.18115234,-0.7776489,0.04534912,0.515625,-7.5625,9.203125
67,1697608645,-0.28515625,-0.74176025,-0.0569458,-2.546875,-11.5,1.734375
68,1697608685,-0.21240234,-0.9505005,-0.019104004,12.03125,-3.484375,1.25
69,1697608725,-0.1953125,-1.7380981,0.018005371,11.734375,7.9375,2.3125
70,1697608765,-0.2668457,-1.5479126,-0.089660645,-28.96875,-11.390625,4.703125
71,1697608805,-0.29174805,-1.555481,-0.07110596,-6.765625,-3.234375,-4.84375
72,1697608845,0.9458008,-1.2376099,-0.12432861,-10.84375,4.296875,9.140625
73,1697608885,0.63305664,-0.81817627,-0.058410645,-5.0625,-33.25,-1.328125
74,1697608925,-0.57055664,-1.3389282,-0.089416504,3.0,-21.71875,-18.84375
75,1697608965,-0.0073242188,-1.0020142,0.0006713867,-4.1875,-3.84375,-8.890625
76,1697609005,0.1875,-0.59259033,0.059753418,-14.265625,2.953125,1.265625
77,1697609045,-0.029541016,-0.46002197,0.109313965,-2.828125,3.53125,9.46875
78,1697609085,-0.08325195,-0.5088501,0.113220215,1.59375,9.703125,3.421875
79,1697609125,0.010986328,-0.46661377,0.14666748,4.1875,10.109375,1.671875
80,1697609165,-0.08666992,-0.5359497,0.20306396,8.578125,10.65625,5.71875
81,1697609205,-0.20483398,-0.80059814,-0.062072754,18.71875,14.671875,0.40625
82,1697609245,0.28759766,-1.1746216,-0.108947754,34.875,13.359375,-1.546875
83,1697609285,0.37670898,-2.0,0.52874756,-7.765625,-2.296875,18.265625
84,1697609325,-1.1252441,-1.8035278,-0.31671143,0.65625,-28.453125,-14.03125
85,1697609365,0.31079102,-1.2373657,-0.47418213,16.03125,9.65625,-19.5
86,1697609405,0.56591797,-1.0960083,-0.16583252,-19.3125,28.4375,19.703125
87,1697609445,-0.055908203,-1.1152954,-0.35455322,-7.421875,13.578125,5.578125
88,1697609485,0.016601562,-1.1084595,-0.032043457,-5.671875,16.59375,-17.671875
89,1697609525,0.07421875,-1.0276489,-0.08087158,-13.6875,9.65625,-3.0625
90,1697609565,0.043701172,-0.48468018,-0.1272583,-26.3125,13.1875,8.21875
91,1697609605,-0.001953125,-0.25054932,-0.094055176,-7.59375,0.78125,0.4375
92,1697609645,-0.03881836,-0.50494385,-0.018615723,5.40625,-4.078125,2.6875
93,1697609685,-0.13842773,-0.694397,0.016784668,0.75,-0.25,9.375
94,1697609725,-0.25,-0.6409302,-0.042053223,-5.796875,-6.5,4.0625
95,1697609765,-0.16918945,-0.8340454,-0.0635376,12.28125,-5.640625,-0.515625
96,1697609805,-0.13720703,-1.3804321,0.018493652,21.453125,1.5625,9.171875
97,1697609845,-0.18847656,-1.7654419,-0.0029907227,-18.15625,-8.359375,8.609375
98,1697609885,-0.26220703,-1.6621704,0.1161499,-8.625,-0.734375,-3.140625
99,1697609925,0.6296387,-1.491272,-0.066711426,6.078125,10.015625,1.171875
100,1697609965,0.90063477,-0.95684814,0.00970459,-16.21875,-16.53125,-3.78125
101,1697610005,-0.09423828,-1.0820923,-0.15362549,5.515625,-41.40625,-22.171875
102,1697610045,-0.13842773,-1.2637329,-0.07159424,-6.6875,-10.796875,-12.203125
103,1697610085,0.1171875,-0.6536255,0.040222168,-18.59375,-0.71875,-6.796875
104,1697610125,-0.005859375,-0.35308838,0.10296631,-6.375,2.671875,5.609375
105,1697610165,-0.096191406,-0.43463135,0.18231201,0.6875,9.828125,5.5
106,1697610205,-0.014160156,-0.49542236,0.09954834,2.21875,15.078125,0.78125
107,1697610245,0.06323242,-0.5093384,0.17401123,3.75,11.84375,0.71875
108,1697610285,-0.15112305,-0.71466064,0.13153076,13.640625,8.609375,0.34375
109,1697610325,-0.084228516,-1.0012817,-0.03277588,19.59375,8.125,-0.46875
110,1697610365,0.38012695,-1.7044067,0.2772827,23.78125,-0.859375,12.0625
111,1697610405,-0.81396484,-1.8342896,0.3139038,-16.359375,5.359375,1.84375
112,1697610445,-0.25732422,-1.3926392,-0.40948486,14.34375,14.484375,-32.53125
113,1697610485,0.6621094,-1.154602,-0.36431885,1.5,22.21875,1.34375
114,1697610525,0.4970703,-1.1838989,-0.16070557,-9.515625,16.34375,5.328125
115,1697610565,-0.18017578,-1.2922974,-0.20904541,-8.109375,10.078125,-3.5625
116,1697610605,0.020996094,-1.1240845,0.03265381,-10.546875,10.921875,-7.828125
117,1697610645,0.048828125,-0.6646118,-0.074279785,-9.859375,3.21875,1.1875
118,1697610685,0.05859375,-0.2703247,-0.14801025,-9.4375,0.453125,5.640625
119,1697610725,0.10058594,-0.31134033,-0.12921143,7.296875,-6.359375,5.328125
120,1697610765,0.043701172,-0.61920166,-0.008605957,12.28125,-11.71875,11.234375
121,1697610805,-0.17236328,-0.7012329,0.066101074,4.59375,-14.453125,11.90625
122,1697610845,-0.30126953,-0.7720337,-0.028381348,5.453125,-17.40625,6.0625
123,1697610885,-0.2084961,-1.0420532,-0.0491333,15.453125,-11.8125,2.875
124,1697610925,-0.17163086,-1.7271118,0.040222168,8.609375,12.09375,8.625
125,1697610965,-0.38134766,-1.6890259,-0.02154541,-13.234375,-4.546875,7.859375
126,1697611005,0.115722656,-1.7166138,-0.2468872,14.390625,17.40625,5.3125
127,1697611045,1.0253906,-1.1912231,-0.049865723,-17.21875,10.15625,8.09375
128,1697611085,0.4025879,-0.72979736,-0.29083252,-0.671875,-46.234375,-15.765625
129,1697611125,-0.18823242,-1.2610474,-0.10284424,5.796875,-19.453125,-15.5
130,1697611165,0.11987305,-1.0200806,0.042419434,-14.234375,-14.265625,-14.234375
131,1697611205,0.09350586,-0.49908447,0.015319824,-14.625,-16.40625,-3.59375
132,1697611245,-0.035888672,-0.333313,0.098083496,-6.171875,-5.671875,0.140625
133,1697611285,-0.042236328,-0.43463135,0.10736084,4.84375,-0.109375,-2.25
134,1697611325,0.03955078,-0.50909424,0.13421631,8.65625,3.015625,-1.1875
135,1697611365,-0.11645508,-0.6067505,0.22650146,11.3125,5.515625,1.6875
136,1697611405,-0.25732422,-0.866272,0.04827881,18.953125,17.328125,-2.125
137,1697611445,0.22363281,-1.2346802,-0.062561035,28.9375,22.765625,-3.421875
138,1697611485,0.40722656,-2.0,0.27166748,12.71875,-4.390625,11.25
139,1697611525,-0.88134766,-1.7354126,-0.26763916,-13.5625,-6.65625,-9.328125
140,1697611565,0.088378906,-1.3545532,-0.4763794,14.125,12.96875,-20.453125
141,1697611605,0.55493164,-1.0376587,-0.37774658,-20.015625,23.140625,9.421875
142,1697611645,0.053222656,-1.1231079,-0.3977661,1.359375,18.265625,3.484375
143,1697611685,-0.068603516,-1.3015747,-0.12359619,-4.5,15.4375,-12.125
144,1697611725,0.100097656,-0.9011841,-0.085998535,-21.265625,13.015625,-8.375
145,1697611765,0.072021484,-0.40045166,-0.1741333,-25.453125,6.203125,3.015625
146,1697611805,0.021484375,-0.24615479,-0.12872314,-4.453125,-3.96875,1.4375
147,1697611845,-0.017089844,-0.53204346,-0.07208252,8.03125,-10.765625,0.96875
148,1697611885,-0.13598633,-0.7127075,-0.008361816,2.171875,-14.296875,7.328125
149,1697611925,-0.32470703,-0.69488525,-0.0095825195,-4.875,-15.796875,6.25
150,1697611965,-0.25512695,-0.88897705,-0.01373291,3.796875,-9.09375,2.609375
151,1697612005,-0.22290039,-1.3064575,0.023620605,11.5625,2.765625,-0.546875
152,1697612045,-0.22509766,-1.6499634,0.031921387,-19.796875,0.25,4.34375
153,1697612085,-0.48608398,-1.5823364,0.105407715,-14.203125,-1.9375,-8.03125
154,1697612125,0.38134766,-1.420227,-0.29205322,1.046875,7.453125,-0.359375
155,1697612165,0.95703125,-0.9837036,-0.04034424,-6.90625,-7.109375,1.046875
156,1697612205,0.064941406,-1.2329712,-0.1531372,4.25,-39.109375,-17.53125
157,1697612245,-0.25195312,-1.3535767,-0.0869751,-3.828125,-22.546875,-13.125
158,1697612285,-0.021240234,-0.63726807,-0.04937744,-24.265625,-8.46875,-10.6875
159,1697612325,-0.037109375,-0.3189087,0.07342529,-8.640625,5.15625,6.265625
160,1697612365,-0.1184082,-0.47296143,0.15423584,5.28125,11.265625,8.265625
161,1697612405,-0.064208984,-0.57037354,0.073913574,6.1875,16.359375,0.96875
162,1697612445,0.0390625,-0.57232666,0.16156006,9.1875,14.6875,1.96875
163,1697612485,-0.17089844,-0.78009033,0.15863037,9.609375,11.421875,2.265625
164,1697612525,-0.20654297,-1.0193481,-0.03326416,17.609375,18.84375,-4.078125
165,1697612565,0.32861328,-1.467102,0.06048584,26.53125,9.90625,-0.953125
166,1697612605,-0.24438477,-1.9092407,0.53289795,-32.328125,4.09375,17.1875
167,1697612645,-0.8339844,-1.2642212,-0.41607666,-1.828125,6.859375,-24.09375
168,1697612685,0.64941406,-1.0835571,-0.4434204,7.578125,31.09375,-10.828125
169,1697612725,0.6269531,-1.2012329,-0.31280518,-11.21875,13.46875,26.84375
170,1697612765,-0.14892578,-1.3345337,-0.19366455,-10.625,-0.609375,3.921875
171,1697612805,-0.064453125,-1.0322876,-0.05328369,-13.140625,4.59375,-4.96875
172,1697612845,-0.075683594,-0.659729,-0.0178833,-12.265625,7.0625,3.921875
173,1697612885,0.021240234,-0.44610596,-0.15362549,-14.921875,4.625,1.046875
174,1697612925,0.076416016,-0.38165283,-0.073791504,-3.109375,-1.375,-1.9375
175,1697612965,-0.005126953,-0.63653564,0.0026245117,9.03125,-14.078125,8.796875
176,1697613005,-0.18823242,-0.77667236,0.077819824,0.921875,-16.359375,11.71875
177,1697613045,-0.27441406,-0.7246704,-0.0032348633,-4.5,-19.359375,1.34375
178,1697613085,-0.12573242,-0.82403564,0.029968262,10.09375,-11.84375,2.421875
179,1697613125,-0.18286133,-1.65094,0.06390381,16.25,1.53125,17.359375
180,1697613165,-0.40185547,-1.6524048,0.06439209,-28.78125,-11.140625,6.125
181,1697613205,-0.17407227,-1.5769653,0.013122559,-9.1875,-8.0,-9.09375
182,1697613245,0.6604004,-1.2705688,-0.10821533,9.703125,5.703125,-0.546875
183,1697613285,0.8041992,-0.92266846,-0.018615723,-4.90625,-16.21875,1.40625
184,1697613325,-0.21313477,-1.319397,-0.08453369,-7.203125,-31.828125,-13.765625
185,1697613365,-0.08569336,-1.0076294,-0.09625244,-2.609375,-9.46875,-10.5
186,1697613405,0.025390625,-0.61846924,0.04144287,-9.59375,7.421875,-2.625
187,1697613445,-0.024902344,-0.5112915,0.09320068,-3.953125,13.203125,7.234375
188,1697613485,-0.013671875,-0.58062744,0.12249756,-0.21875,15.984375,5.296875
189,1697613525,0.017822266,-0.51031494,0.101257324,2.53125,15.6875,3.859375
190,1697613565,-0.08081055,-0.5942993,0.20501709,4.171875,17.984375,5.828125
191,1697613605,-0.31079102,-0.7095337,0.078308105,4.015625,26.5625,-0.53125
192,1697613645,0.1418457,-0.8508911,-0.16925049,18.484375,30.15625,-3.9375
193,1697613685,0.59106445,-1.5549927,0.22283936,29.0,8.0,19.203125
194,1697613725,-0.829834,-2.0,0.06829834,-22.125,5.59375,-4.453125
195,1697613765,0.008056641,-1.4810181,-0.3731079,11.96875,10.578125,-28.125
196,1697613805,0.45385742,-1.1963501,-0.1687622,-9.125,19.375,3.296875
197,1697613845,0.0031738281,-0.95269775,-0.27130127,-17.296875,21.03125,-3.109375
198,1697613885,0.08886719,-0.97613525,-0.21002197,1.125,27.890625,-5.359375
199,1697613925,0.18701172,-1.1172485,-0.046447754,3.15625,12.25,1.359375
200,1697613965,0.009521484,-0.7661743,-0.046203613,-20.359375,5.65625,2.265625
201,1697614005,-0.059570312,-0.35723877,-0.09625244,-12.765625,5.65625,2.984375
202,1697614045,0.056640625,-0.43585205,-0.077941895,6.609375,1.28125,4.171875
203,1697614085,0.017333984,-0.73394775,0.021911621,9.203125,-4.421875,13.375
204,1697614125,-0.27856445,-0.7925415,0.051452637,-3.828125,-6.625,9.375
205,1697614165,-0.26464844,-0.7307739,-0.08428955,-2.140625,-7.734375,-1.484375
206,1697614205,-0.1237793,-0.95440674,-0.02520752,15.515625,0.484375,-1.265625
207,1697614245,-0.15698242,-1.7151489,0.04437256,11.828125,11.109375,9.375
208,1697614285,-0.39892578,-1.6511841,-0.028625488,-9.671875,-3.1875,0.25
209,1697614325,0.052246094,-1.5366821,-0.23760986,8.3125,10.15625,3.546875
210,1697614365,0.86083984,-1.1299438,0.05657959,-8.484375,11.84375,9.125
211,1697614405,0.32739258,-0.94659424,-0.1182251,-0.9375,-33.65625,-13.84375
212,1697614445,-0.009033203,-1.288147,-0.027160645,11.0,-17.28125,-9.28125
213,1697614485,0.14013672,-1.0281372,0.054138184,-11.671875,-18.171875,-12.390625
214,1697614525,0.021240234,-0.5274048,0.051696777,-19.828125,-10.96875,-8.671875
215,1697614565,-0.09057617,-0.3086548,0.11517334,-2.859375,1.671875,0.921875
216,1697614605,-0.009521484,-0.5195923,0.19500732,9.15625,9.828125,-2.1875
217,1697614645,0.09277344,-0.6499634,0.11639404,5.265625,8.15625,-1.3125
218,1697614685,0.044189453,-0.5264282,0.19696045,-3.46875,5.75,-2.671875
219,1697614725,-0.3256836,-0.7564087,0.070251465,12.25,12.71875,-3.109375
220,1697614765,0.09326172,-1.1795044,-0.12213135,36.640625,14.703125,-6.15625
221,1697614805,0.36157227,-2.0,0.41986084,11.453125,-0.5,4.53125
222,1697614845,-0.9333496,-1.6616821,-0.124572754,-18.328125,-4.125,-15.90625
223,1697614885,0.095947266,-1.2810669,-0.3574829,19.875,8.796875,-25.8125
224,1697614925,0.4958496,-1.0750122,-0.23345947,-15.4375,13.671875,9.828125
225,1697614965,0.1821289,-1.1404419,-0.3423462,-4.0,7.203125,-1.6875
226,1697615005,0.0715332,-1.2752075,0.015808105,-2.078125,-2.65625,-2.78125
227,1697615045,-0.12475586,-0.94073486,0.0048217773,-19.578125,-2.71875,-3.5
228,1697615085,-0.1081543,-0.42999268,-0.07965088,-18.0,0.515625,4.90625
229,1697615125,-0.010986328,-0.36260986,-0.12237549,-0.34375,-2.984375,2.515625
230,1697615165,0.010498047,-0.6001587,-0.04547119,8.078125,-8.328125,3.03125
231,1697615205,-0.07055664,-0.76641846,0.04119873,-0.65625,-9.828125,8.65625
232,1697615245,-0.31640625,-0.68170166,0.028259277,-5.65625,-11.203125,4.375
233,1697615285,-0.20288086,-0.7888794,-0.047912598,5.984375,-8.21875,-1.109375
234,1697615325,-0.15209961,-1.2092896,-0.008117676,20.765625,-4.796875,0.4375
235,1697615365,-0.18359375,-1.7593384,0.04534912,-7.1875,-1.9375,9.109375
236,1697615405,-0.5390625,-1.4910278,0.0927124,-8.375,-11.046875,-5.0625
237,1697615445,-0.04321289,-1.354065,-0.13067627,1.4375,-8.265625,-6.234375
238,1697615485,1.0422363,-1.1394653,0.11126709,-9.328125,0.828125,1.6875
239,1697615525,-0.12182617,-0.9365845,-0.0095825195,9.734375,-6.578125,-2.390625
240,1697615565,-0.15893555,-1.5879517,0.051208496,16.53125,8.640625,2.25
241,1697615605,-0.27490234,-1.5464478,-0.04107666,-21.5625,-10.40625,4.4375
242,1697615645,-0.20019531,-1.5576782,-0.061828613,-8.203125,-2.03125,-5.84375
243,1697615685,0.58691406,-1.2088013,-0.09893799,-6.328125,6.3125,-3.8125
244,1697615725,0.75512695,-0.8311157,-0.11773682,-0.734375,-22.625,-5.109375
245,1697615765,-0.28808594,-1.3511353,-0.105285645,7.03125,-26.625,-14.390625
246,1697615805,-0.17773438,-1.1621704,-0.0010375977,-10.5,3.078125,-12.0625
247,1697615845,0.045166016,-0.6358032,0.0026245117,-17.203125,12.984375,-5.703125
248,1697615885,-0.03466797,-0.46368408,0.09954834,-4.5625,17.890625,5.6875
249,1697615925,-0.10083008,-0.5911255,0.12200928,3.046875,23.328125,3.34375
250,1697615965,-0.020019531,-0.630188,0.09686279,2.6875,27.328125,0.828125
251,1697616005,0.032226562,-0.569397,0.15765381,4.921875,22.671875,2.921875
252,1697616045,-0.18383789,-0.6868286,0.13934326,5.140625,21.859375,1.296875
253,1697616085,-0.13549805,-0.94781494,-0.11529541,22.359375,25.265625,-0.796875
254,1697616125,0.5046387,-1.4431763,-0.02911377,27.140625,10.875,3.859375
255,1697616165,-0.23071289,-1.909729,0.4484253,-17.171875,-4.25,1.9375
256,1697616205,-0.88427734,-1.2791138,-0.1494751,-4.125,3.765625,-25.046875
257,1697616245,0.2734375,-1.1624146,-0.3015747,15.703125,25.765625,-10.078125
258,1697616285,0.60058594,-1.0054321,-0.34381104,-4.453125,21.71875,11.125
259,1697616325,0.14892578,-1.1084595,-0.28961182,3.515625,12.265625,5.5
260,1697616365,-0.06323242,-1.3755493,-0.012756348,-2.328125,7.953125,-8.140625
261,1697616405,-0.012451172,-1.020813,-0.051330566,-20.96875,8.296875,-2.109375
262,1697616445,0.0014648438,-0.46124268,-0.116760254,-20.203125,8.125,6.84375
263,1697616485,-0.053466797,-0.33184814,-0.10211182,-2.625,-0.6875,2.25
264,1697616525,-0.020019531,-0.5913696,-0.008605957,6.484375,-0.5,3.375
265,1697616565,-0.11328125,-0.7324829,-0.006652832,2.734375,-2.46875,6.84375
266,1697616605,-0.29003906,-0.7612915,-0.0044555664,0.359375,-4.796875,4.859375
267,1697616645,-0.2590332,-0.85894775,-0.023742676,8.328125,-7.59375,2.34375
268,1697616685,-0.18945312,-1.1687622,-0.012512207,14.421875,2.171875,3.71875
269,1697616725,-0.11279297,-1.741272,0.027770996,-4.921875,7.578125,5.6875
270,1697616765,-0.4506836,-1.388977,-0.00982666,-14.53125,-12.984375,-0.296875
271,1697616805,-0.1940918,-1.2979126,-0.07110596,-5.765625,-4.96875,-5.078125
272,1697616845,0.7751465,-1.1047974,-0.1375122,-4.15625,0.46875,-4.75
273,1697616885,0.6904297,-0.86724854,0.01751709,0.109375,-29.09375,0.25
274,1697616925,-0.33447266,-1.390686,-0.0791626,2.953125,-32.296875,-15.328125
275,1697616965,-0.15893555,-1.0606079,-0.0029907227,-12.984375,-9.078125,-13.171875
276,1697617005,0.055908203,-0.57354736,0.036315918,-15.390625,6.09375,-2.703125
277,1697617045,0.0031738281,-0.4505005,0.14593506,-1.203125,10.390625,8.421875
278,1697617085,-0.07714844,-0.62457275,0.1293335,5.5625,10.078125,4.828125
279,1697617125,-0.06665039,-0.5750122,0.09588623,4.671875,16.59375,2.515625
280,1697617165,-0.032714844,-0.5432739,0.19573975,6.796875,16.296875,3.953125
281,1697617205,-0.22558594,-0.7449341,0.07879639,11.328125,16.078125,-0.125
282,1697617245,-0.075927734,-1.0181274,-0.1506958,26.203125,15.84375,-9.328125
283,1697617285,0.5883789,-1.6838989,0.20428467,19.546875,-0.734375,2.828125
284,1697617325,-0.7397461,-1.7498169,0.35784912,-32.1875,1.78125,3.75
285,1697617365,-0.62939453,-1.2815552,-0.23248291,11.203125,8.734375,-36.5
286,1697617405,0.5600586,-1.1985474,-0.42608643,8.171875,19.8125,-15.046875
287,1697617445,0.86450195,-1.0667114,-0.34259033,-14.5625,6.28125,9.203125
288,1697617485,-0.09375,-1.3352661,-0.1531372,0.34375,-11.5,4.875
289,1697617525,-0.23022461,-1.1553345,0.054626465,-18.5,-7.421875,-12.0625
290,1697617565,0.032226562,-0.725647,-0.055236816,-18.046875,-10.234375,-3.390625
291,1697617605,0.08081055,-0.4265747,-0.14654541,-15.34375,-12.53125,2.796875
292,1697617645,-0.06640625,-0.45465088,-0.0725708,-0.28125,-19.515625,1.78125
293,1697617685,-0.13598633,-0.62164307,0.0021362305,3.546875,-18.84375,5.0625
294,1697617725,-0.20019531,-0.659729,0.14593506,-3.671875,-16.515625,8.21875
295,1697617765,-0.34301758,-0.73028564,0.01751709,-4.25,-19.765625,6.0625
296,1697617805,-0.22143555,-0.85943604,0.042175293,5.578125,-12.21875,2.890625
297,1697617845,-0.19946289,-1.5366821,0.05218506,13.828125,1.4375,4.578125
298,1697617885,-0.38256836,-1.5632935,0.06756592,-19.8125,-10.734375,8.59375
299,1697617925,-0.30029297,-1.6067505,0.11419678,1.015625,-4.09375,-7.0
300,1697617965,0.61376953,-1.367981,-0.051574707,8.4375,5.828125,0.828125
301,1697618005,0.83374023,-0.940979,-0.007385254,-1.578125,-27.21875,1.96875
302,1697618045,-0.23706055,-1.1643677,-0.06304932,5.90625,-44.484375,-8.9375
303,1697618085,-0.22021484,-1.1160278,0.03704834,-1.6875,-14.03125,-11.859375
304,1697618125,0.115722656,-0.6643677,0.08807373,-8.75,-7.203125,-1.109375
305,1697618165,-0.0009765625,-0.41827393,0.12322998,-3.0,-2.703125,12.21875
306,1697618205,-0.11669922,-0.54156494,0.18328857,5.40625,1.921875,9.28125
307,1697618245,-0.017333984,-0.5652466,0.12249756,4.578125,6.4375,4.515625
308,1697618285,-0.02709961,-0.5161743,0.21038818,5.171875,6.046875,4.03125
309,1697618325,-0.21411133,-0.6777954,0.0927124,11.15625,11.484375,-2.515625
310,1697618365,0.072265625,-0.9495239,-0.11529541,26.921875,17.25,-5.75
311,1697618405,0.54589844,-1.977356,0.3270874,23.75,-8.296875,12.125
312,1697618445,-1.182373,-1.7583618,0.16571045,-26.75,-2.734375,-2.734375
313,1697618485,-0.18432617,-0.99420166,-0.43292236,19.5,24.671875,-36.46875
314,1697618525,1.1098633,-1.258606,-0.45391846,23.28125,11.96875,17.8125
315,1697618565,0.7871094,-1.3259888,-0.22174072,-8.390625,-6.640625,12.328125
316,1697618605,-0.16918945,-1.4099731,-0.035949707,-9.40625,-12.4375,-4.765625
317,1697618645,-0.09057617,-1.0220337,0.02166748,-16.46875,-15.1875,-12.203125
318,1697618685,0.12695312,-0.44488525,-0.18243408,-23.453125,-19.125,-3.25
319,1697618725,0.23095703,-0.14678955,-0.17462158,-4.109375,-29.9375,-1.421875
320,1697618765,-0.034423828,-0.5628052,-0.09454346,12.65625,-34.875,0.375
321,1697618805,-0.19824219,-0.8394165,0.019714355,5.75,-29.0625,2.71875
322,1697618845,-0.25805664,-0.7444458,0.08465576,-1.71875,-25.15625,3.8125
323,1697618885,-0.33374023,-0.7437134,0.0028686523,0.765625,-21.71875,0.671875
324,1697618925,-0.1940918,-0.92926025,0.09710693,9.875,-14.84375,-3.109375
325,1697618965,-0.21142578,-1.5859985,0.07122803,6.234375,7.390625,1.515625
326,1697619005,-0.3642578,-1.6528931,-0.042541504,-1.0625,-6.328125,1.875
327,1697619045,0.5004883,-1.9163208,-0.18218994,10.453125,19.96875,10.34375
328,1697619085,1.0786133,-1.185852,-0.06890869,-16.28125,-25.46875,6.484375
329,1697619125,0.1928711,-0.7449341,-0.1716919,-4.359375,-46.671875,-20.375
330,1697619165,-0.2993164,-1.4841919,0.029724121,5.234375,-26.9375,-15.28125
331,1697619205,0.20874023,-1.0806274,0.1383667,-23.375,-26.96875,-12.921875
332,1697619245,0.059570312,-0.4072876,0.0016479492,-20.828125,-25.484375,-5.015625
333,1697619285,-0.083740234,-0.19561768,0.097351074,-10.296875,-2.6875,3.59375
334,1697619325,0.016113281,-0.40167236,0.12982178,6.34375,-3.859375,-1.421875
335,1697619365,-0.06616211,-0.5281372,0.19378662,7.796875,-0.75,-0.6875
336,1697619405,-0.24243164,-0.65753174,0.20599365,5.828125,8.28125,-1.984375
337,1697619445,-0.1430664,-0.84942627,0.05218506,10.125,21.046875,-6.34375
338,1697619485,0.25805664,-1.2598267,0.11932373,20.625,16.390625,-3.53125
339,1697619525,-0.018310547,-2.0,0.4557495,-6.890625,-2.125,7.0625
340,1697619565,-0.55566406,-1.5149536,-0.34820557,-2.234375,-2.796875,-16.890625
341,1697619605,0.66625977,-1.2217407,-0.2288208,7.796875,11.390625,0.359375
342,1697619645,0.2626953,-1.0906372,-0.41778564,-6.046875,-2.640625,12.0
343,1697619685,0.048828125,-1.4424438,-0.2432251,5.234375,8.875,4.0
344,1697619725,0.052001953,-1.1902466,0.035827637,-12.15625,-6.0,-0.375
345,1697619765,-0.06640625,-0.7251587,-0.027893066,-20.1875,-1.234375,0.21875
346,1697619805,-0.021484375,-0.40411377,-0.08526611,-11.109375,-2.8125,-0.296875
347,1697619845,0.09838867,-0.36627197,-0.10772705,-4.5625,-3.46875,-0.953125
348,1697619885,-0.06689453,-0.64068604,0.012145996,1.59375,-8.453125,6.96875
349,1697619925,-0.28588867,-0.6856079,0.07928467,-7.671875,-5.734375,6.328125
350,1697619965,-0.21948242,-0.6616821,-0.047912598,-5.828125,-7.8125,-0.71875
351,1697620005,-0.013671875,-0.9053345,-0.011291504,5.421875,-0.53125,-0.71875
352,1697620045,-0.14038086,-1.6189575,0.10101318,8.40625,4.53125,8.40625
353,1697620085,-0.4243164,-1.6445923,0.026794434,-18.703125,-11.875,1.546875
354,1697620125,-0.2553711,-1.5947876,-0.17974854,-5.75,-4.0625,-1.09375
355,1697620165,0.62768555,-1.147522,0.04901123,2.546875,15.875,9.015625
356,1697620205,0.58691406,-0.8250122,-0.13360596,-3.96875,-24.21875,-0.5
357,1697620245,-0.16992188,-1.2400513,-0.051574707,4.25,-20.15625,-12.046875
358,1697620285,0.071777344,-1.2005005,0.039978027,-0.828125,-6.375,-2.984375
359,1697620325,0.047851562,-0.72735596,0.06512451,-14.0,-4.3125,-2.890625
360,1697620365,-0.07128906,-0.48150635,0.11273193,-7.90625,-2.03125,1.75
361,1697620405,-0.015625,-0.44659424,0.0836792,-1.5625,6.421875,-0.140625
362,1697620445,0.030517578,-0.5132446,0.14178467,5.90625,7.3125,2.453125
363,1697620485,-0.038330078,-0.614563,0.21917725,6.09375,7.1875,2.28125
364,1697620525,-0.20239258,-0.6956177,0.097595215,7.625,12.125,-0.703125
365,1697620565,0.052734375,-0.9246216,-0.02935791,24.015625,17.328125,-6.609375
366,1697620605,0.39794922,-1.7068481,0.21429443,24.875,3.984375,5.265625
367,1697620645,-0.72387695,-1.9072876,-0.09112549,-16.46875,-8.53125,-1.21875
368,1697620685,-0.1586914,-1.2434692,-0.4590454,9.28125,10.0625,-30.703125
369,1697620725,0.7104492,-1.2615356,-0.18414307,-2.9375,32.015625,13.71875
370,1697620765,0.09863281,-1.1692505,-0.2288208,-9.984375,11.53125,3.890625
371,1697620805,-0.15551758,-1.1397095,-0.15777588,-4.671875,15.125,-10.875
372,1697620845,0.0859375,-1.0610962,-0.06402588,-6.421875,11.640625,-5.96875
373,1697620885,0.044433594,-0.62945557,-0.09527588,-22.109375,9.671875,4.1875
374,1697620925,0.004638672,-0.25494385,-0.14093018,-6.875,4.953125,1.21875
375,1697620965,0.056884766,-0.45196533,-0.086242676,8.640625,-1.203125,3.34375
376,1697621005,-0.099853516,-0.72662354,0.040222168,7.53125,-4.6875,9.890625
377,1697621045,-0.32202148,-0.7346802,0.039733887,-3.328125,-6.625,6.375
378,1697621085,-0.28955078,-0.708313,-0.070373535,0.0,-4.359375,-1.21875
379,1697621125,-0.15332031,-1.0088501,-0.066223145,18.3125,-0.515625,1.109375
380,1697621165,-0.140625,-1.8840942,0.04534912,-2.921875,0.796875,3.515625
381,1697621205,-0.48461914,-1.666565,0.14154053,-7.953125,-1.1875,-7.375
382,1697621245,0.12426758,-1.5401001,-0.27301025,9.890625,-4.34375,2.3125
383,1697621285,1.0168457,-1.133606,0.0026245117,-9.296875,-4.203125,14.640625
384,1697621325,0.044189453,-0.93414307,-0.07183838,-4.28125,-35.3125,-12.640625
385,1697621365,-0.2121582,-1.2976685,0.005065918,-0.328125,-19.921875,-14.53125
386,1697621405,0.16235352,-0.9680786,0.07196045,-12.5625,-13.375,-6.6875
387,1697621445,-0.028320312,-0.5437622,0.11151123,-17.453125,-5.984375,-0.53125
388,1697621485,-0.16992188,-0.37335205,0.112976074,-7.109375,5.96875,2.515625
389,1697621525,-0.08325195,-0.43023682,0.11663818,7.09375,12.875,-0.296875
390,1697621565,-0.016357422,-0.46588135,0.1918335,10.21875,15.296875,4.328125
391,1697621605,-0.23266602,-0.61431885,0.19110107,10.5,20.125,2.6875
392,1697621645,-0.12963867,-0.82696533,-0.09088135,18.296875,22.84375,-7.671875
393,1697621685,0.3330078,-1.3391724,0.082458496,27.5,15.46875,-3.09375
394,1697621725,-0.15576172,-2.0,0.15814209,-4.515625,5.09375,3.53125
395,1697621765,-0.2998047,-1.5527954,-0.3899536,12.4375,-12.375,-18.296875
396,1697621805,0.60913086,-1.3401489,-0.14703369,-4.65625,17.109375,3.515625
397,1697621845,0.1484375,-0.9890747,-0.3040161,-5.421875,2.046875,-0.921875
398,1697621885,0.09057617,-1.2012329,-0.11846924,1.671875,1.140625,-4.4375
399,1697621925,0.0036621094,-1.1638794,-0.1296997,-10.9375,-8.40625,-3.5
400,1697621965,-0.057861328,-0.6836548,-0.10211182,-19.28125,1.65625,2.0625
401,1697622005,-0.013916016,-0.3526001,-0.037902832,-10.578125,-5.703125,2.609375
402,1697622045,-0.029541016,-0.39093018,-0.11773682,-4.78125,-9.125,0.71875
403,1697622085,-0.029785156,-0.60650635,0.0038452148,-0.25,-9.65625,5.421875
404,1697622125,-0.17700195,-0.7029419,0.04046631,-1.6875,-12.484375,7.03125
405,1697622165,-0.3203125,-0.74298096,-0.0647583,-4.90625,-13.078125,2.234375
406,1697622205,-0.16967773,-0.93878174,0.004333496,1.109375,-6.828125,-1.578125
407,1697622245,-0.28588867,-1.4429321,0.058044434,8.9375,7.15625,3.921875
408,1697622285,-0.34326172,-1.5476685,-0.012756348,-19.15625,-7.109375,6.40625
409,1697622325,-0.1381836,-1.7490845,-0.046691895,0.640625,-3.40625,-3.609375
410,1697622365,0.76293945,-1.3215942,0.01361084,-1.265625,4.765625,8.421875
411,1697622405,0.53125,-0.8140259,-0.18463135,-3.21875,-34.1875,2.359375
412,1697622445,-0.18457031,-1.1453247,-0.03375244,-0.859375,-23.71875,-14.28125
413,1697622485,0.04272461,-1.109436,0.093933105,-4.90625,-11.953125,-3.96875
414,1697622525,0.0068359375,-0.71051025,0.085876465,-11.375,-11.640625,-4.21875
415,1697622565,-0.11303711,-0.40899658,0.07659912,-8.484375,2.59375,3.96875
416,1697622605,-0.04711914,-0.4517212,0.11468506,1.890625,12.734375,4.109375
417,1697622645,0.01977539,-0.55474854,0.15081787,8.53125,12.09375,4.84375
418,1697622685,-0.014404297,-0.6482544,0.22650146,7.921875,10.734375,4.046875
419,1697622725,-0.17993164,-0.69659424,0.08392334,5.34375,12.40625,-4.375
420,1697622765,0.100097656,-0.8374634,-0.08111572,23.28125,17.859375,-8.859375
421,1697622805,0.38330078,-1.7993774,0.22723389,26.3125,1.203125,11.703125
422,1697622845,-0.8991699,-1.7803345,0.19866943,-25.90625,1.375,-4.8125
423,1697622885,-0.1430664,-1.2698364,-0.44415283,16.28125,15.3125,-35.28125
424,1697622925,0.79003906,-1.0982056,-0.3250122,-1.953125,20.765625,7.328125
425,1697622965,0.4086914,-1.1599731,-0.2390747,-3.78125,-2.046875,8.734375
426,1697623005,-0.22705078,-1.460022,-0.12335205,-1.34375,1.03125,-3.1875
427,1697623045,-0.00390625,-1.1030884,-0.010314941,-12.9375,-2.484375,-6.21875
428,1697623085,0.092041016,-0.5718384,-0.1038208,-21.6875,-6.609375,1.9375
429,1697623125,0.05444336,-0.24468994,-0.11480713,-3.984375,-13.5,3.125
430,1697623165,-0.107910156,-0.44830322,-0.081604004,8.953125,-14.140625,1.796875
431,1697623205,-0.1105957,-0.6560669,0.023376465,5.78125,-9.09375,7.09375
432,1697623245,-0.1887207,-0.6362915,0.051940918,-2.328125,-10.984375,5.046875
433,1697623285,-0.23730469,-0.7398071,-0.026916504,5.453125,-5.515625,-0.546875
434,1697623325,-0.1586914,-1.1287231,-0.019348145,19.328125,3.359375,-0.765625
435,1697623365,-0.111328125,-1.8535767,0.12664795,-5.078125,13.375,4.109375
436,1697623405,-0.61206055,-1.7288208,0.058288574,-15.375,-1.28125,2.0625
437,1697623445,0.17333984,-1.5584106,-0.3291626,10.9375,12.75,0.578125
438,1697623485,0.9313965,-0.975647,-0.006652832,-18.3125,-7.578125,8.515625
439,1697623525,0.009521484,-0.98931885,-0.2078247,-1.53125,-39.625,-8.78125
440,1697623565,-0.22167969,-1.3609009,0.0099487305,8.765625,-9.578125,-14.34375
441,1697623605,0.20581055,-1.003479,0.09442139,-17.8125,-10.40625,-9.875
442,1697623645,-0.020751953,-0.5166626,0.015563965,-16.53125,-13.96875,1.078125
443,1697623685,-0.13452148,-0.30230713,0.12957764,-6.859375,4.65625,4.828125
444,1697623725,-0.038085938,-0.42388916,0.09637451,9.484375,7.953125,1.109375
445,1697623765,0.041015625,-0.4751587,0.10736084,11.828125,8.25,2.265625
446,1697623805,-0.083740234,-0.51934814,0.09466553,14.828125,9.046875,3.71875
447,1697623845,-0.016845703,-0.7654419,0.0060424805,22.640625,10.984375,0.671875
448,1697623885,0.2619629,-1.529602,0.050964355,40.046875,10.109375,1.234375
449,1697623925,-0.27563477,-2.0,0.50946045,-35.296875,-6.1875,2.03125
450,1697623965,-0.53564453,-1.2698364,-0.33843994,-6.328125,-13.28125,-29.421875
451,1697624005,0.5493164,-1.1939087,-0.4336548,9.078125,16.9375,-7.8125
452,1697624045,0.4584961,-1.0574341,-0.30645752,-4.828125,-1.84375,13.015625
453,1697624085,-0.17553711,-1.2822876,-0.30255127,-5.171875,9.84375,-0.40625
454,1697624125,-0.14624023,-1.1221313,-0.05718994,-2.171875,6.140625,-9.96875
455,1697624165,0.029052734,-0.8364868,-0.12310791,-18.78125,6.609375,-1.890625
456,1697624205,0.025390625,-0.37945557,-0.11920166,-15.71875,3.640625,4.703125
457,1697624245,-0.030029297,-0.39678955,-0.101623535,0.375,0.984375,3.171875
458,1697624285,-0.043701172,-0.64801025,-0.025939941,5.171875,-3.34375,3.890625
459,1697624325,-0.12426758,-0.7229614,0.022155762,-3.796875,-6.953125,9.3125
460,1697624365,-0.28442383,-0.642395,-0.0056762695,-11.40625,-9.359375,5.5
461,1697624405,-0.24291992,-0.8115845,-0.03302002,0.9375,-3.578125,0.671875
462,1697624445,-0.25952148,-1.3535767,-0.093566895,16.65625,6.921875,3.546875
463,1697624485,-0.2631836,-1.663147,0.014099121,-21.484375,-2.734375,4.921875
464,1697624525,-0.28637695,-1.675354,0.023132324,-16.921875,7.84375,-7.96875
465,1697624565,0.64404297,-1.4028931,-0.15045166,4.9375,11.171875,1.375
466,1697624605,0.80322266,-0.93536377,0.00579834,-10.984375,-16.609375,1.921875
467,1697624645,-0.28295898,-1.1873169,-0.10211182,-1.046875,-30.5625,-17.859375
468,1697624685,-0.033203125,-1.0361938,-0.023742676,-7.171875,-9.421875,-6.078125
469,1697624725,0.059570312,-0.68218994,0.097351074,-10.34375,-4.25,-4.0
470,1697624765,-0.064453125,-0.5244751,0.09100342,-5.3125,3.03125,3.84375
471,1697624805,-0.084472656,-0.53009033,0.13128662,-0.40625,12.171875,3.28125
472,1697624845,0.03857422,-0.53131104,0.085632324,9.5625,7.5,3.296875
473,1697624885,0.040527344,-0.56988525,0.15667725,15.484375,3.6875,3.484375
474,1697624925,-0.29077148,-0.6489868,0.15985107,8.234375,7.3125,1.75
475,1697624965,-0.12182617,-0.8689575,-0.0335083,19.75,12.6875,0.46875
476,1697625005,0.27368164,-1.6543579,0.19403076,26.21875,7.59375,6.21875
477,1697625045,-0.6213379,-1.8272095,0.19671631,-20.484375,-1.5,-0.671875
478,1697625085,-0.19189453,-1.3106079,-0.5171509,13.390625,10.59375,-27.21875
479,1697625125,0.7651367,-1.3374634,-0.30596924,7.203125,19.46875,8.671875
480,1697625165,0.33544922,-1.1355591,-0.22393799,-17.5,4.234375,4.453125
481,1697625205,-0.19750977,-1.1326294,-0.15875244,-6.109375,2.140625,-2.0625
482,1697625245,0.007080078,-1.0818481,-0.08062744,-5.25,-0.484375,-6.453125
483,1697625285,0.06933594,-0.72857666,-0.085510254,-19.25,-1.296875,3.1875
484,1697625325,0.06567383,-0.33502197,-0.14093018,-8.546875,-7.21875,3.890625
485,1697625365,-0.07885742,-0.4133911,-0.07354736,6.90625,-10.84375,3.65625
486,1697625405,-0.1184082,-0.6382446,0.0004272461,3.890625,-10.6875,8.125
487,1697625445,-0.20532227,-0.61505127,0.026062012,-0.828125,-9.890625,7.65625
488,1697625485,-0.1887207,-0.7229614,-0.06524658,3.671875,-9.6875,3.828125
489,1697625525,-0.107177734,-1.038147,0.011657715,17.875,-4.75,5.046875
490,1697625565,-0.30322266,-1.8462524,0.0770874,2.46875,9.203125,4.984375
491,1697625605,-0.38452148,-1.5029907,-0.094055176,-17.265625,-11.734375,-1.453125
492,1697625645,0.099609375,-1.6194458,-0.2498169,4.3125,5.40625,0.453125
493,1697625685,0.8991699,-1.1641235,-0.042785645,-16.03125,-4.265625,2.96875
494,1697625725,0.3088379,-0.88897705,-0.22076416,-5.15625,-45.359375,-14.703125
495,1697625765,-0.3647461,-1.3704224,-0.06719971,4.84375,-15.734375,-20.046875
496,1697625805,0.1081543,-1.0159302,0.06341553,-11.671875,-8.515625,-12.828125
497,1697625845,0.040527344,-0.58917236,0.070007324,-19.59375,-1.171875,-1.03125
498,1697625885,-0.099121094,-0.33917236,0.11785889,-6.59375,7.078125,6.0
499,1697625925,-0.03491211,-0.43267822,0.117370605,4.1875,13.53125,1.390625
500,1697625965,0.03857422,-0.4517212,0.15447998,9.59375,11.609375,4.796875
501,1697626005,-0.20800781,-0.60235596,0.23016357,9.375,12.703125,1.90625
502,1697626045,-0.2944336,-0.84503174,-0.09136963,16.3125,18.6875,-2.65625
503,1697626085,0.36791992,-1.1414185,-0.08380127,28.390625,22.671875,1.03125
504,1697626125,0.021728516,-2.0,0.33563232,5.890625,-0.640625,7.671875
505,1697626165,-0.9470215,-1.5518188,-0.18756104,-12.796875,-0.40625,-16.78125
506,1697626205,0.16259766,-1.2932739,-0.40679932,21.90625,17.453125,-20.578125
507,1697626245,0.64746094,-1.1553345,-0.34088135,-9.5625,14.484375,14.25
508,1697626285,0.16113281,-1.0776978,-0.27301025,-5.578125,6.25,3.71875
509,1697626325,-0.09326172,-1.3833618,-0.04425049,-0.3125,-0.8125,-5.421875
510,1697626365,-0.03564453,-1.050354,-0.07696533,-24.609375,-9.359375,-4.359375
511,1697626405,0.048828125,-0.362854,-0.159729,-24.578125,-5.53125,0.65625
512,1697626445,0.006591797,-0.25616455,-0.093322754,0.9375,-14.40625,2.390625
513,1697626485,-0.095947266,-0.6223755,-0.058898926,7.09375,-14.71875,8.4375
514,1697626525,-0.17114258,-0.68170166,0.049743652,0.375,-13.171875,8.3125
515,1697626565,-0.25024414,-0.6445923,0.038513184,-1.796875,-14.09375,5.203125
516,1697626605,-0.24145508,-0.82525635,-0.042297363,7.484375,-7.75,2.796875
517,1697626645,-0.19091797,-1.2644653,-0.02911377,20.078125,6.59375,4.0625
518,1697626685,-0.12133789,-1.9036255,0.13787842,-14.25,-0.84375,8.78125
519,1697626725,-0.43017578,-1.6348267,0.18328857,-6.96875,-4.890625,-0.28125
520,1697626765,0.24975586,-1.3560181,-0.19708252,5.40625,3.0625,0.3125
521,1697626805,0.8054199,-0.9356079,-0.09454346,-14.09375,-8.5625,6.984375
522,1697626845,0.041748047,-0.98443604,-0.097717285,4.515625,-37.4375,-10.046875
523,1697626885,-0.15405273,-1.2786255,0.0036010742,-5.1875,-9.4375,-9.375
524,1697626925,0.028564453,-0.90411377,0.019714355,-15.25,-6.875,-4.484375
525,1697626965,-0.0056152344,-0.5552368,0.1005249,-12.625,1.796875,2.53125
526,1697627005,0.022705078,-0.4710083,0.09564209,-6.796875,9.5,0.828125
527,1697627045,-0.04345703,-0.5288696,0.12689209,0.46875,9.78125,0.1875
528,1697627085,-0.0107421875,-0.5437622,0.15667725,4.25,11.734375,3.953125
529,1697627125,-0.09814453,-0.6836548,0.25286865,3.4375,12.890625,2.15625
530,1697627165,-0.13842773,-0.7866821,0.020690918,11.40625,11.9375,-7.21875
531,1697627205,0.28930664,-1.1973267,-0.039367676,29.140625,4.828125,-6.359375
532,1697627245,0.1015625,-1.9258423,0.41937256,-2.96875,-6.125,11.015625
533,1697627285,-0.779541,-1.5737915,-0.1428833,-3.65625,-11.1875,-15.8125
534,1697627325,0.21875,-1.3621216,-0.28131104,12.3125,13.609375,-13.796875
535,1697627365,0.38427734,-0.9949341,-0.24249268,-10.625,15.328125,8.125
536,1697627405,0.1550293,-1.1592407,-0.3008423,-0.0625,12.28125,1.03125
537,1697627445,0.0107421875,-1.206604,-0.06427002,2.390625,4.5625,-5.5625
538,1697627485,-0.37768555,-1.5098267,-0.1296997,-27.5625,-5.625,7.421875
539,1697627525,-0.1772461,-1.552063,-0.05206299,-7.71875,6.78125,-7.796875
540,1697627565,0.86157227,-1.4021606,0.027526855,1.265625,13.828125,7.984375
541,1697627605,0.73706055,-1.0796509,-0.17120361,-7.96875,-26.234375,1.71875
542,1697627645,-0.20117188,-1.2761841,-0.06524658,1.59375,-23.828125,-22.53125
543,1697627685,0.06982422,-1.161438,0.03753662,3.375,-12.453125,-6.875
544,1697627725,0.06591797,-0.7334595,-0.011291504,-14.75,-1.5625,2.546875
545,1697627765,-0.10107422,-0.35528564,0.06390381,-9.84375,6.484375,7.421875
546,1697627805,-0.024658203,-0.4282837,0.13763428,3.96875,14.671875,3.84375
547,1697627845,0.049560547,-0.54473877,0.116882324,8.109375,19.78125,2.9375
548,1697627885,-0.015625,-0.55596924,0.16033936,4.03125,20.28125,5.34375
549,1697627925,-0.23901367,-0.6567993,0.11151123,3.828125,19.828125,0.0
550,1697627965,-0.00390625,-0.8040161,-0.10015869,17.953125,19.71875,-6.59375
551,1697628005,0.43579102,-1.5337524,0.08660889,31.46875,18.84375,1.84375
552,1697628045,-0.6257324,-2.0,0.26849365,-27.359375,5.703125,-3.484375
553,1697628085,-0.1887207,-1.0825806,-0.33673096,6.078125,8.21875,-34.71875
554,1697628125,0.55737305,-1.2156372,-0.45587158,7.234375,23.140625,1.453125
555,1697628165,0.53759766,-1.3572388,-0.38580322,-12.3125,17.40625,0.203125
556,1697628205,0.00024414062,-1.3035278,-0.13165283,-7.171875,1.65625,-3.53125
557,1697628245,0.0073242188,-1.1812134,0.030700684,-21.09375,-5.25,-10.625
558,1697628285,-0.025146484,-0.550354,-0.13970947,-26.3125,-5.609375,4.828125
559,1697628325,-0.060058594,-0.20245361,-0.11187744,-9.203125,-8.453125,4.125
560,1697628365,-0.03955078,-0.35577393,-0.05279541,6.046875,-16.03125,-0.71875
561,1697628405,-0.10424805,-0.6651001,-0.004211426,4.796875,-10.625,5.46875
562,1697628445,-0.14794922,-0.6716919,0.054382324,-2.03125,-13.359375,5.53125
563,1697628485,-0.25927734,-0.7217407,-0.013000488,6.296875,-13.0,4.8125
564,1697628525,-0.21435547,-1.0349731,0.053649902,12.796875,-3.0,1.859375
565,1697628565,-0.25878906,-1.864563,0.081726074,1.015625,11.140625,1.6875
566,1697628605,-0.44384766,-1.531311,-0.002746582,-19.6875,-17.421875,-0.5
567,1697628645,-0.008544922,-1.5376587,-0.15435791,-7.609375,-1.5,-5.5
568,1697628685,1.0402832,-1.1531372,-0.05718994,-8.671875,-9.875,2.90625
569,1697628725,0.45141602,-0.772522,-0.07623291,-6.171875,-44.78125,-2.46875
570,1697628765,-0.60009766,-1.4107056,-0.14117432,-1.53125,-20.5625,-22.96875
571,1697628805,-0.02319336,-1.0484009,0.039489746,-11.375,2.09375,-10.625
572,1697628845,0.18041992,-0.65582275,0.098083496,-16.171875,4.9375,3.359375
573,1697628885,-0.06518555,-0.46148682,0.17059326,-8.34375,3.65625,6.90625
574,1697628925,-0.14013672,-0.49102783,0.085876465,4.109375,15.296875,1.578125
575,1697628965,-0.032714844,-0.4751587,0.16082764,5.5625,22.109375,4.59375
576,1697629005,-0.13916016,-0.5730591,0.18475342,8.09375,18.0625,6.640625
577,1697629045,-0.18457031,-0.6338501,-0.06719971,11.09375,13.65625,-4.03125
578,1697629085,0.18847656,-1.0274048,-0.038146973,29.6875,14.9375,-3.25
579,1697629125,0.103515625,-2.0,0.338562,4.90625,5.53125,8.203125
580,1697629165,-1.010498,-1.75177,-0.022766113,-10.015625,0.78125,-11.28125
581,1697629205,0.19946289,-1.3731079,-0.47955322,15.296875,16.59375,-19.34375
582,1697629245,0.5632324,-1.1902466,-0.30377197,-7.0625,19.921875,10.828125
583,1697629285,0.022460938,-1.2263794,-0.2156372,-12.578125,15.578125,5.484375
584,1697629325,-0.11230469,-1.1355591,0.03289795,-10.453125,10.25,-10.296875
585,1697629365,-0.024169922,-0.86260986,-0.06011963,-13.5,3.578125,-7.15625
586,1697629405,-0.06591797,-0.4776001,-0.11578369,-17.34375,9.203125,1.96875
587,1697629445,-0.0007324219,-0.31329346,-0.058410645,-2.625,2.734375,0.890625
588,1697629485,-0.009521484,-0.5977173,-0.06060791,6.84375,-2.359375,3.046875
589,1697629525,-0.07373047,-0.7893677,0.12445068,1.921875,-2.125,8.90625
590,1697629565,-0.30200195,-0.70806885,0.08929443,-7.734375,-10.171875,1.96875
591,1697629605,-0.22802734,-0.79034424,-0.046447754,1.203125,-10.625,-0.90625
592,1697629645,-0.19604492,-1.2297974,0.042907715,17.8125,-0.546875,6.109375
593,1697629685,-0.3269043,-1.717102,0.070251465,-14.28125,-5.203125,5.34375
594,1697629725,-0.30322266,-1.753479,0.1762085,-2.4375,6.140625,-3.609375
595,1697629765,0.51831055,-1.4526978,-0.04156494,8.0,6.375,8.40625
596,1697629805,0.6916504,-0.89508057,0.074157715,-7.859375,-17.09375,1.0625
597,1697629845,-0.075927734,-1.0344849,-0.046936035,1.453125,-33.453125,-13.96875
598,1697629885,-0.029052734,-1.1345825,0.04144287,1.5625,-15.5,-5.296875
599,1697629925,0.057617188,-0.7749634,0.070251465,-8.515625,-12.578125,-5.1875
600,1697629965,-0.046875,-0.4817505,0.1251831,-3.921875,-5.75,3.921875
601,1697630005,-0.022216797,-0.5105591,0.14569092,2.15625,4.734375,3.6875
602,1697630045,-0.004638672,-0.57232666,0.17718506,7.28125,5.796875,0.578125
603,1697630085,-0.06713867,-0.5881958,0.23699951,7.84375,4.078125,1.921875
604,1697630125,-0.24682617,-0.64434814,0.19110107,8.90625,8.140625,-3.828125
605,1697630165,-0.059326172,-0.8633423,-0.0049438477,21.71875,17.328125,-9.140625
606,1697630205,0.36816406,-1.5227661,0.17303467,34.140625,9.28125,3.140625
607,1697630245,-0.56640625,-2.0,0.19232178,-19.6875,-0.609375,4.75
608,1697630285,-0.234375,-1.3858032,-0.38604736,10.96875,1.359375,-28.734375
609,1697630325,0.60595703,-1.0791626,-0.16241455,-11.078125,22.046875,7.390625
610,1697630365,0.09765625,-1.0044556,-0.2781372,-4.484375,4.46875,5.59375
611,1697630405,0.01953125,-1.4653931,-0.26275635,6.640625,6.609375,-0.859375
612,1697630445,0.087890625,-1.2056274,-0.012756348,-13.390625,-1.828125,-4.59375
613,1697630485,-0.041748047,-0.63726807,-0.035217285,-29.984375,-1.59375,-1.4375
614,1697630525,-0.006591797,-0.24957275,-0.105529785,-11.828125,-8.734375,2.078125
615,1697630565,-0.10424805,-0.3875122,-0.06060791,7.296875,-13.15625,-0.40625
616,1697630605,-0.07055664,-0.66363525,-0.003479004,10.453125,-11.46875,6.25
617,1697630645,-0.06640625,-0.73760986,0.051208496,-0.25,-14.78125,7.75
618,1697630685,-0.27783203,-0.76641846,-0.0037231445,-1.421875,-17.234375,4.0
619,1697630725,-0.2939453,-0.93829346,0.038757324,9.75,-5.25,3.0625
620,1697630765,-0.24316406,-1.6704712,0.0368042,10.203125,16.203125,4.59375
621,1697630805,-0.32348633,-1.6113892,0.078552246,-28.65625,-3.578125,9.046875
622,1697630845,-0.21118164,-1.4534302,-0.0022583008,-19.171875,-2.984375,-1.953125
623,1697630885,0.5065918,-1.1021118,-0.14263916,-2.109375,-1.140625,-1.15625
624,1697630925,0.69677734,-0.93829346,-0.051818848,-3.078125,-18.46875,-0.265625
625,1697630965,-0.27246094,-1.388977,0.0026245117,-1.953125,-27.59375,-12.328125
626,1697631005,-0.24121094,-1.06427,0.008972168,-1.421875,-12.328125,-11.46875
627,1697631045,0.00024414062,-0.6675415,-0.011291504,-10.171875,8.5625,-1.03125
628,1697631085,-0.010009766,-0.49224854,0.07220459,-2.890625,13.078125,11.203125
629,1697631125,-0.008300781,-0.5562134,0.14520264,4.703125,15.4375,8.078125
630,1697631165,-0.029541016,-0.57403564,0.12176514,5.90625,18.296875,6.546875
631,1697631205,-0.013183594,-0.5742798,0.13909912,7.515625,18.015625,7.4375
632,1697631245,-0.09765625,-0.722229,0.15081787,14.421875,15.953125,4.578125
633,1697631285,0.046875,-1.0125122,-0.19049072,27.125,8.71875,2.9375
634,1697631325,0.45532227,-1.6062622,0.066345215,29.484375,-4.625,8.640625
635,1697631365,-0.826416,-1.842102,0.31072998,-39.34375,-8.90625,-7.5
636,1697631405,-0.47705078,-1.0193481,-0.1795044,5.59375,13.890625,-32.96875
637,1697631445,0.51293945,-1.1174927,-0.5237427,17.5,28.6875,-4.21875
638,1697631485,0.48486328,-1.3984985,-0.3633423,-14.75,25.9375,2.28125
639,1697631525,-0.0234375,-1.3023071,-0.23321533,-13.0,13.78125,3.359375
640,1697631565,-0.06738281,-1.0908813,0.070007324,-18.3125,10.4375,-15.375
641,1697631605,-0.056884766,-0.68756104,-0.12554932,-26.53125,7.921875,-0.078125
642,1697631645,0.02709961,-0.19146729,-0.13043213,-16.109375,7.8125,5.96875
643,1697631685,-0.0078125,-0.33380127,-0.07525635,10.609375,-4.125,4.65625
644,1697631725,-0.100097656,-0.7449341,-0.012268066,12.515625,0.796875,8.40625
645,1697631765,-0.2421875,-0.83062744,0.10784912,-0.703125,0.1875,12.640625
646,1697631805,-0.3100586,-0.704895,-0.047668457,-3.765625,-3.484375,2.4375
647,1697631845,-0.11694336,-0.861145,0.026306152,9.921875,-2.703125,-1.25
648,1697631885,-0.25830078,-1.666565,0.066345215,15.890625,11.265625,7.734375
649,1697631925,-0.35839844,-1.6419067,-0.12579346,-10.875,-5.296875,4.828125
650,1697631965,-0.15478516,-1.5535278,-0.16290283,0.6875,4.71875,3.140625
651,1697632005,0.9394531,-1.1709595,-0.026184082,-18.890625,9.734375,17.046875
652,1697632045,0.39672852,-0.83917236,-0.15435791,5.546875,-47.9375,-3.5625
653,1697632085,-0.25170898,-1.3450317,-0.046936035,5.5,-16.515625,-18.3125
654,1697632125,0.15185547,-1.147522,0.082458496,-9.1875,-8.15625,-3.90625
655,1697632165,-0.078125,-0.64019775,0.06732178,-19.8125,-6.578125,-0.84375
656,1697632205,-0.14550781,-0.38482666,0.06414795,-10.609375,8.71875,2.828125
657,1697632245,-0.0012207031,-0.4661255,0.11785889,-0.421875,15.3125,-0.4375
658,1697632285,0.072509766,-0.506897,0.15081787,4.671875,13.75,3.71875
659,1697632325,-0.06274414,-0.598938,0.2399292,6.78125,12.109375,5.78125
660,1697632365,-0.24023438,-0.7178345,0.07562256,9.328125,15.328125,-2.984375
661,1697632405,0.05883789,-1.0454712,0.00018310547,26.078125,16.078125,-9.734375
662,1697632445,0.3869629,-1.9822388,0.28826904,20.03125,2.296875,7.390625
663,1697632485,-0.7155762,-1.7332153,-0.12188721,-11.375,-10.28125,-15.328125
664,1697632525,-0.050048828,-1.3977661,-0.36920166,10.171875,16.609375,-22.46875
665,1697632565,0.40844727,-1.1167603,-0.16827393,-8.421875,23.609375,9.96875
666,1697632605,0.032714844,-1.2710571,-0.22442627,-6.796875,26.15625,-1.21875
667,1697632645,0.0847168,-1.1624146,-0.18341064,0.953125,14.53125,-10.171875
668,1697632685,0.08154297,-0.9873657,0.00018310547,-12.140625,7.4375,-7.53125
669,1697632725,-0.030029297,-0.5298462,-0.023986816,-17.234375,3.953125,1.984375
670,1697632765,-0.07836914,-0.28546143,-0.09942627,-3.6875,-1.359375,2.96875
671,1697632805,0.011230469,-0.4307251,-0.04473877,6.15625,-3.328125,2.265625
672,1697632845,-0.08984375,-0.6826782,0.039489746,6.984375,-6.40625,11.546875
673,1697632885,-0.3088379,-0.77593994,0.06121826,1.921875,-7.40625,9.5
674,1697632925,-0.2211914,-0.8184204,-0.03277588,3.265625,-9.53125,2.453125
675,1697632965,-0.12524414,-1.0317993,0.024597168,11.671875,-5.59375,2.21875
676,1697633005,-0.38598633,-1.8345337,0.124938965,-6.46875,14.703125,7.15625
677,1697633045,-0.513916,-1.560852,0.02166748,-15.46875,-1.78125,-2.546875
678,1697633085,0.18310547,-1.4570923,-0.22833252,9.15625,4.8125,2.640625
679,1697633125,1.0629883,-1.1101685,0.057800293,-12.796875,-1.375,9.453125
680,1697633165,0.07739258,-0.98883057,-0.08868408,-2.28125,-47.046875,-11.609375
681,1697633205,-0.40185547,-1.3396606,-0.09454346,12.75,-18.140625,-15.453125
682,1697633245,0.18579102,-0.878479,0.047302246,-7.75,-3.546875,-8.546875
683,1697633285,0.020996094,-0.4998169,0.10394287,-12.453125,-2.359375,6.03125
684,1697633325,-0.15649414,-0.3904419,0.15911865,-0.34375,7.3125,10.53125
685,1697633365,-0.020751953,-0.5195923,0.06976318,7.4375,13.046875,1.765625
686,1697633405,0.09375,-0.5142212,0.16229248,8.53125,14.046875,4.765625
687,1697633445,-0.18334961,-0.7178345,0.25823975,7.65625,12.875,6.015625
688,1697633485,-0.24243164,-0.8245239,-0.018859863,10.96875,16.5,-5.609375
689,1697633525,0.28076172,-1.1550903,-0.034729004,29.0625,13.75,-3.5625
690,1697633565,0.13183594,-2.0,0.4430542,-2.328125,2.546875,6.46875
691,1697633605,-0.6220703,-1.5557251,-0.3340454,2.84375,-18.359375,-19.65625
692,1697633645,0.7089844,-1.2578735,-0.38458252,13.390625,-2.3125,-0.203125
693,1697633685,0.25732422,-1.0894165,-0.27178955,-15.421875,-1.4375,15.03125
694,1697633725,-0.19042969,-1.2112427,-0.36016846,3.0,6.796875,-4.59375
695,1697633765,0.13842773,-1.2192993,0.007751465,-4.75,3.59375,-4.640625
696,1697633805,0.011230469,-0.8567505,-0.02154541,-22.15625,-0.59375,4.890625
697,1697633845,-0.12524414,-0.30963135,-0.07965088,-15.703125,4.15625,7.15625
698,1697633885,-0.10522461,-0.2720337,-0.06329346,-0.359375,0.96875,3.859375
699,1697633925,-0.0029296875,-0.6201782,-0.028869629,5.828125,1.875,5.125
700,1697633965,-0.071777344,-0.7583618,0.013122559,3.15625,0.71875,10.1875
701,1697634005,-0.19555664,-0.75616455,-0.050842285,0.890625,-9.28125,0.03125
702,1697634045,-0.11669922,-0.90948486,-0.06744385,4.078125,-7.15625,-0.65625
703,1697634085,-0.30615234,-1.4417114,-0.035461426,8.0625,3.8125,-0.5
704,1697634125,-0.28735352,-1.5523071,-0.11993408,-18.875,-12.59375,-3.765625
705,1697634165,-0.11425781,-1.607727,-0.042053223,-10.390625,12.46875,-6.34375
706,1697634205,0.7355957,-1.3572388,-0.0256958,-4.40625,15.21875,5.140625
707,1697634245,0.77612305,-0.87091064,-0.07720947,-12.0,-33.78125,-6.90625
708,1697634285,-0.17089844,-1.1721802,-0.09454346,-1.921875,-32.765625,-20.140625
709,1697634325,-0.07006836,-1.1773071,0.03753662,-9.8125,-13.453125,-7.40625
710,1697634365,0.076660156,-0.6367798,0.082458496,-16.625,-7.15625,-1.328125
711,1697634405,-0.068847656,-0.3862915,0.1161499,-7.8125,0.09375,5.984375
712,1697634445,-0.08520508,-0.47833252,0.14691162,2.34375,6.65625,2.890625
713,1697634485,0.0063476562,-0.58477783,0.14422607,10.625,7.546875,2.421875
714,1697634525,-0.016845703,-0.66729736,0.30047607,6.84375,10.484375,4.390625
715,1697634565,-0.31079102,-0.70440674,0.15594482,5.8125,11.046875,-1.671875
716,1697634605,-0.05908203,-0.9138794,0.00970459,19.96875,12.1875,-13.484375
717,1697634645,0.49145508,-1.6472778,0.19989014,22.15625,7.5625,-0.390625
718,1697634685,-0.7233887,-1.8325806,0.03656006,-15.71875,-2.078125,1.40625
719,1697634725,-0.15527344,-1.416565,-0.3994751,15.875,4.15625,-22.828125
720,1697634765,0.5966797,-1.1863403,-0.24713135,-11.234375,18.125,7.9375
721,1697634805,0.068603516,-1.1819458,-0.2805786,-5.359375,9.171875,6.859375
722,1697634845,-0.048828125,-1.2002563,-0.04449463,-3.78125,8.265625,-3.65625
723,1697634885,0.010009766,-1.06427,-0.03765869,-9.296875,2.5625,-5.34375
724,1697634925,0.0017089844,-0.5791626,-0.09161377,-18.9375,2.078125,3.0625
725,1697634965,-0.030273438,-0.34259033,-0.06939697,-6.59375,-4.34375,0.65625
726,1697635005,-0.032470703,-0.47711182,-0.003967285,3.40625,-10.296875,1.125
727,1697635045,-0.072509766,-0.6543579,0.044128418,3.375,-13.75,8.65625
728,1697635085,-0.24682617,-0.61309814,0.048034668,-4.625,-15.140625,6.171875
729,1697635125,-0.18139648,-0.77130127,-0.012023926,-0.109375,-7.15625,1.328125
730,1697635165,-0.20703125,-1.2539673,-0.012512207,14.953125,-1.078125,4.09375
731,1697635205,-0.17773438,-1.7627563,0.18035889,-20.171875,-2.96875,9.46875
732,1697635245,-0.56762695,-1.65802,0.28363037,-5.875,-7.46875,-2.34375
733,1697635285,0.04663086,-1.4143677,-0.23736572,15.984375,-4.109375,-4.703125
734,1697635325,0.8708496,-0.9529419,-0.028625488,-2.21875,-0.59375,7.390625
735,1697635365,0.20336914,-1.0791626,-0.02520752,-0.09375,-35.015625,-6.0625
736,1697635405,-0.26538086,-1.4175415,0.0119018555,4.109375,-17.890625,-14.34375
737,1697635445,0.036621094,-0.9085083,0.027038574,-11.21875,-3.375,-4.359375
738,1697635485,-0.08935547,-0.49371338,0.06048584,-14.6875,6.859375,5.0625
739,1697635525,-0.08569336,-0.4282837,0.13934326,-2.765625,14.4375,5.84375
740,1697635565,-0.041259766,-0.519104,0.11224365,5.984375,15.859375,5.03125
741,1697635605,-0.0056152344,-0.5269165,0.16766357,9.59375,18.96875,6.828125
742,1697635645,-0.13842773,-0.6873169,0.22796631,7.65625,21.84375,4.421875
743,1697635685,-0.2163086,-0.83135986,-0.016906738,13.5625,24.234375,-2.90625
744,1697635725,0.31079102,-1.2515259,-0.034484863,31.84375,23.640625,-2.140625
745,1697635765,0.12866211,-1.9570923,0.5206909,-7.265625,-4.0,8.125
746,1697635805,-0.9223633,-1.4526978,-0.09503174,-13.0625,-3.765625,-14.03125
747,1697635845,0.18139648,-1.1299438,-0.55474854,15.078125,16.375,-21.125
748,1697635885,0.58325195,-1.2354126,-0.33502197,-5.640625,29.5,10.1875
749,1697635925,0.06689453,-1.3936157,-0.4649048,0.75,15.953125,7.078125
750,1697635965,-0.036132812,-1.2383423,0.15106201,-11.671875,8.515625,-11.71875
751,1697636005,-0.055419922,-0.80474854,-0.06719971,-21.984375,9.328125,4.046875
752,1697636045,-0.13476562,-0.30255127,-0.13873291,-17.984375,16.96875,11.359375
753,1697636085,0.014404297,-0.28497314,-0.09869385,1.578125,10.046875,1.703125
754,1697636125,0.111572266,-0.60821533,0.019958496,9.21875,0.5,6.796875
755,1697636165,-0.1394043,-0.7588501,0.0927124,0.296875,-5.09375,14.828125
756,1697636205,-0.3395996,-0.6878052,-0.038391113,-4.28125,-13.046875,3.9375
757,1697636245,-0.17089844,-0.82598877,-0.026672363,10.84375,-9.078125,0.578125
758,1697636285,-0.13574219,-1.5618286,0.0028686523,16.65625,3.53125,6.375
759,1697636325,-0.46704102,-1.6172485,-0.04058838,-19.953125,-9.875,4.890625
760,1697636365,-0.23535156,-1.5344849,-0.17315674,-1.078125,11.5625,-4.953125
761,1697636405,1.0146484,-1.2959595,-0.09844971,-5.578125,11.984375,12.203125
