# Sensor type: Thingy
# Activity type: Ascending stairs
# Activity subtype: Normal
# Subject id: s1971889
# Notes: 
timestamp,accel_x,accel_y,accel_z,gyro_x,gyro_y,gyro_z,mag_x,mag_y,mag_z
1695400345886,-0.94140625,-0.17480469,0.38476562,42.21875,30.625,24.90625,0.0,0.0,0.0
1695400345917,-0.88671875,-0.12402344,0.18945312,32.75,42.96875,27.65625,0.0,0.0,0.0
1695400345976,-0.9326172,-0.12011719,0.16601562,20.25,80.625,41.4375,0.0,0.0,0.0
1695400346007,-0.8105469,-0.0546875,0.31640625,-0.6875,87.34375,49.1875,0.0,0.0,0.0
1695400346036,-0.77246094,-0.022460938,0.34570312,10.5625,78.125,34.4375,0.0,0.0,0.0
1695400346097,-0.7998047,-0.07910156,0.25878906,16.65625,57.65625,31.5,0.0,0.0,0.0
1695400346127,-0.78125,-0.099609375,0.20605469,-19.71875,78.78125,27.21875,0.0,0.0,0.0
1695400346156,-0.75878906,-0.034179688,0.080078125,-15.03125,67.8125,14.59375,0.0,0.0,0.0
1695400346217,-0.7861328,-0.14941406,0.12207031,-14.1875,54.84375,5.0,0.0,0.0,0.0
1695400346247,-0.91308594,-0.11816406,0.24902344,-46.46875,53.03125,9.09375,-72.75,-39.5625,-103.6875
1695400346307,-1.1621094,-0.0546875,0.17285156,-53.0625,45.15625,20.875,0.0,0.0,0.0
1695400346336,-1.3730469,-0.021484375,0.18066406,-56.53125,24.875,51.8125,0.0,0.0,0.0
1695400346367,-1.5205078,0.0126953125,0.34179688,-53.84375,0.71875,71.0,0.0,0.0,0.0
1695400346396,-1.6083984,-0.02734375,0.2763672,-39.5,-50.375,47.25,0.0,0.0,0.0
1695400346457,-1.5224609,0.08984375,0.28320312,-16.25,-78.3125,3.125,0.0,0.0,0.0
1695400346487,-1.234375,0.12890625,0.25390625,22.4375,-94.8125,-14.53125,0.0,0.0,0.0
1695400346518,-1.09375,0.18847656,0.24316406,13.84375,-103.46875,-82.75,0.0,0.0,0.0
1695400346577,-0.890625,0.15332031,0.32910156,-35.65625,-94.0,-97.15625,0.0,0.0,0.0
1695400346607,-0.81933594,0.25097656,0.5576172,-104.6875,-99.625,-77.15625,0.0,0.0,0.0
1695400346637,-0.87890625,0.11621094,0.31347656,-44.5,-129.78125,-52.25,0.0,0.0,0.0
1695400346697,-0.66503906,-0.2783203,0.2626953,-12.09375,-128.625,-39.0625,0.0,0.0,0.0
1695400346726,-0.66796875,-0.29785156,0.3076172,-24.375,-80.09375,-76.03125,0.0,0.0,0.0
1695400346756,-0.5292969,-0.203125,0.4580078,-13.1875,-69.15625,-84.15625,-52.9375,-50.9375,-94.6875
1695400346818,-0.296875,-0.048828125,0.41796875,18.78125,-75.9375,-66.84375,0.0,0.0,0.0
1695400346847,-0.28125,-0.14160156,0.39453125,20.25,-65.1875,-32.71875,0.0,0.0,0.0
1695400346877,-0.25,-0.23046875,0.48828125,-5.6875,-28.9375,-11.15625,0.0,0.0,0.0
1695400346939,-0.25195312,-0.3876953,0.6376953,-22.28125,16.90625,-1.53125,0.0,0.0,0.0
1695400346967,-0.36523438,-0.40039062,0.7294922,-6.96875,38.1875,-15.5625,0.0,0.0,0.0
1695400346999,-0.5888672,-0.3935547,0.9892578,10.65625,56.1875,-3.09375,0.0,0.0,0.0
1695400347058,-1.2001953,-0.41601562,1.0712891,-6.125,70.71875,34.25,0.0,0.0,0.0
1695400347087,-1.3154297,-0.20996094,0.66308594,-70.5,177.90625,30.78125,0.0,0.0,0.0
1695400347118,-0.98535156,-0.23242188,0.4873047,5.0,140.1875,76.84375,0.0,0.0,0.0
1695400347178,-1.0283203,-0.3017578,0.36914062,24.9375,65.65625,84.28125,0.0,0.0,0.0
1695400347208,-0.9316406,-0.25195312,0.22949219,34.40625,32.65625,44.5,0.0,0.0,0.0
1695400347237,-0.8017578,-0.14453125,0.046875,5.0,64.0625,32.28125,-62.6875,-46.3125,-100.6875
1695400347300,-0.78515625,-0.12402344,-0.026367188,13.78125,71.65625,40.28125,0.0,0.0,0.0
1695400347328,-0.85253906,-0.0859375,0.2109375,10.125,62.71875,39.5625,0.0,0.0,0.0
1695400347357,-0.8125,-0.14453125,0.35546875,28.84375,65.28125,40.21875,0.0,0.0,0.0
1695400347416,-0.8066406,-0.15625,0.18261719,49.25,63.59375,29.71875,0.0,0.0,0.0
1695400347448,-0.7871094,-0.08496094,0.13476562,43.3125,63.78125,15.09375,0.0,0.0,0.0
1695400347476,-0.8359375,-0.08886719,0.08886719,48.5,61.6875,17.71875,0.0,0.0,0.0
1695400347537,-0.93359375,-0.107421875,0.0390625,6.03125,66.75,17.28125,0.0,0.0,0.0
1695400347568,-1.0537109,-0.08203125,0.1484375,-12.46875,33.0625,19.21875,0.0,0.0,0.0
1695400347599,-1.3105469,-0.125,0.171875,-29.125,-7.34375,28.21875,0.0,0.0,0.0
1695400347658,-1.5019531,-0.09863281,0.26757812,-46.03125,-61.46875,37.1875,0.0,0.0,0.0
1695400347687,-1.2861328,-0.103515625,0.29003906,-56.90625,-72.71875,24.125,0.0,0.0,0.0
1695400347718,-1.8154297,0.3173828,0.3515625,-40.34375,-53.34375,53.46875,0.0,0.0,0.0
1695400347778,-1.3710938,0.21679688,0.29003906,26.1875,-59.40625,14.71875,-71.6875,-35.1875,-107.875
1695400347810,-1.0048828,0.19042969,0.25976562,59.6875,-56.96875,-38.9375,0.0,0.0,0.0
1695400347837,-0.90234375,0.23535156,0.3076172,18.25,-84.0,-75.5,0.0,0.0,0.0
1695400347898,-0.8701172,0.24902344,0.58691406,-67.09375,-100.65625,-103.9375,0.0,0.0,0.0
1695400347935,-1.0253906,0.3623047,0.37402344,-81.5625,-94.96875,-59.03125,0.0,0.0,0.0
1695400347958,-0.6386719,-0.14746094,0.12109375,-69.96875,-96.625,-76.21875,0.0,0.0,0.0
1695400348017,-0.5488281,-0.32226562,0.18457031,-15.15625,-121.34375,-84.65625,0.0,0.0,0.0
1695400348048,-0.5263672,-0.2783203,0.36132812,-12.78125,-72.34375,-72.4375,0.0,0.0,0.0
1695400348077,-0.3642578,-0.13378906,0.453125,-4.03125,-59.75,-72.875,0.0,0.0,0.0
1695400348138,-0.23925781,-0.20019531,0.42578125,-3.25,-54.6875,-53.03125,0.0,0.0,0.0
1695400348168,-0.2529297,-0.30566406,0.4765625,-19.0625,-23.375,-15.5625,0.0,0.0,0.0
1695400348198,-0.2841797,-0.42285156,0.546875,-39.875,26.96875,0.625,0.0,0.0,0.0
1695400348258,-0.39941406,-0.42578125,0.8076172,-17.09375,61.5625,6.21875,-49.375,-50.9375,-94.125
1695400348289,-0.84375,-0.5527344,0.9511719,6.75,39.46875,13.0625,0.0,0.0,0.0
1695400348319,-1.3681641,-0.3544922,0.40234375,-19.84375,118.9375,41.21875,0.0,0.0,0.0
1695400348378,-1.2099609,-0.14941406,0.30859375,36.0625,156.1875,62.4375,0.0,0.0,0.0
1695400348408,-0.9951172,-0.17773438,0.3330078,76.65625,105.8125,98.8125,0.0,0.0,0.0
1695400348438,-0.94433594,-0.17480469,0.24023438,16.96875,48.09375,82.59375,0.0,0.0,0.0
1695400348500,-1.0292969,-0.10058594,0.053710938,-18.09375,15.84375,60.78125,0.0,0.0,0.0
1695400348529,-0.95996094,-0.07714844,-0.026367188,-27.0625,77.875,44.0,0.0,0.0,0.0
1695400348587,-0.9189453,-0.10839844,0.20410156,-8.8125,84.53125,48.03125,0.0,0.0,0.0
1695400348618,-0.73046875,-0.14160156,0.375,-3.1875,69.4375,45.78125,0.0,0.0,0.0
1695400348648,-0.7128906,-0.18945312,0.17578125,29.71875,42.78125,33.75,0.0,0.0,0.0
1695400348678,-0.77246094,-0.1875,-0.022460938,24.78125,58.28125,18.9375,0.0,0.0,0.0
1695400348739,-0.890625,-0.091796875,-0.028320312,50.15625,54.5625,-3.09375,0.0,0.0,0.0
1695400348768,-0.9589844,-0.07324219,0.12988281,21.65625,67.125,9.84375,-72.625,-37.1875,-111.5
1695400348798,-1.2060547,-0.038085938,0.31347656,6.28125,25.625,11.84375,0.0,0.0,0.0
1695400348859,-1.4384766,-0.07128906,0.34765625,-16.75,-34.1875,24.1875,0.0,0.0,0.0
1695400348888,-1.4775391,-0.09472656,0.19921875,-55.5,-64.65625,49.125,0.0,0.0,0.0
1695400348919,-1.8876953,0.30078125,0.17285156,-91.75,-46.9375,60.0625,0.0,0.0,0.0
1695400348978,-1.3662109,0.13769531,0.23828125,9.375,-97.125,10.1875,0.0,0.0,0.0
1695400349008,-0.9472656,0.07519531,0.20410156,64.375,-99.75,-46.875,0.0,0.0,0.0
1695400349039,-1.0009766,0.16308594,0.33789062,56.03125,-135.875,-101.4375,0.0,0.0,0.0
1695400349098,-0.9716797,0.22851562,0.6220703,-69.90625,-84.125,-112.59375,0.0,0.0,0.0
1695400349130,-0.93847656,0.38964844,0.35546875,-82.34375,-75.75,-71.96875,0.0,0.0,0.0
1695400349158,-0.375,-0.13769531,0.10058594,-27.90625,-138.125,-45.40625,0.0,0.0,0.0
1695400349218,-0.62890625,-0.2421875,0.21191406,-33.09375,-94.5625,-63.59375,0.0,0.0,0.0
1695400349248,-0.49414062,-0.16210938,0.2783203,-25.53125,-55.4375,-58.34375,-54.75,-44.1875,-93.375
1695400349278,-0.3671875,-0.18066406,0.42382812,-22.40625,-41.75,-56.03125,0.0,0.0,0.0
1695400349339,-0.21386719,-0.2705078,0.40625,-25.78125,-41.34375,-40.03125,0.0,0.0,0.0
1695400349370,-0.21875,-0.4638672,0.57910156,-49.21875,-15.15625,-2.25,0.0,0.0,0.0
1695400349398,-0.36328125,-0.49804688,0.58984375,-37.625,27.5625,1.40625,0.0,0.0,0.0
1695400349461,-0.77441406,-0.54785156,0.8564453,2.375,50.03125,8.375,0.0,0.0,0.0
1695400349489,-1.4111328,-0.5078125,0.80566406,-6.53125,86.84375,20.15625,0.0,0.0,0.0
1695400349518,-1.3242188,-0.10546875,0.3017578,7.6875,186.9375,17.65625,0.0,0.0,0.0
1695400349580,-0.9667969,-0.05859375,0.33984375,101.1875,128.96875,75.375,0.0,0.0,0.0
1695400349608,-1.0097656,-0.13671875,0.23046875,64.3125,79.9375,86.125,0.0,0.0,0.0
1695400349638,-0.9160156,-0.15820312,0.036132812,28.0625,60.0,78.6875,0.0,0.0,0.0
1695400349700,-0.88378906,-0.20019531,-0.04296875,-30.71875,72.375,57.625,0.0,0.0,0.0
1695400349727,-0.93652344,-0.08300781,0.036132812,-10.03125,81.09375,44.0625,0.0,0.0,0.0
1695400349758,-0.78222656,-0.18554688,0.20898438,0.90625,67.125,45.40625,-70.1875,-39.5625,-104.125
1695400349819,-0.77246094,-0.15136719,0.18652344,-8.8125,49.25,33.09375,0.0,0.0,0.0
1695400349848,-0.79003906,-0.14550781,0.078125,18.46875,36.71875,14.53125,0.0,0.0,0.0
1695400349879,-0.8330078,-0.18847656,-0.01171875,65.53125,28.90625,-0.90625,0.0,0.0,0.0
1695400349939,-0.9160156,-0.09082031,-0.01953125,37.53125,56.75,0.6875,0.0,0.0,0.0
1695400349968,-1.1914062,0.022460938,0.13867188,16.96875,21.96875,10.1875,0.0,0.0,0.0
1695400349999,-1.4482422,-0.029296875,0.27929688,3.59375,-18.25,18.4375,0.0,0.0,0.0
1695400350061,-1.6396484,0.024414062,0.19433594,-34.0,-56.78125,33.4375,0.0,0.0,0.0
1695400350087,-1.6015625,-0.0126953125,0.3076172,-47.4375,-71.90625,13.25,0.0,0.0,0.0
1695400350118,-1.6025391,0.20507812,0.16210938,-57.875,-103.78125,13.8125,0.0,0.0,0.0
1695400350177,-0.99121094,0.030273438,0.24414062,29.84375,-122.625,-31.4375,0.0,0.0,0.0
1695400350209,-1.0292969,0.0625,0.3642578,53.9375,-166.40625,-101.25,0.0,0.0,0.0
1695400350239,-1.1074219,0.0859375,0.6035156,-68.1875,-100.34375,-119.125,-62.375,-36.4375,-96.375
1695400350297,-1.1269531,0.57421875,0.2685547,-47.75,-79.59375,-47.46875,0.0,0.0,0.0
1695400350327,-0.46875,-0.3623047,0.35839844,61.5625,-274.3125,6.71875,0.0,0.0,0.0
1695400350356,-0.5097656,-0.23535156,0.25683594,31.78125,-114.03125,-25.03125,0.0,0.0,0.0
1695400350418,-0.29296875,0.040039062,0.34375,2.5625,-65.6875,-49.1875,0.0,0.0,0.0
1695400350448,-0.16894531,0.022460938,0.44140625,-4.90625,-6.90625,-46.1875,0.0,0.0,0.0
1695400350478,-0.1796875,-0.14648438,0.46972656,-38.65625,-12.34375,-18.25,0.0,0.0,0.0
1695400350539,-0.25976562,-0.37109375,0.59277344,-57.375,15.375,-2.75,0.0,0.0,0.0
1695400350568,-0.34179688,-0.44628906,0.5517578,-62.28125,42.21875,-3.53125,0.0,0.0,0.0
1695400350600,-0.7050781,-0.45507812,0.7636719,-26.3125,68.28125,-1.75,0.0,0.0,0.0
1695400350658,-1.7939453,-0.3876953,1.125,-48.09375,67.5,47.6875,0.0,0.0,0.0
1695400350688,-1.1943359,-0.076171875,0.4609375,30.03125,160.75,20.8125,0.0,0.0,0.0
1695400350717,-0.9589844,-0.0146484375,0.3310547,111.9375,74.03125,30.8125,0.0,0.0,0.0
1695400350778,-0.9794922,-0.091796875,0.31933594,45.65625,68.21875,48.40625,-57.0,-41.1875,-91.875
1695400350808,-0.8798828,-0.08984375,0.19921875,-14.71875,92.75,53.84375,0.0,0.0,0.0
1695400350870,-0.921875,-0.09765625,0.13183594,-30.59375,77.1875,59.8125,0.0,0.0,0.0
1695400350898,-0.9433594,-0.10546875,0.203125,-24.25,74.5,62.1875,0.0,0.0,0.0
1695400350928,-0.8095703,-0.07324219,0.23535156,-18.6875,65.46875,37.71875,0.0,0.0,0.0
1695400350958,-0.7939453,-0.09375,0.171875,8.65625,34.53125,16.4375,0.0,0.0,0.0
1695400351018,-0.89160156,-0.11035156,0.27246094,21.65625,12.8125,12.875,0.0,0.0,0.0
1695400351047,-1.0175781,-0.15234375,0.25976562,9.3125,36.84375,17.875,0.0,0.0,0.0
1695400351077,-1.2666016,-0.23046875,0.16796875,-16.375,47.84375,10.625,0.0,0.0,0.0
1695400351137,-1.3496094,-0.25195312,0.2607422,-39.875,49.5625,55.25,0.0,0.0,0.0
1695400351167,-1.4824219,-0.08984375,0.42382812,-30.53125,7.96875,70.8125,0.0,0.0,0.0
1695400351198,-1.2695312,0.2607422,0.38671875,31.0625,-50.625,20.09375,0.0,0.0,0.0
1695400351258,-1.1015625,0.24707031,0.3125,58.59375,-126.21875,-34.96875,-69.625,-32.1875,-100.875
1695400351287,-1.1826172,0.16894531,0.3125,42.90625,-156.1875,-67.875,0.0,0.0,0.0
1695400351318,-1.0927734,0.111328125,0.32910156,-6.53125,-160.15625,-86.1875,0.0,0.0,0.0
1695400351378,-0.98828125,0.35351562,0.3251953,-94.875,-116.78125,-57.625,0.0,0.0,0.0
1695400351407,-0.6972656,0.25390625,0.2734375,-92.0,-114.875,-6.90625,0.0,0.0,0.0
1695400351436,-0.4091797,-0.2421875,0.2421875,-11.90625,-101.5625,-19.65625,0.0,0.0,0.0
1695400351498,-0.5048828,-0.24316406,0.5214844,-74.09375,-58.78125,-40.59375,0.0,0.0,0.0
1695400351528,-0.40429688,-0.265625,0.53125,-40.21875,-54.03125,-72.25,0.0,0.0,0.0
1695400351557,-0.28808594,-0.23144531,0.43847656,3.03125,-51.84375,-66.78125,0.0,0.0,0.0
1695400351617,-0.28027344,-0.32714844,0.43652344,-8.96875,-7.59375,-30.875,0.0,0.0,0.0
1695400351649,-0.2607422,-0.41796875,0.5527344,-30.78125,26.59375,-4.875,0.0,0.0,0.0
1695400351676,-0.3955078,-0.44628906,0.77734375,-7.875,67.25,-1.71875,0.0,0.0,0.0
1695400351766,-0.8623047,-0.5029297,0.90722656,29.28125,75.65625,24.96875,-46.1875,-48.25,-87.9375
1695400351798,-1.3740234,-0.30273438,0.61816406,-14.0625,103.6875,14.78125,0.0,0.0,0.0
1695400351800,-1.0605469,0.029296875,0.25976562,43.03125,147.21875,27.28125,0.0,0.0,0.0
1695400351888,-0.8955078,-0.033203125,0.2734375,73.59375,99.40625,61.90625,0.0,0.0,0.0
1695400351892,-0.91503906,-0.1171875,0.25195312,16.71875,90.625,64.09375,0.0,0.0,0.0
1695400351923,-0.8388672,-0.099609375,0.09863281,-27.78125,89.84375,61.03125,0.0,0.0,0.0
1695400351978,-0.9511719,-0.072265625,0.10839844,-26.8125,74.75,70.9375,0.0,0.0,0.0
1695400352009,-1.0009766,-0.17871094,0.123046875,17.6875,80.75,75.5625,0.0,0.0,0.0
1695400352037,-0.9082031,-0.18457031,0.19140625,-15.5625,92.09375,35.28125,0.0,0.0,0.0
1695400352097,-0.85253906,-0.109375,0.13769531,17.5,54.5,0.25,0.0,0.0,0.0
1695400352129,-0.828125,-0.060546875,0.123046875,57.125,29.46875,-11.40625,0.0,0.0,0.0
1695400352158,-0.9345703,-0.043945312,0.07910156,72.375,29.28125,-7.625,0.0,0.0,0.0
1695400352247,-1.2119141,-0.08203125,0.14550781,21.03125,33.1875,15.9375,-72.125,-36.125,-103.5625
1695400352251,-1.5,-0.15625,0.38085938,-23.9375,-14.71875,14.71875,0.0,0.0,0.0
1695400352277,-1.5517578,-0.05078125,0.3642578,-35.90625,-56.46875,20.5,0.0,0.0,0.0
1695400352339,-1.3652344,0.22949219,0.3232422,-40.53125,-49.03125,36.6875,0.0,0.0,0.0
1695400352369,-1.2138672,0.234375,0.3046875,-40.96875,-73.25,-10.0,0.0,0.0,0.0
1695400352398,-1.1621094,0.20996094,0.14746094,-31.3125,-120.375,-44.84375,0.0,0.0,0.0
1695400352487,-1.0078125,0.18261719,0.20019531,-52.875,-108.09375,-84.71875,0.0,0.0,0.0
1695400352490,-0.9638672,0.09375,0.3017578,-83.3125,-107.6875,-63.96875,0.0,0.0,0.0
1695400352519,-1.078125,0.06933594,0.3388672,-55.5,-92.96875,-46.5625,0.0,0.0,0.0
1695400352579,-0.47558594,-0.25,0.2607422,-13.375,-45.0,-81.0625,0.0,0.0,0.0
1695400352608,-0.5957031,-0.35058594,0.3486328,29.53125,-86.6875,-90.03125,0.0,0.0,0.0
1695400352638,-0.3701172,-0.24902344,0.36816406,54.0625,-47.4375,-35.6875,0.0,0.0,0.0
1695400352701,-0.24414062,-0.20507812,0.36621094,41.1875,-34.875,-32.09375,0.0,0.0,0.0
1695400352729,-0.29492188,-0.16210938,0.4375,12.8125,-19.46875,-25.4375,0.0,0.0,0.0
1695400352757,-0.3671875,-0.30371094,0.4580078,-9.96875,7.625,-4.5625,-49.625,-49.1875,-88.5625
1695400352819,-0.54296875,-0.47753906,0.79785156,-23.3125,39.0625,12.28125,0.0,0.0,0.0
1695400352846,-1.8037109,-0.5107422,1.0283203,10.90625,7.96875,11.90625,0.0,0.0,0.0
1695400352878,-1.1474609,-0.051757812,0.33691406,-26.5625,135.1875,1.53125,0.0,0.0,0.0
1695400352939,-0.9550781,0.057617188,0.30566406,92.34375,62.65625,50.90625,0.0,0.0,0.0
1695400352969,-1.0332031,-0.13476562,0.25195312,82.5625,63.65625,52.0625,0.0,0.0,0.0
1695400353000,-0.9082031,-0.046875,0.13964844,-1.15625,112.28125,37.53125,0.0,0.0,0.0
1695400353058,-0.93847656,-0.12792969,0.14550781,-11.59375,89.03125,55.96875,0.0,0.0,0.0
1695400353087,-0.9628906,-0.1640625,0.19628906,0.84375,81.03125,50.0625,0.0,0.0,0.0
1695400353160,-0.89941406,-0.12011719,0.17675781,18.53125,66.21875,37.40625,0.0,0.0,0.0
1695400353178,-0.80371094,-0.125,0.18066406,21.46875,44.25,4.78125,0.0,0.0,0.0
1695400353208,-0.8613281,-0.047851562,0.14941406,27.40625,41.5,0.625,0.0,0.0,0.0
1695400353240,-1.0429688,-0.022460938,0.08886719,18.375,49.96875,-5.1875,-71.5625,-39.4375,-102.9375
1695400353299,-1.0791016,-0.1015625,0.17285156,-15.8125,41.25,22.21875,0.0,0.0,0.0
1695400353330,-1.2216797,-0.16894531,0.35839844,-45.84375,18.59375,21.78125,0.0,0.0,0.0
1695400353358,-1.4013672,-0.18554688,0.37109375,-28.28125,-23.5,39.1875,0.0,0.0,0.0
1695400353418,-1.5751953,0.10253906,0.3544922,-27.28125,-34.375,47.6875,0.0,0.0,0.0
1695400353449,-1.3935547,0.25390625,0.31152344,-14.40625,-77.21875,3.96875,0.0,0.0,0.0
1695400353478,-1.0693359,0.20898438,0.20605469,-1.46875,-89.0625,-30.03125,0.0,0.0,0.0
1695400353541,-1.0703125,0.24023438,0.26171875,5.78125,-114.8125,-70.125,0.0,0.0,0.0
1695400353568,-0.9482422,0.22558594,0.46972656,-36.03125,-113.34375,-83.0625,0.0,0.0,0.0
1695400353599,-0.9082031,0.18164062,0.43652344,-80.28125,-62.625,-51.625,0.0,0.0,0.0
1695400353662,-0.77441406,-0.016601562,0.21582031,-51.59375,-93.21875,-38.5625,0.0,0.0,0.0
1695400353690,-0.49804688,-0.1171875,0.16308594,-7.53125,-90.21875,-77.3125,0.0,0.0,0.0
1695400353719,-0.7285156,-0.109375,0.41210938,-28.875,-44.4375,-60.125,0.0,0.0,0.0
1695400353781,-0.41210938,-0.1796875,0.3984375,-15.46875,-56.46875,-21.125,-53.25,-47.8125,-93.375
1695400353809,-0.3154297,-0.3076172,0.36132812,-16.3125,-58.78125,-44.625,0.0,0.0,0.0
1695400353839,-0.3076172,-0.36816406,0.43164062,-9.53125,-8.0625,-38.5,0.0,0.0,0.0
1695400353900,-0.2578125,-0.42285156,0.5830078,-26.0,19.53125,-18.125,0.0,0.0,0.0
1695400353929,-0.32714844,-0.33398438,0.7011719,-8.0,11.34375,-26.53125,0.0,0.0,0.0
1695400353958,-1.0253906,-0.5410156,1.0126953,-7.8125,19.21875,-24.84375,0.0,0.0,0.0
1695400354019,-1.3164062,-0.4375,0.5019531,-7.53125,86.96875,35.96875,0.0,0.0,0.0
1695400354047,-1.3017578,-0.11621094,0.3515625,-19.125,133.90625,46.5625,0.0,0.0,0.0
1695400354078,-0.9375,-0.171875,0.33789062,44.0625,104.0625,83.625,0.0,0.0,0.0
1695400354136,-0.8720703,-0.24511719,0.23730469,11.59375,41.8125,82.21875,0.0,0.0,0.0
1695400354168,-0.8457031,-0.2685547,0.20117188,-21.5625,42.90625,65.625,0.0,0.0,0.0
1695400354197,-0.85253906,-0.19335938,-0.09863281,-14.84375,94.90625,45.65625,0.0,0.0,0.0
1695400354260,-1.0263672,-0.0859375,-0.049804688,-24.25,98.1875,52.75,-66.875,-46.3125,-103.125
1695400354288,-0.7832031,-0.15527344,0.2890625,7.625,64.25,50.1875,0.0,0.0,0.0
1695400354318,-0.76464844,-0.15625,0.31445312,40.9375,46.3125,38.34375,0.0,0.0,0.0
1695400354380,-0.83691406,-0.14257812,0.22460938,38.1875,17.5,24.125,0.0,0.0,0.0
1695400354408,-0.9433594,-0.109375,0.10546875,28.375,15.84375,10.125,0.0,0.0,0.0
1695400354440,-1.0849609,-0.09765625,0.0029296875,-17.03125,17.4375,12.59375,0.0,0.0,0.0
1695400354501,-1.2851562,-0.14648438,0.11425781,-35.90625,20.6875,20.40625,0.0,0.0,0.0
1695400354530,-1.5771484,-0.18652344,0.2607422,-38.65625,38.6875,65.125,0.0,0.0,0.0
1695400354559,-1.3701172,-0.2607422,0.5332031,-37.25,3.96875,76.59375,0.0,0.0,0.0
1695400354618,-1.3652344,-0.01171875,0.34570312,-6.375,-29.0,26.96875,0.0,0.0,0.0
1695400354648,-1.2626953,0.15527344,0.15917969,42.28125,-72.8125,-25.6875,0.0,0.0,0.0
1695400354678,-0.9765625,0.119140625,0.25976562,31.53125,-126.125,-76.65625,0.0,0.0,0.0
1695400354741,-1.0234375,0.25878906,0.140625,31.65625,-107.0,-97.28125,0.0,0.0,0.0
1695400354769,-0.9628906,0.21386719,0.30566406,-66.53125,-108.09375,-89.28125,-66.875,-40.3125,-100.6875
1695400354799,-0.9238281,0.17382812,0.29296875,-79.46875,-110.78125,-45.40625,0.0,0.0,0.0
1695400354860,-0.9472656,0.037109375,0.2265625,-37.25,-107.4375,-36.75,0.0,0.0,0.0
1695400354888,-0.5917969,-0.44335938,0.30371094,8.53125,-59.875,-38.4375,0.0,0.0,0.0
1695400354918,-0.63964844,-0.37695312,0.46679688,-41.15625,-32.125,-86.96875,0.0,0.0,0.0
1695400354979,-0.4345703,-0.33007812,0.44921875,2.4375,-48.21875,-70.25,0.0,0.0,0.0
1695400355008,-0.296875,-0.24511719,0.3359375,18.59375,-56.15625,-59.875,0.0,0.0,0.0
1695400355039,-0.31347656,-0.32226562,0.4345703,6.21875,-14.96875,-35.59375,0.0,0.0,0.0
1695400355098,-0.3125,-0.38476562,0.4970703,-15.8125,8.28125,-11.09375,0.0,0.0,0.0
1695400355129,-0.46484375,-0.46289062,0.80078125,-4.40625,35.09375,7.8125,0.0,0.0,0.0
1695400355158,-1.2333984,-0.53222656,0.95996094,37.90625,43.75,79.96875,0.0,0.0,0.0
1695400355222,-1.296875,-0.26171875,0.3310547,-38.46875,155.875,37.0625,0.0,0.0,0.0
1695400355247,-1.0927734,0.064453125,0.22265625,51.9375,153.84375,67.375,-56.25,-49.0,-98.0
1695400355278,-0.9902344,-0.11621094,0.17675781,61.625,98.625,90.59375,0.0,0.0,0.0
1695400355342,-0.8652344,-0.16308594,0.16308594,-0.75,60.46875,72.75,0.0,0.0,0.0
1695400355368,-0.8691406,-0.20703125,0.07324219,-24.0625,43.1875,53.03125,0.0,0.0,0.0
1695400355426,-0.99609375,-0.19824219,0.076171875,-2.34375,82.25,75.375,0.0,0.0,0.0
1695400355459,-0.7558594,-0.099609375,0.14941406,60.40625,56.875,49.1875,0.0,0.0,0.0
1695400355488,-0.7519531,-0.051757812,0.22558594,61.5625,28.5625,15.1875,0.0,0.0,0.0
1695400355517,-0.84277344,-0.0048828125,0.25390625,45.46875,-9.59375,-13.71875,0.0,0.0,0.0
1695400355578,-1.1425781,-0.18359375,0.13183594,-6.65625,28.5625,-28.9375,0.0,0.0,0.0
1695400355607,-1.6318359,-0.08105469,0.123046875,-51.65625,91.46875,61.03125,0.0,0.0,0.0
1695400355638,-1.7431641,-0.18945312,0.3798828,-45.375,53.53125,65.6875,0.0,0.0,0.0
1695400355667,-1.4589844,-0.23046875,0.34570312,-9.59375,-3.84375,-8.71875,0.0,0.0,0.0
1695400355728,-0.9746094,0.15820312,0.33203125,28.3125,-82.03125,-36.3125,0.0,0.0,0.0
1695400355758,-1.1005859,0.29785156,0.41308594,47.78125,-169.5625,-52.65625,-72.625,-39.4375,-104.3125
1695400355786,-1.1503906,0.25390625,0.14257812,6.53125,-139.34375,-72.9375,0.0,0.0,0.0
1695400355849,-0.8847656,0.1484375,0.14550781,-131.84375,-138.4375,-84.15625,0.0,0.0,0.0
1695400355878,-1.0664062,0.22949219,0.046875,-125.0625,-85.15625,-22.9375,0.0,0.0,0.0
1695400355908,-0.7314453,-0.06640625,0.2109375,-16.25,6.75,-48.21875,0.0,0.0,0.0
1695400355969,-0.55859375,-0.49121094,0.30859375,-111.46875,-10.28125,-112.53125,0.0,0.0,0.0
1695400356001,-0.5996094,-0.34765625,0.48046875,-38.65625,-71.84375,-115.53125,0.0,0.0,0.0
1695400356027,-0.46289062,-0.32421875,0.234375,38.0625,-69.53125,-73.0625,0.0,0.0,0.0
1695400356089,-0.27539062,-0.42871094,0.24707031,18.53125,-23.75,-26.25,0.0,0.0,0.0
1695400356118,-0.13378906,-0.47460938,0.31054688,-30.59375,5.46875,9.84375,0.0,0.0,0.0
1695400356148,-0.265625,-0.49902344,0.76171875,-0.1875,3.78125,32.90625,0.0,0.0,0.0
1695400356210,-1.0566406,-0.7480469,0.9550781,57.125,-14.46875,41.625,0.0,0.0,0.0
1695400356238,-1.3574219,-0.38476562,0.15429688,-23.09375,195.0,29.0625,-51.4375,-54.25,-97.875
1695400356268,-1.0986328,0.095703125,0.18457031,79.8125,136.875,68.0625,0.0,0.0,0.0
1695400356328,-0.9091797,-0.125,0.23144531,95.9375,59.375,92.96875,0.0,0.0,0.0
1695400356358,-0.8964844,-0.12207031,0.12011719,2.78125,27.6875,87.40625,0.0,0.0,0.0
1695400356387,-0.9267578,-0.1796875,0.041015625,-40.78125,38.5625,77.28125,0.0,0.0,0.0
1695400356452,-0.85253906,-0.18066406,-0.0390625,-32.0,60.71875,55.5625,0.0,0.0,0.0
1695400356480,-0.8339844,-0.08984375,0.10058594,-5.125,60.65625,54.3125,0.0,0.0,0.0
1695400356508,-0.6376953,-0.0625,0.25390625,9.5625,46.9375,9.53125,0.0,0.0,0.0
1695400356569,-0.59472656,-0.049804688,0.1640625,50.90625,5.90625,-18.96875,0.0,0.0,0.0
1695400356598,-0.6748047,-0.09472656,0.18164062,56.09375,-27.0,-25.1875,0.0,0.0,0.0
1695400356628,-0.99316406,-0.16699219,0.2421875,13.0625,-22.40625,1.96875,0.0,0.0,0.0
1695400356688,-1.4208984,-0.14355469,0.14941406,-47.625,16.21875,23.0,0.0,0.0,0.0
1695400356719,-2.0,-0.4951172,0.29589844,-70.4375,47.59375,82.9375,0.0,0.0,0.0
1695400356778,-1.8769531,-0.54296875,0.60839844,-70.8125,55.65625,146.125,-70.8125,-41.8125,-106.375
1695400356808,-1.4609375,-0.27246094,0.61035156,2.84375,-18.1875,80.9375,0.0,0.0,0.0
1695400356837,-1.2597656,0.12402344,0.32226562,98.375,-53.0625,-8.25,0.0,0.0,0.0
1695400356927,-0.74609375,0.26367188,0.016601562,149.40625,-74.0,-89.15625,0.0,0.0,0.0
1695400356929,-0.7919922,0.27148438,0.00390625,115.78125,-116.59375,-106.5625,0.0,0.0,0.0
1695400356956,-0.8339844,0.3935547,0.32128906,-3.625,-107.375,-92.59375,0.0,0.0,0.0
1695400356992,-0.8535156,0.3701172,0.2626953,-86.375,-68.4375,-51.21875,0.0,0.0,0.0
1695400357049,-0.77246094,0.21582031,0.12988281,-114.40625,-102.78125,-23.0625,0.0,0.0,0.0
1695400357076,-0.4951172,-0.18261719,0.052734375,-62.8125,-82.71875,-64.5,0.0,0.0,0.0
1695400357107,-0.6875,-0.29101562,0.28027344,-55.3125,-40.21875,-74.40625,0.0,0.0,0.0
1695400357166,-0.5205078,-0.29492188,0.53222656,-16.6875,-15.03125,-70.75,0.0,0.0,0.0
1695400357199,-0.3828125,-0.4033203,0.53027344,14.9375,-31.125,-73.46875,0.0,0.0,0.0
1695400357258,-0.39746094,-0.5361328,0.3486328,3.96875,-34.625,-41.625,-52.375,-52.3125,-93.9375
1695400357288,-0.39648438,-0.58691406,0.36035156,-43.03125,0.53125,-19.84375,0.0,0.0,0.0
1695400357318,-0.4169922,-0.5185547,0.6621094,-25.53125,28.4375,-19.09375,0.0,0.0,0.0
1695400357350,-0.9199219,-0.38671875,0.9423828,64.875,39.0625,18.8125,0.0,0.0,0.0
1695400357410,-1.5009766,-0.3642578,0.3671875,5.125,176.6875,8.625,0.0,0.0,0.0
1695400357437,-1.1445312,0.1171875,0.10058594,63.71875,145.4375,51.75,0.0,0.0,0.0
1695400357469,-0.9482422,-0.07519531,0.2109375,98.875,83.0625,91.5625,0.0,0.0,0.0
1695400357527,-0.93652344,-0.13085938,0.234375,6.8125,65.46875,85.75,0.0,0.0,0.0
1695400357557,-0.9042969,-0.10546875,0.06738281,-22.15625,22.4375,70.5,0.0,0.0,0.0
1695400357588,-0.9824219,-0.19628906,0.02734375,-2.6875,54.125,61.53125,0.0,0.0,0.0
1695400357647,-0.83984375,-0.10546875,0.05078125,-10.5625,68.46875,28.6875,0.0,0.0,0.0
1695400357708,-0.8310547,-0.13085938,0.2109375,3.78125,31.3125,2.75,0.0,0.0,0.0
1695400357712,-0.85253906,-0.06738281,0.2919922,38.25,-1.0625,-23.125,0.0,0.0,0.0
1695400357767,-0.953125,-0.18066406,0.28125,52.71875,-7.59375,-31.625,-71.125,-42.875,-104.875
1695400357798,-1.5166016,-9.765625E-4,0.0078125,-21.375,50.59375,28.875,0.0,0.0,0.0
1695400357834,-1.6660156,-0.24023438,0.1015625,-49.28125,83.84375,121.03125,0.0,0.0,0.0
1695400357887,-1.4160156,-0.40527344,0.43066406,-34.625,56.5,74.09375,0.0,0.0,0.0
1695400357918,-1.3242188,0.06347656,0.44335938,15.0625,-6.1875,7.375,0.0,0.0,0.0
1695400357948,-1.1044922,0.24023438,0.2734375,65.0,-76.5,-28.9375,0.0,0.0,0.0
1695400358007,-1.1416016,0.33203125,0.17480469,37.90625,-154.90625,-80.125,0.0,0.0,0.0
1695400358038,-1.0703125,0.21875,0.06542969,-9.03125,-147.34375,-95.34375,0.0,0.0,0.0
1695400358068,-0.94921875,0.20507812,0.20507812,-127.40625,-147.90625,-93.0625,0.0,0.0,0.0
1695400358127,-0.77441406,0.18847656,0.12207031,-110.1875,-111.875,-33.5,0.0,0.0,0.0
1695400358158,-0.6933594,-0.05859375,0.24902344,-32.0,-116.96875,-23.25,0.0,0.0,0.0
1695400358189,-0.46289062,-0.2861328,0.25097656,7.125,-21.8125,-46.75,0.0,0.0,0.0
1695400358246,-0.5283203,-0.36035156,0.55566406,-48.15625,-37.625,-78.25,-57.4375,-51.875,-95.3125
1695400358280,-0.3720703,-0.3154297,0.44140625,-4.59375,-55.0625,-64.25,0.0,0.0,0.0
1695400358309,-0.3720703,-0.45898438,0.36816406,15.75,-29.96875,-26.78125,0.0,0.0,0.0
1695400358366,-0.32714844,-0.5185547,0.48046875,-5.1875,12.125,-1.03125,0.0,0.0,0.0
1695400358397,-0.37597656,-0.44921875,0.90234375,-16.78125,31.375,-1.59375,0.0,0.0,0.0
1695400358428,-0.9814453,-0.5595703,1.0458984,21.09375,10.84375,22.78125,0.0,0.0,0.0
1695400358487,-1.2900391,-0.23925781,0.16503906,-46.59375,217.46875,13.90625,0.0,0.0,0.0
1695400358517,-1.0732422,0.059570312,0.17382812,87.03125,132.0,91.5625,0.0,0.0,0.0
1695400358547,-0.98828125,-0.07421875,0.2109375,87.875,84.15625,101.75,0.0,0.0,0.0
1695400358606,-0.81640625,-0.1484375,0.10644531,-7.8125,49.0625,90.03125,0.0,0.0,0.0
1695400358640,-0.98828125,-0.14648438,-0.001953125,-43.53125,11.46875,63.125,0.0,0.0,0.0
1695400358668,-0.94140625,-0.13574219,-0.034179688,-17.28125,57.53125,50.40625,0.0,0.0,0.0
1695400358727,-0.81640625,-0.15625,0.16503906,1.4375,62.84375,29.96875,0.0,0.0,0.0
1695400358758,-0.7402344,-0.038085938,0.24902344,12.9375,51.375,0.8125,-72.125,-44.0625,-106.6875
1695400358788,-0.76171875,-0.034179688,0.20410156,45.875,15.4375,-6.9375,0.0,0.0,0.0
1695400358847,-0.95214844,-0.115234375,0.24121094,30.625,-2.46875,-20.4375,0.0,0.0,0.0
1695400358882,-1.4658203,-0.107421875,0.16015625,-37.90625,42.46875,3.65625,0.0,0.0,0.0
1695400358908,-1.921875,-0.25683594,0.15429688,-52.3125,83.3125,92.09375,0.0,0.0,0.0
1695400358967,-1.3730469,-0.5419922,0.53222656,-38.78125,42.28125,96.8125,0.0,0.0,0.0
1695400358999,-1.2783203,-0.20410156,0.5214844,13.15625,-15.15625,5.4375,0.0,0.0,0.0
1695400359027,-1.0097656,0.14648438,0.24804688,55.53125,-90.90625,-35.75,0.0,0.0,0.0
1695400359087,-1.0849609,0.1640625,0.19433594,63.28125,-159.125,-79.9375,0.0,0.0,0.0
1695400359120,-1.1679688,0.18554688,0.041015625,29.34375,-138.25,-92.84375,0.0,0.0,0.0
1695400359155,-1.1708984,0.32128906,0.23632812,-89.625,-121.59375,-66.9375,0.0,0.0,0.0
1695400359208,-0.81152344,0.328125,0.03515625,-86.875,-121.53125,-10.625,0.0,0.0,0.0
1695400359238,-0.53125,-0.034179688,0.15527344,-68.5,-115.6875,-26.25,-62.25,-49.1875,-95.75
1695400359268,-0.6074219,-0.27441406,0.3095703,-31.03125,-45.125,-48.15625,0.0,0.0,0.0
1695400359327,-0.5078125,-0.4609375,0.53125,-48.78125,-39.9375,-73.46875,0.0,0.0,0.0
1695400359361,-0.390625,-0.3466797,0.50390625,-6.0,-40.71875,-77.625,0.0,0.0,0.0
1695400359389,-0.37695312,-0.4638672,0.4375,24.59375,-19.71875,-25.9375,0.0,0.0,0.0
1695400359447,-0.2783203,-0.5263672,0.40527344,-7.59375,6.40625,1.71875,0.0,0.0,0.0
1695400359478,-0.3203125,-0.5097656,0.6201172,-23.3125,35.09375,-4.9375,0.0,0.0,0.0
1695400359509,-0.84765625,-0.5019531,0.8964844,25.375,19.28125,9.09375,0.0,0.0,0.0
1695400359566,-1.21875,-0.20410156,0.10644531,-11.71875,201.53125,0.3125,0.0,0.0,0.0
1695400359597,-1.1054688,0.05859375,0.16699219,102.71875,90.625,92.21875,0.0,0.0,0.0
1695400359628,-0.95996094,-0.05078125,0.19726562,123.875,98.625,107.5625,0.0,0.0,0.0
1695400359686,-0.9580078,-0.061523438,0.20214844,26.1875,81.28125,69.78125,0.0,0.0,0.0
1695400359718,-0.78222656,-0.12207031,0.12597656,-23.5625,27.5,55.3125,0.0,0.0,0.0
1695400359777,-1.0771484,-0.21386719,0.08886719,-8.375,18.53125,43.21875,-65.6875,-43.625,-101.125
1695400359808,-0.99609375,-0.10644531,0.12597656,13.78125,53.625,16.375,0.0,0.0,0.0
1695400359839,-0.9042969,-0.060546875,0.31835938,24.78125,20.0625,5.1875,0.0,0.0,0.0
1695400359869,-0.8378906,-0.11425781,0.33789062,54.3125,14.46875,-19.21875,0.0,0.0,0.0
1695400359927,-1.9023438,-0.045898438,0.19140625,-20.40625,65.40625,12.8125,0.0,0.0,0.0
1695400359987,-1.5283203,-0.061523438,0.3828125,-19.78125,97.34375,99.5,0.0,0.0,0.0
1695400359991,-1.203125,-0.44921875,0.4716797,18.53125,70.1875,65.96875,0.0,0.0,0.0
1695400360050,-1.0029297,-0.33007812,0.3251953,6.21875,-4.53125,-8.53125,0.0,0.0,0.0
1695400360078,-0.8925781,0.2529297,0.20507812,23.3125,-70.15625,-52.90625,0.0,0.0,0.0
1695400360108,-1.0175781,0.29785156,0.20019531,43.03125,-145.75,-61.75,0.0,0.0,0.0
1695400360169,-1.1884766,0.24609375,0.25195312,19.59375,-169.1875,-74.8125,0.0,0.0,0.0
1695400360200,-1.1376953,0.21777344,0.16992188,-78.8125,-111.46875,-89.40625,0.0,0.0,0.0
1695400360259,-0.765625,0.27148438,0.033203125,-107.96875,-95.03125,-44.0625,-62.6875,-40.9375,-96.5
1695400360290,-0.7402344,-0.056640625,0.17871094,-97.3125,-106.625,-38.5625,0.0,0.0,0.0
1695400360318,-0.82128906,-0.47265625,0.4248047,-12.03125,-3.625,-48.875,0.0,0.0,0.0
1695400360351,-0.5644531,-0.47558594,0.7080078,-67.625,-43.34375,-58.28125,0.0,0.0,0.0
1695400360409,-0.45703125,-0.4560547,0.578125,-17.59375,-56.90625,-64.03125,0.0,0.0,0.0
1695400360439,-0.4111328,-0.49316406,0.4404297,16.21875,-21.5625,-28.5625,0.0,0.0,0.0
1695400360467,-0.2607422,-0.5439453,0.38378906,-8.5,13.96875,3.25,0.0,0.0,0.0
1695400360529,-0.26660156,-0.41503906,0.52246094,-10.8125,36.4375,10.75,0.0,0.0,0.0
1695400360558,-0.80078125,-0.28808594,0.75,29.78125,28.0625,20.625,0.0,0.0,0.0
1695400360588,-1.2763672,-0.39257812,0.30664062,10.1875,128.09375,11.125,0.0,0.0,0.0
1695400360650,-1.0820312,0.19140625,0.026367188,49.84375,111.3125,32.21875,0.0,0.0,0.0
1695400360679,-1.2324219,0.0,0.10253906,95.15625,82.625,78.625,0.0,0.0,0.0
1695400360707,-1.0400391,-0.18457031,0.07421875,45.71875,54.8125,65.3125,0.0,0.0,0.0
1695400360768,-1.1171875,-0.11425781,0.22265625,-7.6875,78.1875,37.59375,-62.6875,-43.4375,-97.125
1695400360799,-0.8955078,-0.16699219,0.234375,-2.03125,72.25,39.1875,0.0,0.0,0.0
1695400360829,-0.7783203,-0.07714844,0.19824219,5.1875,57.71875,34.78125,0.0,0.0,0.0
1695400360890,-0.66503906,-0.13378906,0.11425781,19.28125,37.34375,38.625,0.0,0.0,0.0
1695400360919,-0.8046875,-0.087890625,0.119140625,-2.21875,33.125,9.65625,0.0,0.0,0.0
1695400360947,-0.93066406,-0.16894531,0.22851562,-27.78125,36.96875,11.28125,0.0,0.0,0.0
1695400361009,-1.0654297,-0.17773438,0.36035156,-46.34375,33.9375,39.3125,0.0,0.0,0.0
1695400361039,-1.375,-0.24023438,0.35351562,-35.03125,21.96875,55.59375,0.0,0.0,0.0
1695400361068,-1.4833984,-0.23046875,0.42285156,-27.59375,7.6875,44.4375,0.0,0.0,0.0
1695400361128,-1.4833984,-0.087890625,0.37304688,4.6875,-31.09375,20.03125,0.0,0.0,0.0
1695400361158,-1.1396484,0.099609375,0.23046875,26.28125,-90.90625,-11.34375,0.0,0.0,0.0
1695400361189,-1.2246094,0.20800781,0.4111328,11.46875,-129.28125,-59.6875,0.0,0.0,0.0
1695400361250,-1.2382812,0.15625,0.18652344,18.1875,-100.78125,-93.0,-67.375,-38.5,-100.25
1695400361285,-1.0351562,0.12402344,0.24511719,-77.71875,-91.1875,-98.03125,0.0,0.0,0.0
1695400361308,-0.7988281,0.140625,0.15039062,-64.03125,-69.96875,-32.34375,0.0,0.0,0.0
1695400361370,-0.71875,0.0068359375,0.15429688,-55.0625,-50.0625,-11.53125,0.0,0.0,0.0
1695400361399,-0.6689453,-0.20507812,0.31152344,-59.09375,-26.3125,-79.9375,0.0,0.0,0.0
1695400361427,-0.56152344,-0.42871094,0.4169922,-58.78125,-36.5,-105.90625,0.0,0.0,0.0
1695400361489,-0.42382812,-0.42285156,0.28710938,-4.90625,-60.125,-79.21875,0.0,0.0,0.0
1695400361518,-0.34765625,-0.44726562,0.20117188,8.34375,-26.8125,-50.34375,0.0,0.0,0.0
1695400361548,-0.28808594,-0.43652344,0.40234375,13.46875,2.5625,-32.46875,0.0,0.0,0.0
1695400361609,-0.34375,-0.40234375,0.45898438,10.25,11.53125,-21.0625,0.0,0.0,0.0
1695400361638,-0.55859375,-0.5136719,0.89746094,21.46875,17.875,-4.625,0.0,0.0,0.0
1695400361668,-1.4990234,-0.6933594,0.9482422,48.09375,15.625,50.1875,0.0,0.0,0.0
1695400361729,-1.3789062,-0.35839844,0.28808594,-23.625,149.09375,19.0,0.0,0.0,0.0
1695400361758,-1.0761719,-0.13574219,0.16894531,69.8125,126.625,62.3125,-54.4375,-52.3125,-96.375
1695400361788,-0.9482422,-0.15234375,0.21289062,38.75,90.5625,73.6875,0.0,0.0,0.0
1695400361848,-0.85058594,-0.1640625,0.10839844,4.03125,26.0625,61.90625,0.0,0.0,0.0
1695400361881,-0.89941406,-0.24902344,9.765625E-4,-16.3125,20.625,60.5625,0.0,0.0,0.0
1695400361908,-0.9267578,-0.22949219,-0.053710938,12.4375,64.6875,59.5,0.0,0.0,0.0
1695400361969,-0.94433594,-0.049804688,0.09082031,-24.5,56.5,18.0,0.0,0.0,0.0
1695400361998,-0.7158203,-0.11621094,0.2998047,-5.25,35.4375,19.21875,0.0,0.0,0.0
1695400362029,-0.75390625,-0.15136719,0.24316406,38.5625,13.71875,7.15625,0.0,0.0,0.0
1695400362090,-0.875,-0.20019531,0.22753906,18.53125,15.75,-12.09375,0.0,0.0,0.0
1695400362120,-1.0673828,-0.21582031,0.12109375,8.90625,38.5,-4.4375,0.0,0.0,0.0
1695400362148,-1.2949219,-0.21679688,0.109375,-31.375,25.75,29.4375,0.0,0.0,0.0
1695400362208,-1.6318359,-0.35058594,0.25,-54.625,34.59375,101.375,0.0,0.0,0.0
1695400362267,-1.4589844,-0.3857422,0.48632812,-29.8125,18.375,92.15625,-71.5625,-41.8125,-104.3125
1695400362269,-1.4228516,-0.048828125,0.41210938,4.9375,-30.84375,37.40625,0.0,0.0,0.0
1695400362330,-1.1845703,0.051757812,0.23925781,42.09375,-71.375,-32.21875,0.0,0.0,0.0
1695400362360,-0.9951172,0.07128906,0.2626953,38.25,-118.96875,-97.09375,0.0,0.0,0.0
1695400362389,-1.0751953,0.13085938,0.2529297,19.21875,-138.5,-124.5,0.0,0.0,0.0
1695400362451,-1.0400391,0.1171875,0.3076172,-57.09375,-107.6875,-112.96875,0.0,0.0,0.0
1695400362480,-0.91308594,0.12890625,0.1640625,-77.71875,-86.3125,-74.15625,0.0,0.0,0.0
1695400362509,-0.78808594,0.0029296875,0.16503906,-15.5625,-73.0,-30.4375,0.0,0.0,0.0
1695400362569,-0.5341797,-0.234375,0.24707031,-24.3125,-31.1875,-48.09375,0.0,0.0,0.0
1695400362597,-0.5488281,-0.24804688,0.42089844,-42.25,-49.5625,-53.9375,0.0,0.0,0.0
1695400362628,-0.33496094,-0.33691406,0.33496094,-24.1875,-78.5625,-60.84375,0.0,0.0,0.0
1695400362687,-0.25195312,-0.36621094,0.2626953,12.875,-77.53125,-53.28125,0.0,0.0,0.0
1695400362718,-0.31640625,-0.30273438,0.2763672,11.46875,-23.21875,-39.3125,0.0,0.0,0.0
1695400362748,-0.25097656,-0.35058594,0.5605469,0.59375,5.46875,-12.625,-43.625,-56.1875,-91.125
1695400362810,-0.37402344,-0.69921875,0.7138672,-40.78125,32.03125,7.15625,0.0,0.0,0.0
1695400362839,-0.55566406,-0.95996094,0.77441406,-18.9375,56.5625,-0.71875,0.0,0.0,0.0
1695400362868,-0.93652344,-0.9951172,1.3457031,-31.5,67.0625,-3.96875,0.0,0.0,0.0
1695400362931,-1.2226562,-0.81347656,0.3779297,14.28125,112.125,-12.8125,0.0,0.0,0.0
1695400362960,-0.9453125,-0.30664062,0.22753906,18.46875,77.3125,35.96875,0.0,0.0,0.0
1695400362989,-0.93652344,-0.296875,0.16308594,41.5,49.65625,34.4375,0.0,0.0,0.0
1695400363050,-0.9580078,-0.20996094,0.20117188,17.3125,31.84375,37.65625,0.0,0.0,0.0
1695400363079,-1.0039062,-0.22363281,0.14160156,0.65625,43.8125,44.6875,0.0,0.0,0.0
1695400363107,-0.78808594,-0.24707031,0.052734375,-35.09375,55.90625,40.71875,0.0,0.0,0.0
1695400363167,-0.83203125,-0.20117188,0.07714844,-21.875,50.65625,48.84375,0.0,0.0,0.0
1695400363198,-1.2216797,-0.32128906,0.14941406,-3.84375,55.28125,62.9375,0.0,0.0,0.0
1695400363230,-0.875,-0.26171875,0.34375,-27.65625,48.375,85.8125,0.0,0.0,0.0
1695400363287,-0.7734375,-0.31152344,0.18554688,-38.34375,36.125,109.3125,-66.3125,-50.9375,-102.375
1695400363317,-0.8388672,-0.30566406,0.020507812,-36.03125,31.125,126.15625,0.0,0.0,0.0
1695400363349,-0.8671875,-0.390625,-0.06347656,2.25,38.0,100.90625,0.0,0.0,0.0
1695400363408,-0.8574219,-0.265625,-0.080078125,66.28125,41.5,28.4375,0.0,0.0,0.0
1695400363441,-0.7089844,-0.22167969,0.13769531,33.625,38.0,6.59375,0.0,0.0,0.0
1695400363467,-0.8613281,0.080078125,0.22753906,35.625,30.75,6.28125,0.0,0.0,0.0
1695400363527,-0.94140625,0.059570312,0.045898438,36.0625,26.125,35.53125,0.0,0.0,0.0
1695400363557,-1.0966797,-0.046875,0.025390625,-11.71875,26.59375,58.0,0.0,0.0,0.0
1695400363588,-1.0859375,-0.08984375,0.0068359375,-49.4375,4.1875,47.125,0.0,0.0,0.0
1695400363649,-1.3300781,-0.111328125,0.047851562,-59.46875,-36.625,42.3125,0.0,0.0,0.0
1695400363679,-1.5878906,-0.16113281,0.25585938,-89.96875,-46.875,52.875,0.0,0.0,0.0
1695400363709,-1.4794922,0.064453125,0.38671875,-44.4375,-51.9375,17.40625,0.0,0.0,0.0
1695400363768,-1.2460938,0.087890625,0.15429688,43.625,-97.1875,-32.09375,-73.625,-38.1875,-106.375
1695400363801,-0.9902344,0.16894531,-0.03125,72.5,-104.375,-71.96875,0.0,0.0,0.0
1695400363828,-1.1123047,0.18164062,0.109375,15.5625,-128.84375,-101.25,0.0,0.0,0.0
1695400363889,-0.87402344,0.36035156,0.45996094,-8.8125,-111.09375,-144.09375,0.0,0.0,0.0
1695400363920,-0.8642578,0.22363281,0.35742188,4.0625,-86.4375,-172.53125,0.0,0.0,0.0
1695400363948,-0.81152344,-0.18066406,0.2607422,-52.125,-137.65625,-121.09375,0.0,0.0,0.0
1695400364007,-0.6142578,-0.3857422,0.41601562,-70.375,-160.0,-149.40625,0.0,0.0,0.0
1695400364036,-0.5751953,-0.5839844,0.53125,-68.25,-85.78125,-159.46875,0.0,0.0,0.0
1695400364067,-0.45214844,-0.25585938,0.52246094,-10.875,-46.75,-149.65625,0.0,0.0,0.0
1695400364126,-0.36328125,-0.29785156,0.47753906,40.03125,-46.8125,-97.40625,0.0,0.0,0.0
1695400364156,-0.2998047,-0.34375,0.4111328,32.46875,-36.875,-77.75,0.0,0.0,0.0
1695400364187,-0.23144531,-0.3857422,0.5019531,7.25,-8.8125,-48.03125,0.0,0.0,0.0
1695400364247,-0.18164062,-0.59472656,0.6484375,-25.03125,16.28125,-19.34375,0.0,0.0,0.0
1695400364278,-0.16601562,-0.8779297,0.72265625,-23.6875,40.34375,-2.5625,-32.5625,-58.0,-92.4375
1695400364308,-0.2548828,-1.0712891,0.765625,-29.0625,62.1875,-3.46875,0.0,0.0,0.0
1695400364367,-0.8125,-1.1982422,1.0986328,-12.15625,155.3125,-33.5625,0.0,0.0,0.0
1695400364400,-1.1445312,-0.6269531,0.31445312,-1.65625,108.03125,-10.75,0.0,0.0,0.0
1695400364429,-1.0791016,-0.32128906,0.22460938,16.34375,111.25,28.75,0.0,0.0,0.0
1695400364487,-0.8828125,-0.36621094,0.3017578,7.75,113.8125,42.5,0.0,0.0,0.0
1695400364549,-0.9472656,-0.32910156,0.23242188,-33.8125,88.1875,47.4375,0.0,0.0,0.0
1695400364553,-0.96484375,-0.33789062,0.17871094,-22.46875,79.34375,63.96875,0.0,0.0,0.0
1695400364607,-0.8876953,-0.38378906,0.0029296875,-11.96875,87.75,85.03125,0.0,0.0,0.0
1695400364639,-0.9814453,-0.39160156,0.095703125,-8.8125,94.21875,106.9375,0.0,0.0,0.0
1695400364670,-0.82910156,-0.33398438,0.087890625,-1.0,68.28125,111.15625,0.0,0.0,0.0
1695400364727,-0.8125,-0.35058594,0.09863281,-21.4375,56.9375,109.0,0.0,0.0,0.0
1695400364757,-0.80566406,-0.42089844,0.08496094,-34.1875,42.84375,85.09375,-67.375,-51.4375,-105.0625
1695400364788,-0.78027344,-0.4345703,0.036132812,-23.09375,35.8125,39.875,0.0,0.0,0.0
1695400364847,-0.9355469,-0.3798828,-0.001953125,2.0,23.5,-3.34375,0.0,0.0,0.0
1695400364878,-0.9238281,-0.328125,0.15722656,6.875,16.46875,8.4375,0.0,0.0,0.0
1695400364908,-0.98828125,-0.19335938,0.07128906,-3.0625,-2.09375,16.375,0.0,0.0,0.0
1695400364967,-1.0800781,-0.31152344,0.08300781,-24.4375,-17.21875,43.34375,0.0,0.0,0.0
1695400364998,-1.3857422,-0.47265625,0.038085938,-39.8125,-21.375,84.53125,0.0,0.0,0.0
1695400365029,-1.4248047,-0.29492188,0.19628906,-70.9375,-46.8125,85.75,0.0,0.0,0.0
1695400365086,-1.4765625,-0.076171875,0.14550781,1.4375,-47.0,33.21875,0.0,0.0,0.0
1695400365118,-1.3603516,0.1171875,0.24414062,83.78125,-63.625,-8.34375,0.0,0.0,0.0
1695400365150,-1.0087891,0.09765625,0.20019531,130.25,-42.5,-56.09375,0.0,0.0,0.0
1695400365207,-0.8798828,0.12792969,0.22851562,71.65625,-85.09375,-65.375,0.0,0.0,0.0
1695400365237,-0.8955078,0.08300781,0.16308594,5.90625,-148.09375,-61.9375,0.0,0.0,0.0
1695400365269,-0.9111328,-0.025390625,0.35058594,-57.75,-160.46875,-70.5625,-62.375,-44.6875,-95.625
1695400365329,-0.8173828,-0.0390625,0.11425781,-26.625,-119.46875,-39.84375,0.0,0.0,0.0
1695400365358,-0.5908203,-0.20214844,0.30273438,-23.3125,-102.96875,-21.125,0.0,0.0,0.0
1695400365388,-0.52441406,-0.20800781,0.4267578,-26.75,-26.3125,-26.46875,0.0,0.0,0.0
1695400365447,-0.4921875,-0.13769531,0.52246094,-22.40625,-72.875,-37.65625,0.0,0.0,0.0
1695400365477,-0.43652344,-0.29101562,0.453125,-8.5625,-84.65625,-52.84375,0.0,0.0,0.0
1695400365509,-0.34472656,-0.4404297,0.46289062,-12.71875,-62.625,-73.0,0.0,0.0,0.0
1695400365568,-0.2548828,-0.36132812,0.55859375,-8.8125,-2.9375,-30.4375,0.0,0.0,0.0
1695400365606,-0.19726562,-0.390625,0.67089844,-12.84375,21.65625,-22.5625,0.0,0.0,0.0
1695400365628,-0.28222656,-0.42578125,0.734375,-12.09375,48.9375,-2.0625,0.0,0.0,0.0
1695400365688,-0.8203125,-0.671875,0.96972656,10.59375,70.71875,-22.28125,0.0,0.0,0.0
1695400365716,-1.1728516,-0.55078125,0.6386719,-33.59375,115.15625,12.34375,0.0,0.0,0.0
1695400365751,-1.1445312,-0.37402344,0.35253906,-57.375,171.8125,26.75,-49.8125,-53.375,-95.625
1695400365808,-1.0458984,-0.36035156,0.2890625,-21.9375,150.9375,93.75,0.0,0.0,0.0
1695400365837,-0.8339844,-0.34765625,0.21582031,7.5625,62.25,96.6875,0.0,0.0,0.0
1695400365868,-1.0742188,-0.25,-0.0107421875,8.09375,13.46875,62.375,0.0,0.0,0.0
1695400365930,-1.0576172,-0.24804688,-0.13378906,-39.4375,40.625,25.53125,0.0,0.0,0.0
1695400365964,-0.92285156,-0.17285156,0.03125,-2.5,50.78125,28.75,0.0,0.0,0.0
1695400365989,-0.8173828,-0.22460938,0.31835938,11.09375,49.125,38.6875,0.0,0.0,0.0
1695400366047,-0.7138672,-0.27929688,0.2861328,15.5625,35.625,30.46875,0.0,0.0,0.0
1695400366076,-0.7548828,-0.21875,0.12890625,-17.71875,12.5625,15.375,0.0,0.0,0.0
1695400366107,-0.82128906,-0.21484375,0.09277344,-28.34375,18.46875,6.59375,0.0,0.0,0.0
1695400366167,-0.8769531,-0.2529297,0.025390625,-20.75,10.5,5.4375,0.0,0.0,0.0
1695400366197,-1.1171875,-0.3095703,0.1875,-41.15625,-1.71875,21.1875,0.0,0.0,0.0
1695400366228,-1.2744141,-0.42089844,0.4189453,-68.4375,10.78125,49.03125,0.0,0.0,0.0
1695400366287,-1.4355469,-0.34765625,0.42871094,-70.3125,-6.0,113.21875,-69.125,-48.5625,-107.875
1695400366318,-1.6074219,-0.33496094,0.34179688,-66.34375,-19.1875,134.65625,0.0,0.0,0.0
1695400366348,-1.28125,-0.22265625,0.119140625,-16.75,-3.375,18.4375,0.0,0.0,0.0
1695400366408,-0.97265625,0.026367188,0.2265625,32.65625,-71.53125,-24.15625,0.0,0.0,0.0
1695400366439,-0.9951172,0.21777344,0.16015625,66.09375,-82.40625,-73.25,0.0,0.0,0.0
1695400366466,-0.83203125,0.17480469,0.111328125,18.96875,-104.8125,-68.90625,0.0,0.0,0.0
1695400366529,-0.859375,0.036132812,0.3251953,-51.90625,-143.5625,-61.8125,0.0,0.0,0.0
1695400366559,-0.8046875,-0.16503906,0.41015625,-69.15625,-138.75,-107.46875,0.0,0.0,0.0
1695400366587,-0.7089844,-0.21777344,0.2890625,-30.34375,-117.3125,-112.0,0.0,0.0,0.0
1695400366647,-0.6542969,-0.2578125,0.2421875,-0.4375,-114.625,-82.6875,0.0,0.0,0.0
1695400366678,-0.5605469,-0.3310547,0.48046875,-18.09375,4.875,-61.6875,0.0,0.0,0.0
1695400366706,-0.48828125,-0.30273438,0.56347656,12.9375,5.71875,-59.03125,0.0,0.0,0.0
1695400366769,-0.4580078,-0.31835938,0.5732422,20.625,-45.25,-39.96875,-48.0,-54.6875,-94.5625
1695400366828,-0.43847656,-0.3876953,0.43945312,29.09375,-45.71875,-34.84375,0.0,0.0,0.0
1695400366831,-0.43554688,-0.4248047,0.49023438,15.90625,-1.46875,-16.53125,0.0,0.0,0.0
1695400366890,-0.328125,-0.4111328,0.5263672,6.09375,39.0,-8.78125,0.0,0.0,0.0
1695400366919,-0.35546875,-0.40820312,0.63671875,0.59375,43.375,-8.78125,0.0,0.0,0.0
1695400366947,-0.5625,-0.49414062,0.9453125,4.3125,64.5,-9.75,0.0,0.0,0.0
1695400367008,-1.1318359,-0.78808594,1.0,20.25,64.9375,-11.71875,0.0,0.0,0.0
1695400367038,-1.109375,-0.5449219,0.47851562,-6.84375,66.21875,9.34375,0.0,0.0,0.0
1695400367067,-0.83496094,-0.40039062,0.5185547,-9.40625,79.8125,15.875,0.0,0.0,0.0
1695400367131,-0.86328125,-0.38476562,0.42382812,19.6875,69.8125,27.34375,0.0,0.0,0.0
1695400367160,-0.8779297,-0.39160156,0.25878906,16.59375,55.34375,21.625,0.0,0.0,0.0
1695400367187,-0.94628906,-0.328125,0.056640625,-16.3125,75.0,21.6875,0.0,0.0,0.0
1695400367248,-0.8203125,-0.31640625,0.025390625,-17.34375,89.40625,28.9375,0.0,0.0,0.0
1695400367279,-0.76660156,-0.2998047,0.125,-2.03125,86.28125,52.5,-61.0625,-52.625,-100.875
1695400367308,-0.7988281,-0.30078125,0.24902344,-16.4375,64.9375,66.78125,0.0,0.0,0.0
1695400367369,-0.74609375,-0.30078125,0.22363281,-14.21875,61.15625,56.34375,0.0,0.0,0.0
1695400367399,-0.8378906,-0.2265625,0.06933594,2.25,64.5625,37.1875,0.0,0.0,0.0
1695400367428,-0.9453125,-0.2548828,0.03515625,-15.75,56.375,22.65625,0.0,0.0,0.0
1695400367490,-1.0419922,-0.4140625,0.18359375,-32.71875,36.65625,8.375,0.0,0.0,0.0
1695400367518,-1.0996094,-0.4658203,0.21679688,-35.03125,-2.09375,16.3125,0.0,0.0,0.0
1695400367548,-1.2128906,-0.4716797,0.2919922,-39.75,-30.46875,29.71875,0.0,0.0,0.0
1695400367609,-1.5859375,-0.38964844,0.3935547,-50.25,-51.9375,75.75,0.0,0.0,0.0
1695400367639,-1.5039062,-0.09375,0.27441406,-21.125,-54.6875,64.59375,0.0,0.0,0.0
1695400367667,-1.3964844,-0.15136719,0.26367188,16.84375,-72.8125,31.25,0.0,0.0,0.0
1695400367729,-1.0537109,0.0146484375,0.21875,39.65625,-77.96875,-45.40625,0.0,0.0,0.0
1695400367758,-1.0126953,-0.041992188,0.1328125,42.53125,-86.6875,-91.65625,-69.0,-44.6875,-102.1875
1695400367789,-0.78222656,0.034179688,0.23925781,-30.78125,-110.65625,-110.09375,0.0,0.0,0.0
1695400367849,-0.8876953,0.040039062,0.3173828,-45.1875,-79.28125,-96.375,0.0,0.0,0.0
1695400367879,-0.8779297,-0.07910156,0.20410156,-44.5,-107.0625,-56.40625,0.0,0.0,0.0
1695400367908,-0.40039062,-0.4033203,0.16894531,-1.15625,-122.21875,-77.375,0.0,0.0,0.0
1695400367969,-0.5058594,-0.36132812,0.45703125,-29.3125,-98.21875,-83.0,0.0,0.0,0.0
1695400368002,-0.33496094,-0.3466797,0.4140625,8.59375,-60.0,-57.0,0.0,0.0,0.0
1695400368028,-0.23535156,-0.4921875,0.3642578,20.125,-25.09375,-48.03125,0.0,0.0,0.0
1695400368090,-0.13085938,-0.53808594,0.5185547,1.03125,18.78125,-23.96875,0.0,0.0,0.0
1695400368117,0.0234375,-0.4375,0.7578125,-18.25,83.90625,2.8125,0.0,0.0,0.0
1695400368149,-0.80371094,-0.8671875,0.95410156,20.0,59.8125,-20.1875,0.0,0.0,0.0
1695400368211,-1.3974609,-0.9814453,0.55078125,-24.1875,117.71875,-19.03125,0.0,0.0,0.0
1695400368237,-1.1630859,-0.2783203,0.33203125,12.3125,126.9375,-2.875,0.0,0.0,0.0
1695400368267,-0.8964844,-0.2109375,0.24121094,96.0625,88.6875,39.4375,-49.9375,-57.4375,-95.75
1695400368329,-0.8886719,-0.39257812,0.30566406,42.84375,61.9375,59.03125,0.0,0.0,0.0
1695400368360,-0.83496094,-0.40527344,0.115234375,-13.6875,40.875,59.5,0.0,0.0,0.0
1695400368388,-0.8251953,-0.4326172,-0.02734375,-54.8125,72.1875,54.5625,0.0,0.0,0.0
1695400368449,-0.9121094,-0.296875,0.11816406,-37.3125,87.6875,51.40625,0.0,0.0,0.0
1695400368480,-0.7158203,-0.31933594,0.24121094,-11.78125,63.59375,48.34375,0.0,0.0,0.0
1695400368510,-0.6816406,-0.27148438,0.20996094,34.78125,55.53125,16.71875,0.0,0.0,0.0
1695400368570,-0.6689453,-0.19042969,0.115234375,36.90625,51.1875,-3.59375,0.0,0.0,0.0
1695400368598,-0.6699219,-0.17382812,0.14453125,27.09375,25.625,-5.78125,0.0,0.0,0.0
1695400368628,-0.8701172,-0.29492188,0.11230469,-0.4375,6.875,2.5,0.0,0.0,0.0
1695400368692,-1.2792969,-0.4375,0.16796875,-86.5,15.75,23.1875,0.0,0.0,0.0
1695400368719,-1.6816406,-0.74902344,0.31445312,-91.6875,32.46875,77.34375,0.0,0.0,0.0
1695400368748,-1.6611328,-0.7705078,0.37304688,-58.71875,9.03125,135.0,-69.3125,-48.6875,-106.6875
1695400368812,-1.5244141,-0.44335938,0.36523438,7.6875,-38.9375,98.75,0.0,0.0,0.0
1695400368838,-1.2666016,-0.17285156,0.28027344,82.09375,-57.15625,-16.59375,0.0,0.0,0.0
1695400368871,-1.0390625,0.15625,0.125,128.15625,-75.34375,-104.96875,0.0,0.0,0.0
1695400368928,-0.93847656,0.12597656,0.021484375,117.59375,-96.21875,-107.0625,0.0,0.0,0.0
1695400368958,-0.91503906,0.049804688,0.14160156,6.875,-133.8125,-77.09375,0.0,0.0,0.0
1695400368987,-1.0029297,0.021484375,0.28710938,-94.0,-107.5625,-55.84375,0.0,0.0,0.0
1695400369048,-0.7988281,-0.076171875,0.15429688,-69.71875,-92.84375,-55.96875,0.0,0.0,0.0
1695400369107,-0.5,-0.32910156,0.21484375,-27.28125,-102.5,-49.3125,0.0,0.0,0.0
1695400369110,-0.4970703,-0.34960938,0.3671875,-27.40625,-57.09375,-37.65625,0.0,0.0,0.0
1695400369169,-0.38867188,-0.36621094,0.43945312,-11.0,-76.125,-36.5625,0.0,0.0,0.0
1695400369198,-0.35742188,-0.37109375,0.47460938,9.25,-76.84375,-38.375,0.0,0.0,0.0
1695400369228,-0.3310547,-0.4296875,0.37109375,16.40625,-29.25,-32.53125,0.0,0.0,0.0
1695400369288,-0.20117188,-0.54003906,0.46777344,-16.625,23.90625,-5.625,-43.375,-53.6875,-92.125
1695400369319,-0.2265625,-0.59765625,0.7207031,-40.46875,73.59375,-14.71875,0.0,0.0,0.0
1695400369348,-0.80566406,-0.7470703,0.95214844,2.5625,82.6875,-19.90625,0.0,0.0,0.0
1695400369409,-1.5742188,-0.7705078,0.5097656,-64.96875,162.90625,5.6875,0.0,0.0,0.0
1695400369439,-1.2060547,-0.3359375,0.28515625,12.9375,98.4375,53.40625,0.0,0.0,0.0
1695400369467,-0.73046875,-0.3330078,0.23339844,64.8125,122.1875,122.1875,0.0,0.0,0.0
1695400369528,-0.9296875,-0.36914062,0.13085938,43.09375,41.5,85.5,0.0,0.0,0.0
1695400369559,-0.8984375,-0.31347656,-0.036132812,-7.9375,-3.1875,61.46875,0.0,0.0,0.0
1695400369588,-0.796875,-0.31347656,-0.055664062,-22.71875,72.0625,56.71875,0.0,0.0,0.0
1695400369648,-1.0224609,-0.076171875,-0.09472656,0.59375,113.09375,61.78125,0.0,0.0,0.0
1695400369679,-0.9453125,-0.17285156,0.22949219,12.3125,64.8125,42.5,0.0,0.0,0.0
1695400369710,-0.7392578,-0.15429688,0.18554688,30.5,48.375,19.09375,0.0,0.0,0.0
1695400369767,-0.74609375,-0.07421875,0.10253906,18.59375,21.34375,5.875,-69.4375,-43.4375,-105.5
1695400369801,-0.7753906,-0.15917969,0.22265625,-27.0,6.40625,-6.15625,0.0,0.0,0.0
1695400369829,-2.0,-0.40429688,0.03125,-59.53125,28.125,28.875,0.0,0.0,0.0
1695400369888,-1.3242188,-0.51171875,0.41308594,-78.0,9.9375,102.71875,0.0,0.0,0.0
1695400369920,-1.3789062,-0.546875,0.4951172,-47.1875,-24.84375,81.78125,0.0,0.0,0.0
1695400369949,-1.2285156,-0.14648438,0.30566406,2.90625,-42.5,0.5,0.0,0.0,0.0
1695400370008,-1.0068359,-0.00390625,0.25097656,51.25,-105.53125,-42.53125,0.0,0.0,0.0
1695400370039,-1.2519531,0.10546875,0.21386719,66.9375,-129.15625,-95.6875,0.0,0.0,0.0
1695400370068,-1.0791016,0.06933594,0.07421875,17.125,-113.46875,-109.8125,0.0,0.0,0.0
1695400370127,-0.8720703,0.08203125,0.12402344,-93.875,-151.75,-94.0,0.0,0.0,0.0
1695400370158,-0.75097656,-0.015625,0.14550781,-99.6875,-173.46875,-37.53125,0.0,0.0,0.0
1695400370189,-0.7138672,-0.21289062,0.2890625,-71.375,-135.5625,-21.65625,0.0,0.0,0.0
1695400370247,-0.328125,-0.42382812,0.28125,-38.65625,-2.875,-62.0,0.0,0.0,0.0
1695400370279,-0.33691406,-0.3935547,0.54296875,-7.53125,27.28125,-73.125,-48.625,-56.0625,-95.4375
1695400370309,-0.39160156,-0.5527344,0.56640625,20.5,-7.15625,-55.71875,0.0,0.0,0.0
1695400370370,-0.27246094,-0.6660156,0.30273438,48.5625,0.90625,-12.1875,0.0,0.0,0.0
1695400370400,-0.21679688,-0.65527344,0.42382812,-24.5,12.125,-7.125,0.0,0.0,0.0
1695400370428,-0.3388672,-0.5859375,0.6591797,-21.0625,53.9375,-25.8125,0.0,0.0,0.0
1695400370487,-0.8964844,-0.5830078,0.9785156,58.40625,52.65625,4.03125,0.0,0.0,0.0
1695400370517,-1.1669922,-0.41210938,0.06542969,-33.8125,206.15625,-12.75,0.0,0.0,0.0
1695400370548,-1.0537109,-0.21582031,0.0625,92.40625,85.0,101.875,0.0,0.0,0.0
1695400370609,-0.8125,-0.14941406,0.171875,103.8125,84.875,117.5625,0.0,0.0,0.0
1695400370640,-0.8574219,-0.19238281,0.087890625,26.40625,34.28125,68.1875,0.0,0.0,0.0
1695400370668,-0.8417969,-0.3095703,0.09375,-8.875,-30.90625,47.375,0.0,0.0,0.0
1695400370727,-0.98339844,-0.14746094,0.055664062,5.90625,68.71875,71.90625,0.0,0.0,0.0
1695400370759,-1.2021484,-0.029296875,0.068359375,57.53125,137.625,21.5625,-63.625,-45.875,-99.0625
1695400370789,-1.0166016,-0.13378906,0.24023438,79.03125,38.75,0.625,0.0,0.0,0.0
1695400370848,-0.9628906,-0.13183594,0.43164062,12.0,7.625,-27.8125,0.0,0.0,0.0
1695400370880,-1.5742188,-0.22070312,0.4296875,-37.25,-1.46875,46.875,0.0,0.0,0.0
1695400370910,-1.5830078,-0.3486328,0.3310547,-44.875,38.1875,71.90625,0.0,0.0,0.0
1695400370967,-1.1816406,-0.5029297,0.21972656,-29.84375,70.96875,79.03125,0.0,0.0,0.0
1695400370998,-0.9189453,-0.44433594,0.4189453,-9.15625,20.0,27.71875,0.0,0.0,0.0
1695400371038,-0.8671875,0.0546875,0.42285156,26.59375,-40.84375,-35.46875,0.0,0.0,0.0
1695400371087,-1.0136719,0.15039062,0.25,67.125,-111.78125,-62.125,0.0,0.0,0.0
1695400371117,-1.2832031,0.048828125,0.17285156,55.15625,-135.09375,-75.96875,0.0,0.0,0.0
1695400371148,-1.1289062,0.0029296875,0.01953125,-23.21875,-80.9375,-94.21875,0.0,0.0,0.0
1695400371208,-0.91308594,0.16503906,0.21582031,-72.21875,-104.5,-53.15625,0.0,0.0,0.0
1695400371238,-0.87402344,0.18457031,0.15527344,-60.5,-97.71875,15.875,0.0,0.0,0.0
1695400371270,-0.8466797,-0.034179688,0.20410156,-92.84375,-8.625,-26.4375,-57.875,-46.0,-95.125
1695400371328,-0.4326172,-0.30859375,0.3955078,-130.6875,-49.5625,-76.84375,0.0,0.0,0.0
1695400371391,-0.5722656,-0.50683594,0.4482422,-75.21875,-68.0,-102.46875,0.0,0.0,0.0
1695400371397,-0.50390625,-0.6982422,0.27734375,14.75,-46.34375,-25.3125,0.0,0.0,0.0
1695400371447,-0.27246094,-0.6533203,0.27539062,8.28125,-15.09375,2.75,0.0,0.0,0.0
1695400371477,-0.0029296875,-0.56152344,0.45117188,-47.8125,2.25,14.03125,0.0,0.0,0.0
1695400371509,-0.3544922,-0.44726562,0.9658203,-6.1875,13.21875,-23.90625,0.0,0.0,0.0
1695400371567,-1.2910156,-0.83496094,1.0390625,47.78125,24.65625,30.875,0.0,0.0,0.0
1695400371597,-1.1904297,-0.24511719,0.078125,-41.21875,158.6875,23.0625,0.0,0.0,0.0
1695400371629,-1.0791016,-0.20117188,0.20898438,90.6875,95.1875,63.96875,0.0,0.0,0.0
1695400371687,-0.8798828,-0.4111328,0.20214844,50.78125,38.75,78.3125,0.0,0.0,0.0
1695400371725,-0.66503906,-0.49023438,0.12109375,0.0625,-25.53125,65.6875,0.0,0.0,0.0
1695400371747,-1.0566406,-0.22265625,-0.028320312,28.90625,1.40625,124.6875,-60.3125,-49.75,-98.75
1695400371807,-0.92578125,-0.17578125,0.11328125,-4.28125,100.09375,33.625,0.0,0.0,0.0
1695400371839,-0.7578125,-0.14453125,0.34765625,-9.21875,74.5,41.875,0.0,0.0,0.0
1695400371871,-0.7011719,-0.12792969,0.40722656,9.3125,22.8125,15.25,0.0,0.0,0.0
1695400371927,-0.859375,-0.14746094,0.22265625,51.0,2.75,6.59375,0.0,0.0,0.0
1695400371957,-0.9980469,-0.13769531,0.16210938,29.46875,9.8125,5.3125,0.0,0.0,0.0
1695400371989,-1.1826172,-0.1328125,0.19726562,-7.28125,18.3125,40.34375,0.0,0.0,0.0
1695400372048,-1.4414062,-0.34570312,0.29882812,-30.71875,29.90625,74.78125,0.0,0.0,0.0
1695400372081,-1.3066406,-0.54589844,0.5107422,-29.625,65.0,106.5625,0.0,0.0,0.0
1695400372108,-1.2167969,-0.42089844,0.515625,-0.3125,25.5625,67.8125,0.0,0.0,0.0
1695400372167,-1.2265625,0.046875,0.30371094,53.625,-15.21875,9.21875,0.0,0.0,0.0
1695400372197,-1.0273438,0.1875,0.12988281,63.9375,-56.46875,-26.59375,0.0,0.0,0.0
1695400372229,-1.0810547,0.2998047,0.08886719,68.59375,-86.0625,-76.46875,0.0,0.0,0.0
1695400372287,-0.91796875,0.203125,0.060546875,40.28125,-78.3125,-85.5,-67.8125,-37.625,-100.875
1695400372317,-0.8886719,0.07910156,0.16992188,-13.875,-90.59375,-89.71875,0.0,0.0,0.0
1695400372348,-0.8046875,0.024414062,0.31640625,-51.65625,-86.625,-98.4375,0.0,0.0,0.0
1695400372408,-0.74316406,-0.048828125,0.28027344,-19.65625,-92.34375,-100.09375,0.0,0.0,0.0
1695400372440,-0.7578125,-0.20214844,0.20996094,-8.625,-90.09375,-73.90625,0.0,0.0,0.0
1695400372471,-0.6845703,-0.3720703,0.34179688,-45.125,-25.15625,-79.9375,0.0,0.0,0.0
1695400372527,-0.49902344,-0.3642578,0.49804688,-61.09375,-27.0625,-84.09375,0.0,0.0,0.0
1695400372557,-0.5214844,-0.44433594,0.5283203,-24.65625,-61.09375,-75.0625,0.0,0.0,0.0
1695400372588,-0.50878906,-0.4482422,0.44628906,22.28125,-36.875,-39.96875,0.0,0.0,0.0
1695400372651,-0.39746094,-0.4638672,0.2919922,35.5,-4.84375,-16.84375,0.0,0.0,0.0
1695400372683,-0.3701172,-0.3935547,0.4560547,1.8125,31.375,-11.59375,0.0,0.0,0.0
1695400372707,-0.39648438,-0.47558594,0.5048828,0.59375,43.625,-5.5625,0.0,0.0,0.0
1695400372769,-0.50878906,-0.5595703,0.5908203,1.9375,44.96875,20.75,-47.125,-51.6875,-91.6875
1695400372799,-1.1191406,-0.89941406,0.92578125,34.46875,68.34375,49.3125,0.0,0.0,0.0
1695400372828,-1.5947266,-0.5517578,0.22558594,-129.90625,179.5625,-9.46875,0.0,0.0,0.0
1695400372889,-0.9013672,-0.40820312,0.38378906,12.625,89.65625,44.6875,0.0,0.0,0.0
1695400372919,-0.8339844,-0.34570312,0.2685547,41.0,47.59375,56.84375,0.0,0.0,0.0
1695400372947,-0.8076172,-0.21582031,0.080078125,28.1875,23.4375,47.5,0.0,0.0,0.0
1695400373010,-0.9628906,-0.18945312,-0.115234375,2.75,39.46875,68.65625,0.0,0.0,0.0
1695400373041,-1.0390625,-0.17675781,-0.12988281,-30.65625,90.9375,69.40625,0.0,0.0,0.0
1695400373068,-0.91796875,-0.24023438,0.14257812,-5.0625,85.8125,66.65625,0.0,0.0,0.0
1695400373129,-0.85839844,-0.2607422,0.20507812,34.03125,73.59375,49.03125,0.0,0.0,0.0
1695400373159,-0.7998047,-0.26171875,0.07324219,21.46875,55.46875,27.21875,0.0,0.0,0.0
1695400373188,-0.8730469,-0.12011719,0.041015625,26.125,51.25,19.59375,0.0,0.0,0.0
1695400373249,-1.0048828,-0.16601562,0.028320312,25.8125,35.75,14.46875,0.0,0.0,0.0
1695400373279,-1.1132812,-0.3154297,0.12011719,-10.75,10.84375,17.8125,-73.625,-38.6875,-107.75
1695400373308,-1.1738281,-0.4765625,0.2109375,-51.28125,-16.625,28.6875,0.0,0.0,0.0
1695400373369,-1.0292969,-0.50097656,0.31933594,-67.15625,-22.21875,90.65625,0.0,0.0,0.0
1695400373402,-1.8007812,-0.14648438,0.1875,-56.65625,-27.96875,81.59375,0.0,0.0,0.0
1695400373428,-1.3837891,0.040039062,0.05859375,27.28125,-38.90625,26.75,0.0,0.0,0.0
1695400373489,-1.3818359,0.037109375,0.11816406,80.25,-52.9375,2.4375,0.0,0.0,0.0
1695400373519,-1.1083984,0.15234375,0.24707031,92.40625,-60.75,-63.96875,0.0,0.0,0.0
1695400373548,-0.9482422,0.14453125,0.23339844,59.875,-92.78125,-93.0625,0.0,0.0,0.0
1695400373608,-1.0439453,0.0703125,0.17773438,-2.6875,-119.15625,-82.5625,0.0,0.0,0.0
1695400373667,-1.0,0.046875,0.18847656,-76.6875,-119.53125,-92.21875,0.0,0.0,0.0
1695400373669,-0.8769531,-0.06933594,0.15429688,-119.875,-93.75,-60.78125,0.0,0.0,0.0
1695400373728,-0.86621094,0.07324219,0.10546875,-67.625,-82.28125,14.28125,0.0,0.0,0.0
1695400373758,-0.6982422,-0.08984375,0.18847656,-8.96875,-50.0625,-58.34375,-56.125,-44.1875,-93.625
1695400373789,-0.5107422,-0.36132812,0.40625,-42.6875,-36.28125,-64.8125,0.0,0.0,0.0
1695400373848,-0.36328125,-0.41796875,0.52246094,-66.53125,-78.0,-88.0,0.0,0.0,0.0
1695400373878,-0.45214844,-0.53125,0.27539062,11.59375,-62.375,-40.15625,0.0,0.0,0.0
1695400373907,-0.2939453,-0.41601562,0.375,2.0625,-25.03125,-18.125,0.0,0.0,0.0
1695400373969,-0.28125,-0.4970703,0.4375,-0.1875,18.375,-0.96875,0.0,0.0,0.0
1695400373997,-0.35742188,-0.43066406,0.6152344,-14.1875,59.875,-1.53125,0.0,0.0,0.0
1695400374027,-0.8359375,-0.52441406,0.83691406,36.90625,41.84375,28.5625,0.0,0.0,0.0
1695400374090,-1.3330078,-0.5439453,0.1796875,-69.40625,198.96875,36.5625,0.0,0.0,0.0
1695400374119,-1.2519531,-0.26171875,0.24609375,23.65625,109.96875,99.5,0.0,0.0,0.0
1695400374148,-0.9501953,-0.33398438,0.25878906,34.90625,72.375,91.75,0.0,0.0,0.0
1695400374210,-1.0126953,-0.2998047,0.13964844,-1.34375,27.21875,57.75,0.0,0.0,0.0
1695400374238,-0.96875,-0.18359375,-0.08300781,-28.5,18.1875,58.59375,0.0,0.0,0.0
1695400374273,-0.99121094,-0.36035156,-0.06738281,-16.84375,31.96875,53.53125,-63.0,-45.5625,-99.625
1695400374329,-0.9042969,-0.13476562,-0.11328125,-20.21875,58.09375,46.15625,0.0,0.0,0.0
1695400374359,-0.9921875,-0.057617188,0.23144531,-23.9375,46.5,59.5625,0.0,0.0,0.0
1695400374389,-0.77246094,-0.20410156,0.3017578,-0.875,38.5625,53.59375,0.0,0.0,0.0
1695400374449,-0.6972656,-0.21484375,0.099609375,8.21875,33.625,48.65625,0.0,0.0,0.0
1695400374480,-0.88671875,-0.09277344,0.045898438,11.53125,24.78125,39.0,0.0,0.0,0.0
1695400374507,-1.0947266,-0.22167969,0.09375,8.34375,19.8125,11.125,0.0,0.0,0.0
1695400374568,-1.0947266,-0.26367188,0.11230469,-27.40625,9.21875,16.59375,0.0,0.0,0.0
1695400374600,-1.1298828,-0.23632812,0.234375,-61.71875,-21.125,37.65625,0.0,0.0,0.0
1695400374630,-1.3183594,-0.21191406,0.24023438,-46.46875,-28.28125,65.6875,0.0,0.0,0.0
1695400374689,-1.4833984,-0.25,0.2421875,-32.96875,-24.0625,46.40625,0.0,0.0,0.0
1695400374719,-1.5898438,-0.029296875,0.31835938,-10.625,-40.84375,12.28125,0.0,0.0,0.0
1695400374747,-1.2070312,-0.025390625,0.2548828,40.5625,-56.59375,-36.6875,-68.5625,-38.1875,-102.1875
1695400374808,-0.8203125,0.053710938,0.27246094,53.46875,-86.625,-104.96875,0.0,0.0,0.0
1695400374838,-0.875,-0.00390625,0.36914062,41.125,-108.34375,-153.9375,0.0,0.0,0.0
1695400374868,-0.91503906,-0.01953125,0.34472656,-25.46875,-80.40625,-165.03125,0.0,0.0,0.0
1695400374931,-0.8066406,-0.17675781,0.34375,-21.5,-96.15625,-143.0625,0.0,0.0,0.0
1695400374958,-0.9628906,-0.42285156,0.23144531,7.25,-91.5625,-86.96875,0.0,0.0,0.0
1695400374988,-0.71191406,-0.28027344,-0.009765625,38.5625,-29.90625,-69.4375,0.0,0.0,0.0
1695400375050,-0.47753906,-0.19824219,0.45898438,-8.0,-73.5,-92.78125,0.0,0.0,0.0
1695400375080,-0.39648438,-0.15917969,0.4111328,16.53125,-29.3125,-47.46875,0.0,0.0,0.0
1695400375109,-0.2626953,-0.328125,0.38867188,-7.21875,-85.46875,-45.53125,0.0,0.0,0.0
1695400375169,-0.3095703,-0.46972656,0.36328125,-6.46875,-44.75,-44.6875,0.0,0.0,0.0
1695400375199,-0.30371094,-0.61621094,0.4873047,-20.875,12.625,-11.65625,0.0,0.0,0.0
1695400375228,-0.28710938,-0.6044922,0.6269531,-20.34375,36.71875,-5.84375,0.0,0.0,0.0
1695400375290,-0.41992188,-0.8066406,1.1318359,-24.71875,48.03125,2.9375,-42.75,-50.6875,-94.125
1695400375318,-1.3916016,-1.1005859,0.6357422,-30.71875,111.625,-8.125,0.0,0.0,0.0
1695400375348,-1.3857422,-0.5175781,0.48535156,-42.0,89.71875,21.0,0.0,0.0,0.0
1695400375410,-0.6933594,-0.3330078,0.35839844,52.125,79.53125,59.15625,0.0,0.0,0.0
1695400375440,-0.7392578,-0.32128906,0.18652344,15.84375,73.15625,61.28125,0.0,0.0,0.0
1695400375467,-0.8964844,-0.30566406,0.033203125,-40.65625,83.125,58.71875,0.0,0.0,0.0
1695400375530,-0.93652344,-0.3388672,0.06640625,-71.3125,103.375,76.375,0.0,0.0,0.0
1695400375559,-0.7548828,-0.47753906,0.15527344,-6.125,67.25,92.90625,0.0,0.0,0.0
1695400375588,-0.7939453,-0.36816406,0.21972656,39.90625,73.46875,82.15625,0.0,0.0,0.0
1695400375649,-0.6357422,-0.3779297,0.21777344,12.625,68.96875,32.34375,0.0,0.0,0.0
1695400375679,-0.8173828,-0.24902344,0.11328125,16.40625,60.71875,17.78125,0.0,0.0,0.0
1695400375708,-0.9970703,-0.203125,0.10839844,30.4375,52.46875,6.59375,0.0,0.0,0.0
1695400375768,-1.1445312,-0.36914062,0.051757812,0.46875,22.625,24.96875,-69.625,-43.3125,-107.0
1695400375799,-1.078125,-0.5673828,0.11816406,-50.1875,-8.875,42.25,0.0,0.0,0.0
1695400375828,-1.2304688,-0.60839844,0.1640625,-73.3125,-35.34375,84.1875,0.0,0.0,0.0
1695400375887,-1.5507812,-0.31152344,0.4296875,-58.1875,-51.59375,107.0,0.0,0.0,0.0
1695400375948,-1.4472656,-0.14550781,0.30566406,18.375,-46.59375,24.25,0.0,0.0,0.0
1695400375952,-1.2011719,-0.0029296875,0.41015625,42.46875,-67.09375,-29.0625,0.0,0.0,0.0
1695400376007,-1.0439453,-0.024414062,0.27148438,70.3125,-98.34375,-90.4375,0.0,0.0,0.0
1695400376038,-0.9921875,-0.06542969,0.24414062,26.34375,-121.15625,-108.8125,0.0,0.0,0.0
1695400376068,-0.8544922,-0.12890625,0.28125,-51.40625,-159.625,-147.6875,0.0,0.0,0.0
1695400376129,-0.96484375,-0.21484375,0.32226562,-85.15625,-134.78125,-81.0,0.0,0.0,0.0
1695400376161,-0.7919922,0.19238281,0.08691406,38.0625,-62.15625,-25.25,0.0,0.0,0.0
1695400376189,-0.41992188,-0.25976562,0.16015625,25.3125,-41.53125,-31.0,0.0,0.0,0.0
1695400376280,-0.4345703,-0.15820312,0.5644531,1.40625,-25.59375,-1.15625,-49.8125,-48.6875,-95.3125
1695400376284,-0.36621094,-0.3408203,0.5566406,-19.96875,-16.4375,-20.0625,0.0,0.0,0.0
1695400376309,-0.33007812,-0.546875,0.39160156,-14.65625,-31.375,-24.65625,0.0,0.0,0.0
1695400376401,-0.27929688,-0.6230469,0.39257812,-24.3125,-29.84375,-13.59375,0.0,0.0,0.0
1695400376404,-0.22265625,-0.46191406,0.6425781,-3.25,-7.53125,-16.46875,0.0,0.0,0.0
1695400376429,-0.6171875,-0.765625,1.0341797,17.03125,51.0,-35.03125,0.0,0.0,0.0
1695400376487,-1.0927734,-0.72558594,0.5644531,-56.71875,143.46875,-26.96875,0.0,0.0,0.0
1695400376518,-1.1708984,-0.3486328,0.4638672,-3.125,33.875,-11.40625,0.0,0.0,0.0
1695400376550,-0.6123047,-0.17773438,0.20605469,61.34375,15.1875,25.46875,0.0,0.0,0.0
1695400376641,-0.7890625,-0.24902344,0.22070312,27.6875,86.90625,67.5625,0.0,0.0,0.0
1695400376644,-1.0693359,-0.36621094,0.0087890625,-47.1875,126.875,92.71875,0.0,0.0,0.0
1695400376669,-0.83203125,-0.27539062,0.13378906,-23.3125,109.96875,98.09375,0.0,0.0,0.0
1695400376728,-0.7988281,-0.3623047,0.16699219,21.53125,98.5,89.59375,0.0,0.0,0.0
1695400376759,-0.8222656,-0.38867188,0.28320312,32.6875,99.84375,77.09375,-64.8125,-45.5625,-102.375
1695400376789,-0.7685547,-0.1953125,0.23046875,30.875,73.84375,37.71875,0.0,0.0,0.0
1695400376879,-0.8310547,-0.072265625,0.18359375,4.4375,55.53125,-1.75,0.0,0.0,0.0
1695400376882,-0.93652344,-0.22265625,0.19921875,-6.25,38.0625,9.46875,0.0,0.0,0.0
1695400376909,-1.1103516,-0.38867188,0.20703125,-36.375,14.09375,18.75,0.0,0.0,0.0
1695400376967,-1.3330078,-0.5058594,0.18554688,-64.15625,-16.75,49.03125,0.0,0.0,0.0
1695400377000,-1.5117188,-0.40722656,0.29296875,-65.6875,-25.71875,66.96875,0.0,0.0,0.0
1695400377029,-1.5585938,-0.091796875,0.2705078,2.4375,-24.84375,41.8125,0.0,0.0,0.0
1695400377088,-1.3789062,-0.20605469,0.41210938,41.90625,-73.375,13.0,0.0,0.0,0.0
1695400377118,-1.0947266,-0.016601562,0.24902344,43.1875,-102.5625,-61.53125,0.0,0.0,0.0
1695400377149,-1.0039062,-0.055664062,0.16210938,23.84375,-111.34375,-98.25,0.0,0.0,0.0
1695400377208,-0.90234375,0.0390625,0.3046875,-59.15625,-133.96875,-118.78125,0.0,0.0,0.0
1695400377238,-0.9638672,-0.09375,0.25585938,-72.21875,-111.65625,-100.46875,0.0,0.0,0.0
1695400377269,-0.7890625,0.021484375,0.15917969,-27.21875,-114.875,6.09375,-56.25,-47.9375,-97.6875
1695400377327,-0.38183594,-0.25585938,0.11816406,16.21875,-78.5625,-34.1875,0.0,0.0,0.0
1695400377360,-0.46972656,-0.2763672,0.43066406,-39.875,-47.625,-22.9375,0.0,0.0,0.0
1695400377390,-0.48535156,-0.3359375,0.54785156,-39.9375,-24.1875,-46.875,0.0,0.0,0.0
1695400377447,-0.29296875,-0.5136719,0.35058594,15.5,-37.375,-28.125,0.0,0.0,0.0
1695400377479,-0.2705078,-0.5390625,0.3623047,1.09375,-5.5625,-7.5625,0.0,0.0,0.0
1695400377509,-0.20800781,-0.49316406,0.4423828,-17.96875,29.03125,-11.28125,0.0,0.0,0.0
1695400377568,-0.3515625,-0.6640625,1.0332031,-43.15625,42.40625,-25.625,0.0,0.0,0.0
1695400377598,-2.0,-1.1298828,0.78808594,12.0,96.4375,-61.46875,0.0,0.0,0.0
1695400377626,-1.2470703,-0.32226562,0.38867188,-32.375,106.125,0.5625,0.0,0.0,0.0
1695400377687,-0.8066406,-0.31054688,0.4091797,111.6875,63.90625,30.09375,0.0,0.0,0.0
1695400377716,-0.84277344,-0.20019531,0.1875,59.9375,58.59375,39.4375,0.0,0.0,0.0
1695400377747,-0.921875,-0.25097656,-0.07324219,-36.5,81.90625,50.3125,-55.375,-50.375,-100.25
1695400377808,-0.9404297,-0.33984375,-0.025390625,-60.3125,98.875,76.125,0.0,0.0,0.0
1695400377838,-0.8798828,-0.22070312,0.048828125,8.28125,88.96875,93.375,0.0,0.0,0.0
1695400377871,-0.86816406,-0.24609375,0.19824219,14.03125,72.125,75.75,0.0,0.0,0.0
1695400377928,-0.71484375,-0.3544922,0.26953125,17.3125,71.28125,42.4375,0.0,0.0,0.0
1695400377958,-0.81640625,-0.25097656,0.20117188,19.03125,48.09375,32.0625,0.0,0.0,0.0
1695400377989,-0.91015625,-0.32226562,0.16699219,18.96875,31.375,27.28125,0.0,0.0,0.0
1695400378048,-1.1904297,-0.33398438,0.09375,20.0625,1.5,23.6875,0.0,0.0,0.0
1695400378078,-1.2353516,-0.39160156,0.20214844,-46.53125,-24.71875,32.40625,0.0,0.0,0.0
1695400378109,-1.4023438,-0.29785156,0.3232422,-81.96875,-38.90625,67.75,0.0,0.0,0.0
1695400378167,-1.3378906,-0.2705078,0.3017578,-54.15625,-25.34375,56.09375,0.0,0.0,0.0
1695400378229,-1.2929688,-0.09472656,0.31933594,-14.125,-54.40625,28.8125,0.0,0.0,0.0
1695400378233,-1.1523438,-0.043945312,0.30566406,40.9375,-76.375,-18.375,0.0,0.0,0.0
1695400378288,-0.96191406,0.0029296875,0.31933594,45.03125,-96.5625,-90.03125,-67.1875,-38.6875,-105.375
1695400378319,-1.0322266,-0.07128906,0.26757812,8.40625,-119.9375,-117.84375,0.0,0.0,0.0
1695400378350,-0.9902344,-0.1328125,0.31933594,-49.625,-136.84375,-157.09375,0.0,0.0,0.0
1695400378408,-0.9345703,-0.14160156,0.25390625,-56.78125,-101.40625,-70.84375,0.0,0.0,0.0
1695400378440,-0.9111328,0.026367188,0.1640625,7.5625,-52.6875,-20.3125,0.0,0.0,0.0
1695400378470,-0.40039062,-0.20605469,0.23242188,18.96875,-40.28125,-16.96875,0.0,0.0,0.0
1695400378528,-0.4091797,-0.20019531,0.5488281,-19.53125,-36.375,-4.6875,0.0,0.0,0.0
1695400378558,-0.2939453,-0.32714844,0.4814453,-29.5,-53.28125,-43.625,0.0,0.0,0.0
1695400378588,-0.29101562,-0.49804688,0.29589844,-6.125,-33.46875,-38.09375,0.0,0.0,0.0
1695400378647,-0.24609375,-0.54296875,0.42871094,-20.03125,-4.78125,-11.90625,0.0,0.0,0.0
1695400378679,-0.17382812,-0.54785156,0.54296875,-20.34375,17.1875,-11.96875,0.0,0.0,0.0
1695400378709,-0.4248047,-0.546875,0.91015625,-3.6875,39.59375,-4.34375,0.0,0.0,0.0
1695400378768,-2.0,-0.9863281,1.1953125,9.25,51.0,-12.09375,-48.0,-50.0625,-97.6875
1695400378799,-1.1640625,-0.2265625,0.29589844,-24.96875,147.9375,23.0,0.0,0.0,0.0
1695400378829,-0.95703125,-0.21289062,0.31347656,88.25,66.8125,60.5625,0.0,0.0,0.0
1695400378887,-0.8886719,-0.33496094,0.265625,46.0625,54.3125,74.28125,0.0,0.0,0.0
1695400378918,-0.8876953,-0.34375,0.01171875,-21.375,69.15625,52.375,0.0,0.0,0.0
1695400378949,-1.0830078,-0.28320312,-0.0126953125,-38.71875,73.96875,71.78125,0.0,0.0,0.0
1695400379007,-0.86621094,-0.3203125,0.08300781,-11.96875,92.46875,71.53125,0.0,0.0,0.0
1695400379039,-0.76953125,-0.25,0.19238281,27.75,70.125,36.125,0.0,0.0,0.0
1695400379070,-0.78222656,-0.1875,0.15722656,56.5625,54.375,12.46875,0.0,0.0,0.0
1695400379130,-0.8066406,-0.1015625,0.06542969,34.40625,54.3125,16.90625,0.0,0.0,0.0
1695400379160,-0.9355469,-0.08496094,0.0146484375,5.125,50.09375,31.6875,0.0,0.0,0.0
1695400379188,-1.0625,-0.22851562,0.08886719,-17.65625,35.75,40.46875,0.0,0.0,0.0
1695400379250,-1.1220703,-0.36328125,0.14453125,-40.71875,7.0625,40.46875,0.0,0.0,0.0
1695400379279,-1.2177734,-0.43554688,0.3046875,-66.40625,-27.34375,39.9375,-68.6875,-41.6875,-108.9375
1695400379310,-1.2578125,-0.29882812,0.36328125,-28.03125,-34.75,35.71875,0.0,0.0,0.0
1695400379370,-1.6367188,-0.02734375,0.2109375,-9.90625,-59.46875,38.53125,0.0,0.0,0.0
1695400379399,-1.4453125,-0.052734375,0.14355469,24.21875,-60.1875,10.3125,0.0,0.0,0.0
1695400379429,-0.9707031,0.061523438,0.296875,32.03125,-62.875,-40.78125,0.0,0.0,0.0
1695400379490,-0.96875,0.0048828125,0.29882812,77.875,-90.53125,-80.625,0.0,0.0,0.0
1695400379519,-0.8574219,-0.10839844,0.17773438,9.15625,-105.25,-91.90625,0.0,0.0,0.0
1695400379549,-0.85839844,-0.068359375,0.33984375,-78.6875,-132.15625,-89.65625,0.0,0.0,0.0
1695400379609,-0.7519531,-0.15625,0.37695312,-109.21875,-157.25,-62.75,0.0,0.0,0.0
1695400379638,-0.7832031,-0.0625,0.21777344,-50.25,-123.0,-31.5625,0.0,0.0,0.0
1695400379669,-0.54003906,-0.18554688,0.087890625,-1.90625,-45.1875,-63.65625,0.0,0.0,0.0
1695400379729,-0.5292969,-0.33984375,0.5341797,-46.65625,-9.15625,-45.46875,0.0,0.0,0.0
1695400379760,-0.3671875,-0.46875,0.5527344,-22.46875,-14.21875,-50.46875,-46.5,-49.0,-94.5625
1695400379788,-0.3486328,-0.5419922,0.48046875,3.46875,-37.84375,-53.59375,0.0,0.0,0.0
1695400379820,-0.35253906,-0.5361328,0.44628906,22.28125,3.40625,-27.34375,0.0,0.0,0.0
1695400379878,-0.28710938,-0.5263672,0.49609375,9.875,37.28125,-18.5625,0.0,0.0,0.0
1695400379909,-0.31640625,-0.56933594,0.58691406,-1.34375,67.25,-11.09375,0.0,0.0,0.0
1695400379937,-0.91503906,-0.7236328,0.9238281,33.625,62.625,-1.71875,0.0,0.0,0.0
1695400379999,-1.4345703,-0.74121094,0.5517578,-6.0,129.875,17.65625,0.0,0.0,0.0
1695400380027,-1.1269531,-0.25097656,0.30273438,3.90625,136.78125,23.875,0.0,0.0,0.0
1695400380058,-0.88964844,-0.23730469,0.20996094,56.25,81.46875,41.5,0.0,0.0,0.0
1695400380118,-0.95703125,-0.33789062,0.20507812,19.34375,52.59375,63.59375,0.0,0.0,0.0
1695400380148,-0.89453125,-0.3095703,0.013671875,-16.1875,34.71875,65.3125,0.0,0.0,0.0
1695400380179,-1.0625,-0.28515625,-0.015625,-27.1875,36.0,57.125,0.0,0.0,0.0
1695400380238,-0.8808594,-0.2705078,0.14355469,-23.5,58.46875,43.21875,0.0,0.0,0.0
1695400380268,-0.7363281,-0.26464844,0.2783203,-1.59375,58.21875,27.65625,-60.0,-43.625,-102.5
1695400380305,-0.7734375,-0.2529297,0.16894531,35.15625,37.53125,6.78125,0.0,0.0,0.0
1695400380357,-0.79785156,-0.1640625,0.11621094,12.25,26.21875,7.4375,0.0,0.0,0.0
1695400380388,-0.8886719,-0.16210938,0.15136719,-7.75,21.34375,29.5,0.0,0.0,0.0
1695400380418,-1.0566406,-0.3076172,0.1640625,-21.0,20.4375,50.84375,0.0,0.0,0.0
1695400380508,-1.1845703,-0.53515625,0.24804688,-68.25,3.90625,72.21875,0.0,0.0,0.0
1695400380509,-1.3603516,-0.5107422,0.3935547,-85.28125,3.40625,95.71875,0.0,0.0,0.0
1695400380539,-1.4707031,-0.34277344,0.3701172,-19.375,-7.59375,82.15625,0.0,0.0,0.0
1695400380600,-1.4882812,-0.16210938,0.19921875,54.5625,-18.5625,21.375,0.0,0.0,0.0
1695400380629,-1.0185547,-0.0107421875,0.14550781,61.8125,-47.1875,-35.15625,0.0,0.0,0.0
1695400380659,-0.91015625,0.08886719,0.26757812,79.34375,-72.03125,-83.625,0.0,0.0,0.0
1695400380722,-0.859375,0.15722656,0.22363281,61.28125,-90.78125,-93.1875,0.0,0.0,0.0
1695400380747,-0.9375,0.021484375,0.203125,3.84375,-102.6875,-80.875,-60.875,-38.0625,-98.625
1695400380778,-0.9580078,-0.07519531,0.24804688,-55.6875,-91.875,-69.15625,0.0,0.0,0.0
1695400380846,-0.8984375,-0.20117188,0.234375,-36.15625,-79.65625,-47.65625,0.0,0.0,0.0
1695400380868,-0.94921875,-0.30859375,0.3203125,-2.5625,-61.65625,-72.6875,0.0,0.0,0.0
1695400380901,-0.96777344,-0.20019531,0.37890625,35.9375,8.84375,-59.625,0.0,0.0,0.0
1695400380958,-0.51660156,-0.28515625,0.5332031,-3.84375,-60.8125,-59.0625,0.0,0.0,0.0
1695400380989,-0.3076172,-0.3671875,0.39160156,-16.5625,-137.34375,-51.09375,0.0,0.0,0.0
1695400381018,-0.2763672,-0.4111328,0.4345703,-14.0625,-107.5,-39.53125,0.0,0.0,0.0
1695400381079,-0.28515625,-0.44433594,0.39648438,19.21875,-30.21875,-20.5,0.0,0.0,0.0
1695400381108,-0.14941406,-0.4404297,0.4921875,12.9375,11.28125,-9.53125,0.0,0.0,0.0
1695400381136,-0.22949219,-0.43164062,0.6123047,6.28125,44.46875,-27.21875,0.0,0.0,0.0
1695400381198,-0.43359375,-0.42773438,0.7841797,-3.90625,71.34375,-38.9375,0.0,0.0,0.0
1695400381228,-1.1259766,-0.5908203,1.0302734,-0.75,58.65625,-19.28125,0.0,0.0,0.0
1695400381320,-1.3496094,-0.66015625,0.4140625,-79.34375,139.5,30.59375,-47.25,-49.75,-95.3125
1695400381324,-1.125,-0.47070312,0.54003906,-83.4375,91.90625,45.84375,0.0,0.0,0.0
1695400381349,-0.6796875,-0.46972656,0.39160156,8.78125,51.0625,58.40625,0.0,0.0,0.0
1695400381377,-0.890625,-0.4580078,0.23339844,18.59375,-1.84375,46.21875,0.0,0.0,0.0
1695400381438,-0.82714844,-0.42285156,0.017578125,-16.5,46.4375,44.8125,0.0,0.0,0.0
1695400381468,-1.5800781,-0.234375,-0.15722656,-7.875,85.0625,81.71875,0.0,0.0,0.0
1695400381499,-0.74316406,-0.20996094,0.037109375,22.5,71.8125,36.5625,0.0,0.0,0.0
1695400381558,-0.70703125,-0.3046875,0.3251953,13.46875,36.5625,18.9375,0.0,0.0,0.0
1695400381588,-0.6152344,-0.23339844,0.32128906,22.5,32.15625,11.125,0.0,0.0,0.0
1695400381620,-0.71191406,-0.15917969,0.15136719,8.78125,30.6875,12.9375,0.0,0.0,0.0
1695400381679,-0.8046875,-0.20507812,0.17089844,-27.90625,22.5625,30.53125,0.0,0.0,0.0
1695400381709,-1.0332031,-0.37402344,0.14355469,-47.125,23.96875,46.6875,0.0,0.0,0.0
1695400381769,-1.2197266,-0.47851562,0.3017578,-90.78125,4.5625,68.4375,-62.25,-45.25,-104.125
1695400381800,-1.3554688,-0.5546875,0.453125,-85.71875,22.8125,112.0,0.0,0.0,0.0
1695400381828,-1.4257812,-0.54296875,0.46972656,-36.5,26.40625,114.3125,0.0,0.0,0.0
1695400381857,-1.4804688,-0.20800781,0.24609375,8.59375,-3.0,71.40625,0.0,0.0,0.0
1695400381918,-1.1660156,-0.095703125,0.24707031,32.03125,-38.46875,13.4375,0.0,0.0,0.0
1695400381949,-0.9472656,0.12597656,0.26367188,68.59375,-91.25,-79.40625,0.0,0.0,0.0
1695400381981,-0.9941406,-9.765625E-4,0.068359375,73.78125,-105.1875,-130.3125,0.0,0.0,0.0
1695400382038,-0.8535156,-0.0087890625,0.17480469,-5.03125,-105.25,-119.25,0.0,0.0,0.0
1695400382068,-0.8955078,0.029296875,0.3935547,-82.53125,-102.96875,-98.125,0.0,0.0,0.0
1695400382099,-0.7216797,-0.13085938,0.171875,-35.0,-104.9375,-43.34375,0.0,0.0,0.0
1695400382158,-0.74902344,-0.15332031,0.13769531,-39.1875,-83.03125,-46.3125,0.0,0.0,0.0
1695400382190,-0.5234375,-0.36523438,0.40625,-49.09375,-64.78125,-53.15625,0.0,0.0,0.0
1695400382219,-0.40722656,-0.45410156,0.5126953,-28.21875,-48.28125,-60.40625,0.0,0.0,0.0
1695400382277,-0.27929688,-0.55371094,0.5341797,0.84375,-57.4375,-58.90625,-44.6875,-51.875,-96.375
1695400382309,-0.3125,-0.6669922,0.34570312,21.53125,-28.40625,-30.9375,0.0,0.0,0.0
1695400382339,-0.21972656,-0.609375,0.47753906,-8.3125,31.25,-17.28125,0.0,0.0,0.0
1695400382399,-0.19628906,-0.54296875,0.6904297,-8.875,72.0625,-19.59375,0.0,0.0,0.0
1695400382431,-0.78027344,-0.77734375,0.85253906,45.75,42.84375,-25.4375,0.0,0.0,0.0
1695400382459,-1.5048828,-0.88671875,0.42773438,-34.5625,147.3125,0.90625,0.0,0.0,0.0
1695400382517,-1.0849609,-0.2548828,0.2734375,7.25,108.9375,28.875,0.0,0.0,0.0
1695400382550,-0.8066406,-0.23046875,0.21972656,94.53125,83.25,61.40625,0.0,0.0,0.0
1695400382579,-0.9404297,-0.25976562,0.10058594,25.75,74.8125,63.90625,0.0,0.0,0.0
1695400382641,-0.9033203,-0.23339844,0.016601562,-13.5625,19.28125,75.4375,0.0,0.0,0.0
1695400382670,-1.0439453,-0.21679688,0.053710938,4.25,51.375,72.6875,0.0,0.0,0.0
1695400382698,-0.8408203,-0.296875,0.053710938,10.96875,74.15625,52.9375,0.0,0.0,0.0
1695400382787,-0.82421875,-0.2841797,0.18945312,20.375,64.875,26.6875,-59.125,-45.5625,-101.3125
1695400382792,-0.78808594,-0.2841797,0.17285156,39.34375,56.6875,6.0,0.0,0.0,0.0
1695400382819,-0.79785156,-0.17382812,0.11425781,8.65625,49.65625,2.6875,0.0,0.0,0.0
1695400382879,-0.8574219,-0.22949219,0.25195312,-14.59375,33.25,16.78125,0.0,0.0,0.0
1695400382913,-1.1289062,-0.38085938,0.16210938,-4.53125,27.03125,35.46875,0.0,0.0,0.0
1695400382938,-1.1523438,-0.46679688,0.23144531,-27.71875,4.03125,49.8125,0.0,0.0,0.0
1695400383001,-1.4208984,-0.5332031,0.2763672,-53.125,-11.25,84.53125,0.0,0.0,0.0
1695400383029,-1.3203125,-0.28320312,0.40429688,-35.96875,10.125,79.15625,0.0,0.0,0.0
1695400383061,-1.4023438,-0.14648438,0.21386719,4.9375,-10.03125,31.4375,0.0,0.0,0.0
1695400383118,-1.3603516,-0.00390625,0.14453125,34.03125,-31.125,8.0,0.0,0.0,0.0
1695400383149,-1.0039062,0.080078125,0.30273438,54.25,-64.71875,-39.4375,0.0,0.0,0.0
1695400383179,-0.99121094,0.047851562,0.23144531,28.0,-97.96875,-67.3125,0.0,0.0,0.0
1695400383241,-0.9140625,-0.029296875,0.1953125,-30.59375,-128.125,-78.71875,0.0,0.0,0.0
1695400383269,-0.9199219,-0.123046875,0.29296875,-74.78125,-146.375,-103.21875,-57.875,-40.3125,-96.8125
1695400383300,-0.79589844,-0.15429688,0.21289062,-35.34375,-116.53125,-104.5,0.0,0.0,0.0
1695400383359,-0.85058594,-0.111328125,0.12402344,-14.0,-114.8125,-20.375,0.0,0.0,0.0
1695400383389,-0.5996094,-0.06738281,0.2548828,-17.34375,-68.96875,-34.0,0.0,0.0,0.0
1695400383418,-0.3935547,-0.20996094,0.46875,-26.9375,-76.3125,-40.53125,0.0,0.0,0.0
1695400383480,-0.390625,-0.36523438,0.5703125,-26.3125,-90.96875,-56.28125,0.0,0.0,0.0
1695400383509,-0.38378906,-0.38476562,0.44335938,0.46875,-71.0,-44.5,0.0,0.0,0.0
1695400383539,-0.3330078,-0.43554688,0.36132812,-2.6875,-12.53125,-11.46875,0.0,0.0,0.0
1695400383599,-0.23242188,-0.40527344,0.57128906,-5.4375,27.5625,-0.46875,0.0,0.0,0.0
1695400383629,-0.19726562,-0.484375,0.63671875,-17.15625,55.53125,-4.09375,0.0,0.0,0.0
1695400383662,-0.28320312,-0.6347656,0.6953125,-4.90625,65.59375,-12.375,0.0,0.0,0.0
1695400383718,-0.7080078,-1.0273438,1.1435547,-24.5625,41.8125,-48.28125,0.0,0.0,0.0
1695400383749,-0.8779297,-0.6933594,0.4814453,-7.28125,145.0625,-17.75,-39.125,-51.4375,-94.375
1695400383778,-0.9404297,-0.46679688,0.41210938,-11.5,80.90625,7.09375,0.0,0.0,0.0
1695400383840,-0.7861328,-0.453125,0.39453125,12.125,95.625,15.6875,0.0,0.0,0.0
1695400383868,-0.81640625,-0.40625,0.32421875,-9.90625,65.0625,24.1875,0.0,0.0,0.0
1695400383900,-0.9980469,-0.38476562,0.18652344,-2.09375,70.46875,29.71875,0.0,0.0,0.0
1695400383960,-1.0107422,-0.2939453,0.01171875,12.9375,66.21875,56.40625,0.0,0.0,0.0
1695400383989,-1.0800781,-0.26757812,0.13183594,10.25,62.96875,73.0625,0.0,0.0,0.0
1695400384019,-0.9550781,-0.30371094,0.171875,2.1875,57.0,68.71875,0.0,0.0,0.0
1695400384080,-0.8964844,-0.36816406,0.19335938,-36.03125,44.125,69.09375,0.0,0.0,0.0
1695400384111,-0.86816406,-0.36621094,0.1484375,-50.3125,35.375,85.75,0.0,0.0,0.0
1695400384138,-0.79296875,-0.38378906,0.0546875,-59.53125,25.9375,82.65625,0.0,0.0,0.0
1695400384199,-0.7597656,-0.38378906,0.046875,-20.53125,33.8125,74.28125,0.0,0.0,0.0
1695400384228,-0.75390625,-0.33789062,0.07519531,17.125,32.8125,49.5,0.0,0.0,0.0
1695400384287,-0.8847656,-0.2890625,0.08886719,39.0,40.5625,19.21875,-64.0625,-47.0625,-106.5625
1695400384318,-0.99609375,-0.09667969,0.11621094,37.40625,46.1875,14.28125,0.0,0.0,0.0
1695400384348,-1.0175781,-0.080078125,0.13574219,14.28125,46.5,36.5625,0.0,0.0,0.0
1695400384378,-1.0449219,-0.15234375,0.11816406,-13.1875,11.53125,61.59375,0.0,0.0,0.0
1695400384439,-1.0410156,-0.27929688,0.07519531,-14.90625,-31.875,68.78125,0.0,0.0,0.0
1695400384468,-1.2294922,-0.1484375,-0.16796875,-20.28125,-49.375,35.46875,0.0,0.0,0.0
1695400384499,-1.5078125,-0.123046875,0.13964844,-32.46875,-62.03125,11.46875,0.0,0.0,0.0
1695400384562,-1.2109375,-0.10058594,0.19140625,-7.03125,-66.0,-18.3125,0.0,0.0,0.0
1695400384588,-0.9707031,-0.0068359375,0.18164062,9.375,-109.25,-51.875,0.0,0.0,0.0
1695400384618,-0.96777344,0.060546875,0.23632812,21.96875,-122.4375,-83.0,0.0,0.0,0.0
1695400384679,-0.9501953,0.06347656,0.34375,21.21875,-102.90625,-111.5625,0.0,0.0,0.0
1695400384709,-0.875,0.18457031,0.38085938,6.15625,-72.28125,-105.28125,0.0,0.0,0.0
1695400384768,-0.8730469,-0.17382812,0.25195312,-15.9375,-67.46875,-59.8125,-52.625,-49.75,-96.9375
1695400384799,-0.6923828,-0.26953125,0.21386719,-49.5,-37.90625,-27.09375,0.0,0.0,0.0
1695400384828,-0.59277344,-0.3232422,0.30566406,-84.125,-18.75,-41.1875,0.0,0.0,0.0
1695400384860,-0.5097656,-0.2705078,0.46289062,-36.28125,7.3125,-62.6875,0.0,0.0,0.0
1695400384919,-0.46875,-0.29589844,0.3935547,15.90625,15.0,-52.78125,0.0,0.0,0.0
1695400384949,-0.5185547,-0.35839844,0.37402344,12.25,19.53125,-22.75,0.0,0.0,0.0
1695400384979,-0.56933594,-0.41601562,0.56347656,-5.375,40.9375,-4.21875,0.0,0.0,0.0
1695400385069,-0.7265625,-0.62597656,0.51171875,-9.84375,48.3125,-16.78125,0.0,0.0,0.0
1695400385072,-0.79296875,-0.5996094,0.6015625,-32.375,31.59375,-42.09375,0.0,0.0,0.0
1695400385099,-1.1289062,-0.7597656,0.6328125,-43.34375,22.5,-41.75,0.0,0.0,0.0
1695400385159,-1.1171875,-0.46777344,0.12890625,-24.5625,44.46875,-95.46875,0.0,0.0,0.0
1695400385188,-1.0703125,-0.43554688,0.24414062,61.5,43.875,-19.96875,0.0,0.0,0.0
1695400385219,-0.875,-0.26757812,0.05078125,8.65625,11.09375,35.59375,0.0,0.0,0.0
1695400385281,-1.0644531,-0.20605469,-0.036132812,22.8125,-22.78125,92.96875,-48.625,-55.3125,-104.125
1695400385309,-1.2363281,-0.3671875,-0.15136719,19.8125,41.6875,108.78125,0.0,0.0,0.0
1695400385339,-0.95703125,-0.42773438,-0.052734375,-0.3125,62.65625,74.09375,0.0,0.0,0.0
1695400385400,-0.81347656,-0.43554688,0.22070312,-8.125,40.28125,40.09375,0.0,0.0,0.0
1695400385429,-0.7207031,-0.34472656,0.27246094,-4.03125,20.625,29.5,0.0,0.0,0.0
1695400385457,-0.85839844,-0.2783203,0.17480469,13.40625,22.3125,32.0,0.0,0.0,0.0
1695400385518,-0.94140625,-0.26757812,0.040039062,19.75,45.59375,28.5,0.0,0.0,0.0
1695400385546,-0.9628906,-0.31347656,0.15429688,-5.25,26.0625,22.90625,0.0,0.0,0.0
1695400385578,-1.0117188,-0.34277344,0.19921875,-28.625,1.21875,24.59375,0.0,0.0,0.0
1695400385639,-1.0683594,-0.31445312,0.14746094,-46.65625,-10.09375,45.40625,0.0,0.0,0.0
1695400385668,-1.1054688,-0.28320312,0.111328125,-49.21875,-11.0625,68.125,0.0,0.0,0.0
1695400385700,-1.2041016,-0.26953125,0.1328125,-58.375,-15.46875,86.5,0.0,0.0,0.0
1695400385758,-1.3818359,-0.34375,0.2109375,-61.0625,-28.03125,95.84375,-61.9375,-50.6875,-111.375
1695400385787,-1.4580078,-0.31835938,0.3173828,-33.53125,-24.4375,70.5625,0.0,0.0,0.0
1695400385818,-1.3798828,-0.0703125,0.31933594,28.625,-50.0625,20.34375,0.0,0.0,0.0
1695400385879,-1.0947266,0.05078125,0.26953125,53.21875,-71.53125,-56.6875,0.0,0.0,0.0
1695400385908,-0.89746094,0.12792969,0.26464844,54.96875,-45.125,-80.75,0.0,0.0,0.0
1695400385944,-0.8564453,0.14160156,0.3564453,-9.03125,-85.8125,-65.78125,0.0,0.0,0.0
1695400385998,-0.7783203,-0.05078125,0.26464844,-19.65625,-139.125,-62.625,0.0,0.0,0.0
1695400386030,-0.78125,-0.16992188,0.34765625,-38.78125,-161.875,-84.59375,0.0,0.0,0.0
1695400386058,-0.7314453,-0.21582031,0.4716797,-49.8125,-102.5625,-109.5625,0.0,0.0,0.0
1695400386118,-0.6484375,-0.30078125,0.35058594,-16.375,-2.21875,-101.0,0.0,0.0,0.0
1695400386148,-0.59375,-0.3251953,0.4560547,-20.65625,20.0,-91.125,0.0,0.0,0.0
1695400386177,-0.5888672,-0.2685547,0.56640625,-5.375,-26.1875,-91.90625,0.0,0.0,0.0
1695400386239,-0.48339844,-0.2734375,0.46484375,16.09375,-61.46875,-69.09375,0.0,0.0,0.0
1695400386268,-0.48828125,-0.4248047,0.390625,1.4375,-55.25,-54.6875,-40.625,-55.625,-100.25
1695400386297,-0.4111328,-0.53027344,0.4580078,1.5625,-8.1875,-28.9375,0.0,0.0,0.0
1695400386358,-0.21679688,-0.5839844,0.51171875,-13.9375,19.65625,-1.9375,0.0,0.0,0.0
1695400386388,-0.18261719,-0.5732422,0.60839844,-9.28125,40.21875,-14.09375,0.0,0.0,0.0
1695400386418,-0.30664062,-0.59765625,0.64160156,1.5,67.84375,-14.15625,0.0,0.0,0.0
1695400386479,-1.2519531,-0.93066406,1.0751953,26.65625,102.09375,-32.71875,0.0,0.0,0.0
1695400386508,-0.9375,-0.7470703,0.2861328,-94.8125,136.46875,-41.9375,0.0,0.0,0.0
1695400386539,-1.25,-0.5292969,0.43066406,-1.90625,72.9375,46.34375,0.0,0.0,0.0
1695400386599,-0.67578125,-0.40234375,0.20019531,57.78125,83.0,48.09375,0.0,0.0,0.0
1695400386628,-0.81347656,-0.23632812,0.10253906,-4.28125,66.8125,52.96875,0.0,0.0,0.0
1695400386659,-1.0664062,-0.3076172,-0.036132812,-30.15625,81.21875,81.1875,0.0,0.0,0.0
1695400386718,-0.9892578,-0.26171875,-9.765625E-4,-19.25,85.25,100.34375,0.0,0.0,0.0
1695400386749,-0.9199219,-0.37304688,0.19433594,16.59375,79.6875,84.21875,-56.125,-51.4375,-107.125
1695400386780,-0.7441406,-0.4296875,0.13476562,5.0625,60.09375,65.1875,0.0,0.0,0.0
1695400386842,-0.7783203,-0.3984375,0.07421875,-26.125,34.34375,46.6875,0.0,0.0,0.0
1695400386868,-0.8388672,-0.28710938,0.10449219,-5.4375,45.53125,27.21875,0.0,0.0,0.0
1695400386912,-0.87597656,-0.3359375,0.11035156,50.15625,54.375,7.875,0.0,0.0,0.0
1695400386957,-0.92285156,-0.38378906,0.049804688,29.21875,39.0625,0.6875,0.0,0.0,0.0
1695400386987,-1.0585938,-0.32226562,0.15625,-29.6875,-2.28125,18.0625,0.0,0.0,0.0
1695400387016,-1.2148438,-0.3857422,0.099609375,-23.03125,-32.1875,56.875,0.0,0.0,0.0
1695400387077,-1.1728516,-0.49902344,0.16796875,-46.21875,-54.75,73.5,0.0,0.0,0.0
1695400387107,-0.9902344,-0.50390625,0.296875,-46.75,-54.75,85.5625,0.0,0.0,0.0
1695400387137,-1.6542969,-0.21191406,0.3544922,-70.15625,-81.96875,62.9375,0.0,0.0,0.0
1695400387201,-1.2226562,-0.14648438,0.20019531,25.125,-34.3125,24.90625,0.0,0.0,0.0
1695400387228,-1.0976562,0.04296875,0.38671875,38.25,-63.84375,-46.125,0.0,0.0,0.0
1695400387258,-0.80371094,0.009765625,0.35253906,83.0625,-48.65625,-81.0,-63.0,-44.9375,-107.125
1695400387347,-0.8076172,-0.068359375,0.24707031,51.3125,-103.28125,-100.9375,0.0,0.0,0.0
1695400387349,-0.8623047,-0.16699219,0.22558594,-11.5625,-122.75,-128.53125,0.0,0.0,0.0
1695400387379,-0.77734375,-0.265625,0.3486328,-89.4375,-86.0625,-105.40625,0.0,0.0,0.0
1695400387439,-0.91015625,-0.2109375,0.07324219,-25.53125,-25.84375,-48.15625,0.0,0.0,0.0
1695400387467,-0.8203125,-0.045898438,0.1875,26.1875,-53.59375,-29.46875,0.0,0.0,0.0
1695400387499,-0.5019531,-0.115234375,0.3955078,16.34375,-59.71875,-37.65625,0.0,0.0,0.0
1695400387558,-0.4794922,-0.23242188,0.48046875,-10.6875,-74.21875,-36.625,0.0,0.0,0.0
1695400387589,-0.43945312,-0.46289062,0.4404297,-6.78125,-98.46875,-33.5625,0.0,0.0,0.0
1695400387618,-0.37597656,-0.54003906,0.40820312,-15.8125,-32.71875,-15.4375,0.0,0.0,0.0
1695400387678,-0.19140625,-0.53515625,0.53027344,-28.03125,21.46875,11.40625,0.0,0.0,0.0
1695400387707,-0.15039062,-0.47070312,0.6689453,-36.3125,52.71875,-6.78125,0.0,0.0,0.0
1695400387738,-0.3251953,-0.5019531,1.1943359,4.03125,44.84375,-2.1875,-43.1875,-51.4375,-102.0625
1695400387799,-1.8291016,-1.2753906,0.6591797,-48.84375,146.84375,-59.375,0.0,0.0,0.0
1695400387828,-1.4365234,-0.49804688,0.36132812,-62.6875,153.6875,0.375,0.0,0.0,0.0
1695400387859,-0.8339844,-0.32128906,0.22363281,62.3125,90.0625,55.0,0.0,0.0,0.0
1695400387920,-0.828125,-0.34277344,0.16601562,-2.5625,53.28125,49.25,0.0,0.0,0.0
1695400387947,-0.8720703,-0.2421875,0.025390625,-43.59375,46.875,57.3125,0.0,0.0,0.0
1695400387979,-1.0771484,-0.2841797,-0.14453125,-38.65625,52.65625,94.0625,0.0,0.0,0.0
1695400388038,-1.0302734,-0.28125,-0.0068359375,-19.375,58.71875,77.28125,0.0,0.0,0.0
1695400388068,-0.96972656,-0.32128906,0.16015625,4.4375,63.34375,63.53125,0.0,0.0,0.0
1695400388099,-0.7636719,-0.328125,0.09667969,-19.0625,42.71875,53.46875,0.0,0.0,0.0
1695400388158,-0.79589844,-0.31152344,0.18457031,-30.96875,27.9375,56.40625,0.0,0.0,0.0
1695400388189,-0.86035156,-0.3359375,0.047851562,2.0,29.71875,45.28125,0.0,0.0,0.0
1695400388220,-0.9111328,-0.3125,0.053710938,23.84375,18.3125,19.09375,0.0,0.0,0.0
1695400388280,-0.9824219,-0.3828125,0.08496094,12.3125,12.875,-5.1875,-63.0,-46.0,-113.125
1695400388309,-1.1064453,-0.30566406,0.24316406,-29.6875,-1.15625,8.4375,0.0,0.0,0.0
1695400388347,-1.1416016,-0.31835938,0.19042969,-24.78125,-23.5,45.40625,0.0,0.0,0.0
1695400388399,-1.0996094,-0.390625,0.13964844,-37.3125,-35.96875,68.5625,0.0,0.0,0.0
1695400388429,-1.6376953,-0.35839844,0.16113281,-45.375,-40.40625,54.09375,0.0,0.0,0.0
1695400388459,-1.4814453,-0.20996094,0.22949219,-24.4375,-22.28125,34.5625,0.0,0.0,0.0
1695400388519,-1.2441406,-0.13378906,0.29589844,37.59375,-41.625,12.03125,0.0,0.0,0.0
1695400388548,-0.95214844,0.0146484375,0.38964844,84.28125,-59.46875,-79.875,0.0,0.0,0.0
1695400388579,-0.8808594,0.046875,0.16113281,102.09375,-71.59375,-108.9375,0.0,0.0,0.0
1695400388641,-0.7988281,-0.017578125,0.12207031,53.53125,-102.90625,-100.75,0.0,0.0,0.0
1695400388671,-0.82128906,-0.13183594,0.18261719,-21.375,-130.3125,-93.375,0.0,0.0,0.0
1695400388698,-0.82128906,-0.15527344,0.24023438,-70.75,-126.71875,-98.75,0.0,0.0,0.0
1695400388761,-0.84765625,-0.1171875,0.21679688,-21.8125,-41.5625,-69.28125,-49.8125,-47.6875,-99.8125
1695400388790,-0.8222656,-0.2607422,0.16894531,25.625,-1.90625,-55.59375,0.0,0.0,0.0
1695400388819,-0.57910156,-0.2783203,0.4921875,-29.1875,-44.3125,-58.90625,0.0,0.0,0.0
1695400388879,-0.4716797,-0.44335938,0.5292969,-32.0,-74.78125,-62.75,0.0,0.0,0.0
1695400388908,-0.4140625,-0.5673828,0.42382812,-19.78125,-71.53125,-54.375,0.0,0.0,0.0
1695400388938,-0.43066406,-0.57128906,0.37304688,0.34375,-9.28125,-23.96875,0.0,0.0,0.0
1695400388999,-0.29492188,-0.53515625,0.48535156,0.53125,31.25,-4.9375,0.0,0.0,0.0
1695400389034,-0.24609375,-0.4951172,0.52734375,-20.8125,37.46875,-8.46875,0.0,0.0,0.0
1695400389058,-0.37304688,-0.6123047,0.8564453,-27.0625,41.125,-5.3125,0.0,0.0,0.0
1695400389119,-1.4345703,-1.2207031,0.86328125,-27.53125,72.875,-31.5,0.0,0.0,0.0
1695400389151,-1.1123047,-0.6533203,0.2890625,-38.90625,78.90625,2.25,0.0,0.0,0.0
1695400389179,-0.9140625,-0.453125,0.35351562,10.84375,67.0,43.9375,0.0,0.0,0.0
1695400389241,-0.8183594,-0.41992188,0.21582031,-1.46875,65.71875,58.125,0.0,0.0,0.0
1695400389268,-0.88183594,-0.32421875,0.12207031,-13.25,53.40625,66.40625,-49.375,-53.1875,-102.375
1695400389299,-1.0615234,-0.28222656,-0.00390625,-5.3125,54.6875,92.65625,0.0,0.0,0.0
1695400389360,-1.0175781,-0.31835938,-0.015625,25.0625,51.75,88.625,0.0,0.0,0.0
1695400389389,-0.9375,-0.4296875,0.12792969,17.625,61.15625,71.96875,0.0,0.0,0.0
1695400389418,-0.75097656,-0.39746094,0.14746094,-28.03125,48.8125,48.65625,0.0,0.0,0.0
1695400389479,-0.7626953,-0.29492188,0.20507812,-43.21875,18.53125,35.65625,0.0,0.0,0.0
1695400389509,-0.7714844,-0.31835938,0.14257812,0.0625,22.21875,44.5625,0.0,0.0,0.0
1695400389539,-0.83203125,-0.36621094,0.103515625,19.9375,34.78125,21.90625,0.0,0.0,0.0
1695400389629,-0.92285156,-0.36328125,0.09375,-2.625,18.1875,5.9375,0.0,0.0,0.0
1695400389634,-1.0654297,-0.33496094,0.16894531,-20.59375,-1.0625,27.09375,0.0,0.0,0.0
1695400389660,-1.0654297,-0.40039062,0.21191406,-13.9375,-10.03125,49.1875,0.0,0.0,0.0
1695400389719,-1.0839844,-0.4169922,0.2109375,-22.09375,-20.53125,68.25,0.0,0.0,0.0
1695400389750,-1.4189453,-0.45410156,0.32421875,-59.28125,-45.0,60.25,-63.875,-45.875,-108.375
1695400389779,-1.4755859,-0.30664062,0.2783203,-4.53125,-5.9375,36.9375,0.0,0.0,0.0
1695400389840,-1.3525391,-0.1796875,0.25390625,54.90625,-29.4375,2.09375,0.0,0.0,0.0
1695400389875,-1.1660156,-0.016601562,0.2890625,91.46875,-49.9375,-66.15625,0.0,0.0,0.0
1695400389898,-0.8652344,0.059570312,0.28222656,102.96875,-45.4375,-86.40625,0.0,0.0,0.0
1695400389960,-0.97753906,0.0078125,0.13964844,91.34375,-85.03125,-98.09375,0.0,0.0,0.0
1695400389989,-0.9082031,-0.12011719,0.13378906,13.90625,-112.25,-97.84375,0.0,0.0,0.0
1695400390018,-0.8300781,-0.23632812,0.26660156,-64.65625,-132.65625,-63.53125,0.0,0.0,0.0
1695400390079,-0.83203125,-0.15820312,0.3251953,-50.625,-95.65625,-33.75,0.0,0.0,0.0
1695400390108,-0.6611328,-0.26464844,0.17773438,0.15625,-32.78125,-31.84375,0.0,0.0,0.0
1695400390139,-0.5595703,-0.34277344,0.37695312,-1.21875,-25.9375,-54.5625,0.0,0.0,0.0
1695400390201,-0.51464844,-0.3330078,0.56152344,-4.46875,-69.84375,-65.96875,0.0,0.0,0.0
1695400390230,-0.39160156,-0.375,0.38964844,31.1875,-73.375,-52.53125,0.0,0.0,0.0
1695400390259,-0.4423828,-0.41210938,0.34375,7.96875,-39.5625,-41.25,-40.9375,-49.1875,-94.375
1695400390325,-0.34179688,-0.4267578,0.5234375,-2.5625,9.21875,-11.78125,0.0,0.0,0.0
1695400390349,-0.24023438,-0.45996094,0.5576172,-28.8125,42.53125,-2.875,0.0,0.0,0.0
1695400390379,-0.35253906,-0.50683594,0.7988281,-19.84375,61.28125,7.75,0.0,0.0,0.0
1695400390439,-1.3154297,-0.9355469,1.0615234,-0.375,109.59375,-16.71875,0.0,0.0,0.0
1695400390469,-1.1738281,-0.68359375,0.17871094,-73.875,100.9375,-16.0625,0.0,0.0,0.0
1695400390499,-1.1904297,-0.46484375,0.33691406,2.75,80.90625,33.03125,0.0,0.0,0.0
1695400390560,-0.7548828,-0.42089844,0.17578125,27.5625,73.59375,51.46875,0.0,0.0,0.0
1695400390588,-0.9003906,-0.3408203,0.083984375,-28.5,40.34375,51.8125,0.0,0.0,0.0
1695400390619,-1.0869141,-0.32128906,-0.032226562,-30.71875,52.1875,68.78125,0.0,0.0,0.0
1695400390679,-0.9658203,-0.26171875,-0.04296875,-15.6875,79.75,70.0,0.0,0.0,0.0
1695400390708,-0.9013672,-0.34375,0.18359375,27.5,76.71875,60.84375,0.0,0.0,0.0
1695400390739,-0.734375,-0.4013672,0.13085938,15.78125,72.6875,61.28125,-59.5625,-49.0,-104.875
1695400390798,-0.7597656,-0.37695312,0.13574219,-46.09375,31.375,47.125,0.0,0.0,0.0
1695400390829,-0.8496094,-0.35742188,0.1171875,-26.125,34.78125,38.8125,0.0,0.0,0.0
1695400390859,-0.8857422,-0.40722656,0.022460938,8.40625,40.21875,24.3125,0.0,0.0,0.0
1695400390919,-0.93066406,-0.4189453,-9.765625E-4,13.96875,18.65625,4.46875,0.0,0.0,0.0
1695400390949,-1.0478516,-0.40234375,0.15039062,-24.4375,9.875,7.75,0.0,0.0,0.0
1695400390979,-1.0869141,-0.3466797,0.17285156,-14.34375,4.375,49.03125,0.0,0.0,0.0
1695400391040,-1.234375,-0.3623047,0.23828125,0.125,-20.40625,65.625,0.0,0.0,0.0
1695400391070,-1.4111328,-0.35742188,0.22265625,-2.625,-35.90625,17.8125,0.0,0.0,0.0
1695400391098,-1.7490234,-0.18359375,0.1640625,12.5625,-65.875,7.875,0.0,0.0,0.0
1695400391161,-1.0917969,-0.052734375,0.123046875,68.53125,-57.3125,-20.5,0.0,0.0,0.0
1695400391205,-1.0585938,0.044921875,0.30859375,62.78125,-69.96875,-38.09375,0.0,0.0,0.0
1695400391218,-0.9277344,-0.0146484375,0.19824219,31.78125,-89.96875,-32.96875,0.0,0.0,0.0
1695400391279,-0.88183594,-0.14453125,0.17773438,-15.9375,-108.15625,-35.8125,-58.625,-41.6875,-99.9375
1695400391309,-1.0351562,-0.1484375,0.26367188,-73.375,-84.84375,-69.5,0.0,0.0,0.0
1695400391340,-1.0048828,-0.13574219,0.17773438,-44.75,-31.9375,-94.34375,0.0,0.0,0.0
1695400391399,-0.65722656,-0.1796875,0.19042969,5.125,-38.03125,-67.8125,0.0,0.0,0.0
1695400391428,-0.46289062,-0.20703125,0.3125,11.28125,-68.1875,-68.40625,0.0,0.0,0.0
1695400391459,-0.4248047,-0.20605469,0.34277344,-24.0,-118.59375,-79.59375,0.0,0.0,0.0
1695400391519,-0.4951172,-0.36523438,0.35742188,-37.25,-105.53125,-65.125,0.0,0.0,0.0
1695400391548,-0.40429688,-0.453125,0.25195312,0.28125,-23.5625,-30.15625,0.0,0.0,0.0
1695400391579,-0.296875,-0.5263672,0.4326172,-6.53125,21.34375,-11.53125,0.0,0.0,0.0
1695400391640,-0.21679688,-0.62597656,0.53125,-42.375,65.65625,6.34375,0.0,0.0,0.0
1695400391669,-0.36328125,-0.6748047,0.86621094,-51.9375,91.71875,12.21875,0.0,0.0,0.0
1695400391699,-1.4873047,-1.2744141,1.0097656,-24.65625,99.84375,-42.53125,0.0,0.0,0.0
1695400391761,-1.3457031,-0.7216797,0.025390625,-45.25,59.6875,3.0,-45.625,-56.8125,-101.3125
1695400391789,-1.0322266,-0.34570312,0.26367188,52.1875,67.3125,38.53125,0.0,0.0,0.0
1695400391820,-0.8671875,-0.3544922,0.16894531,58.03125,60.59375,48.21875,0.0,0.0,0.0
1695400391908,-0.9013672,-0.30566406,0.017578125,3.09375,38.0625,56.15625,0.0,0.0,0.0
1695400391910,-1.0605469,-0.2998047,-0.1015625,-2.03125,42.65625,76.125,0.0,0.0,0.0
1695400391940,-0.90625,-0.23925781,-0.13964844,-16.84375,65.96875,82.9375,0.0,0.0,0.0
1695400391998,-0.9042969,-0.32128906,0.12792969,0.59375,53.625,71.1875,0.0,0.0,0.0
1695400392028,-0.78515625,-0.40429688,0.18847656,-42.5625,69.375,46.28125,0.0,0.0,0.0
1695400392059,-0.7548828,-0.34472656,0.1796875,-48.84375,31.71875,36.625,0.0,0.0,0.0
1695400392119,-0.89160156,-0.3310547,0.0859375,-7.40625,26.46875,43.65625,0.0,0.0,0.0
1695400392149,-0.94628906,-0.34570312,0.040039062,16.28125,30.03125,34.5,0.0,0.0,0.0
1695400392180,-0.9453125,-0.4033203,-0.0107421875,12.375,20.25,9.40625,0.0,0.0,0.0
1695400392239,-0.9980469,-0.37402344,0.16699219,-41.625,0.65625,8.90625,0.0,0.0,0.0
1695400392267,-1.0224609,-0.37597656,0.16113281,-24.375,-16.78125,42.90625,-65.5625,-49.1875,-111.625
1695400392298,-1.1738281,-0.4482422,0.14160156,-33.03125,-24.125,61.78125,0.0,0.0,0.0
1695400392360,-1.1113281,-0.4716797,0.16992188,-59.8125,-10.21875,49.3125,0.0,0.0,0.0
1695400392389,-1.2714844,-0.2734375,0.091796875,3.59375,-8.8125,13.8125,0.0,0.0,0.0
1695400392418,-1.2138672,-0.24023438,0.12109375,49.71875,-27.40625,12.8125,0.0,0.0,0.0
1695400392477,-1.7451172,-0.036132812,0.25585938,58.65625,-57.03125,-17.625,0.0,0.0,0.0
1695400392507,-0.9091797,-0.064453125,0.24023438,71.28125,-41.9375,-29.28125,0.0,0.0,0.0
1695400392546,-0.8417969,-0.005859375,0.24609375,43.6875,-76.125,-53.34375,0.0,0.0,0.0
1695400392598,-0.9326172,-0.043945312,0.16699219,27.6875,-104.5,-71.71875,0.0,0.0,0.0
1695400392628,-0.8730469,-0.17382812,0.11816406,-3.6875,-99.8125,-87.28125,0.0,0.0,0.0
1695400392662,-0.88671875,-0.12402344,0.23925781,-36.03125,-83.375,-105.28125,0.0,0.0,0.0
1695400392722,-0.8984375,-0.083984375,0.13183594,6.9375,-48.0,-86.0,0.0,0.0,0.0
1695400392749,-0.7548828,-0.24121094,0.15722656,-15.9375,-68.3125,-56.9375,-51.3125,-51.5625,-99.8125
1695400392779,-0.62109375,-0.2783203,0.43847656,-41.5625,-63.4375,-57.5,0.0,0.0,0.0
1695400392840,-0.39941406,-0.3857422,0.45507812,-68.125,-122.9375,-94.125,0.0,0.0,0.0
1695400392874,-0.5205078,-0.5996094,0.48242188,-38.84375,-110.0625,-61.625,0.0,0.0,0.0
1695400392897,-0.40820312,-0.48535156,0.28320312,4.03125,6.21875,-20.0,0.0,0.0,0.0
1695400392958,-0.27539062,-0.49414062,0.4326172,-2.40625,33.9375,-6.90625,0.0,0.0,0.0
1695400392987,-0.15234375,-0.51953125,0.47851562,-31.8125,60.40625,4.78125,0.0,0.0,0.0
1695400393017,-0.28125,-0.6435547,0.6298828,-19.0625,91.78125,15.09375,0.0,0.0,0.0
1695400393078,-1.7158203,-1.3232422,0.9980469,1.09375,52.40625,-53.34375,0.0,0.0,0.0
1695400393115,-1.1074219,-0.6660156,0.14160156,-8.0,51.6875,9.84375,0.0,0.0,0.0
