# Sensor type: Thingy
# Activity type: Miscellaneous movements
# Activity subtype: Normal
# Subject id: s1971889
# Notes: 
timestamp,accel_x,accel_y,accel_z,gyro_x,gyro_y,gyro_z,mag_x,mag_y,mag_z
1695397576713,-0.87597656,-0.31347656,-0.055664062,107.78125,27.59375,-1.84375,0.0,0.0,0.0
1695397576744,-1.0263672,-0.26171875,0.01171875,95.59375,33.53125,-13.03125,-72.0,-54.5625,-116.625
1695397576774,-1.1552734,-0.09667969,0.16503906,53.46875,16.3125,-17.53125,0.0,0.0,0.0
1695397576834,-1.0,-0.37304688,0.12011719,53.90625,-11.59375,2.78125,0.0,0.0,0.0
1695397576874,-0.953125,-0.52246094,0.08691406,122.125,-10.375,23.0625,0.0,0.0,0.0
1695397576893,-0.98535156,-0.62402344,0.19921875,127.3125,-27.15625,13.03125,0.0,0.0,0.0
1695397576953,-0.64746094,-0.57128906,0.13867188,142.5625,-53.8125,-13.6875,0.0,0.0,0.0
1695397576984,-1.1630859,-0.54589844,0.3359375,121.6875,-51.125,-84.1875,0.0,0.0,0.0
1695397577014,-1.3066406,-0.034179688,-0.22851562,163.4375,64.03125,-60.6875,0.0,0.0,0.0
1695397577073,-0.9238281,-0.2890625,-0.09667969,226.4375,-8.90625,-74.25,0.0,0.0,0.0
1695397577104,-0.87890625,-0.27246094,-0.08496094,194.6875,27.34375,-75.875,0.0,0.0,0.0
1695397577143,-0.7832031,-0.20605469,-0.046875,182.0625,41.34375,-76.875,0.0,0.0,0.0
1695397577199,-0.953125,-0.59375,-0.08984375,192.8125,90.40625,-110.4375,0.0,0.0,0.0
1695397577225,-1.2314453,-0.24511719,-0.43066406,205.125,146.25,-94.25,0.0,0.0,0.0
1695397577254,-0.8173828,0.28027344,0.01171875,224.71875,83.9375,-45.96875,-72.0,-36.6875,-103.6875
1695397577314,-0.89941406,0.19628906,0.28222656,234.0625,69.78125,0.15625,0.0,0.0,0.0
1695397577344,-1.2431641,-0.24121094,-0.5908203,182.84375,65.625,30.5625,0.0,0.0,0.0
1695397577374,-1.1308594,-0.7109375,-0.24804688,393.84375,-3.53125,55.9375,0.0,0.0,0.0
1695397577434,-0.7841797,-0.047851562,0.13378906,138.375,22.90625,-34.6875,0.0,0.0,0.0
1695397577464,-0.9794922,0.14746094,0.078125,17.28125,75.03125,-15.21875,0.0,0.0,0.0
1695397577494,-1.0878906,-0.5439453,0.54785156,78.625,58.0625,-51.15625,0.0,0.0,0.0
1695397577554,-0.7753906,-0.7734375,0.30566406,98.3125,16.6875,-37.3125,0.0,0.0,0.0
1695397577584,-0.9394531,-0.7001953,-0.3076172,216.71875,38.65625,-22.96875,0.0,0.0,0.0
1695397577613,-0.9394531,-0.12207031,-0.25195312,191.53125,4.46875,-22.46875,0.0,0.0,0.0
1695397577674,-0.86328125,0.061523438,-0.13378906,187.875,-22.21875,-38.15625,0.0,0.0,0.0
1695397577705,-1.3105469,-0.2421875,0.23730469,102.21875,-4.75,-69.28125,0.0,0.0,0.0
1695397577734,-1.2832031,-0.14746094,0.08886719,92.40625,102.5,-110.5,-78.75,-20.6875,-123.1875
1695397577794,-0.6621094,-0.7363281,-0.3173828,125.25,25.28125,-39.5,0.0,0.0,0.0
1695397577830,-0.8642578,-0.10644531,-0.17480469,293.28125,44.125,-56.65625,0.0,0.0,0.0
1695397577854,-0.8466797,0.080078125,-0.08203125,203.0625,162.0,-51.15625,0.0,0.0,0.0
1695397577914,-1.1542969,0.29785156,0.2578125,184.875,96.5,14.625,0.0,0.0,0.0
1695397577943,-1.2285156,0.076171875,-0.109375,158.6875,36.03125,62.53125,0.0,0.0,0.0
1695397577974,-1.5986328,-0.87402344,0.119140625,246.875,-90.6875,76.03125,0.0,0.0,0.0
1695397578033,-0.8857422,-0.9707031,0.115234375,271.59375,23.5,-10.6875,0.0,0.0,0.0
1695397578094,-0.6308594,0.0107421875,0.22851562,-59.34375,99.0625,-38.78125,0.0,0.0,0.0
1695397578095,-0.96875,-0.0048828125,0.11035156,173.71875,34.96875,-21.0,0.0,0.0,0.0
1695397578154,-1.0478516,-0.36132812,-0.11328125,117.78125,57.875,-13.15625,0.0,0.0,0.0
1695397578184,-0.92285156,-0.93066406,-0.05859375,121.6875,25.09375,-9.78125,0.0,0.0,0.0
1695397578214,-1.0585938,-0.8203125,-0.111328125,272.8125,14.96875,-13.5,0.0,0.0,0.0
1695397578274,-0.9785156,-0.42285156,-0.22460938,222.46875,12.21875,-22.59375,-74.5625,-40.625,-143.125
1695397578304,-1.0146484,-0.27734375,-0.21875,255.25,-23.96875,-58.1875,0.0,0.0,0.0
1695397578334,-1.2763672,0.11425781,-0.22070312,134.21875,23.625,-85.40625,0.0,0.0,0.0
1695397578394,-1.3925781,0.5058594,0.0068359375,160.40625,-3.46875,-72.71875,0.0,0.0,0.0
1695397578424,-0.53515625,-0.30859375,0.095703125,207.15625,53.1875,-109.21875,0.0,0.0,0.0
1695397578454,-0.9814453,-0.6298828,-0.2919922,149.84375,37.1875,-3.6875,0.0,0.0,0.0
1695397578543,-0.9511719,0.20800781,-0.12109375,224.125,99.5,-53.1875,0.0,0.0,0.0
1695397578545,-0.6767578,0.12792969,0.08300781,156.125,94.4375,-15.09375,0.0,0.0,0.0
1695397578574,-1.0576172,0.4453125,0.45898438,177.90625,28.625,38.3125,0.0,0.0,0.0
1695397578633,-1.1914062,-0.12792969,-0.17089844,113.09375,42.375,22.125,0.0,0.0,0.0
1695397578664,-1.8203125,-1.2529297,0.16210938,264.15625,-73.40625,10.46875,0.0,0.0,0.0
1695397578694,-0.6582031,-0.6982422,-0.038085938,244.03125,27.71875,10.59375,0.0,0.0,0.0
1695397578784,-0.62109375,0.041015625,0.22265625,27.90625,27.53125,-18.6875,-72.125,-50.8125,-112.875
1695397578786,-1.1503906,-0.040039062,-0.18261719,76.59375,68.1875,-42.625,0.0,0.0,0.0
1695397578814,-0.7548828,-0.083984375,-0.13867188,108.59375,43.34375,-19.0625,0.0,0.0,0.0
1695397578874,-1.0986328,-0.8232422,0.2109375,206.78125,-23.1875,-15.09375,0.0,0.0,0.0
1695397578904,-0.984375,-1.1123047,-0.05078125,255.5,-1.75,-35.125,0.0,0.0,0.0
1695397578940,-1.0888672,-0.46484375,-0.06933594,194.9375,-14.625,-35.40625,0.0,0.0,0.0
1695397578996,-1.5039062,0.021484375,-0.5048828,161.125,-23.25,-76.8125,0.0,0.0,0.0
1695397579024,-1.1748047,0.34765625,-0.07421875,109.96875,19.65625,-91.4375,0.0,0.0,0.0
1695397579059,-0.80859375,0.1171875,0.15625,286.8125,67.5625,-127.875,0.0,0.0,0.0
1695397579117,-0.7060547,-0.96484375,-0.2578125,155.625,98.59375,-54.09375,0.0,0.0,0.0
1695397579144,-1.0029297,0.35351562,-0.3046875,295.78125,80.09375,-70.5625,0.0,0.0,0.0
1695397579174,-0.703125,0.080078125,0.23339844,148.1875,104.3125,-9.34375,0.0,0.0,0.0
1695397579233,-0.98535156,0.5078125,0.2890625,150.09375,103.09375,52.53125,0.0,0.0,0.0
1695397579264,-1.3291016,-0.14746094,-0.072265625,243.90625,-19.53125,28.90625,-73.9375,-30.6875,-108.375
1695397579297,-1.4238281,-1.0546875,0.32714844,214.09375,6.90625,-15.28125,0.0,0.0,0.0
1695397579354,-0.5371094,-0.6035156,0.080078125,198.90625,75.75,5.0,0.0,0.0,0.0
1695397579384,-0.9140625,-0.17578125,0.22558594,78.375,24.4375,-5.34375,0.0,0.0,0.0
1695397579414,-1.2666016,-0.032226562,0.030273438,111.8125,52.4375,-32.125,0.0,0.0,0.0
1695397579474,-0.8378906,-0.21191406,0.16113281,108.15625,31.5,-31.6875,0.0,0.0,0.0
1695397579506,-0.89160156,-0.7011719,0.19921875,148.3125,21.5625,-5.9375,0.0,0.0,0.0
1695397579534,-0.8769531,-0.61328125,-0.22265625,207.34375,5.25,-22.59375,0.0,0.0,0.0
1695397579594,-1.0791016,-0.37402344,0.19335938,125.3125,-47.84375,-43.125,0.0,0.0,0.0
1695397579624,-1.3017578,0.01171875,-0.23046875,232.78125,-23.25,-59.53125,0.0,0.0,0.0
1695397579654,-1.3447266,-0.3671875,-0.052734375,130.84375,10.09375,-71.84375,0.0,0.0,0.0
1695397579714,-1.171875,0.32421875,-0.091796875,-38.03125,30.90625,-71.0625,0.0,0.0,0.0
1695397579744,-0.6201172,0.31347656,-0.11425781,305.65625,19.25,-76.3125,-78.75,-21.125,-124.25
1695397579774,-0.9121094,0.068359375,0.16699219,296.875,136.84375,-56.40625,0.0,0.0,0.0
1695397579841,-0.6044922,0.171875,0.048828125,179.5,111.28125,-16.4375,0.0,0.0,0.0
1695397579864,-1.2099609,0.23925781,0.14941406,181.75,94.4375,24.15625,0.0,0.0,0.0
1695397579894,-1.8095703,-0.21679688,0.20703125,145.09375,-62.4375,5.09375,0.0,0.0,0.0
1695397579953,-1.1240234,-1.46875,-0.08300781,292.40625,96.5625,-24.4375,0.0,0.0,0.0
1695397579984,-0.4716797,-0.5986328,-0.059570312,282.65625,16.25,-25.71875,0.0,0.0,0.0
1695397580014,-0.8701172,0.34570312,0.40527344,-48.15625,42.5,-29.375,0.0,0.0,0.0
1695397580074,-1.1826172,0.18261719,-0.10449219,94.34375,77.53125,-22.125,0.0,0.0,0.0
1695397580104,-0.7607422,-0.0625,0.032226562,142.15625,-6.8125,4.375,0.0,0.0,0.0
1695397580134,-1.0585938,-0.67285156,0.24609375,215.34375,-6.875,32.875,0.0,0.0,0.0
1695397580194,-0.9375,-1.3779297,-0.14550781,171.75,20.59375,-23.21875,0.0,0.0,0.0
1695397580224,-0.9111328,-0.60546875,-0.19824219,177.375,-3.03125,-32.3125,0.0,0.0,0.0
1695397580254,-1.1757812,-0.10644531,-0.23535156,182.625,-17.5625,-86.75,-73.9375,-40.4375,-141.625
1695397580314,-1.2275391,0.24023438,-0.26757812,186.53125,36.28125,-69.59375,0.0,0.0,0.0
1695397580343,-1.1191406,0.28710938,0.12597656,191.46875,-6.34375,-74.3125,0.0,0.0,0.0
1695397580374,-0.8457031,-0.140625,0.15820312,169.0625,39.25,-85.84375,0.0,0.0,0.0
1695397580434,-0.890625,-0.83984375,-0.31933594,208.4375,131.90625,-25.34375,0.0,0.0,0.0
1695397580464,-1.1767578,0.390625,-0.22363281,206.25,14.46875,-64.09375,0.0,0.0,0.0
1695397580495,-0.72558594,0.0234375,0.3154297,194.875,113.34375,-39.4375,0.0,0.0,0.0
1695397580555,-0.61621094,0.2998047,0.16894531,126.65625,53.53125,1.8125,0.0,0.0,0.0
1695397580583,-1.1611328,0.24511719,-0.20214844,139.09375,88.375,20.125,0.0,0.0,0.0
1695397580614,-1.8144531,-0.6347656,0.4638672,187.4375,-121.3125,79.5625,0.0,0.0,0.0
1695397580674,-1.0185547,-1.1621094,-0.046875,201.0,31.03125,13.34375,0.0,0.0,0.0
1695397580704,-0.640625,-0.41796875,-0.087890625,169.0,61.21875,-13.03125,0.0,0.0,0.0
1695397580734,-0.9824219,-0.056640625,0.4970703,15.8125,26.75,-43.78125,-71.6875,-51.4375,-119.0
1695397580793,-0.94140625,-0.09082031,-0.26757812,-22.65625,92.65625,-42.375,0.0,0.0,0.0
1695397580828,-0.76660156,-0.40820312,-9.765625E-4,237.25,11.71875,-2.875,0.0,0.0,0.0
1695397580854,-1.0634766,-0.77441406,-0.046875,329.15625,10.25,-6.78125,0.0,0.0,0.0
1695397580916,-1.0527344,-0.42285156,0.044921875,185.59375,-6.65625,-25.65625,0.0,0.0,0.0
1695397580944,-1.3632812,-0.123046875,-0.24414062,124.6875,-57.0625,-50.5625,0.0,0.0,0.0
1695397580974,-1.2890625,0.22949219,-0.013671875,61.15625,-40.09375,-54.71875,0.0,0.0,0.0
1695397581064,-0.91503906,-0.8564453,-0.07714844,153.9375,-27.46875,-98.65625,0.0,0.0,0.0
1695397581066,-1.1279297,0.49023438,-0.30273438,7.1875,96.3125,-62.34375,0.0,0.0,0.0
1695397581094,-0.87597656,0.17089844,-0.08203125,377.9375,80.40625,-43.46875,0.0,0.0,0.0
1695397581156,-0.7373047,0.047851562,0.08886719,267.21875,113.28125,-21.125,0.0,0.0,0.0
1695397581184,-1.2089844,0.2763672,0.67285156,79.28125,125.0625,21.09375,0.0,0.0,0.0
1695397581214,-1.2236328,-0.021484375,-0.25976562,73.1875,-29.34375,7.78125,0.0,0.0,0.0
1695397581274,-1.3085938,-0.5126953,0.8203125,311.71875,-102.40625,34.78125,-72.125,-35.0625,-105.375
1695397581304,-0.5986328,-0.8798828,-0.045898438,248.09375,122.875,-24.5625,0.0,0.0,0.0
1695397581335,-1.0253906,-0.32226562,0.31347656,-40.34375,51.59375,-35.84375,0.0,0.0,0.0
1695397581401,-1.0400391,-0.14941406,0.055664062,-9.46875,84.65625,-47.0625,0.0,0.0,0.0
1695397581424,-1.0380859,0.12011719,-0.10449219,142.40625,27.40625,-17.59375,0.0,0.0,0.0
1695397581454,-0.9560547,-0.42382812,0.31347656,257.4375,-18.53125,17.5,0.0,0.0,0.0
1695397581514,-1.1660156,-0.86621094,0.19726562,168.21875,-11.53125,8.34375,0.0,0.0,0.0
1695397581544,-0.59277344,-0.6269531,-0.20703125,182.6875,3.71875,-25.28125,0.0,0.0,0.0
1695397581574,-0.9189453,-0.21582031,0.0546875,35.15625,-23.125,-72.21875,0.0,0.0,0.0
1695397581634,-1.2626953,0.28808594,-0.17675781,160.09375,35.59375,-67.71875,0.0,0.0,0.0
1695397581668,-1.3613281,-0.74609375,0.12109375,23.625,-128.90625,45.34375,0.0,0.0,0.0
1695397581694,-0.6533203,0.46875,0.18457031,123.78125,42.625,-102.875,0.0,0.0,0.0
1695397581757,-0.7734375,0.01171875,0.25585938,259.53125,43.59375,-61.375,-75.4375,-23.1875,-114.375
1695397581783,-1.0097656,-0.09667969,-0.059570312,183.71875,152.40625,-51.34375,0.0,0.0,0.0
1695397581814,-0.7080078,0.036132812,-0.018554688,191.21875,113.28125,-7.96875,0.0,0.0,0.0
1695397581874,-1.3505859,0.19628906,0.33007812,158.3125,62.625,36.0,0.0,0.0,0.0
1695397581908,-1.3203125,-0.27246094,-0.0068359375,142.40625,-36.0,19.375,0.0,0.0,0.0
1695397581933,-1.1601562,-0.9033203,0.21289062,255.78125,8.5,11.8125,0.0,0.0,0.0
1695397582000,-0.5683594,-0.67871094,-0.12402344,174.1875,27.34375,-27.0625,0.0,0.0,0.0
1695397582024,-0.8984375,0.12402344,0.13476562,49.75,79.96875,-24.75,0.0,0.0,0.0
1695397582054,-1.0830078,-0.19042969,0.10058594,71.40625,63.84375,-43.40625,0.0,0.0,0.0
1695397582114,-0.7363281,-0.30859375,0.07714844,86.84375,12.71875,-13.15625,0.0,0.0,0.0
1695397582143,-0.9296875,-0.78125,0.02734375,224.96875,8.5625,-10.15625,0.0,0.0,0.0
1695397582173,-0.9658203,-0.5703125,-0.14550781,227.46875,30.53125,-14.96875,0.0,0.0,0.0
1695397582234,-0.9238281,-0.40820312,0.06933594,160.8125,-20.625,-28.8125,0.0,0.0,0.0
1695397582271,-1.3818359,-0.08105469,-0.08984375,142.8125,-41.8125,-49.34375,-75.75,-31.1875,-141.1875
1695397582293,-1.4296875,0.22949219,-0.1015625,113.28125,-21.15625,-69.78125,0.0,0.0,0.0
1695397582354,-0.8378906,0.15429688,0.26757812,168.09375,7.34375,-66.4375,0.0,0.0,0.0
1695397582387,-0.61328125,-0.359375,0.13769531,149.03125,48.59375,-53.96875,0.0,0.0,0.0
1695397582414,-1.0761719,-0.033203125,-0.013671875,34.53125,-73.84375,-8.75,0.0,0.0,0.0
1695397582479,-1.0136719,0.049804688,0.12792969,182.1875,113.15625,-45.125,0.0,0.0,0.0
1695397582503,-0.8720703,0.26660156,0.2705078,204.84375,135.25,-30.40625,0.0,0.0,0.0
1695397582534,-0.88964844,0.33203125,0.41503906,207.40625,44.125,14.9375,0.0,0.0,0.0
1695397582599,-1.2822266,-0.30371094,-0.0625,181.03125,52.625,-18.5,0.0,0.0,0.0
1695397582630,-1.1064453,-1.1386719,0.06347656,106.8125,-11.40625,-10.625,0.0,0.0,0.0
1695397582653,-0.6044922,-0.65625,-0.15820312,220.28125,96.03125,-21.8125,0.0,0.0,0.0
1695397582714,-1.1328125,-0.15039062,0.41015625,30.28125,31.9375,-18.28125,0.0,0.0,0.0
1695397582744,-1.2480469,0.14648438,0.005859375,-11.46875,110.125,-33.40625,-72.0,-51.4375,-135.5
1695397582773,-0.8359375,-0.07519531,0.21582031,187.375,19.25,-3.6875,0.0,0.0,0.0
1695397582834,-1.0175781,-0.6347656,0.32617188,205.375,4.03125,3.21875,0.0,0.0,0.0
1695397582864,-0.8144531,-0.8964844,-0.171875,-72.03125,-1.03125,-9.71875,0.0,0.0,0.0
1695397582894,-0.8701172,-0.4765625,0.044921875,156.625,-31.4375,-36.09375,0.0,0.0,0.0
1695397582954,-1.1826172,-0.359375,0.09667969,94.71875,-65.46875,-50.96875,0.0,0.0,0.0
1695397582984,-1.4560547,0.19042969,-0.12402344,118.21875,2.03125,-70.28125,0.0,0.0,0.0
1695397583014,-1.2412109,-0.009765625,0.028320312,148.9375,25.09375,-110.1875,0.0,0.0,0.0
1695397583074,-0.73046875,0.061523438,0.14453125,179.875,37.65625,-80.15625,0.0,0.0,0.0
1695397583104,-0.7871094,-0.24023438,0.20507812,179.3125,34.625,-45.125,0.0,0.0,0.0
1695397583133,-0.98828125,-0.07714844,-0.03125,171.4375,139.59375,-25.15625,0.0,0.0,0.0
1695397583194,-0.72265625,-0.09277344,0.08984375,226.625,137.34375,-1.4375,0.0,0.0,0.0
1695397583224,-0.7763672,0.19140625,0.625,179.0,26.0,13.46875,0.0,0.0,0.0
1695397583253,-1.2675781,-0.034179688,-0.14550781,163.15625,71.0625,-18.34375,-69.0,-52.625,-110.875
1695397583344,-1.3251953,-0.97265625,-0.111328125,193.53125,-17.375,35.9375,0.0,0.0,0.0
1695397583346,-0.64453125,-0.8691406,-0.01171875,245.0625,44.4375,-6.0625,0.0,0.0,0.0
1695397583374,-0.8730469,-0.24902344,0.17675781,85.9375,57.125,-18.03125,0.0,0.0,0.0
1695397583434,-1.1835938,0.17089844,-0.111328125,-51.21875,109.5,-33.03125,0.0,0.0,0.0
1695397583464,-0.88378906,0.06933594,0.06347656,147.15625,28.75,-9.71875,0.0,0.0,0.0
1695397583494,-0.9355469,-0.5019531,0.19335938,217.21875,14.78125,8.78125,0.0,0.0,0.0
1695397583554,-1.1220703,-0.7363281,0.08496094,147.59375,10.03125,-2.9375,0.0,0.0,0.0
1695397583584,-0.83203125,-0.7128906,-0.07519531,166.125,-17.125,3.46875,0.0,0.0,0.0
1695397583614,-0.8222656,-0.5410156,-0.19042969,164.25,-18.0625,-7.46875,0.0,0.0,0.0
1695397583704,-1.1230469,-0.2685547,-0.06347656,84.90625,-28.125,-63.1875,0.0,0.0,0.0
1695397583706,-1.2236328,0.2109375,0.038085938,168.40625,27.0,-84.8125,0.0,0.0,0.0
1695397583734,-1.1533203,0.14648438,0.23925781,191.40625,-3.96875,-75.15625,-72.125,-32.5,-104.625
1695397583824,-0.75878906,-0.6435547,0.013671875,113.65625,58.375,-73.875,0.0,0.0,0.0
1695397583826,-1.203125,0.140625,-0.27148438,60.0625,4.84375,-26.03125,0.0,0.0,0.0
1695397583854,-1.1787109,0.23535156,0.09277344,267.9375,91.25,-65.28125,0.0,0.0,0.0
1695397583916,-0.8701172,0.18164062,0.234375,186.75,145.75,-44.6875,0.0,0.0,0.0
1695397583944,-0.71191406,0.37109375,0.37890625,188.59375,15.75,22.0,0.0,0.0,0.0
1695397583974,-1.0595703,0.26953125,0.24804688,136.21875,46.53125,45.75,0.0,0.0,0.0
1695397584034,-1.6982422,-1.0029297,-0.059570312,108.21875,-32.03125,-26.75,0.0,0.0,0.0
1695397584063,-0.78125,-1.1806641,-0.09667969,327.28125,60.125,24.875,0.0,0.0,0.0
1695397584097,-0.625,-0.22460938,-0.03515625,103.21875,68.4375,-26.25,0.0,0.0,0.0
1695397584153,-1.2714844,0.07910156,0.5263672,-128.53125,7.875,-31.09375,0.0,0.0,0.0
1695397584190,-0.8486328,0.00390625,-0.049804688,39.1875,81.5,-58.5625,0.0,0.0,0.0
1695397584213,-0.83984375,-0.42871094,-0.033203125,213.25,18.4375,-0.4375,0.0,0.0,0.0
1695397584304,-1.1767578,-0.7919922,0.0146484375,250.65625,-8.0,17.4375,-78.125,-20.1875,-129.625
1695397584305,-0.7832031,-0.6191406,-0.07324219,223.15625,-10.4375,7.4375,0.0,0.0,0.0
1695397584335,-0.90527344,-0.48535156,-0.10449219,167.28125,-35.09375,-34.6875,0.0,0.0,0.0
1695397584394,-1.1962891,-0.14941406,-0.103515625,78.4375,4.78125,-81.5,0.0,0.0,0.0
1695397584424,-1.2958984,0.29785156,-0.051757812,147.03125,18.5625,-66.5625,0.0,0.0,0.0
1695397584461,-1.0361328,-0.0546875,0.15429688,177.1875,26.0,-55.6875,0.0,0.0,0.0
1695397584552,-0.96972656,-0.052734375,-0.10546875,84.59375,-53.28125,-43.65625,0.0,0.0,0.0
1695397584564,-0.87402344,-0.0048828125,0.08300781,207.15625,33.75,-78.8125,0.0,0.0,0.0
1695397584575,-1.0244141,-0.07910156,0.1328125,181.75,104.5625,-56.90625,0.0,0.0,0.0
1695397584664,-0.84375,-0.06738281,0.2705078,208.125,54.6875,-35.125,0.0,0.0,0.0
1695397584666,-1.0214844,-0.14941406,-0.0126953125,227.15625,-15.84375,18.71875,0.0,0.0,0.0
1695397584694,-1.1455078,-0.25,-0.037109375,163.5625,63.78125,-25.71875,0.0,0.0,0.0
1695397584785,-0.9345703,-0.23046875,0.22558594,160.28125,60.625,-29.25,-75.3125,-40.3125,-139.375
1695397584786,-0.8544922,-0.30859375,-0.09667969,108.75,68.90625,-37.9375,0.0,0.0,0.0
1695397584815,-1.1503906,-0.25683594,0.5078125,116.875,87.15625,-33.65625,0.0,0.0,0.0
1695397584874,-0.9550781,-0.3310547,-0.036132812,-45.09375,30.34375,-34.5625,0.0,0.0,0.0
1695397584904,-0.85546875,-0.28710938,-0.0078125,161.625,60.625,-23.34375,0.0,0.0,0.0
1695397584933,-1.0605469,-0.37304688,0.16796875,232.40625,18.8125,8.34375,0.0,0.0,0.0
1695397584995,-0.89941406,-0.47558594,-0.057617188,117.1875,-27.9375,5.0,0.0,0.0,0.0
1695397585026,-0.91308594,-0.5888672,-0.013671875,143.6875,-56.6875,-23.15625,0.0,0.0,0.0
1695397585054,-1.1533203,-0.29492188,0.01171875,148.125,-29.90625,-70.9375,0.0,0.0,0.0
1695397585113,-1.2158203,0.19921875,0.087890625,47.0625,36.375,-87.90625,0.0,0.0,0.0
1695397585149,-0.8847656,-0.24902344,0.21582031,108.6875,51.71875,-90.90625,0.0,0.0,0.0
1695397585177,-0.7138672,-0.3251953,0.18261719,187.0,58.40625,-90.21875,0.0,0.0,0.0
1695397585233,-0.9746094,-0.55078125,-0.26367188,216.6875,126.78125,-102.4375,0.0,0.0,0.0
1695397585264,-1.0390625,0.064453125,-0.08496094,232.78125,179.15625,-40.0625,-66.875,-61.4375,-126.5
1695397585294,-1.0087891,0.10058594,0.103515625,235.90625,99.3125,15.78125,0.0,0.0,0.0
1695397585354,-0.95996094,0.234375,0.0048828125,196.78125,38.34375,53.6875,0.0,0.0,0.0
1695397585384,-1.3564453,-0.3154297,0.328125,254.8125,-53.03125,67.65625,0.0,0.0,0.0
1695397585414,-1.1845703,-1.2841797,0.171875,159.65625,1.40625,15.125,0.0,0.0,0.0
1695397585475,-0.56152344,-0.2783203,-0.061523438,117.0,99.5,-35.90625,0.0,0.0,0.0
1695397585505,-1.1132812,0.07421875,0.25976562,91.5,46.53125,-33.78125,0.0,0.0,0.0
1695397585537,-0.8564453,-0.43164062,0.06347656,22.03125,32.25,-43.40625,0.0,0.0,0.0
1695397585625,-0.7919922,-0.64160156,-0.23144531,145.25,47.5,-10.75,0.0,0.0,0.0
1695397585626,-1.1074219,-0.7871094,-0.11425781,270.375,15.03125,-1.4375,0.0,0.0,0.0
1695397585659,-1.0605469,-0.5546875,-0.06933594,275.75,7.34375,-20.71875,0.0,0.0,0.0
1695397585714,-1.09375,-0.1484375,0.0087890625,184.75,-11.09375,-80.9375,0.0,0.0,0.0
1695397585744,-1.2607422,0.48535156,-0.24804688,94.59375,51.28125,-58.90625,-69.875,-41.6875,-102.0625
1695397585774,-1.0830078,0.26953125,0.39160156,140.5625,-26.65625,-94.25,0.0,0.0,0.0
1695397585835,-0.80078125,-0.94140625,-0.123046875,5.5625,72.21875,-28.875,0.0,0.0,0.0
1695397585864,-0.90722656,-0.037109375,-0.17871094,353.4375,36.15625,-82.65625,0.0,0.0,0.0
1695397585894,-1.0498047,0.045898438,0.13476562,237.4375,96.75,-25.65625,0.0,0.0,0.0
1695397585957,-0.7080078,0.076171875,0.39746094,126.71875,57.875,13.46875,0.0,0.0,0.0
1695397585984,-0.875,0.37402344,-0.09472656,130.78125,85.65625,24.8125,0.0,0.0,0.0
1695397586015,-1.4384766,-0.3876953,0.39160156,214.15625,-29.53125,16.28125,0.0,0.0,0.0
1695397586080,-0.91796875,-1.0146484,0.025390625,120.0625,-3.59375,-8.0,0.0,0.0,0.0
1695397586104,-0.7128906,-0.5175781,0.14941406,146.90625,33.28125,-28.8125,0.0,0.0,0.0
1695397586135,-1.0537109,-0.27441406,0.32421875,1.40625,59.03125,-39.4375,0.0,0.0,0.0
1695397586194,-1.2011719,0.030273438,0.045898438,61.9375,73.375,-39.5,0.0,0.0,0.0
1695397586225,-0.85546875,-0.24804688,0.10839844,143.5,17.15625,-7.90625,0.0,0.0,0.0
1695397586254,-0.9550781,-0.4970703,0.021484375,165.40625,-9.6875,5.09375,-76.375,-23.0625,-115.5625
1695397586313,-0.7949219,-0.5253906,0.01171875,111.625,-35.9375,-2.65625,0.0,0.0,0.0
1695397586344,-1.1210938,-0.32128906,0.119140625,175.59375,-22.8125,-48.84375,0.0,0.0,0.0
1695397586374,-1.3476562,-0.9013672,-0.33496094,-13.0625,-78.1875,15.71875,0.0,0.0,0.0
1695397586434,-1.0351562,0.21386719,0.1640625,99.65625,-28.0,-122.40625,0.0,0.0,0.0
1695397586464,-0.671875,0.32910156,0.52441406,220.28125,13.75,-71.5,0.0,0.0,0.0
1695397586494,-0.75878906,-0.15820312,0.24121094,253.53125,53.125,-53.1875,0.0,0.0,0.0
1695397586554,-0.7792969,-0.3671875,-0.16210938,59.8125,161.5,-53.90625,0.0,0.0,0.0
1695397586584,-0.87402344,-0.3095703,-0.13574219,113.15625,98.21875,-36.8125,0.0,0.0,0.0
1695397586614,-1.3417969,-0.2607422,0.3095703,174.5625,88.8125,-27.0,0.0,0.0,0.0
1695397586674,-1.0976562,-0.140625,-0.14160156,172.125,45.3125,2.84375,0.0,0.0,0.0
1695397586704,-0.9824219,-0.34960938,-0.12109375,290.59375,34.0,-16.6875,0.0,0.0,0.0
1695397586736,-1.1005859,-0.17480469,0.16308594,192.3125,28.5625,-1.84375,-78.875,-24.875,-136.5625
1695397586794,-1.0537109,0.15625,0.107421875,47.71875,43.46875,-21.0625,0.0,0.0,0.0
1695397586824,-0.9316406,-0.30859375,0.265625,19.28125,7.8125,-14.65625,0.0,0.0,0.0
1695397586855,-0.8623047,-0.359375,-0.03125,41.25,10.25,-17.90625,0.0,0.0,0.0
1695397586914,-1.0195312,-0.7470703,-0.009765625,159.84375,24.90625,-8.5,0.0,0.0,0.0
1695397586944,-1.0283203,-0.6816406,-0.23339844,226.4375,16.75,-5.6875,0.0,0.0,0.0
1695397586974,-0.9394531,-0.45410156,-0.15625,108.34375,-18.53125,-11.6875,0.0,0.0,0.0
1695397587034,-1.1884766,-0.9169922,-0.3173828,113.53125,-34.78125,-18.5625,0.0,0.0,0.0
1695397587064,-1.2910156,0.21875,0.013671875,114.6875,-2.75,-46.53125,0.0,0.0,0.0
1695397587094,-0.8310547,0.53515625,-0.041992188,310.53125,5.5,-127.59375,0.0,0.0,0.0
1695397587154,-1.0712891,0.22949219,0.734375,351.4375,-17.4375,-95.28125,0.0,0.0,0.0
1695397587184,-0.8876953,-0.3564453,0.17382812,83.8125,20.6875,-97.0625,0.0,0.0,0.0
1695397587214,-0.859375,-0.31054688,-0.07324219,117.5,90.03125,-108.71875,0.0,0.0,0.0
1695397587274,-0.82421875,-0.18554688,0.15820312,76.09375,78.75,-51.21875,-70.8125,-51.5625,-135.0625
1695397587304,-0.99316406,0.040039062,0.28222656,70.125,54.46875,15.375,0.0,0.0,0.0
1695397587334,-0.90722656,-0.016601562,0.032226562,26.5625,78.0625,57.0,0.0,0.0,0.0
1695397587395,-1.0947266,-0.08886719,0.12890625,234.8125,28.40625,84.625,0.0,0.0,0.0
1695397587424,-1.0585938,-0.77246094,-0.13476562,213.9375,125.4375,-67.34375,0.0,0.0,0.0
1695397587454,-0.9785156,-0.46191406,0.3310547,247.6875,45.59375,-15.09375,0.0,0.0,0.0
1695397587514,-0.9501953,-0.35742188,0.21191406,-5.1875,45.40625,-33.40625,0.0,0.0,0.0
1695397587544,-1.0449219,-0.17285156,0.009765625,37.40625,49.9375,-45.75,0.0,0.0,0.0
1695397587574,-0.94921875,-0.6171875,-0.047851562,232.125,-21.96875,-18.5625,0.0,0.0,0.0
1695397587634,-0.76660156,-0.51171875,-0.14648438,198.65625,-2.5625,-15.71875,0.0,0.0,0.0
1695397587664,-0.9941406,-0.26171875,0.10449219,178.03125,-53.21875,-30.53125,0.0,0.0,0.0
1695397587694,-1.2480469,-0.109375,-0.001953125,156.75,-6.53125,-65.875,0.0,0.0,0.0
1695397587754,-1.3095703,-0.10449219,0.043945312,130.75,14.28125,-107.0,-69.3125,-56.1875,-114.625
1695397587785,-0.74609375,-0.20703125,0.06933594,121.6875,11.78125,-73.875,0.0,0.0,0.0
1695397587814,-0.8623047,-0.234375,-0.171875,167.40625,41.625,-60.4375,0.0,0.0,0.0
1695397587903,-1.03125,-0.24804688,-0.2626953,195.25,120.6875,-69.84375,0.0,0.0,0.0
1695397587904,-0.859375,0.015625,0.2109375,108.59375,91.1875,-27.59375,0.0,0.0,0.0
1695397587934,-1.2265625,0.22363281,0.45507812,175.40625,91.1875,24.5625,0.0,0.0,0.0
1695397587994,-1.0878906,-0.07421875,-0.21972656,192.75,-5.46875,44.84375,0.0,0.0,0.0
1695397588024,-1.1318359,-0.7216797,0.61328125,331.59375,-31.4375,29.28125,0.0,0.0,0.0
1695397588053,-0.61621094,-0.8515625,0.024414062,131.34375,-2.3125,-30.78125,0.0,0.0,0.0
1695397588114,-0.82714844,0.0126953125,0.03515625,44.84375,135.4375,-34.25,0.0,0.0,0.0
1695397588143,-1.1962891,-0.20800781,0.359375,76.21875,26.875,-61.1875,0.0,0.0,0.0
1695397588174,-0.95410156,-0.265625,-0.056640625,23.75,38.875,-47.5625,0.0,0.0,0.0
1695397588234,-0.83984375,-0.734375,-0.16503906,207.34375,24.125,-11.75,0.0,0.0,0.0
1695397588263,-1.0449219,-0.70410156,-0.053710938,231.9375,38.40625,-0.25,-72.875,-36.125,-105.9375
1695397588294,-0.94921875,-0.39941406,-0.11230469,148.1875,3.90625,-5.28125,0.0,0.0,0.0
1695397588354,-1.03125,-0.3154297,0.06542969,205.3125,-29.65625,-52.25,0.0,0.0,0.0
1695397588384,-1.1621094,0.10253906,-0.001953125,114.5,22.21875,-70.15625,0.0,0.0,0.0
1695397588414,-1.1357422,-0.107421875,0.16699219,166.0,20.40625,-78.4375,0.0,0.0,0.0
1695397588474,-0.7060547,-0.63378906,-0.12890625,-12.75,-50.90625,7.4375,0.0,0.0,0.0
1695397588504,-0.8808594,0.1484375,-0.10839844,218.6875,54.46875,-64.78125,0.0,0.0,0.0
1695397588536,-1.1123047,-0.09667969,0.3359375,244.25,100.0,-60.375,0.0,0.0,0.0
1695397588594,-0.79589844,-0.103515625,0.08984375,128.125,104.3125,-33.59375,0.0,0.0,0.0
1695397588624,-0.7216797,0.030273438,0.22070312,168.625,38.15625,7.5625,0.0,0.0,0.0
1695397588672,-1.1035156,-0.09082031,0.08886719,151.5,49.4375,31.46875,0.0,0.0,0.0
1695397588744,-1.2099609,-0.5341797,0.057617188,161.5625,19.125,-13.5625,0.0,0.0,0.0
1695397588748,-0.9580078,-0.7314453,-0.11621094,257.1875,14.28125,-1.96875,-75.125,-19.9375,-121.875
1695397588773,-0.8847656,-0.18554688,-0.19628906,209.15625,112.0625,-9.90625,0.0,0.0,0.0
1695397588834,-1.1318359,-0.1484375,0.60546875,-75.8125,7.75,-43.65625,0.0,0.0,0.0
1695397588894,-0.90722656,-0.22363281,0.013671875,-10.4375,58.25,-41.46875,0.0,0.0,0.0
1695397588895,-0.9160156,-0.5097656,0.022460938,215.625,20.46875,-9.34375,0.0,0.0,0.0
1695397588954,-1.0332031,-0.83203125,0.03125,284.1875,7.40625,1.09375,0.0,0.0,0.0
1695397588983,-0.6611328,-0.4296875,-0.06738281,222.28125,-0.0625,-10.15625,0.0,0.0,0.0
1695397589013,-1.0390625,-0.42089844,-0.037109375,143.75,-24.84375,-47.1875,0.0,0.0,0.0
1695397589074,-1.6328125,0.35742188,-0.1875,78.0625,-13.90625,-61.71875,0.0,0.0,0.0
1695397589104,-1.1953125,0.3076172,0.3564453,141.1875,-37.84375,-84.84375,0.0,0.0,0.0
1695397589134,-0.8574219,-0.0078125,0.21191406,41.0625,1.84375,-62.59375,0.0,0.0,0.0
1695397589195,-0.7548828,-1.9716797,-1.0761719,31.84375,-107.78125,-50.75,0.0,0.0,0.0
1695397589225,-0.88183594,0.29882812,-0.045898438,222.09375,68.96875,-55.5625,0.0,0.0,0.0
1695397589254,-0.8222656,0.034179688,0.21191406,201.59375,148.25,-39.5,-76.625,-34.1875,-136.25
1695397589315,-1.2119141,-0.036132812,0.46777344,239.875,75.03125,11.9375,0.0,0.0,0.0
1695397589345,-1.0429688,-0.08886719,-0.02734375,138.1875,44.125,26.78125,0.0,0.0,0.0
1695397589374,-0.9902344,-0.2578125,0.3203125,272.03125,39.3125,-17.0,0.0,0.0,0.0
1695397589434,-0.9189453,-0.5234375,-0.040039062,150.875,39.3125,-27.4375,0.0,0.0,0.0
1695397589464,-0.9824219,-0.30273438,-0.052734375,47.25,81.125,-33.96875,0.0,0.0,0.0
1695397589494,-1.1171875,-0.2109375,0.3857422,1.34375,83.8125,-23.03125,0.0,0.0,0.0
1695397589554,-0.9404297,-0.11425781,-0.06933594,37.78125,-13.0625,-25.65625,0.0,0.0,0.0
1695397589585,-0.91308594,-0.4765625,0.171875,220.75,21.6875,1.375,0.0,0.0,0.0
1695397589614,-1.1064453,-0.4951172,0.21191406,175.53125,20.15625,-6.4375,0.0,0.0,0.0
1695397589645,-0.9033203,-0.3642578,-0.040039062,174.5625,-13.40625,-7.90625,0.0,0.0,0.0
1695397589705,-0.8203125,-0.4736328,0.033203125,130.4375,-54.125,-33.34375,0.0,0.0,0.0
1695397589736,-1.0556641,-0.06347656,-0.032226562,98.03125,-4.375,-60.4375,-72.875,-51.125,-131.875
1695397589796,-1.3867188,-0.14257812,0.16992188,52.25,51.53125,-80.28125,0.0,0.0,0.0
1695397589824,-0.9111328,-0.32714844,-0.044921875,80.0625,47.5625,-133.875,0.0,0.0,0.0
1695397589854,-0.77734375,-0.28808594,-0.061523438,206.125,60.375,-89.8125,0.0,0.0,0.0
1695397589886,-1.0683594,-0.23828125,-0.068359375,215.28125,109.3125,-58.6875,0.0,0.0,0.0
1695397589944,-0.8095703,-0.0087890625,0.13867188,202.75,117.5,-22.1875,0.0,0.0,0.0
1695397589974,-0.70214844,0.13378906,0.15527344,199.65625,57.125,22.0,0.0,0.0,0.0
1695397590004,-1.2460938,-0.140625,0.19824219,204.46875,14.90625,66.9375,0.0,0.0,0.0
1695397590064,-1.1884766,-0.21191406,0.08105469,85.15625,41.625,14.625,0.0,0.0,0.0
1695397590094,-1.1826172,-0.7705078,-0.038085938,258.96875,20.34375,-0.75,0.0,0.0,0.0
1695397590124,-0.76660156,-0.61621094,-0.08984375,220.03125,24.90625,-4.71875,0.0,0.0,0.0
1695397590184,-0.8769531,-0.05078125,0.2890625,63.0,38.15625,-5.875,0.0,0.0,0.0
1695397590214,-0.9511719,-0.2734375,-0.025390625,45.84375,70.5625,-32.375,0.0,0.0,0.0
1695397590274,-0.94628906,-0.3828125,0.0087890625,110.84375,33.46875,-26.21875,-71.5625,-50.8125,-111.1875
1695397590305,-1.0380859,-0.8017578,0.0546875,250.5,1.90625,-21.625,0.0,0.0,0.0
1695397590334,-0.92089844,-0.55859375,-0.08203125,227.53125,9.21875,-29.5625,0.0,0.0,0.0
1695397590364,-1.0341797,-0.42285156,-0.17871094,158.8125,-11.78125,-38.15625,0.0,0.0,0.0
1695397590424,-1.2275391,-0.21289062,-0.20996094,136.34375,-4.09375,-63.375,0.0,0.0,0.0
1695397590454,-1.2138672,0.18066406,0.20996094,98.3125,0.25,-76.375,0.0,0.0,0.0
1695397590485,-0.859375,-0.0078125,0.23046875,170.90625,34.125,-76.625,0.0,0.0,0.0
1695397590545,-0.859375,-0.6855469,-0.22753906,148.25,61.71875,-85.28125,0.0,0.0,0.0
1695397590574,-1.1376953,0.13769531,-0.36523438,156.75,42.3125,-32.71875,0.0,0.0,0.0
1695397590604,-0.8671875,0.057617188,0.29003906,231.3125,88.4375,-42.3125,0.0,0.0,0.0
1695397590664,-0.78125,0.15039062,0.22753906,127.3125,104.75,-10.40625,0.0,0.0,0.0
1695397590694,-0.92285156,0.18164062,0.3251953,173.46875,36.5625,34.15625,0.0,0.0,0.0
1695397590755,-1.2021484,-0.09082031,0.0,137.625,48.09375,19.34375,-75.125,-27.875,-109.375
1695397590785,-1.3681641,-0.6640625,0.34375,98.5625,-38.3125,18.71875,0.0,0.0,0.0
1695397590814,-0.6542969,-0.92285156,-0.11621094,187.75,34.125,-18.8125,0.0,0.0,0.0
1695397590844,-0.7783203,-0.2841797,0.12207031,63.0,81.375,-22.96875,0.0,0.0,0.0
1695397590905,-0.9951172,-0.49902344,0.37402344,-36.75,45.1875,-41.71875,0.0,0.0,0.0
1695397590934,-0.93359375,-0.21777344,-0.14257812,104.90625,73.1875,-29.625,0.0,0.0,0.0
1695397590964,-0.9511719,-0.6484375,0.0625,286.25,31.4375,3.34375,0.0,0.0,0.0
1695397591025,-0.96191406,-0.5498047,-0.049804688,240.15625,4.40625,1.9375,0.0,0.0,0.0
1695397591054,-0.8027344,-0.47753906,0.0029296875,221.125,-10.59375,-16.3125,0.0,0.0,0.0
1695397591085,-1.2988281,-0.3203125,-0.11035156,143.5625,-41.0625,-50.9375,0.0,0.0,0.0
1695397591145,-1.5351562,0.16699219,-0.20019531,103.09375,-16.96875,-74.375,0.0,0.0,0.0
1695397591175,-0.96972656,0.14355469,0.29492188,168.46875,-11.90625,-70.34375,0.0,0.0,0.0
1695397591204,-0.6904297,-0.2998047,0.10253906,65.5625,37.65625,-66.59375,0.0,0.0,0.0
1695397591265,-0.6875,-0.375,-0.23046875,73.53125,49.03125,-56.65625,-77.875,-25.1875,-126.1875
1695397591295,-0.9160156,-0.36328125,-0.20117188,147.15625,92.125,-47.4375,0.0,0.0,0.0
1695397591324,-1.0371094,-0.06640625,0.068359375,152.78125,123.0,-25.90625,0.0,0.0,0.0
1695397591385,-0.9951172,-0.041992188,0.25976562,240.125,65.4375,-5.9375,0.0,0.0,0.0
1695397591415,-1.2255859,0.024414062,0.040039062,188.71875,64.09375,4.0,0.0,0.0,0.0
1695397591446,-0.9628906,-0.17871094,-0.09765625,188.96875,26.75,32.6875,0.0,0.0,0.0
1695397591505,-1.0048828,-0.65722656,0.08886719,195.3125,-17.5625,36.71875,0.0,0.0,0.0
1695397591534,-1.0048828,-0.5751953,-0.265625,176.34375,41.09375,-0.375,0.0,0.0,0.0
1695397591564,-1.1621094,0.15820312,0.45410156,-52.625,71.96875,-14.53125,0.0,0.0,0.0
1695397591625,-0.86621094,-0.11425781,0.24414062,14.15625,43.71875,-6.625,0.0,0.0,0.0
1695397591655,-0.70410156,-0.4892578,0.19726562,159.46875,-21.46875,-1.1875,0.0,0.0,0.0
1695397591684,-0.98828125,-1.2597656,-0.21972656,152.09375,-3.40625,-8.3125,0.0,0.0,0.0
1695397591745,-1.0615234,-0.20703125,-0.11035156,89.15625,35.34375,-27.59375,-70.625,-37.3125,-145.5625
1695397591781,-1.2529297,-0.73046875,-0.21972656,110.28125,-47.71875,-36.8125,0.0,0.0,0.0
1695397591864,-1.4541016,-0.14746094,-0.17480469,121.59375,37.0,-74.40625,0.0,0.0,0.0
1695397591866,-1.0693359,0.3935547,-0.15625,217.46875,60.375,-118.1875,0.0,0.0,0.0
1695397591894,-0.8925781,0.4482422,-0.0546875,360.34375,52.8125,-91.5,0.0,0.0,0.0
1695397591924,-0.73046875,-0.072265625,0.19628906,209.96875,21.1875,-72.40625,0.0,0.0,0.0
1695397591984,-0.86816406,-0.18066406,-0.13476562,131.28125,49.4375,-47.125,0.0,0.0,0.0
1695397592015,-0.67089844,-0.09277344,0.22363281,146.90625,131.71875,-14.65625,0.0,0.0,0.0
1695397592044,-1.7001953,0.39257812,0.017578125,-54.4375,142.21875,69.125,0.0,0.0,0.0
1695397592105,-1.1582031,0.16210938,0.021484375,98.15625,-51.875,50.6875,0.0,0.0,0.0
1695397592134,-1.2519531,-0.4765625,0.57714844,209.15625,-14.625,-23.40625,0.0,0.0,0.0
1695397592164,-0.8066406,-0.88964844,0.08300781,240.0625,21.625,-11.3125,0.0,0.0,0.0
1695397592225,-0.81640625,-0.6425781,0.2919922,-5.9375,41.40625,-35.53125,0.0,0.0,0.0
1695397592255,-1.0039062,-0.2421875,-0.10058594,-22.03125,86.5,-31.34375,-68.375,-54.5625,-127.25
1695397592286,-1.0029297,-0.27246094,-0.15332031,89.65625,91.3125,-10.21875,0.0,0.0,0.0
1695397592345,-0.89746094,-0.49902344,0.15234375,284.0,14.28125,18.09375,0.0,0.0,0.0
1695397592374,-0.9736328,-0.5126953,0.21386719,284.65625,12.71875,15.125,0.0,0.0,0.0
1695397592405,-0.7294922,-0.65234375,-0.11425781,200.75,22.65625,-7.65625,0.0,0.0,0.0
1695397592464,-0.99316406,-0.52734375,-0.005859375,138.25,-25.3125,-48.40625,0.0,0.0,0.0
1695397592495,-1.6367188,0.1796875,-0.3232422,40.90625,1.71875,-68.0625,0.0,0.0,0.0
1695397592524,-1.1318359,0.09472656,0.42285156,215.21875,-37.65625,-81.6875,0.0,0.0,0.0
1695397592585,-0.8691406,-0.2265625,0.29003906,206.28125,-3.46875,-74.96875,0.0,0.0,0.0
1695397592615,-0.85839844,-0.17773438,-0.078125,18.1875,12.21875,-65.03125,0.0,0.0,0.0
1695397592645,-0.7158203,-0.328125,-0.26464844,77.5625,79.90625,-46.90625,0.0,0.0,0.0
1695397592705,-0.9003906,-0.32617188,-0.10644531,194.40625,96.9375,-17.0,0.0,0.0,0.0
1695397592735,-0.78808594,-0.0234375,0.115234375,180.0,105.90625,-10.6875,-65.875,-48.875,-104.75
1695397592764,-0.7783203,-0.125,1.0166016,201.40625,24.78125,-20.84375,0.0,0.0,0.0
1695397592824,-1.2871094,-0.10839844,-0.31933594,72.9375,96.875,-20.40625,0.0,0.0,0.0
1695397592854,-1.2431641,-0.5175781,0.043945312,255.4375,-18.96875,25.25,0.0,0.0,0.0
1695397592885,-0.69921875,-0.7783203,-0.0029296875,236.375,19.90625,-10.53125,0.0,0.0,0.0
1695397592944,-0.72265625,-0.203125,0.078125,83.25,75.375,-11.25,0.0,0.0,0.0
1695397592974,-0.9921875,-0.26464844,-0.025390625,-6.53125,79.90625,-27.59375,0.0,0.0,0.0
1695397593004,-1.0,-0.140625,0.1171875,81.28125,81.1875,-17.65625,0.0,0.0,0.0
1695397593064,-1.0449219,-0.4501953,0.31445312,287.90625,12.78125,10.0625,0.0,0.0,0.0
1695397593095,-0.93359375,-0.6660156,0.23730469,204.90625,16.3125,-1.78125,0.0,0.0,0.0
1695397593125,-0.7451172,-0.609375,0.017578125,84.15625,5.3125,-4.0625,0.0,0.0,0.0
1695397593187,-0.8300781,-0.4638672,-0.19335938,170.15625,1.90625,-18.15625,0.0,0.0,0.0
1695397593215,-0.9863281,-0.4501953,-0.055664062,122.6875,4.46875,-62.21875,0.0,0.0,0.0
1695397593275,-1.3847656,0.047851562,0.09863281,112.1875,15.9375,-74.65625,-74.875,-22.625,-112.375
1695397593305,-1.2324219,-0.15429688,0.3310547,207.40625,19.0625,-76.9375,0.0,0.0,0.0
1695397593336,-0.84472656,-0.38964844,-0.18554688,28.375,-1.75,-43.28125,0.0,0.0,0.0
1695397593365,-0.7597656,0.020507812,-0.15136719,128.59375,57.1875,-54.59375,0.0,0.0,0.0
1695397593424,-0.9550781,-0.32421875,-0.020507812,194.875,86.875,-55.0,0.0,0.0,0.0
1695397593456,-0.875,-0.11621094,-0.0078125,204.53125,143.5625,-32.1875,0.0,0.0,0.0
1695397593485,-0.88671875,0.08691406,0.27734375,194.09375,63.78125,-1.96875,0.0,0.0,0.0
1695397593544,-1.2001953,0.12402344,0.125,158.75,102.375,15.1875,0.0,0.0,0.0
1695397593575,-1.3359375,-0.5205078,-0.02734375,198.96875,-28.8125,63.9375,0.0,0.0,0.0
1695397593605,-0.97265625,-0.81347656,-0.10253906,189.28125,56.84375,-8.5,0.0,0.0,0.0
1695397593665,-0.68066406,-0.46679688,-0.005859375,174.375,69.40625,-4.28125,0.0,0.0,0.0
1695397593725,-0.953125,-0.20117188,0.37597656,-62.25,43.84375,-35.78125,0.0,0.0,0.0
1695397593754,-1.1259766,0.22265625,-0.043945312,53.03125,93.625,-12.65625,-76.375,-24.125,-137.875
1695397593784,-0.7675781,-0.296875,0.21777344,167.96875,-9.75,20.96875,0.0,0.0,0.0
1695397593814,-1.1777344,-0.86621094,0.14453125,203.0,-16.53125,19.875,0.0,0.0,0.0
1695397593845,-0.73828125,-1.0380859,-0.16308594,128.71875,-1.5625,2.46875,0.0,0.0,0.0
1695397593907,-0.7451172,-0.8251953,-0.140625,186.9375,14.15625,-28.875,0.0,0.0,0.0
1695397593934,-1.0732422,-0.31640625,-0.25585938,172.0625,20.65625,-50.96875,0.0,0.0,0.0
1695397593965,-1.390625,0.024414062,-0.21386719,160.59375,12.59375,-71.0,0.0,0.0,0.0
1695397594025,-1.1787109,-0.078125,0.30273438,156.75,4.90625,-65.28125,0.0,0.0,0.0
1695397594054,-0.8359375,-1.0234375,-0.28222656,260.8125,39.5625,-57.625,0.0,0.0,0.0
1695397594084,-1.5888672,0.70410156,-0.5097656,-68.59375,35.65625,-78.03125,0.0,0.0,0.0
1695397594144,-0.77734375,-9.765625E-4,-0.07714844,233.875,84.125,-80.71875,0.0,0.0,0.0
1695397594174,-0.9472656,0.19042969,-0.0078125,294.8125,119.09375,-63.9375,0.0,0.0,0.0
1695397594204,-0.7158203,0.16015625,0.18847656,230.96875,81.90625,-12.03125,0.0,0.0,0.0
1695397594264,-1.1269531,0.40722656,0.44433594,183.34375,16.3125,48.875,-70.625,-53.8125,-137.3125
1695397594325,-1.0947266,-0.13476562,-0.07519531,48.53125,71.4375,37.40625,0.0,0.0,0.0
1695397594327,-0.9316406,-0.4638672,0.4033203,169.84375,-34.21875,47.53125,0.0,0.0,0.0
1695397594384,-1.1152344,-0.5214844,0.016601562,75.5625,107.90625,-66.25,0.0,0.0,0.0
1695397594415,-0.9482422,-0.75878906,0.4560547,120.125,28.8125,-59.84375,0.0,0.0,0.0
1695397594444,-0.93359375,-0.22460938,-0.024414062,-42.84375,85.65625,-27.25,0.0,0.0,0.0
1695397594507,-0.89746094,-0.18847656,-0.111328125,88.6875,40.53125,-10.9375,0.0,0.0,0.0
1695397594536,-0.9316406,-0.5527344,-0.076171875,264.875,-17.9375,10.96875,0.0,0.0,0.0
1695397594569,-0.95703125,-0.5205078,0.1875,259.15625,32.1875,-20.21875,0.0,0.0,0.0
1695397594624,-0.85058594,-0.7441406,0.061523438,140.75,7.40625,-21.3125,0.0,0.0,0.0
1695397594654,-1.1220703,-0.4345703,-0.087890625,149.03125,-2.5625,-36.59375,0.0,0.0,0.0
1695397594684,-1.4609375,0.119140625,-0.25585938,153.5,-22.9375,-55.125,0.0,0.0,0.0
1695397594744,-0.87597656,-0.12695312,0.24902344,200.5,-46.1875,-81.8125,-68.375,-58.4375,-116.625
1695397594789,-1.0791016,-0.36914062,0.32226562,136.71875,-10.1875,-90.28125,0.0,0.0,0.0
1695397594804,-0.7919922,-0.1015625,-0.35058594,-22.84375,71.59375,-60.5625,0.0,0.0,0.0
1695397594865,-0.80371094,-0.25097656,-0.47753906,203.1875,100.21875,-42.9375,0.0,0.0,0.0
1695397594895,-0.7324219,-0.041992188,0.0234375,256.34375,123.59375,-27.84375,0.0,0.0,0.0
1695397594925,-1.0019531,0.19433594,1.0605469,118.34375,20.75,-5.6875,0.0,0.0,0.0
1695397594985,-1.078125,-0.19042969,-0.3359375,53.34375,42.1875,36.71875,0.0,0.0,0.0
1695397595015,-1.4824219,-0.38964844,0.41992188,334.53125,-45.9375,69.6875,0.0,0.0,0.0
1695397595046,-0.7089844,-1.2675781,-0.17773438,90.8125,43.71875,-35.34375,0.0,0.0,0.0
1695397595105,-0.68652344,-0.25585938,0.044921875,137.15625,125.9375,-18.15625,0.0,0.0,0.0
1695397595134,-1.0205078,-0.34179688,0.2626953,-18.96875,39.6875,-45.78125,0.0,0.0,0.0
1695397595165,-0.9824219,-0.11816406,-0.09765625,-5.25,61.53125,-40.71875,0.0,0.0,0.0
1695397595224,-0.9091797,-0.47753906,0.08105469,238.34375,-1.875,0.65625,0.0,0.0,0.0
1695397595254,-1.1044922,-0.86816406,0.22851562,333.6875,15.34375,-1.65625,-73.0625,-38.5,-107.875
1695397595285,-0.8857422,-0.60058594,-0.049804688,211.5,23.9375,-13.375,0.0,0.0,0.0
1695397595344,-0.95996094,-0.6855469,-0.08300781,112.90625,-1.625,-48.1875,0.0,0.0,0.0
1695397595374,-1.5048828,-0.034179688,-0.24707031,38.09375,-22.28125,-66.90625,0.0,0.0,0.0
1695397595404,-1.1054688,0.08496094,0.3173828,202.28125,-32.75,-83.09375,0.0,0.0,0.0
1695397595464,-0.83691406,-0.11425781,0.3154297,285.09375,8.1875,-104.03125,0.0,0.0,0.0
1695397595495,-0.7167969,-0.19921875,-0.03515625,3.15625,14.40625,-70.5625,0.0,0.0,0.0
1695397595524,-0.9482422,-0.38085938,-0.33691406,65.0,106.625,-62.03125,0.0,0.0,0.0
1695397595585,-0.93066406,-0.46484375,-0.125,213.1875,127.875,-38.09375,0.0,0.0,0.0
1695397595614,-0.9736328,0.20410156,0.32226562,112.25,69.65625,-12.34375,0.0,0.0,0.0
1695397595645,-0.9716797,0.1875,0.28808594,136.46875,74.90625,10.125,0.0,0.0,0.0
1695397595704,-1.0683594,0.0146484375,0.27246094,168.6875,73.875,14.3125,0.0,0.0,0.0
1695397595736,-1.1123047,-0.5107422,0.03125,186.875,21.75,56.125,-77.25,-23.5,-119.4375
1695397595764,-1.0146484,-0.9189453,-0.2548828,135.5,95.09375,-11.5,0.0,0.0,0.0
1695397595824,-0.85546875,-0.5107422,0.032226562,120.1875,77.21875,-19.84375,0.0,0.0,0.0
1695397595854,-0.93652344,-0.4794922,0.6699219,-69.9375,-33.0,-33.09375,0.0,0.0,0.0
1695397595885,-1.0195312,0.0078125,-0.14453125,28.75,101.28125,-13.8125,0.0,0.0,0.0
1695397595945,-0.81152344,-0.12890625,0.0546875,211.96875,24.96875,14.6875,0.0,0.0,0.0
1695397595974,-0.9765625,-0.6074219,0.25878906,216.375,0.1875,6.09375,0.0,0.0,0.0
1695397596006,-0.9082031,-0.75878906,0.107421875,106.75,40.34375,-12.03125,0.0,0.0,0.0
1695397596066,-0.78222656,-0.5341797,0.028320312,124.09375,-33.3125,-26.15625,0.0,0.0,0.0
1695397596094,-1.3046875,-0.13378906,-0.091796875,101.1875,-12.625,-47.1875,0.0,0.0,0.0
1695397596125,-1.3623047,0.16992188,-0.21875,107.90625,-4.8125,-72.40625,0.0,0.0,0.0
1695397596185,-0.94628906,-0.7167969,0.4326172,277.53125,4.65625,-55.0625,0.0,0.0,0.0
1695397596214,-1.0302734,0.32910156,-0.10253906,-1.90625,26.0,-53.96875,0.0,0.0,0.0
1695397596275,-0.8261719,-0.21289062,-0.0068359375,188.0625,55.75,-36.875,-78.3125,-32.5,-134.3125
1695397596305,-0.90625,-0.41796875,-0.16601562,192.0,107.96875,-49.09375,0.0,0.0,0.0
1695397596335,-0.890625,-0.09082031,0.087890625,209.15625,122.09375,-24.6875,0.0,0.0,0.0
1695397596366,-0.88671875,0.06738281,0.66503906,167.34375,36.625,-7.34375,0.0,0.0,0.0
1695397596425,-1.1298828,-0.017578125,-0.31933594,113.9375,93.53125,5.59375,0.0,0.0,0.0
1695397596454,-1.0048828,-0.75683594,-0.16601562,333.96875,16.5625,42.71875,0.0,0.0,0.0
1695397596485,-0.8847656,-0.8671875,0.021484375,103.9375,39.25,0.96875,0.0,0.0,0.0
1695397596545,-0.9736328,-0.03515625,0.048828125,108.34375,90.53125,-21.6875,0.0,0.0,0.0
1695397596574,-1.0273438,-0.33496094,0.21679688,-21.65625,62.09375,-44.75,0.0,0.0,0.0
1695397596605,-0.63378906,-1.0771484,-0.21972656,143.0625,15.28125,33.625,0.0,0.0,0.0
1695397596666,-0.9160156,-0.16796875,-0.0546875,205.25,20.46875,-42.0625,0.0,0.0,0.0
1695397596695,-0.9560547,-0.3046875,0.053710938,222.96875,31.5625,-4.09375,0.0,0.0,0.0
1695397596754,-0.9082031,-0.45214844,0.07324219,162.34375,27.28125,5.09375,-71.125,-50.5,-136.125
1695397596784,-0.9794922,-0.3544922,-0.055664062,46.3125,11.65625,-22.3125,0.0,0.0,0.0
1695397596815,-1.0898438,-0.2939453,-0.15527344,83.90625,-18.46875,-42.375,0.0,0.0,0.0
1695397596845,-1.0595703,-0.4111328,0.17089844,149.53125,-0.21875,-67.65625,0.0,0.0,0.0
1695397596905,-0.99121094,-0.30859375,0.35839844,110.09375,4.59375,-84.90625,0.0,0.0,0.0
1695397596936,-0.8652344,-0.23535156,0.0146484375,134.9375,24.78125,-91.3125,0.0,0.0,0.0
1695397596965,-0.8046875,-0.31640625,-0.12988281,157.84375,67.9375,-86.4375,0.0,0.0,0.0
1695397597025,-0.9589844,-0.36035156,-0.2109375,247.625,132.53125,-85.40625,0.0,0.0,0.0
1695397597056,-0.8691406,-0.38378906,0.056640625,217.53125,152.90625,-77.84375,0.0,0.0,0.0
1695397597084,-0.80371094,0.032226562,0.28320312,137.5,92.40625,-23.875,0.0,0.0,0.0
1695397597145,-1.2333984,0.296875,-0.095703125,135.875,165.65625,49.46875,0.0,0.0,0.0
1695397597174,-1.2412109,-0.19628906,-0.13476562,170.03125,-43.9375,61.375,0.0,0.0,0.0
1695397597206,-1.3603516,-0.9501953,0.55859375,260.3125,-20.75,25.5625,0.0,0.0,0.0
1695397597264,-0.4267578,-1.0185547,-0.18164062,276.4375,55.4375,-10.28125,-68.375,-50.6875,-107.625
1695397597294,-0.7548828,-0.017578125,0.17675781,55.90625,70.6875,-16.25,0.0,0.0,0.0
1695397597324,-1.0126953,-0.44335938,-0.12597656,-25.34375,81.84375,-46.03125,0.0,0.0,0.0
1695397597384,-0.8046875,-0.16601562,-0.14648438,138.78125,48.96875,-27.375,0.0,0.0,0.0
1695397597414,-0.94628906,-0.78808594,-0.021484375,327.625,4.03125,-8.9375,0.0,0.0,0.0
1695397597445,-0.98339844,-0.8330078,-0.16503906,233.34375,54.6875,-12.96875,0.0,0.0,0.0
1695397597504,-0.9453125,-0.61621094,-0.23339844,210.8125,40.1875,-21.375,0.0,0.0,0.0
1695397597534,-1.1279297,-0.3330078,-0.20019531,196.90625,-0.34375,-49.875,0.0,0.0,0.0
1695397597564,-1.2207031,-0.0068359375,-0.10644531,127.75,-16.21875,-63.0,0.0,0.0,0.0
1695397597625,-1.0712891,-9.765625E-4,0.19628906,157.21875,-3.78125,-84.125,0.0,0.0,0.0
1695397597655,-1.0800781,-0.078125,0.21679688,211.0625,-4.03125,-101.59375,0.0,0.0,0.0
1695397597716,-0.73339844,-0.8515625,-0.35742188,70.5625,79.28125,-128.375,0.0,0.0,0.0
1695397597745,-1.0449219,-0.15820312,-0.60253906,209.46875,136.53125,-65.03125,0.0,0.0,0.0
1695397597775,-0.9296875,0.13964844,0.33398438,201.78125,113.28125,-34.4375,-75.625,-32.6875,-107.875
1695397597805,-0.98046875,0.37109375,0.22949219,116.4375,111.28125,12.96875,0.0,0.0,0.0
1695397597865,-0.7294922,-0.24707031,0.20214844,215.8125,27.65625,76.09375,0.0,0.0,0.0
1695397597895,-1.3222656,-0.46777344,0.20410156,188.84375,29.5,56.5,0.0,0.0,0.0
1695397597925,-1.0214844,-0.4375,0.032226562,81.53125,21.96875,-15.40625,0.0,0.0,0.0
1695397597986,-0.8876953,-0.7792969,-0.35253906,149.71875,75.5,-41.40625,0.0,0.0,0.0
1695397598076,-0.67285156,-0.50390625,0.60839844,52.5625,46.75,-27.1875,0.0,0.0,0.0
1695397598084,-1.1269531,-0.2939453,0.009765625,-35.9375,65.9375,-30.96875,0.0,0.0,0.0
1695397598105,-0.9189453,-0.24316406,-0.11816406,99.90625,36.9375,-17.84375,0.0,0.0,0.0
1695397598134,-0.9033203,-0.7080078,-0.034179688,278.4375,7.9375,-13.8125,0.0,0.0,0.0
1695397598164,-0.8408203,-0.7451172,0.08496094,239.5625,37.71875,-22.3125,0.0,0.0,0.0
1695397598225,-0.9873047,-0.54785156,0.0078125,134.09375,16.78125,-20.71875,0.0,0.0,0.0
1695397598254,-1.1806641,-0.30273438,-0.115234375,105.46875,-21.03125,-31.15625,-77.875,-26.1875,-132.0625
1695397598284,-1.3212891,0.026367188,-0.28027344,167.90625,-0.84375,-51.46875,0.0,0.0,0.0
1695397598344,-1.0283203,-0.022460938,0.27148438,150.09375,7.6875,-64.78125,0.0,0.0,0.0
1695397598375,-0.70410156,-0.5595703,0.26660156,203.71875,36.21875,-73.25,0.0,0.0,0.0
1695397598404,-1.2871094,0.12597656,-0.2890625,-4.15625,-11.53125,-9.0,0.0,0.0,0.0
1695397598465,-0.8720703,0.13378906,-0.25976562,241.875,58.78125,-47.3125,0.0,0.0,0.0
1695397598494,-0.9892578,0.08300781,0.3203125,240.0,94.5,-36.9375,0.0,0.0,0.0
1695397598524,-0.9453125,-0.07421875,0.203125,188.46875,64.34375,-10.40625,0.0,0.0,0.0
1695397598584,-0.8457031,-0.12695312,0.07421875,212.34375,45.53125,-8.4375,0.0,0.0,0.0
1695397598614,-1.0917969,-0.10546875,-0.001953125,228.03125,61.90625,-24.5,0.0,0.0,0.0
1695397598643,-1.0546875,-0.14355469,0.029296875,180.40625,80.8125,-24.8125,0.0,0.0,0.0
1695397598704,-0.9091797,-0.56347656,0.12890625,96.125,86.8125,-51.65625,0.0,0.0,0.0
1695397598734,-1.1621094,-0.3779297,0.08203125,24.40625,78.0,-50.875,0.0,0.0,0.0
1695397598794,-1.015625,-0.140625,0.24414062,43.875,76.375,-24.25,-66.0,-47.1875,-143.3125
1695397598824,-0.8144531,-0.35058594,0.08984375,177.4375,-27.46875,15.59375,0.0,0.0,0.0
1695397598855,-0.82910156,-0.69140625,0.02734375,162.09375,-2.25,23.84375,0.0,0.0,0.0
1695397598884,-0.9267578,-0.26757812,0.21386719,87.65625,39.8125,-5.34375,0.0,0.0,0.0
1695397598945,-0.8017578,-0.6669922,0.15722656,71.21875,-24.21875,-11.125,0.0,0.0,0.0
1695397598975,-0.94433594,-0.7363281,0.0390625,146.25,-9.28125,-33.15625,0.0,0.0,0.0
1695397599004,-1.4970703,-0.359375,-0.020507812,162.40625,-15.5,-63.5625,0.0,0.0,0.0
1695397599065,-1.0927734,-0.31933594,0.17871094,113.46875,-29.84375,-84.0,0.0,0.0,0.0
1695397599095,-0.98828125,-0.5097656,0.29882812,58.09375,-4.09375,-105.5,0.0,0.0,0.0
1695397599124,-1.0605469,-0.072265625,-0.38867188,93.1875,94.4375,-113.0625,0.0,0.0,0.0
1695397599185,-0.7314453,-0.0546875,-0.30273438,244.5625,82.71875,-65.3125,0.0,0.0,0.0
1695397599215,-0.8339844,-0.1015625,0.22753906,237.84375,70.125,-58.0,0.0,0.0,0.0
1695397599305,-0.7910156,-0.043945312,0.27734375,103.5625,107.6875,-26.5,-63.3125,-62.5,-118.5625
1695397599307,-0.8457031,-0.17382812,0.23339844,119.125,54.5625,15.4375,0.0,0.0,0.0
1695397599334,-1.5751953,-0.30273438,0.0234375,143.0625,71.71875,41.0625,0.0,0.0,0.0
1695397599365,-1.2158203,-0.38476562,0.045898438,125.1875,93.28125,0.46875,0.0,0.0,0.0
1695397599424,-0.8486328,-0.7939453,0.1484375,253.21875,-5.84375,-17.78125,0.0,0.0,0.0
1695397599455,-0.65625,-0.7138672,-0.17382812,366.4375,94.5625,-42.25,0.0,0.0,0.0
1695397599485,-1.0498047,-0.111328125,0.24902344,21.125,62.3125,-38.53125,0.0,0.0,0.0
1695397599545,-0.9921875,-0.21582031,-0.119140625,-100.09375,111.65625,-39.625,0.0,0.0,0.0
1695397599574,-0.9394531,-0.17871094,-0.078125,184.5625,46.65625,-6.0,0.0,0.0,0.0
1695397599605,-1.0097656,-0.5283203,0.17578125,342.90625,42.4375,8.28125,0.0,0.0,0.0
1695397599664,-0.9189453,-0.79589844,0.2421875,214.34375,28.28125,-15.78125,0.0,0.0,0.0
1695397599695,-0.7207031,-0.6894531,-0.13476562,193.0625,17.40625,-10.875,0.0,0.0,0.0
1695397599754,-0.95214844,-0.5722656,-0.09082031,155.75,-19.21875,-43.0,0.0,0.0,0.0
1695397599784,-1.2333984,-0.09375,-0.34960938,123.34375,12.59375,-63.875,-71.25,-38.0625,-102.625
1695397599814,-1.2333984,0.0625,0.15820312,133.375,-1.625,-79.78125,0.0,0.0,0.0
1695397599845,-1.0693359,-0.046875,0.41992188,178.9375,20.34375,-79.5625,0.0,0.0,0.0
1695397599905,-0.7236328,-0.37304688,-0.13183594,90.5,27.125,-97.75,0.0,0.0,0.0
1695397599935,-0.9238281,-0.234375,-0.25976562,46.03125,38.28125,-29.75,0.0,0.0,0.0
1695397599965,-1.0224609,-0.22753906,0.19726562,209.34375,68.84375,-44.8125,0.0,0.0,0.0
1695397600055,-1.0195312,-0.19824219,0.24609375,158.5,109.4375,-43.78125,0.0,0.0,0.0
1695397600057,-0.73828125,-0.15625,0.14746094,213.0,78.0625,-11.90625,0.0,0.0,0.0
1695397600084,-0.90722656,-0.09375,0.1328125,183.59375,57.5625,-4.0,0.0,0.0,0.0
1695397600145,-1.2919922,-0.3466797,0.2783203,146.46875,56.03125,18.71875,0.0,0.0,0.0
1695397600174,-0.9716797,-0.42871094,-0.31835938,125.84375,79.34375,4.1875,0.0,0.0,0.0
1695397600204,-0.9589844,-0.24511719,-0.08105469,211.59375,47.4375,10.125,0.0,0.0,0.0
1695397600264,-0.99316406,-0.029296875,0.4404297,67.0625,-3.15625,-12.53125,-77.375,-20.5,-119.625
1695397600295,-1.0546875,-0.4609375,0.16699219,53.78125,49.75,-26.6875,0.0,0.0,0.0
1695397600325,-0.76953125,-0.6035156,0.17089844,114.9375,16.90625,-18.15625,0.0,0.0,0.0
1695397600384,-0.8828125,-0.46484375,0.17578125,69.5625,17.71875,-21.1875,0.0,0.0,0.0
1695397600414,-1.0058594,-0.33203125,0.15332031,68.96875,-11.90625,-18.9375,0.0,0.0,0.0
1695397600444,-0.84375,-0.4013672,-0.041015625,95.28125,-20.3125,-23.6875,0.0,0.0,0.0
1695397600505,-0.9199219,-0.57714844,0.12695312,114.5625,-19.46875,-41.875,0.0,0.0,0.0
1695397600535,-1.3408203,-0.20703125,0.16113281,39.125,8.75,-76.9375,0.0,0.0,0.0
1695397600565,-1.1982422,-0.21484375,0.115234375,-26.125,47.4375,-83.03125,0.0,0.0,0.0
1695397600624,-0.82714844,-0.08105469,0.16210938,200.25,65.5,-75.21875,0.0,0.0,0.0
1695397600655,-0.8066406,-0.17480469,0.25390625,195.875,50.96875,-48.96875,0.0,0.0,0.0
1695397600685,-0.96191406,-0.24023438,0.07128906,122.8125,104.1875,-47.625,0.0,0.0,0.0
1695397600745,-0.81640625,-0.30078125,-0.06542969,212.34375,132.75,-29.5625,0.0,0.0,0.0
1695397600775,-0.7626953,-0.028320312,0.22070312,178.09375,52.9375,-4.53125,-78.125,-33.4375,-136.25
1695397600805,-1.3710938,-0.29492188,0.32910156,143.1875,49.28125,-1.96875,0.0,0.0,0.0
1695397600865,-1.0361328,-0.4404297,-0.33496094,162.71875,43.71875,3.40625,0.0,0.0,0.0
1695397600895,-0.9404297,-0.60253906,0.24023438,348.8125,68.25,10.78125,0.0,0.0,0.0
1695397600925,-0.80859375,-0.5625,-0.18457031,137.375,57.5625,-28.875,0.0,0.0,0.0
1695397601015,-1.2861328,-0.16699219,0.56347656,39.375,53.125,-32.5625,0.0,0.0,0.0
1695397601018,-0.9501953,-0.2421875,0.0390625,-45.03125,113.78125,-30.40625,0.0,0.0,0.0
1695397601044,-0.81640625,-0.18652344,-0.018554688,165.34375,20.59375,-10.9375,0.0,0.0,0.0
1695397601105,-0.7988281,-0.9199219,0.12695312,198.1875,-77.5625,16.875,0.0,0.0,0.0
1695397601134,-0.75878906,-0.74902344,-0.036132812,100.40625,31.5,-26.5,0.0,0.0,0.0
1695397601165,-0.98828125,-0.35546875,-0.103515625,185.90625,64.28125,-14.96875,0.0,0.0,0.0
1695397601226,-0.9375,-0.6435547,-0.17871094,199.78125,45.1875,-17.71875,0.0,0.0,0.0
1695397601254,-1.2070312,-0.087890625,-0.18554688,185.96875,46.875,-52.5,-71.5625,-51.5625,-137.75
1695397601284,-0.87109375,-0.022460938,0.27539062,194.6875,37.90625,-74.59375,0.0,0.0,0.0
1695397601344,-1.1855469,-0.33398438,0.29492188,122.875,34.125,-65.03125,0.0,0.0,0.0
1695397601375,-1.0507812,-0.18652344,-0.23144531,79.78125,40.71875,-72.21875,0.0,0.0,0.0
1695397601405,-0.9277344,-0.35546875,-0.22070312,168.46875,90.59375,-83.9375,0.0,0.0,0.0
1695397601464,-0.99316406,-0.2939453,0.024414062,223.15625,97.46875,-54.71875,0.0,0.0,0.0
1695397601495,-0.78125,0.09082031,0.125,150.5,90.40625,-19.25,0.0,0.0,0.0
1695397601525,-0.60253906,-0.016601562,0.4501953,180.96875,24.125,23.59375,0.0,0.0,0.0
1695397601585,-1.2998047,-0.27148438,-0.1875,155.5,20.65625,79.09375,0.0,0.0,0.0
1695397601618,-1.046875,-0.35351562,-0.123046875,182.1875,52.0625,28.46875,0.0,0.0,0.0
1695397601646,-1.3232422,-0.8779297,0.34375,221.4375,6.125,-19.1875,0.0,0.0,0.0
1695397601706,-0.66015625,-0.6748047,0.0126953125,113.40625,30.71875,-31.875,0.0,0.0,0.0
1695397601736,-0.93652344,-0.119140625,0.34765625,57.90625,41.9375,-24.75,0.0,0.0,0.0
1695397601765,-0.8564453,-0.27441406,-0.030273438,56.53125,76.4375,-42.0625,-69.875,-53.5,-112.375
1695397601825,-0.75,-0.55371094,-0.064453125,69.75,32.3125,-20.96875,0.0,0.0,0.0
1695397601861,-0.9765625,-0.9785156,-0.0068359375,274.53125,32.125,-1.3125,0.0,0.0,0.0
1695397601884,-0.94921875,-0.56347656,-0.028320312,259.8125,33.59375,-20.90625,0.0,0.0,0.0
1695397601944,-0.9951172,-0.59765625,-0.06347656,194.28125,-8.28125,-51.96875,0.0,0.0,0.0
1695397601974,-1.3017578,-0.18359375,-0.33789062,160.40625,29.25,-68.0625,0.0,0.0,0.0
1695397602005,-1.1865234,0.083984375,-0.06347656,148.9375,5.6875,-79.4375,0.0,0.0,0.0
1695397602065,-1.0390625,0.091796875,0.25683594,173.53125,3.96875,-72.15625,0.0,0.0,0.0
1695397602094,-0.82421875,-0.25976562,0.026367188,135.96875,52.8125,-82.1875,0.0,0.0,0.0
1695397602126,-0.7861328,-0.6582031,-0.21679688,139.875,103.03125,-111.34375,0.0,0.0,0.0
1695397602185,-0.8828125,-0.43164062,-0.0068359375,134.59375,89.3125,-57.5625,0.0,0.0,0.0
1695397602215,-0.93652344,0.109375,0.06738281,153.1875,108.78125,-30.34375,0.0,0.0,0.0
1695397602245,-0.953125,0.051757812,0.125,168.5625,82.03125,8.03125,-72.4375,-37.0,-105.8125
1695397602334,-1.3837891,-0.03125,0.21777344,244.875,60.5,34.71875,0.0,0.0,0.0
1695397602336,-1.2519531,-0.60546875,0.18652344,195.0,-13.0,59.375,0.0,0.0,0.0
1695397602366,-0.7480469,-0.94433594,0.04296875,213.9375,0.5625,1.75,0.0,0.0,0.0
1695397602424,-0.6386719,-0.36816406,-0.234375,111.09375,98.03125,-23.09375,0.0,0.0,0.0
1695397602455,-1.0488281,-0.32714844,0.4091797,-11.78125,76.25,-38.34375,0.0,0.0,0.0
1695397602485,-0.9628906,-0.26757812,0.10253906,26.4375,93.875,-41.9375,0.0,0.0,0.0
1695397602546,-0.890625,-0.3408203,0.08203125,198.0,35.34375,-11.90625,0.0,0.0,0.0
1695397602575,-0.9658203,-0.6308594,0.15625,270.25,36.6875,6.03125,0.0,0.0,0.0
1695397602606,-0.80859375,-0.63183594,-0.03125,195.875,12.03125,-4.96875,0.0,0.0,0.0
1695397602665,-0.7519531,-0.48535156,0.013671875,173.28125,-19.8125,-16.5625,0.0,0.0,0.0
1695397602695,-1.2919922,-0.4248047,0.015625,49.5,-46.0625,-52.5625,0.0,0.0,0.0
1695397602726,-1.3945312,-0.03515625,0.059570312,27.84375,-45.09375,-59.96875,0.0,0.0,0.0
1695397602785,-1.1230469,-0.12890625,0.15136719,26.65625,2.15625,-122.53125,-78.3125,-25.75,-123.9375
1695397602815,-0.66796875,-0.22363281,-0.20703125,156.96875,83.625,-82.0,0.0,0.0,0.0
1695397602845,-0.9277344,-0.18066406,0.009765625,235.65625,88.4375,-74.125,0.0,0.0,0.0
1695397602905,-0.93359375,-0.3798828,0.1484375,196.71875,171.75,-63.5,0.0,0.0,0.0
1695397602936,-0.8955078,-0.04296875,0.029296875,182.5625,109.5625,-18.21875,0.0,0.0,0.0
1695397602967,-0.8310547,0.04296875,0.4501953,211.59375,40.28125,13.03125,0.0,0.0,0.0
1695397603030,-1.3515625,-0.4091797,-0.28808594,128.28125,41.6875,27.15625,0.0,0.0,0.0
1695397603054,-0.8876953,-0.51464844,-0.0126953125,177.0,53.1875,-6.625,0.0,0.0,0.0
1695397603086,-0.77246094,-0.67285156,0.076171875,237.65625,79.71875,-19.125,0.0,0.0,0.0
1695397603145,-0.8857422,-0.55371094,-0.022460938,170.40625,62.4375,-13.5625,0.0,0.0,0.0
1695397603205,-1.1630859,-0.2109375,0.18164062,-21.4375,64.03125,-39.8125,0.0,0.0,0.0
1695397603208,-0.91796875,-0.0087890625,0.033203125,71.03125,51.90625,-32.5,0.0,0.0,0.0
1695397603266,-0.82714844,-0.5859375,0.056640625,208.75,13.5,-8.375,-72.4375,-43.1875,-142.875
1695397603296,-0.9785156,-0.7001953,0.3251953,246.59375,18.1875,-6.84375,0.0,0.0,0.0
1695397603326,-0.70214844,-0.8066406,-0.045898438,175.78125,23.625,-22.53125,0.0,0.0,0.0
1695397603385,-0.75878906,-0.62109375,-0.15527344,205.0625,27.84375,-20.78125,0.0,0.0,0.0
1695397603415,-1.0039062,-0.5751953,0.0,70.5625,6.25,-58.375,0.0,0.0,0.0
1695397603445,-1.3447266,-0.06640625,-0.045898438,140.0,22.03125,-77.0,0.0,0.0,0.0
1695397603505,-1.1669922,-0.051757812,0.40527344,184.5625,22.21875,-84.1875,0.0,0.0,0.0
1695397603535,-0.82421875,-0.32226562,0.09863281,157.65625,42.1875,-86.03125,0.0,0.0,0.0
1695397603567,-0.70214844,-0.328125,-0.25585938,74.15625,77.9375,-70.875,0.0,0.0,0.0
1695397603626,-0.96875,-0.48828125,-0.09863281,156.0625,74.59375,-60.3125,0.0,0.0,0.0
1695397603655,-1.09375,-0.3857422,0.15625,195.0,138.8125,-47.875,0.0,0.0,0.0
1695397603685,-0.8203125,0.033203125,0.12109375,192.0625,96.1875,-23.75,0.0,0.0,0.0
1695397603746,-0.7294922,-0.061523438,0.3251953,181.6875,58.59375,-0.15625,0.0,0.0,0.0
1695397603775,-1.2792969,-0.15527344,-0.19921875,158.09375,83.5,7.84375,-65.875,-62.5,-119.625
1695397603805,-1.0878906,-0.63671875,-0.1015625,201.15625,27.46875,41.71875,0.0,0.0,0.0
1695397603867,-0.8691406,-0.7324219,0.109375,225.15625,31.0625,-8.5625,0.0,0.0,0.0
1695397603895,-0.9267578,-0.34277344,-0.0107421875,107.46875,104.625,-13.1875,0.0,0.0,0.0
1695397603926,-1.0361328,-0.17773438,0.33398438,4.03125,64.28125,-30.78125,0.0,0.0,0.0
1695397603986,-0.86816406,-0.29882812,-0.0048828125,91.5,38.03125,-21.1875,0.0,0.0,0.0
1695397604016,-0.89453125,-0.4716797,0.087890625,192.6875,11.0625,-8.375,0.0,0.0,0.0
1695397604047,-0.9863281,-0.67578125,0.11035156,241.625,30.34375,-16.75,0.0,0.0,0.0
1695397604105,-0.7285156,-0.8857422,-0.046875,175.65625,16.0,-10.15625,0.0,0.0,0.0
1695397604135,-0.8720703,-0.65234375,-0.03125,172.59375,-5.71875,-21.8125,0.0,0.0,0.0
1695397604164,-1.3710938,-0.21777344,-0.08203125,72.8125,-39.28125,-67.09375,0.0,0.0,0.0
1695397604226,-1.3876953,0.20019531,0.23242188,55.28125,27.46875,-78.5,0.0,0.0,0.0
1695397604256,-0.7763672,-0.018554688,0.27929688,181.8125,31.4375,-63.75,-67.1875,-45.4375,-100.125
1695397604285,-0.72265625,-0.9453125,-0.16894531,-51.28125,-66.28125,11.21875,0.0,0.0,0.0
1695397604347,-0.9296875,0.10839844,-0.21191406,184.9375,104.6875,-60.9375,0.0,0.0,0.0
1695397604375,-1.0449219,-0.41210938,0.23730469,260.5625,81.75,-45.78125,0.0,0.0,0.0
1695397604436,-1.0585938,-0.2890625,0.4013672,82.09375,95.21875,-58.96875,0.0,0.0,0.0
1695397604465,-0.7480469,-0.14453125,0.11425781,160.53125,53.34375,-29.4375,0.0,0.0,0.0
1695397604496,-0.74609375,-0.07128906,0.15234375,199.03125,29.625,1.75,0.0,0.0,0.0
1695397604526,-0.62109375,-0.07714844,-0.028320312,112.375,87.21875,9.3125,0.0,0.0,0.0
1695397604616,-0.8720703,-0.55859375,0.07519531,130.0625,52.25,3.21875,0.0,0.0,0.0
1695397604620,-1.4658203,-0.8457031,0.3017578,131.28125,25.21875,-27.4375,0.0,0.0,0.0
1695397604647,-1.0927734,-0.37109375,-0.30566406,141.28125,79.96875,-28.21875,0.0,0.0,0.0
1695397604707,-1.0185547,-0.19921875,0.18847656,104.90625,40.84375,-41.65625,0.0,0.0,0.0
1695397604737,-0.94921875,-0.29882812,0.16796875,155.09375,2.625,-16.8125,0.0,0.0,0.0
1695397604766,-0.83203125,-0.2861328,0.0146484375,101.5,46.34375,-19.6875,-74.875,-23.8125,-114.0625
1695397604825,-0.97558594,-0.25585938,0.2998047,122.1875,28.09375,-13.8125,0.0,0.0,0.0
1695397604856,-0.93652344,-0.74902344,0.2685547,156.96875,-3.78125,-4.21875,0.0,0.0,0.0
1695397604886,-0.7089844,-0.80078125,0.029296875,163.5,-18.90625,-23.15625,0.0,0.0,0.0
1695397604946,-0.84375,-0.65625,0.21875,88.0,-34.84375,-81.4375,0.0,0.0,0.0
1695397604976,-1.4755859,-0.00390625,-0.3203125,104.625,97.90625,-76.9375,0.0,0.0,0.0
1695397605005,-1.2890625,0.16308594,0.13183594,73.3125,8.8125,-83.40625,0.0,0.0,0.0
1695397605065,-0.8535156,-0.33398438,0.061523438,118.34375,65.75,-80.71875,0.0,0.0,0.0
1695397605096,-0.63183594,-0.9873047,0.041015625,96.375,-78.96875,12.0,0.0,0.0,0.0
1695397605125,-0.859375,0.14941406,-0.005859375,187.0,126.0,-66.3125,0.0,0.0,0.0
1695397605186,-0.9091797,-0.2265625,-0.10644531,223.8125,154.78125,-45.6875,0.0,0.0,0.0
1695397605216,-0.7949219,-0.2705078,-0.103515625,228.5625,113.46875,-15.28125,0.0,0.0,0.0
1695397605245,-1.2910156,-0.09667969,-0.0029296875,210.5,125.25,-23.6875,-77.375,-32.0625,-134.875
1695397605307,-1.3681641,-0.28222656,-0.17480469,215.9375,61.71875,0.65625,0.0,0.0,0.0
1695397605336,-1.0595703,-0.025390625,0.17285156,206.28125,59.28125,5.65625,0.0,0.0,0.0
1695397605366,-0.8535156,-0.061523438,0.16210938,94.0,29.125,8.65625,0.0,0.0,0.0
1695397605426,-0.91503906,-0.3935547,0.31640625,88.6875,43.40625,-9.0625,0.0,0.0,0.0
1695397605456,-0.82910156,-0.5419922,0.21777344,27.34375,77.59375,-29.5625,0.0,0.0,0.0
1695397605485,-0.8251953,-0.515625,0.06640625,90.15625,21.5625,-16.625,0.0,0.0,0.0
1695397605547,-1.0214844,-0.75878906,0.12792969,255.5,-5.78125,1.4375,0.0,0.0,0.0
1695397605577,-1.2246094,-0.3515625,-0.16113281,160.21875,24.84375,-44.34375,0.0,0.0,0.0
1695397605606,-0.95214844,-0.13964844,-0.14550781,210.6875,-35.09375,-25.40625,0.0,0.0,0.0
1695397605666,-1.4462891,-0.40527344,0.20214844,148.375,-95.375,-30.65625,0.0,0.0,0.0
1695397605697,-1.3505859,-0.2265625,0.12402344,60.1875,13.0,-151.3125,0.0,0.0,0.0
1695397605727,-1.0546875,0.091796875,0.044921875,154.96875,31.0625,-190.5,0.0,0.0,0.0
1695397605787,-0.93847656,-0.017578125,-0.24121094,235.03125,57.5,-88.03125,-68.25,-56.5,-130.25
1695397605817,-0.8046875,-0.22265625,-0.0625,287.59375,81.0,-81.8125,0.0,0.0,0.0
1695397605845,-0.8330078,-0.6044922,0.27539062,208.125,100.0,-130.28125,0.0,0.0,0.0
1695397605907,-0.9248047,-0.4111328,0.12207031,94.96875,137.65625,-89.0,0.0,0.0,0.0
1695397605937,-0.90625,-0.091796875,-0.0546875,168.28125,111.46875,-28.15625,0.0,0.0,0.0
1695397605966,-0.9121094,-0.09277344,0.119140625,223.25,89.25,-12.84375,0.0,0.0,0.0
1695397606027,-0.8330078,-0.022460938,0.35351562,129.875,80.34375,-9.1875,0.0,0.0,0.0
1695397606056,-0.9160156,-0.24414062,0.18164062,145.4375,67.15625,8.71875,0.0,0.0,0.0
1695397606085,-1.2529297,-0.5488281,0.07421875,196.03125,58.71875,19.6875,0.0,0.0,0.0
1695397606148,-0.93847656,-0.76464844,-0.08691406,206.0625,89.96875,-15.34375,0.0,0.0,0.0
1695397606176,-0.8798828,-0.5253906,-0.046875,171.8125,74.21875,-25.46875,0.0,0.0,0.0
1695397606207,-0.90625,-0.31152344,0.21191406,59.625,69.34375,-38.28125,0.0,0.0,0.0
1695397606267,-0.99121094,-0.15039062,0.119140625,83.0,61.90625,-25.96875,-69.3125,-51.5625,-108.8125
1695397606297,-0.8808594,-0.33789062,0.0703125,156.0,40.28125,-10.59375,0.0,0.0,0.0
1695397606328,-0.9199219,-0.5722656,-0.09667969,177.3125,52.8125,-2.65625,0.0,0.0,0.0
1695397606387,-0.9560547,-0.61816406,0.13671875,178.71875,36.75,-14.1875,0.0,0.0,0.0
1695397606416,-0.9248047,-0.8515625,0.051757812,196.96875,39.4375,-22.0625,0.0,0.0,0.0
1695397606447,-0.7841797,-0.8828125,0.09765625,165.34375,25.03125,-19.25,0.0,0.0,0.0
1695397606507,-1.0449219,-0.6640625,-0.09472656,149.15625,13.625,-32.84375,0.0,0.0,0.0
1695397606536,-1.4121094,0.02734375,-0.29296875,181.53125,-10.84375,-63.3125,0.0,0.0,0.0
1695397606566,-0.9707031,0.0703125,-0.078125,148.875,1.40625,-71.5,0.0,0.0,0.0
1695397606624,-1.0732422,0.1875,0.13867188,165.28125,-1.09375,-64.03125,0.0,0.0,0.0
1695397606656,-0.6699219,-0.5732422,-0.14941406,102.21875,94.625,-121.71875,0.0,0.0,0.0
1695397606685,-0.9501953,-0.5107422,-0.16015625,150.9375,40.40625,-34.625,0.0,0.0,0.0
1695397606746,-0.9511719,-0.17285156,0.20019531,85.8125,68.5625,-42.9375,0.0,0.0,0.0
1695397606779,-0.91308594,-0.20507812,0.10058594,101.3125,91.625,-13.5625,-73.9375,-35.0625,-107.75
1695397606808,-0.8183594,0.04296875,0.13574219,193.90625,52.75,9.375,0.0,0.0,0.0
1695397606895,-0.9345703,-0.1015625,0.37890625,199.34375,38.65625,9.625,0.0,0.0,0.0
1695397606899,-1.4541016,-0.5498047,-0.04296875,142.09375,63.96875,-0.5,0.0,0.0,0.0
1695397606926,-0.9091797,-0.8515625,-0.16601562,219.53125,59.65625,5.53125,0.0,0.0,0.0
1695397606985,-0.78125,-0.63378906,-0.022460938,185.0625,82.28125,-23.15625,0.0,0.0,0.0
1695397607017,-0.78808594,-0.107421875,0.11328125,-10.25,40.90625,-20.96875,0.0,0.0,0.0
1695397607046,-0.90722656,-0.06347656,0.171875,57.0,83.5,-25.21875,0.0,0.0,0.0
1695397607104,-0.8535156,-0.4970703,0.04296875,147.6875,52.25,-3.875,0.0,0.0,0.0
1695397607136,-0.8984375,-0.8310547,0.1953125,160.9375,40.0,3.40625,0.0,0.0,0.0
1695397607166,-0.9082031,-0.7363281,0.13671875,201.28125,18.875,-12.34375,0.0,0.0,0.0
1695397607225,-0.8144531,-0.62109375,-0.08496094,240.34375,22.96875,-20.96875,0.0,0.0,0.0
1695397607257,-0.71777344,-0.42089844,-0.10449219,185.53125,-4.25,-34.8125,-77.5625,-25.3125,-131.3125
1695397607286,-1.0839844,-0.46777344,-0.111328125,59.375,-31.125,-61.78125,0.0,0.0,0.0
1695397607345,-1.4980469,-0.30273438,0.06640625,102.84375,-2.5,-82.71875,0.0,0.0,0.0
1695397607376,-1.2099609,0.036132812,0.15722656,151.375,61.84375,-83.46875,0.0,0.0,0.0
1695397607407,-0.8222656,-0.39648438,0.021484375,128.90625,34.0,-80.59375,0.0,0.0,0.0
1695397607467,-0.6767578,-0.35546875,-0.24316406,144.34375,91.75,-63.6875,0.0,0.0,0.0
1695397607496,-0.98535156,-0.18457031,0.095703125,144.21875,28.75,-40.25,0.0,0.0,0.0
1695397607527,-1.1113281,-0.3330078,0.0546875,171.03125,107.25,-52.8125,0.0,0.0,0.0
1695397607588,-0.9746094,-0.17480469,0.036132812,204.15625,113.15625,-39.5625,0.0,0.0,0.0
1695397607617,-0.9589844,-0.049804688,0.2861328,222.71875,55.8125,-19.3125,0.0,0.0,0.0
1695397607646,-1.1933594,-0.14453125,-0.038085938,189.34375,37.90625,10.0625,0.0,0.0,0.0
1695397607707,-0.8564453,-0.2734375,-0.091796875,152.21875,74.53125,2.96875,0.0,0.0,0.0
1695397607737,-0.9453125,-0.35742188,0.080078125,147.03125,40.53125,29.53125,0.0,0.0,0.0
1695397607766,-1.0283203,-0.40820312,0.22949219,128.15625,48.53125,18.40625,-70.8125,-50.8125,-136.375
1695397607826,-0.90625,-0.54589844,0.4560547,39.96875,69.21875,-38.78125,0.0,0.0,0.0
1695397607856,-0.7949219,-0.5078125,0.15234375,13.65625,23.75,-32.3125,0.0,0.0,0.0
1695397607886,-0.81640625,-0.5136719,0.005859375,132.125,12.40625,-30.125,0.0,0.0,0.0
1695397607948,-0.9013672,-0.54003906,-0.10644531,196.71875,49.375,-26.09375,0.0,0.0,0.0
1695397607977,-0.8408203,-0.640625,-9.765625E-4,202.5,94.625,-29.125,0.0,0.0,0.0
1695397608007,-0.9091797,-0.5957031,-0.10253906,157.21875,44.1875,-33.96875,0.0,0.0,0.0
1695397608066,-0.9199219,-0.5566406,0.12402344,260.875,22.28125,-57.46875,0.0,0.0,0.0
1695397608096,-1.3037109,-0.35546875,-0.01171875,229.4375,46.875,-89.0625,0.0,0.0,0.0
1695397608125,-1.0058594,-0.17773438,0.45507812,89.28125,-27.9375,-109.875,0.0,0.0,0.0
1695397608186,-0.8847656,-0.09765625,-0.0078125,118.71875,11.125,-109.9375,0.0,0.0,0.0
1695397608215,-0.7109375,-0.50878906,-0.28808594,130.75,113.65625,-125.09375,0.0,0.0,0.0
1695397608246,-0.8535156,-0.31445312,-0.15527344,174.75,101.375,-61.46875,-60.875,-64.3125,-116.625
1695397608307,-0.921875,-0.20214844,0.32910156,215.875,142.40625,-28.78125,0.0,0.0,0.0
1695397608339,-1.0683594,-0.021484375,0.39746094,144.90625,112.8125,-8.875,0.0,0.0,0.0
1695397608366,-1.0253906,-0.20214844,0.39160156,141.1875,66.34375,17.6875,0.0,0.0,0.0
1695397608427,-0.8828125,-0.31933594,-0.25976562,190.375,74.28125,15.65625,0.0,0.0,0.0
1695397608456,-1.2294922,-0.7558594,0.3642578,272.46875,-43.5,38.125,0.0,0.0,0.0
1695397608486,-0.703125,-0.8310547,-0.119140625,170.71875,67.625,-30.21875,0.0,0.0,0.0
1695397608545,-0.92285156,-0.47070312,0.27539062,131.46875,101.625,-32.78125,0.0,0.0,0.0
1695397608575,-1.1289062,-0.2841797,-0.12011719,-17.03125,77.90625,-34.0625,0.0,0.0,0.0
1695397608605,-0.8535156,-0.17871094,0.07421875,86.0,92.28125,-23.625,0.0,0.0,0.0
1695397608666,-0.8564453,-0.47265625,0.21777344,291.125,55.75,-8.3125,0.0,0.0,0.0
1695397608694,-0.9404297,-0.6972656,0.040039062,151.78125,26.125,-13.8125,0.0,0.0,0.0
1695397608725,-0.78125,-0.75097656,-0.09375,123.34375,23.6875,-10.59375,0.0,0.0,0.0
1695397608788,-0.93066406,-0.74609375,-0.0029296875,181.15625,20.09375,-28.21875,-73.5,-37.75,-103.6875
1695397608815,-1.0634766,-0.71972656,0.06738281,206.0,31.625,-47.6875,0.0,0.0,0.0
1695397608848,-1.3251953,-0.21582031,-0.091796875,209.53125,-7.6875,-56.125,0.0,0.0,0.0
1695397608908,-1.0273438,-0.125,0.03125,224.0625,-36.625,-84.96875,0.0,0.0,0.0
1695397608941,-1.0517578,0.013671875,0.17089844,141.59375,1.71875,-91.5625,0.0,0.0,0.0
1695397608966,-0.6738281,-0.01171875,-0.18457031,-62.375,91.3125,-106.15625,0.0,0.0,0.0
1695397609026,-0.7558594,-0.55371094,-0.19921875,171.75,111.03125,-79.84375,0.0,0.0,0.0
1695397609055,-0.96484375,-0.3623047,0.39160156,163.375,89.1875,-35.90625,0.0,0.0,0.0
1695397609086,-1.1855469,0.049804688,0.5292969,67.1875,68.6875,-12.34375,0.0,0.0,0.0
1695397609176,-0.8798828,-0.044921875,0.26953125,128.96875,47.625,10.78125,0.0,0.0,0.0
1695397609178,-0.7949219,-0.12792969,0.06542969,162.96875,25.71875,5.09375,0.0,0.0,0.0
1695397609205,-0.69628906,-0.37597656,0.33203125,170.71875,44.25,0.59375,0.0,0.0,0.0
1695397609266,-1.1533203,-0.66796875,0.07421875,125.3125,49.9375,-26.5625,-78.4375,-25.625,-117.9375
1695397609297,-1.0214844,-0.6972656,-0.10546875,50.34375,72.46875,-2.875,0.0,0.0,0.0
1695397609326,-1.0068359,-0.53125,0.1953125,112.65625,75.34375,-12.96875,0.0,0.0,0.0
1695397609387,-0.9970703,-0.5253906,0.37597656,151.375,70.8125,-20.78125,0.0,0.0,0.0
1695397609415,-0.86621094,-0.31640625,0.22558594,131.78125,59.09375,-20.65625,0.0,0.0,0.0
1695397609445,-0.7861328,-0.39257812,0.015625,112.0,27.46875,-12.96875,0.0,0.0,0.0
1695397609506,-0.78125,-0.56347656,-0.00390625,133.65625,41.21875,-18.875,0.0,0.0,0.0
1695397609536,-0.9140625,-0.7128906,0.06933594,131.15625,44.03125,-13.9375,0.0,0.0,0.0
1695397609566,-0.8027344,-0.8564453,0.009765625,217.21875,35.78125,-27.125,0.0,0.0,0.0
1695397609626,-0.8066406,-0.76953125,0.064453125,213.8125,6.84375,-24.3125,0.0,0.0,0.0
1695397609655,-1.1845703,-0.48535156,-0.14257812,127.1875,37.78125,-71.125,0.0,0.0,0.0
1695397609686,-1.4111328,0.10449219,-0.12792969,73.71875,0.5,-87.78125,0.0,0.0,0.0
1695397609746,-0.9863281,0.078125,0.09863281,191.09375,52.6875,-84.5,0.0,0.0,0.0
1695397609776,-0.765625,-0.33007812,0.07421875,141.21875,51.40625,-69.28125,-75.75,-41.1875,-136.375
1695397609806,-0.73339844,-0.5253906,-0.16894531,104.5625,82.28125,-65.15625,0.0,0.0,0.0
1695397609867,-1.0214844,-0.36914062,0.16503906,158.375,58.46875,-50.75,0.0,0.0,0.0
1695397609897,-1.1621094,-0.24121094,0.26367188,118.34375,96.9375,-48.84375,0.0,0.0,0.0
1695397609925,-0.91308594,-0.18261719,0.17578125,159.78125,74.53125,-26.15625,0.0,0.0,0.0
1695397609986,-0.75390625,-0.2783203,-0.005859375,208.875,70.125,-15.15625,0.0,0.0,0.0
1695397610016,-0.7890625,-0.24609375,0.20214844,172.375,64.65625,-9.125,0.0,0.0,0.0
1695397610047,-1.1181641,-0.49609375,0.17773438,201.0,49.21875,-8.25,0.0,0.0,0.0
1695397610105,-0.89160156,-0.8984375,-0.40234375,220.03125,96.875,2.65625,0.0,0.0,0.0
1695397610137,-0.8544922,-0.45996094,0.045898438,285.34375,54.34375,-15.59375,0.0,0.0,0.0
1695397610167,-1.03125,-0.4091797,0.22460938,98.25,64.15625,-30.78125,0.0,0.0,0.0
1695397610225,-1.0947266,-0.02734375,0.14941406,65.5625,77.34375,-42.875,0.0,0.0,0.0
1695397610257,-0.8300781,-0.29785156,0.10449219,215.09375,45.375,-30.28125,-67.625,-59.1875,-127.5625
1695397610286,-0.90234375,-0.4091797,0.16503906,125.0,18.9375,-24.3125,0.0,0.0,0.0
1695397610347,-0.11035156,2.0283203,-0.8183594,404.59375,110.96875,-15.65625,0.0,0.0,0.0
1695397610377,-1.3183594,-1.5761719,0.68066406,-162.0625,30.15625,-15.9375,0.0,0.0,0.0
1695397610405,-0.4609375,-1.4833984,0.1484375,81.1875,-215.8125,-107.75,0.0,0.0,0.0
1695397610465,-0.9121094,-0.48632812,-0.2265625,270.375,24.0,-64.34375,0.0,0.0,0.0
1695397610494,-1.2753906,0.099609375,-0.5566406,129.8125,25.53125,-94.4375,0.0,0.0,0.0
1695397610524,-1.3408203,0.16992188,0.17480469,55.40625,47.125,-131.5,0.0,0.0,0.0
1695397610585,-0.80371094,-0.2109375,0.17578125,109.6875,88.9375,-111.96875,0.0,0.0,0.0
1695397610615,-0.7128906,-0.71777344,-0.01953125,137.4375,62.6875,-101.03125,0.0,0.0,0.0
1695397610645,-1.1572266,-0.5253906,-0.05859375,165.90625,87.59375,-62.8125,0.0,0.0,0.0
1695397610706,-0.9970703,-0.25585938,-0.044921875,234.3125,117.5,-24.96875,0.0,0.0,0.0
1695397610735,-0.7519531,0.18261719,0.07324219,216.6875,89.0625,-3.625,0.0,0.0,0.0
1695397610765,-0.6308594,0.08691406,0.42578125,147.6875,54.6875,4.9375,-64.0625,-52.75,-104.4375
1695397610825,-1.2607422,-0.22070312,-0.19335938,141.71875,101.9375,6.34375,0.0,0.0,0.0
1695397610856,-1.1640625,-0.7871094,0.029296875,205.5625,1.15625,64.8125,0.0,0.0,0.0
1695397610885,-0.79003906,-0.8671875,0.24511719,212.46875,36.5625,-27.59375,0.0,0.0,0.0
1695397610947,-0.734375,-0.3330078,0.18457031,96.3125,67.75,-10.9375,0.0,0.0,0.0
1695397610978,-1.1337891,-0.38867188,0.083984375,-22.84375,85.65625,-43.96875,0.0,0.0,0.0
1695397611006,-0.88671875,-0.32226562,0.099609375,38.09375,72.09375,-34.125,0.0,0.0,0.0
1695397611066,-0.8984375,-0.46484375,0.20117188,199.53125,48.53125,-16.5625,0.0,0.0,0.0
1695397611096,-0.8652344,-0.6191406,0.060546875,189.15625,45.71875,2.0625,0.0,0.0,0.0
1695397611127,-0.77734375,-0.5996094,-0.0703125,174.375,34.0,1.8125,0.0,0.0,0.0
1695397611187,-0.8125,-0.56347656,-0.0078125,156.75,20.40625,-20.34375,0.0,0.0,0.0
1695397611216,-1.0175781,-0.19921875,0.044921875,71.59375,5.4375,-64.46875,0.0,0.0,0.0
1695397611246,-1.2460938,-0.01953125,0.13574219,85.375,60.625,-84.4375,-73.5,-29.0625,-108.625
1695397611307,-1.2265625,0.037109375,0.30273438,73.375,39.4375,-86.09375,0.0,0.0,0.0
1695397611336,-0.7011719,-0.97753906,-0.0029296875,136.21875,87.71875,-92.5,0.0,0.0,0.0
1695397611365,-0.890625,-0.2421875,-0.16796875,117.90625,67.34375,-39.875,0.0,0.0,0.0
1695397611455,-1.0058594,-0.08496094,-0.043945312,195.25,104.75,-13.375,0.0,0.0,0.0
1695397611485,-0.8486328,0.09375,0.3154297,163.3125,96.9375,7.71875,0.0,0.0,0.0
1695397611486,-0.7236328,0.009765625,0.4638672,161.375,49.09375,33.71875,0.0,0.0,0.0
1695397611545,-1.3173828,-0.48242188,-0.13671875,171.1875,89.0,18.15625,0.0,0.0,0.0
1695397611575,-1.1650391,-1.0185547,-0.0048828125,197.875,-26.78125,38.125,0.0,0.0,0.0
1695397611605,-0.63671875,-0.90234375,0.05078125,244.875,63.78125,-10.625,0.0,0.0,0.0
1695397611666,-0.7392578,-0.609375,0.18945312,134.9375,50.65625,-17.40625,0.0,0.0,0.0
1695397611698,-1.1523438,-0.26953125,-0.21875,-0.84375,109.5,-43.59375,0.0,0.0,0.0
1695397611726,-0.9169922,-0.0029296875,-0.125,123.46875,85.21875,-31.34375,0.0,0.0,0.0
1695397611786,-0.8720703,-0.4970703,0.15429688,228.4375,28.28125,-0.5,-78.0,-28.1875,-136.375
1695397611816,-1.0400391,-0.6464844,0.359375,268.78125,49.6875,4.0625,0.0,0.0,0.0
1695397611845,-0.7519531,-0.8261719,-0.140625,229.5625,17.03125,-8.875,0.0,0.0,0.0
1695397611907,-0.6435547,-0.79785156,-0.24023438,234.25,10.625,-33.71875,0.0,0.0,0.0
1695397611936,-1.171875,-0.5175781,-0.12109375,76.46875,-29.53125,-81.1875,0.0,0.0,0.0
1695397611965,-1.6064453,-0.115234375,0.16894531,42.34375,-18.375,-93.71875,0.0,0.0,0.0
1695397612026,-1.1982422,0.18261719,0.28222656,172.0625,40.28125,-90.84375,0.0,0.0,0.0
1695397612056,-0.7089844,-0.19921875,-0.043945312,132.6875,51.71875,-78.4375,0.0,0.0,0.0
1695397612085,-0.54785156,-0.484375,-0.29785156,117.75,84.78125,-70.5,0.0,0.0,0.0
1695397612146,-0.89941406,-0.4482422,-0.032226562,157.46875,79.0,-74.90625,0.0,0.0,0.0
1695397612176,-1.0605469,-0.63183594,0.33007812,143.84375,123.125,-76.375,0.0,0.0,0.0
1695397612206,-0.89453125,-0.0703125,0.055664062,178.09375,145.09375,-38.96875,0.0,0.0,0.0
1695397612267,-0.71191406,0.08496094,0.31347656,195.5,75.5,-3.625,-65.6875,-58.3125,-138.5
1695397612296,-1.3662109,-0.21191406,-0.2548828,170.09375,135.03125,24.34375,0.0,0.0,0.0
1695397612326,-1.1533203,-0.765625,0.030273438,200.0,0.5,68.03125,0.0,0.0,0.0
1695397612386,-0.74902344,-0.99609375,0.12597656,279.65625,41.21875,2.25,0.0,0.0,0.0
1695397612415,-0.64941406,-0.5761719,-0.10058594,150.5625,84.0,-17.0625,0.0,0.0,0.0
1695397612446,-1.0087891,-0.036132812,0.3076172,-53.03125,68.6875,-40.71875,0.0,0.0,0.0
1695397612508,-0.79589844,-0.28125,-0.041992188,75.25,122.3125,-33.03125,0.0,0.0,0.0
1695397612536,-0.8720703,-0.48632812,0.10839844,226.4375,43.28125,0.40625,0.0,0.0,0.0
1695397612566,-1.2431641,-0.6738281,-0.3173828,247.5,-5.0,-16.5625,0.0,0.0,0.0
1695397612625,-0.5761719,-0.8330078,0.026367188,178.59375,11.59375,-15.09375,0.0,0.0,0.0
1695397612655,-0.67871094,-0.75097656,0.2626953,262.15625,38.21875,-42.125,0.0,0.0,0.0
1695397612686,-1.4306641,-0.22167969,-0.49414062,167.28125,85.875,-79.78125,0.0,0.0,0.0
1695397612747,-1.4404297,0.17285156,-0.13183594,74.40625,28.40625,-84.1875,0.0,0.0,0.0
1695397612776,-1.0087891,0.18261719,0.19140625,206.78125,42.1875,-73.5,-65.125,-58.9375,-112.125
1695397612809,-0.6191406,-0.6376953,-0.12695312,194.15625,67.28125,-60.625,0.0,0.0,0.0
1695397612867,-0.9082031,-0.15039062,-0.043945312,110.15625,55.1875,-48.0,0.0,0.0,0.0
1695397612896,-0.9501953,-0.22363281,0.095703125,83.90625,124.28125,-68.125,0.0,0.0,0.0
1695397612927,-0.7871094,-0.18359375,0.31445312,155.5625,105.96875,-16.9375,0.0,0.0,0.0
1695397612987,-1.4003906,-0.07910156,-0.06640625,143.4375,124.21875,18.46875,0.0,0.0,0.0
1695397613017,-1.2060547,-0.6699219,-0.015625,254.5625,-35.03125,30.6875,0.0,0.0,0.0
1695397613047,-0.82910156,-0.8857422,0.4169922,277.65625,32.46875,-16.1875,0.0,0.0,0.0
1695397613105,-0.6074219,-0.56640625,-0.087890625,187.4375,63.625,-12.65625,0.0,0.0,0.0
1695397613136,-1.0253906,-0.02734375,0.046875,-9.09375,78.8125,-25.78125,0.0,0.0,0.0
1695397613197,-1.0390625,-0.29785156,0.043945312,6.28125,75.4375,-53.0,0.0,0.0,0.0
1695397613229,-0.8173828,-0.44628906,0.14941406,125.71875,46.03125,-24.8125,0.0,0.0,0.0
1695397613256,-0.9589844,-0.78125,0.15917969,245.40625,36.4375,-5.28125,-71.25,-37.0,-107.875
1695397613287,-0.91015625,-0.49023438,0.015625,188.71875,40.28125,-12.28125,0.0,0.0,0.0
1695397613346,-0.7519531,-0.55371094,-0.06542969,53.03125,-2.0625,-9.96875,0.0,0.0,0.0
1695397613377,-0.76660156,-0.56933594,0.1953125,102.65625,-18.46875,-35.0625,0.0,0.0,0.0
1695397613405,-1.3916016,-0.43359375,0.0078125,119.9375,8.625,-85.96875,0.0,0.0,0.0
1695397613465,-1.2412109,-0.2939453,0.29492188,182.5625,14.84375,-95.53125,0.0,0.0,0.0
1695397613495,-0.53808594,-0.4169922,0.21679688,140.5,81.6875,-136.5,0.0,0.0,0.0
1695397613525,-0.4375,-0.49804688,0.064453125,76.0,105.1875,-99.9375,0.0,0.0,0.0
1695397613592,-0.8066406,-0.609375,-0.22265625,143.1875,121.59375,-68.6875,0.0,0.0,0.0
1695397613621,-1.2001953,-0.58496094,0.05859375,250.0625,151.75,-48.59375,0.0,0.0,0.0
1695397613647,-0.9628906,0.078125,0.24316406,131.96875,149.84375,-26.15625,0.0,0.0,0.0
1695397613736,-0.8222656,0.25683594,0.22070312,150.8125,84.59375,7.125,0.0,0.0,0.0
1695397613738,-0.86328125,0.040039062,0.1796875,164.25,56.40625,20.5,0.0,0.0,0.0
1695397613766,-1.4267578,-0.24707031,0.28808594,87.46875,87.71875,13.53125,-79.625,-31.625,-129.375
1695397613826,-1.15625,-1.1220703,-0.0107421875,101.9375,-13.84375,87.5625,0.0,0.0,0.0
1695397613855,-0.6777344,-1.0849609,0.14550781,308.65625,-1.15625,-6.71875,0.0,0.0,0.0
1695397613885,-0.5673828,-0.6044922,0.015625,129.875,55.125,-33.78125,0.0,0.0,0.0
1695397613946,-0.85839844,-0.36816406,-0.17480469,29.53125,141.4375,-51.15625,0.0,0.0,0.0
1695397613976,-1.0390625,-0.29882812,0.19628906,38.5625,126.34375,-35.40625,0.0,0.0,0.0
1695397614006,-1.0761719,-0.26367188,0.018554688,195.25,53.0,-16.0625,0.0,0.0,0.0
1695397614067,-0.8105469,-0.44433594,0.10058594,193.96875,-2.78125,6.15625,0.0,0.0,0.0
1695397614103,-0.828125,-0.5722656,-0.032226562,184.5625,-11.28125,-1.46875,0.0,0.0,0.0
1695397614127,-0.9140625,-0.86816406,0.25878906,150.6875,15.09375,-26.09375,0.0,0.0,0.0
1695397614188,-1.3886719,-0.51953125,-0.040039062,184.625,16.78125,-42.25,0.0,0.0,0.0
1695397614218,-1.2089844,-0.083984375,0.10253906,152.40625,0.3125,-81.25,0.0,0.0,0.0
1695397614249,-0.7607422,-0.21582031,0.2763672,152.03125,1.65625,-78.5625,-73.625,-45.4375,-137.4375
1695397614306,-0.64453125,-0.30273438,-0.020507812,0.0,61.90625,-91.9375,0.0,0.0,0.0
1695397614335,-0.67285156,0.078125,-0.24121094,126.34375,83.1875,-64.84375,0.0,0.0,0.0
1695397614365,-1.0107422,-0.71875,-0.19921875,233.40625,150.15625,-65.75,0.0,0.0,0.0
1695397614426,-1.0908203,-0.3232422,-0.125,215.28125,183.0,-41.03125,0.0,0.0,0.0
1695397614456,-0.94628906,0.10058594,0.23535156,178.78125,122.3125,-18.09375,0.0,0.0,0.0
1695397614486,-1.2705078,0.059570312,-0.0078125,226.8125,94.1875,5.15625,0.0,0.0,0.0
1695397614548,-1.1337891,-0.29101562,-0.046875,269.90625,7.6875,42.28125,0.0,0.0,0.0
1695397614575,-0.890625,-0.65234375,0.10839844,156.25,15.625,6.09375,0.0,0.0,0.0
1695397614605,-0.74316406,-0.8339844,0.17285156,180.0625,81.84375,-22.40625,0.0,0.0,0.0
1695397614665,-1.0537109,-0.5234375,0.34277344,-54.1875,27.21875,-46.34375,0.0,0.0,0.0
1695397614696,-1.0097656,-0.25878906,0.47460938,149.34375,43.21875,-29.75,0.0,0.0,0.0
1695397614725,-0.79589844,-0.38671875,0.265625,146.0,33.65625,-2.875,0.0,0.0,0.0
1695397614785,-0.86621094,-0.6816406,0.17871094,120.25,10.03125,-7.34375,-64.8125,-59.9375,-123.0625
1695397614815,-0.8798828,-0.6953125,-0.040039062,189.625,68.5,-20.40625,0.0,0.0,0.0
1695397614846,-0.8125,-0.75097656,-0.10058594,176.34375,23.09375,-32.78125,0.0,0.0,0.0
1695397614908,-1.0029297,-0.24609375,-0.08984375,79.21875,21.25,-62.15625,0.0,0.0,0.0
1695397614939,-1.0107422,0.037109375,0.18945312,75.125,50.0,-106.03125,0.0,0.0,0.0
1695397614970,-1.0947266,-0.036132812,0.16113281,61.40625,88.09375,-106.46875,0.0,0.0,0.0
1695397615029,-0.84277344,-0.8935547,0.08691406,139.53125,50.90625,-103.0,0.0,0.0,0.0
1695397615055,-0.85839844,-0.28222656,-0.05078125,65.5,38.9375,-57.8125,0.0,0.0,0.0
1695397615086,-0.9248047,-0.2578125,0.024414062,152.46875,79.96875,-3.6875,0.0,0.0,0.0
1695397615147,-0.91503906,-0.041015625,-0.06542969,229.625,105.0,17.8125,0.0,0.0,0.0
1695397615179,-0.92089844,-0.07714844,0.390625,292.53125,87.0625,9.0625,0.0,0.0,0.0
1695397615207,-1.0859375,-0.38964844,0.030273438,186.53125,83.8125,-1.78125,0.0,0.0,0.0
1695397615269,-1.0761719,-0.65625,-0.1484375,222.46875,32.53125,19.09375,-67.8125,-46.9375,-103.875
1695397615299,-0.89160156,-0.6826172,-9.765625E-4,220.75,64.03125,-21.3125,0.0,0.0,0.0
1695397615326,-0.79785156,-0.3564453,0.025390625,98.15625,78.9375,-29.5625,0.0,0.0,0.0
1695397615386,-1.1269531,-0.390625,0.66796875,-13.3125,-9.03125,-47.1875,0.0,0.0,0.0
1695397615415,-0.85546875,-0.19921875,-0.12109375,-18.75,75.34375,-38.71875,0.0,0.0,0.0
1695397615446,-0.8066406,-0.47558594,0.07324219,202.28125,37.25,0.96875,0.0,0.0,0.0
1695397615507,-0.9873047,-0.78125,0.3564453,287.53125,38.21875,11.15625,0.0,0.0,0.0
1695397615540,-0.8496094,-0.6904297,0.099609375,198.3125,53.28125,-12.28125,0.0,0.0,0.0
1695397615567,-0.69140625,-0.62402344,-0.13574219,132.125,-0.21875,-11.3125,0.0,0.0,0.0
1695397615626,-0.9296875,-0.3779297,-0.029296875,55.84375,-1.5,-56.90625,0.0,0.0,0.0
1695397615655,-1.0898438,0.09277344,0.0029296875,75.5625,56.59375,-96.15625,0.0,0.0,0.0
1695397615687,-1.1865234,-0.6503906,0.34277344,53.84375,-50.03125,-13.8125,0.0,0.0,0.0
1695397615746,-0.8935547,-0.4140625,-0.10253906,144.21875,43.09375,-99.5,0.0,0.0,0.0
1695397615775,-0.8300781,0.030273438,0.12792969,225.46875,87.34375,-79.71875,-76.625,-30.875,-111.0625
1695397615806,-0.9765625,-0.26660156,0.0048828125,120.53125,113.40625,-63.5,0.0,0.0,0.0
1695397615865,-0.9003906,-0.5175781,0.12402344,143.90625,112.875,-39.375,0.0,0.0,0.0
1695397615895,-0.8105469,-0.37109375,-0.018554688,193.84375,115.25,-28.65625,0.0,0.0,0.0
1695397615926,-0.86035156,-0.20410156,0.07324219,227.40625,85.75,-13.15625,0.0,0.0,0.0
1695397616017,-1.1318359,-0.42578125,0.103515625,204.21875,91.125,-15.21875,0.0,0.0,0.0
1695397616019,-1.0996094,-0.2919922,-0.1875,154.53125,61.96875,6.9375,0.0,0.0,0.0
1695397616045,-0.83984375,-0.421875,-0.10644531,266.40625,36.3125,27.03125,0.0,0.0,0.0
1695397616106,-0.8808594,-0.31640625,0.15625,226.625,79.90625,10.28125,0.0,0.0,0.0
1695397616137,-1.1445312,-0.46875,0.33007812,75.1875,64.46875,-19.125,0.0,0.0,0.0
1695397616166,-0.86328125,-0.46777344,0.026367188,48.8125,79.0,-19.5625,0.0,0.0,0.0
1695397616226,-0.7714844,-0.35253906,0.03515625,151.0625,41.46875,-14.96875,0.0,0.0,0.0
1695397616257,-0.9169922,-0.4765625,0.16113281,243.90625,40.0,-12.96875,-76.9375,-32.9375,-139.875
1695397616286,-0.97558594,-0.41015625,0.036132812,195.90625,60.4375,-9.28125,0.0,0.0,0.0
1695397616347,-0.90234375,-0.8417969,0.005859375,177.25,13.6875,-6.375,0.0,0.0,0.0
1695397616378,-0.6279297,-0.9296875,-0.16992188,179.9375,16.75,-27.59375,0.0,0.0,0.0
1695397616407,-0.96875,-0.48535156,0.17578125,40.9375,-1.5,-44.40625,0.0,0.0,0.0
1695397616466,-1.3994141,-0.41992188,0.061523438,94.65625,-54.8125,-51.53125,0.0,0.0,0.0
1695397616496,-1.3720703,0.24707031,-0.1015625,98.8125,56.78125,-133.75,0.0,0.0,0.0
1695397616526,-1.0166016,0.30664062,0.044921875,139.78125,42.0,-113.125,0.0,0.0,0.0
1695397616585,-0.5263672,-0.4404297,0.13964844,186.15625,92.46875,-109.15625,0.0,0.0,0.0
1695397616615,-1.0498047,-0.7636719,0.0546875,241.75,82.84375,-99.4375,0.0,0.0,0.0
1695397616646,-0.9160156,-0.62597656,0.025390625,196.84375,183.375,-92.125,0.0,0.0,0.0
1695397616707,-0.7861328,-0.0048828125,0.034179688,169.375,124.78125,-25.15625,0.0,0.0,0.0
1695397616736,-0.75683594,0.091796875,0.13476562,203.5,51.59375,-4.15625,0.0,0.0,0.0
1695397616767,-1.4277344,-0.20996094,-0.12597656,112.84375,56.90625,17.625,-63.75,-63.5625,-128.625
1695397616826,-1.0820312,-0.42578125,-0.103515625,145.3125,133.625,2.375,0.0,0.0,0.0
1695397616856,-0.8378906,-1.0986328,0.10546875,230.28125,53.84375,-3.375,0.0,0.0,0.0
1695397616886,-0.7207031,-0.70996094,0.234375,244.125,50.375,-22.0625,0.0,0.0,0.0
1695397616946,-0.9736328,-0.33203125,-0.10058594,72.15625,116.96875,-30.59375,0.0,0.0,0.0
1695397616975,-0.9453125,-0.3125,-0.07910156,34.40625,92.46875,-35.125,0.0,0.0,0.0
1695397617006,-1.0449219,-0.23925781,0.12597656,138.4375,63.5625,-11.125,0.0,0.0,0.0
1695397617066,-0.9482422,-0.51660156,0.27441406,237.84375,29.625,4.3125,0.0,0.0,0.0
1695397617099,-0.84277344,-0.7441406,0.103515625,183.40625,39.125,-5.6875,0.0,0.0,0.0
1695397617125,-0.640625,-1.0263672,-0.018554688,214.46875,30.84375,-9.71875,0.0,0.0,0.0
1695397617185,-0.60546875,-0.68652344,-0.15722656,189.21875,11.4375,-25.65625,0.0,0.0,0.0
1695397617215,-1.0634766,-0.50097656,0.001953125,119.25,32.125,-73.9375,0.0,0.0,0.0
1695397617244,-1.3623047,-0.0029296875,0.3125,41.75,4.21875,-84.96875,-66.625,-52.0,-105.8125
1695397617306,-1.328125,0.024414062,0.14550781,185.0625,25.65625,-73.875,0.0,0.0,0.0
1695397617336,-0.57714844,-0.5361328,-0.15234375,79.46875,60.5,-105.625,0.0,0.0,0.0
1695397617366,-0.6875,-0.55566406,-0.3310547,125.84375,121.84375,-96.75,0.0,0.0,0.0
1695397617426,-0.98535156,-0.43359375,-0.040039062,222.46875,98.78125,-61.46875,0.0,0.0,0.0
1695397617457,-1.0175781,-0.26953125,0.25878906,146.3125,139.84375,-49.21875,0.0,0.0,0.0
1695397617485,-0.8222656,0.045898438,0.10644531,145.875,107.0625,-11.375,0.0,0.0,0.0
1695397617546,-0.8144531,-0.2919922,0.41210938,212.21875,72.21875,15.96875,0.0,0.0,0.0
1695397617576,-1.2636719,-0.5800781,-0.4326172,248.84375,108.09375,2.3125,0.0,0.0,0.0
1695397617605,-0.89746094,-0.6152344,0.24511719,301.4375,57.625,12.25,0.0,0.0,0.0
1695397617666,-0.60839844,-0.74121094,-0.055664062,150.75,82.84375,-28.65625,0.0,0.0,0.0
1695397617696,-1.0498047,-0.2763672,0.046875,56.5625,93.46875,-20.90625,0.0,0.0,0.0
1695397617726,-1.0498047,-0.43066406,0.044921875,-91.5,122.25,-37.8125,0.0,0.0,0.0
1695397617786,-0.890625,-0.21582031,0.14453125,195.6875,81.375,-8.5,-78.0,-31.4375,-117.375
1695397617816,-0.8701172,-0.54296875,0.18847656,316.90625,41.46875,4.875,0.0,0.0,0.0
1695397617846,-0.9580078,-0.53515625,0.15625,193.125,60.3125,-21.0,0.0,0.0,0.0
1695397617907,-0.75,-0.6425781,0.01171875,85.375,25.03125,-8.25,0.0,0.0,0.0
1695397617937,-0.77734375,-0.7714844,-0.0859375,139.59375,33.59375,-11.96875,0.0,0.0,0.0
1695397617965,-0.8105469,-0.6621094,-0.024414062,93.25,15.8125,-18.40625,0.0,0.0,0.0
1695397618026,-1.1318359,-0.3642578,0.171875,146.25,14.0,-57.21875,0.0,0.0,0.0
1695397618057,-1.2138672,-0.2109375,0.23339844,156.6875,1.125,-87.78125,0.0,0.0,0.0
1695397618089,-1.0732422,-0.51953125,0.07128906,-48.78125,-53.28125,-86.6875,0.0,0.0,0.0
1695397618148,-0.8310547,-0.07519531,-0.1328125,105.40625,82.59375,-105.3125,0.0,0.0,0.0
1695397618178,-0.6308594,-0.3154297,0.06640625,192.5625,105.1875,-77.34375,0.0,0.0,0.0
1695397618205,-0.9296875,-0.52246094,-0.055664062,218.125,166.09375,-77.0,0.0,0.0,0.0
1695397618297,-1.0673828,-0.52246094,0.037109375,214.21875,170.46875,-47.0625,-76.5,-38.6875,-132.625
1695397618300,-0.7685547,0.0029296875,0.11425781,135.1875,131.34375,-9.96875,0.0,0.0,0.0
1695397618325,-1.0986328,-0.30078125,0.4189453,215.625,75.875,9.625,0.0,0.0,0.0
1695397618385,-1.2480469,-0.17773438,-0.3388672,176.8125,57.9375,20.1875,0.0,0.0,0.0
1695397618415,-1.2138672,-0.5048828,0.46972656,290.59375,24.78125,56.125,0.0,0.0,0.0
1695397618445,-0.5371094,-1.078125,0.11230469,191.78125,43.09375,5.0,0.0,0.0,0.0
1695397618506,-0.7792969,-0.3671875,0.2783203,98.5625,74.03125,-21.75,0.0,0.0,0.0
