,timestamp,accel_x,accel_y,accel_z,gyro_x,gyro_y,gyro_z
0,1697605965,-0.06225586,-0.99468994,0.090026855,0.390625,0.21875,0.796875
1,1697606005,-0.07006836,-0.99786377,0.09637451,0.28125,-0.296875,0.6875
2,1697606045,-0.059326172,-1.0039673,0.09173584,-0.140625,0.515625,0.796875
3,1697606085,-0.07055664,-1.0066528,0.093444824,-0.203125,1.0625,0.71875
4,1697606125,-0.067871094,-0.99713135,0.10882568,-1.078125,1.125,0.96875
5,1697606165,-0.06323242,-1.0083618,0.09295654,-1.359375,1.71875,1.171875
6,1697606205,-0.07348633,-1.0020142,0.10467529,-1.65625,1.6875,1.28125
7,1697606245,-0.06738281,-0.99664307,0.09637451,-2.421875,0.984375,1.234375
8,1697606285,-0.06323242,-1.0012817,0.1083374,-1.875,1.46875,1.25
9,1697606325,-0.071777344,-0.9993286,0.113220215,-2.703125,-0.109375,1.234375
10,1697606365,-0.05053711,-1.0003052,0.090026855,-2.65625,1.171875,0.96875
11,1697606405,-0.068359375,-0.9963989,0.121276855,-3.109375,-0.328125,0.625
12,1697606445,-0.05126953,-0.99591064,0.08074951,-2.609375,-0.15625,0.125
13,1697606485,-0.06201172,-0.9961548,0.1329956,-0.25,-1.65625,0.03125
14,1697606525,-0.056152344,-1.003479,0.10003662,0.578125,-1.46875,0.625
15,1697606565,-0.060791016,-0.9824829,0.10687256,2.1875,-1.75,0.96875
16,1697606605,-0.06958008,-0.9834595,0.09954834,2.203125,-2.359375,1.21875
17,1697606645,-0.055908203,-0.9890747,0.08294678,3.078125,-2.109375,1.203125
18,1697606685,-0.060791016,-0.99053955,0.08538818,4.21875,-4.203125,1.640625
19,1697606725,-0.07104492,-0.9981079,0.1083374,4.984375,-4.609375,2.359375
20,1697606765,-0.064697266,-1.0108032,0.121276855,3.296875,-3.015625,2.453125
21,1697606805,-0.05493164,-1.0132446,0.09857178,1.578125,-1.171875,1.890625
22,1697606845,-0.057373047,-1.0015259,0.09197998,1.40625,-0.375,1.375
23,1697606885,-0.057128906,-1.0081177,0.08685303,0.765625,-0.734375,1.109375
24,1697606925,-0.049560547,-0.98883057,0.09320068,1.15625,-0.375,1.46875
25,1697606965,-0.050048828,-1.0005493,0.089538574,1.15625,-0.359375,1.671875
26,1697607005,-0.052246094,-1.0015259,0.085632324,1.421875,-0.125,1.859375
27,1697607045,-0.052246094,-0.991272,0.098083496,2.203125,-0.21875,2.0
28,1697607085,-0.042236328,-0.99420166,0.08050537,1.5625,1.125,1.375
29,1697607125,-0.051513672,-0.99542236,0.090270996,1.078125,0.5,1.3125
30,1697607165,-0.049072266,-0.9998169,0.07318115,0.75,1.21875,0.96875
31,1697607205,-0.049804688,-1.0007935,0.090270996,1.40625,-0.328125,1.21875
32,1697607245,-0.044921875,-0.9949341,0.08514404,0.765625,-0.75,1.046875
33,1697607285,-0.04736328,-0.9993286,0.06512451,0.796875,0.140625,0.890625
34,1697607325,-0.052246094,-0.9963989,0.07366943,0.765625,-0.078125,1.0
35,1697607365,-0.045410156,-0.99468994,0.09222412,0.734375,-0.78125,0.734375
36,1697607405,-0.048339844,-1.0076294,0.0680542,0.515625,-1.625,1.203125
37,1697607445,-0.045654297,-0.9939575,0.07220459,0.671875,-0.4375,0.828125
38,1697607485,-0.05078125,-0.9961548,0.08441162,0.984375,-0.859375,1.328125
39,1697607525,-0.043945312,-0.99786377,0.07562256,0.84375,-1.265625,1.03125
40,1697607565,-0.041015625,-1.0015259,0.07977295,1.046875,-1.140625,0.828125
41,1697607605,-0.046142578,-0.99884033,0.062927246,1.078125,-0.9375,0.96875
42,1697607645,-0.038330078,-1.0044556,0.06048584,1.9375,-1.140625,0.875
43,1697607685,-0.04638672,-0.9890747,0.073913574,1.734375,-1.125,1.515625
44,1697607725,-0.036865234,-1.0015259,0.055114746,1.75,0.90625,1.703125
45,1697607765,-0.04663086,-1.003479,0.058532715,1.953125,-0.390625,2.28125
46,1697607805,-0.036865234,-1.0122681,0.050231934,1.15625,-0.03125,1.484375
47,1697607845,-0.044189453,-0.99542236,0.07171631,1.171875,-1.421875,1.796875
48,1697607885,-0.034179688,-1.0037231,0.058776855,-0.28125,0.28125,1.234375
49,1697607925,-0.039794922,-1.0027466,0.07684326,0.453125,0.625,0.90625
50,1697607965,-0.037597656,-1.0025024,0.07733154,0.203125,-0.25,0.296875
51,1697608005,-0.041259766,-0.9898071,0.0692749,0.078125,0.3125,0.515625
52,1697608045,-0.044189453,-0.9871216,0.06707764,0.3125,0.546875,0.609375
53,1697608085,-0.033935547,-0.9963989,0.05657959,-0.1875,-0.015625,0.625
54,1697608125,-0.03540039,-1.0003052,0.058532715,0.421875,-0.375,0.5625
55,1697608165,-0.036376953,-1.0010376,0.05340576,0.859375,-0.65625,0.9375
56,1697608205,-0.04638672,-0.99468994,0.054626465,1.234375,-0.828125,1.171875
57,1697608245,-0.045410156,-1.0149536,0.077819824,1.8125,-1.46875,1.078125
58,1697608285,-0.036621094,-1.005188,0.055847168,1.328125,-0.984375,1.546875
59,1697608325,-0.037841797,-1.0042114,0.066101074,1.375,-1.203125,1.140625
60,1697608365,-0.029052734,-0.9993286,0.05316162,1.09375,-0.46875,0.96875
61,1697608405,-0.030029297,-1.0032349,0.04144287,1.25,-0.640625,1.796875
62,1697608445,-0.041503906,-0.99005127,0.06878662,1.890625,0.21875,2.09375
63,1697608485,-0.03100586,-1.0071411,0.05267334,1.96875,0.140625,1.671875
64,1697608525,-0.033935547,-0.9973755,0.049987793,1.3125,0.5625,1.796875
65,1697608565,-0.03564453,-1.00177,0.043151855,0.765625,0.46875,1.578125
66,1697608605,-0.034179688,-0.98516846,0.0680542,1.6875,-1.671875,1.34375
67,1697608645,-0.028076172,-1.0015259,0.038757324,1.0,-0.296875,1.171875
68,1697608685,-0.03100586,-1.0076294,0.039978027,0.734375,0.703125,0.78125
69,1697608725,-0.029052734,-1.0039673,0.05609131,1.09375,0.328125,1.03125
70,1697608765,-0.020996094,-0.98760986,0.028503418,1.515625,0.4375,1.109375
71,1697608805,-0.0234375,-0.9998169,0.04534912,1.328125,0.09375,1.203125
72,1697608845,-0.031982422,-0.9949341,0.035095215,1.375,-0.4375,1.21875
73,1697608885,-0.03149414,-1.0032349,0.032409668,1.421875,-0.390625,1.640625
74,1697608925,-0.025390625,-0.99884033,0.0368042,1.234375,-0.578125,1.359375
75,1697608965,-0.03515625,-0.9993286,0.028747559,0.625,0.28125,1.265625
76,1697609005,-0.028320312,-0.9973755,0.038269043,0.734375,0.03125,0.578125
77,1697609045,-0.03515625,-1.0015259,0.042907715,0.796875,-0.21875,1.1875
78,1697609085,-0.018798828,-1.0010376,0.03289795,0.734375,-0.15625,1.125
79,1697609125,-0.03173828,-1.0007935,0.036071777,1.109375,0.046875,1.484375
80,1697609165,-0.020263672,-0.99542236,0.02532959,1.078125,-0.71875,1.375
81,1697609205,-0.022949219,-0.99346924,0.032409668,1.25,-0.625,1.40625
82,1697609245,-0.026611328,-0.9956665,0.020690918,1.359375,-0.328125,1.484375
83,1697609285,-0.024169922,-1.0105591,0.0138549805,0.734375,-1.65625,1.65625
84,1697609325,-0.025878906,-0.9990845,0.02557373,1.421875,-0.734375,1.3125
85,1697609365,-0.018066406,-0.99420166,0.043395996,1.40625,-0.921875,1.328125
86,1697609405,-0.016601562,-0.99591064,0.014831543,0.28125,-0.140625,1.296875
87,1697609445,-0.014892578,-1.0029907,0.022155762,1.21875,0.359375,0.609375
88,1697609485,-0.02368164,-1.0076294,0.02508545,1.453125,0.109375,1.078125
89,1697609525,-0.015136719,-1.0010376,0.029968262,1.140625,-0.359375,1.21875
90,1697609565,-0.01586914,-0.991272,0.0211792,1.171875,-0.1875,0.953125
91,1697609605,-0.017822266,-0.9927368,0.013366699,2.09375,-1.484375,1.15625
92,1697609645,-0.015380859,-0.9932251,0.014099121,2.015625,-0.953125,1.703125
93,1697609685,-0.009521484,-1.0015259,0.01776123,2.578125,-2.09375,1.640625
94,1697609725,-0.009765625,-0.9976196,0.02947998,1.78125,-0.8125,1.46875
95,1697609765,-0.015380859,-0.9915161,0.014343262,0.796875,-1.140625,1.328125
96,1697609805,-0.0075683594,-1.0064087,0.018005371,0.703125,-0.015625,1.140625
97,1697609845,-0.022460938,-0.99005127,0.007019043,0.515625,-0.859375,1.34375
98,1697609885,-0.0048828125,-0.9920044,0.00579834,0.796875,-0.5,1.046875
99,1697609925,-0.01586914,-1.0046997,0.011413574,0.984375,0.265625,1.34375
100,1697609965,0.0075683594,-0.9993286,0.0045776367,0.640625,-0.484375,0.9375
101,1697610005,-0.0126953125,-0.9939575,0.0036010742,0.3125,0.515625,1.03125
102,1697610045,-0.0107421875,-0.99176025,0.0021362305,0.4375,-0.921875,1.0625
103,1697610085,-0.009277344,-1.000061,0.009460449,0.015625,-0.734375,1.03125
104,1697610125,-0.012451172,-0.99053955,0.039489746,0.375,-1.359375,1.578125
105,1697610165,-0.009033203,-0.99346924,0.001159668,-0.484375,-0.15625,1.3125
106,1697610205,-0.013916016,-1.0056763,0.0040893555,-0.171875,-0.34375,0.796875
107,1697610245,-0.015625,-1.0049438,0.022644043,-0.3125,0.03125,0.625
108,1697610285,0.0031738281,-0.99420166,0.035095215,-0.875,1.59375,0.53125
109,1697610325,-0.016113281,-1.0078735,0.04144287,-4.0625,3.5,-0.296875
110,1697610365,0.026367188,-1.0286255,0.051208496,-10.453125,8.421875,-3.59375
111,1697610405,-0.033203125,-1.0344849,0.026306152,-12.984375,1.90625,-10.328125
112,1697610445,-0.072021484,-0.9480591,0.013366699,-13.34375,0.34375,-16.09375
113,1697610485,-0.047607422,-0.98101807,0.06756592,-14.578125,-4.46875,-11.171875
114,1697610525,-0.06616211,-1.0022583,0.07733154,-4.859375,-2.921875,-6.296875
115,1697610565,-0.08300781,-0.98101807,0.10247803,-1.046875,-4.140625,0.328125
116,1697610605,-0.06982422,-0.97613525,0.04510498,3.09375,-3.5,4.34375
117,1697610645,-0.0847168,-0.97442627,0.07952881,6.625,-1.484375,4.5625
118,1697610685,-0.072509766,-1.0112915,0.105407715,6.46875,-3.96875,4.140625
119,1697610725,-0.06542969,-0.9898071,0.08929443,2.828125,-2.359375,4.65625
120,1697610765,-0.05078125,-1.0266724,0.07635498,2.9375,-0.796875,4.078125
121,1697610805,-0.061767578,-0.9859009,0.059265137,3.171875,-0.984375,2.71875
122,1697610845,-0.033447266,-1.0025024,0.07366943,2.03125,0.46875,1.671875
123,1697610885,-0.045654297,-0.99542236,0.06903076,2.046875,-0.140625,3.375
124,1697610925,-0.04638672,-1.0061646,0.051208496,1.328125,1.421875,1.796875
125,1697610965,-0.045898438,-1.0025024,0.07537842,1.21875,0.875,1.8125
126,1697611005,-0.043701172,-1.0093384,0.058288574,0.265625,0.90625,1.640625
127,1697611045,-0.03881836,-0.9976196,0.051696777,-0.1875,1.515625,1.421875
128,1697611085,-0.05102539,-0.9927368,0.058288574,0.03125,0.71875,0.828125
129,1697611125,-0.04272461,-0.9993286,0.062927246,0.984375,0.53125,0.765625
130,1697611165,-0.041259766,-1.0098267,0.054138184,0.859375,-0.296875,1.203125
131,1697611205,-0.037841797,-0.9902954,0.051696777,0.484375,0.5,1.203125
132,1697611245,-0.047607422,-0.99957275,0.059753418,1.703125,-0.609375,1.625
133,1697611285,-0.044433594,-1.0078735,0.06512451,0.5625,-0.125,1.09375
134,1697611325,-0.03881836,-0.9920044,0.06488037,0.5,-0.140625,0.953125
135,1697611365,-0.04321289,-1.0012817,0.06854248,0.65625,0.0625,1.328125
136,1697611405,-0.043945312,-1.0032349,0.04534912,0.796875,-0.0625,1.359375
137,1697611445,-0.041992188,-1.0037231,0.058044434,1.734375,0.078125,1.34375
138,1697611485,-0.044433594,-0.9985962,0.055847168,0.78125,0.078125,1.75
139,1697611525,-0.035888672,-0.98883057,0.066589355,1.609375,-0.125,1.609375
140,1697611565,-0.026611328,-1.00177,0.03729248,0.484375,1.171875,0.640625
141,1697611605,-0.031982422,-0.9939575,0.039733887,0.8125,-0.375,0.9375
142,1697611645,-0.02368164,-0.9968872,0.042663574,0.21875,1.0625,0.21875
143,1697611685,-0.049804688,-1.0112915,0.061462402,1.359375,-0.59375,1.1875
144,1697611725,-0.03173828,-0.99884033,0.05731201,1.15625,-0.28125,1.171875
145,1697611765,-0.040771484,-0.9973755,0.050720215,1.3125,-0.28125,1.65625
146,1697611805,-0.030273438,-0.99957275,0.047546387,0.21875,-0.390625,0.796875
147,1697611845,-0.040039062,-0.99664307,0.05218506,1.046875,-0.53125,1.109375
148,1697611885,-0.034423828,-0.99713135,0.0524292,0.921875,0.078125,1.046875
149,1697611925,-0.036621094,-0.99298096,0.039001465,1.359375,0.03125,1.234375
150,1697611965,-0.032226562,-0.9961548,0.047058105,1.46875,0.453125,1.390625
151,1697612005,-0.033691406,-0.99786377,0.034118652,1.03125,-0.625,1.328125
152,1697612045,-0.03149414,-1.0012817,0.05340576,0.765625,-0.609375,0.984375
153,1697612085,-0.022705078,-0.9956665,0.04095459,0.46875,0.1875,1.328125
154,1697612125,-0.036132812,-0.9981079,0.0446167,1.109375,-0.84375,1.328125
155,1697612165,-0.030029297,-0.99664307,0.043151855,1.375,0.046875,1.671875
156,1697612205,-0.032470703,-0.99346924,0.038269043,1.28125,-0.40625,1.65625
157,1697612245,-0.035888672,-1.0039673,0.04168701,1.359375,-1.015625,1.296875
158,1697612285,-0.02319336,-1.0093384,0.032165527,1.3125,0.578125,1.25
159,1697612325,-0.030273438,-0.99298096,0.043395996,0.875,-0.171875,1.03125
160,1697612365,-0.016357422,-0.9985962,0.013366699,0.46875,0.625,1.15625
161,1697612405,-0.018066406,-1.0029907,0.035583496,1.796875,0.15625,1.265625
162,1697612445,-0.025878906,-1.00177,0.039001465,1.328125,-0.40625,1.3125
163,1697612485,-0.014892578,-0.98931885,0.024353027,1.375,-0.15625,1.03125
164,1697612525,-0.024169922,-1.0027466,0.04437256,0.1875,-0.609375,0.859375
165,1697612565,-0.020507812,-0.99053955,0.024841309,1.21875,-0.46875,1.078125
166,1697612605,-0.020263672,-1.0025024,0.028015137,1.578125,-0.25,1.125
167,1697612645,-0.028320312,-1.0076294,0.01727295,1.15625,-0.265625,1.21875
168,1697612685,-0.021972656,-0.9871216,0.024108887,1.75,-0.15625,1.046875
169,1697612725,-0.0234375,-1.000061,0.035339355,1.375,-0.359375,1.203125
170,1697612765,-0.022216797,-0.99713135,0.022399902,1.0625,-0.359375,1.078125
171,1697612805,-0.013916016,-0.99713135,0.02923584,0.71875,-0.40625,0.96875
172,1697612845,-0.0146484375,-0.9949341,0.019958496,0.703125,0.125,1.328125
173,1697612885,-0.020751953,-0.9951782,0.017028809,0.75,-0.4375,0.796875
174,1697612925,-0.017578125,-0.9927368,0.015808105,0.59375,-0.03125,0.96875
175,1697612965,-0.030273438,-0.9902954,0.018005371,0.765625,-0.46875,1.25
176,1697613005,-0.014404297,-0.9937134,0.020446777,0.671875,0.765625,0.609375
177,1697613045,-0.024414062,-0.9973755,0.030700684,0.84375,0.078125,1.25
178,1697613085,-0.008300781,-0.99102783,0.011169434,0.453125,0.6875,0.4375
179,1697613125,-0.01977539,-1.0125122,0.019226074,1.171875,0.09375,0.828125
180,1697613165,-0.026123047,-0.9973755,0.015563965,1.34375,-0.359375,1.109375
181,1697613205,-0.011230469,-0.98931885,0.02142334,1.140625,-0.109375,1.25
182,1697613245,-0.01928711,-0.9920044,0.015319824,0.765625,-0.171875,0.890625
183,1697613285,-0.013671875,-0.9973755,0.014587402,1.03125,-0.65625,1.140625
184,1697613325,-0.011962891,-1.0010376,0.014587402,1.34375,-0.25,1.28125
185,1697613365,-0.02368164,-0.9927368,0.01361084,0.921875,0.140625,1.21875
186,1697613405,-0.018798828,-0.9968872,0.015075684,0.53125,-0.03125,1.078125
187,1697613445,-0.012451172,-0.9973755,0.007751465,0.421875,-0.203125,1.109375
188,1697613485,-0.025390625,-1.0056763,0.011169434,0.5,-0.421875,1.171875
189,1697613525,-0.013916016,-1.0083618,0.0028686523,0.515625,0.15625,1.3125
190,1697613565,-0.016601562,-0.98516846,0.002380371,0.671875,-0.265625,1.09375
191,1697613605,-0.016113281,-1.0032349,0.015075684,0.921875,-0.453125,0.921875
192,1697613645,-0.020263672,-0.99053955,0.00970459,0.84375,-0.8125,1.421875
193,1697613685,-0.009765625,-1.0010376,0.008972168,1.109375,-0.71875,1.109375
194,1697613725,-0.01171875,-1.0039673,0.0211792,2.203125,-0.53125,1.90625
195,1697613765,-0.011474609,-0.97540283,-0.018127441,1.546875,0.125,1.9375
196,1697613805,-0.011230469,-1.020813,0.019226074,1.75,-0.140625,0.71875
197,1697613845,-0.017089844,-0.9973755,0.00579834,1.65625,0.109375,2.078125
198,1697613885,-0.0012207031,-0.9937134,0.0006713867,0.875,0.265625,1.265625
199,1697613925,-0.012451172,-0.9920044,-0.0044555664,1.0,0.515625,1.09375
200,1697613965,-0.009521484,-0.9915161,0.0067749023,0.5625,-0.84375,1.125
201,1697614005,-0.01171875,-1.0098267,-0.008117676,0.671875,-0.578125,0.921875
202,1697614045,-0.006591797,-0.99346924,0.0021362305,0.359375,0.171875,0.90625
203,1697614085,-0.0073242188,-1.0010376,0.004333496,0.15625,0.0625,0.796875
204,1697614125,-0.0107421875,-0.9898071,-0.0037231445,0.125,-0.09375,0.6875
205,1697614165,-0.014892578,-0.99542236,0.0045776367,0.328125,-0.015625,0.703125
206,1697614205,-0.012939453,-0.99835205,-0.0044555664,0.0,-0.703125,0.75
207,1697614245,-0.010009766,-0.991272,0.005065918,0.5,-0.75,1.234375
208,1697614285,-0.00390625,-1.00177,-0.005432129,0.046875,-0.078125,0.65625
209,1697614325,-0.009765625,-0.9883423,0.0045776367,0.390625,-0.28125,1.1875
210,1697614365,-0.014892578,-0.99591064,0.013366699,0.546875,-0.9375,1.078125
211,1697614405,-0.0043945312,-1.0093384,-0.008605957,-0.578125,0.765625,0.40625
212,1697614445,-0.013183594,-1.0003052,0.014343262,-1.375,-0.40625,0.59375
213,1697614485,0.013183594,-1.020813,0.03753662,-5.234375,3.828125,-1.21875
214,1697614525,-0.0026855469,-1.0628052,0.054382324,-8.84375,5.5625,-4.296875
215,1697614565,-0.021728516,-1.0205688,0.014587402,-11.125,-0.875,-11.578125
216,1697614605,-0.036621094,-0.9680786,0.035583496,-12.359375,2.0625,-13.734375
217,1697614645,-0.09741211,-0.96539307,0.0138549805,-10.71875,0.40625,-8.359375
218,1697614685,-0.04248047,-0.98931885,0.061462402,-6.5,-5.171875,-1.53125
219,1697614725,-0.06665039,-1.0005493,0.044128418,0.625,-4.453125,2.8125
220,1697614765,-0.076660156,-0.9768677,0.04534912,5.296875,-2.125,3.484375
221,1697614805,-0.06713867,-0.98565674,0.06097412,5.296875,-3.15625,5.046875
222,1697614845,-0.05883789,-0.99053955,0.09051514,5.421875,-2.609375,3.828125
223,1697614885,-0.038085938,-1.0125122,0.08074951,2.34375,-1.265625,2.5625
224,1697614925,-0.04711914,-1.0132446,0.0524292,1.59375,-1.46875,2.875
225,1697614965,-0.045898438,-1.0020142,0.06536865,1.9375,-0.421875,1.921875
226,1697615005,-0.040527344,-0.9949341,0.06048584,1.875,-0.46875,1.640625
227,1697615045,-0.049560547,-0.9939575,0.050476074,2.375,-1.515625,2.1875
228,1697615085,-0.021484375,-0.99420166,0.04852295,1.0625,0.515625,1.359375
229,1697615125,-0.049316406,-1.003479,0.04534912,1.015625,-0.84375,1.953125
230,1697615165,-0.03564453,-1.0056763,0.047302246,0.1875,0.96875,0.890625
231,1697615205,-0.048339844,-1.0005493,0.046813965,0.6875,0.078125,1.390625
232,1697615245,-0.036621094,-0.9993286,0.04559326,0.8125,0.375,0.65625
233,1697615285,-0.041015625,-0.98516846,0.055358887,1.0,0.953125,1.125
234,1697615325,-0.044189453,-1.0076294,0.03363037,0.484375,-0.96875,1.65625
235,1697615365,-0.029785156,-1.0007935,0.043640137,1.265625,-0.578125,1.421875
236,1697615405,-0.046142578,-1.0049438,0.057800293,0.3125,-0.875,1.453125
237,1697615445,-0.020263672,-0.9907837,0.032165527,0.546875,-0.21875,1.0
238,1697615485,-0.040771484,-0.99957275,0.053649902,1.40625,-0.078125,1.34375
239,1697615525,-0.04272461,-0.9985962,0.04949951,0.453125,-0.109375,1.234375
240,1697615565,-0.022460938,-1.0005493,0.04437256,0.890625,-0.3125,1.171875
241,1697615605,-0.044433594,-1.008606,0.043884277,0.859375,0.1875,1.46875
242,1697615645,-0.025146484,-0.9871216,0.030944824,0.90625,0.09375,1.0625
243,1697615685,-0.03540039,-0.991272,0.055603027,1.78125,-0.234375,1.546875
244,1697615725,-0.022460938,-0.9951782,0.019958496,1.078125,-0.140625,0.625
245,1697615765,-0.024169922,-1.0007935,0.034851074,1.109375,-0.171875,1.28125
246,1697615805,-0.029785156,-1.0054321,0.02947998,1.21875,0.6875,0.46875
247,1697615845,-0.037841797,-0.9968872,0.046813965,1.90625,-0.46875,1.171875
248,1697615885,-0.037109375,-1.0029907,0.04901123,2.015625,-0.46875,1.515625
249,1697615925,-0.03100586,-0.9927368,0.028015137,1.078125,0.140625,1.125
250,1697615965,-0.03149414,-0.9985962,0.038513184,1.015625,-0.234375,0.8125
251,1697616005,-0.031982422,-0.99957275,0.03338623,1.0,-0.578125,1.328125
252,1697616045,-0.028320312,-0.9985962,0.023864746,1.265625,-0.0625,1.109375
253,1697616085,-0.032470703,-1.0049438,0.028747559,0.9375,0.203125,0.90625
254,1697616125,-0.03125,-0.9932251,0.022888184,1.296875,-0.390625,1.421875
255,1697616165,-0.022949219,-1.0003052,0.026794434,1.234375,-0.375,0.90625
256,1697616205,-0.026367188,-0.9932251,0.026062012,0.8125,-0.609375,1.265625
257,1697616245,-0.022216797,-1.0010376,0.02166748,0.671875,-0.09375,0.890625
258,1697616285,-0.030761719,-0.9963989,0.008239746,0.625,-0.1875,1.03125
259,1697616325,-0.025146484,-0.99468994,0.02532959,1.078125,-0.28125,1.34375
260,1697616365,-0.03491211,-1.0073853,0.024597168,0.953125,-1.09375,1.34375
261,1697616405,-0.020019531,-0.99102783,0.035339355,1.296875,-0.671875,1.390625
262,1697616445,-0.03149414,-1.0059204,0.016052246,0.21875,0.03125,0.953125
263,1697616485,-0.01977539,-1.0010376,0.010925293,-0.140625,0.34375,0.9375
264,1697616525,-0.025390625,-0.99542236,0.030212402,0.828125,0.0,1.078125
265,1697616565,-0.021728516,-0.9973755,0.019714355,0.828125,0.359375,0.75
266,1697616605,-0.028808594,-0.9920044,0.022155762,0.09375,0.046875,0.984375
267,1697616645,-0.025390625,-0.9968872,0.018737793,0.5625,0.0625,1.0
268,1697616685,-0.02368164,-1.0049438,0.01727295,0.796875,-0.46875,1.140625
269,1697616725,-0.020996094,-0.9949341,0.016784668,0.546875,-0.171875,1.0625
270,1697616765,-0.03173828,-0.99468994,0.024353027,0.625,-0.671875,1.046875
271,1697616805,-0.020751953,-0.99176025,0.012145996,0.78125,-0.859375,1.515625
272,1697616845,-0.021240234,-1.000061,0.022155762,0.859375,-0.359375,1.125
273,1697616885,-0.014404297,-1.0012817,0.016540527,0.671875,0.125,1.5625
274,1697616925,-0.025390625,-0.9956665,0.01727295,1.015625,-0.1875,1.40625
275,1697616965,-0.0126953125,-0.9998169,0.008728027,1.25,0.015625,1.671875
276,1697617005,-0.016601562,-0.9973755,0.013122559,1.09375,0.25,1.1875
277,1697617045,-0.015136719,-0.99957275,0.018249512,1.125,-0.265625,1.484375
278,1697617085,-0.0034179688,-0.99591064,0.011657715,0.34375,-0.4375,0.5625
279,1697617125,-0.029052734,-0.9981079,0.015319824,0.46875,-0.46875,1.328125
280,1697617165,-0.008544922,-0.9998169,0.012390137,-0.015625,0.46875,0.90625
281,1697617205,-0.029296875,-1.0046997,0.0119018555,0.84375,-0.65625,0.9375
282,1697617245,-0.019042969,-0.9937134,0.00579834,1.09375,0.140625,1.4375
283,1697617285,-0.015625,-0.9932251,0.013122559,0.9375,-0.640625,1.171875
284,1697617325,-0.014404297,-1.000061,0.018005371,0.921875,0.234375,1.578125
285,1697617365,-0.01586914,-0.9920044,0.0028686523,1.203125,-0.28125,1.546875
286,1697617405,-0.001953125,-1.0037231,0.0018920898,1.296875,-0.15625,1.171875
287,1697617445,-0.016113281,-0.9963989,0.010437012,1.296875,0.359375,1.8125
288,1697617485,-0.01977539,-0.9944458,0.0018920898,0.96875,-0.28125,0.953125
289,1697617525,-0.0048828125,-0.9968872,0.016296387,0.859375,-0.109375,1.1875
290,1697617565,-0.02368164,-0.9956665,0.0060424805,0.421875,-0.328125,0.765625
291,1697617605,-0.0048828125,-0.9993286,0.0053100586,-0.03125,-0.078125,0.828125
292,1697617645,-0.015625,-0.99224854,0.00091552734,0.4375,-0.296875,0.921875
293,1697617685,-0.010009766,-0.99884033,-0.0051879883,0.09375,-0.09375,0.65625
294,1697617725,-0.008544922,-0.9927368,0.0067749023,0.65625,-0.796875,1.359375
295,1697617765,-0.0126953125,-1.0012817,-0.0010375977,0.265625,-0.375,1.359375
296,1697617805,-0.010986328,-0.99053955,0.025817871,1.140625,-0.765625,0.984375
297,1697617845,-0.012207031,-0.9961548,0.0021362305,0.234375,0.015625,0.953125
298,1697617885,-0.0087890625,-0.991272,-6.1035156e-05,-0.140625,0.359375,0.515625
299,1697617925,-0.015136719,-1.0037231,0.005065918,0.46875,-0.59375,1.125
300,1697617965,-0.010009766,-0.99420166,-0.0032348633,0.625,0.46875,1.0625
301,1697618005,-0.017333984,-0.9944458,0.0033569336,0.328125,-0.234375,0.796875
302,1697618045,-0.0063476562,-0.99786377,0.0119018555,0.296875,0.1875,1.28125
303,1697618085,-0.0078125,-0.9993286,-0.0020141602,0.609375,-0.546875,1.359375
304,1697618125,0.0,-1.00177,0.005554199,0.1875,-0.328125,0.875
305,1697618165,-0.01928711,-0.99835205,-0.002746582,0.375,-0.46875,1.234375
306,1697618205,-0.0048828125,-0.99420166,0.0014038086,0.4375,-0.953125,1.328125
307,1697618245,-0.0073242188,-0.9924927,0.009216309,0.0625,-0.609375,0.859375
308,1697618285,-0.0048828125,-0.99884033,0.009216309,0.359375,-0.59375,1.453125
309,1697618325,0.0063476562,-0.99664307,-0.0010375977,-0.03125,-0.09375,1.125
310,1697618365,-0.0017089844,-0.99835205,0.016784668,0.78125,0.984375,1.40625
311,1697618405,0.0036621094,-1.0022583,-0.00079345703,-0.453125,0.46875,0.3125
312,1697618445,-0.009765625,-0.9939575,0.06072998,-1.53125,1.453125,0.0625
313,1697618485,-0.015136719,-1.0510864,0.028747559,-6.109375,4.28125,-2.03125
314,1697618525,0.031982422,-1.0188599,0.02166748,-8.921875,1.625,-11.015625
315,1697618565,-0.08300781,-0.98516846,0.0004272461,-14.140625,1.15625,-14.984375
316,1697618605,-0.06225586,-0.93829346,0.0289917,-17.859375,-0.6875,-12.703125
317,1697618645,-0.044677734,-0.9998169,0.059509277,-5.78125,-3.90625,-2.4375
318,1697618685,-0.072509766,-0.99835205,0.04949951,-1.40625,-5.203125,0.84375
319,1697618725,-0.05810547,-0.9573364,0.05706787,1.9375,-3.34375,3.40625
320,1697618765,-0.076660156,-0.9866333,0.042663574,4.234375,-2.34375,3.4375
321,1697618805,-0.07055664,-1.0073853,0.10491943,4.625,-4.703125,3.34375
322,1697618845,-0.049804688,-1.0171509,0.06585693,2.671875,-1.296875,2.4375
323,1697618885,-0.052001953,-0.99786377,0.066345215,1.5625,-0.796875,1.40625
324,1697618925,-0.05834961,-1.0032349,0.06414795,1.875,-0.6875,1.8125
325,1697618965,-0.064208984,-1.0117798,0.05218506,1.328125,-0.5,2.28125
326,1697619005,-0.056152344,-0.99786377,0.049987793,1.203125,-0.296875,1.5625
327,1697619045,-0.05126953,-0.9973755,0.058288574,1.8125,-0.375,1.59375
328,1697619085,-0.044677734,-1.0046997,0.06976318,0.375,-0.5625,1.890625
329,1697619125,-0.04272461,-1.0037231,0.04168701,1.046875,0.53125,1.46875
330,1697619165,-0.052978516,-0.99664307,0.05609131,1.9375,-0.359375,1.5625
331,1697619205,-0.033935547,-0.99591064,0.046081543,0.984375,2.34375,0.546875
332,1697619245,-0.049804688,-0.9963989,0.06585693,0.875,0.265625,1.359375
333,1697619285,-0.03955078,-0.9956665,0.035583496,0.3125,0.984375,1.421875
334,1697619325,-0.045166016,-1.0042114,0.057556152,1.078125,0.296875,1.4375
335,1697619365,-0.052734375,-1.0059204,0.062194824,1.515625,-0.078125,1.4375
336,1697619405,-0.034179688,-0.9961548,0.047546387,0.9375,0.359375,1.265625
337,1697619445,-0.048339844,-0.9927368,0.04949951,0.828125,0.078125,1.109375
338,1697619485,-0.04321289,-1.0071411,0.04486084,1.125,-0.25,1.296875
339,1697619525,-0.037109375,-1.0037231,0.044128418,0.90625,-0.15625,1.21875
340,1697619565,-0.040283203,-1.0015259,0.042175293,0.484375,0.78125,1.140625
341,1697619605,-0.041503906,-0.99298096,0.04486084,0.78125,-0.296875,0.953125
342,1697619645,-0.032958984,-0.9976196,0.0524292,0.734375,0.3125,0.859375
343,1697619685,-0.041992188,-0.9920044,0.031188965,0.140625,-0.484375,1.609375
344,1697619725,-0.043701172,-0.99591064,0.053649902,0.96875,-0.453125,0.703125
345,1697619765,-0.0390625,-1.0056763,0.054382324,0.625,-0.46875,1.5625
346,1697619805,-0.03540039,-0.9985962,0.0446167,0.90625,-0.1875,1.359375
347,1697619845,-0.04248047,-0.99591064,0.044128418,0.453125,-0.265625,1.0
348,1697619885,-0.037597656,-1.0022583,0.02923584,0.078125,-0.9375,1.4375
349,1697619925,-0.037841797,-0.9898071,0.054138184,1.390625,-1.0625,1.265625
350,1697619965,-0.03173828,-1.0108032,0.022644043,0.015625,0.859375,1.03125
351,1697620005,-0.04296875,-0.9937134,0.036315918,0.40625,-0.15625,0.59375
352,1697620045,-0.046142578,-1.00177,0.04949951,1.21875,-0.234375,1.0
353,1697620085,-0.029785156,-0.986145,0.03729248,0.703125,0.1875,1.40625
354,1697620125,-0.032958984,-0.991272,0.04559326,0.96875,0.15625,0.96875
355,1697620165,-0.035888672,-0.99102783,0.040222168,1.5625,-0.609375,1.234375
356,1697620205,-0.033935547,-0.9961548,0.035583496,1.3125,-0.78125,1.5625
357,1697620245,-0.03930664,-0.99786377,0.041931152,0.609375,0.265625,1.109375
358,1697620285,-0.040527344,-1.0007935,0.04144287,1.109375,0.359375,1.390625
359,1697620325,-0.03125,-0.9993286,0.035339355,1.046875,-0.109375,1.609375
360,1697620365,-0.036621094,-1.0022583,0.034851074,1.140625,0.234375,0.90625
361,1697620405,-0.024169922,-0.99786377,0.036315918,0.671875,-0.046875,1.03125
362,1697620445,-0.037841797,-0.99664307,0.038024902,0.46875,0.0625,0.8125
363,1697620485,-0.026367188,-0.9973755,0.023620605,0.71875,-0.09375,1.1875
364,1697620525,-0.021240234,-0.9973755,0.028747559,0.59375,-0.140625,0.96875
365,1697620565,-0.0234375,-1.0015259,0.027282715,1.078125,-0.484375,0.984375
366,1697620605,-0.040283203,-1.0029907,0.02508545,-0.21875,-0.078125,0.96875
367,1697620645,-0.036621094,-0.9898071,0.046325684,0.453125,-0.484375,0.84375
368,1697620685,-0.028076172,-0.9976196,0.019714355,-0.171875,0.34375,0.96875
369,1697620725,-0.038330078,-1.0039673,0.031433105,0.34375,-0.109375,0.65625
370,1697620765,-0.03100586,-1.0049438,0.036071777,0.515625,-0.390625,1.0625
371,1697620805,-0.024658203,-0.9902954,0.031921387,0.6875,0.328125,1.3125
372,1697620845,-0.030273438,-0.99713135,0.031188965,0.140625,0.234375,1.234375
373,1697620885,-0.03173828,-0.99835205,0.026306152,0.5625,0.03125,1.140625
374,1697620925,-0.020507812,-1.0059204,0.024597168,0.84375,-0.375,1.390625
375,1697620965,-0.030273438,-1.0010376,0.029724121,0.875,-0.015625,1.0
376,1697621005,-0.025390625,-0.9956665,0.025817871,0.703125,-0.109375,0.984375
377,1697621045,-0.025146484,-1.0044556,0.030212402,0.484375,0.125,0.953125
378,1697621085,-0.026855469,-0.9951782,0.026550293,0.59375,-0.125,1.21875
379,1697621125,-0.02709961,-1.0005493,0.026062012,0.71875,-0.421875,0.96875
380,1697621165,-0.025878906,-0.99664307,0.025817871,0.796875,-0.21875,1.21875
381,1697621205,-0.029541016,-0.99786377,0.028259277,0.703125,-0.484375,1.359375
382,1697621245,-0.025878906,-0.9956665,0.031921387,0.515625,-0.203125,1.125
383,1697621285,-0.01928711,-1.0032349,0.02166748,0.25,0.375,0.90625
384,1697621325,-0.01928711,-0.9968872,0.019470215,0.4375,-0.265625,0.953125
385,1697621365,-0.03149414,-0.99786377,0.023864746,0.46875,0.3125,1.328125
386,1697621405,-0.033691406,-0.9968872,0.03656006,1.328125,-0.65625,1.671875
387,1697621445,-0.014404297,-0.9990845,0.012390137,0.6875,0.890625,0.890625
388,1697621485,-0.028076172,-1.00177,0.032165527,0.796875,0.125,0.96875
389,1697621525,-0.022705078,-0.9944458,0.016052246,0.921875,0.09375,1.109375
390,1697621565,-0.022705078,-0.991272,0.018493652,0.71875,-0.046875,0.984375
391,1697621605,-0.025878906,-1.0015259,0.018981934,1.359375,-0.265625,1.703125
392,1697621645,-0.016113281,-0.99468994,0.019470215,1.96875,0.28125,1.40625
393,1697621685,-0.020263672,-1.0049438,0.014099121,1.59375,-0.03125,1.65625
394,1697621725,-0.016113281,-0.99884033,0.0138549805,1.5,-0.09375,1.84375
395,1697621765,-0.016113281,-0.9990845,0.026794434,1.234375,0.078125,1.390625
396,1697621805,-0.010253906,-0.9981079,0.0016479492,0.46875,-1.078125,1.28125
397,1697621845,-0.020263672,-0.99713135,0.018493652,0.3125,-0.34375,1.0625
398,1697621885,-0.012939453,-1.0020142,0.012634277,0.28125,-0.328125,1.265625
399,1697621925,-0.0126953125,-0.99346924,0.016540527,0.34375,-0.34375,0.59375
400,1697621965,-0.012451172,-0.99835205,0.015808105,0.53125,0.4375,0.90625
401,1697622005,-0.018066406,-0.9956665,0.016784668,0.546875,-0.46875,1.265625
402,1697622045,-0.009765625,-1.0039673,0.008483887,0.609375,0.09375,0.734375
403,1697622085,-0.014892578,-1.00177,0.0048217773,0.84375,-0.359375,1.390625
404,1697622125,-0.0234375,-0.9902954,0.011413574,0.578125,-0.875,1.609375
405,1697622165,0.0021972656,-0.99957275,0.014343262,0.75,0.34375,0.953125
406,1697622205,-0.02709961,-1.0027466,-0.00030517578,0.125,-0.171875,1.25
407,1697622245,-0.0073242188,-0.99713135,0.014831543,-0.359375,0.375,0.15625
408,1697622285,-0.017578125,-1.0125122,0.034606934,-0.609375,-0.171875,0.296875
409,1697622325,-0.013671875,-0.99591064,0.020935059,-1.96875,0.46875,-0.28125
410,1697622365,0.0056152344,-1.0154419,0.053894043,-5.34375,4.828125,-1.859375
411,1697622405,-0.015625,-1.0466919,0.047790527,-6.65625,4.015625,-5.984375
412,1697622445,-0.017578125,-0.9837036,0.035827637,-10.359375,1.515625,-11.78125
413,1697622485,-0.08081055,-0.9697876,0.042663574,-9.703125,-2.34375,-9.078125
414,1697622525,-0.107421875,-0.98809814,0.04827881,-7.53125,-2.765625,-5.390625
415,1697622565,-0.046875,-1.0110474,0.08905029,-0.15625,-4.734375,-1.5625
416,1697622605,-0.08618164,-0.97442627,0.030700684,1.265625,-5.125,5.171875
417,1697622645,-0.06347656,-0.97491455,0.066101074,3.796875,-1.828125,2.734375
418,1697622685,-0.045166016,-1.0007935,0.04852295,4.234375,-1.703125,3.59375
419,1697622725,-0.059570312,-0.9937134,0.082458496,3.546875,-2.375,3.328125
420,1697622765,-0.03491211,-1.0066528,0.062683105,2.0,-0.578125,3.078125
421,1697622805,-0.05078125,-1.0076294,0.051696777,1.390625,-0.53125,2.546875
422,1697622845,-0.04711914,-1.0076294,0.04559326,2.640625,-0.125,1.734375
423,1697622885,-0.045410156,-0.9990845,0.06317139,2.546875,-0.96875,1.890625
424,1697622925,-0.03491211,-0.9981079,0.042663574,1.265625,-0.078125,1.5625
425,1697622965,-0.041503906,-0.9956665,0.05316162,1.46875,-1.5625,2.09375
426,1697623005,-0.041259766,-1.0046997,0.047302246,0.640625,1.0,1.109375
427,1697623045,-0.041259766,-1.005188,0.058044434,1.3125,0.234375,1.421875
428,1697623085,-0.045166016,-0.9951782,0.050476074,1.171875,-0.140625,1.125
429,1697623125,-0.036376953,-0.98931885,0.042419434,1.078125,0.015625,1.65625
430,1697623165,-0.044189453,-1.0012817,0.029968262,1.265625,0.015625,1.296875
431,1697623205,-0.04638672,-1.0093384,0.046081543,1.09375,-0.421875,1.390625
432,1697623245,-0.029296875,-1.008606,0.038269043,1.0,-0.09375,1.328125
433,1697623285,-0.03515625,-0.99224854,0.044128418,0.875,-0.25,1.25
434,1697623325,-0.037841797,-1.0125122,0.044128418,0.875,-0.484375,1.359375
435,1697623365,-0.028320312,-0.99713135,0.0368042,0.921875,-0.09375,1.09375
436,1697623405,-0.040771484,-1.0012817,0.043640137,0.515625,-0.96875,1.453125
437,1697623445,-0.033203125,-1.0022583,0.043640137,0.734375,-0.21875,1.21875
438,1697623485,-0.029785156,-1.0015259,0.026550293,0.953125,0.0,1.125
439,1697623525,-0.041015625,-1.00177,0.030700684,0.859375,0.4375,1.40625
440,1697623565,-0.026367188,-0.989563,0.027038574,0.921875,0.34375,1.40625
441,1697623605,-0.039794922,-0.9915161,0.053649902,1.609375,-0.015625,1.5625
442,1697623645,0.00024414062,-0.9990845,0.022644043,1.1875,0.84375,0.65625
443,1697623685,-0.04248047,-1.0027466,0.047302246,1.296875,-1.15625,1.703125
444,1697623725,-0.020019531,-1.003479,0.022888184,0.640625,0.515625,1.03125
445,1697623765,-0.025878906,-1.0015259,0.043884277,0.671875,-0.125,0.84375
446,1697623805,-0.034423828,-1.000061,0.030944824,1.03125,-0.140625,1.40625
447,1697623845,-0.029296875,-0.9927368,0.030944824,0.328125,0.203125,1.265625
448,1697623885,-0.024169922,-0.99664307,0.024597168,0.75,0.578125,1.09375
449,1697623925,-0.028564453,-0.9981079,0.015563965,1.21875,-0.140625,1.21875
450,1697623965,-0.017578125,-1.0003052,0.028503418,0.828125,-0.015625,1.0625
451,1697624005,-0.029052734,-0.9990845,0.029724121,0.703125,0.0625,0.921875
452,1697624045,-0.031982422,-0.99542236,0.023620605,0.90625,-0.65625,1.578125
453,1697624085,-0.01928711,-0.9998169,0.02508545,1.015625,-0.25,1.375
454,1697624125,-0.028808594,-0.99591064,0.024353027,0.59375,-0.28125,1.171875
455,1697624165,-0.021484375,-0.9963989,0.024353027,0.765625,-0.234375,1.671875
456,1697624205,-0.02368164,-1.0007935,0.027526855,1.03125,0.125,0.953125
457,1697624245,-0.022705078,-0.99835205,0.023376465,0.59375,-0.1875,1.234375
458,1697624285,-0.021728516,-0.99468994,0.02532959,0.8125,-0.09375,1.0625
459,1697624325,-0.020263672,-1.0010376,0.028015137,0.828125,0.1875,0.84375
460,1697624365,-0.028320312,-0.9973755,0.016052246,0.390625,0.015625,1.03125
461,1697624405,-0.03491211,-0.9976196,0.039245605,1.125,-0.59375,1.140625
462,1697624445,-0.0146484375,-0.9976196,-0.0012817383,-0.15625,0.4375,0.71875
463,1697624485,-0.02368164,-0.99957275,0.027770996,0.453125,-0.1875,0.71875
464,1697624525,-0.025390625,-1.00177,0.014831543,1.078125,0.46875,1.078125
465,1697624565,-0.020751953,-0.99005127,0.012634277,0.640625,-0.09375,1.328125
466,1697624605,-0.02319336,-0.9981079,0.026306152,0.453125,-0.484375,0.921875
467,1697624645,-0.016601562,-1.0005493,0.02508545,0.3125,-0.28125,0.828125
468,1697624685,-0.015380859,-1.0003052,0.022888184,0.734375,0.1875,1.390625
469,1697624725,-0.020507812,-1.0032349,0.016540527,0.375,0.1875,0.875
470,1697624765,-0.020263672,-0.9968872,0.019958496,0.609375,-0.03125,1.265625
471,1697624805,-0.015136719,-0.9985962,0.020446777,0.734375,-0.109375,1.109375
472,1697624845,-0.020751953,-0.9866333,0.019714355,0.59375,-0.515625,1.4375
473,1697624885,-0.0078125,-1.0044556,0.01776123,0.328125,-0.203125,1.046875
474,1697624925,-0.018554688,-0.9949341,0.015319824,0.359375,0.09375,1.125
475,1697624965,-0.01977539,-0.9981079,0.018249512,0.40625,-0.484375,0.96875
476,1697625005,-0.008544922,-0.99420166,0.016784668,0.703125,0.3125,1.171875
477,1697625045,-0.017333984,-0.9961548,0.010681152,0.765625,0.078125,1.59375
478,1697625085,-0.014892578,-0.9951782,0.0138549805,0.859375,-0.28125,1.375
479,1697625125,-0.017822266,-1.0012817,0.008728027,0.421875,0.390625,1.390625
480,1697625165,-0.013671875,-0.9976196,0.028503418,0.984375,-0.640625,0.96875
481,1697625205,-0.01171875,-0.9927368,0.0045776367,0.59375,0.46875,0.921875
482,1697625245,-0.015625,-1.0027466,0.018249512,0.65625,0.109375,0.875
483,1697625285,-0.020751953,-0.99835205,0.022399902,0.953125,0.390625,1.0
484,1697625325,-0.0068359375,-0.9837036,0.008239746,0.84375,-0.015625,1.6875
485,1697625365,-0.014404297,-0.9949341,0.010192871,0.703125,0.03125,0.578125
486,1697625405,-0.018310547,-0.9907837,0.014343262,0.78125,0.0,1.109375
487,1697625445,-0.014892578,-1.0005493,0.0014038086,0.875,-0.828125,1.21875
488,1697625485,-0.005126953,-1.0032349,0.0048217773,1.09375,0.3125,1.21875
489,1697625525,-0.020019531,-0.99664307,-0.0064086914,0.640625,-0.734375,1.953125
490,1697625565,0.0024414062,-0.9932251,0.008239746,1.15625,-0.5,1.25
491,1697625605,-0.0078125,-1.0032349,0.020935059,1.46875,0.109375,2.140625
492,1697625645,-0.012939453,-0.98687744,0.008483887,0.53125,0.15625,1.359375
493,1697625685,0.008300781,-1.0012817,0.0067749023,1.0625,0.78125,1.21875
494,1697625725,-0.0075683594,-0.99957275,-0.0010375977,1.484375,0.0625,1.375
495,1697625765,-0.001953125,-0.9963989,-0.00982666,0.859375,0.3125,1.328125
496,1697625805,0.00048828125,-0.9944458,-0.00030517578,0.765625,0.375,1.1875
497,1697625845,-0.004638672,-0.9902954,0.010925293,1.03125,-0.234375,0.953125
498,1697625885,0.010498047,-1.0029907,-0.023010254,0.3125,0.609375,0.5625
499,1697625925,-0.007080078,-0.9939575,-0.0025024414,0.734375,-0.15625,1.09375
500,1697625965,0.005126953,-0.9920044,-0.0115356445,0.140625,0.03125,0.484375
501,1697626005,-0.013427734,-0.9963989,0.016052246,-0.078125,-0.859375,0.984375
502,1697626045,-0.0021972656,-0.9998169,-0.00030517578,-0.453125,-0.140625,1.4375
503,1697626085,-0.0009765625,-0.9998169,-0.0020141602,-0.5625,-0.46875,0.828125
504,1697626125,-0.0053710938,-0.99786377,0.0028686523,-0.375,-0.296875,1.34375
505,1697626165,0.0073242188,-0.9963989,-0.0020141602,-0.390625,-0.28125,0.109375
506,1697626205,-0.006591797,-0.9990845,0.043395996,-0.796875,0.390625,-0.03125
507,1697626245,0.0048828125,-1.0300903,0.08050537,-5.453125,5.625,-1.53125
508,1697626285,0.0048828125,-1.0357056,0.0016479492,-7.484375,3.171875,-8.140625
509,1697626325,-0.026611328,-0.9673462,0.0021362305,-7.203125,0.296875,-11.609375
510,1697626365,-0.06738281,-0.94732666,0.018493652,-10.6875,-2.609375,-8.234375
511,1697626405,-0.012939453,-1.0073853,0.04168701,-9.03125,-5.9375,-2.203125
512,1697626445,-0.0715332,-1.0198364,0.048034668,2.921875,-4.078125,2.375
513,1697626485,-0.059570312,-0.9763794,0.021911621,3.578125,-3.203125,4.1875
514,1697626525,-0.0390625,-0.9841919,0.051940918,4.375,-0.78125,2.984375
515,1697626565,-0.052246094,-0.9968872,0.06439209,3.0625,-2.03125,3.703125
516,1697626605,-0.029785156,-0.99468994,0.04486084,2.109375,-1.34375,2.96875
517,1697626645,-0.029296875,-1.0042114,0.053894043,2.046875,-0.6875,2.125
518,1697626685,-0.025878906,-1.0112915,0.022888184,0.796875,0.8125,1.296875
519,1697626725,-0.033935547,-1.0042114,0.032409668,1.453125,0.859375,1.765625
520,1697626765,-0.031982422,-1.0005493,0.029724121,1.515625,-0.828125,1.328125
521,1697626805,-0.02319336,-0.98809814,0.042907715,1.03125,-1.03125,1.6875
522,1697626845,-0.033691406,-0.98638916,0.04119873,0.703125,-0.015625,1.71875
523,1697626885,-0.030273438,-1.0003052,0.02166748,0.625,-0.265625,1.1875
524,1697626925,-0.035888672,-1.0071411,0.038269043,0.65625,-0.640625,1.546875
525,1697626965,-0.028564453,-0.9949341,0.026550293,0.6875,0.25,1.40625
526,1697627005,-0.028808594,-0.9885864,0.030944824,1.203125,-0.125,1.4375
527,1697627045,-0.030517578,-1.0061646,0.031433105,1.1875,-0.09375,1.453125
528,1697627085,-0.016845703,-0.99420166,0.031433105,0.96875,-0.125,1.359375
529,1697627125,-0.022949219,-1.0010376,0.038024902,0.953125,-0.09375,1.21875
530,1697627165,-0.026367188,-0.9968872,0.02923584,0.671875,-0.21875,1.40625
531,1697627205,-0.020996094,-1.0005493,0.01361084,1.296875,-0.03125,0.984375
532,1697627245,-0.024658203,-0.9939575,0.036315918,1.296875,-0.78125,1.421875
533,1697627285,-0.024902344,-0.9898071,0.032165527,0.90625,-0.734375,1.5
534,1697627325,-0.0017089844,-0.9985962,0.003112793,0.71875,1.328125,0.421875
535,1697627365,-0.029785156,-1.0037231,0.018981934,1.328125,-0.5625,1.40625
536,1697627405,-0.0075683594,-1.0005493,0.010192871,0.546875,1.25,0.1875
537,1697627445,-0.026123047,-1.0003052,0.034851074,0.625,-0.203125,1.125
538,1697627485,-0.015136719,-0.9924927,0.016784668,0.9375,-0.390625,0.890625
539,1697627525,-0.016113281,-0.9981079,0.028015137,0.296875,0.375,0.734375
540,1697627565,-0.030517578,-0.99298096,0.024597168,0.21875,-0.265625,1.0
541,1697627605,-0.0146484375,-1.006897,0.012390137,0.34375,-0.546875,1.296875
542,1697627645,-0.0126953125,-0.99835205,0.031433105,0.84375,-0.28125,0.921875
543,1697627685,-0.010986328,-0.9951782,0.015319824,1.0,-0.15625,1.453125
544,1697627725,-0.018798828,-0.99786377,0.027526855,1.140625,-0.328125,0.953125
545,1697627765,-0.023925781,-0.9976196,0.014343262,0.40625,-0.265625,1.296875
546,1697627805,-0.018066406,-0.9927368,0.022399902,0.3125,-0.03125,1.0
547,1697627845,-0.017578125,-1.0042114,0.026550293,0.625,-0.03125,0.859375
548,1697627885,-0.01171875,-0.9939575,0.02142334,0.765625,-0.1875,1.171875
549,1697627925,-0.017578125,-0.9973755,0.0033569336,1.03125,0.5625,1.046875
550,1697627965,-0.021728516,-0.99542236,0.008728027,0.796875,-0.359375,1.15625
551,1697628005,-0.026123047,-0.9961548,0.001159668,0.265625,-0.984375,1.734375
552,1697628045,-0.009033203,-0.98931885,0.03729248,0.609375,-0.28125,1.015625
553,1697628085,-0.016845703,-1.0005493,0.014343262,0.5,0.0625,1.875
554,1697628125,-0.014892578,-0.9924927,0.01361084,0.234375,0.71875,0.578125
555,1697628165,-0.01977539,-1.0042114,0.020202637,0.53125,-0.1875,1.203125
556,1697628205,-0.010498047,-0.9924927,0.016784668,-0.109375,-0.25,0.90625
557,1697628245,-0.0073242188,-0.9924927,0.014587402,0.0,0.15625,1.015625
558,1697628285,-0.01953125,-1.0042114,0.0138549805,0.671875,-0.28125,1.015625
559,1697628325,-0.015136719,-0.99713135,0.017028809,1.109375,0.078125,0.859375
560,1697628365,-0.014160156,-0.9932251,0.004333496,0.796875,0.265625,0.875
561,1697628405,-0.021972656,-0.99786377,0.02508545,0.71875,-0.453125,0.609375
562,1697628445,-0.011962891,-0.99786377,0.015319824,0.46875,0.046875,0.984375
563,1697628485,-0.018310547,-0.9902954,0.016296387,0.015625,-0.546875,1.1875
564,1697628525,-0.010253906,-1.0032349,0.013122559,0.15625,-0.265625,0.71875
565,1697628565,-0.01586914,-0.9951782,0.010437012,0.65625,-0.21875,1.359375
566,1697628605,-0.01171875,-0.99786377,0.0038452148,0.5625,-0.5625,1.53125
567,1697628645,-0.005126953,-1.0029907,0.0138549805,-0.015625,-0.546875,0.875
568,1697628685,-0.0048828125,-1.0042114,0.012634277,0.34375,-0.671875,0.921875
569,1697628725,-0.009033203,-0.9990845,0.014831543,0.9375,-0.859375,0.65625
570,1697628765,0.0029296875,-0.9883423,0.008483887,0.78125,-0.671875,1.171875
571,1697628805,-0.01953125,-1.0003052,0.01361084,0.109375,-0.71875,0.703125
572,1697628845,-0.012939453,-0.9956665,0.017028809,0.046875,0.84375,0.640625
573,1697628885,-0.024414062,-0.99835205,0.01727295,0.5625,0.40625,0.71875
574,1697628925,-0.0009765625,-0.99957275,0.007019043,1.03125,0.796875,1.15625
575,1697628965,-0.014160156,-1.0029907,0.007019043,0.46875,0.890625,1.171875
576,1697629005,-0.008544922,-0.9968872,-0.00079345703,0.71875,-0.46875,0.859375
577,1697629045,-0.0034179688,-0.9993286,0.0138549805,0.25,-0.21875,0.890625
578,1697629085,-0.0048828125,-0.98931885,0.00018310547,0.296875,-0.75,1.359375
579,1697629125,-0.011474609,-1.0012817,0.012390137,0.53125,-0.71875,1.078125
580,1697629165,-0.0036621094,-0.9976196,0.0138549805,0.078125,-0.359375,1.125
581,1697629205,-0.01928711,-0.99346924,0.010681152,0.3125,-0.5,1.390625
582,1697629245,-0.001953125,-0.9973755,0.0099487305,0.390625,-0.234375,1.03125
583,1697629285,-0.009033203,-1.0005493,0.007751465,0.609375,0.453125,1.109375
584,1697629325,-0.009033203,-0.9961548,0.010192871,0.28125,0.1875,0.90625
585,1697629365,-0.011474609,-0.9939575,-0.0005493164,0.484375,0.171875,0.9375
586,1697629405,-0.010009766,-0.99298096,0.0048217773,-0.046875,-0.484375,1.25
587,1697629445,-0.00390625,-0.9998169,0.0048217773,-0.203125,-1.375,0.984375
588,1697629485,-0.013671875,-0.99176025,0.012390137,-1.109375,-1.828125,0.875
589,1697629525,0.0,-1.0064087,0.032409668,-0.28125,-1.6875,0.84375
590,1697629565,-0.0007324219,-0.9981079,0.012390137,-0.640625,-0.125,1.25
591,1697629605,-0.0029296875,-0.9939575,0.010681152,0.046875,0.234375,0.234375
592,1697629645,-0.004638672,-1.0130005,0.015075684,0.203125,0.34375,0.828125
593,1697629685,-0.0024414062,-0.98883057,0.011413574,0.21875,0.921875,1.296875
594,1697629725,-0.011230469,-0.9924927,0.018493652,-0.09375,-0.703125,0.34375
595,1697629765,0.0021972656,-1.0005493,0.01727295,0.40625,0.078125,0.984375
596,1697629805,-0.0031738281,-0.9907837,0.016784668,0.671875,-0.421875,0.984375
597,1697629845,-0.001953125,-1.0005493,0.008728027,0.65625,-0.015625,0.8125
598,1697629885,-0.0078125,-0.986145,0.015319824,-0.171875,-0.671875,0.671875
599,1697629925,-0.011474609,-0.99102783,0.023376465,0.03125,-1.140625,1.078125
600,1697629965,-0.013427734,-1.010315,0.023620605,-0.515625,-1.265625,0.8125
601,1697630005,0.0063476562,-0.9973755,0.022888184,-0.359375,-0.0625,0.796875
602,1697630045,-0.010986328,-0.99957275,0.02142334,0.15625,-0.203125,0.484375
603,1697630085,-0.0009765625,-0.99835205,0.014343262,0.28125,0.234375,0.484375
604,1697630125,-0.00390625,-0.9998169,0.034606934,0.40625,0.71875,0.15625
605,1697630165,-0.007080078,-1.0056763,0.051940918,0.140625,2.875,-0.6875
606,1697630205,-0.031982422,-1.0386353,0.03753662,-0.8125,2.125,-2.125
607,1697630245,0.012451172,-0.97735596,0.014831543,-0.75,2.03125,-5.4375
608,1697630285,-0.0068359375,-0.95269775,0.0099487305,-4.28125,2.203125,-4.59375
609,1697630325,-0.07299805,-0.99346924,-0.0068969727,-6.046875,-2.421875,-1.640625
610,1697630365,0.009521484,-1.0171509,-0.005432129,-1.453125,-3.359375,0.765625
611,1697630405,-0.06738281,-0.9956665,0.03729248,0.96875,-3.890625,1.609375
612,1697630445,-0.02319336,-0.97857666,0.018737793,1.15625,-1.84375,1.6875
613,1697630485,-0.01586914,-0.9746704,0.030944824,1.15625,-0.796875,1.421875
614,1697630525,-0.05078125,-0.99346924,0.04876709,2.0,-2.625,1.984375
615,1697630565,-0.025390625,-0.9956665,0.035827637,0.84375,-2.203125,1.421875
616,1697630605,-0.022460938,-1.0178833,0.039978027,0.9375,-1.15625,1.8125
617,1697630645,-0.032714844,-0.99420166,0.02923584,1.578125,-0.921875,1.421875
618,1697630685,-0.018798828,-0.9944458,0.024353027,1.265625,-0.671875,1.171875
619,1697630725,-0.016601562,-0.9998169,0.027038574,0.734375,-0.828125,1.359375
620,1697630765,-0.012939453,-1.0027466,0.031433105,0.171875,-1.3125,1.28125
621,1697630805,-0.029296875,-0.9939575,0.032409668,0.421875,-0.015625,0.875
622,1697630845,-0.0107421875,-1.008606,0.024597168,0.578125,-0.0625,1.21875
623,1697630885,-0.026367188,-0.9956665,0.035339355,1.046875,0.21875,1.15625
624,1697630925,-0.026123047,-1.0061646,0.026062012,1.171875,0.5625,1.1875
625,1697630965,-0.025634766,-0.987854,0.03778076,1.09375,-0.53125,1.265625
626,1697631005,-0.011962891,-1.005188,0.007019043,0.625,0.28125,1.125
627,1697631045,-0.010498047,-1.0105591,0.018737793,1.1875,0.625,1.15625
628,1697631085,-0.017822266,-0.9898071,0.011413574,0.3125,0.75,0.5625
629,1697631125,-0.020751953,-1.0059204,0.027526855,1.046875,0.1875,1.109375
630,1697631165,-0.024658203,-0.9961548,0.027526855,0.828125,-0.09375,0.953125
631,1697631205,-0.0056152344,-0.99346924,0.020690918,0.625,-0.125,1.40625
632,1697631245,-0.01953125,-1.0054321,0.011169434,0.25,-0.171875,0.734375
633,1697631285,-0.012207031,-0.98931885,0.01776123,0.5625,0.203125,0.53125
634,1697631325,-0.016845703,-1.003479,0.030212402,0.90625,-0.609375,0.875
635,1697631365,-0.009277344,-0.99176025,0.011413574,0.5625,0.171875,0.875
636,1697631405,-0.024414062,-0.9976196,0.020202637,0.75,-0.53125,1.171875
637,1697631445,-0.0126953125,-1.0049438,0.026062012,0.421875,-0.09375,0.640625
638,1697631485,-0.024902344,-1.0010376,0.022155762,0.296875,0.40625,0.953125
639,1697631525,-0.014160156,-0.99005127,0.020446777,0.40625,0.1875,1.203125
640,1697631565,-0.022705078,-1.0120239,0.024353027,0.96875,-0.4375,1.1875
641,1697631605,-0.011474609,-0.99786377,0.022399902,0.578125,-0.21875,1.1875
642,1697631645,-0.020263672,-0.99542236,0.021911621,1.21875,0.40625,1.34375
643,1697631685,-0.017333984,-0.99298096,0.020446777,0.46875,-0.296875,1.03125
644,1697631725,-0.008544922,-0.99102783,0.019470215,1.015625,0.078125,1.0625
645,1697631765,-0.005126953,-1.0090942,0.007751465,0.4375,0.765625,0.390625
646,1697631805,-0.011962891,-0.9963989,0.014831543,0.8125,0.03125,1.234375
647,1697631845,-0.001953125,-0.9976196,-0.00592041,-0.125,0.671875,0.671875
648,1697631885,-0.013183594,-0.9985962,0.020690918,-0.09375,-0.1875,0.53125
649,1697631925,-0.020751953,-1.0046997,0.022155762,0.03125,0.015625,1.171875
650,1697631965,-0.005126953,-0.98638916,0.01776123,-0.03125,0.03125,1.203125
651,1697632005,-0.0068359375,-1.0098267,0.015808105,0.34375,0.515625,1.265625
652,1697632045,-0.012939453,-0.9883423,0.01361084,0.90625,0.296875,1.25
653,1697632085,-0.010253906,-1.0078735,0.008728027,-0.0625,-0.296875,1.078125
654,1697632125,-0.010009766,-0.9902954,0.022644043,0.578125,0.546875,1.171875
655,1697632165,-0.012207031,-0.9956665,0.011413574,0.703125,0.03125,1.015625
656,1697632205,-0.010253906,-1.0044556,0.019470215,0.578125,-0.03125,1.109375
657,1697632245,-0.016601562,-0.9990845,0.020690918,0.46875,0.03125,0.90625
658,1697632285,-0.0087890625,-0.99786377,0.019958496,0.25,-0.484375,0.96875
659,1697632325,-0.0073242188,-0.9956665,0.01751709,0.515625,0.1875,0.875
660,1697632365,-0.015136719,-0.99542236,0.016540527,0.625,-0.5625,0.796875
661,1697632405,-0.011474609,-1.0005493,0.018493652,0.53125,0.171875,0.96875
662,1697632445,-0.008056641,-0.98931885,0.013366699,0.765625,-0.375,1.15625
663,1697632485,-0.014404297,-0.9990845,0.023620605,0.25,-0.71875,0.890625
664,1697632525,-0.0031738281,-1.005188,0.018737793,0.34375,0.3125,1.171875
665,1697632565,-0.021972656,-0.98687744,0.035339355,1.0,-1.078125,0.9375
666,1697632605,-0.005859375,-0.99835205,0.004333496,-0.046875,0.265625,0.953125
667,1697632645,-0.010253906,-0.99713135,0.010925293,0.890625,-0.15625,1.0
668,1697632685,-0.017333984,-1.0025024,0.015319824,0.5625,-0.25,0.765625
669,1697632725,0.00024414062,-0.99298096,0.007507324,0.359375,-0.125,1.140625
670,1697632765,-0.015625,-0.9949341,0.008239746,0.453125,-0.0625,0.46875
671,1697632805,-0.010498047,-0.99884033,0.008972168,0.359375,0.078125,1.03125
672,1697632845,-0.009033203,-0.99957275,0.0018920898,0.625,-0.546875,0.984375
673,1697632885,-0.018066406,-0.99957275,0.008483887,0.125,-0.328125,1.296875
674,1697632925,-0.007080078,-0.99298096,0.018249512,0.109375,-0.375,1.109375
675,1697632965,-0.0026855469,-1.003479,0.008972168,-0.09375,-0.0625,1.203125
676,1697633005,-0.013183594,-0.99468994,0.016296387,0.03125,-0.171875,1.0
677,1697633045,-0.001953125,-0.9920044,0.009460449,0.0,-0.34375,0.984375
678,1697633085,-0.0036621094,-1.003479,0.022399902,0.359375,0.0625,1.359375
679,1697633125,-0.0126953125,-0.9907837,0.010681152,0.46875,-0.421875,0.84375
680,1697633165,0.0,-0.99884033,0.009216309,0.46875,-0.0625,0.953125
681,1697633205,-0.0031738281,-0.9998169,0.007019043,0.546875,0.265625,1.09375
682,1697633245,-0.0063476562,-0.9961548,0.009460449,0.859375,0.125,1.09375
683,1697633285,-0.01171875,-0.99468994,0.00970459,0.625,0.140625,1.34375
684,1697633325,0.0068359375,-1.0090942,-0.006164551,0.46875,-0.015625,0.8125
685,1697633365,-0.008300781,-0.9924927,0.012390137,0.09375,-0.640625,1.375
686,1697633405,0.0034179688,-1.0044556,0.005554199,-0.078125,-0.375,1.046875
687,1697633445,-0.0036621094,-0.9968872,0.016540527,0.390625,-0.5625,1.4375
688,1697633485,-0.009765625,-1.0042114,0.013122559,0.203125,0.015625,0.96875
689,1697633525,0.010986328,-0.9885864,0.016296387,0.609375,0.0625,1.375
690,1697633565,-0.016845703,-0.9920044,0.01361084,0.09375,-0.84375,0.96875
691,1697633605,0.0009765625,-0.9927368,0.015808105,0.78125,0.46875,1.015625
692,1697633645,-0.0034179688,-0.9937134,0.016784668,0.4375,-0.078125,1.1875
693,1697633685,0.00048828125,-1.000061,0.015808105,0.671875,0.578125,1.015625
694,1697633725,0.0017089844,-0.99005127,0.026550293,0.609375,-0.65625,1.25
695,1697633765,0.011474609,-0.9976196,0.0026245117,1.9375,-0.75,1.8125
696,1697633805,-0.0056152344,-0.9885864,0.020446777,0.921875,-1.0625,1.25
697,1697633845,-0.0043945312,-1.0007935,0.023376465,0.25,-0.859375,1.0625
698,1697633885,0.010498047,-0.9963989,0.0079956055,0.296875,0.46875,0.875
699,1697633925,-0.0043945312,-0.99053955,0.016296387,0.171875,-0.421875,0.59375
700,1697633965,0.012939453,-0.99884033,0.00970459,-0.953125,0.625,0.109375
701,1697634005,-0.0041503906,-0.99468994,0.029968262,-0.203125,0.625,-0.140625
702,1697634045,0.0021972656,-1.0293579,0.062927246,-1.734375,3.484375,-2.921875
703,1697634085,-0.013427734,-0.9944458,0.022399902,-2.734375,2.140625,-3.078125
704,1697634125,0.03466797,-0.96099854,-0.004211426,-3.5,0.046875,-3.53125
705,1697634165,-0.009033203,-0.9990845,0.02947998,-7.25,-4.046875,-5.453125
706,1697634205,-0.099853516,-1.0144653,0.01361084,-5.171875,-3.90625,-5.75
707,1697634245,0.025878906,-0.94195557,0.027038574,-2.984375,-2.046875,3.0
708,1697634285,-0.083496094,-1.020813,0.028503418,2.421875,-2.3125,0.6875
709,1697634325,0.0014648438,-0.97052,0.01727295,0.703125,-0.59375,3.109375
710,1697634365,-0.03857422,-1.0032349,0.051452637,0.953125,-1.453125,1.953125
711,1697634405,-0.025390625,-0.987854,0.04852295,1.109375,-0.859375,2.375
712,1697634445,-0.021972656,-0.9998169,0.030944824,1.5625,-0.25,2.40625
713,1697634485,-0.01953125,-1.0054321,0.047546387,1.328125,-0.3125,1.21875
714,1697634525,-0.014404297,-1.006897,0.03289795,1.375,-0.140625,1.375
715,1697634565,-0.028808594,-0.99224854,0.029724121,1.6875,-1.21875,1.15625
716,1697634605,-0.0078125,-0.9939575,0.04119873,1.75,-0.953125,1.40625
717,1697634645,-0.021240234,-0.9932251,0.02532959,1.265625,-0.765625,1.34375
718,1697634685,-0.0126953125,-0.9944458,0.0446167,0.671875,-0.640625,0.75
719,1697634725,-0.02758789,-1.0020142,0.027526855,0.890625,0.0,1.0
720,1697634765,-0.01977539,-0.9902954,0.026550293,1.015625,-0.1875,0.796875
721,1697634805,-0.021972656,-0.9924927,0.03363037,0.84375,0.09375,0.921875
722,1697634845,-0.018310547,-0.9993286,0.019470215,0.96875,0.78125,0.71875
723,1697634885,-0.0234375,-1.005188,0.027526855,1.296875,0.109375,1.046875
724,1697634925,-0.0078125,-0.99346924,0.0099487305,0.328125,0.765625,0.734375
725,1697634965,-0.01928711,-1.0044556,0.034851074,0.71875,-0.234375,1.015625
726,1697635005,-0.020019531,-0.9993286,0.024597168,0.96875,0.125,1.015625
727,1697635045,-0.01953125,-0.9932251,0.017028809,0.734375,-0.203125,1.375
728,1697635085,-0.0146484375,-1.0005493,0.024108887,0.265625,0.28125,0.53125
729,1697635125,-0.016113281,-0.99542236,0.010681152,0.84375,0.5,1.3125
730,1697635165,-0.013183594,-0.99884033,0.013366699,0.8125,0.234375,0.921875
731,1697635205,-0.010498047,-0.9885864,0.028503418,0.890625,0.671875,1.0
732,1697635245,-0.016845703,-0.9998169,0.02947998,0.8125,-0.25,0.90625
733,1697635285,-0.008300781,-0.99176025,0.015563965,0.5625,0.375,0.96875
734,1697635325,-0.025878906,-0.9981079,0.024108887,-0.046875,-0.578125,1.515625
735,1697635365,-0.009765625,-1.0029907,0.020690918,0.09375,-0.5625,1.0625
736,1697635405,-0.005859375,-0.99468994,0.019714355,0.171875,-0.140625,1.109375
737,1697635445,-0.022705078,-0.9968872,0.026794434,0.9375,-0.53125,1.0625
738,1697635485,-0.0012207031,-0.9927368,0.020446777,1.078125,0.34375,1.296875
739,1697635525,-0.0043945312,-0.9951782,0.018005371,1.28125,-0.046875,0.859375
740,1697635565,-0.01586914,-1.0046997,0.016784668,0.453125,-0.328125,1.140625
741,1697635605,-0.010498047,-0.98565674,0.031921387,1.3125,-0.8125,1.28125
742,1697635645,0.0,-1.0044556,0.011169434,0.3125,0.203125,0.71875
743,1697635685,-0.018310547,-0.99468994,0.014831543,0.125,-0.328125,0.71875
744,1697635725,-0.009277344,-1.0056763,0.018737793,-0.046875,-0.859375,0.71875
745,1697635765,-0.008544922,-0.9915161,0.013122559,-0.59375,0.15625,1.15625
746,1697635805,-0.013671875,-0.99468994,0.025817871,-0.265625,-0.140625,0.359375
747,1697635845,-0.017089844,-0.989563,0.022644043,0.421875,-0.53125,0.953125
748,1697635885,-0.012939453,-0.9961548,0.018493652,1.28125,-0.28125,1.3125
749,1697635925,-0.008544922,-0.99957275,0.023376465,1.234375,-0.09375,1.25
750,1697635965,-0.0087890625,-0.9981079,0.01727295,0.890625,0.171875,0.890625
751,1697636005,-0.0107421875,-0.9981079,0.02166748,1.0625,-0.046875,1.203125
752,1697636045,-0.012939453,-0.99713135,0.01776123,0.890625,-0.203125,0.890625
753,1697636085,-0.0063476562,-1.0007935,0.015075684,0.375,0.03125,1.078125
754,1697636125,-0.010498047,-0.9993286,0.018249512,0.703125,-0.125,0.96875
755,1697636165,-0.0014648438,-1.0027466,0.0099487305,0.734375,-0.125,1.03125
756,1697636205,-0.020751953,-0.987854,0.015319824,1.140625,-0.234375,1.65625
757,1697636245,-0.0075683594,-0.99298096,0.007507324,1.125,-0.203125,1.578125
758,1697636285,-0.0041503906,-1.00177,0.018737793,0.640625,0.375,1.3125
759,1697636325,-0.0048828125,-0.9993286,0.01776123,0.265625,0.25,1.171875
