timestamp,accel_x,accel_y,accel_z,gyro_x,gyro_y,gyro_z
1695395390983,-0.39013672,-0.9265747,0.18865967,-3.375,-4.578125,5.375
1695395391023,-0.38427734,-0.93048096,0.1786499,-4.265625,-5.859375,6.234375
1695395391063,-0.39331055,-0.9312134,0.18572998,-4.578125,-6.96875,6.546875
1695395391103,-0.38867188,-0.9014282,0.19647217,-4.046875,-7.234375,5.84375
1695395391143,-0.3876953,-0.92022705,0.20916748,-3.015625,-4.9375,5.796875
1695395391183,-0.3527832,-0.91656494,0.20281982,-4.046875,-4.765625,4.5625
1695395391223,-0.3166504,-0.8826294,0.21087646,-3.734375,-7.96875,3.75
1695395391263,-0.3293457,-0.91119385,0.23773193,-3.265625,-7.59375,2.671875
1695395391303,-0.38183594,-0.96173096,0.24041748,-4.390625,-6.1875,0.859375
1695395391343,-0.40429688,-0.9817505,0.26531982,-4.5625,-3.71875,-1.703125
1695395391383,-0.40649414,-0.958313,0.25335693,-4.21875,-2.984375,-2.484375
1695395391423,-0.3935547,-0.93048096,0.24578857,-3.328125,-0.46875,-2.265625
1695395391463,-0.36572266,-0.9138794,0.26507568,-3.0,1.296875,-2.03125
1695395391503,-0.35107422,-0.92193604,0.24456787,-3.078125,1.875,-1.6875
1695395391543,-0.3449707,-0.92510986,0.25457764,-2.015625,3.65625,-1.140625
1695395391583,-0.34033203,-0.9356079,0.24945068,-1.78125,3.9375,-0.203125
1695395391623,-0.35009766,-0.93218994,0.2531128,-1.640625,3.0625,-0.296875
1695395391663,-0.36547852,-0.94000244,0.25506592,-2.703125,3.28125,-1.140625
1695395391703,-0.39868164,-0.95684814,0.28216553,-3.8125,2.09375,-3.03125
1695395391743,-0.40698242,-0.94488525,0.27264404,-6.453125,1.03125,-4.734375
1695395391783,-0.39453125,-0.89727783,0.23968506,-5.421875,-0.234375,-5.21875
1695395391823,-0.390625,-0.8652954,0.23358154,-3.84375,0.375,-4.578125
1695395391863,-0.37670898,-0.8579712,0.21307373,-3.234375,-1.125,-3.59375
1695395391903,-0.37963867,-0.8530884,0.22137451,-1.28125,-1.296875,-3.703125
1695395391943,-0.40112305,-0.8682251,0.22698975,-1.8125,-2.515625,-2.640625
1695395391983,-0.42333984,-0.89312744,0.24212646,-0.984375,-3.4375,-1.640625
1695395392023,-0.4399414,-0.9014282,0.2658081,0.15625,-4.015625,-1.34375
1695395392063,-0.4580078,-0.9126587,0.24505615,-1.34375,-5.8125,-0.9375
1695395392103,-0.44018555,-0.90093994,0.22601318,-2.390625,-7.703125,-1.1875
1695395392143,-0.44262695,-0.8821411,0.2033081,-0.578125,-8.40625,-0.3125
1695395392183,-0.43481445,-0.8530884,0.21746826,1.046875,-6.71875,0.21875
1695395392223,-0.4658203,-0.86846924,0.2140503,2.453125,-6.203125,0.203125
1695395392263,-0.48510742,-0.8916626,0.23040771,2.46875,-4.84375,-0.796875
1695395392303,-0.5180664,-0.90997314,0.24822998,0.34375,-3.203125,-2.078125
1695395392343,-0.53759766,-0.9053345,0.25531006,-1.09375,-1.453125,-3.53125
1695395392383,-0.5185547,-0.8633423,0.24578857,-2.859375,-0.515625,-4.890625
1695395392423,-0.48388672,-0.85406494,0.17376709,-3.625,0.9375,-4.875
1695395392463,-0.46411133,-0.87994385,0.19354248,-3.078125,0.171875,-3.03125
1695395392503,-0.47973633,-0.91973877,0.16229248,-1.9375,-2.625,-1.40625
1695395392543,-0.4790039,-0.8674927,0.14984131,-1.90625,-3.890625,0.09375
1695395392583,-0.5004883,-0.85357666,0.19793701,1.15625,-3.59375,0.203125
1695395392623,-0.5024414,-0.84088135,0.22113037,-0.875,-2.90625,-0.703125
1695395392663,-0.51708984,-0.86505127,0.23382568,-0.953125,-0.65625,-1.40625
1695395392703,-0.52124023,-0.88848877,0.22943115,-2.15625,-0.375,-0.4375
1695395392743,-0.52246094,-0.87994385,0.22259521,-2.296875,-0.84375,0.640625
1695395392783,-0.5029297,-0.862854,0.20770264,-1.953125,0.1875,1.328125
1695395392823,-0.5036621,-0.8604126,0.21209717,-1.125,-0.015625,1.953125
1695395392863,-0.501709,-0.85772705,0.20916748,-0.1875,-1.296875,1.796875
1695395392903,-0.4946289,-0.85772705,0.20794678,0.109375,-0.609375,1.5
1695395392943,-0.51586914,-0.8796997,0.22650146,-0.0625,-0.671875,1.140625
1695395392983,-0.49682617,-0.8796997,0.19866943,-1.125,-0.140625,1.390625
1695395393023,-0.48168945,-0.8674927,0.19622803,0.046875,-0.75,2.0625
1695395393063,-0.47509766,-0.8765259,0.19110107,1.84375,-1.34375,2.765625
1695395393103,-0.48413086,-0.8831177,0.21063232,3.5625,-0.765625,3.40625
1695395393143,-0.48583984,-0.8892212,0.22796631,3.359375,-0.09375,3.453125
1695395393183,-0.48999023,-0.8911743,0.21551514,1.015625,-0.359375,2.359375
1695395393223,-0.49047852,-0.8845825,0.20379639,-0.234375,-0.203125,1.125
1695395393263,-0.49145508,-0.86383057,0.19818115,-1.15625,-0.90625,0.390625
1695395393303,-0.4868164,-0.87091064,0.20574951,-0.703125,0.171875,-0.109375
1695395393343,-0.47460938,-0.86383057,0.21429443,-0.5625,1.5625,-0.21875
1695395393383,-0.45532227,-0.88653564,0.18939209,-1.140625,2.328125,0.375
1695395393423,-0.45458984,-0.93585205,0.15570068,-0.359375,0.75,1.09375
1695395393463,-0.41723633,-0.9258423,0.14471436,0.6875,-1.453125,2.859375
1695395393503,-0.44189453,-0.8670044,0.20159912,2.578125,-2.359375,3.953125
1695395393543,-0.4699707,-0.8623657,0.20672607,0.84375,-1.4375,2.28125
1695395393583,-0.48754883,-0.91485596,0.21990967,-1.203125,-0.671875,-0.046875
1695395393623,-0.49926758,-0.9036255,0.21478271,-3.53125,-0.203125,-1.34375
1695395393663,-0.50146484,-0.87579346,0.20965576,-3.328125,0.890625,-1.96875
1695395393703,-0.4909668,-0.87091064,0.21209717,-1.453125,2.59375,-2.609375
1695395393743,-0.48388672,-0.880188,0.18572998,-1.25,4.046875,-2.234375
1695395393783,-0.4650879,-0.8701782,0.17572021,0.1875,4.9375,-1.546875
1695395393823,-0.4711914,-0.87579346,0.18719482,0.84375,4.140625,-1.0
1695395393863,-0.4892578,-0.89556885,0.1954956,0.59375,3.171875,-1.0625
1695395393903,-0.50268555,-0.8982544,0.19793701,-0.359375,2.296875,-1.359375
1695395393943,-0.49487305,-0.8843384,0.19622803,-1.484375,1.828125,-1.640625
1695395393983,-0.49951172,-0.8731079,0.18133545,-1.5625,0.34375,-1.734375
1695395394023,-0.5012207,-0.86505127,0.20281982,-0.296875,1.859375,-2.359375
1695395394063,-0.49975586,-0.8789673,0.20379639,-0.34375,2.734375,-1.765625
1695395394103,-0.4987793,-0.8706665,0.20599365,-0.265625,4.296875,-2.296875
1695395394143,-0.50268555,-0.8682251,0.22698975,-0.84375,4.203125,-2.1875
1695395394183,-0.5031738,-0.8713989,0.22796631,-1.125,4.890625,-2.640625
1695395394223,-0.4897461,-0.86968994,0.20794678,-1.359375,5.140625,-1.90625
1695395394263,-0.47875977,-0.88067627,0.2111206,0.0,4.375,-1.109375
1695395394303,-0.47436523,-0.8743286,0.1786499,1.71875,2.96875,0.484375
1695395394343,-0.48632812,-0.8640747,0.18450928,3.765625,1.90625,1.28125
1695395394383,-0.4958496,-0.8533325,0.2008667,4.28125,0.703125,1.515625
1695395394423,-0.5078125,-0.87628174,0.22259521,3.296875,0.625,0.59375
1695395394463,-0.5202637,-0.8831177,0.22576904,1.09375,1.375,-0.625
1695395394503,-0.4970703,-0.8699341,0.21282959,0.1875,1.3125,-0.90625
1695395394543,-0.4873047,-0.866272,0.1828003,0.828125,1.296875,-0.25
1695395394583,-0.48291016,-0.8670044,0.19915771,1.578125,2.109375,0.09375
1695395394623,-0.49487305,-0.87457275,0.199646,0.578125,0.921875,0.28125
1695395394663,-0.48266602,-0.8699341,0.1798706,0.671875,0.328125,0.03125
1695395394703,-0.50439453,-0.87945557,0.18817139,0.734375,-1.6875,0.125
1695395394743,-0.50024414,-0.8711548,0.18963623,0.265625,-2.359375,-0.3125
1695395394783,-0.50341797,-0.86968994,0.18817139,-0.046875,-1.859375,-0.046875
1695395394823,-0.5161133,-0.88165283,0.2086792,0.546875,-0.5625,0.03125
1695395394863,-0.5073242,-0.8694458,0.18743896,-0.078125,0.421875,0.359375
1695395394903,-0.5131836,-0.8826294,0.18963623,0.015625,0.703125,0.5625
1695395394943,-0.50439453,-0.8765259,0.1864624,-0.0625,0.09375,0.8125
1695395394983,-0.5019531,-0.8694458,0.18572998,-0.5625,0.078125,0.875
1695395395023,-0.50390625,-0.87164307,0.1876831,-1.078125,-0.03125,0.734375
1695395395063,-0.50634766,-0.87677,0.19891357,-1.5,0.140625,0.453125
1695395395103,-0.5048828,-0.86724854,0.18621826,-2.015625,-0.140625,0.421875
1695395395143,-0.50268555,-0.87286377,0.20648193,-1.46875,1.359375,0.28125
1695395395183,-0.50024414,-0.8652954,0.16766357,-2.703125,0.484375,0.59375
1695395395223,-0.48266602,-0.8633423,0.1786499,-1.375,1.46875,0.78125
1695395395263,-0.49731445,-0.85943604,0.1918335,-1.140625,-0.078125,0.953125
1695395395303,-0.5046387,-0.88653564,0.19989014,-1.78125,0.390625,0.9375
1695395395343,-0.50634766,-0.89141846,0.1918335,-3.015625,0.8125,0.921875
1695395395383,-0.51293945,-0.8789673,0.199646,-3.265625,0.421875,0.96875
1695395395423,-0.4946289,-0.86968994,0.18377686,-4.09375,0.234375,0.90625
1695395395463,-0.4987793,-0.8845825,0.1864624,-3.8125,-0.828125,1.125
1695395395503,-0.50390625,-0.8814087,0.20062256,-3.84375,-1.703125,0.75
1695395395543,-0.5070801,-0.8789673,0.2164917,-3.9375,-2.421875,0.265625
1695395395583,-0.5163574,-0.8792114,0.20135498,-3.5,-3.203125,0.15625
1695395395623,-0.49414062,-0.8633423,0.21356201,-4.71875,-2.75,-0.4375
1695395395663,-0.5078125,-0.8674927,0.19940186,-3.390625,-1.921875,-0.484375
1695395395703,-0.49121094,-0.85528564,0.22015381,-2.9375,-2.3125,0.484375
1695395395743,-0.4951172,-0.8562622,0.20501709,-2.859375,-2.734375,0.90625
1695395395783,-0.50634766,-0.8640747,0.22381592,-1.9375,-3.09375,0.515625
1695395395823,-0.5136719,-0.88848877,0.2189331,-1.6875,-5.21875,0.09375
1695395395863,-0.50927734,-0.8711548,0.21795654,-2.234375,-5.171875,-0.140625
1695395395903,-0.50390625,-0.8521118,0.18817139,-2.515625,-4.75,0.234375
1695395395943,-0.5061035,-0.84503174,0.19134521,-1.578125,-4.484375,0.75
1695395395983,-0.5246582,-0.86505127,0.22406006,0.09375,-4.046875,0.71875
1695395396023,-0.515625,-0.8621216,0.21478271,-0.671875,-3.34375,1.078125
1695395396063,-0.5344238,-0.8718872,0.22039795,-0.171875,-2.796875,1.09375
1695395396103,-0.52001953,-0.8670044,0.20892334,-1.171875,-2.171875,1.5
1695395396143,-0.5119629,-0.861145,0.19915771,-1.3125,-1.796875,1.453125
1695395396183,-0.5246582,-0.862854,0.19769287,-1.28125,-1.390625,2.046875
1695395396223,-0.5058594,-0.85284424,0.18182373,-1.484375,-1.015625,2.015625
1695395396263,-0.51000977,-0.8584595,0.2020874,-0.3125,-1.9375,2.21875
1695395396303,-0.5168457,-0.8701782,0.21380615,0.328125,-0.328125,2.0625
1695395396343,-0.5390625,-0.8850708,0.2111206,-1.53125,0.359375,1.65625
1695395396383,-0.48657227,-0.8743286,0.17889404,-2.609375,2.796875,1.015625
1695395396423,-0.5180664,-0.8699341,0.199646,-1.5,1.8125,1.421875
1695395396463,-0.5187988,-0.88067627,0.20550537,-1.265625,2.9375,0.890625
1695395396503,-0.48608398,-0.8526001,0.18841553,-1.90625,2.84375,0.5
1695395396543,-0.48217773,-0.8530884,0.20819092,0.40625,3.984375,0.34375
1695395396583,-0.5119629,-0.88848877,0.21746826,0.78125,2.8125,0.609375
1695395396623,-0.49487305,-0.8897095,0.21575928,0.28125,3.78125,0.796875
1695395396663,-0.49023438,-0.881897,0.2177124,0.109375,3.78125,1.0625
1695395396703,-0.49682617,-0.89141846,0.21990967,-0.5,3.984375,0.890625
1695395396743,-0.47827148,-0.8723755,0.21868896,-1.609375,3.0625,1.015625
1695395396783,-0.47680664,-0.8777466,0.2164917,-1.484375,1.75,1.234375
1695395396823,-0.47094727,-0.88287354,0.21624756,-2.0,1.53125,1.78125
1695395396863,-0.47875977,-0.88165283,0.21209717,-2.875,0.8125,2.109375
1695395396903,-0.47143555,-0.8743286,0.22503662,-3.015625,-0.359375,2.03125
1695395396943,-0.47753906,-0.85284424,0.2111206,-3.1875,-2.0625,2.0625
1695395396983,-0.47045898,-0.86138916,0.23162842,-1.46875,0.03125,1.3125
1695395397023,-0.49560547,-0.8858032,0.22503662,-1.265625,-0.984375,1.46875
1695395397063,-0.47265625,-0.90826416,0.21673584,-0.953125,-1.296875,1.390625
1695395397103,-0.45336914,-0.8909302,0.20184326,-0.8125,-3.640625,2.6875
1695395397143,-0.4345703,-0.8579712,0.20037842,-0.125,-4.0,3.90625
1695395397183,-0.45361328,-0.8665161,0.21136475,-0.40625,-4.515625,3.859375
1695395397223,-0.48388672,-0.8933716,0.20697021,-1.3125,-4.640625,3.5625
1695395397263,-0.4897461,-0.8928833,0.21038818,-1.765625,-3.828125,3.140625
1695395397303,-0.5095215,-0.8909302,0.22406006,-1.734375,-3.09375,1.96875
1695395397343,-0.49731445,-0.8826294,0.22503662,-1.8125,-2.21875,0.78125
1695395397383,-0.4814453,-0.88531494,0.21722412,-1.640625,-1.171875,-0.078125
1695395397423,-0.47070312,-0.8921509,0.20599365,-1.5625,-1.140625,-0.265625
1695395397463,-0.46240234,-0.86309814,0.21600342,-2.0625,-4.484375,-1.46875
1695395397503,-0.4724121,-0.95928955,0.20648193,-9.96875,-7.421875,-3.3125
1695395397543,-0.54174805,-0.9258423,0.19720459,-9.140625,-10.40625,-5.171875
1695395397583,-0.48242188,-0.8206177,0.18157959,-1.734375,-2.78125,-4.140625
1695395397623,-0.46972656,-0.7932739,0.20965576,2.359375,2.125,-1.6875
1695395397663,-0.48242188,-0.8513794,0.2140503,3.578125,3.203125,-0.484375
1695395397703,-0.51953125,-0.86920166,0.23309326,3.34375,6.71875,-0.578125
1695395397743,-0.5307617,-0.8755493,0.24212646,2.265625,7.109375,-0.234375
1695395397783,-0.5031738,-0.8579712,0.21453857,1.734375,7.84375,-1.0
1695395397823,-0.5046387,-0.88238525,0.2177124,0.21875,5.421875,-1.28125
1695395397863,-0.49169922,-0.8674927,0.20526123,1.40625,3.796875,-1.34375
1695395397903,-0.4794922,-0.8670044,0.19378662,2.0,3.5625,-0.5625
1695395397943,-0.47192383,-0.86846924,0.2008667,3.03125,3.046875,0.203125
1695395397983,-0.47875977,-0.8821411,0.20477295,3.625,2.71875,1.515625
1695395398023,-0.47924805,-0.8753052,0.21453857,2.375,2.03125,3.21875
1695395398063,-0.48754883,-0.8909302,0.21551514,1.375,3.046875,2.953125
1695395398103,-0.5187988,-0.89434814,0.22918701,-0.703125,0.96875,1.703125
1695395398143,-0.5007324,-0.8792114,0.21038818,-0.09375,2.578125,1.265625
1695395398183,-0.5041504,-0.87823486,0.1942749,-0.171875,2.96875,0.78125
1695395398223,-0.49267578,-0.8726196,0.20428467,0.0625,4.703125,0.65625
1695395398263,-0.48608398,-0.86968994,0.22576904,0.828125,6.3125,0.140625
1695395398303,-0.47460938,-0.861145,0.22796631,1.140625,7.671875,0.078125
1695395398343,-0.46557617,-0.8726196,0.24700928,-0.078125,6.515625,0.578125
1695395398383,-0.48217773,-0.8970337,0.26312256,-1.65625,5.3125,0.6875
1695395398423,-0.45703125,-0.9290161,0.19451904,-2.0625,7.546875,1.40625
1695395398463,-0.46289062,-0.89019775,0.17816162,0.828125,6.703125,3.765625
1695395398503,-0.4489746,-0.8545532,0.18963623,2.25,2.421875,5.125
1695395398543,-0.46166992,-0.85528564,0.27337646,2.5,1.109375,2.828125
1695395398583,-0.4868164,-0.90289307,0.26239014,-0.359375,-0.6875,0.015625
1695395398623,-0.47509766,-0.89019775,0.2453003,-1.828125,1.140625,-0.96875
1695395398663,-0.46923828,-0.8706665,0.23968506,-1.53125,0.859375,-1.8125
1695395398703,-0.46264648,-0.87677,0.20819092,0.5625,0.59375,-1.9375
1695395398743,-0.44213867,-0.89141846,0.22137451,2.21875,3.390625,-0.9375
1695395398783,-0.4362793,-0.8909302,0.1984253,2.140625,3.09375,0.171875
1695395398823,-0.43041992,-0.8765259,0.20062256,2.03125,2.234375,0.28125
1695395398863,-0.44360352,-0.89141846,0.21234131,1.546875,1.765625,0.234375
1695395398903,-0.4621582,-0.90093994,0.2218628,0.546875,0.875,-0.3125
1695395398943,-0.4814453,-0.9002075,0.22503662,-0.796875,0.109375,-1.171875
1695395398983,-0.47973633,-0.89971924,0.23138428,-1.359375,0.609375,-1.578125
1695395399023,-0.4794922,-0.88848877,0.2111206,-1.625,1.34375,-1.671875
1695395399063,-0.47192383,-0.87750244,0.2111206,-1.34375,1.265625,-1.625
1695395399103,-0.44726562,-0.8694458,0.20452881,-0.765625,2.9375,-1.3125
1695395399143,-0.4501953,-0.8870239,0.19818115,-0.296875,2.234375,-0.84375
1695395399183,-0.44213867,-0.8897095,0.18328857,-0.59375,1.828125,0.0625
1695395399223,-0.46728516,-0.8899536,0.2243042,0.1875,0.578125,0.375
1695395399263,-0.49047852,-0.88848877,0.22821045,-0.796875,0.0625,0.015625
1695395399303,-0.49682617,-0.8789673,0.23699951,-2.109375,0.875,-0.625
1695395399343,-0.49414062,-0.88165283,0.24017334,-1.78125,2.171875,-1.453125
1695395399383,-0.4855957,-0.87994385,0.22650146,-1.09375,2.984375,-1.328125
1695395399423,-0.47436523,-0.87457275,0.23260498,-0.078125,4.4375,-1.25
1695395399463,-0.4716797,-0.8772583,0.22039795,-0.21875,3.703125,-0.34375
1695395399503,-0.47021484,-0.86676025,0.22576904,-0.046875,3.140625,-0.34375
1695395399543,-0.47973633,-0.87994385,0.22943115,0.5,2.390625,-0.125
1695395399583,-0.4814453,-0.8904419,0.22991943,0.875,0.625,0.140625
1695395399623,-0.47802734,-0.8796997,0.22943115,1.703125,-0.984375,0.953125
1695395399663,-0.48535156,-0.86920166,0.22137451,2.3125,-2.5,1.09375
1695395399703,-0.48657227,-0.8555298,0.24481201,1.390625,-2.828125,0.921875
1695395399743,-0.4885254,-0.86065674,0.21185303,0.78125,-3.578125,0.203125
1695395399783,-0.4885254,-0.880188,0.23480225,0.3125,-1.890625,-0.296875
1695395399823,-0.49267578,-0.881897,0.20672607,-1.65625,-2.5625,0.0625
1695395399863,-0.47802734,-0.8726196,0.20477295,-1.109375,-1.578125,-0.40625
1695395399903,-0.48095703,-0.8748169,0.215271,-0.53125,-0.578125,-0.265625
1695395399943,-0.48461914,-0.8809204,0.21429443,-0.21875,0.171875,-0.5
1695395399983,-0.48168945,-0.8609009,0.21136475,-0.875,0.453125,-0.734375
1695395400023,-0.48632812,-0.8723755,0.21478271,-0.765625,0.90625,-1.453125
1695395400063,-0.4951172,-0.8711548,0.20770264,-0.953125,1.125,-1.375
1695395400103,-0.48120117,-0.8665161,0.19451904,0.515625,0.90625,-0.8125
1695395400143,-0.49121094,-0.8648071,0.20941162,1.96875,0.859375,-0.125
1695395400183,-0.5107422,-0.88897705,0.22113037,2.75,1.078125,0.125
1695395400223,-0.5029297,-0.8875122,0.21746826,1.921875,0.8125,0.296875
1695395400263,-0.50927734,-0.8809204,0.20965576,1.21875,1.359375,-0.046875
1695395400303,-0.5019531,-0.8814087,0.20379639,0.25,1.640625,-0.171875
1695395400343,-0.49829102,-0.8748169,0.20599365,0.21875,1.71875,-0.171875
1695395400383,-0.5058594,-0.8694458,0.1876831,-0.078125,1.25,0.21875
1695395400423,-0.4958496,-0.8699341,0.20599365,0.65625,2.90625,0.125
1695395400463,-0.50024414,-0.87701416,0.18841553,0.125,2.515625,0.734375
1695395400503,-0.4819336,-0.8772583,0.18939209,0.171875,2.71875,0.84375
1695395400543,-0.4963379,-0.8855591,0.19500732,-0.375,1.15625,1.109375
1695395400583,-0.50512695,-0.8858032,0.19744873,-0.921875,0.53125,0.734375
1695395400623,-0.5031738,-0.8875122,0.19598389,-2.25,0.296875,0.1875
1695395400663,-0.49902344,-0.8777466,0.19598389,-2.78125,0.21875,-0.359375
1695395400703,-0.48364258,-0.861145,0.18206787,-3.234375,-0.3125,-0.109375
1695395400743,-0.48339844,-0.862854,0.19622803,-2.328125,-0.15625,0.359375
1695395400783,-0.49072266,-0.8701782,0.20672607,-2.359375,-0.796875,0.59375
1695395400823,-0.49169922,-0.8726196,0.21185303,-2.0625,-0.59375,0.65625
1695395400863,-0.49829102,-0.87335205,0.2164917,-2.296875,-0.921875,0.375
1695395400903,-0.501709,-0.86920166,0.21722412,-2.734375,-1.234375,0.53125
1695395400943,-0.4892578,-0.8689575,0.20184326,-2.6875,-1.421875,0.515625
1695395400983,-0.49389648,-0.8743286,0.20062256,-2.0,-1.375,0.75
1695395401023,-0.4855957,-0.8726196,0.20159912,0.578125,-1.71875,1.390625
1695395401063,-0.48657227,-0.862854,0.18353271,1.4375,-3.03125,1.921875
1695395401103,-0.4868164,-0.8765259,0.23602295,2.40625,-0.828125,2.0625
1695395401143,-0.51000977,-0.87945557,0.21185303,0.1875,-0.8125,1.890625
1695395401183,-0.4892578,-0.8777466,0.21356201,0.046875,0.046875,1.046875
1695395401223,-0.49438477,-0.8843384,0.2033081,-0.21875,-0.8125,1.03125
1695395401263,-0.4897461,-0.87286377,0.20379639,-0.421875,0.125,1.125
1695395401303,-0.49047852,-0.8753052,0.20233154,0.015625,0.921875,1.015625
1695395401343,-0.4897461,-0.8831177,0.20013428,0.03125,1.3125,0.75
1695395401383,-0.4909668,-0.8779907,0.1876831,-0.359375,1.5625,0.453125
1695395401423,-0.47875977,-0.89068604,0.18988037,-0.078125,1.6875,0.5
1695395401463,-0.48608398,-0.8882446,0.20037842,-0.53125,1.59375,0.09375
1695395401503,-0.4868164,-0.88409424,0.20135498,-0.828125,1.765625,0.078125
1695395401543,-0.4819336,-0.87384033,0.20257568,-0.828125,1.890625,-0.140625
1695395401583,-0.48535156,-0.87994385,0.199646,-0.78125,1.8125,-0.265625
1695395401623,-0.48486328,-0.8777466,0.20013428,-0.578125,1.640625,-0.21875
1695395401663,-0.48291016,-0.8772583,0.19378662,-0.25,1.328125,0.046875
1695395401703,-0.484375,-0.8713989,0.19110107,0.34375,1.234375,0.234375
1695395401743,-0.4885254,-0.8777466,0.18621826,0.390625,0.0625,0.75
1695395401783,-0.4807129,-0.8814087,0.20794678,0.8125,0.640625,0.328125
1695395401823,-0.5012207,-0.8880005,0.21014404,-0.015625,-0.296875,0.546875
1695395401863,-0.47827148,-0.87506104,0.20013428,0.359375,0.203125,0.3125
1695395401903,-0.49926758,-0.87872314,0.20819092,0.234375,-0.09375,0.578125
1695395401943,-0.4975586,-0.8735962,0.20306396,-0.046875,0.34375,0.03125
1695395401983,-0.49682617,-0.89141846,0.1942749,-0.671875,0.75,0.09375
1695395402023,-0.48510742,-0.88653564,0.2020874,-0.4375,1.46875,-0.5625
1695395402063,-0.48486328,-0.87335205,0.1918335,-0.734375,1.3125,0.0625
1695395402103,-0.48364258,-0.8831177,0.19744873,-0.390625,2.078125,0.40625
1695395402143,-0.49438477,-0.8850708,0.20501709,-0.953125,1.203125,0.921875
1695395402183,-0.4885254,-0.88067627,0.19354248,-1.484375,1.09375,0.890625
1695395402223,-0.484375,-0.86920166,0.1942749,-1.546875,0.109375,0.703125
1695395402263,-0.4855957,-0.87457275,0.19818115,-1.171875,-0.234375,0.640625
1695395402303,-0.4753418,-0.87872314,0.19378662,-0.640625,-0.21875,0.625
1695395402343,-0.47387695,-0.8772583,0.18914795,0.234375,-0.46875,0.671875
1695395402383,-0.48339844,-0.881897,0.20599365,0.265625,0.0,0.53125
1695395402423,-0.47851562,-0.8867798,0.21380615,-0.140625,0.375,0.390625
1695395402463,-0.4897461,-0.88604736,0.19110107,-1.09375,-0.375,0.84375
1695395402503,-0.49072266,-0.88848877,0.21063232,-0.46875,1.015625,0.90625
1695395402543,-0.49926758,-0.8899536,0.1798706,-1.921875,-0.203125,1.0625
1695395402583,-0.49243164,-0.87701416,0.2074585,-1.25,0.90625,0.359375
1695395402623,-0.5090332,-0.8862915,0.20159912,-1.5625,0.734375,0.0
1695395402663,-0.49047852,-0.8826294,0.20697021,-1.78125,1.9375,-0.53125
1695395402703,-0.4934082,-0.87994385,0.20037842,-2.578125,1.671875,-0.734375
1695395402743,-0.48413086,-0.8706665,0.20501709,-2.328125,2.3125,-0.6875
1695395402783,-0.47753906,-0.8731079,0.19696045,-2.203125,1.703125,-0.375
1695395402823,-0.4790039,-0.88165283,0.20111084,-1.90625,1.125,0.28125
1695395402863,-0.4741211,-0.88116455,0.19793701,-1.46875,0.375,0.75
1695395402903,-0.46801758,-0.8831177,0.18499756,-1.03125,-1.125,1.4375
1695395402943,-0.48486328,-0.89019775,0.19500732,-0.53125,-1.53125,1.4375
1695395402983,-0.4921875,-0.88116455,0.21624756,-1.390625,-0.84375,0.15625
1695395403023,-0.46777344,-0.8557739,0.21673584,-2.265625,-0.578125,-0.453125
1695395403063,-0.5102539,-0.8665161,0.2296753,-1.515625,0.25,0.28125
1695395403103,-0.5097656,-0.8909302,0.22894287,-1.46875,1.53125,0.65625
1695395403143,-0.4831543,-0.87677,0.21307373,-1.1875,1.96875,0.90625
1695395403183,-0.4794922,-0.88897705,0.19500732,-0.953125,1.5,0.875
1695395403223,-0.46484375,-0.8760376,0.18011475,-0.609375,1.625,1.078125
1695395403263,-0.47460938,-0.8740845,0.19622803,0.421875,0.578125,1.484375
1695395403303,-0.47583008,-0.87091064,0.19232178,0.046875,0.9375,2.109375
1695395403343,-0.50146484,-0.8911743,0.23968506,0.453125,1.21875,1.609375
1695395403383,-0.5048828,-0.88897705,0.24578857,-0.578125,2.40625,0.796875
1695395403423,-0.48168945,-0.8713989,0.22503662,-0.875,2.25,0.703125
1695395403463,-0.4638672,-0.8777466,0.21356201,0.28125,2.046875,0.546875
1695395403503,-0.4609375,-0.8843384,0.20184326,0.46875,1.359375,1.21875
1695395403543,-0.45361328,-0.87945557,0.20550537,1.28125,1.71875,1.234375
1695395403583,-0.45874023,-0.8723755,0.20916748,1.0,0.5625,1.609375
1695395403623,-0.48046875,-0.8855591,0.215271,1.046875,0.140625,1.421875
1695395403663,-0.48950195,-0.88604736,0.22259521,0.703125,0.40625,1.015625
1695395403703,-0.4807129,-0.8892212,0.21453857,0.328125,0.65625,0.671875
1695395403743,-0.47460938,-0.8870239,0.21356201,0.40625,0.34375,0.40625
1695395403783,-0.46899414,-0.88165283,0.20819092,0.171875,0.484375,0.171875
1695395403823,-0.45214844,-0.8826294,0.19989014,0.203125,0.25,0.28125
1695395403863,-0.48657227,-0.88116455,0.2111206,0.21875,0.28125,-0.015625
1695395403903,-0.48535156,-0.8948364,0.20599365,0.359375,1.6875,-0.28125
1695395403943,-0.4645996,-0.88531494,0.19598389,-0.078125,1.6875,-0.8125
1695395403983,-0.4729004,-0.88604736,0.21551514,-0.234375,1.328125,-1.171875
1695395404023,-0.46923828,-0.87677,0.18792725,-1.359375,1.421875,-0.921875
1695395404063,-0.48291016,-0.8904419,0.21551514,-0.671875,0.984375,-1.375
1695395404103,-0.4753418,-0.88067627,0.1954956,-1.03125,0.8125,-1.0625
1695395404143,-0.47680664,-0.8870239,0.19793701,-0.8125,0.921875,-1.046875
1695395404183,-0.4675293,-0.8882446,0.19989014,-0.90625,0.375,-0.578125
1695395404223,-0.4868164,-0.8843384,0.1954956,-1.109375,-0.203125,-0.625
1695395404263,-0.47924805,-0.88360596,0.19451904,-0.921875,0.546875,-0.578125
1695395404303,-0.48535156,-0.880188,0.20306396,-1.234375,0.140625,-0.234375
1695395404343,-0.49780273,-0.878479,0.21307373,-1.71875,0.609375,-0.53125
1695395404383,-0.49609375,-0.8765259,0.21600342,-2.21875,0.890625,-1.078125
1695395404423,-0.48608398,-0.8687134,0.21307373,-2.515625,1.125,-1.125
1695395404463,-0.48632812,-0.8765259,0.20550537,-2.40625,1.125,-0.9375
1695395404503,-0.48291016,-0.87823486,0.20672607,-2.125,0.953125,-0.28125
1695395404543,-0.4794922,-0.87677,0.19696045,-1.59375,-0.046875,0.359375
1695395404583,-0.48217773,-0.8596802,0.20892334,-0.59375,-0.171875,0.84375
1695395404623,-0.5090332,-0.8772583,0.20819092,1.703125,2.140625,0.9375
1695395404663,-0.5163574,-0.87872314,0.23431396,3.046875,2.984375,1.140625
1695395404703,-0.51586914,-0.8845825,0.22845459,3.4375,4.921875,1.265625
1695395404743,-0.5168457,-0.89434814,0.23431396,3.0,4.34375,1.59375
1695395404783,-0.4724121,-0.8648071,0.1906128,1.609375,2.796875,1.484375
1695395404823,-0.4753418,-0.87579346,0.22723389,0.59375,0.0625,1.640625
1695395404863,-0.49047852,-0.8814087,0.18841553,-1.546875,-5.046875,0.609375
1695395404903,-0.4790039,-0.8682251,0.17962646,-0.15625,-4.140625,0.59375
1695395404943,-0.4951172,-0.8711548,0.20672607,0.28125,-4.4375,2.015625
1695395404983,-0.49194336,-0.8623657,0.1906128,-2.75,-4.015625,2.046875
1695395405023,-0.45239258,-0.8621216,0.19744873,0.3125,-0.65625,2.171875
1695395405063,-0.46801758,-0.89141846,0.18597412,0.875,-0.453125,1.578125
1695395405103,-0.44189453,-0.8928833,0.19647217,-1.328125,-1.71875,0.234375
1695395405143,-0.45922852,-0.9043579,0.19012451,-2.703125,-3.078125,-1.25
1695395405183,-0.48217773,-0.92559814,0.19744873,-4.0,-3.265625,-0.9375
1695395405223,-0.5019531,-0.87823486,0.17962646,-4.53125,-2.359375,0.359375
1695395405263,-0.48999023,-0.85406494,0.18060303,-3.078125,-0.8125,1.15625
1695395405303,-0.49023438,-0.8674927,0.22039795,-0.875,0.375,1.25
1695395405343,-0.5046387,-0.87506104,0.22625732,-0.359375,1.65625,0.484375
1695395405383,-0.51171875,-0.8670044,0.21136475,-0.1875,4.28125,-0.296875
1695395405423,-0.5317383,-0.8796997,0.2423706,0.734375,6.515625,-1.5625
1695395405463,-0.49902344,-0.8640747,0.20306396,-1.375,6.65625,-3.046875
1695395405503,-0.4802246,-0.87945557,0.21673584,-1.203125,6.296875,-4.421875
1695395405543,-0.4621582,-0.8809204,0.20526123,-1.578125,4.765625,-4.5625
1695395405583,-0.4645996,-0.86431885,0.21356201,-1.625,3.34375,-3.96875
1695395405623,-0.45507812,-0.85894775,0.19573975,0.171875,0.875,-2.625
1695395405663,-0.48388672,-0.8599243,0.20257568,1.671875,-1.796875,-1.1875
1695395405703,-0.4741211,-0.8804321,0.19720459,2.25,-3.59375,-0.125
1695395405743,-0.48388672,-0.8945923,0.20257568,0.265625,-5.609375,0.609375
1695395405783,-0.529541,-0.9077759,0.2140503,-0.796875,-5.4375,0.875
1695395405823,-0.4873047,-0.8501587,0.18304443,-0.9375,-5.15625,2.5625
1695395405863,-0.49438477,-0.864563,0.16644287,-1.640625,-4.984375,1.4375
1695395405903,-0.5192871,-0.8970337,0.20697021,-2.1875,-5.65625,2.125
1695395405943,-0.5437012,-0.8452759,0.2074585,-1.78125,-3.515625,2.953125
1695395405983,-0.517334,-0.8858032,0.19110107,-0.296875,-0.59375,2.578125
1695395406023,-0.49389648,-0.87335205,0.19403076,-0.65625,-1.0,3.390625
1695395406063,-0.51220703,-0.8677368,0.18939209,-0.390625,-0.53125,2.921875
1695395406103,-0.5061035,-0.8911743,0.19818115,-0.109375,0.984375,2.75
1695395406143,-0.49023438,-0.8804321,0.17449951,-1.5625,1.171875,2.90625
1695395406183,-0.4970703,-0.87335205,0.20184326,-1.0,0.359375,2.515625
1695395406223,-0.49536133,-0.8713989,0.19158936,-1.296875,0.078125,2.21875
1695395406263,-0.47436523,-0.8753052,0.18792725,-1.296875,0.34375,2.109375
1695395406303,-0.4855957,-0.87579346,0.19085693,-0.859375,-0.1875,1.984375
1695395406343,-0.46289062,-0.878479,0.19500732,-1.578125,-1.578125,2.015625
1695395406383,-0.49194336,-0.8765259,0.18817139,-1.375,-1.15625,1.328125
1695395406423,-0.49926758,-0.8804321,0.18353271,-0.65625,0.484375,0.40625
1695395406463,-0.47705078,-0.8789673,0.19769287,-0.328125,0.625,0.09375
1695395406503,-0.48950195,-0.88238525,0.19110107,-0.78125,0.28125,-0.015625
1695395406543,-0.49145508,-0.8743286,0.19744873,-0.390625,0.71875,0.171875
1695395406583,-0.50024414,-0.88360596,0.1864624,-0.53125,1.0,-0.03125
1695395406623,-0.4716797,-0.8862915,0.1864624,-0.703125,0.9375,0.421875
1695395406663,-0.48266602,-0.87823486,0.19403076,-0.65625,0.375,0.6875
1695395406703,-0.49536133,-0.8953247,0.184021,-0.6875,0.03125,0.78125
1695395406743,-0.4675293,-0.88067627,0.19671631,0.21875,2.0625,0.578125
1695395406783,-0.4807129,-0.8777466,0.19573975,0.203125,0.984375,1.09375
1695395406823,-0.46484375,-0.86724854,0.18182373,0.078125,1.96875,0.859375
1695395406863,-0.49414062,-0.8875122,0.19647217,0.734375,1.25,0.859375
1695395406903,-0.49414062,-0.8833618,0.19012451,0.53125,1.109375,0.6875
1695395406943,-0.47265625,-0.87750244,0.1906128,0.3125,1.453125,0.578125
1695395406983,-0.48266602,-0.8928833,0.19134521,1.171875,1.859375,0.71875
1695395407023,-0.46679688,-0.8831177,0.19281006,0.28125,1.78125,1.015625
1695395407063,-0.46826172,-0.8882446,0.1930542,0.859375,1.875,0.984375
1695395407103,-0.47216797,-0.895813,0.18865967,0.484375,1.875,1.21875
1695395407143,-0.46118164,-0.8772583,0.18670654,0.578125,1.921875,1.0625
1695395407183,-0.46362305,-0.8845825,0.18206787,1.03125,1.515625,1.078125
1695395407223,-0.4736328,-0.8921509,0.1906128,0.671875,1.5,1.078125
1695395407263,-0.4736328,-0.8909302,0.1918335,0.515625,1.390625,1.09375
1695395407303,-0.4724121,-0.8892212,0.18890381,0.28125,0.609375,0.78125
1695395407343,-0.47265625,-0.8897095,0.18353271,0.421875,0.671875,0.6875
1695395407383,-0.47338867,-0.89190674,0.18572998,0.28125,0.59375,0.484375
1695395407423,-0.4711914,-0.8909302,0.17596436,0.109375,1.984375,0.09375
1695395407463,-0.47387695,-0.89312744,0.19500732,0.375,2.328125,0.09375
1695395407503,-0.45532227,-0.89263916,0.17303467,-0.484375,2.21875,0.15625
1695395407543,-0.47143555,-0.9011841,0.19110107,0.09375,1.5,-0.0625
1695395407583,-0.46679688,-0.8921509,0.1828003,-0.265625,1.21875,-0.515625
1695395407623,-0.46826172,-0.89385986,0.17938232,-0.59375,1.4375,-0.640625
1695395407663,-0.4555664,-0.89849854,0.1696167,-0.34375,1.84375,-0.375
1695395407703,-0.4724121,-0.89312744,0.17352295,-0.15625,1.40625,-0.09375
1695395407743,-0.45922852,-0.8882446,0.17474365,-0.125,2.234375,-0.359375
1695395407783,-0.45263672,-0.8970337,0.17034912,-0.328125,1.078125,-0.75
1695395407823,-0.45703125,-0.91241455,0.17132568,-0.625,0.484375,-1.328125
1695395407863,-0.4609375,-0.9014282,0.16619873,-1.734375,0.03125,-1.265625
1695395407903,-0.46826172,-0.88067627,0.17474365,-2.40625,-0.390625,-1.09375
1695395407943,-0.4909668,-0.88726807,0.1708374,-2.671875,-0.5,-0.8125
1695395407983,-0.49951172,-0.8826294,0.18499756,-2.578125,0.734375,-0.359375
1695395408023,-0.49975586,-0.87579346,0.18914795,-2.21875,1.4375,-0.703125
1695395408063,-0.49047852,-0.87677,0.19378662,-1.703125,2.796875,-1.078125
1695395408103,-0.47460938,-0.8723755,0.19134521,-2.125,2.53125,-1.0625
1695395408143,-0.47460938,-0.8726196,0.21234131,-1.375,3.96875,-1.296875
1695395408183,-0.47827148,-0.9026489,0.18719482,-1.421875,3.0625,-0.84375
1695395408223,-0.44750977,-0.8858032,0.18304443,-0.125,3.34375,0.125
1695395408263,-0.47192383,-0.8765259,0.18670654,1.203125,1.375,1.125
1695395408303,-0.47509766,-0.85821533,0.19476318,1.5625,1.359375,1.6875
1695395408343,-0.4807129,-0.880188,0.20721436,1.96875,2.0,1.5625
1695395408383,-0.4975586,-0.9011841,0.21087646,1.5625,1.984375,1.046875
1695395408423,-0.4897461,-0.8845825,0.20062256,0.9375,1.734375,0.96875
1695395408463,-0.47436523,-0.881897,0.19573975,1.46875,2.234375,1.15625
1695395408503,-0.46801758,-0.8933716,0.19134521,1.0,1.90625,1.515625
1695395408543,-0.47143555,-0.8779907,0.1930542,0.953125,1.546875,1.515625
1695395408583,-0.47192383,-0.89263916,0.1954956,0.78125,1.703125,1.296875
1695395408623,-0.46435547,-0.8875122,0.19696045,0.4375,2.03125,1.25
1695395408663,-0.46679688,-0.8897095,0.18719482,0.578125,2.09375,1.5
1695395408703,-0.46533203,-0.88287354,0.18328857,0.5,1.984375,1.84375
1695395408743,-0.46484375,-0.88897705,0.1942749,-0.125,1.90625,1.671875
1695395408783,-0.46362305,-0.89019775,0.20672607,0.171875,1.53125,1.421875
1695395408823,-0.46655273,-0.8960571,0.18328857,-0.5625,0.890625,0.890625
1695395408863,-0.45776367,-0.9006958,0.20648193,-0.265625,0.890625,0.78125
1695395408903,-0.4584961,-0.8911743,0.17572021,-0.421875,0.65625,1.296875
1695395408943,-0.45654297,-0.89630127,0.21014404,0.109375,0.203125,0.421875
1695395408983,-0.47021484,-0.90045166,0.20184326,-0.296875,-0.1875,0.109375
1695395409023,-0.47216797,-0.89263916,0.18865967,-0.75,0.171875,-0.171875
1695395409063,-0.4675293,-0.8909302,0.18060303,-0.59375,0.09375,-0.265625
1695395409103,-0.47607422,-0.88726807,0.184021,-0.625,-0.359375,-0.390625
1695395409143,-0.45898438,-0.88946533,0.17889404,-0.5625,0.34375,-0.515625
1695395409183,-0.4729004,-0.89508057,0.1852417,-1.671875,-0.171875,-0.875
1695395409223,-0.47680664,-0.8867798,0.18792725,-2.453125,0.03125,-1.59375
1695395409263,-0.4736328,-0.8870239,0.18548584,-2.3125,0.84375,-1.328125
1695395409303,-0.47094727,-0.88287354,0.19012451,-2.265625,1.28125,-1.0625
1695395409343,-0.46777344,-0.88775635,0.19158936,-1.984375,1.546875,-0.90625
1695395409383,-0.48242188,-0.88775635,0.21136475,-3.5,0.390625,-1.375
1695395409423,-0.4855957,-0.89678955,0.20672607,-3.90625,-1.25,-2.46875
1695395409463,-0.49853516,-0.88946533,0.21722412,-3.28125,0.21875,-1.75
1695395409503,-0.46826172,-0.8726196,0.17694092,-3.96875,1.453125,-1.984375
1695395409543,-0.4567871,-0.8501587,0.21697998,-1.90625,2.203125,-2.328125
1695395409583,-0.47265625,-0.86676025,0.21453857,-1.171875,1.546875,-1.5625
1695395409623,-0.4658203,-0.894104,0.21209717,0.515625,2.890625,-0.46875
1695395409663,-0.50146484,-0.8753052,0.21331787,-0.421875,1.734375,0.328125
1695395409703,-0.501709,-0.8779907,0.21575928,-0.515625,1.609375,0.296875
1695395409743,-0.49291992,-0.87823486,0.19769287,-1.265625,1.328125,0.59375
1695395409783,-0.47485352,-0.87872314,0.20574951,-0.8125,2.265625,0.515625
1695395409823,-0.48461914,-0.8694458,0.21600342,0.203125,1.765625,0.828125
1695395409863,-0.47265625,-0.8711548,0.21795654,0.5625,2.515625,1.234375
1695395409903,-0.4807129,-0.87823486,0.23016357,1.375,1.453125,1.71875
1695395409943,-0.4873047,-0.90167236,0.22039795,0.734375,0.8125,1.484375
1695395409983,-0.48168945,-0.88360596,0.20306396,-0.34375,0.4375,1.1875
1695395410023,-0.47485352,-0.87994385,0.19915771,-0.875,0.5,0.796875
1695395410063,-0.48217773,-0.8845825,0.19573975,-0.734375,0.078125,0.609375
1695395410103,-0.47875977,-0.8875122,0.20306396,-0.6875,0.671875,0.1875
1695395410143,-0.47314453,-0.8760376,0.20965576,-0.390625,0.90625,0.390625
1695395410183,-0.48754883,-0.88409424,0.20184326,-0.8125,0.234375,0.46875
1695395410223,-0.47387695,-0.8760376,0.22113037,-0.578125,2.328125,0.125
1695395410263,-0.4909668,-0.8743286,0.21746826,-0.953125,1.78125,0.34375
1695395410303,-0.4736328,-0.8665161,0.19940186,-1.0,2.40625,0.109375
1695395410343,-0.48266602,-0.87994385,0.20721436,0.0625,2.125,0.359375
1695395410383,-0.47192383,-0.88726807,0.21746826,0.515625,0.75,0.546875
1695395410423,-0.4699707,-0.8850708,0.2062378,0.625,1.078125,0.640625
1695395410463,-0.4736328,-0.87823486,0.21453857,0.828125,0.71875,0.84375
1695395410503,-0.46655273,-0.8735962,0.2098999,0.984375,0.578125,1.078125
1695395410543,-0.46777344,-0.88531494,0.20672607,1.765625,1.3125,1.09375
1695395410583,-0.46435547,-0.87457275,0.20550537,1.953125,1.484375,1.84375
1695395410623,-0.4934082,-0.89727783,0.21795654,1.28125,0.609375,1.015625
1695395410663,-0.46411133,-0.89923096,0.20550537,0.765625,-0.046875,0.640625
1695395410703,-0.47509766,-0.88531494,0.20452881,0.265625,0.296875,0.359375
1695395410743,-0.4711914,-0.8875122,0.19744873,0.171875,0.671875,0.390625
1695395410783,-0.4675293,-0.8821411,0.19525146,0.28125,0.6875,0.265625
1695395410823,-0.47314453,-0.8882446,0.19573975,0.359375,0.875,0.34375
1695395410863,-0.47802734,-0.8867798,0.19134521,0.515625,0.9375,0.3125
1695395410903,-0.47558594,-0.8880005,0.18792725,0.015625,0.09375,0.625
1695395410943,-0.4658203,-0.8858032,0.20013428,0.25,1.34375,0.421875
1695395410983,-0.4741211,-0.8899536,0.19989014,0.234375,0.578125,0.3125
1695395411023,-0.4621582,-0.8855591,0.18597412,-0.453125,1.296875,0.484375
1695395411063,-0.47802734,-0.8880005,0.19451904,-0.171875,0.203125,0.5
1695395411103,-0.4736328,-0.88604736,0.18743896,-0.1875,0.46875,0.1875
1695395411143,-0.47485352,-0.88775635,0.19134521,-0.453125,0.75,0.3125
1695395411183,-0.46801758,-0.88116455,0.19256592,-0.328125,0.625,0.171875
1695395411223,-0.47192383,-0.88165283,0.18963623,-0.640625,0.671875,0.375
1695395411263,-0.4699707,-0.89312744,0.19354248,-0.078125,1.828125,0.171875
1695395411303,-0.47216797,-0.8880005,0.19134521,-0.375,1.984375,0.5625
1695395411343,-0.47021484,-0.8831177,0.19354248,0.15625,2.078125,0.78125
1695395411383,-0.46972656,-0.8855591,0.19281006,0.484375,1.890625,0.921875
1695395411423,-0.47070312,-0.8948364,0.19598389,0.625,2.28125,0.765625
1695395411463,-0.47387695,-0.897522,0.21209717,0.25,1.875,0.640625
1695395411503,-0.4699707,-0.89849854,0.19110107,-0.25,1.953125,0.578125
1695395411543,-0.46533203,-0.8892212,0.18475342,-0.640625,0.96875,0.0625
1695395411583,-0.46777344,-0.8833618,0.18182373,-0.890625,0.578125,-0.078125
1695395411623,-0.4650879,-0.8916626,0.20281982,-0.65625,0.328125,-0.34375
1695395411663,-0.46313477,-0.88409424,0.18499756,-0.734375,-0.828125,-0.015625
1695395411703,-0.46533203,-0.8855591,0.21258545,-0.515625,0.75,0.109375
1695395411743,-0.47607422,-0.8875122,0.18035889,-0.890625,0.265625,0.53125
1695395411783,-0.46289062,-0.88775635,0.19940186,-0.203125,1.46875,0.390625
1695395411823,-0.4729004,-0.8987427,0.1930542,-0.5,0.640625,0.328125
1695395411863,-0.4675293,-0.892395,0.19915771,-0.703125,0.71875,0.21875
1695395411903,-0.46704102,-0.8826294,0.19525146,-0.703125,0.96875,0.265625
1695395411943,-0.46728516,-0.8904419,0.20648193,-0.484375,1.265625,0.1875
1695395411983,-0.4638672,-0.89434814,0.17962646,-0.65625,1.109375,0.390625
1695395412023,-0.46289062,-0.8887329,0.19647217,-0.09375,0.859375,0.5625
1695395412063,-0.4790039,-0.8904419,0.19744873,-0.28125,0.390625,0.46875
1695395412103,-0.4736328,-0.8909302,0.20355225,-0.390625,0.578125,0.46875
1695395412143,-0.46899414,-0.89190674,0.20111084,-0.484375,0.390625,0.421875
1695395412183,-0.46899414,-0.8862915,0.19525146,-0.34375,0.28125,0.28125
1695395412223,-0.46411133,-0.8953247,0.18719482,-0.625,0.609375,0.140625
1695395412263,-0.46435547,-0.8909302,0.19671631,-0.359375,0.984375,0.203125
1695395412303,-0.46166992,-0.88726807,0.19598389,-0.484375,0.84375,0.15625
1695395412343,-0.47143555,-0.8928833,0.19110107,-0.484375,0.875,0.078125
1695395412383,-0.47485352,-0.8882446,0.20281982,-0.5,0.46875,-0.1875
1695395412423,-0.46875,-0.88848877,0.1876831,-0.765625,1.1875,-0.328125
1695395412463,-0.47631836,-0.9043579,0.22625732,-1.1875,0.484375,-0.59375
1695395412503,-0.48291016,-0.8945923,0.1696167,-3.453125,-0.15625,-0.484375
1695395412543,-0.47436523,-0.8867798,0.19818115,-1.578125,-0.84375,-1.21875
1695395412583,-0.48828125,-0.89630127,0.20916748,-1.984375,0.046875,-1.25
1695395412623,-0.47265625,-0.87042236,0.18841553,-1.65625,1.859375,-0.953125
1695395412663,-0.4580078,-0.87091064,0.18817139,-0.765625,2.0625,-0.3125
1695395412703,-0.47827148,-0.8867798,0.18670654,0.125,1.609375,0.265625
1695395412743,-0.47460938,-0.8867798,0.1876831,-0.078125,1.5,0.609375
1695395412783,-0.47485352,-0.880188,0.18939209,0.28125,0.9375,0.96875
1695395412823,-0.47387695,-0.8753052,0.20501709,-0.203125,0.578125,0.640625
1695395412863,-0.48657227,-0.8870239,0.2033081,-0.78125,0.15625,0.328125
1695395412903,-0.4753418,-0.8867798,0.20477295,-0.75,0.265625,0.4375
1695395412943,-0.48242188,-0.8804321,0.19915771,-0.578125,0.15625,0.828125
1695395412983,-0.47753906,-0.88409424,0.19378662,-0.296875,0.03125,0.984375
1695395413023,-0.47485352,-0.88653564,0.19573975,-0.125,0.03125,1.296875
1695395413063,-0.4753418,-0.8792114,0.19671631,0.015625,0.40625,1.375
1695395413103,-0.47875977,-0.8867798,0.20672607,-0.203125,0.59375,1.09375
1695395413143,-0.4736328,-0.8843384,0.18939209,-0.1875,0.5625,1.1875
1695395413183,-0.47387695,-0.88946533,0.21356201,0.546875,1.25,1.1875
1695395413223,-0.47338867,-0.8904419,0.18109131,-0.03125,0.71875,1.40625
1695395413263,-0.45874023,-0.8892212,0.20135498,0.609375,1.515625,1.234375
1695395413303,-0.47460938,-0.892395,0.1984253,0.234375,0.859375,0.96875
1695395413343,-0.46875,-0.89190674,0.19720459,-0.125,0.9375,0.328125
1695395413383,-0.46533203,-0.8911743,0.18914795,-0.484375,0.9375,0.5
1695395413423,-0.4675293,-0.8960571,0.19573975,-0.21875,0.90625,0.140625
1695395413463,-0.46362305,-0.89068604,0.18743896,-0.390625,1.21875,0.28125
1695395413503,-0.46557617,-0.89141846,0.20013428,-0.140625,1.28125,0.265625
1695395413543,-0.4675293,-0.88848877,0.20062256,-0.359375,1.140625,0.078125
1695395413583,-0.46923828,-0.8850708,0.19940186,-0.359375,0.890625,-0.03125
1695395413623,-0.46533203,-0.8928833,0.19891357,-0.5,0.890625,-0.25
1695395413663,-0.46777344,-0.8897095,0.20281982,-0.703125,1.140625,-0.296875
1695395413703,-0.46704102,-0.8867798,0.19696045,-0.71875,1.359375,-0.421875
1695395413743,-0.46875,-0.89019775,0.19769287,-0.90625,0.921875,-0.828125
1695395413783,-0.46533203,-0.8921509,0.19647217,-0.84375,1.21875,-0.84375
1695395413823,-0.46801758,-0.8882446,0.20013428,-0.578125,0.890625,-0.765625
1695395413863,-0.46166992,-0.88775635,0.17840576,-0.546875,1.3125,-0.65625
1695395413903,-0.47338867,-0.89630127,0.20257568,0.15625,0.8125,-0.59375
1695395413943,-0.46875,-0.89263916,0.168396,-0.703125,0.59375,0.0625
1695395413983,-0.46948242,-0.8875122,0.19891357,0.515625,0.25,-0.0625
1695395414023,-0.47631836,-0.8887329,0.19573975,-0.015625,-0.46875,-0.203125
1695395414063,-0.47607422,-0.8858032,0.19720459,0.140625,-0.171875,-0.015625
1695395414103,-0.47387695,-0.8831177,0.18817139,-0.3125,-0.328125,0.15625
1695395414143,-0.48413086,-0.8945923,0.19403076,-0.109375,-0.671875,0.03125
1695395414183,-0.47558594,-0.8882446,0.17572021,-0.59375,-0.078125,0.234375
1695395414223,-0.47802734,-0.88287354,0.1696167,-0.78125,-0.34375,0.734375
1695395414263,-0.47998047,-0.88531494,0.17938232,-0.9375,-0.390625,0.75
1695395414303,-0.48364258,-0.8845825,0.18572998,-1.015625,-0.4375,0.96875
1695395414343,-0.48828125,-0.9006958,0.19891357,-2.828125,-1.9375,0.0625
1695395414383,-0.49389648,-0.8977661,0.18597412,-3.046875,-2.96875,-0.75
1695395414423,-0.5004883,-0.8909302,0.1906128,-4.234375,-2.171875,-0.765625
1695395414463,-0.46801758,-0.864563,0.17645264,-3.75,-0.25,-0.28125
1695395414503,-0.48339844,-0.86968994,0.17913818,-2.5,-0.453125,0.28125
1695395414543,-0.47827148,-0.8855591,0.18353271,-2.4375,0.125,0.796875
1695395414583,-0.48120117,-0.8804321,0.18035889,-1.75,0.703125,0.78125
1695395414623,-0.4934082,-0.87677,0.19134521,-1.59375,-0.25,0.71875
1695395414663,-0.46655273,-0.9031372,0.17572021,-3.078125,-0.484375,-0.65625
1695395414703,-0.47753906,-0.892395,0.17816162,-4.859375,-1.3125,-0.953125
1695395414743,-0.46875,-0.91192627,0.18353271,-6.34375,-2.125,-1.8125
1695395414783,-0.4807129,-0.92633057,0.21722412,-7.609375,1.390625,-0.125
1695395414823,-0.5720215,-0.7883911,0.16644287,-4.09375,1.40625,3.875
1695395414863,-0.5539551,-0.73516846,0.1906128,1.3125,7.5625,4.171875
1695395414903,-0.40844727,-0.8501587,0.25823975,-1.0625,10.328125,2.015625
1695395414943,-0.41723633,-0.97613525,0.35076904,0.90625,2.84375,-2.453125
1695395414983,-0.44921875,-0.942688,0.27850342,-0.953125,-4.4375,-5.75
1695395415023,-0.54174805,-0.7827759,0.2230835,1.0625,-0.53125,-2.859375
1695395415063,-0.5192871,-0.81988525,0.21136475,2.515625,2.734375,-1.546875
1695395415103,-0.4675293,-0.89312744,0.22113037,2.9375,0.453125,-1.578125
1695395415143,-0.5102539,-0.90875244,0.22210693,2.3125,0.34375,1.578125
1695395415183,-0.47070312,-0.8526001,0.22039795,2.71875,1.015625,4.015625
1695395415223,-0.44677734,-0.88726807,0.23406982,3.59375,-1.15625,2.484375
1695395415263,-0.45385742,-0.9295044,0.20379639,0.4375,-5.984375,-1.0
1695395415303,-0.47436523,-0.8508911,0.21722412,0.03125,-3.796875,-0.828125
1695395415343,-0.52612305,-0.8579712,0.22210693,1.609375,-1.984375,0.0625
1695395415383,-0.5102539,-0.8870239,0.22821045,0.984375,2.671875,0.4375
1695395415423,-0.49121094,-0.91778564,0.21136475,0.03125,3.1875,1.875
1695395415463,-0.4699707,-0.8677368,0.19207764,-0.84375,1.984375,2.265625
1695395415503,-0.49926758,-0.8538208,0.19281006,-0.296875,0.671875,1.328125
1695395415543,-0.49414062,-0.86846924,0.20599365,0.546875,0.53125,-0.546875
1695395415583,-0.46240234,-0.88482666,0.20404053,-0.171875,-0.578125,-1.84375
1695395415623,-0.4736328,-0.8899536,0.19720459,0.09375,-2.71875,-2.234375
1695395415663,-0.5324707,-0.864563,0.19500732,0.984375,-1.5,-0.59375
1695395415703,-0.5515137,-0.88067627,0.19354248,1.984375,3.28125,2.828125
1695395415743,-0.47021484,-0.9036255,0.1749878,0.140625,3.953125,3.75
1695395415783,-0.43701172,-0.8897095,0.16546631,-1.65625,1.578125,2.96875
1695395415823,-0.45532227,-0.87994385,0.18743896,-1.5,-1.390625,1.4375
1695395415863,-0.48120117,-0.87384033,0.18450928,-1.046875,-0.015625,0.859375
1695395415903,-0.48291016,-0.8858032,0.2033081,-1.03125,0.0625,0.796875
1695395415943,-0.48754883,-0.8792114,0.20574951,-1.46875,0.984375,0.875
1695395415983,-0.50024414,-0.8887329,0.1942749,-2.03125,2.625,0.5625
1695395416023,-0.49316406,-0.8814087,0.19500732,-2.3125,3.921875,0.09375
1695395416063,-0.4819336,-0.8652954,0.17254639,-2.8125,4.15625,-0.328125
1695395416103,-0.47802734,-0.862854,0.20794678,-1.921875,4.203125,-0.890625
1695395416143,-0.48779297,-0.87994385,0.20892334,-1.96875,3.5625,-0.765625
1695395416183,-0.46264648,-0.86920166,0.21087646,-1.625,4.015625,-0.078125
1695395416223,-0.47387695,-0.8682251,0.20843506,-0.78125,3.46875,0.234375
1695395416263,-0.4855957,-0.8740845,0.20794678,0.03125,1.9375,0.34375
1695395416303,-0.46313477,-0.87994385,0.20306396,0.6875,2.0,0.65625
1695395416343,-0.47143555,-0.89849854,0.21307373,1.75,0.671875,1.140625
1695395416383,-0.49853516,-0.88604736,0.23358154,0.921875,-0.078125,0.640625
1695395416423,-0.49194336,-0.8735962,0.21966553,0.328125,0.234375,0.0625
1695395416463,-0.48510742,-0.8755493,0.20550537,0.09375,-0.0625,-0.234375
1695395416503,-0.4831543,-0.8855591,0.20013428,0.234375,-0.296875,-0.140625
1695395416543,-0.47216797,-0.87872314,0.19915771,1.046875,0.109375,0.328125
1695395416583,-0.4658203,-0.8833618,0.1852417,1.890625,0.34375,1.3125
1695395416623,-0.46411133,-0.89019775,0.18695068,3.15625,0.265625,1.96875
1695395416663,-0.46362305,-0.89678955,0.19085693,3.46875,1.296875,2.09375
1695395416703,-0.47998047,-0.9138794,0.22113037,3.34375,1.375,1.546875
1695395416743,-0.4729004,-0.88946533,0.1852417,1.640625,0.609375,1.25
1695395416783,-0.48413086,-0.88848877,0.2111206,0.28125,-0.953125,-0.09375
1695395416823,-0.5065918,-0.8870239,0.19012451,-2.046875,-3.0,-1.28125
1695395416863,-0.48950195,-0.87384033,0.19110107,-3.0,-2.296875,-1.390625
1695395416903,-0.47314453,-0.87750244,0.16693115,-1.171875,-1.140625,-0.828125
1695395416943,-0.48754883,-0.88946533,0.18133545,-0.734375,-1.984375,-0.34375
1695395416983,-0.4609375,-0.8772583,0.16912842,-0.515625,-0.5625,0.6875
1695395417023,-0.46411133,-0.89019775,0.17547607,-0.5625,-0.046875,0.875
1695395417063,-0.47558594,-0.8867798,0.17913818,-1.09375,0.625,0.859375
1695395417103,-0.48266602,-0.8887329,0.1864624,-1.84375,0.5625,0.609375
1695395417143,-0.47802734,-0.8936157,0.18670654,-3.078125,0.84375,0.734375
1695395417183,-0.4814453,-0.88360596,0.19671631,-3.8125,1.125,0.6875
1695395417223,-0.47314453,-0.8777466,0.19110107,-3.859375,1.25,0.625
1695395417263,-0.48706055,-0.8867798,0.19158936,-3.703125,1.1875,0.65625
1695395417303,-0.4729004,-0.88604736,0.19403076,-3.65625,1.96875,0.65625
1695395417343,-0.4699707,-0.8821411,0.21575928,-2.84375,2.234375,0.8125
1695395417383,-0.4777832,-0.8833618,0.18377686,-2.9375,1.671875,1.421875
1695395417423,-0.46362305,-0.8858032,0.21673584,-1.484375,2.609375,1.359375
1695395417463,-0.49487305,-0.8960571,0.2267456,-1.0,2.171875,1.234375
1695395417503,-0.4777832,-0.87579346,0.22113037,-1.65625,2.53125,0.71875
1695395417543,-0.4572754,-0.8735962,0.21624756,-0.828125,3.109375,0.65625
1695395417583,-0.47021484,-0.8838501,0.21136475,0.296875,3.015625,1.109375
1695395417623,-0.45288086,-0.8855591,0.20428467,1.671875,2.921875,1.546875
1695395417663,-0.453125,-0.892395,0.21624756,4.875,5.625,2.34375
1695395417703,-0.45751953,-0.89556885,0.21038818,5.75,5.4375,2.75
1695395417743,-0.47314453,-0.9155884,0.22747803,4.390625,3.1875,2.265625
1695395417783,-0.46240234,-0.8911743,0.22088623,2.125,2.65625,1.421875
1695395417823,-0.45581055,-0.89434814,0.2164917,0.8125,0.5625,1.171875
1695395417863,-0.45141602,-0.89190674,0.2086792,-0.703125,-0.84375,0.875
1695395417903,-0.4387207,-0.89141846,0.19354248,-1.21875,-2.65625,0.015625
1695395417943,-0.44067383,-0.8921509,0.18377686,0.109375,-1.640625,1.0625
1695395417983,-0.4350586,-0.8899536,0.20306396,1.125,0.5,1.0625
1695395418023,-0.4399414,-0.90045166,0.19891357,0.03125,0.65625,1.28125
1695395418063,-0.43554688,-0.89141846,0.19818115,0.578125,1.578125,1.15625
1695395418103,-0.4621582,-0.89923096,0.20965576,-0.484375,0.3125,0.78125
1695395418143,-0.45263672,-0.89434814,0.2074585,-1.453125,-0.3125,-0.046875
1695395418183,-0.44677734,-0.8909302,0.19696045,-1.515625,-0.21875,-0.078125
1695395418223,-0.4423828,-0.8977661,0.19744873,-1.53125,-0.328125,-0.296875
1695395418263,-0.45288086,-0.8965454,0.18597412,-1.484375,-0.390625,-0.328125
1695395418303,-0.44067383,-0.88897705,0.20697021,-0.875,-0.015625,-0.375
1695395418343,-0.45825195,-0.90045166,0.21063232,-0.78125,0.203125,-0.375
1695395418383,-0.46191406,-0.8916626,0.21356201,-0.953125,0.515625,-0.328125
1695395418423,-0.46655273,-0.8965454,0.20697021,-1.125,0.75,-0.34375
1695395418463,-0.46020508,-0.89434814,0.19793701,-1.359375,0.5625,-0.4375
1695395418503,-0.4506836,-0.894104,0.19818115,-1.0,0.515625,-0.234375
1695395418543,-0.45654297,-0.8928833,0.20697021,-0.671875,0.734375,-0.21875
1695395418583,-0.4650879,-0.8945923,0.18109131,-0.125,0.515625,0.078125
1695395418623,-0.4597168,-0.89190674,0.20941162,0.5,0.84375,-0.21875
1695395418663,-0.47021484,-0.8982544,0.19085693,-0.28125,0.84375,-0.09375
1695395418703,-0.46826172,-0.8948364,0.20697021,-0.0625,1.8125,-0.796875
1695395418743,-0.4753418,-0.895813,0.21307373,-1.25,0.96875,-1.421875
1695395418783,-0.46948242,-0.8875122,0.20355225,-1.765625,1.75,-1.84375
1695395418823,-0.46020508,-0.8936157,0.19036865,-2.078125,1.875,-1.65625
1695395418863,-0.46044922,-0.89312744,0.19940186,-1.328125,1.609375,-1.296875
1695395418903,-0.46069336,-0.8858032,0.18426514,-1.203125,1.4375,-0.4375
1695395418943,-0.46899414,-0.88360596,0.20233154,-0.515625,1.40625,-0.1875
1695395418983,-0.4699707,-0.8855591,0.21160889,-0.875,0.578125,-0.40625
1695395419023,-0.4814453,-0.8850708,0.21551514,-1.53125,0.5,-0.5
1695395419063,-0.4729004,-0.88604736,0.21038818,-1.640625,0.15625,-0.40625
1695395419103,-0.47387695,-0.88604736,0.20477295,-1.140625,0.171875,0.171875
1695395419143,-0.46948242,-0.8870239,0.19940186,-0.8125,0.109375,0.40625
1695395419183,-0.47387695,-0.8838501,0.20233154,-0.421875,-0.375,0.703125
1695395419223,-0.46362305,-0.88238525,0.19085693,-0.28125,0.140625,0.671875
1695395419263,-0.4807129,-0.89190674,0.21014404,0.1875,0.15625,0.609375
1695395419303,-0.47827148,-0.8904419,0.19110107,-0.65625,0.390625,1.046875
1695395419343,-0.47729492,-0.8831177,0.20452881,0.078125,0.53125,1.078125
1695395419383,-0.4663086,-0.89068604,0.21258545,0.015625,0.3125,1.140625
1695395419423,-0.46704102,-0.88165283,0.20257568,-0.140625,0.796875,0.9375
1695395419463,-0.45996094,-0.88726807,0.20013428,-0.25,0.921875,0.984375
1695395419503,-0.47485352,-0.89068604,0.20477295,0.25,0.765625,1.03125
1695395419543,-0.4584961,-0.90045166,0.23529053,-1.109375,0.484375,0.546875
1695395419583,-0.48291016,-0.89630127,0.22210693,-2.59375,-0.578125,0.21875
1695395419623,-0.47607422,-0.8850708,0.21307373,-1.78125,-0.5625,0.15625
1695395419663,-0.46240234,-0.8753052,0.21746826,-0.78125,0.375,0.46875
1695395419703,-0.45825195,-0.8718872,0.20452881,-0.328125,0.71875,0.734375
1695395419743,-0.45214844,-0.8845825,0.20404053,1.0625,1.765625,1.140625
1695395419783,-0.46923828,-0.9138794,0.22381592,0.796875,0.53125,0.921875
1695395419823,-0.45996094,-0.8880005,0.19671631,-1.015625,0.703125,0.640625
1695395419863,-0.44506836,-0.88360596,0.20892334,-0.71875,1.15625,0.015625
1695395419903,-0.46728516,-0.8862915,0.19622803,-1.8125,0.109375,0.0625
1695395419943,-0.44750977,-0.87994385,0.19769287,-1.4375,2.15625,-0.09375
1695395419983,-0.46728516,-0.87945557,0.21990967,-0.484375,0.859375,0.546875
1695395420023,-0.46728516,-0.8779907,0.21551514,0.28125,0.765625,0.828125
1695395420063,-0.47436523,-0.8911743,0.21453857,0.09375,-0.296875,0.53125
1695395420103,-0.4580078,-0.89263916,0.21380615,0.234375,0.109375,0.421875
1695395420143,-0.46362305,-0.8843384,0.19525146,0.40625,-0.6875,0.453125
1695395420183,-0.44970703,-0.8858032,0.19476318,0.9375,-0.25,0.5625
1695395420223,-0.46118164,-0.87994385,0.1984253,1.203125,0.015625,1.015625
1695395420263,-0.47143555,-0.88531494,0.20794678,1.203125,-0.15625,1.015625
1695395420303,-0.47387695,-0.9036255,0.22015381,0.609375,-0.21875,0.65625
1695395420343,-0.4729004,-0.89630127,0.2062378,0.421875,0.1875,0.609375
1695395420383,-0.46142578,-0.88409424,0.19036865,0.40625,0.28125,0.609375
1695395420423,-0.45898438,-0.88531494,0.19696045,0.34375,2.125,0.78125
1695395420463,-0.46972656,-0.88653564,0.17938232,0.515625,0.828125,0.890625
1695395420503,-0.46020508,-0.8897095,0.19940186,1.453125,2.015625,0.6875
1695395420543,-0.4729004,-0.8994751,0.19256592,0.90625,1.296875,0.640625
1695395420583,-0.44702148,-0.89727783,0.19256592,0.015625,2.671875,0.421875
1695395420623,-0.47143555,-0.8945923,0.19451904,-0.203125,1.359375,0.0625
1695395420663,-0.4716797,-0.89190674,0.18792725,-0.265625,1.546875,-0.1875
1695395420703,-0.46044922,-0.8933716,0.1786499,-0.296875,2.25,0.03125
1695395420743,-0.4609375,-0.90216064,0.19671631,0.09375,2.375,0.09375
1695395420783,-0.45947266,-0.892395,0.17572021,-0.078125,2.15625,-0.25
1695395420823,-0.46191406,-0.9019165,0.18597412,-0.125,2.015625,-0.140625
1695395420863,-0.45629883,-0.8916626,0.18865967,-0.5,1.90625,-0.0625
1695395420903,-0.46264648,-0.8911743,0.18817139,-0.328125,1.84375,-0.203125
1695395420943,-0.45092773,-0.8965454,0.18255615,0.40625,2.4375,-0.140625
