timestamp,accel_x,accel_y,accel_z,gyro_x,gyro_y,gyro_z,mag_x,mag_y,mag_z
1695391433884,-0.2529297,-0.74121094,0.6591797,-0.25,0.0625,0.21875,0.0,0.0,0.0
1695391433917,-0.25976562,-0.7451172,0.6455078,-0.8125,0.375,0.40625,0.0,0.0,0.0
1695391433962,-0.26660156,-0.74121094,0.6464844,-0.9375,0.375,0.28125,0.0,0.0,0.0
1695391433996,-0.2578125,-0.7421875,0.63964844,-0.375,0.25,0.21875,0.0,0.0,0.0
1695391434040,-0.26464844,-0.74121094,0.64160156,-0.4375,0.3125,0.28125,0.0,0.0,0.0
1695391434119,-0.2626953,-0.74609375,0.64160156,-0.1875,0.1875,0.09375,0.0,0.0,0.0
1695391434130,-0.2578125,-0.74609375,0.6484375,0.25,0.0,0.28125,0.0,0.0,0.0
1695391434164,-0.2607422,-0.75,0.6376953,0.34375,-0.125,0.15625,0.0,0.0,0.0
1695391434199,-0.25683594,-0.7441406,0.63964844,0.15625,-0.0625,0.15625,0.0,0.0,0.0
1695391434245,-0.25878906,-0.734375,0.6503906,0.46875,-0.1875,0.03125,0.0,0.0,0.0
1695391434277,-0.25878906,-0.7451172,0.64746094,0.28125,-0.1875,0.09375,0.0,0.0,0.0
1695391434321,-0.25585938,-0.7402344,0.6582031,0.03125,0.125,0.09375,-51.625,-22.3125,-88.25
1695391434368,-0.25585938,-0.7402344,0.65722656,-0.15625,0.125,0.15625,0.0,0.0,0.0
1695391434402,-0.25585938,-0.7451172,0.65625,-0.28125,0.0625,0.03125,0.0,0.0,0.0
1695391434479,-0.25,-0.74902344,0.64160156,-0.40625,0.0625,0.21875,0.0,0.0,0.0
1695391434490,-0.25097656,-0.7441406,0.6464844,-0.28125,0.0,0.03125,0.0,0.0,0.0
1695391434525,-0.26367188,-0.7441406,0.6425781,0.21875,-0.1875,-0.09375,0.0,0.0,0.0
1695391434566,-0.2607422,-0.74121094,0.65527344,0.09375,0.0625,-0.09375,0.0,0.0,0.0
1695391434604,-0.26757812,-0.7470703,0.6464844,-0.40625,0.0625,0.03125,0.0,0.0,0.0
1695391434637,-0.25878906,-0.7363281,0.6425781,-0.28125,-0.0625,-0.09375,0.0,0.0,0.0
1695391434681,-0.25585938,-0.73828125,0.6435547,0.15625,0.0,-0.15625,0.0,0.0,0.0
1695391434726,-0.25683594,-0.7441406,0.6435547,-0.09375,-0.125,-0.09375,0.0,0.0,0.0
1695391434761,-0.2705078,-0.7451172,0.6425781,0.03125,0.0,-0.03125,0.0,0.0,0.0
1695391434805,-0.265625,-0.7402344,0.63964844,0.28125,0.0625,-0.15625,0.0,0.0,0.0
1695391434839,-0.2548828,-0.7441406,0.6533203,0.09375,0.0625,0.03125,-53.5625,-20.8125,-89.4375
1695391434884,-0.2529297,-0.73535156,0.6503906,-0.09375,-0.0625,0.03125,0.0,0.0,0.0
1695391434918,-0.25585938,-0.74902344,0.66015625,-0.09375,-0.1875,-0.03125,0.0,0.0,0.0
1695391434963,-0.25683594,-0.74316406,0.64941406,0.03125,0.0,0.03125,0.0,0.0,0.0
1695391434997,-0.24902344,-0.74316406,0.6464844,-0.09375,0.0625,0.21875,0.0,0.0,0.0
1695391435041,-0.26464844,-0.74121094,0.64160156,-0.21875,0.0,0.03125,0.0,0.0,0.0
1695391435086,-0.2626953,-0.73828125,0.6464844,-0.03125,-0.125,0.03125,0.0,0.0,0.0
1695391435131,-0.25683594,-0.7470703,0.6484375,-0.09375,0.0,-0.09375,0.0,0.0,0.0
1695391435165,-0.26757812,-0.74609375,0.6542969,0.15625,0.0,-0.15625,0.0,0.0,0.0
1695391435199,-0.25976562,-0.75,0.6425781,0.28125,-0.125,0.15625,0.0,0.0,0.0
1695391435243,-0.25976562,-0.7480469,0.6464844,-0.03125,0.0625,0.09375,0.0,0.0,0.0
1695391435278,-0.26367188,-0.74316406,0.6533203,-0.4375,0.1875,0.09375,0.0,0.0,0.0
1695391435323,-0.26464844,-0.7480469,0.6533203,-0.15625,-0.125,-0.03125,-54.3125,-21.5625,-88.6875
1695391435357,-0.26660156,-0.7470703,0.66015625,-0.21875,-0.125,-0.03125,0.0,0.0,0.0
1695391435401,-0.2578125,-0.7402344,0.6425781,-0.15625,0.0,-0.15625,0.0,0.0,0.0
1695391435446,-0.2626953,-0.75097656,0.6464844,0.03125,0.0625,-0.28125,0.0,0.0,0.0
1695391435480,-0.2578125,-0.7451172,0.63964844,0.21875,0.0625,-0.15625,0.0,0.0,0.0
1695391435525,-0.25878906,-0.73535156,0.6542969,0.03125,0.0,-0.09375,0.0,0.0,0.0
1695391435559,-0.25878906,-0.74609375,0.63671875,-0.03125,-0.0625,0.09375,0.0,0.0,0.0
1695391435604,-0.26464844,-0.7519531,0.6464844,0.09375,-0.1875,-0.03125,0.0,0.0,0.0
1695391435638,-0.25390625,-0.75,0.64746094,0.03125,0.0,0.03125,0.0,0.0,0.0
1695391435683,-0.25585938,-0.7480469,0.6435547,-0.03125,0.0625,-0.03125,0.0,0.0,0.0
1695391435728,-0.2685547,-0.75390625,0.64746094,0.09375,-0.0625,-0.03125,0.0,0.0,0.0
1695391435761,-0.26367188,-0.7373047,0.6503906,0.03125,0.0,-0.09375,0.0,0.0,0.0
1695391435806,-0.26367188,-0.7480469,0.6513672,-0.15625,-0.0625,0.09375,0.0,0.0,0.0
1695391435841,-0.25585938,-0.74316406,0.64453125,-0.09375,0.0,-0.09375,-52.375,-20.1875,-88.5625
1695391435885,-0.265625,-0.7470703,0.64941406,0.03125,-0.1875,0.03125,0.0,0.0,0.0
1695391435919,-0.25878906,-0.74121094,0.6386719,-0.03125,0.0625,0.09375,0.0,0.0,0.0
1695391435964,-0.25585938,-0.7392578,0.6542969,-0.5,0.1875,0.09375,0.0,0.0,0.0
1695391435999,-0.25683594,-0.7451172,0.65234375,-0.34375,-0.0625,0.09375,0.0,0.0,0.0
1695391436043,-0.25585938,-0.74609375,0.6513672,-0.03125,-0.125,-0.09375,0.0,0.0,0.0
1695391436088,-0.2626953,-0.7421875,0.6503906,0.03125,0.0,-0.03125,0.0,0.0,0.0
1695391436122,-0.25683594,-0.74609375,0.6513672,0.09375,-0.125,-0.09375,0.0,0.0,0.0
1695391436167,-0.265625,-0.73828125,0.6484375,0.34375,0.0,-0.15625,0.0,0.0,0.0
1695391436200,-0.25585938,-0.74121094,0.6376953,0.15625,0.0,0.03125,0.0,0.0,0.0
1695391436245,-0.2626953,-0.7480469,0.64453125,-0.21875,0.0,0.09375,0.0,0.0,0.0
1695391436279,-0.25585938,-0.74316406,0.6464844,-0.03125,-0.0625,-0.03125,0.0,0.0,0.0
1695391436324,-0.265625,-0.7451172,0.6425781,-0.03125,-0.1875,0.09375,-53.875,-20.8125,-89.0
1695391436358,-0.25976562,-0.7363281,0.64453125,-0.03125,0.0625,0.03125,0.0,0.0,0.0
1695391436403,-0.2626953,-0.7392578,0.6464844,0.03125,0.0625,0.03125,0.0,0.0,0.0
1695391436448,-0.26171875,-0.75097656,0.64941406,-0.03125,-0.0625,-0.03125,0.0,0.0,0.0
1695391436482,-0.26660156,-0.7421875,0.65527344,-0.09375,-0.125,0.03125,0.0,0.0,0.0
1695391436527,-0.25976562,-0.74121094,0.6455078,-0.09375,-0.125,-0.15625,0.0,0.0,0.0
1695391436561,-0.26660156,-0.7441406,0.6484375,-0.03125,-0.0625,0.15625,0.0,0.0,0.0
1695391436605,-0.26171875,-0.74609375,0.65527344,0.09375,-0.125,-0.21875,0.0,0.0,0.0
1695391436650,-0.25683594,-0.7402344,0.6513672,0.28125,-0.125,-0.15625,0.0,0.0,0.0
1695391436684,-0.2626953,-0.74121094,0.65722656,-0.40625,0.125,0.28125,0.0,0.0,0.0
1695391436718,-0.2626953,-0.74609375,0.6464844,-0.5,0.3125,0.28125,0.0,0.0,0.0
1695391436763,-0.25585938,-0.74609375,0.6464844,-0.5,0.125,0.15625,0.0,0.0,0.0
1695391436809,-0.2607422,-0.7421875,0.64160156,0.65625,-0.5,-0.21875,0.0,0.0,0.0
1695391436842,-0.2626953,-0.7421875,0.66796875,0.875,-0.5625,-0.28125,-53.6875,-20.9375,-88.875
1695391436887,-0.2626953,-0.7373047,0.66015625,0.21875,-0.4375,-0.09375,0.0,0.0,0.0
1695391436920,-0.2607422,-0.75,0.6376953,0.28125,-0.125,-0.34375,0.0,0.0,0.0
1695391436965,-0.25683594,-0.74121094,0.6689453,-0.21875,0.125,-0.28125,0.0,0.0,0.0
1695391436999,-0.2548828,-0.75,0.6503906,-1.1875,0.3125,-0.09375,0.0,0.0,0.0
1695391437044,-0.2548828,-0.7402344,0.6503906,-1.0625,0.375,-0.15625,0.0,0.0,0.0
1695391437078,-0.26367188,-0.7441406,0.63964844,-0.4375,-0.1875,-0.09375,0.0,0.0,0.0
1695391437123,-0.26953125,-0.74609375,0.64160156,-0.03125,-0.0625,-0.09375,0.0,0.0,0.0
1695391437169,-0.24511719,-0.75097656,0.6660156,0.21875,-0.1875,-0.09375,0.0,0.0,0.0
1695391437201,-0.2548828,-0.7421875,0.65625,0.34375,-0.125,-0.28125,0.0,0.0,0.0
1695391437247,-0.25976562,-0.75,0.6503906,0.71875,-0.3125,0.03125,0.0,0.0,0.0
1695391437280,-0.26367188,-0.74121094,0.65527344,0.21875,-0.3125,0.4375,0.0,0.0,0.0
1695391437325,-0.25976562,-0.7421875,0.64746094,-0.09375,-0.125,0.4375,-52.9375,-20.9375,-88.25
1695391437359,-0.265625,-0.73535156,0.6582031,-0.15625,-0.125,0.6875,0.0,0.0,0.0
1695391437404,-0.26464844,-0.7363281,0.6435547,-0.21875,-0.375,0.8125,0.0,0.0,0.0
1695391437453,-0.2607422,-0.74609375,0.6503906,-0.5625,-0.375,0.875,0.0,0.0,0.0
1695391437483,-0.25683594,-0.74121094,0.65625,-1.0625,-0.125,0.8125,0.0,0.0,0.0
1695391437529,-0.26367188,-0.7529297,0.64746094,-0.9375,-0.1875,0.75,0.0,0.0,0.0
1695391437562,-0.2578125,-0.75683594,0.6425781,-0.28125,-0.25,0.09375,0.0,0.0,0.0
1695391437606,-0.2607422,-0.734375,0.6484375,0.40625,-0.84375,0.09375,0.0,0.0,0.0
1695391437641,-0.2734375,-0.74316406,0.6513672,1.1875,-0.4375,0.5625,0.0,0.0,0.0
1695391437685,-0.2607422,-0.74902344,0.6455078,0.59375,-0.3125,-0.40625,0.0,0.0,0.0
1695391437719,-0.26367188,-0.7421875,0.65234375,0.15625,0.0625,0.21875,0.0,0.0,0.0
1695391437764,-0.25585938,-0.7451172,0.64453125,-0.5,-0.125,0.21875,0.0,0.0,0.0
1695391437809,-0.2548828,-0.7470703,0.6425781,-0.6875,0.0625,0.03125,0.0,0.0,0.0
1695391437845,-0.26367188,-0.74121094,0.64160156,-0.34375,-0.0625,0.28125,-51.125,-21.6875,-88.25
1695391437889,-0.26757812,-0.7451172,0.6542969,-0.15625,-0.0625,0.21875,0.0,0.0,0.0
1695391437922,-0.25390625,-0.7373047,0.64941406,-0.15625,0.0,0.03125,0.0,0.0,0.0
1695391437967,-0.2529297,-0.74609375,0.6513672,-0.09375,-0.0625,-0.03125,0.0,0.0,0.0
1695391438001,-0.2626953,-0.7373047,0.6464844,-0.03125,-0.0625,0.03125,0.0,0.0,0.0
1695391438045,-0.25878906,-0.7402344,0.6455078,-0.03125,-0.125,0.09375,0.0,0.0,0.0
1695391438079,-0.24804688,-0.7421875,0.6455078,-0.09375,-0.0625,0.09375,0.0,0.0,0.0
1695391438124,-0.25976562,-0.7392578,0.6513672,-0.09375,-0.0625,0.09375,0.0,0.0,0.0
1695391438169,-0.26660156,-0.7392578,0.64941406,-0.34375,0.125,0.03125,0.0,0.0,0.0
1695391438204,-0.25683594,-0.73828125,0.65234375,0.03125,-0.125,-0.03125,0.0,0.0,0.0
1695391438250,-0.25976562,-0.7519531,0.6582031,-0.03125,0.1875,0.21875,0.0,0.0,0.0
1695391438282,-0.2578125,-0.7441406,0.6591797,-0.625,0.1875,0.28125,0.0,0.0,0.0
1695391438327,-0.2685547,-0.7421875,0.64941406,-0.5625,-0.0625,0.3125,-52.8125,-22.1875,-89.4375
1695391438361,-0.25976562,-0.7451172,0.63671875,-0.15625,0.125,0.03125,0.0,0.0,0.0
1695391438405,-0.2607422,-0.73828125,0.6464844,-0.15625,0.125,0.09375,0.0,0.0,0.0
1695391438439,-0.2607422,-0.7392578,0.64160156,-0.09375,0.0625,-0.03125,0.0,0.0,0.0
1695391438484,-0.25683594,-0.7402344,0.6503906,0.09375,0.25,-0.03125,0.0,0.0,0.0
1695391438528,-0.25976562,-0.7470703,0.6347656,-0.03125,-0.0625,0.03125,0.0,0.0,0.0
1695391438563,-0.26757812,-0.73535156,0.64941406,-0.15625,-0.1875,0.21875,0.0,0.0,0.0
1695391438608,-0.2626953,-0.73828125,0.64941406,-0.09375,-0.125,0.15625,0.0,0.0,0.0
1695391438641,-0.265625,-0.74902344,0.6435547,-0.03125,-0.0625,0.28125,0.0,0.0,0.0
1695391438687,-0.2578125,-0.7421875,0.63671875,-0.09375,-0.125,0.28125,0.0,0.0,0.0
1695391438720,-0.26464844,-0.7451172,0.64160156,-0.09375,-0.0625,0.09375,0.0,0.0,0.0
1695391438765,-0.2607422,-0.734375,0.6435547,-0.28125,-0.0625,0.21875,0.0,0.0,0.0
1695391438810,-0.2626953,-0.74121094,0.6503906,-0.21875,0.0,0.15625,0.0,0.0,0.0
1695391438844,-0.26367188,-0.7441406,0.6591797,-0.34375,0.0625,0.15625,-53.6875,-21.6875,-88.25
1695391438923,-0.26171875,-0.75,0.63964844,-0.15625,0.0625,0.15625,0.0,0.0,0.0
1695391438926,-0.2626953,-0.7363281,0.6464844,-0.09375,-0.125,0.28125,0.0,0.0,0.0
1695391438968,-0.26757812,-0.7480469,0.6542969,0.21875,0.0,-0.03125,0.0,0.0,0.0
1695391439001,-0.2685547,-0.74609375,0.65722656,-0.21875,0.1875,0.03125,0.0,0.0,0.0
1695391439047,-0.25683594,-0.7421875,0.6425781,-0.09375,0.0,0.09375,0.0,0.0,0.0
1695391439081,-0.26367188,-0.74902344,0.6191406,-0.15625,-0.1875,0.03125,0.0,0.0,0.0
1695391439125,-0.26367188,-0.7402344,0.6376953,0.15625,-0.375,-0.09375,0.0,0.0,0.0
1695391439170,-0.27246094,-0.7363281,0.65234375,-0.03125,-0.125,-0.15625,0.0,0.0,0.0
1695391439203,-0.26660156,-0.7451172,0.64453125,0.15625,-0.0625,-0.28125,0.0,0.0,0.0
1695391439249,-0.26367188,-0.7441406,0.64453125,0.34375,0.0,-0.40625,0.0,0.0,0.0
1695391439283,-0.2607422,-0.7441406,0.6503906,0.15625,0.0625,-0.21875,0.0,0.0,0.0
1695391439328,-0.25976562,-0.74609375,0.6542969,-0.03125,-0.125,-0.09375,-54.125,-19.4375,-88.875
1695391439362,-0.26171875,-0.7578125,0.6455078,0.03125,-0.0625,-0.15625,0.0,0.0,0.0
1695391439407,-0.2578125,-0.74609375,0.6464844,0.03125,-0.0625,-0.09375,0.0,0.0,0.0
1695391439485,-0.26367188,-0.7314453,0.625,0.03125,-0.0625,-0.15625,0.0,0.0,0.0
1695391439487,-0.25976562,-0.7421875,0.6435547,0.15625,-0.1875,-0.15625,0.0,0.0,0.0
1695391439530,-0.2734375,-0.74121094,0.6376953,0.09375,-0.0625,0.03125,0.0,0.0,0.0
1695391439564,-0.2626953,-0.7363281,0.64941406,-0.03125,-0.1875,-0.09375,0.0,0.0,0.0
1695391439609,-0.27148438,-0.7402344,0.6425781,-0.03125,0.0,-0.15625,0.0,0.0,0.0
1695391439643,-0.2578125,-0.74609375,0.6503906,-0.15625,-0.0625,-0.03125,0.0,0.0,0.0
1695391439687,-0.25976562,-0.74609375,0.6503906,0.21875,-0.0625,-0.03125,0.0,0.0,0.0
1695391439721,-0.2548828,-0.74902344,0.6484375,0.03125,0.0,-0.03125,0.0,0.0,0.0
1695391439767,-0.26660156,-0.7470703,0.64160156,-0.21875,0.0625,-0.03125,0.0,0.0,0.0
1695391439802,-0.25976562,-0.7441406,0.6464844,-0.21875,0.0,-0.15625,0.0,0.0,0.0
1695391439845,-0.26757812,-0.7451172,0.6386719,-0.09375,-0.125,-0.21875,-52.9375,-20.9375,-88.875
1695391439892,-0.2607422,-0.73339844,0.64453125,0.15625,0.0,-0.15625,0.0,0.0,0.0
1695391439924,-0.2626953,-0.7402344,0.64941406,0.03125,-0.1875,-0.21875,0.0,0.0,0.0
1695391439969,-0.25976562,-0.734375,0.64160156,0.09375,-0.0625,-0.21875,0.0,0.0,0.0
1695391440005,-0.2607422,-0.7392578,0.6503906,0.09375,0.0625,-0.09375,0.0,0.0,0.0
1695391440048,-0.25878906,-0.74902344,0.65527344,-0.15625,-0.0625,0.09375,0.0,0.0,0.0
1695391440081,-0.25878906,-0.734375,0.6591797,0.03125,-0.0625,-0.03125,0.0,0.0,0.0
1695391440127,-0.26757812,-0.74609375,0.65527344,0.21875,-0.125,-0.09375,0.0,0.0,0.0
1695391440171,-0.26660156,-0.74316406,0.6503906,0.03125,-0.0625,0.03125,0.0,0.0,0.0
1695391440205,-0.26660156,-0.7451172,0.65234375,0.03125,0.0,0.03125,0.0,0.0,0.0
1695391440251,-0.2626953,-0.7470703,0.6542969,0.03125,0.0625,-0.09375,0.0,0.0,0.0
1695391440284,-0.2607422,-0.7373047,0.64941406,0.03125,0.0625,-0.09375,0.0,0.0,0.0
1695391440329,-0.26367188,-0.7402344,0.6425781,0.15625,0.125,-0.21875,-54.4375,-21.25,-87.8125
1695391440363,-0.25683594,-0.74316406,0.640625,0.03125,0.0625,-0.03125,0.0,0.0,0.0
1695391440408,-0.26464844,-0.7470703,0.65234375,0.15625,-0.0625,-0.21875,0.0,0.0,0.0
1695391440453,-0.2607422,-0.7451172,0.64453125,0.03125,0.0,-0.03125,0.0,0.0,0.0
1695391440488,-0.25585938,-0.7529297,0.64941406,-0.09375,0.3125,0.09375,0.0,0.0,0.0
1695391440531,-0.25878906,-0.7441406,0.64746094,-0.40625,0.0625,0.03125,0.0,0.0,0.0
1695391440565,-0.2578125,-0.74609375,0.65527344,0.03125,0.0,-0.15625,0.0,0.0,0.0
1695391440610,-0.25878906,-0.7421875,0.65234375,-0.03125,-0.25,-0.15625,0.0,0.0,0.0
1695391440643,-0.265625,-0.7421875,0.6611328,-0.09375,-0.0625,-0.21875,0.0,0.0,0.0
1695391440689,-0.2578125,-0.75,0.6484375,0.09375,0.0625,-0.21875,0.0,0.0,0.0
1695391440723,-0.25585938,-0.74902344,0.6513672,0.21875,0.0,-0.15625,0.0,0.0,0.0
1695391440768,-0.2578125,-0.74121094,0.6513672,-0.03125,-0.1875,-0.03125,0.0,0.0,0.0
1695391440802,-0.2548828,-0.7421875,0.6425781,-0.09375,-0.125,-0.03125,0.0,0.0,0.0
1695391440847,-0.25585938,-0.7451172,0.65234375,0.21875,-0.125,-0.03125,-53.25,-20.375,-90.8125
1695391440891,-0.26367188,-0.7392578,0.6582031,0.03125,0.0,-0.03125,0.0,0.0,0.0
1695391440925,-0.25585938,-0.734375,0.64453125,-0.03125,0.125,-0.09375,0.0,0.0,0.0
1695391440970,-0.2578125,-0.7421875,0.6611328,0.03125,0.0,-0.09375,0.0,0.0,0.0
1695391441004,-0.25878906,-0.7480469,0.64453125,0.09375,0.0,-0.03125,0.0,0.0,0.0
1695391441049,-0.265625,-0.7441406,0.64746094,-0.03125,0.0,-0.03125,0.0,0.0,0.0
1695391441082,-0.26171875,-0.7519531,0.6533203,-0.03125,-0.0625,-0.03125,0.0,0.0,0.0
1695391441128,-0.25976562,-0.73828125,0.6513672,-0.03125,0.0,-0.03125,0.0,0.0,0.0
1695391441161,-0.26367188,-0.7421875,0.6542969,0.03125,-0.125,0.03125,0.0,0.0,0.0
1695391441206,-0.25585938,-0.7470703,0.64746094,0.15625,-0.0625,-0.15625,0.0,0.0,0.0
1695391441251,-0.26464844,-0.7421875,0.65625,-0.09375,0.25,0.09375,0.0,0.0,0.0
1695391441285,-0.2578125,-0.74902344,0.6513672,-0.34375,0.0625,0.09375,0.0,0.0,0.0
1695391441330,-0.265625,-0.74316406,0.6542969,-0.09375,-0.0625,-0.15625,-53.6875,-20.9375,-88.5625
1695391441364,-0.25976562,-0.7441406,0.63964844,0.09375,0.0,-0.21875,0.0,0.0,0.0
1695391441409,-0.25976562,-0.74121094,0.66015625,-0.03125,0.0,-0.09375,0.0,0.0,0.0
1695391441443,-0.25976562,-0.7480469,0.6484375,0.15625,-0.0625,-0.28125,0.0,0.0,0.0
1695391441487,-0.26367188,-0.7441406,0.6425781,0.15625,0.0625,-0.21875,0.0,0.0,0.0
1695391441522,-0.26367188,-0.7480469,0.65527344,0.03125,0.0625,0.03125,0.0,0.0,0.0
1695391441566,-0.2626953,-0.74121094,0.6464844,-0.03125,-0.125,-0.03125,0.0,0.0,0.0
1695391441645,-0.26464844,-0.7402344,0.63671875,0.21875,-0.1875,-0.09375,0.0,0.0,0.0
1695391441647,-0.26464844,-0.7421875,0.65722656,0.03125,0.0,-0.03125,0.0,0.0,0.0
1695391441690,-0.2626953,-0.7402344,0.6542969,-0.03125,0.125,-0.03125,0.0,0.0,0.0
1695391441724,-0.2578125,-0.7470703,0.6425781,-0.03125,0.0,-0.03125,0.0,0.0,0.0
1695391441769,-0.25878906,-0.7451172,0.65722656,-0.03125,-0.0625,0.03125,0.0,0.0,0.0
1695391441802,-0.2578125,-0.74121094,0.6513672,-0.09375,0.0625,0.03125,0.0,0.0,0.0
1695391441848,-0.26953125,-0.7402344,0.66308594,-0.09375,-0.125,-0.03125,-53.375,-22.3125,-88.5625
1695391441894,-0.25976562,-0.74316406,0.6455078,-0.03125,0.0625,0.03125,0.0,0.0,0.0
1695391441928,-0.26367188,-0.74609375,0.66015625,-0.03125,0.125,0.03125,0.0,0.0,0.0
1695391441971,-0.25878906,-0.7451172,0.65234375,0.21875,0.0,0.03125,0.0,0.0,0.0
1695391442005,-0.2626953,-0.74609375,0.6435547,-0.09375,0.125,0.03125,0.0,0.0,0.0
1695391442051,-0.25976562,-0.7480469,0.6503906,-0.21875,0.25,0.28125,0.0,0.0,0.0
1695391442084,-0.26757812,-0.73828125,0.6464844,-0.09375,0.0625,0.15625,0.0,0.0,0.0
1695391442129,-0.26367188,-0.7451172,0.63671875,0.03125,0.0625,0.03125,0.0,0.0,0.0
1695391442163,-0.2626953,-0.7451172,0.640625,-0.21875,0.0625,0.15625,0.0,0.0,0.0
1695391442208,-0.25683594,-0.7480469,0.640625,0.03125,0.0625,-0.09375,0.0,0.0,0.0
1695391442254,-0.2705078,-0.73535156,0.64746094,-0.03125,0.125,-0.09375,0.0,0.0,0.0
1695391442287,-0.2685547,-0.7402344,0.64746094,-0.09375,0.125,0.09375,0.0,0.0,0.0
1695391442331,-0.26464844,-0.7373047,0.64453125,-0.09375,0.0625,0.15625,-53.5625,-21.125,-87.625
1695391442365,-0.27539062,-0.7451172,0.64746094,-0.03125,-0.125,0.09375,0.0,0.0,0.0
1695391442410,-0.26757812,-0.7421875,0.64941406,-0.03125,-0.0625,0.03125,0.0,0.0,0.0
1695391442444,-0.26757812,-0.74121094,0.640625,-0.03125,0.125,0.15625,0.0,0.0,0.0
1695391442489,-0.26367188,-0.7451172,0.6513672,-0.03125,0.125,0.09375,0.0,0.0,0.0
1695391442522,-0.26757812,-0.75097656,0.6455078,-0.03125,0.0625,0.15625,0.0,0.0,0.0
1695391442568,-0.26660156,-0.73535156,0.64746094,0.03125,0.0,-0.03125,0.0,0.0,0.0
1695391442614,-0.26757812,-0.7402344,0.64453125,-0.21875,0.0625,0.03125,0.0,0.0,0.0
1695391442647,-0.25683594,-0.7451172,0.65527344,-0.34375,0.25,0.09375,0.0,0.0,0.0
1695391442691,-0.26464844,-0.74902344,0.64160156,-0.21875,0.125,0.03125,0.0,0.0,0.0
1695391442725,-0.26953125,-0.75097656,0.65234375,-0.28125,0.0625,0.09375,0.0,0.0,0.0
1695391442770,-0.26367188,-0.7451172,0.63671875,-0.40625,0.25,0.28125,0.0,0.0,0.0
1695391442804,-0.26953125,-0.7558594,0.640625,-0.15625,-0.125,0.03125,0.0,0.0,0.0
1695391442849,-0.26757812,-0.73828125,0.64453125,-0.15625,-0.0625,0.09375,-53.6875,-20.6875,-89.125
1695391442883,-0.26757812,-0.7470703,0.6435547,0.21875,0.0,-0.21875,0.0,0.0,0.0
1695391442929,-0.2705078,-0.7451172,0.6455078,0.15625,0.0625,-0.28125,0.0,0.0,0.0
1695391442974,-0.26757812,-0.7451172,0.6464844,0.15625,0.0625,-0.15625,0.0,0.0,0.0
1695391443007,-0.2607422,-0.7421875,0.64941406,0.09375,-0.125,-0.15625,0.0,0.0,0.0
1695391443051,-0.2685547,-0.7441406,0.64746094,0.09375,-0.0625,-0.09375,0.0,0.0,0.0
1695391443085,-0.26757812,-0.7451172,0.64453125,-0.03125,-0.1875,-0.28125,0.0,0.0,0.0
1695391443131,-0.26464844,-0.7402344,0.64941406,0.15625,-0.125,-0.34375,0.0,0.0,0.0
1695391443164,-0.26660156,-0.75,0.6484375,0.28125,-0.125,-0.34375,0.0,0.0,0.0
1695391443209,-0.27148438,-0.7451172,0.65625,0.21875,-0.0625,-0.28125,0.0,0.0,0.0
1695391443254,-0.2626953,-0.75097656,0.65527344,0.03125,0.0,-0.21875,0.0,0.0,0.0
1695391443289,-0.26464844,-0.7451172,0.6357422,-0.03125,-0.0625,-0.46875,0.0,0.0,0.0
1695391443335,-0.26464844,-0.75,0.64160156,-0.09375,-0.125,-0.28125,-52.625,-21.6875,-88.875
1695391443367,-0.26171875,-0.7363281,0.63964844,0.09375,0.0,-0.40625,0.0,0.0,0.0
1695391443411,-0.26757812,-0.7451172,0.65527344,0.21875,-0.125,-0.28125,0.0,0.0,0.0
1695391443445,-0.26464844,-0.7529297,0.6542969,-0.09375,0.0625,-0.03125,0.0,0.0,0.0
1695391443490,-0.26464844,-0.73828125,0.66503906,-0.09375,-0.0625,-0.15625,0.0,0.0,0.0
1695391443524,-0.2607422,-0.74902344,0.63183594,0.03125,0.0,-0.21875,0.0,0.0,0.0
1695391443569,-0.25976562,-0.7470703,0.6513672,0.28125,-0.1875,-0.21875,0.0,0.0,0.0
1695391443614,-0.26464844,-0.7480469,0.6542969,0.28125,-0.25,-0.21875,0.0,0.0,0.0
1695391443649,-0.2734375,-0.7421875,0.64941406,0.09375,0.0,-0.03125,0.0,0.0,0.0
1695391443694,-0.26953125,-0.73828125,0.6376953,-0.03125,-0.0625,-0.34375,0.0,0.0,0.0
1695391443727,-0.265625,-0.74121094,0.64160156,0.15625,0.0625,-0.15625,0.0,0.0,0.0
1695391443771,-0.26757812,-0.7402344,0.64453125,0.03125,0.0625,-0.09375,0.0,0.0,0.0
1695391443805,-0.26171875,-0.74609375,0.6513672,-0.03125,0.0,-0.21875,0.0,0.0,0.0
1695391443850,-0.26757812,-0.7529297,0.64453125,0.09375,0.0,-0.09375,-53.375,-22.0,-87.5
1695391443884,-0.26464844,-0.7470703,0.6376953,0.28125,-0.0625,-0.21875,0.0,0.0,0.0
1695391443929,-0.26660156,-0.7402344,0.6503906,0.21875,-0.0625,-0.21875,0.0,0.0,0.0
1695391443973,-0.265625,-0.7392578,0.6435547,0.15625,0.0625,-0.09375,0.0,0.0,0.0
1695391444010,-0.25878906,-0.7421875,0.6464844,0.21875,-0.125,-0.21875,0.0,0.0,0.0
1695391444054,-0.2705078,-0.7314453,0.6455078,-0.03125,-0.1875,-0.21875,0.0,0.0,0.0
1695391444088,-0.2607422,-0.7402344,0.6621094,0.03125,-0.0625,-0.09375,0.0,0.0,0.0
1695391444131,-0.2626953,-0.7470703,0.6582031,0.03125,0.0,0.03125,0.0,0.0,0.0
1695391444165,-0.2626953,-0.7441406,0.65527344,-0.21875,0.25,0.09375,0.0,0.0,0.0
1695391444210,-0.25390625,-0.7392578,0.6435547,-0.5625,0.125,-0.03125,0.0,0.0,0.0
1695391444244,-0.2626953,-0.74609375,0.6513672,-0.15625,0.0,-0.21875,0.0,0.0,0.0
1695391444288,-0.25585938,-0.7470703,0.64941406,0.03125,0.0,-0.21875,0.0,0.0,0.0
1695391444333,-0.25683594,-0.7392578,0.6435547,0.09375,0.0,-0.09375,-54.125,-22.3125,-88.875
1695391444368,-0.2626953,-0.7441406,0.65234375,0.46875,-0.1875,-0.28125,0.0,0.0,0.0
1695391444413,-0.2607422,-0.74902344,0.6464844,0.53125,-0.125,-0.34375,0.0,0.0,0.0
1695391444447,-0.2529297,-0.7441406,0.64941406,0.28125,-0.125,0.09375,0.0,0.0,0.0
1695391444491,-0.25585938,-0.73535156,0.6484375,-0.1875,-0.15625,0.40625,0.0,0.0,0.0
1695391444525,-0.2734375,-0.74609375,0.6513672,-0.25,0.09375,0.40625,0.0,0.0,0.0
1695391444572,-0.26660156,-0.74121094,0.63378906,-0.46875,0.09375,0.40625,0.0,0.0,0.0
1695391444604,-0.26660156,-0.7392578,0.63671875,-0.34375,0.28125,0.21875,0.0,0.0,0.0
1695391444649,-0.2626953,-0.7441406,0.6582031,-0.28125,0.09375,0.125,0.0,0.0,0.0
1695391444694,-0.26171875,-0.74316406,0.66503906,-0.0625,0.09375,0.0,0.0,0.0,0.0
1695391444728,-0.25976562,-0.7451172,0.6464844,-0.1875,0.09375,0.1875,0.0,0.0,0.0
1695391444774,-0.2578125,-0.74902344,0.65527344,-0.1875,-0.03125,0.0625,0.0,0.0,0.0
1695391444806,-0.25878906,-0.7402344,0.6435547,-0.0625,0.15625,0.34375,0.0,0.0,0.0
1695391444851,-0.2578125,-0.7421875,0.65234375,-0.125,-0.09375,0.21875,-53.5625,-20.8125,-89.0
1695391444885,-0.2626953,-0.7421875,0.65234375,-0.0625,0.03125,0.34375,0.0,0.0,0.0
1695391444930,-0.2626953,-0.7373047,0.6611328,-0.40625,0.28125,0.40625,0.0,0.0,0.0
1695391444975,-0.2685547,-0.7451172,0.6513672,-0.65625,0.28125,0.53125,0.0,0.0,0.0
1695391445008,-0.26464844,-0.74902344,0.65625,-0.25,0.03125,0.125,0.0,0.0,0.0
1695391445054,-0.2685547,-0.74902344,0.6464844,0.0,-0.03125,0.0625,0.0,0.0,0.0
1695391445088,-0.2607422,-0.7441406,0.64746094,-0.0625,0.03125,0.125,0.0,0.0,0.0
1695391445132,-0.265625,-0.74609375,0.63378906,-0.0625,0.21875,0.125,0.0,0.0,0.0
1695391445167,-0.2578125,-0.73828125,0.64941406,-0.1875,0.15625,0.21875,0.0,0.0,0.0
1695391445211,-0.2607422,-0.74121094,0.6513672,-0.25,0.09375,0.34375,0.0,0.0,0.0
1695391445245,-0.26757812,-0.7392578,0.625,-0.1875,-0.03125,0.21875,0.0,0.0,0.0
1695391445290,-0.2685547,-0.7451172,0.6347656,-0.125,-0.03125,0.125,0.0,0.0,0.0
1695391445335,-0.26757812,-0.74609375,0.6533203,-0.0625,0.03125,0.0,-52.0625,-21.125,-88.6875
1695391445369,-0.26660156,-0.7480469,0.6435547,0.125,-0.09375,0.0,0.0,0.0,0.0
1695391445414,-0.26464844,-0.74902344,0.6455078,0.4375,-0.15625,-0.25,0.0,0.0,0.0
1695391445448,-0.2578125,-0.7421875,0.6464844,0.0,-0.09375,-0.0625,0.0,0.0,0.0
1695391445492,-0.265625,-0.7392578,0.65722656,-0.0625,0.15625,-0.375,0.0,0.0,0.0
1695391445527,-0.26660156,-0.7421875,0.6386719,-0.34375,0.03125,-0.0625,0.0,0.0,0.0
1695391445571,-0.2626953,-0.74902344,0.6435547,-0.0625,0.03125,-0.125,0.0,0.0,0.0
1695391445605,-0.25878906,-0.7470703,0.6533203,0.375,-0.15625,-0.125,0.0,0.0,0.0
1695391445650,-0.2607422,-0.74316406,0.64746094,0.0,-0.15625,0.0625,0.0,0.0,0.0
1695391445695,-0.26464844,-0.7451172,0.63671875,-0.0625,0.21875,0.1875,0.0,0.0,0.0
1695391445728,-0.2685547,-0.7421875,0.65625,-0.25,0.03125,0.125,0.0,0.0,0.0
1695391445774,-0.27148438,-0.7392578,0.640625,0.0,-0.09375,0.0,0.0,0.0,0.0
1695391445807,-0.25585938,-0.7441406,0.64453125,0.75,-0.40625,-0.1875,0.0,0.0,0.0
1695391445853,-0.27441406,-0.7421875,0.64746094,1.03125,-0.34375,-0.5625,-52.375,-20.9375,-88.5625
1695391445887,-0.25390625,-0.7451172,0.64160156,0.375,0.03125,-0.0625,0.0,0.0,0.0
1695391445931,-0.26367188,-0.7480469,0.6582031,-0.90625,0.46875,0.53125,0.0,0.0,0.0
1695391445965,-0.2607422,-0.7402344,0.640625,-1.09375,0.28125,0.59375,0.0,0.0,0.0
1695391446010,-0.2685547,-0.73046875,0.6484375,-0.71875,0.03125,0.40625,0.0,0.0,0.0
1695391446055,-0.26367188,-0.74902344,0.6376953,0.25,-0.40625,-0.1875,0.0,0.0,0.0
1695391446089,-0.2783203,-0.7451172,0.6464844,0.8125,-0.28125,-0.375,0.0,0.0,0.0
1695391446134,-0.2626953,-0.7421875,0.64746094,0.1875,0.03125,-0.5625,0.0,0.0,0.0
1695391446168,-0.25585938,-0.74316406,0.65625,-0.1875,0.15625,-0.5,0.0,0.0,0.0
1695391446213,-0.26464844,-0.7441406,0.6542969,-0.34375,0.15625,-0.125,0.0,0.0,0.0
1695391446246,-0.2685547,-0.74121094,0.6386719,-0.125,-0.15625,0.0625,0.0,0.0,0.0
1695391446291,-0.25976562,-0.73828125,0.62890625,-0.0625,-0.21875,0.21875,0.0,0.0,0.0
1695391446336,-0.2607422,-0.75,0.63964844,0.0625,-0.15625,0.21875,-54.625,-22.1875,-89.75
1695391446370,-0.25,-0.75390625,0.6503906,0.375,-0.21875,0.0,0.0,0.0,0.0
1695391446448,-0.26171875,-0.74609375,0.64746094,0.5625,-0.15625,0.0625,0.0,0.0,0.0
1695391446460,-0.25976562,-0.74609375,0.6484375,0.125,-0.09375,0.34375,0.0,0.0,0.0
1695391446494,-0.26171875,-0.7480469,0.64746094,-0.59375,0.15625,0.46875,0.0,0.0,0.0
1695391446528,-0.27441406,-0.74121094,0.6464844,-0.96875,0.21875,0.46875,0.0,0.0,0.0
1695391446573,-0.26953125,-0.73535156,0.65527344,-0.84375,0.28125,0.125,0.0,0.0,0.0
1695391446607,-0.26367188,-0.7470703,0.6542969,-0.40625,0.21875,-0.3125,0.0,0.0,0.0
1695391446651,-0.26660156,-0.7519531,0.64160156,0.0625,0.03125,-0.375,0.0,0.0,0.0
1695391446696,-0.25878906,-0.74316406,0.6503906,0.5,0.03125,-0.5,0.0,0.0,0.0
1695391446730,-0.25585938,-0.7470703,0.6503906,1.03125,-0.34375,-0.25,0.0,0.0,0.0
1695391446775,-0.25585938,-0.74121094,0.66503906,0.875,-0.28125,0.34375,0.0,0.0,0.0
1695391446809,-0.25976562,-0.7363281,0.6611328,0.0,-0.09375,0.78125,0.0,0.0,0.0
1695391446854,-0.2685547,-0.7363281,0.6328125,-0.46875,-0.15625,0.59375,-53.375,-20.6875,-87.5
1695391446887,-0.26367188,-0.7451172,0.6455078,-0.40625,0.03125,0.21875,0.0,0.0,0.0
1695391446933,-0.26367188,-0.74902344,0.66015625,-0.40625,0.15625,0.1875,0.0,0.0,0.0
1695391447011,-0.26464844,-0.75,0.640625,-0.0625,0.15625,-0.3125,0.0,0.0,0.0
1695391447015,-0.2685547,-0.75097656,0.6464844,0.0625,0.21875,-0.1875,0.0,0.0,0.0
1695391447056,-0.2626953,-0.7470703,0.63671875,-0.28125,0.21875,-0.0625,0.0,0.0,0.0
1695391447090,-0.265625,-0.7392578,0.64941406,-0.34375,0.03125,-0.0625,0.0,0.0,0.0
1695391447135,-0.26660156,-0.7470703,0.640625,-0.0625,-0.09375,0.125,0.0,0.0,0.0
1695391447169,-0.25390625,-0.7441406,0.6533203,0.125,-0.09375,0.1875,0.0,0.0,0.0
1695391447224,-0.26367188,-0.7519531,0.63671875,0.375,-0.28125,0.125,0.0,0.0,0.0
1695391447247,-0.26367188,-0.73828125,0.6386719,0.125,-0.28125,0.125,0.0,0.0,0.0
1695391447293,-0.26464844,-0.74121094,0.65722656,0.4375,-0.15625,0.0625,0.0,0.0,0.0
1695391447338,-0.26660156,-0.74121094,0.65722656,0.125,-0.09375,0.1875,-52.625,-19.9375,-88.875
1695391447371,-0.26171875,-0.74121094,0.6582031,-0.59375,0.21875,0.34375,0.0,0.0,0.0
1695391447416,-0.26171875,-0.74121094,0.65625,-0.65625,0.40625,0.1875,0.0,0.0,0.0
1695391447450,-0.2626953,-0.7451172,0.6464844,-0.53125,0.21875,0.0625,0.0,0.0,0.0
1695391447495,-0.2685547,-0.75,0.6464844,-0.40625,0.09375,-0.1875,0.0,0.0,0.0
1695391447529,-0.26660156,-0.7441406,0.64941406,-0.125,0.09375,-0.1875,0.0,0.0,0.0
1695391447574,-0.2578125,-0.75097656,0.6513672,0.25,0.03125,-0.25,0.0,0.0,0.0
1695391447608,-0.2626953,-0.75097656,0.6484375,0.375,-0.09375,-0.125,0.0,0.0,0.0
1695391447653,-0.2607422,-0.75683594,0.6455078,0.0,-0.03125,0.125,0.0,0.0,0.0
1695391447686,-0.25976562,-0.7480469,0.64746094,-0.1875,-0.09375,0.0625,0.0,0.0,0.0
1695391447731,-0.2626953,-0.7480469,0.64746094,0.4375,-0.21875,0.1875,0.0,0.0,0.0
1695391447777,-0.26464844,-0.7470703,0.640625,0.4375,-0.34375,0.40625,0.0,0.0,0.0
1695391447810,-0.26953125,-0.73828125,0.65722656,-0.1875,0.21875,0.40625,-52.625,-21.6875,-88.25
1695391447855,-0.26367188,-0.7363281,0.64160156,-0.28125,0.15625,0.40625,0.0,0.0,0.0
1695391447889,-0.2685547,-0.74902344,0.6484375,-0.125,-0.09375,0.0625,0.0,0.0,0.0
1695391447934,-0.26757812,-0.74902344,0.65722656,0.1875,-0.21875,0.1875,0.0,0.0,0.0
1695391447967,-0.26464844,-0.7441406,0.64941406,-0.0625,-0.15625,0.21875,0.0,0.0,0.0
1695391448014,-0.26171875,-0.7421875,0.6484375,-0.25,0.03125,0.1875,0.0,0.0,0.0
1695391448060,-0.265625,-0.7392578,0.640625,-0.65625,0.40625,0.0,0.0,0.0,0.0
1695391448091,-0.25878906,-0.75097656,0.6533203,-0.96875,0.5,-0.125,0.0,0.0,0.0
1695391448136,-0.27441406,-0.7441406,0.6484375,-0.84375,0.46875,-0.125,0.0,0.0,0.0
1695391448171,-0.25683594,-0.7421875,0.6542969,-0.1875,0.09375,-0.125,0.0,0.0,0.0
1695391448215,-0.26464844,-0.7480469,0.6386719,0.5625,-0.40625,0.0,0.0,0.0,0.0
1695391448249,-0.25585938,-0.7402344,0.65722656,1.0,-0.40625,0.21875,0.0,0.0,0.0
1695391448294,-0.25976562,-0.74609375,0.65234375,0.5,-0.53125,0.59375,0.0,0.0,0.0
1695391448327,-0.26464844,-0.74316406,0.64746094,-0.40625,-0.09375,0.65625,-52.8125,-22.1875,-87.9375
1695391448373,-0.25976562,-0.7392578,0.6513672,-0.78125,-0.03125,0.71875,0.0,0.0,0.0
1695391448419,-0.27246094,-0.74316406,0.6464844,-0.34375,0.21875,0.28125,0.0,0.0,0.0
1695391448452,-0.27246094,-0.74316406,0.6455078,-0.84375,0.40625,0.0,0.0,0.0,0.0
1695391448496,-0.2548828,-0.74902344,0.64746094,-0.0625,0.09375,-0.5,0.0,0.0,0.0
1695391448530,-0.2548828,-0.74609375,0.6503906,0.625,-0.15625,-0.5625,0.0,0.0,0.0
1695391448574,-0.25878906,-0.7480469,0.6308594,-0.1875,-0.28125,0.1875,0.0,0.0,0.0
1695391448609,-0.25097656,-0.7421875,0.64746094,-0.0625,-0.34375,0.34375,0.0,0.0,0.0
1695391448654,-0.27148438,-0.7314453,0.6464844,0.1875,-0.09375,0.34375,0.0,0.0,0.0
1695391448689,-0.26367188,-0.74121094,0.64453125,-0.96875,0.15625,0.65625,0.0,0.0,0.0
1695391448734,-0.26757812,-0.7548828,0.63964844,-0.34375,0.09375,0.34375,0.0,0.0,0.0
1695391448779,-0.26171875,-0.74121094,0.63378906,-0.0625,0.03125,0.28125,0.0,0.0,0.0
1695391448812,-0.265625,-0.7529297,0.6455078,-0.40625,0.09375,0.34375,-53.25,-20.8125,-89.75
1695391448856,-0.26660156,-0.7548828,0.6484375,-0.125,0.15625,0.1875,0.0,0.0,0.0
1695391448891,-0.2705078,-0.75,0.6455078,-0.0625,0.09375,0.28125,0.0,0.0,0.0
1695391448934,-0.26953125,-0.74121094,0.6503906,0.1875,0.09375,0.1875,0.0,0.0,0.0
1695391448969,-0.26464844,-0.7392578,0.6513672,0.125,0.09375,0.28125,0.0,0.0,0.0
1695391449014,-0.26660156,-0.72753906,0.6533203,0.25,0.03125,0.125,0.0,0.0,0.0
1695391449049,-0.25976562,-0.7441406,0.64746094,-0.0625,0.09375,0.40625,0.0,0.0,0.0
1695391449093,-0.265625,-0.74609375,0.64941406,-0.78125,0.34375,0.46875,0.0,0.0,0.0
1695391449172,-0.2607422,-0.74121094,0.65722656,-0.90625,0.46875,0.46875,0.0,0.0,0.0
1695391449174,-0.2607422,-0.74121094,0.65625,-0.78125,0.34375,0.28125,0.0,0.0,0.0
1695391449217,-0.27246094,-0.74609375,0.6386719,-0.125,0.15625,-0.0625,0.0,0.0,0.0
1695391449250,-0.26171875,-0.7421875,0.64746094,0.1875,0.03125,-0.4375,0.0,0.0,0.0
1695391449295,-0.2734375,-0.74121094,0.6533203,1.03125,-0.40625,-0.125,0.0,0.0,0.0
1695391449329,-0.26464844,-0.734375,0.6503906,0.9375,-0.46875,0.0,-54.125,-21.25,-88.25
1695391449374,-0.26464844,-0.7441406,0.6347656,0.5625,-0.40625,0.71875,0.0,0.0,0.0
1695391449418,-0.25390625,-0.73535156,0.64746094,-0.0625,-0.53125,1.09375,0.0,0.0,0.0
1695391449453,-0.2734375,-0.7392578,0.63378906,-0.59375,-0.71875,1.40625,0.0,0.0,0.0
1695391449531,-0.26660156,-0.75,0.65527344,-1.28125,-0.65625,1.34375,0.0,0.0,0.0
1695391449534,-0.265625,-0.7529297,0.65234375,-1.46875,-0.78125,1.28125,0.0,0.0,0.0
1695391449577,-0.265625,-0.7519531,0.640625,-0.90625,-0.84375,0.96875,0.0,0.0,0.0
1695391449610,-0.2626953,-0.7636719,0.63671875,-0.59375,-0.59375,0.1875,0.0,0.0,0.0
1695391449655,-0.2607422,-0.74902344,0.66308594,0.4375,-0.46875,-0.8125,0.0,0.0,0.0
1695391449689,-0.26660156,-0.73828125,0.65234375,0.3125,-0.40625,-0.3125,0.0,0.0,0.0
1695391449733,-0.2734375,-0.7470703,0.65234375,1.21875,-0.15625,-0.3125,0.0,0.0,0.0
1695391449778,-0.26464844,-0.73046875,0.65722656,0.1875,0.09375,-0.375,0.0,0.0,0.0
1695391449814,-0.27148438,-0.74121094,0.6533203,-0.25,0.15625,0.0,-53.25,-21.5625,-87.625
1695391449857,-0.26757812,-0.73535156,0.6621094,-0.90625,0.5625,-0.0625,0.0,0.0,0.0
1695391449891,-0.265625,-0.7451172,0.63671875,-1.28125,0.28125,0.1875,0.0,0.0,0.0
1695391449937,-0.2607422,-0.74609375,0.6455078,-0.46875,0.34375,0.1875,0.0,0.0,0.0
1695391449970,-0.27246094,-0.7480469,0.6357422,-0.125,0.09375,-0.1875,0.0,0.0,0.0
1695391450015,-0.2626953,-0.7402344,0.63964844,-0.0625,0.15625,0.0625,0.0,0.0,0.0
1695391450049,-0.26953125,-0.7402344,0.6455078,0.6875,-0.40625,0.0625,0.0,0.0,0.0
1695391450094,-0.26660156,-0.75390625,0.63671875,-0.40625,0.15625,0.28125,0.0,0.0,0.0
1695391450138,-0.25976562,-0.74902344,0.65625,0.3125,-0.34375,-0.375,0.0,0.0,0.0
1695391450173,-0.2626953,-0.73046875,0.6503906,-0.65625,-0.34375,0.90625,0.0,0.0,0.0
1695391450217,-0.2783203,-0.75,0.6484375,1.46875,-0.28125,-0.0625,0.0,0.0,0.0
1695391450252,-0.2578125,-0.7451172,0.65722656,-0.1875,-0.03125,0.1875,0.0,0.0,0.0
1695391450297,-0.2626953,-0.7519531,0.63671875,-0.34375,-0.03125,0.125,0.0,0.0,0.0
1695391450330,-0.2548828,-0.74121094,0.63183594,-0.1875,0.21875,-0.25,-55.625,-20.8125,-87.375
1695391450375,-0.26660156,-0.7421875,0.63964844,0.0625,0.09375,0.0,0.0,0.0,0.0
1695391450409,-0.26464844,-0.7392578,0.6464844,-0.0625,-0.15625,0.21875,0.0,0.0,0.0
1695391450453,-0.26171875,-0.7402344,0.6484375,-0.0625,0.09375,-0.125,0.0,0.0,0.0
1695391450498,-0.26367188,-0.7402344,0.6660156,-0.125,-0.03125,0.0,0.0,0.0,0.0
1695391450532,-0.2626953,-0.73535156,0.6542969,-0.25,-0.15625,0.1875,0.0,0.0,0.0
1695391450578,-0.2578125,-0.7480469,0.6513672,-0.40625,0.34375,0.1875,0.0,0.0,0.0
1695391450611,-0.2734375,-0.74121094,0.6513672,-0.53125,-0.09375,0.0,0.0,0.0,0.0
1695391450657,-0.26464844,-0.7392578,0.6533203,-0.125,-0.09375,0.0,0.0,0.0,0.0
1695391450691,-0.2734375,-0.7363281,0.65625,0.0,-0.21875,-0.0625,0.0,0.0,0.0
1695391450735,-0.2607422,-0.7421875,0.63671875,0.0625,-0.03125,-0.0625,0.0,0.0,0.0
1695391450780,-0.265625,-0.74121094,0.640625,0.25,-0.03125,-0.0625,0.0,0.0,0.0
1695391450814,-0.265625,-0.7480469,0.65234375,0.25,0.03125,0.125,-53.375,-22.75,-89.875
1695391450859,-0.2626953,-0.73339844,0.64941406,-0.125,-0.03125,0.34375,0.0,0.0,0.0
1695391450892,-0.2626953,-0.74121094,0.64941406,-0.1875,-0.09375,0.28125,0.0,0.0,0.0
1695391450938,-0.26660156,-0.7470703,0.64453125,-0.125,-0.09375,0.125,0.0,0.0,0.0
1695391450971,-0.26367188,-0.7441406,0.6484375,-0.0625,0.09375,0.21875,0.0,0.0,0.0
1695391451016,-0.26660156,-0.7392578,0.6503906,-0.0625,0.03125,0.125,0.0,0.0,0.0
1695391451050,-0.27148438,-0.7373047,0.65527344,-0.0625,0.03125,0.0625,0.0,0.0,0.0
1695391451095,-0.25683594,-0.7480469,0.64746094,-0.1875,0.09375,0.1875,0.0,0.0,0.0
1695391451140,-0.26660156,-0.7480469,0.63671875,-0.40625,0.15625,0.28125,0.0,0.0,0.0
1695391451174,-0.25683594,-0.74902344,0.6533203,-0.1875,0.03125,0.21875,0.0,0.0,0.0
1695391451219,-0.2705078,-0.7470703,0.6533203,-0.125,-0.03125,0.46875,0.0,0.0,0.0
1695391451252,-0.26367188,-0.7441406,0.6699219,-0.34375,0.21875,0.40625,0.0,0.0,0.0
1695391451298,-0.2578125,-0.7451172,0.6503906,-0.71875,0.28125,0.40625,0.0,0.0,0.0
1695391451332,-0.27246094,-0.7373047,0.63671875,-0.65625,0.21875,0.21875,-55.5,-20.6875,-88.5625
1695391451377,-0.265625,-0.7402344,0.6484375,-0.0625,-0.03125,0.21875,0.0,0.0,0.0
1695391451412,-0.26367188,-0.73535156,0.64941406,0.0625,-0.09375,0.125,0.0,0.0,0.0
1695391451455,-0.265625,-0.74902344,0.64746094,0.0,-0.03125,0.125,0.0,0.0,0.0
1695391451501,-0.2607422,-0.7441406,0.6611328,0.0625,0.09375,-0.0625,0.0,0.0,0.0
1695391451533,-0.25878906,-0.74902344,0.65722656,-0.0625,0.15625,0.1875,0.0,0.0,0.0
1695391451579,-0.2685547,-0.75097656,0.64160156,-0.25,0.09375,0.40625,0.0,0.0,0.0
1695391451613,-0.2734375,-0.7470703,0.6503906,-0.28125,-0.09375,0.28125,0.0,0.0,0.0
1695391451657,-0.27246094,-0.74121094,0.64746094,-0.1875,-0.03125,0.21875,0.0,0.0,0.0
1695391451691,-0.27148438,-0.7451172,0.6464844,-0.28125,-0.03125,0.125,0.0,0.0,0.0
1695391451736,-0.26953125,-0.7451172,0.64160156,-0.25,0.15625,0.21875,0.0,0.0,0.0
1695391451771,-0.2734375,-0.74902344,0.64941406,-0.28125,0.09375,0.1875,0.0,0.0,0.0
1695391451815,-0.27148438,-0.75,0.6376953,-0.25,0.03125,0.125,-53.25,-22.1875,-89.4375
1695391451860,-0.2626953,-0.7402344,0.64453125,-0.0625,0.03125,0.0625,0.0,0.0,0.0
1695391451894,-0.26757812,-0.74121094,0.65527344,0.0625,0.03125,0.125,0.0,0.0,0.0
1695391451939,-0.265625,-0.74121094,0.6484375,-0.40625,0.21875,0.34375,0.0,0.0,0.0
1695391451972,-0.27148438,-0.7451172,0.6455078,-0.25,0.09375,0.28125,0.0,0.0,0.0
1695391452017,-0.26464844,-0.7421875,0.64453125,-0.34375,-0.09375,0.125,0.0,0.0,0.0
1695391452052,-0.26953125,-0.7294922,0.6386719,-0.0625,-0.15625,-0.125,0.0,0.0,0.0
1695391452095,-0.26367188,-0.7402344,0.64160156,0.125,-0.03125,-0.1875,0.0,0.0,0.0
1695391452130,-0.26757812,-0.7441406,0.6386719,0.1875,-0.09375,-0.125,0.0,0.0,0.0
1695391452175,-0.2685547,-0.75097656,0.65625,0.1875,0.09375,-0.3125,0.0,0.0,0.0
1695391452220,-0.26367188,-0.7421875,0.6425781,0.0625,0.03125,-0.125,0.0,0.0,0.0
1695391452254,-0.26757812,-0.73535156,0.6591797,0.125,0.03125,-0.0625,0.0,0.0,0.0
1695391452298,-0.265625,-0.7373047,0.64746094,-0.0625,-0.09375,0.125,0.0,0.0,0.0
1695391452332,-0.25878906,-0.74902344,0.6513672,0.1875,0.03125,-0.03125,-52.5,-21.125,-89.0
1695391452378,-0.26660156,-0.73828125,0.6464844,0.0625,0.03125,0.0,0.0,0.0,0.0
1695391452411,-0.27246094,-0.7421875,0.6455078,0.0625,-0.03125,0.0,0.0,0.0,0.0
1695391452456,-0.26660156,-0.74902344,0.64746094,0.125,-0.09375,-0.03125,0.0,0.0,0.0
1695391452513,-0.25976562,-0.7392578,0.6513672,-0.03125,-0.15625,-0.09375,0.0,0.0,0.0
1695391452534,-0.26953125,-0.7373047,0.63183594,-0.15625,-0.09375,-0.09375,0.0,0.0,0.0
1695391452580,-0.2705078,-0.74609375,0.6484375,0.375,-0.15625,-0.03125,0.0,0.0,0.0
1695391452614,-0.265625,-0.7363281,0.64160156,0.03125,0.03125,-0.09375,0.0,0.0,0.0
1695391452659,-0.26757812,-0.7480469,0.64453125,-0.15625,0.09375,-0.03125,0.0,0.0,0.0
1695391452693,-0.26660156,-0.7451172,0.6484375,-0.28125,-0.09375,-0.09375,0.0,0.0,0.0
1695391452738,-0.2626953,-0.7373047,0.6542969,-0.03125,-0.21875,-0.28125,0.0,0.0,0.0
1695391452771,-0.26953125,-0.7451172,0.6425781,0.03125,-0.28125,-0.21875,0.0,0.0,0.0
1695391452816,-0.26367188,-0.7480469,0.66015625,0.3125,-0.03125,-0.46875,-53.25,-20.8125,-89.0
1695391452861,-0.2607422,-0.7402344,0.63964844,0.1875,-0.09375,-0.28125,0.0,0.0,0.0
1695391452895,-0.26367188,-0.7451172,0.64746094,0.1875,-0.15625,-0.15625,0.0,0.0,0.0
1695391452940,-0.26660156,-0.7402344,0.64746094,0.03125,-0.15625,0.0,0.0,0.0,0.0
1695391452975,-0.26953125,-0.74121094,0.64941406,0.1875,-0.15625,-0.21875,0.0,0.0,0.0
1695391453018,-0.26464844,-0.74121094,0.64160156,0.0625,-0.09375,-0.15625,0.0,0.0,0.0
1695391453052,-0.2548828,-0.7421875,0.6591797,0.03125,-0.15625,-0.03125,0.0,0.0,0.0
1695391453099,-0.2705078,-0.75097656,0.6464844,-0.03125,-0.15625,-0.15625,0.0,0.0,0.0
1695391453131,-0.26757812,-0.7392578,0.6591797,0.03125,-0.09375,-0.15625,0.0,0.0,0.0
1695391453176,-0.2626953,-0.7441406,0.6357422,0.0625,-0.09375,-0.21875,0.0,0.0,0.0
1695391453221,-0.26367188,-0.7392578,0.6425781,0.0625,0.03125,-0.21875,0.0,0.0,0.0
1695391453255,-0.25976562,-0.7470703,0.6455078,0.25,-0.21875,-0.03125,0.0,0.0,0.0
1695391453300,-0.27148438,-0.734375,0.65722656,0.0625,-0.03125,0.0,0.0,0.0,0.0
1695391453337,-0.25683594,-0.74316406,0.6455078,-0.21875,0.09375,-0.03125,-52.5,-22.1875,-87.9375
1695391453379,-0.26367188,-0.7421875,0.65527344,-0.28125,-0.03125,-0.15625,0.0,0.0,0.0
1695391453412,-0.2626953,-0.7470703,0.6455078,-0.03125,-0.09375,-0.09375,0.0,0.0,0.0
1695391453460,-0.25878906,-0.7392578,0.64746094,0.03125,-0.15625,-0.34375,0.0,0.0,0.0
1695391453491,-0.26367188,-0.7402344,0.6357422,0.125,-0.09375,-0.21875,0.0,0.0,0.0
1695391453536,-0.25976562,-0.73828125,0.6484375,0.1875,-0.09375,-0.28125,0.0,0.0,0.0
1695391453581,-0.2607422,-0.7392578,0.6376953,0.0625,-0.15625,-0.34375,0.0,0.0,0.0
1695391453615,-0.265625,-0.7421875,0.6455078,0.03125,-0.09375,-0.21875,0.0,0.0,0.0
1695391453660,-0.2626953,-0.7470703,0.64746094,0.03125,-0.09375,-0.03125,0.0,0.0,0.0
1695391453694,-0.2685547,-0.7519531,0.65234375,0.03125,-0.21875,0.0,0.0,0.0,0.0
1695391453739,-0.26660156,-0.74121094,0.6455078,0.0625,-0.09375,-0.09375,0.0,0.0,0.0
1695391453772,-0.26660156,-0.7421875,0.65234375,0.0625,-0.03125,-0.03125,0.0,0.0,0.0
1695391453817,-0.2626953,-0.7451172,0.6669922,0.0625,-0.09375,-0.03125,-55.625,-21.5625,-87.9375
1695391453866,-0.2685547,-0.7519531,0.6464844,0.03125,-0.09375,-0.09375,0.0,0.0,0.0
1695391453896,-0.26953125,-0.7451172,0.6435547,0.03125,-0.09375,-0.21875,0.0,0.0,0.0
1695391453975,-0.26757812,-0.7470703,0.65527344,0.0625,-0.03125,-0.09375,0.0,0.0,0.0
1695391453978,-0.26367188,-0.7421875,0.64941406,-0.03125,-0.09375,-0.03125,0.0,0.0,0.0
1695391454020,-0.27148438,-0.7421875,0.6503906,0.0625,-0.15625,-0.09375,0.0,0.0,0.0
1695391454054,-0.26464844,-0.74902344,0.64746094,0.0625,0.03125,-0.15625,0.0,0.0,0.0
1695391454099,-0.2626953,-0.7470703,0.6533203,-0.21875,0.15625,0.0,0.0,0.0,0.0
1695391454133,-0.26464844,-0.7421875,0.65527344,-0.21875,-0.09375,-0.15625,0.0,0.0,0.0
1695391454179,-0.2548828,-0.7402344,0.6435547,0.0625,-0.09375,-0.21875,0.0,0.0,0.0
1695391454224,-0.2607422,-0.7470703,0.66015625,-0.03125,-0.09375,-0.09375,0.0,0.0,0.0
1695391454257,-0.2607422,-0.7451172,0.6533203,0.125,0.03125,-0.21875,0.0,0.0,0.0
1695391454301,-0.25976562,-0.7519531,0.65234375,0.0625,-0.09375,-0.34375,0.0,0.0,0.0
1695391454335,-0.26464844,-0.74121094,0.64160156,0.0625,0.03125,-0.15625,-52.5,-21.125,-89.0
1695391454380,-0.26464844,-0.7451172,0.6376953,-0.03125,-0.09375,-0.03125,0.0,0.0,0.0
1695391454414,-0.26660156,-0.74316406,0.64941406,-0.03125,-0.21875,-0.15625,0.0,0.0,0.0
1695391454458,-0.26757812,-0.7470703,0.6425781,0.1875,-0.15625,-0.03125,0.0,0.0,0.0
1695391454493,-0.27148438,-0.7392578,0.6513672,0.03125,-0.03125,-0.09375,0.0,0.0,0.0
1695391454539,-0.26464844,-0.7402344,0.65527344,0.0625,-0.03125,0.0,0.0,0.0,0.0
1695391454584,-0.2607422,-0.73535156,0.6621094,0.125,-0.03125,0.0,0.0,0.0,0.0
1695391454617,-0.2626953,-0.7392578,0.6484375,-0.03125,-0.21875,-0.09375,0.0,0.0,0.0
1695391454662,-0.26660156,-0.7451172,0.6591797,-0.03125,-0.09375,-0.09375,0.0,0.0,0.0
1695391454695,-0.26660156,-0.7519531,0.65527344,0.03125,-0.03125,-0.03125,0.0,0.0,0.0
1695391454741,-0.2685547,-0.7470703,0.6484375,0.03125,-0.09375,-0.03125,0.0,0.0,0.0
1695391454774,-0.26171875,-0.7402344,0.6435547,0.0625,0.09375,-0.03125,0.0,0.0,0.0
1695391454819,-0.2578125,-0.7363281,0.6484375,-0.09375,-0.09375,-0.03125,-54.75,-22.0,-89.625
1695391454853,-0.2626953,-0.7441406,0.63671875,0.03125,-0.03125,-0.15625,0.0,0.0,0.0
1695391454898,-0.25585938,-0.73828125,0.66308594,-0.03125,-0.09375,-0.09375,0.0,0.0,0.0
1695391454943,-0.27148438,-0.74902344,0.6503906,0.375,-0.03125,-0.15625,0.0,0.0,0.0
1695391454977,-0.26367188,-0.73535156,0.64941406,0.0625,0.03125,0.0625,0.0,0.0,0.0
1695391455021,-0.26171875,-0.74609375,0.65722656,-0.28125,0.15625,0.0,0.0,0.0,0.0
1695391455055,-0.26953125,-0.73828125,0.65234375,-0.28125,-0.09375,-0.09375,0.0,0.0,0.0
1695391455100,-0.2578125,-0.734375,0.6386719,0.03125,-0.15625,-0.21875,0.0,0.0,0.0
1695391455134,-0.265625,-0.7421875,0.64746094,0.125,-0.03125,-0.15625,0.0,0.0,0.0
1695391455179,-0.26367188,-0.7441406,0.6582031,0.0625,0.03125,-0.28125,0.0,0.0,0.0
1695391455213,-0.26660156,-0.7441406,0.6464844,0.3125,-0.03125,-0.21875,0.0,0.0,0.0
1695391455258,-0.2626953,-0.7363281,0.63964844,0.125,-0.09375,0.0,0.0,0.0,0.0
1695391455302,-0.26953125,-0.7480469,0.64746094,0.0625,-0.03125,-0.03125,0.0,0.0,0.0
1695391455337,-0.26953125,-0.7480469,0.6533203,0.125,-0.21875,0.0,-52.9375,-20.1875,-87.1875
1695391455381,-0.25585938,-0.7373047,0.6503906,0.125,-0.15625,0.0,0.0,0.0,0.0
1695391455415,-0.26464844,-0.7392578,0.6347656,0.03125,-0.03125,0.0625,0.0,0.0,0.0
1695391455460,-0.26660156,-0.7441406,0.6425781,-0.03125,0.03125,0.0625,0.0,0.0,0.0
1695391455494,-0.26171875,-0.7402344,0.65625,-0.03125,-0.15625,-0.09375,0.0,0.0,0.0
1695391455539,-0.26660156,-0.73828125,0.6484375,-0.09375,-0.09375,-0.15625,0.0,0.0,0.0
1695391455584,-0.25878906,-0.7402344,0.65234375,0.1875,-0.03125,-0.21875,0.0,0.0,0.0
1695391455617,-0.26367188,-0.74121094,0.66015625,0.0625,-0.09375,-0.15625,0.0,0.0,0.0
1695391455662,-0.2626953,-0.74121094,0.66503906,0.03125,-0.28125,-0.09375,0.0,0.0,0.0
1695391455697,-0.26367188,-0.73828125,0.6503906,0.03125,-0.09375,-0.03125,0.0,0.0,0.0
1695391455741,-0.26367188,-0.73535156,0.65722656,0.03125,-0.09375,-0.15625,0.0,0.0,0.0
1695391455775,-0.2578125,-0.73535156,0.6425781,-0.03125,-0.21875,-0.09375,0.0,0.0,0.0
1695391455820,-0.26953125,-0.7363281,0.64941406,0.125,-0.21875,-0.03125,-52.9375,-20.6875,-88.25
1695391455854,-0.25683594,-0.7451172,0.64453125,0.125,-0.03125,-0.09375,0.0,0.0,0.0
1695391455899,-0.25878906,-0.7392578,0.6503906,-0.34375,0.15625,-0.03125,0.0,0.0,0.0
1695391455944,-0.26464844,-0.7441406,0.6542969,-0.40625,-0.09375,-0.09375,0.0,0.0,0.0
1695391455978,-0.265625,-0.7314453,0.65722656,0.03125,-0.09375,-0.03125,0.0,0.0,0.0
1695391456022,-0.2626953,-0.7421875,0.6455078,-0.03125,-0.09375,-0.03125,0.0,0.0,0.0
1695391456057,-0.25878906,-0.7421875,0.6513672,0.0625,-0.03125,-0.03125,0.0,0.0,0.0
1695391456101,-0.2685547,-0.7392578,0.6484375,0.03125,-0.09375,-0.28125,0.0,0.0,0.0
1695391456135,-0.26367188,-0.7451172,0.6533203,0.125,-0.09375,-0.21875,0.0,0.0,0.0
1695391456180,-0.2607422,-0.7519531,0.6464844,0.03125,-0.21875,0.125,0.0,0.0,0.0
1695391456214,-0.25585938,-0.73828125,0.6503906,0.125,-0.21875,-0.09375,0.0,0.0,0.0
1695391456259,-0.25976562,-0.7392578,0.66015625,0.0625,-0.15625,0.0,0.0,0.0,0.0
1695391456304,-0.2734375,-0.7363281,0.6533203,-0.15625,-0.03125,0.0625,0.0,0.0,0.0
1695391456337,-0.26171875,-0.7402344,0.6533203,0.0625,0.03125,-0.03125,-54.125,-19.9375,-88.875
1695391456382,-0.25976562,-0.7529297,0.640625,0.03125,-0.09375,-0.09375,0.0,0.0,0.0
1695391456417,-0.2685547,-0.75390625,0.6542969,0.03125,-0.15625,-0.03125,0.0,0.0,0.0
1695391456461,-0.26464844,-0.7402344,0.6513672,0.0625,-0.15625,-0.03125,0.0,0.0,0.0
1695391456495,-0.2607422,-0.7421875,0.6455078,0.0625,-0.15625,-0.09375,0.0,0.0,0.0
1695391456540,-0.2685547,-0.734375,0.6503906,0.0625,0.03125,0.125,0.0,0.0,0.0
1695391456574,-0.26757812,-0.7480469,0.6582031,0.03125,-0.03125,-0.03125,0.0,0.0,0.0
1695391456619,-0.2626953,-0.73535156,0.64941406,-0.21875,-0.09375,0.0,0.0,0.0,0.0
1695391456697,-0.26660156,-0.734375,0.6425781,-0.03125,-0.21875,-0.09375,0.0,0.0,0.0
1695391456700,-0.26367188,-0.74902344,0.6484375,0.125,-0.09375,-0.09375,0.0,0.0,0.0
1695391456744,-0.26464844,-0.7421875,0.6455078,-0.21875,0.09375,-0.03125,0.0,0.0,0.0
1695391456776,-0.26367188,-0.74316406,0.65527344,-0.34375,0.09375,0.0,0.0,0.0,0.0
1695391456821,-0.265625,-0.7519531,0.6455078,-0.09375,-0.15625,0.0625,-53.375,-20.6875,-86.75
1695391456855,-0.2626953,-0.7451172,0.6503906,-0.21875,-0.15625,0.0,0.0,0.0,0.0
1695391456900,-0.26660156,-0.7519531,0.6484375,-0.09375,-0.21875,-0.09375,0.0,0.0,0.0
1695391456945,-0.25878906,-0.74316406,0.6503906,0.03125,-0.09375,-0.21875,0.0,0.0,0.0
1695391456979,-0.26660156,-0.7470703,0.63964844,0.0625,-0.03125,-0.09375,0.0,0.0,0.0
1695391457024,-0.25976562,-0.7441406,0.64453125,0.03125,0.03125,0.0625,0.0,0.0,0.0
1695391457058,-0.26660156,-0.74121094,0.6503906,-0.03125,-0.21875,0.0,0.0,0.0,0.0
1695391457103,-0.2685547,-0.7480469,0.65234375,0.03125,-0.21875,-0.09375,0.0,0.0,0.0
1695391457136,-0.2685547,-0.7441406,0.640625,-0.09375,-0.21875,0.125,0.0,0.0,0.0
1695391457181,-0.26367188,-0.7363281,0.6582031,-0.03125,-0.03125,0.0625,0.0,0.0,0.0
1695391457214,-0.24902344,-0.7363281,0.6533203,-0.15625,-0.09375,0.0625,0.0,0.0,0.0
1695391457259,-0.26367188,-0.7392578,0.64941406,-0.09375,-0.09375,0.0,0.0,0.0,0.0
1695391457305,-0.26171875,-0.7519531,0.64453125,-0.21875,-0.03125,0.0,0.0,0.0,0.0
1695391457338,-0.2626953,-0.73828125,0.65625,-0.09375,-0.09375,0.0,-52.5,-20.8125,-88.375
1695391457384,-0.27148438,-0.75,0.6425781,-0.09375,-0.09375,-0.09375,0.0,0.0,0.0
1695391457418,-0.265625,-0.7480469,0.6435547,-0.15625,-0.03125,0.125,0.0,0.0,0.0
1695391457463,-0.2685547,-0.7451172,0.6503906,0.03125,-0.15625,-0.03125,0.0,0.0,0.0
1695391457497,-0.27246094,-0.7402344,0.63964844,-0.03125,-0.15625,0.0625,0.0,0.0,0.0
1695391457541,-0.26757812,-0.7451172,0.6533203,-0.15625,0.09375,0.0625,0.0,0.0,0.0
1695391457575,-0.2734375,-0.74902344,0.66308594,-0.09375,-0.15625,0.0,0.0,0.0,0.0
1695391457620,-0.2734375,-0.7451172,0.65234375,-0.09375,-0.09375,-0.15625,0.0,0.0,0.0
1695391457665,-0.26660156,-0.73535156,0.66308594,0.0625,-0.15625,-0.28125,0.0,0.0,0.0
1695391457699,-0.26367188,-0.7451172,0.65722656,0.0625,-0.03125,-0.40625,0.0,0.0,0.0
1695391457744,-0.27246094,-0.74121094,0.6455078,0.1875,-0.15625,-0.46875,0.0,0.0,0.0
1695391457778,-0.265625,-0.73828125,0.6435547,0.25,-0.15625,-0.28125,0.0,0.0,0.0
1695391457822,-0.26464844,-0.7441406,0.64746094,0.0625,-0.21875,-0.21875,-54.4375,-22.0,-88.875
1695391457857,-0.2626953,-0.74121094,0.63671875,0.125,-0.21875,-0.28125,0.0,0.0,0.0
1695391457901,-0.26953125,-0.7529297,0.6513672,0.25,-0.28125,-0.34375,0.0,0.0,0.0
1695391457935,-0.2626953,-0.7402344,0.64453125,0.125,-0.21875,-0.21875,0.0,0.0,0.0
1695391457980,-0.26757812,-0.74902344,0.6425781,0.0625,-0.15625,-0.21875,0.0,0.0,0.0
1695391458025,-0.26464844,-0.73535156,0.6513672,0.1875,-0.21875,-0.15625,0.0,0.0,0.0
1695391458059,-0.25976562,-0.7470703,0.65234375,0.1875,-0.03125,-0.03125,0.0,0.0,0.0
1695391458104,-0.26660156,-0.7480469,0.6503906,0.03125,-0.21875,-0.28125,0.0,0.0,0.0
1695391458137,-0.26464844,-0.7402344,0.6425781,0.03125,0.03125,-0.09375,0.0,0.0,0.0
1695391458183,-0.2685547,-0.74316406,0.65722656,0.1875,-0.09375,-0.21875,0.0,0.0,0.0
1695391458217,-0.2734375,-0.7441406,0.64941406,0.25,-0.21875,-0.09375,0.0,0.0,0.0
1695391458261,-0.25878906,-0.74316406,0.65625,0.1875,-0.09375,-0.03125,0.0,0.0,0.0
1695391458306,-0.265625,-0.7363281,0.64746094,-0.09375,-0.15625,0.0,0.0,0.0,0.0
1695391458340,-0.265625,-0.734375,0.6513672,-0.09375,-0.28125,-0.03125,-53.875,-20.375,-87.375
1695391458385,-0.26757812,-0.7373047,0.6455078,0.125,-0.34375,-0.21875,0.0,0.0,0.0
1695391458419,-0.25976562,-0.7373047,0.65234375,0.03125,-0.34375,-0.40625,0.0,0.0,0.0
1695391458463,-0.27246094,-0.74121094,0.6582031,0.03125,-0.21875,-0.40625,0.0,0.0,0.0
1695391458497,-0.28222656,-0.76171875,0.6533203,0.5,-0.875,-0.90625,0.0,0.0,0.0
1695391458543,-0.25195312,-0.7285156,0.640625,-1.625,-1.5625,-1.5625,0.0,0.0,0.0
1695391458576,-0.25585938,-0.71484375,0.65234375,-0.96875,-1.875,0.125,0.0,0.0,0.0
1695391458621,-0.26367188,-0.73046875,0.6542969,-1.09375,-2.59375,2.09375,0.0,0.0,0.0
1695391458666,-0.2685547,-0.75,0.6503906,-2.0,-2.59375,2.625,0.0,0.0,0.0
1695391458700,-0.2607422,-0.7597656,0.63964844,-2.375,-2.59375,2.15625,0.0,0.0,0.0
1695391458744,-0.26464844,-0.73828125,0.6425781,-2.0625,-3.375,2.34375,0.0,0.0,0.0
1695391458778,-0.25683594,-0.7373047,0.64746094,-1.25,-4.0625,3.8125,0.0,0.0,0.0
1695391458824,-0.2529297,-0.75,0.6425781,-1.5625,-4.1875,3.90625,-53.25,-20.8125,-88.6875
1695391458858,-0.26367188,-0.76171875,0.64160156,-1.6875,-3.5625,3.5625,0.0,0.0,0.0
1695391458903,-0.25976562,-0.7451172,0.65722656,-0.84375,-3.3125,2.875,0.0,0.0,0.0
1695391458937,-0.2548828,-0.7470703,0.63964844,-0.78125,-2.96875,2.53125,0.0,0.0,0.0
1695391458982,-0.25683594,-0.75390625,0.64746094,-1.09375,-2.21875,2.40625,0.0,0.0,0.0
1695391459025,-0.2421875,-0.7402344,0.6425781,-1.15625,-1.90625,2.09375,0.0,0.0,0.0
1695391459060,-0.24804688,-0.74902344,0.6328125,-0.90625,-0.9375,1.40625,0.0,0.0,0.0
1695391459105,-0.2421875,-0.7636719,0.64746094,-1.03125,0.75,0.6875,0.0,0.0,0.0
1695391459138,-0.27441406,-0.74902344,0.6191406,-1.6875,3.5625,0.4375,0.0,0.0,0.0
1695391459184,-0.31152344,-0.76464844,0.67089844,3.5625,-0.21875,-1.21875,0.0,0.0,0.0
1695391459219,-0.23925781,-0.73046875,0.6279297,1.65625,-1.1875,-2.1875,0.0,0.0,0.0
1695391459263,-0.25585938,-0.7421875,0.6425781,1.1875,0.65625,-0.78125,0.0,0.0,0.0
1695391459296,-0.27734375,-0.73535156,0.66796875,1.125,0.53125,-1.375,0.0,0.0,0.0
1695391459341,-0.2548828,-0.71777344,0.65625,-1.6875,0.15625,-0.09375,-53.875,-20.8125,-87.625
1695391459386,-0.26757812,-0.7470703,0.6464844,0.375,0.15625,0.6875,0.0,0.0,0.0
1695391459420,-0.2578125,-0.74121094,0.6464844,-1.21875,-0.03125,0.5625,0.0,0.0,0.0
1695391459465,-0.2626953,-0.7519531,0.64160156,0.03125,-0.21875,0.125,0.0,0.0,0.0
1695391459499,-0.26464844,-0.74121094,0.65527344,-0.09375,-0.40625,-0.03125,0.0,0.0,0.0
1695391459544,-0.27246094,-0.74316406,0.6376953,-0.28125,-0.03125,-0.21875,0.0,0.0,0.0
1695391459581,-0.26757812,-0.7421875,0.63671875,0.25,-0.03125,-0.28125,0.0,0.0,0.0
1695391459622,-0.26757812,-0.7480469,0.6503906,0.6875,-0.34375,-0.53125,0.0,0.0,0.0
1695391459657,-0.26367188,-0.74121094,0.65625,0.25,0.09375,-0.21875,0.0,0.0,0.0
1695391459702,-0.26367188,-0.74121094,0.65234375,-0.34375,-0.03125,0.0,0.0,0.0,0.0
1695391459746,-0.2607422,-0.75097656,0.6464844,-0.40625,-0.15625,0.0,0.0,0.0,0.0
1695391459780,-0.265625,-0.7470703,0.64941406,-0.40625,-0.28125,0.0,0.0,0.0,0.0
1695391459825,-0.265625,-0.75097656,0.6513672,-0.34375,0.09375,-0.03125,-52.5,-20.0625,-87.0625
1695391459859,-0.27539062,-0.7421875,0.6328125,-0.03125,0.15625,-0.34375,0.0,0.0,0.0
1695391459903,-0.26953125,-0.7470703,0.63964844,0.5625,-0.15625,-0.53125,0.0,0.0,0.0
1695391459938,-0.26464844,-0.74902344,0.6455078,0.5625,-0.15625,0.0,0.0,0.0,0.0
1695391459984,-0.26660156,-0.73828125,0.6640625,0.125,-0.21875,-0.03125,0.0,0.0,0.0
1695391460027,-0.265625,-0.7480469,0.64160156,-0.21875,-0.53125,0.25,0.0,0.0,0.0
1695391460062,-0.2607422,-0.75,0.64746094,-0.59375,-0.03125,0.125,0.0,0.0,0.0
1695391460106,-0.265625,-0.74902344,0.64453125,-0.28125,-0.03125,-0.03125,0.0,0.0,0.0
1695391460140,-0.2783203,-0.75390625,0.6328125,-0.28125,0.28125,-0.15625,0.0,0.0,0.0
1695391460184,-0.25683594,-0.72265625,0.65234375,1.125,-0.75,-0.46875,0.0,0.0,0.0
1695391460219,-0.26953125,-0.73339844,0.65234375,1.0625,-0.21875,0.5625,0.0,0.0,0.0
1695391460264,-0.2626953,-0.7548828,0.65625,0.1875,-0.21875,-0.40625,0.0,0.0,0.0
1695391460298,-0.25878906,-0.74609375,0.64746094,-1.15625,0.21875,0.0625,0.0,0.0,0.0
1695391460343,-0.25683594,-0.7402344,0.6455078,-0.46875,-0.03125,-0.09375,-53.25,-21.5625,-87.0625
1695391460387,-0.25976562,-0.75683594,0.6425781,0.0625,0.09375,-0.03125,0.0,0.0,0.0
1695391460421,-0.25683594,-0.7441406,0.64746094,0.0625,0.03125,0.25,0.0,0.0,0.0
1695391460467,-0.26953125,-0.74316406,0.64453125,0.03125,0.03125,0.1875,0.0,0.0,0.0
1695391460500,-0.2578125,-0.7451172,0.64453125,-0.03125,-0.15625,-0.34375,0.0,0.0,0.0
1695391460545,-0.2685547,-0.74121094,0.6455078,-0.09375,0.09375,-0.21875,0.0,0.0,0.0
1695391460578,-0.26757812,-0.7373047,0.64941406,-0.03125,-0.09375,-0.34375,0.0,0.0,0.0
1695391460623,-0.26367188,-0.74121094,0.64746094,0.375,-0.09375,-0.28125,0.0,0.0,0.0
1695391460658,-0.265625,-0.74121094,0.65625,0.3125,-0.15625,-0.09375,0.0,0.0,0.0
1695391460703,-0.2607422,-0.75097656,0.6455078,-0.15625,-0.09375,0.25,0.0,0.0,0.0
1695391460748,-0.2578125,-0.7470703,0.6533203,-0.78125,0.15625,0.0,0.0,0.0,0.0
1695391460781,-0.27246094,-0.7529297,0.6513672,-0.40625,-0.15625,-0.15625,0.0,0.0,0.0
1695391460827,-0.26660156,-0.75097656,0.6435547,0.0625,0.09375,-0.03125,-54.4375,-20.1875,-88.25
1695391460860,-0.26464844,-0.74609375,0.6425781,0.625,-0.40625,0.0,0.0,0.0,0.0
1695391460905,-0.2685547,-0.7451172,0.64453125,0.6875,-0.21875,0.1875,0.0,0.0,0.0
1695391460938,-0.2607422,-0.75,0.6484375,-0.28125,-0.15625,-0.03125,0.0,0.0,0.0
1695391460984,-0.25878906,-0.7421875,0.64746094,-0.59375,0.15625,-0.03125,0.0,0.0,0.0
1695391461017,-0.26171875,-0.75,0.63964844,-0.09375,0.03125,0.0,0.0,0.0,0.0
1695391461063,-0.2626953,-0.7402344,0.6503906,0.0625,0.03125,0.1875,0.0,0.0,0.0
1695391461141,-0.26464844,-0.74316406,0.64453125,0.03125,-0.09375,0.25,0.0,0.0,0.0
1695391461144,-0.27441406,-0.74316406,0.64746094,-0.09375,0.03125,0.0625,0.0,0.0,0.0
1695391461186,-0.2578125,-0.7373047,0.64746094,-0.09375,-0.15625,-0.03125,0.0,0.0,0.0
1695391461220,-0.2626953,-0.7519531,0.65625,0.0625,0.03125,0.0,0.0,0.0,0.0
1695391461265,-0.25976562,-0.7421875,0.6435547,-0.28125,0.03125,0.125,0.0,0.0,0.0
1695391461298,-0.25976562,-0.74902344,0.6347656,-0.46875,0.03125,0.1875,0.0,0.0,0.0
1695391461343,-0.26464844,-0.7519531,0.6464844,-0.21875,-0.09375,0.0625,-53.875,-21.125,-88.6875
1695391461389,-0.265625,-0.7480469,0.6542969,0.09375,-0.09375,-0.0625,0.0,0.0,0.0
1695391461422,-0.26757812,-0.74316406,0.6513672,0.09375,0.0625,-0.125,0.0,0.0,0.0
1695391461501,-0.27246094,-0.7470703,0.63964844,-0.03125,0.0,-0.21875,0.0,0.0,0.0
1695391461503,-0.26367188,-0.7519531,0.63671875,-0.03125,0.0625,-0.0625,0.0,0.0,0.0
1695391461547,-0.26367188,-0.7451172,0.65625,-0.03125,0.125,0.125,0.0,0.0,0.0
1695391461580,-0.26660156,-0.7373047,0.6542969,-0.15625,-0.09375,0.125,0.0,0.0,0.0
1695391461625,-0.27148438,-0.7578125,0.64160156,0.03125,-0.09375,-0.0625,0.0,0.0,0.0
1695391461659,-0.26171875,-0.7402344,0.6503906,0.15625,-0.0625,-0.125,0.0,0.0,0.0
1695391461704,-0.26953125,-0.7402344,0.6435547,0.03125,-0.0625,-0.125,0.0,0.0,0.0
1695391461749,-0.26367188,-0.7451172,0.6435547,0.21875,-0.09375,-0.125,0.0,0.0,0.0
1695391461782,-0.26464844,-0.74902344,0.6455078,0.03125,-0.09375,-0.125,0.0,0.0,0.0
1695391461828,-0.2685547,-0.75,0.6435547,0.09375,-0.0625,-0.28125,-54.625,-20.0625,-89.0
1695391461863,-0.2626953,-0.7402344,0.6533203,0.15625,-0.09375,-0.28125,0.0,0.0,0.0
1695391461906,-0.26367188,-0.75097656,0.6503906,0.21875,-0.09375,-0.34375,0.0,0.0,0.0
1695391461941,-0.265625,-0.7470703,0.6425781,0.09375,0.0,-0.28125,0.0,0.0,0.0
1695391461985,-0.27246094,-0.7451172,0.65722656,0.15625,-0.09375,-0.34375,0.0,0.0,0.0
1695391462019,-0.26660156,-0.74609375,0.6386719,0.28125,-0.28125,-0.21875,0.0,0.0,0.0
1695391462064,-0.26367188,-0.75,0.6376953,0.09375,0.0,-0.1875,0.0,0.0,0.0
1695391462109,-0.2578125,-0.74121094,0.65527344,-0.09375,0.0,-0.1875,0.0,0.0,0.0
1695391462143,-0.25878906,-0.7470703,0.66015625,-0.15625,0.0,-0.1875,0.0,0.0,0.0
1695391462188,-0.26464844,-0.7480469,0.6640625,0.21875,0.0,-0.21875,0.0,0.0,0.0
1695391462222,-0.26367188,-0.74609375,0.6376953,0.03125,-0.0625,-0.28125,0.0,0.0,0.0
1695391462267,-0.26171875,-0.7480469,0.63378906,0.15625,-0.09375,-0.28125,0.0,0.0,0.0
1695391462300,-0.27246094,-0.7402344,0.6484375,0.21875,-0.0625,-0.21875,0.0,0.0,0.0
1695391462345,-0.2607422,-0.7558594,0.6455078,0.09375,-0.0625,-0.21875,-53.5625,-20.375,-88.375
1695391462378,-0.2705078,-0.74609375,0.6484375,0.03125,-0.09375,-0.0625,0.0,0.0,0.0
1695391462423,-0.26464844,-0.7392578,0.6582031,0.15625,-0.21875,-0.21875,0.0,0.0,0.0
1695391462490,-0.26464844,-0.74121094,0.6376953,0.03125,-0.0625,-0.125,0.0,0.0,0.0
1695391462502,-0.26757812,-0.74609375,0.6376953,-0.03125,-0.0625,0.0,0.0,0.0,0.0
1695391462548,-0.26757812,-0.7529297,0.64746094,0.15625,0.0625,-0.0625,0.0,0.0,0.0
1695391462581,-0.26660156,-0.73828125,0.65527344,0.03125,-0.09375,-0.1875,0.0,0.0,0.0
1695391462626,-0.25878906,-0.74121094,0.6503906,0.09375,0.0,-0.21875,0.0,0.0,0.0
1695391462660,-0.26171875,-0.74121094,0.6435547,0.09375,0.0,-0.125,0.0,0.0,0.0
1695391462705,-0.25683594,-0.7392578,0.65625,0.03125,-0.09375,-0.125,0.0,0.0,0.0
1695391462750,-0.2626953,-0.74609375,0.6503906,-0.03125,-0.09375,0.125,0.0,0.0,0.0
1695391462784,-0.265625,-0.74316406,0.64453125,-0.15625,0.0,-0.1875,0.0,0.0,0.0
1695391462829,-0.2548828,-0.75,0.6542969,0.09375,-0.15625,-0.1875,-53.375,-22.0,-87.8125
1695391462862,-0.2705078,-0.7470703,0.6484375,0.28125,-0.0625,-0.1875,0.0,0.0,0.0
1695391462907,-0.2607422,-0.74121094,0.6503906,-0.15625,0.0,0.0,0.0,0.0,0.0
1695391462941,-0.265625,-0.74121094,0.63671875,-0.34375,-0.09375,-0.0625,0.0,0.0,0.0
1695391462987,-0.26660156,-0.74902344,0.6503906,0.03125,-0.15625,-0.1875,0.0,0.0,0.0
1695391463020,-0.26367188,-0.7451172,0.64941406,0.03125,-0.15625,-0.0625,0.0,0.0,0.0
1695391463065,-0.25976562,-0.74609375,0.6464844,0.09375,0.0625,-0.125,0.0,0.0,0.0
1695391463110,-0.25585938,-0.74902344,0.6435547,0.34375,0.0,-0.28125,0.0,0.0,0.0
1695391463143,-0.25976562,-0.7529297,0.6298828,0.15625,0.0625,-0.125,0.0,0.0,0.0
1695391463189,-0.25976562,-0.7402344,0.65527344,-0.03125,-0.0625,0.0625,0.0,0.0,0.0
1695391463222,-0.2607422,-0.73535156,0.64941406,0.03125,-0.0625,-0.0625,0.0,0.0,0.0
1695391463268,-0.265625,-0.7441406,0.64941406,0.09375,-0.21875,-0.21875,0.0,0.0,0.0
1695391463301,-0.25683594,-0.7441406,0.6464844,0.03125,0.0,-0.0625,0.0,0.0,0.0
1695391463346,-0.25683594,-0.74902344,0.6435547,0.09375,0.0,0.0625,-53.875,-20.8125,-88.6875
1695391463380,-0.26464844,-0.7324219,0.6455078,0.03125,-0.0625,-0.0625,0.0,0.0,0.0
1695391463425,-0.26660156,-0.7421875,0.6347656,-0.03125,-0.09375,-0.21875,0.0,0.0,0.0
1695391463470,-0.26367188,-0.7373047,0.6484375,0.03125,-0.09375,-0.0625,0.0,0.0,0.0
1695391463503,-0.26660156,-0.7402344,0.64453125,0.03125,-0.0625,-0.0625,0.0,0.0,0.0
1695391463548,-0.26757812,-0.7451172,0.6533203,0.03125,-0.0625,0.0,0.0,0.0,0.0
1695391463583,-0.25683594,-0.73828125,0.6455078,0.03125,-0.0625,-0.0625,0.0,0.0,0.0
1695391463628,-0.265625,-0.7529297,0.65234375,-0.09375,-0.0625,0.0,0.0,0.0,0.0
1695391463661,-0.27539062,-0.7363281,0.63964844,0.03125,-0.21875,-0.125,0.0,0.0,0.0
1695391463707,-0.26464844,-0.75,0.63183594,0.28125,-0.09375,-0.1875,0.0,0.0,0.0
1695391463740,-0.26464844,-0.74316406,0.6435547,-0.03125,0.25,0.0,0.0,0.0,0.0
1695391463784,-0.2548828,-0.7470703,0.6464844,-0.28125,0.0,-0.125,0.0,0.0,0.0
1695391463829,-0.26757812,-0.7392578,0.6386719,-0.15625,-0.15625,-0.1875,-53.6875,-20.1875,-87.1875
1695391463864,-0.26660156,-0.7324219,0.6640625,0.09375,0.0,-0.125,0.0,0.0,0.0
1695391463909,-0.25976562,-0.74609375,0.6464844,-0.03125,-0.09375,0.0,0.0,0.0,0.0
1695391463942,-0.2607422,-0.74609375,0.6455078,0.03125,-0.0625,-0.21875,0.0,0.0,0.0
1695391464009,-0.2685547,-0.7441406,0.6503906,0.09375,-0.09375,-0.1875,0.0,0.0,0.0
1695391464021,-0.2626953,-0.74121094,0.6542969,0.15625,-0.21875,-0.125,0.0,0.0,0.0
1695391464066,-0.2626953,-0.7363281,0.64746094,0.15625,-0.15625,0.0,0.0,0.0,0.0
1695391464100,-0.2685547,-0.7441406,0.63378906,0.21875,-0.15625,0.0,0.0,0.0,0.0
1695391464145,-0.265625,-0.7402344,0.6357422,-0.09375,-0.0625,-0.125,0.0,0.0,0.0
1695391464190,-0.265625,-0.7421875,0.64746094,-0.09375,0.125,0.125,0.0,0.0,0.0
1695391464224,-0.27148438,-0.7441406,0.625,-0.03125,-0.0625,-0.0625,0.0,0.0,0.0
1695391464268,-0.26464844,-0.75683594,0.64453125,0.03125,-0.0625,-0.125,0.0,0.0,0.0
1695391464303,-0.27734375,-0.74316406,0.64746094,-0.03125,-0.09375,-0.125,0.0,0.0,0.0
1695391464348,-0.26464844,-0.7373047,0.6425781,0.03125,-0.0625,-0.125,-52.9375,-20.9375,-87.8125
1695391464381,-0.2607422,-0.7470703,0.6376953,0.21875,-0.15625,-0.1875,0.0,0.0,0.0
1695391464426,-0.26660156,-0.7373047,0.6660156,0.03125,-0.0625,-0.0625,0.0,0.0,0.0
1695391464471,-0.26953125,-0.74609375,0.6357422,-0.03125,-0.09375,0.0,0.0,0.0,0.0
1695391464505,-0.26660156,-0.75,0.6435547,-0.09375,0.0,-0.125,0.0,0.0,0.0
1695391464549,-0.2734375,-0.7392578,0.6484375,0.03125,-0.15625,-0.1875,0.0,0.0,0.0
1695391464584,-0.26757812,-0.7470703,0.6503906,0.03125,-0.0625,-0.0625,0.0,0.0,0.0
1695391464628,-0.2626953,-0.74121094,0.6435547,-0.21875,0.0625,0.0625,0.0,0.0,0.0
1695391464662,-0.2685547,-0.7441406,0.65234375,-0.21875,-0.09375,0.0,0.0,0.0,0.0
1695391464707,-0.2607422,-0.7470703,0.6484375,0.09375,-0.15625,-0.1875,0.0,0.0,0.0
1695391464741,-0.2626953,-0.7558594,0.6542969,-0.09375,-0.09375,-0.21875,0.0,0.0,0.0
1695391464786,-0.26367188,-0.7451172,0.65234375,0.03125,0.0,-0.1875,0.0,0.0,0.0
1695391464831,-0.26757812,-0.7421875,0.64160156,0.03125,-0.0625,-0.28125,-51.625,-21.25,-88.25
1695391464864,-0.265625,-0.7519531,0.6455078,0.15625,0.0,-0.21875,0.0,0.0,0.0
1695391464910,-0.2607422,-0.74902344,0.6464844,0.09375,-0.0625,0.0,0.0,0.0,0.0
1695391464947,-0.27148438,-0.7392578,0.6484375,0.21875,-0.15625,0.0625,0.0,0.0,0.0
1695391464988,-0.25,-0.7441406,0.63378906,0.21875,-0.0625,-0.0625,0.0,0.0,0.0
1695391465022,-0.25585938,-0.7480469,0.6484375,-0.03125,-0.09375,0.0625,0.0,0.0,0.0
1695391465068,-0.25976562,-0.7363281,0.6503906,-0.09375,0.0625,0.125,0.0,0.0,0.0
1695391465101,-0.26367188,-0.7441406,0.6533203,0.03125,-0.09375,-0.125,0.0,0.0,0.0
1695391465147,-0.26757812,-0.74609375,0.6484375,0.03125,-0.0625,-0.125,0.0,0.0,0.0
1695391465190,-0.2685547,-0.75097656,0.6513672,0.09375,-0.0625,-0.1875,0.0,0.0,0.0
1695391465224,-0.265625,-0.7451172,0.6435547,0.09375,-0.09375,-0.125,0.0,0.0,0.0
1695391465270,-0.2626953,-0.74121094,0.64453125,-0.03125,-0.0625,-0.0625,0.0,0.0,0.0
1695391465303,-0.27441406,-0.74316406,0.6464844,0.0,0.0,0.0,0.0,0.0,0.0
1695391465348,-0.25878906,-0.7480469,0.6542969,-0.125,-0.125,-0.0625,-54.625,-20.8125,-88.375
1695391465382,-0.26464844,-0.7392578,0.6376953,-0.125,0.0,0.125,0.0,0.0,0.0
1695391465428,-0.25878906,-0.7451172,0.6386719,0.125,0.0625,0.0,0.0,0.0,0.0
1695391465461,-0.25878906,-0.7373047,0.6513672,-0.0625,0.125,0.125,0.0,0.0,0.0
1695391465507,-0.2705078,-0.7470703,0.6376953,-0.3125,0.1875,0.1875,0.0,0.0,0.0
1695391465551,-0.27246094,-0.7480469,0.6503906,-0.25,0.0625,0.0,0.0,0.0,0.0
1695391465585,-0.26953125,-0.7470703,0.6347656,0.0,-0.0625,0.0,0.0,0.0,0.0
1695391465630,-0.2607422,-0.74316406,0.6435547,0.0,0.0625,0.0,0.0,0.0,0.0
1695391465663,-0.2685547,-0.74316406,0.64941406,-0.125,0.0625,0.0,0.0,0.0,0.0
1695391465708,-0.26464844,-0.7392578,0.63671875,-0.0625,-0.0625,0.125,0.0,0.0,0.0
1695391465743,-0.2626953,-0.7451172,0.64453125,-0.0625,-0.0625,0.125,0.0,0.0,0.0
1695391465787,-0.2607422,-0.7470703,0.6533203,-0.125,0.0,0.125,0.0,0.0,0.0
1695391465832,-0.26660156,-0.73339844,0.63671875,0.0,-0.0625,0.0625,-53.875,-21.5625,-88.6875
1695391465867,-0.26171875,-0.7421875,0.6425781,0.0625,0.0625,0.125,0.0,0.0,0.0
1695391465945,-0.265625,-0.7392578,0.6455078,-0.1875,0.0,0.1875,0.0,0.0,0.0
1695391465946,-0.2685547,-0.7421875,0.6455078,-0.1875,0.0,0.125,0.0,0.0,0.0
1695391465990,-0.2734375,-0.7402344,0.64160156,-0.125,0.0,0.1875,0.0,0.0,0.0
1695391466024,-0.26464844,-0.7451172,0.64160156,-0.125,0.0,0.125,0.0,0.0,0.0
1695391466068,-0.26464844,-0.74609375,0.6464844,-0.0625,-0.0625,0.125,0.0,0.0,0.0
1695391466102,-0.25976562,-0.74609375,0.6298828,-0.0625,0.0625,0.125,0.0,0.0,0.0
1695391466147,-0.27148438,-0.74121094,0.6386719,0.0,0.125,-0.0625,0.0,0.0,0.0
1695391466193,-0.26757812,-0.7451172,0.6542969,0.34375,-0.125,-0.0625,0.0,0.0,0.0
1695391466226,-0.26367188,-0.74316406,0.6484375,-0.1875,0.0,0.0625,0.0,0.0,0.0
1695391466283,-0.2763672,-0.74609375,0.65234375,0.0625,0.25,0.0625,0.0,0.0,0.0
1695391466304,-0.2734375,-0.7470703,0.6542969,-0.625,0.125,0.125,0.0,0.0,0.0
1695391466350,-0.27148438,-0.74609375,0.64941406,-0.25,0.0,0.0625,-54.4375,-21.6875,-88.875
1695391466383,-0.2685547,-0.74902344,0.65234375,0.0,0.0,-0.125,0.0,0.0,0.0
1695391466428,-0.2626953,-0.7421875,0.65722656,0.0,-0.0625,-0.25,0.0,0.0,0.0
1695391466462,-0.2607422,-0.7451172,0.64453125,0.125,-0.125,-0.25,0.0,0.0,0.0
1695391466508,-0.2685547,-0.74902344,0.65234375,0.34375,0.0,-0.0625,0.0,0.0,0.0
1695391466552,-0.27539062,-0.7480469,0.6386719,0.0625,-0.1875,-0.125,0.0,0.0,0.0
1695391466586,-0.26464844,-0.73828125,0.6542969,0.28125,-0.25,-0.125,0.0,0.0,0.0
1695391466631,-0.26660156,-0.7402344,0.6386719,0.1875,-0.25,-0.125,0.0,0.0,0.0
1695391466664,-0.2734375,-0.7451172,0.65527344,-0.0625,-0.125,0.0625,0.0,0.0,0.0
1695391466710,-0.265625,-0.7470703,0.6464844,-0.25,0.0,-0.0625,0.0,0.0,0.0
1695391466744,-0.27246094,-0.7470703,0.6464844,-0.0625,0.0625,0.0625,0.0,0.0,0.0
1695391466788,-0.26660156,-0.74121094,0.64941406,-0.0625,-0.0625,-0.0625,0.0,0.0,0.0
1695391466834,-0.25976562,-0.7480469,0.63964844,0.0,0.0625,-0.25,-53.875,-19.75,-86.625
1695391466867,-0.2705078,-0.73535156,0.6484375,-0.1875,0.0625,-0.125,0.0,0.0,0.0
1695391466913,-0.26953125,-0.75097656,0.6503906,0.125,-0.125,0.0625,0.0,0.0,0.0
1695391466946,-0.26660156,-0.7470703,0.6425781,0.0,-0.125,0.0625,0.0,0.0,0.0
1695391466991,-0.24902344,-0.7529297,0.63964844,0.0625,0.0625,0.125,0.0,0.0,0.0
1695391467025,-0.26660156,-0.7421875,0.64453125,-0.125,-0.3125,0.1875,0.0,0.0,0.0
1695391467070,-0.26757812,-0.74609375,0.63671875,-0.0625,-0.3125,-0.0625,0.0,0.0,0.0
1695391467103,-0.27539062,-0.74121094,0.6484375,0.125,0.0,0.0,0.0,0.0,0.0
1695391467148,-0.25878906,-0.7480469,0.6435547,0.1875,0.125,-0.1875,0.0,0.0,0.0
1695391467194,-0.26660156,-0.75390625,0.64160156,0.40625,0.0,-0.25,0.0,0.0,0.0
1695391467227,-0.26367188,-0.7421875,0.6455078,0.40625,0.125,0.0,0.0,0.0,0.0
1695391467272,-0.2763672,-0.75097656,0.6435547,0.0625,0.0,0.125,0.0,0.0,0.0
1695391467307,-0.26464844,-0.7470703,0.6435547,0.1875,0.0,0.0,0.0,0.0,0.0
1695391467351,-0.25878906,-0.7480469,0.6464844,0.0,-0.0625,0.0,-53.6875,-20.9375,-88.25
1695391467385,-0.2626953,-0.73535156,0.65625,0.21875,0.0625,-0.0625,0.0,0.0,0.0
1695391467430,-0.2685547,-0.74609375,0.64941406,-0.0625,-0.125,0.0,0.0,0.0,0.0
1695391467463,-0.25976562,-0.7402344,0.6455078,0.1875,0.0625,-0.125,0.0,0.0,0.0
1695391467508,-0.26171875,-0.7470703,0.6484375,-0.0625,-0.0625,-0.125,0.0,0.0,0.0
1695391467554,-0.2685547,-0.74609375,0.6435547,-0.3125,0.0,-0.0625,0.0,0.0,0.0
1695391467587,-0.26953125,-0.74121094,0.6357422,0.125,-0.25,0.0,0.0,0.0,0.0
1695391467632,-0.27148438,-0.7480469,0.6591797,-0.125,0.125,-0.0625,0.0,0.0,0.0
1695391467666,-0.25878906,-0.7402344,0.63378906,-0.4375,0.1875,0.125,0.0,0.0,0.0
1695391467711,-0.26464844,-0.74121094,0.6425781,-0.1875,-0.0625,0.0,0.0,0.0,0.0
1695391467745,-0.26953125,-0.7451172,0.640625,0.21875,-0.125,-0.1875,0.0,0.0,0.0
1695391467800,-0.25878906,-0.7373047,0.6386719,0.0,-0.0625,-0.125,0.0,0.0,0.0
1695391467835,-0.25878906,-0.7451172,0.6533203,0.125,0.0,-0.25,-54.4375,-19.9375,-88.25
1695391467868,-0.2607422,-0.74609375,0.6533203,0.125,0.25,-0.1875,0.0,0.0,0.0
1695391467914,-0.2763672,-0.7451172,0.64941406,0.0625,0.0625,0.0625,0.0,0.0,0.0
1695391467947,-0.26953125,-0.7363281,0.64453125,0.1875,0.0,-0.1875,0.0,0.0,0.0
1695391467993,-0.265625,-0.7324219,0.6464844,0.0625,0.0,-0.125,0.0,0.0,0.0
1695391468026,-0.2685547,-0.75,0.6513672,0.0,0.0,0.0,0.0,0.0,0.0
1695391468071,-0.26953125,-0.75,0.6357422,0.0,0.0,0.0625,0.0,0.0,0.0
1695391468105,-0.25976562,-0.75390625,0.6386719,-0.1875,0.0625,0.25,0.0,0.0,0.0
1695391468150,-0.2685547,-0.74121094,0.65234375,0.0625,0.0625,0.0,0.0,0.0,0.0
1695391468184,-0.2685547,-0.7441406,0.65722656,-0.125,0.0,-0.0625,0.0,0.0,0.0
1695391468228,-0.27148438,-0.7402344,0.6533203,0.21875,-0.25,-0.25,0.0,0.0,0.0
1695391468273,-0.26660156,-0.73828125,0.64746094,0.125,-0.0625,-0.125,0.0,0.0,0.0
1695391468307,-0.25683594,-0.73828125,0.63183594,-0.4375,0.25,0.125,0.0,0.0,0.0
1695391468354,-0.26171875,-0.7421875,0.6591797,-0.25,0.0,-0.125,-55.0625,-21.125,-88.375
1695391468386,-0.26660156,-0.7470703,0.6435547,0.0,-0.0625,-0.0625,0.0,0.0,0.0
1695391468431,-0.27246094,-0.75390625,0.6503906,0.28125,-0.0625,0.0,0.0,0.0,0.0
1695391468465,-0.27148438,-0.75097656,0.64941406,0.125,0.0625,0.1875,0.0,0.0,0.0
1695391468510,-0.2578125,-0.74902344,0.63671875,0.40625,-0.125,-0.25,0.0,0.0,0.0
1695391468543,-0.26660156,-0.73535156,0.6484375,0.53125,-0.25,-0.1875,0.0,0.0,0.0
1695391468589,-0.26464844,-0.7441406,0.6582031,0.34375,-0.25,0.0,0.0,0.0,0.0
1695391468637,-0.25878906,-0.74316406,0.640625,0.0625,-0.0625,0.0625,0.0,0.0,0.0
1695391468667,-0.27246094,-0.7470703,0.64453125,-0.125,-0.0625,-0.0625,0.0,0.0,0.0
1695391468715,-0.27539062,-0.7402344,0.63964844,-0.1875,0.1875,0.0,0.0,0.0,0.0
1695391468746,-0.265625,-0.7480469,0.6464844,-0.3125,0.0625,0.0625,0.0,0.0,0.0
1695391468791,-0.27246094,-0.7548828,0.64160156,-0.25,-0.125,-0.125,0.0,0.0,0.0
1695391468825,-0.26171875,-0.7392578,0.6503906,-0.0625,0.125,-0.3125,-53.6875,-20.9375,-88.5625
1695391468870,-0.2626953,-0.74316406,0.6455078,0.0625,0.0625,-0.25,0.0,0.0,0.0
1695391468914,-0.26953125,-0.7578125,0.6455078,0.59375,-0.3125,-0.125,0.0,0.0,0.0
1695391468949,-0.26953125,-0.74316406,0.6435547,0.1875,-0.0625,-0.0625,0.0,0.0,0.0
1695391468994,-0.26464844,-0.73828125,0.66015625,-0.4375,0.125,0.0625,0.0,0.0,0.0
1695391469028,-0.26367188,-0.7470703,0.6484375,-0.1875,-0.125,-0.125,0.0,0.0,0.0
1695391469074,-0.26367188,-0.74609375,0.6503906,0.28125,-0.1875,-0.125,0.0,0.0,0.0
1695391469107,-0.2705078,-0.75097656,0.6328125,-0.375,0.0,0.125,0.0,0.0,0.0
1695391469152,-0.26757812,-0.7402344,0.64746094,0.125,0.1875,-0.3125,0.0,0.0,0.0
1695391469185,-0.2685547,-0.75097656,0.6425781,0.28125,0.125,-0.375,0.0,0.0,0.0
1695391469230,-0.265625,-0.7441406,0.64941406,0.125,-0.125,-0.1875,0.0,0.0,0.0
1695391469274,-0.2578125,-0.74609375,0.6425781,0.21875,-0.1875,-0.125,0.0,0.0,0.0
1695391469331,-0.26464844,-0.7441406,0.6533203,0.28125,-0.1875,-0.25,0.0,0.0,0.0
1695391469354,-0.26660156,-0.74121094,0.64941406,0.40625,-0.1875,-0.0625,-52.9375,-19.9375,-89.125
1695391469389,-0.26367188,-0.7363281,0.64160156,-0.125,0.0,-0.0625,0.0,0.0,0.0
1695391469434,-0.26367188,-0.7421875,0.64160156,0.0,-0.0625,0.0625,0.0,0.0,0.0
1695391469466,-0.26464844,-0.7402344,0.6425781,0.0,-0.0625,-0.0625,0.0,0.0,0.0
1695391469511,-0.26953125,-0.7441406,0.65527344,-0.125,0.0,-0.25,0.0,0.0,0.0
1695391469544,-0.26757812,-0.7451172,0.6503906,0.21875,-0.0625,-0.125,0.0,0.0,0.0
1695391469590,-0.26367188,-0.7402344,0.64160156,0.21875,0.125,-0.0625,0.0,0.0,0.0
1695391469634,-0.27246094,-0.7451172,0.6503906,-0.0625,0.0625,0.0625,0.0,0.0,0.0
1695391469669,-0.265625,-0.74609375,0.6308594,-0.125,0.0625,-0.125,0.0,0.0,0.0
1695391469713,-0.26367188,-0.74121094,0.64941406,0.0,0.0,-0.1875,0.0,0.0,0.0
1695391469748,-0.26660156,-0.7480469,0.6435547,-0.125,-0.1875,-0.1875,0.0,0.0,0.0
1695391469794,-0.26367188,-0.7421875,0.6464844,0.125,-0.1875,-0.125,0.0,0.0,0.0
1695391469826,-0.26464844,-0.75,0.6533203,0.21875,0.0625,-0.125,-51.75,-21.5625,-87.9375
1695391469871,-0.2626953,-0.7451172,0.6484375,0.125,0.125,0.0,0.0,0.0,0.0
1695391469905,-0.25878906,-0.7441406,0.64453125,-0.0625,-0.0625,0.0,0.0,0.0,0.0
1695391469949,-0.25976562,-0.7480469,0.6533203,0.1875,-0.1875,-0.125,0.0,0.0,0.0
1695391469994,-0.26367188,-0.74316406,0.64160156,0.125,-0.125,0.0,0.0,0.0,0.0
1695391470028,-0.265625,-0.7392578,0.64941406,0.0625,0.0,0.0625,0.0,0.0,0.0
1695391470085,-0.265625,-0.7421875,0.64160156,0.0625,0.0625,-0.0625,0.0,0.0,0.0
1695391470108,-0.2685547,-0.7451172,0.6376953,0.1875,-0.0625,0.0,0.0,0.0,0.0
1695391470154,-0.26757812,-0.75,0.6484375,0.125,0.0625,-0.125,0.0,0.0,0.0
1695391470186,-0.26171875,-0.7451172,0.6542969,0.0625,-0.25,-0.0625,0.0,0.0,0.0
1695391470231,-0.265625,-0.74609375,0.64453125,0.28125,0.0625,0.0625,0.0,0.0,0.0
1695391470276,-0.25976562,-0.74121094,0.65722656,0.0,0.125,0.125,0.0,0.0,0.0
1695391470309,-0.25585938,-0.7470703,0.64453125,-0.1875,0.0625,0.25,-53.875,-19.75,-87.625
1695391470388,-0.265625,-0.7402344,0.6582031,0.0,-0.0625,-0.1875,0.0,0.0,0.0
1695391470399,-0.25878906,-0.7441406,0.65234375,0.0,0.0,0.0,0.0,0.0,0.0
1695391470433,-0.25878906,-0.7480469,0.6464844,0.125,-0.125,-0.1875,0.0,0.0,0.0
1695391470468,-0.2705078,-0.7470703,0.640625,0.28125,0.0625,-0.25,0.0,0.0,0.0
1695391470512,-0.2626953,-0.7451172,0.64453125,0.125,0.125,0.0,0.0,0.0,0.0
1695391470546,-0.2626953,-0.74121094,0.64160156,-0.15625,-0.03125,0.0625,0.0,0.0,0.0
1695391470590,-0.25683594,-0.74121094,0.6425781,0.0,-0.15625,0.0625,0.0,0.0,0.0
1695391470636,-0.25683594,-0.7451172,0.6503906,-0.09375,-0.03125,0.0625,0.0,0.0,0.0
1695391470670,-0.26660156,-0.74902344,0.64746094,-0.03125,0.0,0.1875,0.0,0.0,0.0
1695391470714,-0.25683594,-0.7470703,0.6435547,-0.03125,0.125,0.125,0.0,0.0,0.0
1695391470748,-0.2607422,-0.7402344,0.640625,-0.09375,0.0625,0.0625,0.0,0.0,0.0
1695391470793,-0.26953125,-0.7421875,0.6455078,-0.09375,-0.03125,0.0625,0.0,0.0,0.0
1695391470849,-0.265625,-0.7441406,0.64453125,0.0625,0.125,-0.125,-52.9375,-19.1875,-87.5
1695391470872,-0.26660156,-0.73828125,0.6455078,-0.03125,0.125,0.0625,0.0,0.0,0.0
1695391470908,-0.26464844,-0.7558594,0.6621094,0.3125,-0.09375,0.0625,0.0,0.0,0.0
1695391470951,-0.26464844,-0.74609375,0.64746094,0.0,0.1875,0.0625,0.0,0.0,0.0
1695391470996,-0.26367188,-0.74609375,0.63964844,-0.34375,0.0625,0.0625,0.0,0.0,0.0
1695391471030,-0.25976562,-0.7451172,0.64453125,-0.34375,-0.03125,-0.0625,0.0,0.0,0.0
1695391471074,-0.2685547,-0.7402344,0.640625,0.0,0.0,0.125,0.0,0.0,0.0
1695391471108,-0.26660156,-0.7402344,0.6582031,-0.09375,-0.03125,0.0625,0.0,0.0,0.0
1695391471153,-0.2734375,-0.7402344,0.6464844,0.0625,0.0625,-0.0625,0.0,0.0,0.0
1695391471187,-0.26953125,-0.7421875,0.65722656,0.1875,0.0625,-0.0625,0.0,0.0,0.0
1695391471234,-0.265625,-0.74902344,0.64746094,-0.15625,-0.03125,0.1875,0.0,0.0,0.0
1695391471266,-0.26367188,-0.75,0.6455078,-0.09375,-0.03125,0.0625,0.0,0.0,0.0
1695391471311,-0.2734375,-0.7441406,0.65722656,0.0625,-0.15625,-0.125,-53.6875,-22.0,-88.5625
1695391471356,-0.2548828,-0.7451172,0.6376953,0.0625,0.0625,0.125,0.0,0.0,0.0
1695391471390,-0.26464844,-0.7480469,0.64453125,-0.09375,0.0625,0.0625,0.0,0.0,0.0
1695391471434,-0.26464844,-0.7402344,0.640625,-0.09375,-0.03125,0.0625,0.0,0.0,0.0
1695391471469,-0.27246094,-0.74609375,0.6542969,0.0625,0.1875,0.0,0.0,0.0,0.0
1695391471513,-0.26367188,-0.7421875,0.64160156,-0.15625,-0.03125,0.125,0.0,0.0,0.0
1695391471547,-0.2607422,-0.7480469,0.6582031,-0.03125,0.0625,0.0,0.0,0.0,0.0
1695391471603,-0.2607422,-0.7441406,0.6425781,0.0,0.125,0.0625,0.0,0.0,0.0
1695391471637,-0.2626953,-0.7470703,0.64160156,-0.09375,-0.03125,0.0625,0.0,0.0,0.0
1695391471670,-0.27246094,-0.7480469,0.6513672,0.125,-0.09375,0.0,0.0,0.0,0.0
1695391471715,-0.25976562,-0.75390625,0.6455078,-0.09375,0.0,0.0,0.0,0.0,0.0
1695391471749,-0.265625,-0.7470703,0.6435547,-0.34375,0.1875,0.1875,0.0,0.0,0.0
1695391471794,-0.26953125,-0.7441406,0.65527344,-0.28125,0.0,0.0625,0.0,0.0,0.0
1695391471828,-0.26660156,-0.734375,0.64453125,0.0,-0.03125,-0.125,-54.3125,-19.75,-87.0625
1695391471873,-0.2685547,-0.7402344,0.65527344,-0.09375,0.0,0.125,0.0,0.0,0.0
1695391471907,-0.265625,-0.75390625,0.6513672,0.125,0.0,-0.1875,0.0,0.0,0.0
1695391471953,-0.25683594,-0.7392578,0.64453125,0.0,0.0625,-0.125,0.0,0.0,0.0
1695391471997,-0.25683594,-0.75097656,0.6582031,-0.09375,-0.03125,0.1875,0.0,0.0,0.0
1695391472030,-0.265625,-0.75,0.6464844,-0.09375,-0.03125,0.125,0.0,0.0,0.0
1695391472076,-0.26660156,-0.7470703,0.6513672,0.125,-0.09375,0.125,0.0,0.0,0.0
1695391472110,-0.25585938,-0.75,0.63964844,0.0,-0.15625,0.1875,0.0,0.0,0.0
1695391472154,-0.25097656,-0.74316406,0.65234375,-0.15625,0.0625,0.0625,0.0,0.0,0.0
1695391472188,-0.265625,-0.7392578,0.6533203,-0.15625,0.0,0.0625,0.0,0.0,0.0
1695391472233,-0.265625,-0.7480469,0.66503906,0.0,0.0625,-0.0625,0.0,0.0,0.0
1695391472267,-0.2578125,-0.74316406,0.6386719,-0.15625,-0.09375,-0.0625,0.0,0.0,0.0
1695391472313,-0.26464844,-0.7470703,0.64160156,-0.03125,0.0625,0.125,-53.25,-22.1875,-87.625
1695391472368,-0.26953125,-0.7451172,0.6484375,-0.09375,0.0,-0.0625,0.0,0.0,0.0
1695391472390,-0.2607422,-0.7421875,0.66308594,-0.09375,0.0,0.0625,0.0,0.0,0.0
1695391472436,-0.25976562,-0.7451172,0.640625,-0.21875,-0.09375,0.125,0.0,0.0,0.0
1695391472471,-0.265625,-0.75,0.6513672,0.0625,0.0,-0.0625,0.0,0.0,0.0
1695391472514,-0.265625,-0.7548828,0.64746094,0.0625,0.0,0.125,0.0,0.0,0.0
1695391472548,-0.26464844,-0.7480469,0.6425781,-0.15625,0.3125,0.1875,0.0,0.0,0.0
1695391472593,-0.27246094,-0.7373047,0.64941406,-0.40625,0.0,0.125,0.0,0.0,0.0
1695391472628,-0.2685547,-0.7402344,0.6455078,-0.09375,-0.09375,-0.125,0.0,0.0,0.0
1695391472673,-0.25878906,-0.7421875,0.64160156,-0.15625,-0.03125,0.125,0.0,0.0,0.0
1695391472717,-0.265625,-0.7451172,0.6513672,-0.09375,0.0,-0.125,0.0,0.0,0.0
1695391472751,-0.25878906,-0.7451172,0.6376953,-0.09375,0.0,0.0625,0.0,0.0,0.0
1695391472796,-0.2626953,-0.7548828,0.64746094,0.0,0.125,0.1875,0.0,0.0,0.0
1695391472830,-0.25976562,-0.7470703,0.6533203,-0.03125,0.0625,0.21875,-53.5625,-20.8125,-88.375
1695391472874,-0.26953125,-0.75097656,0.65527344,0.0,-0.03125,0.125,0.0,0.0,0.0
1695391472908,-0.27246094,-0.7480469,0.64746094,0.0,0.0,0.125,0.0,0.0,0.0
1695391472953,-0.26464844,-0.75390625,0.64941406,-0.15625,0.125,0.125,0.0,0.0,0.0
1695391472987,-0.26757812,-0.7421875,0.6582031,-0.09375,0.1875,0.0625,0.0,0.0,0.0
1695391473032,-0.26757812,-0.75097656,0.6484375,-0.21875,0.125,0.1875,0.0,0.0,0.0
1695391473077,-0.25585938,-0.7441406,0.65625,-0.15625,-0.09375,0.1875,0.0,0.0,0.0
1695391473123,-0.25878906,-0.7421875,0.64453125,-0.28125,0.0,0.1875,0.0,0.0,0.0
1695391473156,-0.2685547,-0.7392578,0.64746094,-0.15625,0.0,0.125,0.0,0.0,0.0
1695391473190,-0.265625,-0.73828125,0.6347656,-0.03125,-0.03125,0.1875,0.0,0.0,0.0
1695391473235,-0.26464844,-0.7421875,0.64453125,0.5,-0.21875,0.0,0.0,0.0,0.0
1695391473268,-0.26464844,-0.75097656,0.6503906,0.3125,0.0,0.0625,0.0,0.0,0.0
1695391473314,-0.2626953,-0.7558594,0.6328125,0.3125,-0.09375,0.125,-53.5625,-20.8125,-89.0
1695391473359,-0.2607422,-0.73828125,0.6533203,-0.34375,0.25,0.21875,0.0,0.0,0.0
1695391473392,-0.26953125,-0.74902344,0.65625,-0.34375,0.25,0.34375,0.0,0.0,0.0
1695391473438,-0.26660156,-0.74902344,0.6484375,-0.28125,0.0625,0.1875,0.0,0.0,0.0
1695391473471,-0.26464844,-0.7470703,0.6533203,0.0,-0.09375,0.0625,0.0,0.0,0.0
1695391473516,-0.27148438,-0.7363281,0.6435547,-0.09375,0.0,0.1875,0.0,0.0,0.0
1695391473550,-0.26660156,-0.7480469,0.6484375,-0.09375,-0.03125,0.0625,0.0,0.0,0.0
1695391473594,-0.27148438,-0.75,0.64941406,-0.03125,0.125,0.0625,0.0,0.0,0.0
1695391473628,-0.27246094,-0.74316406,0.6455078,-0.03125,0.125,0.28125,0.0,0.0,0.0
1695391473673,-0.2685547,-0.7519531,0.6464844,-0.09375,-0.09375,0.1875,0.0,0.0,0.0
1695391473719,-0.26757812,-0.7392578,0.640625,0.125,-0.09375,0.0,0.0,0.0,0.0
1695391473752,-0.25976562,-0.7451172,0.6513672,0.1875,-0.03125,0.0,0.0,0.0,0.0
1695391473798,-0.265625,-0.7363281,0.64941406,0.1875,-0.09375,-0.25,0.0,0.0,0.0
1695391473831,-0.26464844,-0.74609375,0.6464844,-0.03125,-0.09375,-0.3125,-54.75,-20.9375,-88.5625
1695391473887,-0.27148438,-0.7441406,0.640625,-0.15625,-0.09375,-0.0625,0.0,0.0,0.0
1695391473909,-0.2626953,-0.7480469,0.64160156,0.0,0.0,-0.25,0.0,0.0,0.0
1695391473954,-0.26953125,-0.7480469,0.6640625,-0.09375,0.0,-0.125,0.0,0.0,0.0
1695391473988,-0.26660156,-0.75390625,0.6435547,-0.03125,0.0625,-0.25,0.0,0.0,0.0
1695391474033,-0.26464844,-0.74609375,0.6464844,0.0625,0.0,-0.1875,0.0,0.0,0.0
1695391474082,-0.26757812,-0.7470703,0.640625,0.1875,-0.15625,0.0,0.0,0.0,0.0
