# Sensor type: Respeck
# Activity type: Standing
# Activity subtype: Normal
# Subject id: s1973433
# Notes: 
timestamp,accel_x,accel_y,accel_z,gyro_x,gyro_y,gyro_z
1695378876442,-0.036865234,-0.973938,0.11834717,2.734375,1.109375,0.703125
1695378876467,-0.025390625,-0.99053955,0.117126465,3.390625,1.28125,0.578125
1695378876528,-0.019042969,-0.99298096,0.10394287,2.0,1.140625,0.34375
1695378876559,-0.01928711,-0.99053955,0.10760498,1.546875,0.078125,0.28125
1695378876589,-0.01928711,-0.9927368,0.11566162,1.59375,0.140625,0.046875
1695378876649,-0.018798828,-0.98760986,0.112976074,1.484375,0.4375,0.03125
1695378876678,-0.026855469,-0.98883057,0.113220215,1.390625,-0.09375,0.0
1695378876707,-0.017333984,-1.0010376,0.11199951,1.828125,0.09375,-0.09375
1695378876768,-0.019042969,-0.99224854,0.109313965,1.40625,0.1875,-0.125
1695378876798,-0.016601562,-0.9927368,0.10321045,1.5625,-0.0625,-0.109375
1695378876828,-0.020507812,-0.99346924,0.10638428,0.8125,0.078125,-0.21875
1695378876888,-0.018066406,-0.9956665,0.10638428,0.96875,0.28125,-0.34375
1695378876917,-0.01928711,-0.9968872,0.10638428,0.8125,0.28125,-0.234375
1695378876947,-0.020507812,-0.99542236,0.11029053,0.65625,0.09375,-0.28125
1695378877007,-0.024169922,-0.9890747,0.113464355,1.359375,-0.328125,-0.09375
1695378877037,-0.016357422,-0.99468994,0.10345459,0.015625,0.75,-0.40625
1695378877068,-0.025878906,-0.9866333,0.11151123,1.0,-0.125,-0.171875
1695378877128,-0.021728516,-1.006897,0.11248779,0.46875,0.15625,-0.4375
1695378877157,-0.017333984,-0.989563,0.10443115,0.609375,0.28125,-0.28125
1695378877187,-0.020507812,-0.99298096,0.101745605,1.140625,0.21875,-0.296875
1695378877248,-0.016845703,-0.99664307,0.10858154,0.9375,0.0625,-0.28125
1695378877277,-0.019042969,-0.9783325,0.101745605,1.0625,0.328125,-0.125
1695378877308,-0.020507812,-0.99591064,0.10809326,1.171875,0.0625,-0.046875
1695378877367,-0.012207031,-0.9902954,0.10296631,1.0625,0.140625,-0.09375
1695378877397,-0.026123047,-0.9951782,0.105163574,1.078125,-0.046875,-0.171875
1695378877427,-0.020263672,-0.9846802,0.097839355,2.5625,0.390625,0.140625
1695378877488,-0.018554688,-0.9956665,0.101257324,1.21875,0.015625,0.0625
1695378877547,-0.026367188,-0.9915161,0.09954834,1.421875,0.390625,-0.03125
1695378877552,-0.016357422,-0.9944458,0.09466553,1.515625,0.34375,0.046875
1695378877652,-0.018310547,-0.9927368,0.10443115,0.875,0.453125,0.078125
1695378877656,-0.026611328,-0.99835205,0.105651855,1.78125,-0.09375,-0.21875
1695378877667,-0.020019531,-0.9873657,0.08831787,0.359375,0.78125,-0.359375
1695378877697,-0.026855469,-0.9976196,0.11126709,1.9375,-0.296875,0.0625
1695378877773,-0.018554688,-1.0007935,0.093444824,0.453125,0.15625,-0.421875
1695378877788,-0.017089844,-0.9951782,0.097595215,1.046875,0.171875,-0.0625
1695378877817,-0.022705078,-1.0007935,0.10443115,0.671875,-0.109375,-0.046875
1695378877879,-0.010498047,-0.9927368,0.101501465,0.9375,-0.328125,-0.1875
1695378877907,-0.01586914,-0.98760986,0.09686279,0.9375,0.109375,-0.09375
1695378877938,-0.016113281,-0.9998169,0.10028076,0.6875,-0.5625,-0.171875
1695378877997,-0.014160156,-0.99468994,0.10076904,1.140625,-0.265625,0.015625
1695378878029,-0.0107421875,-0.9944458,0.09979248,0.921875,-0.515625,-0.125
1695378878057,-0.016113281,-0.9998169,0.10369873,0.578125,-0.421875,0.078125
1695378878117,-0.020507812,-0.9963989,0.094177246,1.21875,-0.4375,-0.078125
1695378878148,-0.009033203,-1.0027466,0.1005249,1.0625,-0.171875,0.09375
1695378878178,-0.017089844,-0.9902954,0.094177246,0.59375,-0.34375,-0.140625
1695378878238,-0.017333984,-0.99420166,0.101745605,1.484375,-0.09375,0.015625
1695378878298,-0.009521484,-0.9976196,0.10638428,1.453125,-0.1875,0.0625
1695378878301,-0.010253906,-0.99005127,0.09515381,0.9375,-0.125,-0.328125
1695378878357,-0.026123047,-0.9920044,0.09564209,1.984375,-0.015625,-0.0625
1695378878417,-0.012207031,-1.0042114,0.097351074,1.421875,-0.03125,-0.21875
1695378878422,-0.00390625,-0.9883423,0.094177246,1.0625,0.109375,-0.375
1695378878477,-0.028076172,-0.99786377,0.09197998,1.625,0.109375,-0.328125
1695378878509,-0.0146484375,-0.99420166,0.10247803,1.09375,-0.078125,-0.4375
1695378878541,-0.01586914,-0.9837036,0.093444824,1.4375,0.1875,-0.46875
1695378878597,-0.018554688,-1.0027466,0.09466553,1.25,-0.125,-0.34375
1695378878627,-0.010253906,-0.9890747,0.09515381,1.296875,-0.171875,-0.3125
1695378878658,-0.010253906,-0.9902954,0.09222412,1.203125,-0.375,-0.390625
1695378878718,-0.012939453,-1.0010376,0.08856201,1.234375,-0.6875,-0.359375
1695378878750,-0.011230469,-0.98565674,0.09539795,1.328125,-0.25,-0.5625
1695378878777,-0.0146484375,-0.9993286,0.090026855,0.0625,0.0,-0.515625
1695378878837,-0.012451172,-0.9968872,0.08782959,-0.578125,0.71875,-0.421875
1695378878869,-0.017822266,-0.9956665,0.089538574,-0.03125,0.0625,-0.609375
1695378878899,-0.01928711,-0.9915161,0.093688965,0.0625,0.234375,-0.359375
1695378878958,-0.017333984,-0.9956665,0.10418701,0.515625,-0.078125,-0.53125
1695378878987,-0.016601562,-0.9866333,0.09124756,-0.0625,0.234375,-0.375
1695378879018,-0.022460938,-0.9968872,0.09466553,1.21875,-0.421875,-0.53125
1695378879077,-0.010253906,-0.99664307,0.09686279,1.203125,-0.328125,-0.1875
1695378879107,-0.013427734,-0.9956665,0.09490967,1.25,0.015625,-0.328125
1695378879138,-0.024169922,-0.99542236,0.09588623,1.234375,-0.28125,-0.5
1695378879197,-0.009277344,-0.9956665,0.09466553,0.9375,0.203125,-0.609375
1695378879228,-0.01953125,-0.99005127,0.0914917,1.234375,-0.359375,-0.421875
1695378879257,-0.0234375,-0.99224854,0.09881592,1.078125,-0.15625,-0.71875
1695378879317,-0.017333984,-0.991272,0.09466553,0.90625,-0.1875,-0.78125
1695378879348,-0.020507812,-0.9949341,0.09246826,0.75,-0.296875,-0.890625
1695378879378,-0.024902344,-0.99420166,0.09710693,0.671875,-0.46875,-0.59375
1695378879437,-0.021972656,-0.9937134,0.089538574,0.359375,-0.140625,-0.6875
1695378879468,-0.026367188,-0.9890747,0.09051514,0.15625,0.140625,-0.625
1695378879498,-0.028076172,-0.99591064,0.093688965,0.5625,-0.046875,-0.59375
1695378879573,-0.020263672,-0.98516846,0.09686279,0.015625,0.484375,-0.421875
1695378879579,-0.026855469,-0.991272,0.0993042,1.078125,0.125,-0.5
1695378879618,-0.026855469,-0.99420166,0.09564209,-0.140625,0.5625,-0.640625
1695378879708,-0.03540039,-0.99835205,0.10418701,0.921875,0.265625,-0.34375
1695378879713,-0.024902344,-0.9951782,0.093444824,-0.0625,0.421875,-0.328125
1695378879740,-0.021484375,-0.9890747,0.10003662,-0.40625,0.296875,-0.4375
1695378879798,-0.026611328,-0.99664307,0.11395264,-0.515625,0.1875,-0.46875
1695378879828,-0.033203125,-0.9902954,0.11199951,-0.53125,0.109375,-0.546875
1695378879857,-0.027832031,-0.9885864,0.11126709,-0.09375,0.4375,-0.390625
1695378879903,-0.030273438,-0.9944458,0.11248779,0.015625,0.125,-0.28125
1695378879951,-0.020507812,-0.98321533,0.10491943,0.328125,0.375,-0.421875
1695378879978,-0.03125,-0.98809814,0.11077881,0.03125,0.546875,-0.359375
1695378880070,-0.029052734,-0.98760986,0.11932373,0.375,0.1875,-0.25
1695378880073,-0.032958984,-0.9939575,0.11395264,0.515625,0.609375,-0.53125
1695378880099,-0.024169922,-0.9937134,0.11517334,1.171875,0.90625,-0.3125
1695378880128,-0.024414062,-0.9885864,0.11053467,0.34375,0.546875,-0.359375
1695378880187,-0.028808594,-0.9956665,0.11248779,0.546875,0.234375,-0.359375
1695378880248,-0.028564453,-0.98883057,0.12420654,0.65625,0.234375,-0.171875
1695378880252,-0.030273438,-0.9902954,0.11029053,0.546875,0.390625,-0.71875
1695378880309,-0.033203125,-0.9890747,0.11175537,0.578125,0.375,-0.453125
1695378880338,-0.022949219,-1.0029907,0.12005615,0.3125,0.21875,-0.3125
1695378880368,-0.03149414,-0.98760986,0.11199951,0.28125,0.609375,-0.53125
1695378880428,-0.033691406,-0.99420166,0.113464355,0.984375,1.03125,-0.609375
1695378880458,-0.03125,-0.9968872,0.11199951,0.65625,0.484375,-0.5625
1695378880489,-0.03466797,-0.9871216,0.10760498,0.203125,0.40625,-0.5
1695378880548,-0.030761719,-0.9932251,0.11077881,0.59375,0.578125,-0.4375
1695378880578,-0.032958984,-0.9924927,0.12567139,0.265625,0.390625,-0.375
1695378880608,-0.029785156,-0.9902954,0.11785889,0.0,0.203125,-0.390625
1695378880669,-0.033935547,-0.9976196,0.12200928,0.203125,0.375,-0.6875
1695378880698,-0.03540039,-0.9890747,0.1149292,0.046875,0.5,-0.46875
1695378880758,-0.03100586,-0.9871216,0.12371826,0.3125,0.3125,-0.640625
1695378880787,-0.029785156,-0.9924927,0.12420654,0.390625,0.390625,-0.5625
1695378880818,-0.037597656,-0.989563,0.11785889,0.71875,0.234375,-0.375
1695378880863,-0.023925781,-0.9937134,0.12249756,0.359375,-0.046875,-0.453125
1695378880908,-0.041748047,-0.9859009,0.12640381,0.484375,0.140625,-0.125
1695378880969,-0.030517578,-0.9920044,0.1251831,0.921875,0.078125,-0.375
1695378880973,-0.036376953,-0.98760986,0.124694824,0.125,0.21875,-0.46875
1695378881027,-0.03857422,-1.0010376,0.12738037,1.234375,-0.21875,0.046875
1695378881058,-0.029052734,-0.9829712,0.121032715,0.453125,-0.140625,-0.203125
1695378881087,-0.036621094,-0.99468994,0.12982178,0.859375,0.0625,-0.0625
1695378881163,-0.03491211,-0.99884033,0.1251831,1.15625,-0.109375,-0.203125
1695378881209,-0.03173828,-0.9846802,0.120788574,0.828125,-0.390625,-0.203125
1695378881213,-0.030029297,-0.9937134,0.12762451,0.984375,-0.09375,-0.1875
1695378881282,-0.040283203,-0.99053955,0.12689209,1.0,-0.1875,-0.109375
1695378881298,-0.033691406,-0.9944458,0.11785889,0.828125,-0.15625,-0.203125
1695378881328,-0.028564453,-0.98565674,0.12689209,1.046875,0.09375,0.078125
1695378881389,-0.03540039,-0.9885864,0.116882324,1.015625,0.234375,-0.125
1695378881418,-0.036621094,-0.99468994,0.12640381,0.984375,-0.234375,-0.09375
1695378881448,-0.038085938,-0.99005127,0.13104248,0.9375,0.015625,-0.265625
1695378881509,-0.035888672,-0.99346924,0.12054443,0.828125,0.15625,-0.28125
1695378881539,-0.032714844,-0.9924927,0.1317749,0.484375,0.140625,-0.4375
1695378881568,-0.03955078,-0.9829712,0.13031006,0.25,0.375,-0.296875
1695378881628,-0.036376953,-1.0010376,0.13348389,2.0625,-0.296875,-0.1875
1695378881657,-0.037597656,-0.9890747,0.11419678,-0.328125,0.171875,-0.546875
1695378881688,-0.037353516,-0.9951782,0.12982178,1.96875,-0.171875,-0.15625
1695378881748,-0.034423828,-0.99346924,0.12640381,0.53125,-0.015625,-0.515625
1695378881778,-0.033935547,-0.989563,0.12713623,0.71875,0.328125,-0.3125
1695378881807,-0.042236328,-0.99102783,0.12005615,1.109375,0.0,-0.421875
1695378881869,-0.034179688,-0.99468994,0.12640381,0.515625,0.171875,-0.3125
1695378881898,-0.030761719,-0.9849243,0.12298584,0.78125,-0.046875,-0.421875
1695378881928,-0.034423828,-0.9932251,0.13006592,0.78125,0.203125,-0.453125
1695378881987,-0.03955078,-0.98687744,0.121520996,0.953125,-0.234375,-0.15625
1695378882018,-0.044921875,-0.98809814,0.124938965,1.0,0.0625,-0.265625
1695378882063,-0.029541016,-0.9949341,0.117614746,0.953125,-0.4375,-0.078125
1695378882140,-0.030029297,-0.9846802,0.120788574,0.15625,-0.59375,0.0625
1695378882144,-0.03955078,-0.99346924,0.12786865,1.125,-0.28125,0.0625
1695378882171,-0.041748047,-0.9963989,0.12689209,0.5,0.015625,-0.25
1695378882258,-0.040283203,-0.9883423,0.13031006,1.796875,0.59375,-0.0625
1695378882263,-0.035888672,-0.99664307,0.12322998,1.953125,0.609375,-0.1875
1695378882318,-0.032714844,-0.9734497,0.121032715,2.15625,1.84375,0.484375
1695378882348,-0.03955078,-1.0071411,0.13885498,2.953125,-0.3125,0.0
1695378882395,-0.026367188,-0.9866333,0.11273193,0.203125,-0.359375,-0.453125
1695378882438,-0.037109375,-0.9920044,0.12005615,2.171875,-0.40625,-0.0625
1695378882468,-0.037841797,-0.9927368,0.11883545,1.453125,0.25,-0.359375
1695378882498,-0.030029297,-0.9841919,0.10638428,1.9375,-0.3125,0.0625
1695378882528,-0.030761719,-1.0005493,0.12005615,1.265625,-0.5625,0.046875
1695378882588,-0.037597656,-0.9866333,0.12200928,1.375,-0.75,-0.09375
1695378882618,-0.032470703,-0.9920044,0.11029053,2.40625,-0.484375,0.125
1695378882648,-0.034423828,-0.987854,0.11566162,1.546875,-0.875,0.078125
1695378882678,-0.03466797,-0.9924927,0.11175537,1.65625,-0.625,0.015625
1695378882738,-0.03466797,-0.9937134,0.112976074,2.09375,-0.578125,-0.078125
1695378882770,-0.038085938,-0.9956665,0.10369873,1.90625,-0.375,0.046875
1695378882798,-0.033691406,-0.9920044,0.11077881,2.015625,-0.25,0.03125
1695378882858,-0.029541016,-0.99664307,0.109802246,2.0625,0.28125,0.09375
1695378882888,-0.035888672,-0.98638916,0.09857178,3.015625,0.28125,0.15625
1695378882917,-0.029541016,-0.99102783,0.09710693,2.046875,0.171875,0.1875
1695378882978,-0.03149414,-0.9937134,0.09686279,1.890625,0.109375,-0.234375
1695378883008,-0.032470703,-0.991272,0.101989746,1.78125,0.90625,0.171875
1695378883038,-0.028320312,-0.99591064,0.09564209,2.21875,0.21875,-0.15625
1695378883099,-0.032714844,-0.99224854,0.1005249,1.140625,0.625,-0.15625
1695378883127,-0.03515625,-0.9920044,0.09515381,1.40625,0.203125,-0.140625
1695378883158,-0.020751953,-0.9927368,0.08514404,1.65625,0.296875,-0.140625
1695378883218,-0.030761719,-0.9937134,0.09246826,1.40625,0.21875,-0.203125
1695378883247,-0.026123047,-0.9956665,0.09637451,1.0625,0.25,-0.1875
1695378883278,-0.028808594,-0.9890747,0.089782715,1.125,0.265625,-0.234375
1695378883338,-0.024414062,-0.9985962,0.0927124,0.578125,-0.484375,-0.234375
1695378883368,-0.037353516,-0.9932251,0.09637451,1.046875,-0.171875,-0.046875
1695378883399,-0.029052734,-0.9920044,0.09173584,0.71875,0.0625,-0.328125
1695378883458,-0.024169922,-0.9939575,0.090270996,0.875,-0.046875,-0.140625
1695378883489,-0.03491211,-0.991272,0.09320068,0.296875,-0.09375,-0.296875
1695378883547,-0.022705078,-0.9915161,0.0927124,0.78125,0.171875,-0.390625
1695378883579,-0.03540039,-0.9915161,0.090270996,0.1875,0.171875,-0.375
1695378883607,-0.038330078,-0.9907837,0.097595215,0.125,0.546875,-0.203125
1695378883639,-0.029296875,-0.9932251,0.09490967,0.84375,-0.171875,-0.03125
1695378883697,-0.030029297,-0.99102783,0.09661865,0.390625,0.0,-0.125
1695378883728,-0.030517578,-0.9924927,0.09906006,0.46875,0.078125,-0.328125
1695378883788,-0.042236328,-0.989563,0.097839355,0.34375,0.140625,-0.15625
1695378883818,-0.029052734,-0.99664307,0.10223389,0.59375,0.3125,-0.140625
1695378883848,-0.021728516,-0.98760986,0.09490967,0.15625,0.203125,-0.40625
1695378883877,-0.03540039,-0.989563,0.10247803,0.046875,0.4375,-0.390625
1695378883938,-0.030029297,-0.9907837,0.10809326,0.578125,0.4375,-0.28125
1695378883969,-0.030273438,-0.989563,0.097839355,0.421875,0.609375,-0.46875
1695378883998,-0.039794922,-0.9939575,0.10662842,0.46875,0.34375,-0.5
1695378884058,-0.02734375,-0.9898071,0.09661865,0.46875,0.328125,-0.3125
1695378884087,-0.025878906,-0.98883057,0.101501465,0.53125,0.171875,-0.3125
1695378884117,-0.03100586,-0.99053955,0.10247803,0.328125,0.125,-0.28125
1695378884178,-0.032470703,-0.9937134,0.105651855,0.15625,-0.015625,-0.484375
1695378884208,-0.033935547,-0.99053955,0.112976074,0.90625,0.46875,-0.21875
1695378884238,-0.024902344,-0.98931885,0.10076904,0.25,0.34375,-0.078125
1695378884298,-0.026855469,-0.9993286,0.10345459,0.515625,-0.140625,0.078125
1695378884327,-0.025878906,-0.989563,0.10662842,0.453125,0.1875,0.296875
1695378884358,-0.034179688,-0.9951782,0.11248779,1.640625,-0.25,0.265625
1695378884417,-0.024902344,-0.991272,0.09881592,0.21875,0.46875,-0.015625
1695378884448,-0.034423828,-0.99591064,0.11273193,0.984375,-0.234375,0.1875
1695378884477,-0.03125,-0.99102783,0.10443115,0.796875,-0.015625,0.015625
1695378884540,-0.022460938,-0.9898071,0.10638428,0.921875,0.34375,-0.21875
1695378884568,-0.030761719,-0.9898071,0.11077881,0.6875,0.609375,-0.078125
1695378884598,-0.03100586,-0.9907837,0.10418701,0.8125,0.09375,-0.171875
1695378884657,-0.028808594,-0.991272,0.105895996,1.1875,-0.015625,-0.125
1695378884688,-0.032470703,-0.99053955,0.11029053,1.203125,0.515625,-0.015625
1695378884718,-0.032470703,-0.9902954,0.109802246,1.203125,0.515625,-0.296875
1695378884808,-0.024658203,-0.99542236,0.105407715,0.796875,0.265625,-0.125
1695378884812,-0.025146484,-0.9963989,0.105407715,0.484375,0.1875,-0.3125
1695378884837,-0.03564453,-0.9898071,0.1071167,0.640625,0.359375,-0.34375
1695378884928,-0.030761719,-0.99420166,0.10638428,1.15625,0.203125,-0.28125
1695378884933,-0.029052734,-0.98272705,0.105407715,0.953125,0.03125,-0.015625
1695378884989,-0.032470703,-1.0007935,0.11029053,1.34375,0.046875,-0.265625
1695378885018,-0.039794922,-0.98516846,0.105407715,1.28125,0.484375,0.171875
1695378885048,-0.020019531,-1.0056763,0.10882568,1.421875,0.125,-0.296875
1695378885077,-0.041992188,-0.986145,0.10272217,-0.34375,0.5,-0.546875
1695378885107,-0.032958984,-0.9951782,0.112976074,1.375,0.421875,-0.21875
1695378885168,-0.020263672,-0.9898071,0.09588623,0.265625,0.375,-0.484375
1695378885198,-0.032226562,-0.98809814,0.11248779,0.34375,0.109375,-0.328125
1695378885228,-0.030761719,-0.9990845,0.10882568,0.484375,-0.1875,-0.390625
1695378885288,-0.0234375,-0.986145,0.10858154,0.265625,0.5,-0.375
1695378885317,-0.033691406,-0.9873657,0.11175537,0.734375,0.140625,-0.359375
1695378885350,-0.03173828,-1.0022583,0.11004639,0.859375,-0.390625,-0.28125
1695378885408,-0.026855469,-0.98760986,0.10345459,1.015625,0.265625,-0.265625
1695378885437,-0.033691406,-0.99468994,0.109313965,1.125,0.1875,-0.234375
1695378885467,-0.03173828,-0.98809814,0.105163574,0.484375,0.40625,-0.390625
1695378885529,-0.03100586,-0.9915161,0.10784912,1.25,0.265625,-0.25
1695378885558,-0.018554688,-0.9944458,0.10614014,1.046875,0.234375,-0.03125
1695378885587,-0.029296875,-0.9920044,0.10418701,1.21875,0.03125,-0.09375
1695378885649,-0.028320312,-0.9859009,0.11151123,1.265625,0.453125,0.125
1695378885677,-0.02758789,-1.0027466,0.11029053,2.203125,-0.140625,0.0625
1695378885707,-0.024658203,-0.989563,0.097351074,-0.171875,0.46875,-0.0625
1695378885768,-0.037841797,-0.99713135,0.117614746,2.125,-0.109375,0.296875
1695378885798,-0.030761719,-0.9873657,0.10467529,0.453125,0.4375,-0.125
1695378885828,-0.01928711,-0.99224854,0.10321045,1.546875,0.421875,0.0625
1695378885888,-0.028564453,-0.9937134,0.1083374,0.78125,0.15625,0.015625
1695378885918,-0.034179688,-0.98394775,0.10491943,0.859375,0.171875,-0.1875
1695378885947,-0.026855469,-1.0010376,0.101501465,1.296875,-0.015625,0.03125
1695378886007,-0.024658203,-0.9920044,0.10760498,0.921875,-0.25,-0.046875
1695378886038,-0.029052734,-0.9932251,0.10028076,1.46875,-0.125,-0.125
1695378886098,-0.027832031,-0.99102783,0.10223389,1.34375,0.25,-0.125
1695378886128,-0.026367188,-0.9939575,0.10467529,1.21875,0.328125,-0.3125
1695378886158,-0.029541016,-0.9949341,0.09637451,2.21875,0.34375,-0.015625
1695378886188,-0.018310547,-0.9944458,0.101501465,1.8125,0.375,-0.09375
1695378886248,-0.029785156,-0.9915161,0.0993042,1.640625,0.1875,-0.09375
1695378886279,-0.024902344,-0.99224854,0.097839355,1.875,0.25,-0.234375
1695378886307,-0.026611328,-0.98565674,0.10076904,1.625,0.28125,0.140625
1695378886368,-0.02319336,-1.003479,0.10296631,2.625,-0.078125,-0.078125
1695378886398,-0.027832031,-0.99420166,0.086120605,0.1875,0.609375,-0.34375
1695378886429,-0.030761719,-0.9949341,0.10272217,2.390625,-0.1875,0.140625
1695378886488,-0.017333984,-0.9920044,0.08392334,0.828125,-0.015625,-0.140625
1695378886533,-0.03149414,-0.9968872,0.08929443,0.875,-0.015625,-0.28125
1695378886548,-0.03149414,-0.9924927,0.097839355,0.46875,-0.109375,-0.203125
1695378886639,-0.024414062,-0.99591064,0.09490967,0.1875,0.1875,-0.359375
1695378886645,-0.022460938,-0.99005127,0.09564209,0.671875,-0.34375,-0.125
1695378886668,-0.0234375,-1.000061,0.093933105,1.078125,-0.171875,-0.109375
1695378886758,-0.02758789,-0.9866333,0.09222412,0.78125,-0.09375,-0.078125
1695378886763,-0.03540039,-0.99664307,0.1005249,1.015625,0.03125,-0.28125
1695378886788,-0.029541016,-0.99786377,0.105163574,1.015625,0.265625,-0.28125
1695378886849,-0.02368164,-0.99224854,0.09490967,1.453125,0.09375,-0.140625
1695378886878,-0.025878906,-0.99835205,0.090270996,0.796875,0.109375,-0.1875
1695378886907,-0.029296875,-0.9890747,0.09637451,0.125,0.109375,-0.4375
1695378886969,-0.021484375,-0.9976196,0.101501465,0.875,0.109375,-0.328125
1695378886997,-0.030029297,-0.9924927,0.10272217,1.65625,-0.015625,0.046875
1695378887027,-0.020263672,-0.99957275,0.093444824,1.109375,0.421875,-0.296875
1695378887088,-0.036376953,-0.9890747,0.10028076,1.609375,-0.140625,-0.140625
1695378887118,-0.018798828,-0.9951782,0.08758545,1.3125,0.0625,-0.265625
1695378887148,-0.018066406,-1.0020142,0.085876465,1.015625,-0.328125,-0.28125
1695378887208,-0.029785156,-0.9968872,0.10687256,1.015625,-0.109375,-0.1875
1695378887238,-0.020751953,-0.9890747,0.09490967,1.15625,-0.796875,-0.0625
1695378887269,-0.030761719,-0.9937134,0.093933105,1.75,-0.5625,0.234375
1695378887328,-0.027832031,-0.99176025,0.090270996,1.0625,-0.765625,-0.109375
1695378887387,-0.026123047,-0.9939575,0.09710693,1.546875,-0.9375,0.125
1695378887391,-0.021728516,-0.9939575,0.086364746,1.609375,-0.484375,-0.0625
1695378887448,-0.022460938,-0.9951782,0.08441162,0.671875,-0.75,-0.3125
1695378887478,-0.026611328,-0.9968872,0.08856201,1.078125,-0.375,-0.453125
1695378887507,-0.024658203,-0.9898071,0.09197998,0.734375,0.234375,-0.1875
1695378887538,-0.027832031,-0.991272,0.094177246,0.875,0.265625,-0.3125
1695378887597,-0.0234375,-0.99542236,0.09075928,0.484375,0.203125,-0.25
1695378887628,-0.03149414,-0.991272,0.09075928,1.71875,-0.03125,0.0625
1695378887659,-0.021728516,-0.99102783,0.08856201,0.046875,0.40625,-0.390625
1695378887717,-0.028076172,-0.989563,0.09686279,1.5,-0.203125,-0.15625
1695378887748,-0.017333984,-0.9973755,0.08270264,0.140625,0.109375,-0.359375
1695378887778,-0.016601562,-0.9932251,0.081726074,0.40625,-0.296875,-0.25
1695378887838,-0.026123047,-1.000061,0.09637451,0.296875,-0.15625,-0.25
1695378887868,-0.022949219,-0.9956665,0.0848999,0.15625,-0.375,-0.34375
1695378887899,-0.01977539,-0.99224854,0.08734131,0.234375,-0.09375,-0.25
1695378887958,-0.030273438,-0.9973755,0.09906006,-0.046875,-0.3125,-0.34375
1695378887988,-0.025878906,-0.9956665,0.09100342,0.53125,0.21875,-0.28125
1695378888019,-0.022216797,-0.99468994,0.093444824,-0.125,0.078125,-0.453125
1695378888078,-0.027832031,-0.9932251,0.09173584,0.125,-0.0625,-0.234375
1695378888107,-0.028320312,-0.9932251,0.09686279,0.109375,0.359375,-0.546875
1695378888137,-0.030761719,-0.9951782,0.10003662,0.546875,0.640625,-0.15625
1695378888197,-0.02734375,-0.99468994,0.09881592,0.03125,0.671875,-0.203125
1695378888228,-0.0234375,-0.9920044,0.10321045,0.5625,0.171875,-0.328125
1695378888258,-0.028320312,-0.9898071,0.10784912,0.9375,0.59375,0.0
1695378888333,-0.021728516,-0.9956665,0.09954834,0.140625,0.421875,-0.46875
1695378888378,-0.032226562,-0.99176025,0.10223389,0.75,-0.0625,-0.078125
1695378888383,-0.0234375,-1.0003052,0.10369873,0.46875,0.09375,-0.140625
1695378888438,-0.022705078,-0.991272,0.09075928,-0.015625,0.109375,-0.390625
1695378888467,-0.029296875,-0.9949341,0.10614014,-0.015625,0.109375,-0.234375
1695378888498,-0.026611328,-0.9949341,0.10614014,0.3125,-0.3125,-0.234375
1695378888557,-0.01928711,-0.9902954,0.10614014,-0.015625,0.171875,-0.40625
1695378888588,-0.029541016,-0.99420166,0.11004639,0.328125,0.3125,-0.375
1695378888648,-0.029052734,-0.9885864,0.105407715,0.234375,-0.421875,-0.421875
1695378888677,-0.023925781,-0.9924927,0.11077881,-0.015625,0.234375,-0.5625
1695378888708,-0.03100586,-0.9939575,0.1071167,0.265625,0.53125,-0.46875
1695378888738,-0.034423828,-0.98760986,0.11419678,0.375,0.421875,-0.390625
1695378888797,-0.028564453,-0.987854,0.109313965,0.671875,0.484375,-0.40625
1695378888828,-0.029541016,-0.99102783,0.11590576,0.171875,0.578125,-0.453125
1695378888858,-0.032958984,-0.9951782,0.116882324,1.1875,0.390625,-0.46875
1695378888918,-0.030273438,-0.98687744,0.11224365,0.453125,0.34375,-0.171875
1695378888948,-0.025634766,-0.9915161,0.113220215,1.421875,-0.140625,-0.4375
1695378888978,-0.024658203,-0.98809814,0.109069824,-0.4375,0.625,-0.65625
1695378889039,-0.03149414,-0.99468994,0.11907959,1.4375,0.109375,-0.125
1695378889068,-0.028076172,-0.99176025,0.10882568,0.84375,0.09375,-0.265625
1695378889098,-0.026855469,-0.99224854,0.11883545,1.015625,0.765625,-0.265625
1695378889173,-0.03173828,-0.9963989,0.11810303,1.5,0.078125,-0.21875
1695378889177,-0.020996094,-0.98687744,0.10760498,1.09375,0.53125,-0.28125
1695378889233,-0.037109375,-0.98321533,0.105895996,1.015625,0.03125,-0.3125
1695378889279,-0.030273438,-0.9993286,0.11224365,1.359375,-0.21875,-0.078125
1695378889338,-0.025878906,-0.99542236,0.10882568,0.796875,-0.21875,-0.40625
1695378889343,-0.033203125,-0.9973755,0.11175537,0.59375,0.78125,-0.140625
1695378889399,-0.033447266,-0.98883057,0.113220215,0.609375,0.03125,-0.1875
1695378889430,-0.029785156,-0.99713135,0.11419678,0.75,0.390625,-0.21875
1695378889458,-0.033935547,-0.98760986,0.10614014,0.75,0.609375,-0.125
1695378889519,-0.038085938,-0.9883423,0.11248779,0.703125,0.34375,-0.15625
1695378889548,-0.030029297,-1.00177,0.11541748,0.5,0.078125,-0.40625
1695378889578,-0.037353516,-0.9780884,0.116882324,0.796875,0.390625,-0.09375
1695378889638,-0.029785156,-0.9915161,0.11566162,0.84375,0.28125,-0.609375
1695378889668,-0.034423828,-0.98760986,0.11029053,0.75,0.421875,-0.078125
1695378889698,-0.030761719,-0.9963989,0.11663818,1.015625,0.296875,-0.28125
1695378889758,-0.022949219,-0.9890747,0.11444092,0.84375,0.15625,-0.25
1695378889788,-0.025634766,-0.99664307,0.11419678,0.984375,0.296875,-0.25
1695378889818,-0.029541016,-0.9968872,0.11004639,1.0,-0.25,-0.296875
1695378889938,-0.036132812,-0.9915161,0.11077881,0.859375,0.34375,-0.140625
1695378889943,-0.029052734,-0.99176025,0.11248779,1.546875,0.0,0.046875
1695378889948,-0.026611328,-0.9915161,0.11224365,1.21875,-0.25,0.046875
1695378889967,-0.032470703,-0.98321533,0.109069824,1.28125,-0.046875,-0.015625
1695378890028,-0.033935547,-0.99005127,0.112976074,1.03125,0.09375,-0.140625
1695378890058,-0.029785156,-0.9871216,0.109802246,1.0,0.078125,0.046875
1695378890105,-0.028076172,-0.99224854,0.10882568,1.21875,0.171875,-0.15625
1695378890148,-0.025390625,-0.9924927,0.11566162,1.265625,0.375,-0.046875
1695378890195,-0.037597656,-0.9990845,0.113708496,1.859375,0.890625,-0.0625
1695378890207,-0.026855469,-0.9944458,0.10272217,1.703125,0.734375,-0.171875
1695378890268,-0.024658203,-0.99102783,0.10662842,1.453125,0.59375,-0.046875
1695378890298,-0.029785156,-1.000061,0.11590576,2.4375,0.3125,-0.234375
1695378890328,-0.034179688,-0.98687744,0.098083496,0.578125,1.171875,-0.203125
1695378890388,-0.02319336,-1.005188,0.11273193,2.515625,0.171875,0.03125
1695378890418,-0.024902344,-0.989563,0.09906006,1.265625,0.46875,-0.296875
1695378890449,-0.022949219,-0.9920044,0.10467529,1.875,0.625,-0.234375
1695378890507,-0.032714844,-0.9956665,0.1083374,1.703125,0.53125,0.015625
1695378890538,-0.020751953,-0.98638916,0.105163574,1.40625,0.78125,-0.125
1695378890567,-0.022705078,-0.9898071,0.10076904,2.09375,0.453125,0.046875
1695378890629,-0.024902344,-1.0010376,0.10369873,1.3125,-0.15625,0.09375
1695378890658,-0.023925781,-0.99005127,0.09686279,2.34375,0.40625,0.203125
1695378890688,-0.024414062,-0.9898071,0.09661865,2.078125,0.453125,0.171875
1695378890748,-0.027832031,-0.9968872,0.09222412,1.75,0.4375,0.015625
1695378890778,-0.022705078,-0.98883057,0.094177246,1.84375,0.390625,-0.015625
1695378890807,-0.020507812,-0.9944458,0.09320068,1.8125,0.234375,0.15625
1695378890868,-0.02368164,-0.9902954,0.093688965,1.796875,0.125,-0.171875
1695378890898,-0.025878906,-0.99346924,0.090270996,1.6875,0.515625,-0.03125
1695378890928,-0.02734375,-1.0020142,0.09222412,1.3125,0.5,0.015625
1695378891003,-0.017822266,-0.9920044,0.08685303,1.734375,0.21875,0.21875
1695378891018,-0.016357422,-0.99957275,0.085632324,0.828125,0.703125,-0.109375
1695378891063,-0.031982422,-1.000061,0.08465576,1.546875,0.015625,0.078125
1695378891107,-0.0126953125,-0.9963989,0.08148193,0.453125,-0.234375,0.0625
1695378891153,-0.013427734,-0.98809814,0.081970215,0.65625,-0.484375,-0.0625
1695378891168,-0.021484375,-1.0046997,0.09075928,0.28125,-0.78125,0.109375
1695378891227,-0.021728516,-0.9902954,0.086120605,-0.171875,-0.671875,-0.328125
1695378891258,-0.032714844,-0.9939575,0.08880615,0.625,0.140625,0.0
1695378891290,-0.01928711,-0.99176025,0.08929443,0.328125,-0.03125,-0.15625
1695378891349,-0.018554688,-0.986145,0.08880615,0.828125,0.0,-0.1875
1695378891407,-0.028808594,-0.9932251,0.09515381,0.15625,0.421875,-0.671875
1695378891411,-0.03125,-0.9963989,0.0914917,0.78125,0.9375,-0.375
1695378891467,-0.021972656,-0.99542236,0.093688965,0.8125,0.96875,-0.375
1695378891499,-0.021484375,-0.99664307,0.093933105,0.453125,0.828125,-0.34375
1695378891528,-0.026123047,-0.99664307,0.09564209,0.625,0.53125,-0.3125
1695378891589,-0.020263672,-0.9907837,0.09173584,0.375,0.5,-0.203125
1695378891617,-0.017333984,-0.9990845,0.093444824,0.140625,-0.25,-0.640625
1695378891647,-0.024169922,-0.9924927,0.101989746,1.0,-0.15625,-0.046875
1695378891709,-0.0053710938,-0.99468994,0.08685303,0.3125,-0.125,-0.421875
1695378891738,-0.02709961,-0.9849243,0.09515381,0.734375,-0.578125,-0.125
1695378891767,-0.01586914,-1.0037231,0.08831787,0.625,-0.015625,-0.25
1695378891828,-0.020996094,-0.9924927,0.086120605,-0.015625,0.125,-0.21875
1695378891859,-0.026611328,-1.0007935,0.10101318,0.359375,0.140625,-0.3125
1695378891887,-0.025390625,-0.99053955,0.10443115,0.609375,0.0625,-0.4375
1695378891947,-0.017333984,-0.98809814,0.09100342,0.65625,0.4375,-0.328125
1695378891978,-0.01586914,-0.99346924,0.09515381,0.40625,0.203125,-0.46875
1695378892007,-0.030517578,-0.9985962,0.10467529,0.71875,0.546875,-0.390625
1695378892068,-0.023925781,-0.9915161,0.10028076,0.765625,0.1875,-0.46875
1695378892098,-0.020263672,-0.9949341,0.1005249,0.515625,0.25,-0.5
1695378892128,-0.029052734,-0.9932251,0.10345459,0.4375,0.03125,-0.5625
1695378892188,-0.018066406,-0.99224854,0.098083496,0.484375,0.0625,-0.4375
1695378892222,-0.028076172,-0.99176025,0.10296631,0.109375,0.09375,-0.5625
1695378892307,-0.02734375,-0.98101807,0.10223389,0.125,0.109375,-0.46875
1695378892339,-0.026611328,-0.9920044,0.10101318,-0.015625,-0.234375,-0.4375
1695378892344,-0.02734375,-0.98516846,0.09979248,0.203125,0.0625,-0.109375
1695378892371,-0.01928711,-0.9968872,0.11126709,0.640625,-0.1875,-0.203125
1695378892398,-0.03149414,-0.9890747,0.10003662,-0.96875,-0.015625,-0.28125
1695378892488,-0.026367188,-1.003479,0.11126709,0.75,0.1875,-0.03125
1695378892493,-0.021240234,-0.989563,0.109069824,0.265625,0.171875,-0.171875
1695378892548,-0.026611328,-0.99053955,0.10736084,0.078125,0.203125,-0.3125
1695378892578,-0.029541016,-0.9937134,0.11444092,0.40625,0.203125,-0.1875
1695378892608,-0.022705078,-0.9873657,0.10101318,0.203125,0.484375,-0.078125
1695378892637,-0.028808594,-0.98883057,0.11102295,0.78125,0.25,0.0
1695378892729,-0.020507812,-0.99884033,0.11151123,0.703125,-0.0625,-0.140625
1695378892733,-0.022949219,-0.9890747,0.11541748,0.578125,0.21875,-0.21875
1695378892789,-0.022216797,-0.9937134,0.11175537,0.953125,0.203125,-0.140625
1695378892833,-0.028808594,-0.9924927,0.113708496,0.46875,0.0625,-0.328125
1695378892878,-0.024414062,-0.9902954,0.109558105,0.84375,0.1875,-0.390625
1695378892883,-0.020751953,-0.98760986,0.11395264,1.375,0.359375,-0.375
1695378892938,-0.027832031,-0.9915161,0.11395264,0.390625,0.140625,-0.515625
1695378892968,-0.02319336,-0.98883057,0.11956787,1.203125,0.03125,-0.578125
1695378892997,-0.040771484,-0.99053955,0.11834717,1.1875,-0.265625,-0.296875
1695378893058,-0.020019531,-0.9924927,0.11273193,1.484375,-0.1875,-0.3125
1695378893088,-0.029296875,-0.9854126,0.10760498,-0.078125,0.40625,-0.453125
1695378893117,-0.030029297,-1.0012817,0.120788574,1.40625,-0.421875,-0.375
1695378893178,-0.02709961,-0.99005127,0.11004639,0.671875,-0.046875,-0.515625
1695378893207,-0.029785156,-0.991272,0.1149292,1.140625,0.296875,-0.25
1695378893238,-0.028320312,-0.9951782,0.11077881,1.1875,-0.1875,-0.265625
1695378893328,-0.030029297,-0.9873657,0.112976074,1.359375,0.234375,-0.046875
1695378893333,-0.03100586,-0.9961548,0.11419678,1.640625,0.53125,-0.203125
1695378893359,-0.030273438,-0.99786377,0.11199951,1.96875,0.21875,-0.015625
1695378893421,-0.028076172,-0.9873657,0.101989746,1.265625,0.078125,-0.015625
1695378893448,-0.024414062,-0.99298096,0.11419678,1.34375,0.234375,-0.15625
1695378893478,-0.030761719,-0.9937134,0.105163574,0.78125,0.5,-0.015625
1695378893538,-0.029052734,-0.99346924,0.1083374,1.28125,0.21875,-0.03125
1695378893567,-0.025634766,-0.99468994,0.109069824,1.265625,0.625,-0.046875
1695378893599,-0.02709961,-0.9898071,0.10321045,1.15625,0.546875,-0.046875
1695378893673,-0.022949219,-1.0003052,0.11248779,1.578125,0.359375,-0.140625
1695378893680,-0.02758789,-0.9902954,0.10760498,0.96875,0.109375,-0.140625
1695378893719,-0.02319336,-0.99664307,0.11224365,2.328125,-0.34375,-0.046875
1695378893779,-0.025878906,-0.99176025,0.09564209,0.359375,0.546875,0.046875
1695378893807,-0.026855469,-0.9981079,0.11419678,2.71875,-0.59375,0.421875
1695378893838,-0.024658203,-0.9883423,0.09124756,1.40625,-0.171875,0.15625
1695378893913,-0.024414062,-0.9927368,0.098083496,1.96875,-0.15625,0.234375
1695378893917,-0.026611328,-1.0044556,0.10296631,1.265625,-0.171875,0.15625
1695378893958,-0.029541016,-0.98687744,0.098083496,0.984375,0.0625,0.203125
1695378894018,-0.024902344,-0.99664307,0.09515381,1.921875,-0.4375,0.078125
1695378894048,-0.020263672,-0.99786377,0.0993042,1.25,-0.375,0.03125
1695378894077,-0.018310547,-0.99224854,0.09881592,1.515625,-0.390625,0.109375
1695378894138,-0.021972656,-0.98638916,0.09222412,1.46875,-0.078125,0.15625
1695378894168,-0.022949219,-0.9985962,0.09222412,0.890625,-0.078125,0.015625
1695378894197,-0.03149414,-0.9951782,0.08929443,0.859375,-0.21875,0.046875
1695378894260,-0.02368164,-1.0003052,0.0927124,0.71875,-0.140625,-0.328125
1695378894287,-0.024169922,-0.9907837,0.09466553,1.359375,0.28125,-0.1875
1695378894318,-0.021728516,-0.98687744,0.0927124,1.546875,0.109375,-0.25
1695378894378,-0.025390625,-0.99298096,0.097839355,1.234375,0.296875,-0.40625
1695378894438,-0.022216797,-0.9956665,0.09539795,2.375,0.53125,-0.140625
1695378894442,-0.013183594,-0.9937134,0.082458496,0.640625,0.859375,-0.296875
1695378894499,-0.03100586,-0.99468994,0.101257324,1.609375,0.5,0.0625
1695378894528,-0.013427734,-0.99005127,0.081970215,0.484375,-0.171875,-0.4375
1695378894558,-0.016601562,-0.9951782,0.09490967,0.578125,0.65625,-0.453125
1695378894618,-0.026367188,-0.9973755,0.09588623,0.171875,0.203125,-0.453125
1695378894647,-0.01977539,-0.98687744,0.09295654,0.34375,-0.421875,-0.5
1695378894678,-0.018066406,-0.9924927,0.086364746,0.625,-0.03125,-0.453125
1695378894738,-0.02709961,-0.9985962,0.1005249,0.828125,-0.09375,-0.296875
1695378894767,-0.020751953,-0.98809814,0.09173584,1.15625,-0.09375,-0.140625
1695378894798,-0.025390625,-0.99468994,0.09246826,1.078125,-0.234375,-0.171875
1695378894888,-0.018798828,-0.9976196,0.08831787,0.59375,-0.328125,-0.140625
1695378894893,-0.025634766,-0.9932251,0.093444824,1.09375,-0.140625,-0.140625
1695378894918,-0.017578125,-0.9924927,0.09320068,0.875,-0.390625,-0.09375
1695378894978,-0.025146484,-0.99053955,0.094177246,1.015625,-0.25,-0.140625
1695378895009,-0.021728516,-0.99957275,0.089538574,0.984375,-0.015625,-0.296875
1695378895067,-0.016601562,-0.98687744,0.085876465,0.84375,0.109375,0.0625
1695378895071,-0.017089844,-0.9961548,0.09466553,1.15625,0.046875,-0.328125
1695378895159,-0.02734375,-0.9920044,0.09539795,0.96875,0.359375,0.171875
1695378895164,-0.018554688,-0.9956665,0.08905029,0.96875,0.125,-0.046875
1695378895188,-0.014404297,-0.986145,0.090026855,1.265625,0.265625,-0.078125
1695378895247,-0.020019531,-1.0039673,0.09466553,1.015625,0.234375,-0.125
1695378895278,-0.021728516,-0.9907837,0.090270996,1.078125,-0.046875,-0.21875
1695378895307,-0.019042969,-0.9937134,0.08831787,1.234375,0.140625,0.046875
1695378895368,-0.016601562,-0.9902954,0.0848999,0.515625,0.046875,-0.09375
1695378895398,-0.018554688,-0.99591064,0.08734131,1.59375,-0.3125,-0.046875
1695378895427,-0.018798828,-0.9961548,0.09197998,1.03125,-0.3125,-0.296875
1695378895487,-0.021972656,-0.9924927,0.08441162,0.953125,-0.125,-0.140625
1695378895534,-0.020996094,-0.9990845,0.09222412,0.765625,-0.453125,-0.21875
1695378895608,-0.022705078,-0.9963989,0.08758545,0.6875,0.109375,-0.328125
1695378895612,-0.016357422,-0.9883423,0.08758545,1.03125,0.09375,-0.359375
1695378895638,-0.021728516,-1.0029907,0.0848999,0.921875,-0.296875,-0.640625
1695378895667,-0.025390625,-0.9837036,0.08660889,0.703125,0.5,-0.390625
1695378895728,-0.018554688,-1.0066528,0.093933105,1.625,-0.375,-0.59375
1695378895758,-0.025634766,-0.9907837,0.08294678,0.234375,0.453125,-0.25
1695378895818,-0.026611328,-1.0007935,0.09490967,0.96875,-0.28125,-0.3125
1695378895848,-0.020263672,-0.98516846,0.089782715,0.5,-0.40625,-0.375
1695378895880,-0.033203125,-0.9937134,0.08929443,-0.109375,-0.28125,-0.28125
1695378895911,-0.023925781,-0.9902954,0.09515381,0.28125,-0.140625,-0.109375
1695378895969,-0.02709961,-0.9873657,0.09832764,0.28125,-0.28125,-0.296875
1695378895998,-0.029052734,-0.9883423,0.09686279,0.109375,0.171875,-0.15625
1695378896027,-0.025634766,-0.99346924,0.10028076,0.265625,0.34375,-0.25
1695378896087,-0.025390625,-0.989563,0.09539795,0.46875,0.765625,-0.109375
1695378896118,-0.02734375,-0.99346924,0.097839355,0.40625,0.59375,-0.46875
1695378896147,-0.024414062,-0.9968872,0.09710693,0.1875,0.609375,-0.28125
1695378896208,-0.0234375,-0.9932251,0.097595215,0.25,0.75,-0.375
1695378896268,-0.020019531,-0.99591064,0.09954834,0.703125,0.453125,-0.25
1695378896271,-0.01977539,-0.99176025,0.10247803,0.3125,0.1875,-0.28125
1695378896330,-0.018066406,-0.9898071,0.101989746,0.03125,-0.21875,-0.25
1695378896357,-0.03100586,-0.9927368,0.10491943,1.265625,-0.03125,0.015625
1695378896391,-0.020996094,-0.9939575,0.09588623,-0.03125,0.328125,-0.4375
1695378896447,-0.030029297,-0.9951782,0.10809326,0.40625,-0.46875,-0.34375
1695378896508,-0.020751953,-0.9973755,0.10614014,0.328125,0.21875,-0.125
1695378896512,-0.01953125,-0.9920044,0.09539795,0.203125,0.15625,-0.296875
1695378896567,-0.021484375,-0.9990845,0.1005249,0.359375,0.21875,-0.078125
1695378896600,-0.017089844,-0.9990845,0.10467529,0.71875,-0.171875,0.046875
1695378896627,-0.012451172,-0.9898071,0.10614014,0.1875,0.234375,-0.046875
1695378896718,-0.030761719,-0.99591064,0.10614014,0.515625,0.3125,-0.171875
1695378896723,-0.02319336,-0.99005127,0.10736084,0.328125,0.453125,-0.1875
1695378896749,-0.020507812,-0.9937134,0.101989746,0.203125,0.140625,-0.46875
1695378896839,-0.029296875,-0.9924927,0.1149292,0.484375,0.59375,-0.375
1695378896844,-0.022705078,-0.99005127,0.11102295,0.453125,0.703125,-0.328125
1695378896867,-0.021240234,-0.99346924,0.11029053,0.453125,0.71875,-0.625
1695378896927,-0.021972656,-0.99346924,0.113708496,0.828125,0.4375,-0.5
1695378896959,-0.022949219,-0.99786377,0.11029053,0.546875,0.4375,-0.46875
1695378896988,-0.024169922,-0.986145,0.113220215,0.125,-0.015625,-0.5
1695378897079,-0.024169922,-0.9949341,0.12030029,1.96875,-0.28125,-0.28125
1695378897083,-0.019042969,-0.9854126,0.09539795,-0.4375,0.5625,-0.625
1695378897107,-0.03125,-0.9951782,0.11907959,1.484375,-0.015625,-0.328125
1695378897197,-0.01953125,-0.9902954,0.10882568,0.140625,0.046875,-0.421875
1695378897201,-0.02319336,-0.99298096,0.1149292,0.65625,0.4375,-0.359375
1695378897229,-0.03100586,-0.9927368,0.11004639,0.8125,0.65625,-0.03125
1695378897287,-0.02319336,-0.9985962,0.10662842,1.015625,0.109375,-0.0625
1695378897319,-0.03149414,-0.99053955,0.109558105,0.9375,-0.390625,0.078125
1695378897409,-0.027832031,-0.9907837,0.11883545,1.171875,0.015625,0.0625
1695378897413,-0.024902344,-0.9924927,0.11175537,1.203125,0.203125,0.0625
1695378897437,-0.026367188,-0.99420166,0.11395264,0.71875,0.390625,-0.375
1695378897469,-0.036621094,-0.99102783,0.10784912,0.984375,0.65625,-0.1875
1695378897498,-0.026855469,-0.98931885,0.11102295,1.03125,0.328125,-0.078125
1695378897558,-0.026123047,-0.9927368,0.10662842,0.8125,0.203125,-0.109375
1695378897648,-0.018554688,-0.9890747,0.113220215,0.6875,0.359375,-0.28125
1695378897652,-0.028564453,-0.9985962,0.11102295,0.734375,0.203125,-0.21875
1695378897678,-0.026611328,-0.99298096,0.1149292,0.75,-0.03125,-0.25
1695378897708,-0.02319336,-0.9927368,0.1149292,1.65625,-0.421875,0.078125
1695378897738,-0.018554688,-0.98687744,0.09490967,-0.203125,0.109375,-0.4375
1695378897828,-0.0390625,-0.9907837,0.11883545,1.265625,-0.28125,0.03125
1695378897833,-0.03149414,-0.99835205,0.112976074,0.65625,0.203125,-0.3125
1695378897857,-0.018310547,-0.9866333,0.1071167,0.75,0.21875,-0.234375
1695378897948,-0.03173828,-0.98809814,0.11639404,0.859375,-0.375,-0.140625
1695378897952,-0.028076172,-0.99346924,0.117370605,0.875,-0.109375,-0.046875
1695378897978,-0.01586914,-0.99005127,0.117126465,0.875,0.171875,-0.1875
1695378898037,-0.022216797,-0.9956665,0.11444092,0.96875,-0.03125,-0.046875
1695378898067,-0.024169922,-0.9924927,0.109558105,0.859375,-0.046875,-0.21875
1695378898097,-0.020019531,-0.98516846,0.12005615,0.953125,0.265625,-0.1875
1695378898159,-0.025390625,-0.99176025,0.117126465,0.4375,0.09375,-0.1875
1695378898188,-0.02758789,-0.9883423,0.10736084,0.421875,0.109375,-0.234375
1695378898218,-0.022705078,-0.98931885,0.11395264,0.578125,0.015625,-0.171875
1695378898277,-0.022460938,-0.9927368,0.12030029,0.375,0.015625,-0.25
1695378898308,-0.025390625,-0.991272,0.11199951,1.046875,0.359375,-0.203125
1695378898339,-0.01953125,-0.9968872,0.109069824,1.484375,0.296875,-0.3125
1695378898399,-0.017333984,-0.9834595,0.11395264,0.96875,0.109375,0.171875
1695378898489,-0.013916016,-0.99664307,0.121520996,1.6875,-0.09375,-0.359375
1695378898494,-0.037109375,-0.98931885,0.10321045,0.125,0.234375,-0.328125
1695378898518,-0.030273438,-1.0032349,0.1239624,1.90625,-0.21875,0.078125
1695378898548,-0.013671875,-0.9866333,0.10638428,0.65625,0.09375,-0.21875
1695378898577,-0.024414062,-0.99591064,0.11151123,0.859375,-0.234375,-0.09375
1695378898637,-0.02319336,-0.99298096,0.117126465,1.0625,0.0,0.015625
1695378898668,-0.025146484,-0.99005127,0.11199951,0.78125,0.21875,-0.265625
1695378898698,-0.024902344,-0.986145,0.109558105,0.921875,-0.015625,-0.015625
1695378898757,-0.01953125,-0.99298096,0.12030029,1.03125,0.0,-0.046875
1695378898788,-0.021728516,-0.99102783,0.11077881,0.625,0.015625,-0.328125
1695378898817,-0.024658203,-0.9902954,0.11395264,0.640625,0.296875,-0.25
1695378898938,-0.01977539,-0.9944458,0.1149292,0.609375,0.328125,-0.203125
1695378898943,-0.02319336,-0.9927368,0.11517334,0.109375,0.015625,-0.484375
1695378898946,-0.022949219,-0.99420166,0.11444092,0.234375,0.203125,-0.40625
1695378898983,-0.020263672,-0.99835205,0.117614746,0.234375,0.0625,-0.34375
1695378899029,-0.026367188,-0.989563,0.11566162,0.40625,0.09375,-0.28125
1695378899057,-0.012207031,-0.99420166,0.117370605,1.015625,-0.09375,-0.265625
1695378899117,-0.029785156,-0.9883423,0.11981201,0.875,-0.265625,0.09375
1695378899148,-0.021728516,-0.99224854,0.116882324,1.203125,-0.234375,-0.15625
1695378899177,-0.022705078,-0.9871216,0.11248779,0.921875,0.0625,-0.03125
1695378899238,-0.022705078,-1.0039673,0.117370605,2.015625,0.296875,-0.015625
1695378899268,-0.015136719,-0.9866333,0.11273193,1.375,0.40625,-0.0625
1695378899297,-0.017333984,-0.9915161,0.112976074,1.59375,0.15625,0.0
1695378899357,-0.026611328,-1.0025024,0.11590576,1.703125,0.3125,-0.140625
1695378899389,-0.02368164,-0.991272,0.12030029,1.421875,1.3125,0.078125
1695378899417,-0.019042969,-0.9898071,0.09857178,1.96875,0.640625,-0.109375
1695378899478,-0.020507812,-0.9968872,0.11126709,0.96875,0.03125,-0.171875
1695378899507,-0.026367188,-0.9898071,0.10858154,0.90625,0.046875,-0.40625
1695378899538,-0.022949219,-0.9932251,0.11175537,1.15625,0.5,-0.390625
1695378899597,-0.029541016,-0.9963989,0.109802246,0.921875,0.3125,-0.640625
1695378899628,-0.03149414,-0.99176025,0.11126709,0.984375,0.453125,-0.5
1695378899658,-0.0126953125,-0.9939575,0.109558105,1.171875,0.28125,-0.453125
1695378899717,-0.022949219,-0.9890747,0.1083374,1.171875,0.171875,-0.546875
1695378899778,-0.02734375,-0.9956665,0.109069824,1.9375,0.296875,-0.578125
1695378899781,-0.020996094,-0.9800415,0.10882568,0.953125,0.484375,-0.484375
1695378899807,-0.022705078,-0.9976196,0.10882568,2.140625,0.078125,-0.21875
1695378899868,-0.01928711,-0.99298096,0.09466553,0.6875,0.5625,-0.421875
1695378899898,-0.033935547,-0.989563,0.113220215,2.3125,-0.21875,-0.21875
1695378899929,-0.013916016,-0.99102783,0.10076904,1.234375,0.234375,-0.375
1695378899973,-0.021972656,-0.9993286,0.101501465,1.40625,-0.109375,-0.21875
1695378900019,-0.030029297,-0.9956665,0.10369873,1.40625,0.265625,-0.171875
1695378900047,-0.020996094,-0.9866333,0.10614014,1.59375,0.015625,-0.125
1695378900107,-0.030273438,-1.0020142,0.093444824,1.984375,-0.578125,0.0625
1695378900168,-0.026855469,-0.9985962,0.10076904,1.640625,-0.5625,-0.140625
1695378900172,-0.024169922,-0.9944458,0.09613037,1.4375,-0.078125,-0.34375
1695378900227,-0.030761719,-0.9932251,0.09710693,1.390625,0.03125,-0.328125
1695378900259,-0.02709961,-0.98931885,0.09906006,0.8125,0.265625,-0.234375
1695378900288,-0.029296875,-0.99176025,0.09881592,0.625,0.671875,-0.203125
1695378900348,-0.025878906,-0.9885864,0.09710693,0.90625,0.671875,-0.265625
1695378900378,-0.033203125,-0.9927368,0.093688965,0.234375,0.609375,-0.234375
1695378900408,-0.029541016,-0.99176025,0.09564209,0.828125,0.140625,-0.140625
1695378900468,-0.017089844,-0.9854126,0.10101318,0.578125,0.453125,0.09375
1695378900498,-0.018066406,-1.0020142,0.09539795,1.265625,0.109375,-0.40625
1695378900528,-0.026123047,-0.9898071,0.08880615,0.171875,0.328125,-0.046875
1695378900588,-0.02734375,-0.99542236,0.10418701,1.109375,0.015625,-0.0625
1695378900618,-0.016845703,-0.9871216,0.090270996,0.75,0.109375,-0.125
1695378900647,-0.028808594,-1.000061,0.09661865,0.40625,-0.171875,-0.0625
1695378900708,-0.019042969,-0.9944458,0.10858154,0.609375,-0.09375,0.0625
1695378900738,-0.020263672,-0.9915161,0.10443115,0.46875,0.140625,-0.1875
1695378900768,-0.026855469,-0.99542236,0.098083496,0.46875,-0.140625,-0.109375
1695378900829,-0.022705078,-0.99468994,0.10638428,0.84375,-0.109375,-0.09375
1695378900858,-0.02319336,-0.9890747,0.09906006,0.828125,0.015625,-0.28125
1695378900888,-0.022949219,-0.99664307,0.09954834,0.6875,-0.265625,-0.0625
1695378900949,-0.022949219,-0.9898071,0.10321045,0.640625,-0.046875,-0.46875
1695378900978,-0.01928711,-0.9902954,0.10345459,1.3125,0.359375,-0.171875
1695378901037,-0.017822266,-0.9898071,0.10003662,0.859375,0.015625,-0.328125
1695378901067,-0.021972656,-0.9932251,0.10272217,0.8125,-0.125,-0.28125
1695378901097,-0.02319336,-0.9924927,0.10443115,0.609375,0.171875,-0.09375
1695378901128,-0.017578125,-0.9927368,0.10272217,1.984375,-0.234375,-0.234375
1695378901188,-0.026611328,-0.99176025,0.09613037,-0.0625,0.765625,-0.4375
1695378901217,-0.025878906,-0.99591064,0.109313965,1.515625,-0.421875,-0.046875
1695378901248,-0.012207031,-0.99102783,0.097595215,0.53125,0.234375,-0.296875
1695378901307,-0.024169922,-0.99176025,0.09906006,0.515625,0.109375,-0.390625
1695378901367,-0.020263672,-0.99542236,0.10858154,0.828125,0.015625,-0.046875
1695378901371,-0.022949219,-0.98565674,0.09613037,0.484375,-0.078125,-0.4375
1695378901457,-0.0234375,-0.99468994,0.09564209,0.5625,-0.21875,-0.28125
1695378901489,-0.032958984,-0.991272,0.105407715,0.4375,-0.3125,-0.28125
1695378901492,-0.022949219,-0.9985962,0.10394287,0.640625,-0.125,-0.421875
1695378901548,-0.02368164,-0.989563,0.105407715,-0.40625,-0.109375,-0.40625
1695378901593,-0.025878906,-0.9985962,0.10638428,-1.0,0.453125,-0.734375
1695378901607,-0.025878906,-0.9927368,0.11126709,-0.546875,0.546875,-0.6875
1695378901699,-0.026367188,-0.99102783,0.105651855,-0.15625,0.625,-0.546875
1695378901703,-0.024169922,-0.99298096,0.11273193,-0.21875,0.625,-0.5
1695378901728,-0.026367188,-0.9920044,0.11468506,-0.171875,0.28125,-0.265625
1695378901789,-0.026611328,-0.99176025,0.11883545,1.171875,0.171875,-0.203125
1695378901819,-0.021972656,-0.99591064,0.10858154,-0.671875,0.796875,-0.53125
1695378901849,-0.040283203,-0.98931885,0.120788574,0.5,-0.3125,-0.25
1695378901907,-0.017822266,-0.991272,0.117126465,0.1875,0.0625,-0.484375
1695378901938,-0.025634766,-0.98760986,0.12005615,0.734375,0.234375,-0.234375
1695378901999,-0.029296875,-0.9939575,0.11859131,-0.15625,-0.203125,-0.21875
1695378902028,-0.026855469,-0.99102783,0.11541748,1.09375,-0.421875,-0.078125
1695378902057,-0.025878906,-0.9924927,0.11883545,0.515625,-0.078125,-0.25
1695378902088,-0.033203125,-0.9939575,0.12689209,1.171875,-0.171875,-0.1875
1695378902147,-0.025878906,-0.99664307,0.1161499,0.984375,-0.5,-0.125
1695378902180,-0.026855469,-0.99542236,0.11834717,0.765625,-0.203125,-0.1875
1695378902208,-0.0234375,-0.9927368,0.121276855,0.421875,0.03125,-0.3125
1695378902238,-0.025878906,-0.9927368,0.12689209,0.21875,-0.15625,-0.328125
1695378902299,-0.03149414,-0.99102783,0.12738037,0.625,-0.171875,-0.25
1695378902327,-0.028808594,-0.9849243,0.1227417,1.328125,-0.015625,-0.21875
1695378902358,-0.01953125,-0.9981079,0.12640381,1.03125,-0.46875,-0.3125
1695378902421,-0.029296875,-0.9829712,0.1281128,0.71875,-0.09375,-0.078125
1695378902447,-0.028320312,-0.9961548,0.11859131,1.421875,-0.09375,-0.4375
1695378902477,-0.028564453,-0.99468994,0.11273193,-0.359375,0.234375,-0.34375
1695378902539,-0.02734375,-0.9968872,0.12738037,0.953125,-0.1875,-0.15625
1695378902598,-0.023925781,-0.9932251,0.12005615,0.328125,0.15625,-0.234375
1695378902602,-0.028076172,-0.9939575,0.124694824,0.59375,0.328125,-0.046875
1695378902658,-0.02734375,-0.9961548,0.12054443,0.515625,-0.328125,-0.125
1695378902687,-0.026855469,-0.9846802,0.11981201,0.578125,0.1875,-0.109375
1695378902747,-0.025634766,-0.9944458,0.12347412,0.59375,0.390625,-0.1875
1695378902778,-0.025390625,-0.9837036,0.12249756,0.96875,-0.03125,0.078125
1695378902808,-0.028076172,-0.99542236,0.1227417,0.5625,0.203125,-0.25
1695378902838,-0.025390625,-0.9873657,0.12420654,0.6875,0.28125,-0.0625
1695378902898,-0.029541016,-0.9949341,0.120788574,0.421875,0.4375,0.015625
1695378902943,-0.020263672,-0.9956665,0.13128662,0.78125,0.484375,-0.28125
1695378902959,-0.025634766,-0.98931885,0.1293335,0.671875,0.515625,-0.203125
1695378903033,-0.018554688,-0.989563,0.12689209,0.625,0.265625,-0.125
1695378903048,-0.026367188,-0.99053955,0.12908936,0.171875,0.25,-0.40625
1695378903078,-0.028808594,-0.98931885,0.13446045,2.078125,-0.21875,0.015625
1695378903138,-0.017822266,-0.9932251,0.11590576,-0.328125,0.125,-0.703125
1695378903167,-0.032470703,-0.989563,0.13104248,1.484375,-0.375,-0.0625
1695378903198,-0.025634766,-0.9944458,0.13153076,0.765625,-0.1875,-0.4375
1695378903258,-0.029296875,-0.98883057,0.1281128,1.09375,-0.015625,-0.109375
1695378903288,-0.032226562,-0.991272,0.12567139,1.0,0.0,-0.203125
1695378903318,-0.029296875,-0.987854,0.13348389,0.625,0.0625,-0.328125
1695378903378,-0.033935547,-0.9890747,0.12664795,1.125,0.21875,-0.21875
1695378903408,-0.029296875,-0.9944458,0.13153076,1.046875,0.28125,-0.203125
1695378903439,-0.029541016,-0.99102783,0.12713623,0.609375,0.03125,-0.359375
1695378903498,-0.033447266,-0.9837036,0.12713623,1.078125,0.640625,-0.359375
1695378903527,-0.037841797,-0.99053955,0.124694824,0.5625,0.515625,-0.1875
1695378903557,-0.01977539,-0.9841919,0.12030029,1.484375,0.5625,-0.25
1695378903619,-0.028564453,-0.9937134,0.13006592,1.1875,0.46875,-0.109375
1695378903647,-0.033691406,-0.9915161,0.12664795,1.609375,0.359375,-0.171875
1695378903677,-0.030517578,-0.9956665,0.12371826,1.921875,0.40625,-0.15625
1695378903739,-0.028808594,-0.98931885,0.12054443,0.953125,0.296875,-0.078125
1695378903768,-0.03100586,-0.991272,0.1317749,2.28125,-0.203125,-0.046875
1695378903798,-0.026367188,-0.9932251,0.11444092,0.09375,0.9375,-0.21875
1695378903873,-0.032714844,-0.9981079,0.13763428,1.984375,0.828125,0.078125
1695378903877,-0.025878906,-0.99053955,0.12908936,1.671875,2.90625,-0.15625
1695378903917,-0.018554688,-0.9968872,0.10858154,2.71875,0.359375,0.15625
1695378904008,-0.024169922,-1.0010376,0.12347412,1.5,-0.15625,-0.046875
1695378904013,-0.02368164,-0.987854,0.11273193,0.828125,0.21875,-0.390625
1695378904038,-0.020263672,-0.99298096,0.11810303,1.65625,0.1875,-0.046875
1695378904099,-0.018066406,-0.9951782,0.11639404,1.171875,-0.359375,-0.203125
1695378904129,-0.028564453,-0.9902954,0.11590576,0.828125,-0.171875,-0.203125
1695378904158,-0.03173828,-0.9927368,0.11273193,1.125,0.09375,-0.296875
1695378904218,-0.028076172,-0.9866333,0.11444092,0.53125,0.078125,-0.28125
1695378904248,-0.023925781,-0.9898071,0.12054443,0.75,-0.078125,-0.265625
1695378904279,-0.021240234,-0.9944458,0.12005615,0.515625,0.125,-0.375
1695378904368,-0.02368164,-0.99420166,0.11663818,0.703125,0.4375,-0.28125
1695378904373,-0.021240234,-0.9949341,0.11541748,1.15625,-0.0625,-0.359375
1695378904398,-0.028564453,-0.98101807,0.12689209,0.8125,-0.015625,0.0
1695378904461,-0.018798828,-0.9993286,0.11175537,1.0625,0.265625,-0.140625
1695378904488,-0.026123047,-0.9885864,0.11956787,1.0,0.125,-0.109375
1695378904517,-0.03125,-1.0039673,0.12176514,0.53125,0.21875,-0.21875
1695378904578,-0.026855469,-0.9841919,0.11126709,0.796875,-0.046875,-0.171875
1695378904608,-0.028320312,-0.99176025,0.12322998,0.765625,-0.09375,-0.375
1695378904638,-0.024169922,-0.9939575,0.12030029,0.65625,-0.75,-0.265625
1695378904669,-0.028320312,-0.9937134,0.11834717,0.828125,0.15625,-0.359375
1695378904728,-0.03491211,-0.9968872,0.12054443,1.03125,-0.15625,-0.296875
1695378904759,-0.02758789,-0.9907837,0.12030029,1.03125,-0.25,-0.28125
1695378904788,-0.028320312,-0.98809814,0.11785889,0.71875,0.015625,-0.40625
1695378904847,-0.031982422,-0.99176025,0.117614746,0.828125,-0.046875,-0.171875
1695378904877,-0.024169922,-0.9902954,0.113220215,0.484375,-0.09375,-0.359375
1695378904907,-0.032714844,-0.99102783,0.120788574,0.75,0.296875,-0.46875
1695378904967,-0.020019531,-0.9951782,0.11566162,0.59375,-0.140625,-0.296875
1695378904998,-0.03149414,-0.99224854,0.11956787,0.84375,-0.4375,-0.3125
1695378905027,-0.024414062,-0.9746704,0.11785889,0.859375,0.171875,-0.046875
1695378905087,-0.018554688,-1.0093384,0.11883545,1.078125,-0.453125,-0.421875
1695378905118,-0.036376953,-0.98394775,0.11834717,0.1875,0.4375,-0.34375
1695378905179,-0.0234375,-0.99542236,0.12298584,0.984375,-0.28125,-0.21875
1695378905207,-0.0146484375,-0.987854,0.113708496,0.4375,-0.015625,-0.5
1695378905238,-0.037841797,-0.9951782,0.12322998,0.109375,-0.234375,-0.59375
1695378905298,-0.032470703,-0.991272,0.12298584,0.875,-0.0625,-0.25
1695378905328,-0.023925781,-0.99005127,0.11859131,0.5625,-0.078125,-0.5
1695378905357,-0.029541016,-0.9968872,0.121032715,0.515625,0.03125,-0.375
1695378905388,-0.028320312,-0.9885864,0.121276855,0.46875,-0.046875,-0.28125
1695378905448,-0.03125,-0.9939575,0.12420654,0.546875,-0.5,-0.328125
1695378905493,-0.025390625,-0.99053955,0.121032715,0.515625,-0.21875,-0.203125
1695378905509,-0.03466797,-0.98883057,0.12200928,0.375,-0.078125,-0.53125
1695378905567,-0.033447266,-0.9902954,0.12664795,0.484375,-0.03125,-0.1875
1695378905598,-0.03173828,-0.9915161,0.11956787,1.03125,-0.015625,-0.375
1695378905628,-0.030273438,-0.9920044,0.12567139,0.203125,0.015625,-0.453125
1695378905688,-0.032226562,-0.9907837,0.124694824,0.109375,0.1875,-0.46875
1695378905718,-0.032714844,-0.9939575,0.13763428,1.609375,-0.109375,-0.359375
1695378905747,-0.029541016,-0.97857666,0.11566162,-0.96875,0.578125,-0.59375
1695378905808,-0.03466797,-0.9932251,0.13372803,0.875,-0.4375,-0.390625
1695378905838,-0.03100586,-0.99420166,0.12982178,0.4375,0.296875,-0.53125
1695378905867,-0.026123047,-0.991272,0.12542725,0.53125,0.171875,-0.46875
1695378905927,-0.027832031,-0.99957275,0.1251831,0.75,-0.203125,-0.140625
1695378905958,-0.03125,-0.99053955,0.12786865,0.53125,-0.28125,-0.390625
1695378905988,-0.036132812,-0.9885864,0.12835693,0.765625,-0.0625,-0.328125
1695378906047,-0.033447266,-1.000061,0.1359253,0.421875,-0.25,-0.140625
1695378906078,-0.04272461,-0.9829712,0.13348389,0.46875,-0.15625,-0.296875
1695378906107,-0.033447266,-0.987854,0.13226318,0.984375,0.1875,-0.078125
1695378906199,-0.040771484,-0.9920044,0.12835693,0.265625,-0.125,-0.25
1695378906202,-0.041015625,-0.9898071,0.13250732,0.859375,0.03125,-0.46875
1695378906228,-0.03955078,-0.99591064,0.13079834,0.578125,-0.046875,-0.640625
1695378906303,-0.041992188,-0.98565674,0.13494873,0.296875,0.421875,-0.65625
1695378906309,-0.04272461,-0.99591064,0.13006592,0.828125,-0.03125,-0.421875
1695378906350,-0.041259766,-0.98223877,0.13421631,0.46875,0.15625,-0.234375
1695378906408,-0.037597656,-0.9951782,0.13568115,1.046875,-0.171875,-0.546875
1695378906438,-0.03881836,-0.9846802,0.1281128,-0.140625,0.46875,-0.46875
1695378906468,-0.037841797,-0.99420166,0.1383667,1.09375,-0.46875,-0.234375
1695378906528,-0.03466797,-0.9812622,0.13275146,0.3125,-0.21875,-0.34375
1695378906591,-0.03955078,-0.9907837,0.13421631,0.640625,0.125,-0.234375
1695378906597,-0.038085938,-0.9932251,0.14031982,0.875,0.03125,-0.28125
1695378906649,-0.03515625,-0.98638916,0.1383667,0.609375,0.15625,-0.21875
1695378906681,-0.037109375,-0.9890747,0.14202881,0.515625,-0.046875,-0.0625
1695378906707,-0.041015625,-0.9915161,0.1383667,0.15625,-0.640625,-0.203125
1695378906767,-0.037597656,-0.9915161,0.13201904,0.96875,-0.25,-0.125
1695378906798,-0.040039062,-0.99420166,0.14447021,0.53125,-0.09375,-0.171875
1695378906828,-0.041015625,-0.9932251,0.13494873,0.203125,0.28125,-0.546875
1695378906887,-0.037109375,-0.9944458,0.14178467,0.625,-0.015625,-0.125
1695378906919,-0.037353516,-0.9932251,0.14251709,0.390625,0.125,-0.390625
1695378906947,-0.040283203,-0.98516846,0.1395874,0.75,0.328125,-0.21875
1695378907008,-0.03955078,-0.99420166,0.14105225,0.921875,-0.03125,-0.546875
1695378907038,-0.043945312,-0.9824829,0.13812256,0.765625,0.21875,0.078125
1695378907069,-0.037109375,-0.9866333,0.14349365,1.046875,0.203125,-0.390625
1695378907128,-0.04248047,-0.987854,0.13543701,0.28125,0.515625,-0.28125
