# Sensor type: Thingy
# Activity type: Shuffle walking
# Activity subtype: Normal
# Subject id: s1973433
# Notes: 
timestamp,accel_x,accel_y,accel_z,gyro_x,gyro_y,gyro_z,mag_x,mag_y,mag_z
1695380214514,-1.015625,0.10449219,-0.20019531,45.0,-6.84375,9.3125,0.0,0.0,0.0
1695380214576,-0.99609375,0.10449219,-0.16894531,-8.53125,-2.15625,5.59375,0.0,0.0,0.0
1695380214605,-1.0419922,-0.037109375,0.04296875,-5.84375,17.375,12.625,0.0,0.0,0.0
1695380214633,-1.1074219,-0.041992188,0.14355469,5.375,-15.71875,7.125,0.0,0.0,0.0
1695380214693,-1.1484375,0.052734375,0.12402344,-6.9375,-34.6875,0.65625,0.0,0.0,0.0
1695380214754,-1.0400391,-0.06640625,0.32910156,-17.15625,-52.8125,-26.75,0.0,0.0,0.0
1695380214760,-1.2451172,0.123046875,0.24707031,-74.15625,-67.875,-52.625,0.0,0.0,0.0
1695380214813,-0.90625,0.6689453,-0.27929688,-62.5,-53.96875,-38.03125,0.0,0.0,0.0
1695380214843,-0.88378906,0.47070312,-0.44433594,-2.875,-43.0,9.5,0.0,0.0,0.0
1695380214902,-0.73339844,0.33203125,-0.055664062,-49.0,52.96875,15.375,0.0,0.0,0.0
1695380214934,-0.7949219,0.07324219,0.08886719,-75.3125,109.0625,22.125,0.0,0.0,0.0
1695380214963,-1.0380859,-0.19628906,0.4560547,-13.375,36.1875,14.09375,-46.125,-2.875,-22.75
1695380214992,-0.73828125,-0.043945312,0.095703125,34.0,17.875,9.0,0.0,0.0,0.0
1695380215052,-1.1357422,0.12890625,0.06640625,73.5625,-10.8125,14.15625,0.0,0.0,0.0
1695380215082,-1.5654297,0.08691406,0.20214844,24.90625,-17.90625,5.09375,0.0,0.0,0.0
1695380215113,-0.9482422,-0.087890625,-0.3857422,64.34375,-54.40625,-3.9375,0.0,0.0,0.0
1695380215173,-0.8720703,0.08203125,-0.52734375,72.21875,-52.25,-4.15625,0.0,0.0,0.0
1695380215202,-0.9511719,0.21875,-0.31054688,-52.71875,20.5625,-7.28125,0.0,0.0,0.0
1695380215232,-0.9589844,0.16796875,-0.13378906,-65.78125,32.875,4.0,0.0,0.0,0.0
1695380215324,-1.0234375,0.053710938,-0.109375,-2.875,38.5625,14.6875,0.0,0.0,0.0
1695380215327,-1.0625,0.09667969,-0.0234375,21.71875,28.3125,15.46875,0.0,0.0,0.0
1695380215353,-1.0556641,0.041015625,0.39453125,60.1875,5.65625,19.8125,0.0,0.0,0.0
1695380215412,-1.0898438,0.09082031,-9.765625E-4,24.59375,-30.96875,10.71875,0.0,0.0,0.0
1695380215442,-1.0039062,0.05859375,0.087890625,-33.625,-40.96875,-9.46875,-47.0,-4.8125,-23.9375
1695380215473,-1.0957031,-0.1484375,0.080078125,-23.4375,-44.75,-36.15625,0.0,0.0,0.0
1695380215564,-1.203125,0.09082031,0.24902344,-117.25,-25.96875,-46.28125,0.0,0.0,0.0
1695380215566,-1.0302734,0.49609375,0.4716797,-112.96875,0.15625,-42.75,0.0,0.0,0.0
1695380215592,-0.80371094,0.71972656,-0.42285156,66.59375,-57.625,-6.5,0.0,0.0,0.0
1695380215653,-0.6582031,0.21875,-0.09667969,5.9375,8.96875,26.03125,0.0,0.0,0.0
1695380215682,-0.82128906,0.12792969,0.107421875,-51.25,71.625,41.59375,0.0,0.0,0.0
1695380215743,-1.0205078,-0.22363281,0.68652344,29.71875,36.96875,28.65625,0.0,0.0,0.0
1695380215773,-0.6357422,-0.025390625,-0.22070312,41.9375,-9.90625,10.28125,0.0,0.0,0.0
1695380215803,-1.3291016,0.01953125,0.4482422,66.15625,37.6875,23.84375,0.0,0.0,0.0
1695380215834,-1.8486328,0.0107421875,0.017578125,60.5625,-5.625,-7.90625,0.0,0.0,0.0
1695380215892,-0.8964844,0.055664062,-0.29003906,59.15625,-49.34375,-6.25,0.0,0.0,0.0
1695380215922,-0.79785156,0.17382812,-0.2998047,1.34375,-46.96875,-21.8125,0.0,0.0,0.0
1695380215952,-0.9316406,0.19140625,-0.4033203,-28.375,-4.09375,-13.375,-45.9375,-5.875,-23.5
1695380216012,-0.9628906,0.15039062,-0.19335938,24.96875,28.25,7.625,0.0,0.0,0.0
1695380216043,-1.0400391,0.095703125,-0.13476562,17.15625,37.21875,10.78125,0.0,0.0,0.0
1695380216072,-1.0654297,0.08984375,-0.02734375,-23.90625,37.21875,12.84375,0.0,0.0,0.0
1695380216132,-1.1484375,-0.087890625,0.41992188,61.09375,1.21875,18.09375,0.0,0.0,0.0
1695380216163,-1.1523438,0.140625,0.001953125,18.6875,-28.03125,11.40625,0.0,0.0,0.0
1695380216192,-0.9111328,-0.19140625,0.06640625,-8.125,-29.9375,-12.78125,0.0,0.0,0.0
1695380216252,-1.1699219,-0.08203125,-0.060546875,-22.09375,-42.0,-39.9375,0.0,0.0,0.0
1695380216282,-1.1445312,0.25,0.0087890625,-142.09375,-32.5625,-44.03125,0.0,0.0,0.0
1695380216313,-0.9169922,0.3779297,0.3232422,-162.78125,-10.5625,-43.84375,0.0,0.0,0.0
1695380216402,-0.7910156,0.6269531,-0.2626953,40.40625,-39.09375,-14.3125,0.0,0.0,0.0
1695380216406,-0.7607422,0.25878906,-0.001953125,9.78125,35.5,29.03125,0.0,0.0,0.0
1695380216432,-0.9033203,0.048828125,0.1796875,-36.96875,55.03125,35.1875,-45.9375,-5.875,-22.125
1695380216492,-0.85546875,-0.12207031,0.37402344,25.875,30.9375,34.46875,0.0,0.0,0.0
1695380216530,-0.6484375,-0.02734375,0.061523438,111.8125,0.09375,29.9375,0.0,0.0,0.0
1695380216552,-1.3876953,-0.09863281,0.5136719,44.0625,-18.75,17.1875,0.0,0.0,0.0
1695380216612,-1.9580078,-0.2705078,-0.24316406,114.15625,-6.59375,4.25,0.0,0.0,0.0
1695380216642,-0.8515625,0.0625,-0.3642578,21.625,-71.6875,-11.90625,0.0,0.0,0.0
1695380216673,-0.7109375,0.21777344,-0.2705078,-57.78125,-16.875,-17.0,0.0,0.0,0.0
1695380216732,-0.99121094,0.2421875,-0.28222656,-36.375,13.53125,-16.0,0.0,0.0,0.0
1695380216763,-0.99121094,0.19726562,-0.25097656,8.5625,16.875,11.28125,0.0,0.0,0.0
1695380216793,-1.0556641,0.11425781,-0.125,6.40625,33.25,16.71875,0.0,0.0,0.0
1695380216854,-1.0078125,0.09375,-0.029296875,19.0625,38.6875,23.1875,0.0,0.0,0.0
1695380216886,-1.1210938,-0.13183594,0.2998047,50.25,10.71875,21.59375,0.0,0.0,0.0
1695380216912,-1.1376953,0.13769531,-0.111328125,-2.375,-14.46875,16.53125,0.0,0.0,0.0
1695380216972,-1.0751953,0.09082031,0.16601562,-27.875,-18.6875,-1.78125,-45.5,-4.0625,-24.875
1695380217004,-1.0751953,0.015625,0.14355469,-40.28125,-13.375,-30.21875,0.0,0.0,0.0
1695380217033,-1.0234375,0.08984375,-0.09375,-106.5625,-17.46875,-34.125,0.0,0.0,0.0
1695380217093,-0.99121094,0.3798828,0.17871094,-141.53125,-6.0,-45.625,0.0,0.0,0.0
1695380217122,-0.7001953,0.5605469,-0.23828125,13.96875,-39.625,-8.375,0.0,0.0,0.0
1695380217152,-0.6621094,0.31835938,-0.0146484375,-18.90625,16.03125,15.0625,0.0,0.0,0.0
1695380217212,-0.8066406,0.103515625,-0.0078125,-11.53125,59.4375,33.625,0.0,0.0,0.0
1695380217243,-0.9433594,-0.3984375,0.7949219,20.875,113.5,45.75,0.0,0.0,0.0
1695380217303,-1.0576172,-0.2939453,0.17480469,98.53125,-28.15625,14.15625,0.0,0.0,0.0
1695380217363,-1.5976562,-0.017578125,-0.3935547,164.0,3.875,1.75,0.0,0.0,0.0
1695380217367,-1.1425781,0.22753906,-0.043945312,4.59375,-52.4375,-0.3125,0.0,0.0,0.0
1695380217393,-0.7402344,0.33398438,-0.22460938,-10.4375,-15.15625,-15.34375,0.0,0.0,0.0
1695380217483,-0.8251953,0.16113281,-0.26464844,57.0,-18.09375,-3.5,-45.1875,-5.5625,-23.9375
1695380217486,-1.0791016,0.3544922,-0.2578125,15.5,7.1875,5.15625,0.0,0.0,0.0
1695380217513,-1.0244141,0.27441406,-0.18164062,-59.4375,31.0,7.1875,0.0,0.0,0.0
1695380217574,-1.0322266,0.045898438,-0.06640625,-35.625,36.1875,13.28125,0.0,0.0,0.0
1695380217602,-1.0683594,0.03125,-0.026367188,17.40625,26.78125,18.0,0.0,0.0,0.0
1695380217632,-1.140625,0.109375,-0.08691406,3.84375,-31.03125,13.59375,0.0,0.0,0.0
1695380217693,-1.1357422,0.1796875,-0.171875,-37.90625,-38.40625,4.0,0.0,0.0,0.0
1695380217722,-0.80566406,0.12890625,-0.12597656,-14.21875,-26.5,-10.21875,0.0,0.0,0.0
1695380217753,-1.3242188,-0.14453125,0.4345703,-44.375,36.53125,-13.9375,0.0,0.0,0.0
1695380217843,-1.0947266,-0.32910156,0.24316406,-134.8125,7.1875,-53.25,0.0,0.0,0.0
1695380217846,-0.7402344,0.8339844,0.10253906,-120.40625,-50.6875,-62.15625,0.0,0.0,0.0
1695380217872,-0.6484375,0.60058594,-0.10058594,24.1875,-38.03125,-4.15625,0.0,0.0,0.0
1695380217935,-0.8300781,0.25,0.03125,-31.96875,28.96875,25.4375,0.0,0.0,0.0
1695380217963,-1.0048828,-0.06933594,0.5175781,6.53125,61.9375,44.40625,-44.875,-3.8125,-24.5625
1695380217992,-0.75390625,-0.12988281,0.032226562,41.9375,1.875,40.875,0.0,0.0,0.0
1695380218054,-0.88378906,-0.20703125,0.15039062,106.375,12.8125,33.375,0.0,0.0,0.0
1695380218082,-1.8603516,-0.095703125,-0.07128906,90.34375,28.5625,-0.03125,0.0,0.0,0.0
1695380218112,-1.0761719,0.14160156,-0.087890625,32.0625,-32.1875,-2.78125,0.0,0.0,0.0
1695380218172,-0.72753906,0.24414062,-0.16992188,98.6875,-54.28125,-8.5,0.0,0.0,0.0
1695380218202,-0.8544922,0.24121094,-0.2919922,1.34375,-38.84375,-16.75,0.0,0.0,0.0
1695380218233,-0.984375,0.27441406,-0.4189453,19.78125,-4.0,-0.8125,0.0,0.0,0.0
1695380218292,-0.9609375,0.18066406,-0.24316406,-31.96875,26.96875,5.28125,0.0,0.0,0.0
1695380218353,-1.0771484,0.051757812,-0.12011719,-15.0625,39.90625,12.90625,0.0,0.0,0.0
1695380218356,-0.9814453,0.024414062,0.030273438,10.6875,30.9375,13.90625,0.0,0.0,0.0
1695380218413,-1.2197266,0.12695312,0.044921875,11.96875,-34.5625,3.9375,0.0,0.0,0.0
1695380218443,-0.95703125,0.18847656,-0.12695312,-38.75,-40.0625,-16.625,-45.1875,-4.5625,-26.375
1695380218472,-1.0839844,-0.3564453,0.25585938,-53.09375,-6.3125,-39.09375,0.0,0.0,0.0
1695380218533,-1.2998047,-0.31445312,0.84765625,-180.53125,33.25,-51.71875,0.0,0.0,0.0
1695380218593,-0.8251953,0.91015625,-0.171875,-17.625,-50.0,-28.40625,0.0,0.0,0.0
1695380218596,-0.75390625,0.5107422,-0.18066406,55.65625,-33.90625,7.1875,0.0,0.0,0.0
1695380218652,-0.8066406,0.2939453,0.043945312,-13.0625,35.5625,26.28125,0.0,0.0,0.0
1695380218683,-0.9238281,0.0,0.5136719,-9.28125,36.84375,38.375,0.0,0.0,0.0
1695380218712,-0.7890625,-0.08984375,0.20019531,89.46875,11.9375,33.90625,0.0,0.0,0.0
1695380218774,-0.9765625,0.0087890625,0.12011719,131.65625,7.4375,23.96875,0.0,0.0,0.0
1695380218803,-1.5361328,0.0546875,-9.765625E-4,103.34375,11.46875,7.90625,0.0,0.0,0.0
1695380218832,-1.1083984,0.20117188,0.06640625,27.09375,-19.4375,-4.46875,0.0,0.0,0.0
1695380218893,-0.86328125,0.20507812,-0.25683594,19.0625,-32.4375,-10.875,0.0,0.0,0.0
1695380218922,-0.9394531,0.0078125,-0.36328125,-3.09375,-12.96875,-5.9375,0.0,0.0,0.0
1695380218952,-1.0185547,0.060546875,-0.3017578,15.8125,12.9375,-8.25,-46.125,-8.125,-23.0625
1695380219012,-0.96972656,0.1796875,-0.10449219,-31.84375,31.59375,-0.03125,0.0,0.0,0.0
1695380219103,-0.9765625,0.08105469,-0.08300781,-30.9375,29.46875,4.1875,0.0,0.0,0.0
1695380219106,-1.0332031,0.17382812,0.2626953,40.34375,25.0,15.1875,0.0,0.0,0.0
1695380219133,-1.0966797,9.765625E-4,-0.07910156,49.75,-22.71875,15.90625,0.0,0.0,0.0
1695380219162,-1.0976562,0.030273438,-0.0546875,-1.65625,-13.375,12.25,0.0,0.0,0.0
1695380219193,-1.1240234,0.029296875,0.0234375,-37.21875,-24.5625,-5.5625,0.0,0.0,0.0
1695380219252,-0.84472656,-0.048828125,0.0234375,-34.28125,-26.03125,-37.25,0.0,0.0,0.0
1695380219283,-1.2480469,0.05859375,0.17773438,-162.46875,-13.5,-59.40625,0.0,0.0,0.0
1695380219314,-1.1357422,0.29492188,0.703125,-119.375,21.03125,-48.34375,0.0,0.0,0.0
1695380219372,-0.8203125,0.9326172,-0.50683594,73.1875,-64.78125,-14.84375,0.0,0.0,0.0
1695380219403,-0.7324219,0.3466797,-0.12402344,8.1875,7.5625,29.59375,0.0,0.0,0.0
1695380219432,-0.8515625,0.20410156,0.057617188,-30.09375,65.28125,41.84375,-46.125,-7.0625,-22.0
1695380219493,-1.0625,-0.19628906,0.5654297,25.53125,15.90625,41.125,0.0,0.0,0.0
1695380219522,-0.8798828,-0.0078125,-0.0546875,35.90625,8.84375,25.125,0.0,0.0,0.0
1695380219552,-0.84277344,-0.5058594,0.51953125,19.28125,-15.71875,4.3125,0.0,0.0,0.0
1695380219613,-1.265625,-0.0029296875,-0.30371094,53.78125,19.75,-15.28125,0.0,0.0,0.0
1695380219643,-1.6318359,0.25585938,0.45996094,39.625,2.3125,-17.0625,0.0,0.0,0.0
1695380219673,-0.84765625,0.20800781,-0.45117188,82.53125,-65.625,-13.5625,0.0,0.0,0.0
1695380219732,-0.82421875,0.19042969,-0.38867188,18.4375,-19.0,1.9375,0.0,0.0,0.0
1695380219765,-0.8828125,0.2705078,-0.2939453,0.5625,7.5,-8.6875,0.0,0.0,0.0
1695380219792,-1.0898438,0.2705078,-0.18652344,0.125,37.34375,8.28125,0.0,0.0,0.0
1695380219854,-0.98339844,0.0390625,-0.06347656,-8.0,52.59375,14.25,0.0,0.0,0.0
1695380219882,-1.0634766,0.0078125,0.07910156,7.9375,-0.8125,13.21875,0.0,0.0,0.0
1695380219913,-1.0332031,0.036132812,-0.13378906,29.65625,-11.75,16.28125,0.0,0.0,0.0
1695380220010,-1.0673828,0.061523438,-0.10839844,-3.28125,-3.625,10.40625,-42.375,-10.0625,-24.5625
1695380220013,-1.1220703,0.0087890625,0.15136719,-36.5,2.4375,1.25,0.0,0.0,0.0
1695380220063,-1.046875,0.018554688,-0.029296875,-17.8125,-32.375,-8.3125,0.0,0.0,0.0
1695380220153,-0.9082031,-0.020507812,-0.049804688,-1.53125,-13.6875,-20.84375,0.0,0.0,0.0
1695380220158,-1.1396484,0.2783203,0.021484375,-58.40625,-16.125,-22.96875,0.0,0.0,0.0
1695380220161,-1.1289062,0.33007812,0.026367188,-77.15625,-12.96875,-14.96875,0.0,0.0,0.0
1695380220213,-0.875,0.20507812,0.08105469,-43.40625,1.03125,-15.28125,0.0,0.0,0.0
1695380220243,-0.9404297,0.24902344,0.16308594,-76.59375,-10.5625,-16.25,0.0,0.0,0.0
1695380220273,-0.8544922,0.4716797,-0.07324219,67.625,-18.625,11.21875,0.0,0.0,0.0
1695380220333,-0.7871094,0.390625,0.11328125,-12.15625,31.59375,17.6875,0.0,0.0,0.0
1695380220363,-0.8378906,0.1875,0.3798828,-11.96875,31.90625,23.90625,0.0,0.0,0.0
1695380220393,-0.6738281,0.051757812,0.0048828125,32.34375,20.84375,35.4375,0.0,0.0,0.0
1695380220453,-1.1123047,-0.52246094,0.6201172,17.8125,8.96875,28.0,-44.4375,-7.25,-25.3125
1695380220483,-1.7734375,-0.107421875,-0.5126953,118.78125,11.09375,-3.5625,0.0,0.0,0.0
1695380220513,-1.0224609,0.12109375,0.026367188,114.9375,-42.25,-1.78125,0.0,0.0,0.0
1695380220573,-0.73535156,0.36914062,-0.3388672,-4.5625,-46.28125,-15.875,0.0,0.0,0.0
1695380220603,-0.8486328,0.22753906,-0.3046875,-59.25,-0.75,-21.3125,0.0,0.0,0.0
1695380220633,-0.94921875,0.22460938,-0.20800781,7.625,22.0625,-3.75,0.0,0.0,0.0
1695380220694,-1.0849609,0.21484375,-0.13769531,-27.34375,29.9375,10.59375,0.0,0.0,0.0
1695380220723,-0.9785156,0.08886719,-0.078125,-31.5625,30.75,9.75,0.0,0.0,0.0
1695380220753,-1.0390625,0.08496094,-0.040039062,39.875,12.6875,17.25,0.0,0.0,0.0
1695380220813,-1.0898438,0.06542969,-0.029296875,45.21875,1.9375,19.6875,0.0,0.0,0.0
1695380220842,-1.1787109,0.078125,0.11230469,-8.78125,-7.71875,7.96875,0.0,0.0,0.0
1695380220933,-0.8691406,0.001953125,0.107421875,-14.9375,-37.8125,-9.90625,0.0,0.0,0.0
1695380220936,-0.96972656,-0.11328125,-0.078125,-3.03125,-24.25,-25.28125,0.0,0.0,0.0
1695380221023,-1.1933594,0.09472656,-0.038085938,-123.84375,11.34375,-36.34375,-44.4375,-8.75,-23.9375
1695380221027,-1.1708984,0.1640625,0.55566406,-127.0625,14.25,-19.625,0.0,0.0,0.0
1695380221054,-0.9238281,0.671875,-0.16015625,54.03125,-60.0,-29.375,0.0,0.0,0.0
1695380221083,-0.8046875,0.53222656,0.005859375,41.5625,-10.15625,12.6875,0.0,0.0,0.0
1695380221143,-0.82128906,0.40039062,0.17773438,-30.21875,28.1875,26.65625,0.0,0.0,0.0
1695380221172,-0.8515625,0.17871094,0.2421875,-18.3125,31.71875,31.34375,0.0,0.0,0.0
1695380221204,-0.7216797,-0.046875,0.083984375,-13.78125,19.625,34.59375,0.0,0.0,0.0
1695380221234,-0.9716797,-0.328125,0.3779297,24.46875,35.75,26.78125,0.0,0.0,0.0
1695380221294,-1.4736328,-0.15136719,-0.35058594,117.25,3.15625,8.9375,0.0,0.0,0.0
1695380221323,-1.1660156,0.1015625,-0.044921875,133.3125,-27.78125,4.125,0.0,0.0,0.0
1695380221353,-0.7890625,0.2705078,-0.13574219,52.5,-42.625,-13.875,0.0,0.0,0.0
1695380221414,-0.9501953,0.3515625,-0.41992188,-49.375,-59.96875,-22.0625,0.0,0.0,0.0
1695380221443,-0.9453125,0.23828125,-0.22363281,-4.5,17.625,-10.21875,-43.6875,-9.0625,-21.125
1695380221532,-1.0419922,0.19140625,-0.19042969,5.375,24.8125,6.6875,0.0,0.0,0.0
1695380221536,-0.98339844,0.1328125,-0.10644531,-17.625,35.25,3.75,0.0,0.0,0.0
1695380221563,-1.0019531,0.10839844,0.0048828125,-13.0625,23.96875,12.8125,0.0,0.0,0.0
1695380221594,-1.1289062,0.1796875,0.052734375,15.375,14.3125,17.0,0.0,0.0,0.0
1695380221653,-1.1494141,0.22167969,0.03515625,-31.3125,-16.5,1.75,0.0,0.0,0.0
1695380221683,-0.76953125,0.1171875,0.041015625,-1.75,-49.8125,-20.09375,0.0,0.0,0.0
1695380221712,-1.3652344,-0.21972656,0.052734375,-47.40625,-7.90625,-46.28125,0.0,0.0,0.0
1695380221773,-1.125,0.043945312,0.0029296875,-197.8125,6.4375,-50.875,0.0,0.0,0.0
1695380221803,-0.78222656,0.8066406,0.0078125,-63.65625,-31.6875,-45.25,0.0,0.0,0.0
1695380221833,-0.6542969,0.47460938,-0.08886719,70.6875,-35.34375,4.8125,0.0,0.0,0.0
1695380221893,-0.86328125,0.29492188,-0.07324219,-38.8125,47.21875,27.375,0.0,0.0,0.0
1695380221923,-1.1113281,-0.12109375,0.765625,-49.0625,30.25,29.8125,0.0,0.0,0.0
1695380221983,-0.95996094,0.025390625,-0.024414062,30.875,13.90625,30.4375,-45.1875,-4.5625,-23.9375
1695380222013,-0.93066406,-0.08886719,0.19335938,27.15625,16.03125,29.03125,0.0,0.0,0.0
1695380222043,-1.0117188,-0.060546875,0.078125,18.6875,25.625,6.5,0.0,0.0,0.0
1695380222073,-1.5224609,0.15625,0.111328125,52.375,23.59375,1.09375,0.0,0.0,0.0
1695380222132,-1.0087891,0.09863281,-0.053710938,143.0625,-55.1875,3.34375,0.0,0.0,0.0
1695380222163,-0.81347656,0.07910156,-0.5097656,75.5625,-54.9375,3.09375,0.0,0.0,0.0
1695380222192,-0.9628906,0.16992188,-0.37597656,-29.90625,-12.59375,-11.0625,0.0,0.0,0.0
1695380222253,-0.98828125,0.15625,-0.2939453,-11.34375,17.5625,-9.59375,0.0,0.0,0.0
1695380222313,-1.0224609,0.08984375,-0.10253906,-49.4375,55.09375,-1.65625,0.0,0.0,0.0
1695380222318,-0.99902344,0.087890625,-0.10644531,-16.90625,29.78125,6.21875,0.0,0.0,0.0
1695380222433,-1.0009766,0.17871094,-0.049804688,12.28125,12.5625,12.6875,0.0,0.0,0.0
1695380222437,-1.0214844,0.18164062,-0.041992188,-1.21875,-2.46875,9.5,0.0,0.0,0.0
1695380222441,-1.0273438,0.111328125,-0.064453125,11.40625,-7.15625,10.46875,-43.375,-6.625,-24.5625
1695380222492,-1.1230469,-0.13183594,0.296875,33.28125,-23.46875,9.5625,0.0,0.0,0.0
1695380222523,-0.984375,-0.109375,-0.078125,10.0625,-54.15625,-27.84375,0.0,0.0,0.0
1695380222552,-1.0888672,0.12402344,-0.09863281,-108.03125,0.09375,-39.09375,0.0,0.0,0.0
1695380222613,-1.1513672,0.22265625,0.30664062,-176.9375,6.4375,-38.90625,0.0,0.0,0.0
1695380222644,-0.96972656,0.3798828,0.37402344,-71.21875,2.65625,-46.28125,0.0,0.0,0.0
1695380222673,-0.9277344,0.59277344,-0.2763672,63.71875,-38.71875,-5.75,0.0,0.0,0.0
1695380222762,-0.8017578,0.37695312,0.20507812,-3.0,27.8125,21.65625,0.0,0.0,0.0
1695380222766,-0.87890625,0.2265625,0.15332031,0.25,23.46875,29.46875,0.0,0.0,0.0
1695380222793,-0.9238281,0.044921875,0.33398438,-11.15625,26.34375,33.0625,0.0,0.0,0.0
1695380222852,-0.8076172,-0.022460938,-0.0107421875,2.5625,7.0625,21.71875,0.0,0.0,0.0
1695380222882,-0.79785156,-0.16796875,0.01953125,47.25,8.34375,20.96875,0.0,0.0,0.0
1695380222912,-1.5839844,0.033203125,0.017578125,28.25,32.5625,11.40625,0.0,0.0,0.0
1695380222973,-1.3193359,0.048828125,-0.125,103.34375,-26.03125,10.71875,-43.25,-4.6875,-23.625
1695380223004,-0.7441406,0.25097656,-0.10058594,53.78125,-25.65625,0.71875,0.0,0.0,0.0
1695380223033,-0.96484375,0.26171875,-0.28320312,34.84375,-26.9375,-2.28125,0.0,0.0,0.0
1695380223092,-0.98339844,0.14160156,-0.33007812,22.21875,-3.5625,-5.8125,0.0,0.0,0.0
1695380223123,-1.0371094,0.20898438,-0.18847656,34.96875,33.3125,13.71875,0.0,0.0,0.0
1695380223152,-1.0800781,0.06933594,0.1640625,-7.9375,38.4375,10.96875,0.0,0.0,0.0
1695380223243,-0.98339844,0.043945312,-0.19042969,26.75,-13.09375,11.625,0.0,0.0,0.0
1695380223247,-1.0322266,0.103515625,-0.12402344,1.53125,-0.3125,10.59375,0.0,0.0,0.0
1695380223276,-1.1416016,0.17578125,-0.013671875,-57.90625,12.875,-1.3125,0.0,0.0,0.0
1695380223333,-0.9589844,-0.024414062,0.12695312,-97.90625,-22.96875,-32.125,0.0,0.0,0.0
1695380223364,-0.7939453,0.07324219,-0.17285156,5.3125,-4.09375,-30.84375,0.0,0.0,0.0
1695380223453,-1.2714844,0.030273438,0.11035156,-190.90625,28.65625,-46.46875,0.0,0.0,0.0
1695380223458,-0.9951172,0.7060547,0.07910156,-14.71875,-36.53125,-24.4375,-41.4375,-5.4375,-24.125
1695380223514,-0.8955078,0.453125,-0.13867188,78.6875,-47.125,3.34375,0.0,0.0,0.0
1695380223518,-0.8017578,0.37304688,0.4013672,-28.125,25.375,3.40625,0.0,0.0,0.0
1695380223572,-0.8330078,0.17675781,0.24414062,25.34375,-15.34375,20.84375,0.0,0.0,0.0
1695380223603,-0.8730469,0.15234375,0.052734375,3.59375,-7.59375,20.90625,0.0,0.0,0.0
1695380223694,-0.7011719,0.08691406,0.00390625,-15.0,11.625,13.28125,0.0,0.0,0.0
1695380223698,-0.6933594,-0.06933594,0.17480469,-14.75,40.6875,15.96875,0.0,0.0,0.0
1695380223723,-1.6943359,0.048828125,0.24902344,63.53125,4.6875,1.75,0.0,0.0,0.0
1695380223759,-1.4589844,-0.060546875,-0.17578125,138.0625,-30.09375,5.71875,0.0,0.0,0.0
1695380223812,-0.81347656,0.21875,-0.45507812,74.78125,-64.09375,-1.84375,0.0,0.0,0.0
1695380223843,-0.68359375,0.10546875,-0.48535156,55.3125,-33.09375,-10.875,0.0,0.0,0.0
1695380223874,-1.1113281,0.7421875,0.23046875,50.65625,111.96875,-14.3125,0.0,0.0,0.0
1695380223933,-1.1240234,-0.1015625,-0.055664062,-3.0,-0.5,12.625,0.0,0.0,0.0
1695380223964,-0.9638672,0.059570312,-0.15039062,-61.625,14.375,9.0625,-42.625,-6.625,-20.8125
1695380223992,-1.0478516,0.14160156,-0.13476562,-54.875,13.84375,4.3125,0.0,0.0,0.0
1695380224084,-1.0419922,0.1796875,-0.051757812,-0.46875,-8.25,6.21875,0.0,0.0,0.0
1695380224088,-1.2158203,0.051757812,-0.13964844,32.65625,-27.78125,9.3125,0.0,0.0,0.0
1695380224112,-0.89746094,-0.0068359375,0.0390625,-19.90625,-19.5,-15.40625,0.0,0.0,0.0
1695380224204,-0.93652344,0.06738281,0.119140625,-100.28125,-1.40625,-31.6875,0.0,0.0,0.0
1695380224210,-1.2138672,0.08691406,0.20117188,-123.34375,4.75,-30.15625,0.0,0.0,0.0
1695380224237,-1.0136719,0.3310547,0.515625,-121.03125,19.6875,-37.625,0.0,0.0,0.0
1695380224353,-0.76171875,0.64941406,-0.18457031,88.6875,-50.875,-10.28125,0.0,0.0,0.0
1695380224358,-0.80566406,0.375,0.17773438,-41.875,38.6875,17.9375,0.0,0.0,0.0
1695380224368,-0.8769531,0.14550781,0.31445312,-19.59375,27.03125,28.25,0.0,0.0,0.0
1695380224413,-0.75878906,0.038085938,0.055664062,-9.21875,11.8125,28.4375,0.0,0.0,0.0
1695380224443,-0.875,-0.2529297,0.47265625,6.84375,4.25,22.3125,-43.375,-4.8125,-23.1875
1695380224472,-1.0966797,-0.19921875,-0.18164062,50.46875,16.09375,-2.15625,0.0,0.0,0.0
1695380224564,-1.8369141,0.30664062,0.087890625,63.125,33.5,4.5625,0.0,0.0,0.0
1695380224568,-0.8466797,0.30273438,-0.057617188,-7.5625,-31.28125,-15.15625,0.0,0.0,0.0
1695380224593,-0.75390625,0.23632812,-0.29785156,48.78125,-36.03125,-0.8125,0.0,0.0,0.0
1695380224685,-0.90722656,0.22167969,-0.2998047,68.3125,-17.34375,9.3125,0.0,0.0,0.0
1695380224689,-1.0126953,0.3017578,-0.28125,94.3125,-4.78125,20.65625,0.0,0.0,0.0
1695380224713,-1.0507812,0.08203125,-0.05859375,-30.34375,43.0625,11.21875,0.0,0.0,0.0
1695380224773,-1.046875,-0.04296875,-0.026367188,-20.375,17.0,8.90625,0.0,0.0,0.0
1695380224803,-1.0048828,0.10546875,-0.115234375,19.15625,-10.75,8.28125,0.0,0.0,0.0
1695380224833,-1.0498047,0.125,-0.16210938,-47.84375,-9.96875,10.40625,0.0,0.0,0.0
1695380224893,-1.1582031,0.08691406,-0.20507812,-71.15625,-15.71875,-5.09375,0.0,0.0,0.0
1695380224922,-0.8613281,-0.13671875,0.265625,-68.0,10.84375,-35.90625,0.0,0.0,0.0
1695380225013,-1.1621094,-0.09375,0.5732422,-56.09375,64.6875,-35.71875,-45.5,-3.0625,-21.125
1695380225017,-0.8984375,0.7597656,0.140625,-72.3125,-46.21875,-53.125,0.0,0.0,0.0
1695380225042,-0.7265625,0.8095703,-0.10058594,10.8125,-52.375,-15.53125,0.0,0.0,0.0
1695380225073,-0.6933594,0.36035156,0.20605469,-42.21875,5.40625,18.21875,0.0,0.0,0.0
1695380225133,-0.8251953,0.140625,0.33789062,-7.75,10.0,31.84375,0.0,0.0,0.0
1695380225163,-0.8886719,-0.0078125,0.1953125,42.59375,5.0625,31.40625,0.0,0.0,0.0
1695380225223,-0.7363281,-0.14355469,0.18945312,74.46875,17.5,35.1875,0.0,0.0,0.0
1695380225254,-1.3066406,-0.22851562,0.296875,34.84375,0.21875,7.125,0.0,0.0,0.0
1695380225282,-1.9130859,0.19335938,-0.076171875,143.875,3.875,13.03125,0.0,0.0,0.0
1695380225314,-0.6582031,0.3076172,-0.2705078,45.0,-71.4375,-23.34375,0.0,0.0,0.0
1695380225373,-0.5839844,0.23632812,-0.4033203,-24.65625,-7.28125,-13.09375,0.0,0.0,0.0
1695380225403,-0.9716797,0.25683594,-0.3232422,29.125,26.53125,0.53125,0.0,0.0,0.0
1695380225463,-1.0771484,0.20703125,-0.15039062,43.40625,36.40625,20.25,-45.625,-6.0625,-19.0
1695380225492,-1.0527344,-0.064453125,0.020507812,-76.78125,56.5,3.34375,0.0,0.0,0.0
1695380225522,-0.9902344,0.049804688,-0.15625,4.875,2.375,1.125,0.0,0.0,0.0
1695380225553,-0.97753906,0.10449219,-0.09277344,33.6875,-1.1875,14.09375,0.0,0.0,0.0
1695380225613,-1.0751953,0.123046875,0.0859375,40.40625,-10.625,17.1875,0.0,0.0,0.0
1695380225642,-1.1845703,0.08496094,0.06933594,-47.25,-26.75,0.15625,0.0,0.0,0.0
1695380225673,-1.0097656,-0.10253906,-0.05859375,-14.59375,-51.40625,-20.34375,0.0,0.0,0.0
1695380225733,-1.0957031,-0.044921875,0.16113281,-74.875,-30.46875,-43.21875,0.0,0.0,0.0
1695380225762,-1.0683594,0.32226562,0.6796875,-156.1875,7.5625,-36.53125,0.0,0.0,0.0
1695380225794,-0.76660156,0.9667969,-0.55859375,-10.4375,-60.75,-37.0625,0.0,0.0,0.0
1695380225853,-0.7597656,0.4453125,0.12988281,22.59375,-1.53125,7.84375,0.0,0.0,0.0
1695380225883,-0.83984375,0.37890625,0.19335938,-11.53125,3.46875,15.0625,0.0,0.0,0.0
1695380225912,-0.87597656,0.12402344,0.36914062,6.46875,23.0,32.09375,0.0,0.0,0.0
1695380225973,-0.8798828,0.0107421875,0.22167969,32.90625,7.71875,26.46875,-44.4375,-5.5625,-18.375
1695380226003,-0.7451172,0.005859375,0.16796875,25.625,19.5,20.0625,0.0,0.0,0.0
1695380226033,-0.9013672,-0.34375,0.4013672,79.15625,19.40625,14.4375,0.0,0.0,0.0
1695380226124,-1.984375,0.14746094,-0.27148438,145.8125,36.96875,-4.28125,0.0,0.0,0.0
1695380226128,-1.0029297,0.3310547,-0.059570312,46.21875,-42.9375,-2.59375,0.0,0.0,0.0
1695380226153,-0.48828125,0.3203125,-0.37597656,-37.78125,-26.09375,-12.84375,0.0,0.0,0.0
1695380226213,-0.9169922,0.32128906,-0.36328125,23.9375,21.40625,8.09375,0.0,0.0,0.0
1695380226276,-1.0439453,0.3486328,-0.14453125,41.15625,39.90625,18.40625,0.0,0.0,0.0
1695380226279,-1.1660156,-0.15332031,0.12207031,-15.0,31.71875,2.25,0.0,0.0,0.0
1695380226335,-1.0058594,0.08496094,-0.2529297,-12.09375,3.40625,1.5,0.0,0.0,0.0
1695380226378,-0.9472656,0.123046875,-0.19140625,14.34375,0.09375,15.53125,0.0,0.0,0.0
1695380226393,-1.0390625,0.28710938,0.0126953125,17.46875,-12.09375,15.1875,0.0,0.0,0.0
1695380226453,-1.1816406,0.18164062,-0.07421875,-47.0,-20.34375,0.03125,-44.3125,-3.625,-19.625
1695380226483,-0.9111328,0.125,0.076171875,-56.15625,-29.875,-18.34375,0.0,0.0,0.0
1695380226572,-1.1318359,0.10839844,0.24316406,-177.375,10.96875,-40.59375,0.0,0.0,0.0
1695380226576,-1.2080078,-0.13574219,0.7578125,-137.8125,56.8125,-38.15625,0.0,0.0,0.0
1695380226633,-0.76953125,0.77734375,-0.21191406,30.875,-42.8125,-31.28125,0.0,0.0,0.0
1695380226637,-0.859375,0.48632812,0.19433594,6.96875,-15.28125,-2.8125,0.0,0.0,0.0
1695380226692,-0.7529297,0.36328125,0.18261719,-35.03125,1.75,10.65625,0.0,0.0,0.0
1695380226723,-0.8388672,0.10546875,0.27539062,-16.90625,18.0625,27.75,0.0,0.0,0.0
1695380226814,-0.9238281,-0.024414062,0.111328125,30.03125,9.875,29.28125,0.0,0.0,0.0
1695380226818,-0.9111328,-0.07714844,0.17773438,35.40625,40.6875,27.09375,0.0,0.0,0.0
1695380226845,-1.0341797,-0.23925781,0.20410156,6.40625,38.5625,7.3125,0.0,0.0,0.0
1695380226872,-1.8525391,0.19140625,0.16503906,90.46875,10.46875,-2.21875,0.0,0.0,0.0
1695380226964,-0.9814453,-0.053710938,-0.3876953,153.5625,-77.53125,2.0625,0.0,0.0,0.0
1695380226967,-0.58691406,0.13574219,-0.42382812,50.34375,-68.8125,-7.40625,-44.3125,-3.625,-21.375
1695380226993,-0.9667969,0.49121094,-0.6816406,14.34375,-24.625,-10.75,0.0,0.0,0.0
1695380227053,-0.8173828,0.41992188,-0.23828125,-114.75,62.25,-6.5625,0.0,0.0,0.0
1695380227082,-1.2001953,-0.08496094,0.6621094,43.21875,131.03125,26.59375,0.0,0.0,0.0
1695380227113,-1.1699219,0.06933594,-0.13378906,9.84375,-12.15625,5.78125,0.0,0.0,0.0
1695380227234,-0.9433594,0.17089844,-0.057617188,-28.3125,0.59375,7.3125,0.0,0.0,0.0
1695380227237,-1.1318359,0.12402344,0.1640625,-4.28125,-2.8125,9.8125,0.0,0.0,0.0
1695380227240,-0.9716797,0.087890625,0.11621094,-19.46875,-35.0625,-14.0,0.0,0.0,0.0
1695380227294,-1.0117188,0.020507812,-0.044921875,-16.34375,-22.46875,-30.65625,0.0,0.0,0.0
1695380227322,-1.2441406,0.021484375,0.2734375,-222.03125,54.5625,-47.75,0.0,0.0,0.0
1695380227354,-0.8964844,0.8808594,-0.31640625,48.15625,-88.40625,-45.5,0.0,0.0,0.0
1695380227416,-0.7138672,0.4638672,0.11035156,44.625,-17.78125,0.34375,0.0,0.0,0.0
1695380227443,-0.78222656,0.30859375,0.23339844,-3.15625,18.46875,21.90625,-43.375,-4.8125,-20.5
1695380227472,-0.82910156,0.14648438,0.24023438,0.96875,11.625,33.125,0.0,0.0,0.0
1695380227533,-0.6660156,0.078125,0.016601562,9.59375,4.75,33.5,0.0,0.0,0.0
1695380227593,-0.8066406,-0.5800781,0.60253906,22.28125,17.25,33.625,0.0,0.0,0.0
1695380227596,-1.8574219,0.001953125,-0.4248047,167.90625,12.5625,9.1875,0.0,0.0,0.0
1695380227660,-1.1777344,0.171875,0.0048828125,92.46875,-61.59375,1.5625,0.0,0.0,0.0
1695380227684,-0.58691406,0.375,-0.49414062,14.03125,-72.21875,-30.21875,0.0,0.0,0.0
1695380227742,-0.8388672,0.30078125,-0.41601562,-33.5,1.375,-13.3125,0.0,0.0,0.0
1695380227773,-0.9580078,0.36621094,-0.21289062,47.90625,30.875,4.8125,0.0,0.0,0.0
1695380227803,-1.0595703,0.23144531,-0.09667969,-2.625,61.875,11.875,0.0,0.0,0.0
1695380227894,-1.0488281,-0.001953125,0.35058594,9.03125,55.71875,9.875,0.0,0.0,0.0
1695380227899,-1.0800781,0.08496094,-0.09863281,27.96875,-6.25,16.28125,0.0,0.0,0.0
1695380227952,-1.0195312,0.119140625,-0.055664062,39.3125,-19.3125,12.1875,-42.5,-6.5,-20.375
1695380227955,-1.2226562,0.099609375,0.20800781,-29.65625,-23.875,1.8125,0.0,0.0,0.0
1695380228013,-0.82910156,-0.08300781,0.028320312,-96.0625,-30.59375,-38.28125,0.0,0.0,0.0
1695380228043,-1.0791016,0.09667969,-0.09472656,-138.53125,15.96875,-60.375,0.0,0.0,0.0
1695380228103,-1.1464844,0.80078125,0.48535156,-179.625,18.21875,-33.84375,0.0,0.0,0.0
1695380228132,-0.7910156,0.52246094,-0.23632812,96.125,-70.5,2.78125,0.0,0.0,0.0
1695380228163,-0.59277344,0.3642578,0.19238281,-37.84375,34.40625,9.5,0.0,0.0,0.0
1695380228192,-0.8417969,0.020507812,0.29101562,6.59375,13.28125,37.59375,0.0,0.0,0.0
1695380228253,-1.1132812,-0.034179688,0.19824219,33.5,6.4375,23.90625,0.0,0.0,0.0
1695380228285,-0.6767578,0.08496094,-0.0390625,29.96875,-0.25,7.375,0.0,0.0,0.0
1695380228343,-0.7519531,0.06738281,0.01171875,12.15625,33.6875,8.59375,0.0,0.0,0.0
1695380228373,-1.8876953,0.18945312,0.35058594,76.96875,27.5625,15.4375,0.0,0.0,0.0
1695380228404,-1.0322266,-0.0048828125,-0.2841797,133.6875,-60.25,5.09375,0.0,0.0,0.0
1695380228462,-0.74121094,0.14648438,-0.3857422,52.3125,-32.0,-2.59375,-43.25,-5.0,-20.375
1695380228493,-0.89453125,0.24316406,-0.18066406,-28.6875,8.90625,-4.65625,0.0,0.0,0.0
1695380228523,-1.0859375,0.2109375,-0.10644531,-8.1875,35.875,-1.96875,0.0,0.0,0.0
1695380228553,-0.9941406,0.07519531,-0.0625,-12.75,32.34375,1.125,0.0,0.0,0.0
1695380228613,-1.0078125,0.1015625,-0.17382812,-0.3125,9.5625,7.5625,0.0,0.0,0.0
1695380228643,-0.99609375,0.15429688,-0.13867188,15.25,5.0625,9.625,0.0,0.0,0.0
1695380228673,-1.0517578,0.12988281,-0.11230469,21.0,3.15625,10.84375,0.0,0.0,0.0
1695380228735,-1.2177734,0.0048828125,0.2763672,-29.53125,-3.875,6.28125,0.0,0.0,0.0
1695380228763,-0.96777344,0.001953125,0.080078125,-49.375,-44.28125,-19.90625,0.0,0.0,0.0
1695380228823,-0.9785156,-0.02734375,-0.072265625,-54.4375,-23.625,-41.78125,0.0,0.0,0.0
1695380228853,-1.2529297,0.28710938,0.076171875,-145.4375,11.8125,-39.75,0.0,0.0,0.0
1695380228882,-0.78027344,0.8955078,0.0703125,-101.375,-25.21875,-38.90625,0.0,0.0,0.0
1695380228944,-0.62402344,0.46972656,-0.078125,43.40625,-21.5625,0.40625,-43.5625,-6.0625,-20.375
1695380228973,-0.9433594,0.23828125,0.43164062,-17.5625,62.96875,32.75,0.0,0.0,0.0
1695380229002,-0.9873047,0.12109375,0.359375,8.6875,7.5625,26.28125,0.0,0.0,0.0
1695380229094,-0.8046875,0.10058594,0.051757812,13.625,-1.96875,19.03125,0.0,0.0,0.0
1695380229099,-0.56640625,0.0546875,0.15722656,36.625,8.21875,19.5,0.0,0.0,0.0
1695380229124,-1.4960938,0.04296875,0.328125,26.4375,23.125,14.75,0.0,0.0,0.0
1695380229153,-1.7226562,-0.22070312,-0.11230469,125.25,-19.90625,12.1875,0.0,0.0,0.0
1695380229249,-0.82421875,0.046875,-0.37695312,46.75,-65.8125,-15.78125,0.0,0.0,0.0
1695380229252,-0.8535156,0.22949219,-0.34277344,-35.34375,-10.625,-5.8125,0.0,0.0,0.0
1695380229273,-0.86328125,0.29101562,-0.25195312,4.9375,14.8125,-8.5,0.0,0.0,0.0
1695380229362,-1.0634766,0.34375,-0.12109375,-18.65625,34.96875,5.40625,0.0,0.0,0.0
1695380229365,-1.0302734,0.13671875,-0.0546875,-13.46875,42.15625,7.5,0.0,0.0,0.0
1695380229393,-1.0009766,0.18652344,0.17285156,57.375,6.28125,16.15625,0.0,0.0,0.0
1695380229452,-0.9941406,0.087890625,-0.064453125,11.84375,-11.375,20.3125,-45.0625,-3.1875,-22.0
1695380229483,-1.0908203,0.06347656,0.009765625,-16.71875,-5.9375,17.625,0.0,0.0,0.0
1695380229512,-1.1640625,0.043945312,0.0029296875,-15.0,-21.125,4.1875,0.0,0.0,0.0
1695380229572,-1.0175781,0.0859375,-0.1171875,11.90625,-28.40625,-6.5,0.0,0.0,0.0
1695380229602,-1.1689453,0.09765625,0.095703125,-94.46875,10.125,-13.25,0.0,0.0,0.0
1695380229663,-0.9638672,0.31054688,0.34375,-138.71875,-3.8125,-23.15625,0.0,0.0,0.0
1695380229693,-0.8417969,0.7519531,-0.140625,18.5625,-64.28125,-43.65625,0.0,0.0,0.0
1695380229723,-0.6328125,0.49023438,-0.0859375,39.5625,-14.125,-7.84375,0.0,0.0,0.0
1695380229754,-0.8330078,0.3232422,0.4189453,-30.375,54.0,9.0,0.0,0.0,0.0
1695380229813,-0.89746094,0.15722656,0.23144531,11.78125,17.5625,17.1875,0.0,0.0,0.0
1695380229842,-0.70996094,0.13085938,0.032226562,0.625,12.9375,20.3125,0.0,0.0,0.0
1695380229872,-0.56933594,-0.20898438,0.58984375,13.875,42.53125,24.9375,0.0,0.0,0.0
1695380229933,-1.7978516,-0.020507812,-0.36621094,98.15625,17.0625,4.5,-42.625,-1.6875,-22.125
1695380229963,-1.8564453,0.35058594,-0.018554688,116.34375,-1.59375,20.25,0.0,0.0,0.0
1695380229993,-0.45898438,0.24707031,-0.23535156,18.125,-54.28125,-32.625,0.0,0.0,0.0
1695380230113,-0.6640625,0.36328125,-0.3076172,-48.8125,-2.15625,-6.90625,0.0,0.0,0.0
1695380230117,-1.015625,0.3876953,-0.3857422,31.8125,1.375,1.5,0.0,0.0,0.0
1695380230121,-1.1005859,0.24707031,-0.19921875,-0.25,32.5,18.0,0.0,0.0,0.0
1695380230203,-1.0625,0.07324219,-0.107421875,-23.875,54.4375,9.8125,0.0,0.0,0.0
1695380230207,-0.92871094,-9.765625E-4,-0.076171875,44.25,20.96875,15.59375,0.0,0.0,0.0
1695380230232,-1.0625,0.053710938,0.14453125,62.625,6.09375,25.75,0.0,0.0,0.0
1695380230295,-1.0898438,0.23339844,-0.068359375,4.46875,-16.25,14.1875,0.0,0.0,0.0
1695380230322,-1.15625,0.2685547,0.041992188,-55.0625,-3.25,3.65625,0.0,0.0,0.0
1695380230352,-0.8125,0.07910156,0.040039062,21.625,-56.0,-8.6875,0.0,0.0,0.0
1695380230443,-1.0849609,0.30859375,0.046875,8.1875,-15.9375,-20.65625,0.0,0.0,0.0
1695380230446,-1.2070312,0.12109375,0.018554688,-150.15625,13.46875,-33.21875,-42.625,-2.0,-20.1875
1695380230472,-0.9511719,0.16015625,0.38867188,-154.71875,9.125,-41.21875,0.0,0.0,0.0
1695380230533,-0.75097656,0.6738281,-0.06933594,40.78125,-47.6875,-22.0625,0.0,0.0,0.0
1695380230562,-0.7001953,0.48046875,-0.061523438,5.6875,0.65625,4.5,0.0,0.0,0.0
1695380230593,-0.8388672,0.2626953,0.296875,-0.1875,58.09375,27.4375,0.0,0.0,0.0
1695380230653,-0.8828125,0.09082031,0.25097656,9.96875,9.25,28.125,0.0,0.0,0.0
1695380230682,-0.7001953,0.08105469,0.07128906,8.90625,7.375,30.8125,0.0,0.0,0.0
1695380230714,-1.1230469,-0.625,0.4345703,26.90625,-25.59375,14.625,0.0,0.0,0.0
1695380230774,-1.984375,-0.0107421875,-0.49902344,181.15625,-5.375,-5.375,0.0,0.0,0.0
1695380230803,-0.7890625,0.17578125,-0.08691406,29.78125,-53.53125,-28.875,0.0,0.0,0.0
1695380230836,-0.6035156,0.5673828,-0.4189453,-10.84375,-53.90625,-29.625,0.0,0.0,0.0
1695380230894,-0.8496094,0.48535156,-0.30078125,-11.65625,15.0,0.59375,0.0,0.0,0.0
1695380230953,-0.9033203,0.34375,-0.1484375,14.59375,28.65625,15.3125,-44.875,-3.8125,-18.6875
1695380230957,-1.125,0.11035156,-0.115234375,-10.4375,53.75,16.71875,0.0,0.0,0.0
1695380231013,-1.0976562,0.0078125,-0.06933594,28.6875,38.5,19.625,0.0,0.0,0.0
1695380231045,-0.984375,0.07421875,0.044921875,55.1875,-11.125,24.21875,0.0,0.0,0.0
1695380231133,-0.9970703,0.12402344,-0.17285156,31.8125,-21.4375,17.75,0.0,0.0,0.0
1695380231137,-1.0625,0.16503906,-0.09082031,-30.9375,-5.625,5.28125,0.0,0.0,0.0
1695380231163,-1.0664062,-0.01171875,0.12597656,-47.71875,-33.53125,-20.40625,0.0,0.0,0.0
1695380231254,-1.25,-0.26367188,-0.040039062,-51.9375,-27.1875,-59.15625,0.0,0.0,0.0
1695380231258,-1.4560547,-0.16015625,1.0625,-273.625,71.53125,-69.59375,0.0,0.0,0.0
1695380231288,-0.8027344,1.1064453,-0.5546875,13.3125,-83.6875,-49.03125,0.0,0.0,0.0
1695380231313,-0.6777344,0.4033203,0.16992188,35.90625,-6.90625,-3.125,0.0,0.0,0.0
1695380231373,-0.66796875,0.4189453,0.064453125,-58.78125,24.9375,15.53125,0.0,0.0,0.0
1695380231405,-0.9658203,0.15625,0.49414062,24.1875,50.28125,35.0,0.0,0.0,0.0
1695380231463,-0.9511719,-0.018554688,0.32128906,33.4375,5.96875,41.0,-43.25,-2.125,-19.875
1695380231523,-0.75390625,-0.040039062,0.015625,34.84375,6.6875,31.21875,0.0,0.0,0.0
1695380231526,-0.70410156,-0.41308594,0.2578125,39.8125,14.875,15.1875,0.0,0.0,0.0
1695380231554,-1.984375,0.043945312,-0.2841797,94.5625,29.40625,1.6875,0.0,0.0,0.0
1695380231612,-0.86621094,0.16210938,-0.09765625,75.6875,-39.4375,-17.96875,0.0,0.0,0.0
1695380231643,-0.5283203,0.46875,-0.421875,17.53125,-84.625,-25.09375,0.0,0.0,0.0
1695380231703,-0.8496094,0.5449219,-0.4892578,-46.1875,15.84375,-6.71875,0.0,0.0,0.0
1695380231733,-0.84472656,0.50683594,-0.171875,10.25,30.25,9.0,0.0,0.0,0.0
1695380231763,-1.0498047,0.18945312,-0.046875,2.375,62.78125,26.46875,0.0,0.0,0.0
1695380231854,-1.0742188,9.765625E-4,-0.07324219,15.875,44.90625,18.21875,0.0,0.0,0.0
1695380231858,-1.0146484,-0.038085938,-0.0390625,31.8125,7.25,24.625,0.0,0.0,0.0
1695380231883,-1.0253906,0.15625,-0.11035156,9.96875,-14.53125,18.40625,0.0,0.0,0.0
1695380231944,-1.0361328,0.22851562,-0.080078125,-5.625,-11.8125,9.625,-44.3125,-1.0625,-22.0
1695380231973,-0.97753906,-0.0048828125,-0.123046875,24.71875,-17.96875,12.75,0.0,0.0,0.0
1695380232003,-1.1289062,-0.10839844,0.078125,13.375,-10.28125,-0.3125,0.0,0.0,0.0
1695380232033,-1.1738281,0.18261719,0.20703125,-34.84375,-23.03125,-33.78125,0.0,0.0,0.0
1695380232094,-1.1171875,0.3955078,0.028320312,-120.53125,-30.09375,-51.34375,0.0,0.0,0.0
1695380232122,-0.94433594,0.5488281,0.016601562,-187.125,-44.375,-61.0625,0.0,0.0,0.0
1695380232152,-0.6484375,0.6376953,-0.17675781,47.6875,-38.90625,-18.28125,0.0,0.0,0.0
1695380232213,-0.7421875,0.58496094,0.16601562,-14.34375,56.8125,12.125,0.0,0.0,0.0
1695380232243,-0.8876953,0.13085938,0.49121094,0.75,35.25,26.40625,0.0,0.0,0.0
1695380232276,-0.75390625,0.07324219,0.06542969,-7.875,1.6875,30.25,0.0,0.0,0.0
1695380232332,-0.6035156,0.024414062,0.13574219,4.21875,7.71875,29.03125,0.0,0.0,0.0
1695380232363,-1.3642578,-0.3671875,0.46875,-6.84375,-25.90625,1.4375,0.0,0.0,0.0
1695380232392,-1.984375,-0.02734375,-0.56152344,176.40625,12.5625,15.46875,0.0,0.0,0.0
1695380232453,-0.8339844,0.32617188,-0.15625,13.6875,-63.3125,-16.625,-43.25,-2.5625,-20.9375
1695380232485,-0.45117188,0.4013672,-0.3779297,-69.15625,-6.65625,-14.0,0.0,0.0,0.0
1695380232543,-0.8017578,0.39257812,-0.26757812,73.84375,5.125,4.5625,0.0,0.0,0.0
1695380232664,-1.1474609,0.31933594,-0.12402344,59.09375,47.03125,23.78125,0.0,0.0,0.0
1695380232667,-1.1542969,0.072265625,0.1171875,-17.5,49.0625,15.125,0.0,0.0,0.0
1695380232671,-1.0234375,0.07714844,-0.0078125,1.71875,8.53125,4.9375,0.0,0.0,0.0
1695380232696,-0.98046875,0.125,-0.18847656,12.21875,-21.875,10.25,0.0,0.0,0.0
1695380232812,-1.0380859,0.17480469,-0.19140625,-20.8125,-14.46875,8.65625,0.0,0.0,0.0
1695380232816,-1.125,0.16796875,-0.08496094,-29.21875,7.4375,4.125,0.0,0.0,0.0
1695380232819,-1.0322266,-0.048828125,0.2607422,-56.34375,-15.15625,-15.40625,0.0,0.0,0.0
1695380232842,-1.0,0.0546875,0.07910156,-41.4375,-29.625,-46.78125,0.0,0.0,0.0
1695380232872,-1.2324219,0.11230469,0.119140625,-183.09375,34.53125,-60.0625,0.0,0.0,0.0
1695380232963,-0.8652344,0.7685547,0.50390625,-129.4375,-26.6875,-74.1875,-42.5,-1.5625,-20.625
1695380232966,-0.6230469,0.5800781,-0.22363281,82.9375,-62.625,-7.40625,0.0,0.0,0.0
1695380232992,-0.7138672,0.3642578,0.048828125,-29.78125,33.4375,23.0,0.0,0.0,0.0
1695380233053,-0.8808594,0.12890625,0.35546875,26.75,45.8125,47.34375,0.0,0.0,0.0
1695380233114,-0.9707031,-0.06933594,0.2919922,81.71875,-5.875,43.8125,0.0,0.0,0.0
1695380233118,-0.83203125,0.057617188,0.076171875,79.28125,0.40625,32.6875,0.0,0.0,0.0
1695380233172,-1.34375,-0.22558594,0.27246094,14.15625,-9.21875,-11.0625,0.0,0.0,0.0
1695380233203,-1.8242188,0.119140625,-0.3095703,79.21875,14.3125,7.1875,0.0,0.0,0.0
1695380233232,-0.77246094,0.43652344,-0.078125,-39.53125,-53.375,-31.875,0.0,0.0,0.0
1695380233292,-0.64746094,0.5576172,-0.40722656,-47.90625,-15.75,-11.5,0.0,0.0,0.0
1695380233323,-0.890625,0.3779297,-0.29296875,16.53125,17.0,12.1875,0.0,0.0,0.0
1695380233352,-1.0283203,0.25976562,-0.22265625,92.09375,8.65625,33.4375,0.0,0.0,0.0
1695380233446,-1.0527344,0.037109375,-0.119140625,6.65625,56.9375,23.0625,0.0,0.0,0.0
1695380233450,-1.0341797,-0.20898438,0.18554688,-4.9375,69.1875,8.78125,-44.0,-0.5,-22.75
1695380233472,-1.0478516,0.12597656,-0.047851562,26.4375,-19.71875,14.9375,0.0,0.0,0.0
1695380233532,-1.046875,0.13964844,-0.23632812,-1.65625,-24.75,13.59375,0.0,0.0,0.0
1695380233563,-1.0263672,0.14941406,-0.15136719,-6.84375,-6.0,3.40625,0.0,0.0,0.0
1695380233593,-1.1474609,-0.17675781,0.24609375,-29.65625,-6.65625,-1.3125,0.0,0.0,0.0
1695380233654,-0.9707031,-0.0859375,-0.064453125,-38.5,-45.71875,-34.8125,0.0,0.0,0.0
1695380233713,-1.046875,0.2265625,-0.030273438,-75.0,3.71875,-52.03125,0.0,0.0,0.0
1695380233720,-1.3955078,0.34179688,0.5625,-172.25,54.4375,-42.375,0.0,0.0,0.0
1695380233802,-0.7949219,0.984375,-0.35546875,0.5625,-96.5625,-40.1875,0.0,0.0,0.0
1695380233804,-0.7158203,0.44335938,-0.07910156,72.21875,-22.65625,1.375,0.0,0.0,0.0
1695380233834,-0.7441406,0.28320312,0.20898438,-44.96875,19.9375,10.53125,0.0,0.0,0.0
1695380233892,-0.8720703,0.1328125,0.4091797,-3.0,25.375,32.6875,0.0,0.0,0.0
1695380233953,-0.88964844,9.765625E-4,0.07714844,39.6875,-0.125,29.78125,-43.6875,0.4375,-20.5
1695380233956,-0.70214844,0.026367188,0.21875,74.21875,27.5625,26.15625,0.0,0.0,0.0
1695380234012,-1.5302734,-0.24316406,0.2626953,10.375,-8.75,2.53125,0.0,0.0,0.0
1695380234103,-1.5400391,0.01953125,-0.2529297,136.28125,6.625,13.03125,0.0,0.0,0.0
1695380234107,-0.8144531,0.5126953,-0.24316406,37.78125,-71.0,-35.40625,0.0,0.0,0.0
1695380234132,-0.6464844,0.5439453,-0.42089844,-24.90625,-16.625,-22.1875,0.0,0.0,0.0
1695380234162,-0.85839844,0.4873047,-0.109375,27.65625,45.8125,2.84375,0.0,0.0,0.0
1695380234194,-1.0761719,0.17285156,-0.021484375,-70.78125,58.40625,20.90625,0.0,0.0,0.0
1695380234254,-1.0273438,0.040039062,-0.18164062,-83.6875,30.4375,2.4375,0.0,0.0,0.0
1695380234282,-1.0019531,0.11621094,-0.099609375,-82.75,21.28125,6.15625,0.0,0.0,0.0
1695380234313,-0.97753906,0.2109375,-0.12011719,-87.8125,6.875,7.25,0.0,0.0,0.0
1695380234375,-1.0458984,0.25195312,-0.28808594,-72.25,-9.0,7.71875,0.0,0.0,0.0
1695380234403,-1.0761719,0.21289062,-0.20214844,-9.21875,-6.96875,14.875,0.0,0.0,0.0
1695380234585,-1.1074219,-0.11035156,0.11816406,-78.1875,-15.09375,-11.5625,-44.875,4.625,-22.125
1695380234589,-0.8544922,0.19335938,-0.1015625,-175.90625,17.625,-27.125,0.0,0.0,0.0
1695380234593,-1.3632812,-0.055664062,0.65527344,-182.6875,61.4375,-25.96875,0.0,0.0,0.0
1695380234599,-0.765625,0.6513672,0.06640625,-62.375,-46.78125,-34.125,0.0,0.0,0.0
1695380234627,-0.72753906,0.5996094,-0.1015625,3.90625,-37.96875,2.125,0.0,0.0,0.0
1695380234644,-0.7949219,0.25976562,0.26464844,-28.8125,24.6875,22.0,0.0,0.0,0.0
1695380234673,-0.8017578,0.020507812,0.16503906,-26.3125,25.6875,30.25,0.0,0.0,0.0
1695380234734,-0.80566406,0.033203125,0.123046875,19.09375,24.09375,28.125,0.0,0.0,0.0
1695380234763,-0.8300781,-0.3486328,0.01171875,-25.75,53.28125,18.84375,0.0,0.0,0.0
1695380234793,-1.5361328,0.19628906,0.041992188,-35.625,50.875,-1.53125,0.0,0.0,0.0
1695380234854,-1.3486328,0.19042969,-0.13964844,81.5625,-14.90625,-1.90625,0.0,0.0,0.0
1695380234912,-0.73339844,0.34570312,-0.23339844,65.8125,-58.375,-18.625,0.0,0.0,0.0
1695380234974,-0.7783203,0.49609375,-0.28808594,-30.21875,3.65625,-12.40625,-43.125,8.1875,-22.625
1695380234978,-0.90722656,0.3798828,-0.17285156,-42.71875,38.25,5.21875,0.0,0.0,0.0
1695380235003,-0.98046875,0.08886719,-0.1640625,-68.34375,48.4375,6.09375,0.0,0.0,0.0
1695380235035,-1.1357422,0.09472656,-0.11621094,-63.96875,34.09375,5.21875,0.0,0.0,0.0
1695380235093,-0.96484375,0.2607422,-0.0625,-57.625,10.25,7.375,0.0,0.0,0.0
1695380235123,-0.98828125,0.2890625,-0.17089844,-43.09375,-5.375,11.28125,0.0,0.0,0.0
1695380235153,-0.9892578,-0.111328125,-0.017578125,48.65625,-4.34375,23.0625,0.0,0.0,0.0
1695380235215,-1.2939453,-0.00390625,0.111328125,-27.8125,-46.53125,6.625,0.0,0.0,0.0
1695380235243,-0.8613281,0.4873047,-0.11328125,-202.6875,-6.65625,-49.03125,0.0,0.0,0.0
1695380235272,-1.1396484,0.28222656,0.27148438,-131.9375,60.59375,-14.90625,0.0,0.0,0.0
1695380235333,-1.0371094,0.19921875,0.16796875,-149.65625,-14.40625,-26.9375,0.0,0.0,0.0
1695380235394,-0.6533203,0.5722656,0.044921875,-57.96875,-24.4375,-24.3125,0.0,0.0,0.0
1695380235399,-0.69140625,0.4453125,0.18359375,-18.0,4.125,3.71875,0.0,0.0,0.0
1695380235453,-0.89941406,0.1796875,0.23828125,-11.40625,20.5,31.71875,-44.125,13.9375,-17.0625
1695380235513,-0.98339844,0.06542969,0.24707031,0.75,1.5,16.71875,0.0,0.0,0.0
1695380235516,-0.7607422,0.10644531,0.10839844,13.25,4.5625,14.625,0.0,0.0,0.0
1695380235574,-0.6328125,-0.30664062,0.2265625,-47.25,33.96875,12.0,0.0,0.0,0.0
1695380235603,-1.6660156,0.0859375,0.14941406,-14.59375,15.4375,-2.875,0.0,0.0,0.0
1695380235632,-1.7382812,0.29296875,-0.30859375,187.25,4.125,18.28125,0.0,0.0,0.0
1695380235693,-0.6699219,0.40527344,-0.37695312,44.4375,-71.6875,-22.25,0.0,0.0,0.0
1695380235723,-0.5839844,0.4326172,-0.30566406,-32.03125,11.40625,-8.625,0.0,0.0,0.0
1695380235754,-1.09375,0.3984375,0.16113281,54.15625,80.375,12.0625,0.0,0.0,0.0
1695380235813,-1.0244141,0.14160156,-0.18457031,-57.5625,12.0,2.25,0.0,0.0,0.0
1695380235843,-1.0087891,0.18457031,-0.13085938,-76.53125,25.875,-6.625,0.0,0.0,0.0
1695380235873,-1.0654297,0.14355469,0.0068359375,22.15625,12.75,17.125,0.0,0.0,0.0
1695380235933,-0.9658203,0.06933594,-0.14941406,-11.28125,-12.59375,15.0,-41.3125,15.5625,-20.5
1695380235962,-1.0996094,0.16503906,0.061523438,-32.28125,-5.21875,6.75,0.0,0.0,0.0
1695380235993,-1.3007812,0.048828125,0.08300781,-11.34375,-32.0,8.40625,0.0,0.0,0.0
1695380236084,-0.93652344,0.14453125,0.20214844,-104.3125,-8.9375,-25.65625,0.0,0.0,0.0
1695380236088,-1.1484375,0.3154297,0.12109375,-137.03125,6.5,-21.6875,0.0,0.0,0.0
1695380236113,-1.0654297,0.12109375,0.31640625,-144.90625,4.375,-21.9375,0.0,0.0,0.0
1695380236173,-0.64941406,0.56933594,0.0068359375,-2.5625,-26.375,-32.71875,0.0,0.0,0.0
1695380236204,-0.67578125,0.49414062,0.17773438,-5.375,-2.40625,-10.34375,0.0,0.0,0.0
1695380236232,-0.7363281,0.3466797,0.24511719,-35.75,17.1875,8.71875,0.0,0.0,0.0
1695380236293,-0.88378906,0.16992188,0.18652344,-25.25,23.1875,19.6875,0.0,0.0,0.0
1695380236323,-0.9472656,0.0087890625,0.22070312,24.0625,14.25,25.25,0.0,0.0,0.0
1695380236413,-0.9628906,-0.38476562,0.4296875,21.5,26.21875,22.875,0.0,0.0,0.0
1695380236416,-1.7255859,0.43652344,-0.10253906,69.21875,4.25,6.5,0.0,0.0,0.0
1695380236443,-1.0390625,0.33691406,0.0,111.875,-19.84375,7.125,-40.25,16.0,-16.4375
1695380236503,-0.6484375,0.47851562,-0.26367188,1.78125,-37.0,-22.34375,0.0,0.0,0.0
1695380236532,-0.88183594,0.3408203,-0.107421875,38.46875,30.0625,12.375,0.0,0.0,0.0
1695380236563,-1.1445312,-0.103515625,-0.36621094,18.5625,5.21875,12.1875,0.0,0.0,0.0
1695380236592,-1.0185547,0.11425781,-0.20410156,-65.0625,33.375,-4.15625,0.0,0.0,0.0
1695380236653,-0.9550781,0.07519531,-0.09472656,-122.0625,37.28125,-12.15625,0.0,0.0,0.0
1695380236682,-0.93652344,0.15722656,-0.048828125,-23.0625,20.375,8.28125,0.0,0.0,0.0
1695380236712,-1.0283203,0.24707031,0.009765625,15.15625,4.1875,10.0,0.0,0.0,0.0
1695380236805,-1.0722656,0.19726562,-0.04296875,0.1875,-8.1875,11.34375,0.0,0.0,0.0
1695380236808,-1.0029297,0.026367188,-0.0068359375,0.1875,-14.53125,13.53125,0.0,0.0,0.0
1695380236833,-1.1972656,-0.16992188,0.059570312,-25.875,-37.0625,-5.4375,0.0,0.0,0.0
1695380236923,-0.8466797,0.234375,-0.08105469,-145.75,-17.40625,-40.4375,0.0,0.0,0.0
1695380236926,-1.3242188,0.23046875,0.26171875,-144.78125,14.375,-32.84375,-40.375,17.5,-13.875
1695380236952,-0.90234375,0.7871094,-0.032226562,-69.5625,-55.6875,-29.625,0.0,0.0,0.0
1695380237012,-0.6669922,0.49023438,-0.01171875,83.8125,-31.34375,0.90625,0.0,0.0,0.0
1695380237043,-0.7832031,0.27148438,0.31933594,-21.84375,21.96875,11.875,0.0,0.0,0.0
1695380237072,-0.8955078,0.19042969,0.43652344,6.46875,6.4375,5.53125,0.0,0.0,0.0
1695380237133,-0.87402344,0.28710938,0.052734375,-7.0,4.6875,9.9375,0.0,0.0,0.0
1695380237193,-0.58984375,0.072265625,0.17578125,-7.875,23.46875,17.125,0.0,0.0,0.0
1695380237196,-0.8261719,-0.2763672,0.5214844,16.65625,15.59375,32.5625,0.0,0.0,0.0
1695380237252,-1.8740234,0.26367188,-0.11621094,126.34375,3.34375,16.28125,0.0,0.0,0.0
1695380237283,-1.3417969,0.31835938,-0.016601562,134.21875,-27.96875,14.1875,0.0,0.0,0.0
1695380237313,-0.47851562,0.3251953,-0.3876953,-54.25,-53.4375,-22.59375,0.0,0.0,0.0
1695380237373,-0.84277344,0.19140625,-0.359375,9.53125,31.53125,-0.25,0.0,0.0,0.0
1695380237402,-1.1289062,0.40429688,0.23925781,181.65625,78.28125,7.1875,0.0,0.0,0.0
1695380237463,-1.0927734,0.056640625,-0.049804688,6.09375,5.125,5.46875,-39.625,18.25,-19.0
1695380237493,-0.953125,0.08203125,-0.20996094,-63.53125,9.125,-10.75,0.0,0.0,0.0
1695380237524,-0.9453125,0.107421875,-0.19824219,-48.03125,32.5,5.78125,0.0,0.0,0.0
1695380237552,-0.9707031,0.24121094,0.01171875,1.21875,19.9375,12.0625,0.0,0.0,0.0
1695380237644,-1.0341797,0.20214844,-0.12011719,3.0625,-8.5625,13.84375,0.0,0.0,0.0
1695380237648,-0.9951172,0.17675781,0.08886719,-22.625,-8.9375,14.1875,0.0,0.0,0.0
1695380237672,-1.1103516,-0.1640625,0.12207031,26.90625,-65.03125,1.4375,0.0,0.0,0.0
1695380237732,-1.0556641,0.053710938,0.072265625,-81.0,-29.5,-54.53125,0.0,0.0,0.0
1695380237792,-1.2324219,0.27734375,0.03515625,-177.96875,6.03125,-53.90625,0.0,0.0,0.0
1695380237794,-0.9707031,0.5625,0.4716797,-177.71875,4.5625,-44.875,0.0,0.0,0.0
1695380237913,-0.8535156,0.6738281,-0.12792969,38.59375,-37.5,-16.9375,0.0,0.0,0.0
1695380237917,-0.77246094,0.43359375,0.2705078,43.84375,-2.65625,6.9375,0.0,0.0,0.0
1695380237973,-0.75,0.33398438,0.34960938,14.90625,-1.71875,11.625,-40.125,16.1875,-9.125
1695380237976,-0.8105469,0.3173828,0.35546875,41.8125,0.53125,23.28125,0.0,0.0,0.0
1695380238003,-0.88964844,0.0390625,0.23535156,32.71875,14.4375,30.875,0.0,0.0,0.0
1695380238033,-0.73339844,0.03515625,0.22265625,62.4375,25.375,20.5625,0.0,0.0,0.0
1695380238093,-0.8330078,-0.4951172,0.53027344,-15.875,17.1875,13.34375,0.0,0.0,0.0
1695380238122,-1.984375,0.01953125,-0.5673828,186.03125,45.875,1.4375,0.0,0.0,0.0
1695380238153,-0.81933594,0.44335938,-0.12207031,20.03125,-59.34375,-26.25,0.0,0.0,0.0
1695380238243,-0.41992188,0.31152344,-0.44921875,-36.96875,-46.40625,-28.875,0.0,0.0,0.0
1695380238246,-0.9111328,0.44335938,-0.4169922,33.6875,39.90625,-11.375,0.0,0.0,0.0
1695380238273,-1.1035156,0.095703125,0.328125,51.8125,83.1875,31.0625,0.0,0.0,0.0
1695380238363,-1.0585938,-0.02734375,-0.13574219,-81.46875,12.75,5.90625,0.0,0.0,0.0
1695380238366,-0.96875,0.15917969,-0.21484375,-78.65625,12.6875,-0.15625,0.0,0.0,0.0
1695380238394,-0.91796875,0.23339844,-0.051757812,-43.09375,11.9375,12.1875,0.0,0.0,0.0
1695380238452,-1.0371094,0.17675781,-0.13476562,6.21875,-5.875,17.1875,-38.125,18.4375,-15.375
1695380238483,-1.1132812,0.16113281,-0.09082031,13.0625,-9.53125,16.40625,0.0,0.0,0.0
1695380238512,-1.2285156,-0.015625,0.10449219,38.34375,-32.78125,11.40625,0.0,0.0,0.0
1695380238573,-0.99121094,-0.053710938,0.07324219,-21.90625,-22.1875,-21.4375,0.0,0.0,0.0
1695380238604,-1.0908203,0.25878906,0.20214844,-107.53125,-5.21875,-29.6875,0.0,0.0,0.0
1695380238632,-1.0986328,0.12597656,0.24804688,-115.59375,-4.53125,-41.9375,0.0,0.0,0.0
1695380238693,-0.8564453,0.38378906,0.20214844,-132.0,-18.21875,-53.1875,0.0,0.0,0.0
1695380238753,-0.7421875,0.6777344,-0.09277344,65.5625,-32.96875,-17.28125,0.0,0.0,0.0
1695380238757,-0.74121094,0.43164062,0.31445312,-34.28125,25.25,7.375,0.0,0.0,0.0
1695380238812,-0.7919922,0.23730469,0.37695312,-21.125,26.40625,15.78125,0.0,0.0,0.0
1695380238904,-0.953125,0.0390625,0.23730469,26.6875,-4.34375,30.75,0.0,0.0,0.0
1695380238907,-0.87402344,-0.0625,0.2626953,43.09375,5.28125,18.09375,0.0,0.0,0.0
1695380238934,-0.89746094,-0.17675781,0.45507812,78.0625,4.8125,28.59375,-37.6875,16.3125,-11.1875
1695380238962,-1.9580078,0.119140625,-0.34277344,139.78125,44.34375,18.65625,0.0,0.0,0.0
1695380238992,-0.7734375,0.25976562,0.040039062,73.78125,-28.53125,0.96875,0.0,0.0,0.0
1695380239053,-0.69433594,0.41796875,-0.55566406,-7.25,-39.8125,-18.9375,0.0,0.0,0.0
1695380239082,-0.91796875,0.35058594,-0.31152344,43.65625,32.6875,3.65625,0.0,0.0,0.0
1695380239115,-0.95996094,0.10058594,-0.11035156,-87.75,52.59375,-0.9375,0.0,0.0,0.0
1695380239172,-1.0654297,0.040039062,-0.049804688,-44.4375,38.75,-4.0,0.0,0.0,0.0
1695380239203,-0.98828125,0.16210938,0.005859375,10.375,19.34375,1.9375,0.0,0.0,0.0
1695380239233,-0.96972656,0.22167969,-0.095703125,29.59375,-13.3125,20.1875,0.0,0.0,0.0
1695380239293,-0.9667969,0.22167969,-0.14550781,-9.75,-9.71875,13.78125,0.0,0.0,0.0
1695380239323,-1.1210938,0.103515625,-0.059570312,48.03125,-6.0625,23.0625,0.0,0.0,0.0
1695380239353,-1.2246094,-0.18164062,0.04296875,63.125,-40.1875,20.625,0.0,0.0,0.0
1695380239444,-0.9609375,0.14453125,-0.09472656,-75.25,-37.0,-27.84375,0.0,0.0,0.0
1695380239448,-1.1074219,0.35742188,0.2763672,-174.0625,-19.84375,-31.40625,-38.3125,19.3125,-15.5625
1695380239472,-1.1289062,-0.07714844,1.203125,-147.625,-2.75,-36.15625,0.0,0.0,0.0
1695380239564,-0.7138672,0.87597656,-0.020507812,-47.125,-31.625,-42.75,0.0,0.0,0.0
1695380239567,-0.8466797,0.4501953,-0.0068359375,-10.625,-12.78125,-4.78125,0.0,0.0,0.0
1695380239653,-0.7285156,0.38867188,0.1640625,-34.96875,17.0,6.375,0.0,0.0,0.0
1695380239659,-0.8251953,0.0107421875,0.4404297,35.59375,17.875,18.59375,0.0,0.0,0.0
1695380239682,-0.7939453,0.12207031,0.21972656,56.875,1.375,27.75,0.0,0.0,0.0
1695380239774,-0.8828125,-0.12011719,0.3125,44.1875,24.15625,20.96875,0.0,0.0,0.0
1695380239777,-0.77734375,0.020507812,0.40039062,74.53125,18.59375,22.0625,0.0,0.0,0.0
1695380239802,-1.53125,0.2265625,0.107421875,70.4375,9.5,13.28125,0.0,0.0,0.0
1695380239892,-1.7285156,0.3359375,-0.10546875,144.0,5.71875,21.53125,0.0,0.0,0.0
1695380239895,-0.5546875,0.38183594,-0.17871094,-25.875,-71.625,-22.84375,0.0,0.0,0.0
1695380239922,-0.7285156,0.12109375,-0.60253906,79.84375,-6.90625,8.03125,-36.9375,18.875,-14.9375
1695380239953,-1.0400391,0.13671875,-0.31152344,106.9375,44.1875,8.46875,0.0,0.0,0.0
1695380240014,-1.0126953,0.20996094,0.068359375,-97.21875,26.46875,-0.9375,0.0,0.0,0.0
1695380240043,-1.0185547,0.14941406,-0.11230469,-68.28125,28.96875,-5.5,0.0,0.0,0.0
1695380240103,-0.99609375,0.18066406,-0.034179688,29.78125,11.59375,5.34375,0.0,0.0,0.0
1695380240133,-0.9980469,0.1796875,-0.11035156,33.875,-6.59375,19.8125,0.0,0.0,0.0
1695380240163,-1.0322266,0.21289062,-0.05078125,6.84375,-12.96875,14.4375,0.0,0.0,0.0
1695380240193,-1.1445312,-0.111328125,0.0078125,-2.5,-24.96875,11.15625,0.0,0.0,0.0
1695380240252,-0.9873047,-0.10058594,-0.033203125,-71.53125,-25.09375,-24.0,0.0,0.0,0.0
1695380240283,-0.89941406,0.33203125,-0.13085938,-120.21875,1.625,-32.6875,0.0,0.0,0.0
1695380240343,-1.4628906,-0.6748047,1.9902344,-267.21875,26.90625,-25.84375,0.0,0.0,0.0
1695380240372,-0.88964844,0.83984375,-0.061523438,79.09375,-46.53125,-28.78125,0.0,0.0,0.0
1695380240402,-0.86328125,0.625,0.04296875,-1.75,-18.09375,-12.53125,0.0,0.0,0.0
1695380240463,-0.79589844,0.38671875,0.4033203,-29.46875,13.40625,-1.71875,-39.375,20.0625,-10.75
1695380240494,-0.8496094,0.1015625,0.34570312,7.34375,12.25,8.09375,0.0,0.0,0.0
1695380240553,-0.8486328,0.026367188,0.13964844,44.875,-7.09375,9.0625,0.0,0.0,0.0
1695380240557,-0.6142578,9.765625E-4,0.2265625,43.53125,15.4375,17.0,0.0,0.0,0.0
1695380240673,-0.9511719,-0.3232422,0.5361328,42.78125,-5.8125,10.28125,0.0,0.0,0.0
1695380240676,-1.8916016,0.57421875,-0.5058594,163.625,39.46875,11.21875,0.0,0.0,0.0
1695380240681,-0.97265625,0.47558594,0.2705078,14.53125,-6.25,3.15625,0.0,0.0,0.0
1695380240764,-0.43847656,0.42285156,-0.56152344,-8.53125,-47.4375,-19.375,0.0,0.0,0.0
1695380240768,-0.9345703,0.018554688,-0.14160156,231.8125,37.46875,24.5625,0.0,0.0,0.0
1695380240793,-1.0283203,0.06347656,-0.13769531,8.25,18.0625,5.65625,0.0,0.0,0.0
1695380240854,-1.0595703,0.16503906,-0.17480469,-102.34375,18.125,-6.4375,0.0,0.0,0.0
1695380240883,-1.0410156,0.23046875,0.0546875,-75.8125,39.78125,-9.1875,0.0,0.0,0.0
1695380240944,-0.9296875,0.35839844,0.06542969,28.625,-0.8125,9.5,-37.25,20.0625,-18.5625
1695380240974,-1.0009766,0.3125,-0.00390625,8.6875,-18.875,17.625,0.0,0.0,0.0
1695380241004,-1.2675781,0.08496094,-0.13476562,-34.84375,-20.03125,14.1875,0.0,0.0,0.0
1695380241033,-1.0517578,-0.38378906,-0.37304688,-73.84375,-21.6875,-24.625,0.0,0.0,0.0
1695380241094,-0.86328125,0.018554688,0.27539062,-159.71875,18.125,-41.09375,0.0,0.0,0.0
1695380241122,-1.1777344,0.2607422,0.89160156,-37.15625,32.625,-20.15625,0.0,0.0,0.0
1695380241153,-0.89160156,0.6074219,-0.0087890625,29.375,-42.1875,-28.59375,0.0,0.0,0.0
1695380241213,-0.76953125,0.63964844,0.13574219,-7.75,-10.8125,-12.84375,0.0,0.0,0.0
1695380241246,-0.7919922,0.31347656,0.4873047,1.65625,0.84375,5.40625,0.0,0.0,0.0
1695380241273,-0.89941406,-0.016601562,0.26367188,11.0,-2.75,10.71875,0.0,0.0,0.0
1695380241333,-0.7246094,0.11621094,0.099609375,26.3125,-4.0,10.65625,0.0,0.0,0.0
1695380241364,-0.6923828,-0.029296875,0.22167969,17.59375,30.375,18.15625,0.0,0.0,0.0
1695380241398,-0.9902344,-0.091796875,0.3359375,41.75,40.21875,22.1875,0.0,0.0,0.0
1695380241452,-1.984375,0.5488281,-0.08691406,144.78125,30.125,23.84375,-38.3125,20.0625,-13.875
1695380241513,-0.9033203,0.28320312,0.06640625,34.0625,-28.46875,-5.21875,0.0,0.0,0.0
1695380241519,-0.60839844,0.24707031,-0.3544922,-12.875,-27.375,-8.1875,0.0,0.0,0.0
1695380241572,-0.9658203,0.28808594,-0.22265625,112.6875,13.65625,3.03125,0.0,0.0,0.0
1695380241633,-1.0097656,0.13476562,-0.19238281,89.125,14.25,14.4375,0.0,0.0,0.0
1695380241636,-1.0087891,0.047851562,-0.24121094,-97.46875,24.21875,-1.90625,0.0,0.0,0.0
1695380241693,-1.0126953,0.10839844,-0.17578125,-78.90625,28.5,-5.9375,0.0,0.0,0.0
1695380241723,-0.90625,0.18457031,-0.033203125,-13.46875,19.03125,8.59375,0.0,0.0,0.0
1695380241753,-1.0263672,0.14160156,-0.06933594,35.28125,-4.84375,16.8125,0.0,0.0,0.0
1695380241813,-1.1708984,0.24804688,-0.041992188,51.46875,-19.84375,17.3125,0.0,0.0,0.0
1695380241843,-1.1259766,-0.06738281,0.061523438,-24.59375,-28.03125,7.625,0.0,0.0,0.0
1695380241874,-0.8955078,-0.14746094,0.03515625,-106.1875,-22.0,-28.34375,0.0,0.0,0.0
1695380241963,-1.1650391,0.20996094,0.03125,-121.8125,6.40625,-34.5625,-37.875,20.6875,-15.5625
1695380241967,-1.2480469,-0.0068359375,0.9169922,-174.5625,4.6875,-37.0,0.0,0.0,0.0
1695380242023,-0.86328125,0.9121094,-0.3046875,24.53125,-79.90625,-49.21875,0.0,0.0,0.0
1695380242054,-0.67578125,0.6015625,0.14648438,13.0625,-13.5625,-3.4375,0.0,0.0,0.0
1695380242083,-0.65234375,0.42382812,0.21875,-38.4375,14.75,8.28125,0.0,0.0,0.0
1695380242113,-0.8330078,0.119140625,0.35742188,10.8125,8.84375,20.65625,0.0,0.0,0.0
1695380242172,-0.8515625,-0.061523438,0.08984375,40.84375,-4.09375,22.25,0.0,0.0,0.0
1695380242203,-0.6201172,-0.15820312,0.37597656,51.75,21.40625,20.5625,0.0,0.0,0.0
1695380242233,-0.94433594,-0.2890625,0.3623047,87.59375,5.40625,13.40625,0.0,0.0,0.0
1695380242293,-1.984375,0.49316406,-0.25,276.125,44.65625,-5.09375,0.0,0.0,0.0
1695380242322,-0.6064453,0.27441406,0.0087890625,4.53125,-55.75,-6.71875,0.0,0.0,0.0
1695380242353,-0.51953125,0.30566406,-0.6923828,-20.25,-49.625,-12.09375,0.0,0.0,0.0
1695380242412,-0.88378906,0.4345703,-0.3154297,114.6875,67.71875,-9.34375,0.0,0.0,0.0
1695380242443,-1.1894531,-0.17382812,0.08496094,10.0625,33.375,25.96875,-38.625,18.5625,-19.625
1695380242472,-1.0351562,0.10839844,-0.2109375,-129.8125,17.9375,1.6875,0.0,0.0,0.0
1695380242532,-0.9892578,0.1015625,-0.125,-94.53125,27.5625,-7.46875,0.0,0.0,0.0
1695380242564,-0.9589844,0.2109375,-0.06542969,42.0625,-2.09375,14.375,0.0,0.0,0.0
1695380242594,-1.0126953,0.22949219,-0.095703125,41.5625,-18.375,15.0,0.0,0.0,0.0
1695380242652,-1.1992188,0.009765625,0.041015625,-2.5625,-14.84375,14.75,0.0,0.0,0.0
1695380242683,-1.0166016,-0.234375,-0.046875,-28.1875,-43.15625,-21.125,0.0,0.0,0.0
1695380242712,-0.9013672,0.27148438,0.22070312,-114.25,-4.0,-31.75,0.0,0.0,0.0
1695380242773,-1.2910156,0.14355469,0.7626953,-120.46875,-4.03125,-32.71875,0.0,0.0,0.0
1695380242803,-0.7841797,0.69921875,-0.09863281,12.28125,-55.375,-22.71875,0.0,0.0,0.0
1695380242833,-0.8125,0.50390625,-0.0068359375,13.5625,-17.09375,-3.3125,0.0,0.0,0.0
1695380242923,-0.7783203,0.46875,0.17480469,-17.34375,9.375,6.09375,0.0,0.0,0.0
1695380242927,-0.8613281,0.1640625,0.5097656,-19.28125,17.625,10.59375,-39.5,20.1875,-11.9375
1695380242954,-0.89941406,0.20898438,0.1640625,10.9375,9.8125,9.375,0.0,0.0,0.0
1695380243012,-0.87402344,0.07128906,0.24902344,-17.375,14.4375,2.78125,0.0,0.0,0.0
1695380243044,-0.63378906,-0.05078125,0.26660156,4.09375,32.34375,10.53125,0.0,0.0,0.0
1695380243072,-1.3554688,-0.06347656,0.37402344,47.6875,23.96875,20.78125,0.0,0.0,0.0
1695380243133,-1.8574219,0.36914062,-0.1484375,209.78125,13.21875,29.59375,0.0,0.0,0.0
1695380243163,-0.71777344,0.2578125,-0.25683594,21.71875,-62.28125,-2.40625,0.0,0.0,0.0
1695380243192,-0.7158203,0.14941406,-0.61035156,57.5,-15.03125,-2.15625,0.0,0.0,0.0
1695380243253,-0.9941406,0.45507812,-0.0546875,64.03125,64.0,-1.4375,0.0,0.0,0.0
1695380243283,-1.0400391,-0.083984375,-0.05078125,-73.1875,23.40625,5.03125,0.0,0.0,0.0
1695380243314,-1.0048828,0.072265625,-0.2607422,-62.0,12.9375,-4.28125,0.0,0.0,0.0
1695380243373,-0.93652344,0.24707031,-0.1640625,-3.09375,18.28125,7.1875,0.0,0.0,0.0
1695380243403,-0.98828125,0.28027344,-0.038085938,37.40625,0.84375,15.46875,0.0,0.0,0.0
1695380243463,-1.0878906,0.13574219,-0.0068359375,9.59375,-19.4375,10.1875,-38.125,20.1875,-19.75
1695380243493,-1.0947266,0.123046875,0.08105469,-14.75,-23.53125,4.1875,0.0,0.0,0.0
1695380243522,-1.1591797,0.17871094,0.17089844,-122.6875,-6.3125,-20.21875,0.0,0.0,0.0
1695380243553,-1.0410156,0.26464844,0.15722656,-143.375,1.75,-25.59375,0.0,0.0,0.0
1695380243613,-1.1806641,-0.053710938,0.52441406,-165.71875,-5.3125,-32.375,0.0,0.0,0.0
1695380243644,-0.67578125,0.5214844,-0.171875,-54.6875,-30.59375,-38.84375,0.0,0.0,0.0
1695380243703,-0.65722656,0.5078125,0.07324219,17.28125,-19.375,-3.8125,0.0,0.0,0.0
1695380243733,-0.7363281,0.20507812,0.29101562,-2.0625,29.28125,13.84375,0.0,0.0,0.0
1695380243763,-0.93652344,0.091796875,0.42089844,17.53125,9.8125,6.8125,0.0,0.0,0.0
1695380243792,-0.8339844,0.16308594,0.171875,16.5,5.96875,8.59375,0.0,0.0,0.0
1695380243854,-0.7480469,-0.07128906,0.42578125,45.21875,13.40625,19.28125,0.0,0.0,0.0
1695380243882,-1.2011719,-0.10449219,0.43652344,98.40625,0.09375,20.25,0.0,0.0,0.0
1695380243943,-1.984375,0.31347656,-0.12011719,252.9375,13.71875,9.9375,-39.1875,21.5625,-14.9375
1695380243973,-0.6894531,0.2685547,-0.14746094,17.9375,-57.6875,-16.8125,0.0,0.0,0.0
1695380244032,-0.5390625,0.53027344,-0.24804688,-70.125,13.03125,-26.4375,0.0,0.0,0.0
1695380244063,-0.96972656,0.2861328,-0.34765625,30.59375,31.71875,7.0,0.0,0.0,0.0
1695380244093,-1.0957031,0.091796875,-0.22460938,11.46875,40.5625,12.0625,0.0,0.0,0.0
1695380244122,-1.0439453,0.115234375,-0.064453125,-127.3125,32.625,-6.3125,0.0,0.0,0.0
1695380244184,-0.9169922,0.14257812,-0.11230469,-118.28125,25.75,-9.0,0.0,0.0,0.0
1695380244213,-1.0009766,0.15136719,-0.06738281,-26.84375,23.71875,5.28125,0.0,0.0,0.0
1695380244243,-1.0224609,0.203125,-0.09667969,-1.9375,-3.9375,15.3125,0.0,0.0,0.0
1695380244274,-1.0498047,0.16796875,-0.12011719,-11.71875,-7.28125,13.84375,0.0,0.0,0.0
1695380244333,-1.0556641,0.19433594,-0.09863281,9.46875,-19.375,18.0625,0.0,0.0,0.0
1695380244363,-1.1591797,0.115234375,-0.072265625,-43.75,-8.5,8.46875,0.0,0.0,0.0
1695380244423,-0.8408203,0.34570312,-0.048828125,-145.75,5.21875,-16.25,0.0,0.0,0.0
1695380244452,-1.0527344,0.25878906,0.0126953125,-144.90625,29.46875,-8.75,-38.875,22.9375,-13.125
1695380244482,-0.9404297,0.5390625,0.45117188,-26.46875,-18.6875,4.6875,0.0,0.0,0.0
1695380244542,-0.80371094,0.33984375,-0.10058594,-20.5625,-24.5,11.875,0.0,0.0,0.0
1695380244574,-0.84277344,0.28808594,0.4296875,-39.125,19.875,19.34375,0.0,0.0,0.0
1695380244602,-0.90527344,-0.14257812,0.20507812,-31.3125,-1.46875,10.1875,0.0,0.0,0.0
1695380244664,-0.7714844,0.1875,0.22851562,-50.53125,15.1875,-10.625,0.0,0.0,0.0
1695380244696,-0.6767578,0.18359375,0.20703125,0.3125,15.84375,2.0,0.0,0.0,0.0
1695380244722,-0.89160156,-0.19042969,0.0068359375,12.875,34.03125,17.0625,0.0,0.0,0.0
1695380244782,-1.984375,0.19042969,0.28710938,62.8125,60.09375,-6.25,0.0,0.0,0.0
1695380244812,-0.6582031,0.40234375,-0.12109375,16.59375,-66.0,-28.8125,0.0,0.0,0.0
1695380244843,-0.59277344,0.40722656,-0.30664062,-73.125,4.5625,-31.21875,0.0,0.0,0.0
1695380244903,-0.9863281,0.34765625,-0.36328125,67.5,16.78125,13.78125,0.0,0.0,0.0
1695380244933,-1.1347656,0.18261719,-0.046875,-36.625,59.1875,12.90625,-37.6875,22.625,-10.625
1695380244962,-0.96191406,0.12988281,-0.16992188,-121.03125,18.65625,-14.0,0.0,0.0,0.0
