,timestamp,accel_x,accel_y,accel_z,gyro_x,gyro_y,gyro_z
0,1697605965,-1.3681641,-0.02734375,0.44335938,-14.3125,-149.15625,-9.28125
1,1697606005,-1.1269531,0.28515625,-0.3642578,35.9375,-190.28125,-4.5
2,1697606045,-1.2724609,0.015625,-0.3857422,-9.65625,-159.96875,1.03125
3,1697606085,-1.2431641,-0.42089844,-0.06738281,58.5,-76.59375,-44.5625
4,1697606125,-0.9277344,-0.15820312,-0.15429688,94.21875,-83.59375,-87.46875
5,1697606165,-0.71191406,-0.0703125,-0.119140625,83.90625,-64.125,-64.6875
6,1697606205,-0.5625,-0.10058594,-0.048828125,77.4375,-40.21875,-46.5
7,1697606245,-0.484375,0.06640625,0.01171875,64.5625,-4.4375,-16.34375
8,1697606285,-0.46679688,0.20410156,0.1015625,38.625,40.78125,4.28125
9,1697606325,-0.67578125,0.06738281,0.43066406,-2.59375,79.59375,13.75
10,1697606365,-1.7685547,-0.3623047,1.0234375,-3.5625,47.75,32.15625
11,1697606405,-1.2617188,-0.3125,0.6347656,35.75,-56.8125,-9.53125
12,1697606445,-0.11035156,0.28515625,0.26660156,42.53125,10.625,-61.875
13,1697606485,-1.9589844,0.103515625,-0.15136719,-106.84375,110.1875,36.125
14,1697606525,-1.2958984,-0.8457031,0.15039062,44.53125,-8.78125,-40.09375
15,1697606565,-0.11425781,1.0488281,-0.32714844,-113.4375,79.40625,24.78125
16,1697606605,-1.28125,-0.3486328,-0.40527344,-132.34375,102.0625,53.03125
17,1697606645,-1.0302734,-0.75683594,-0.0859375,-93.28125,72.71875,30.21875
18,1697606685,-0.87890625,0.055664062,-0.107421875,-3.875,56.28125,26.90625
19,1697606725,-1.0400391,-0.064453125,-0.009765625,-25.40625,71.125,23.5
20,1697606765,-0.93066406,-0.10058594,-0.07421875,-41.84375,63.78125,11.34375
21,1697606805,-0.9453125,-0.2109375,-0.060546875,-46.34375,54.34375,5.5625
22,1697606845,-0.953125,-0.13378906,-0.08300781,-30.78125,45.25,-0.78125
23,1697606885,-0.87402344,-0.0703125,-0.12792969,-32.6875,52.0,6.84375
24,1697606925,-1.0742188,-0.12890625,-0.0625,-38.78125,58.78125,18.4375
25,1697606965,-0.9716797,-0.3544922,-0.015625,-32.1875,37.0625,13.96875
26,1697607005,-1.1152344,-0.5527344,-0.390625,-11.6875,7.6875,-1.40625
27,1697607045,-1.2324219,0.3876953,0.23242188,-58.25,0.5625,-40.78125
28,1697607085,-1.4814453,-0.5595703,0.15625,-32.625,-43.9375,-0.71875
29,1697607125,-1.4375,-0.49902344,0.043945312,-6.3125,-121.09375,-26.96875
30,1697607165,-1.1855469,0.56347656,0.041015625,9.6875,-193.84375,-30.5625
31,1697607205,-1.2705078,0.2265625,-0.26464844,-23.65625,-175.03125,-1.8125
32,1697607245,-1.2119141,-0.38671875,-0.3623047,-44.75,-108.875,-41.0
33,1697607285,-1.1367188,-0.34277344,-0.13867188,122.0625,-96.3125,-62.375
34,1697607325,-0.8173828,-0.15039062,-0.171875,141.59375,-87.5,-58.15625
35,1697607365,-0.60058594,0.056640625,-0.08300781,123.4375,-59.125,-42.46875
36,1697607405,-0.5917969,-0.030273438,-0.068359375,79.03125,-20.625,-30.8125
37,1697607445,-0.5419922,0.041015625,-0.1015625,62.96875,27.90625,-23.1875
38,1697607485,-0.41308594,0.17871094,-0.060546875,24.28125,71.96875,-5.96875
39,1697607525,-0.7626953,0.19433594,0.24902344,-12.53125,97.84375,22.78125
40,1697607565,-2.0,-0.5097656,1.7109375,13.28125,10.3125,51.09375
41,1697607605,-0.921875,-0.032226562,0.5029297,65.59375,-98.75,-52.96875
42,1697607645,0.015625,0.59375,0.0703125,-17.0,54.09375,-56.34375
43,1697607685,-2.0,-0.4951172,-0.35546875,-93.40625,115.90625,49.875
44,1697607725,-0.33691406,-0.047851562,-0.12792969,34.34375,-6.875,-50.65625
45,1697607765,-0.48632812,1.1503906,-0.13867188,-170.4375,97.0625,32.71875
46,1697607805,-1.7148438,-1.1835938,-0.60546875,-159.6875,137.9375,39.625
47,1697607845,-0.83203125,-0.4326172,-0.24121094,-58.8125,68.5625,34.71875
48,1697607885,-0.91796875,0.06542969,-0.15332031,10.15625,67.15625,18.625
49,1697607925,-1.0371094,-0.07714844,0.001953125,-35.0625,80.53125,8.625
50,1697607965,-0.90527344,-0.07324219,-0.029296875,-78.8125,59.71875,1.21875
51,1697608005,-0.9863281,-0.20996094,-0.07910156,-65.5625,38.03125,-1.21875
52,1697608045,-0.8955078,-0.22363281,-0.05078125,-36.09375,36.8125,0.4375
53,1697608085,-0.89160156,-0.06542969,-0.1015625,-45.1875,41.6875,6.96875
54,1697608125,-1.0263672,-0.22949219,-0.16113281,-27.59375,45.3125,25.34375
55,1697608165,-1.0166016,-0.2734375,-0.017578125,-22.0,34.6875,15.15625
56,1697608205,-1.1660156,-0.21191406,-0.234375,-15.28125,1.96875,8.0625
57,1697608245,-1.2949219,-0.0087890625,0.2265625,-36.9375,-17.75,-13.125
58,1697608285,-1.4902344,-0.75390625,0.2529297,-24.125,-69.6875,-5.4375
59,1697608325,-1.3789062,-0.060546875,0.203125,19.3125,-175.46875,-22.28125
60,1697608365,-1.1953125,0.5292969,-0.16796875,52.78125,-196.9375,-10.625
61,1697608405,-1.3730469,-0.49121094,-0.5439453,-51.03125,-156.65625,-10.625
62,1697608445,-1.2207031,-0.5810547,-0.1796875,51.0,-69.6875,-65.375
63,1697608485,-1.0712891,-0.119140625,-0.20214844,152.1875,-84.34375,-82.40625
64,1697608525,-0.7236328,0.07519531,-0.12207031,165.1875,-74.5625,-67.75
65,1697608565,-0.5019531,0.041992188,-0.07714844,106.0,-40.6875,-52.375
66,1697608605,-0.5839844,-0.0146484375,-0.16601562,81.875,5.5625,-31.25
67,1697608645,-0.5234375,0.15429688,-0.15136719,71.875,43.34375,-14.71875
68,1697608685,-0.5136719,0.27539062,-0.009765625,20.90625,80.875,6.40625
69,1697608725,-1.2841797,0.02734375,0.9111328,-14.5625,105.65625,31.625
70,1697608765,-2.0,-0.8232422,1.40625,57.15625,-89.96875,-12.03125
71,1697608805,0.033203125,0.14355469,0.24902344,34.53125,-17.09375,-76.15625
72,1697608845,-1.0097656,-0.37695312,-0.5029297,-58.125,96.625,0.375
73,1697608885,-2.0,-1.1513672,0.9628906,-25.71875,-71.03125,-39.375
74,1697608925,0.2861328,1.3828125,-0.4658203,-68.5,72.15625,31.0
75,1697608965,-0.94921875,-0.1328125,-0.5751953,-166.65625,110.4375,86.84375
76,1697609005,-1.2783203,-1.2607422,-0.10253906,-122.53125,74.71875,17.9375
77,1697609045,-0.90234375,0.16601562,-0.20800781,22.5,50.1875,19.71875
78,1697609085,-0.8339844,-0.001953125,-0.16699219,7.0625,61.53125,19.0625
79,1697609125,-0.9941406,0.051757812,-0.05859375,-60.5625,81.84375,5.1875
80,1697609165,-0.94140625,-0.14355469,-0.13574219,-84.96875,52.625,3.46875
81,1697609205,-0.8173828,-0.23046875,-0.09082031,-53.1875,48.28125,10.875
82,1697609245,-0.95996094,-0.19726562,-0.14941406,-33.28125,62.875,21.90625
83,1697609285,-1.0361328,-0.16308594,-0.03515625,-26.5625,53.59375,23.875
84,1697609325,-1.0058594,-0.25683594,0.0048828125,-18.15625,37.3125,25.03125
85,1697609365,-1.2226562,-0.37597656,-0.2578125,-30.0625,12.15625,6.96875
86,1697609405,-1.2783203,-0.056640625,0.17285156,-31.8125,-13.0625,-18.625
87,1697609445,-1.5234375,-0.6279297,0.20605469,-28.15625,-60.71875,-10.6875
88,1697609485,-1.2978516,-0.07519531,0.17773438,15.40625,-155.875,-31.1875
89,1697609525,-1.1953125,0.51464844,-0.19433594,35.875,-196.03125,-22.09375
90,1697609565,-1.375,-0.33203125,-0.3857422,-68.75,-157.75,-16.84375
91,1697609605,-1.2470703,-0.35058594,-0.23242188,31.03125,-86.28125,-65.84375
92,1697609645,-1.1513672,-0.16699219,-0.18652344,130.84375,-100.21875,-77.75
93,1697609685,-0.79003906,-0.0078125,-0.15136719,140.65625,-89.71875,-63.15625
94,1697609725,-0.53027344,0.048828125,-0.140625,105.09375,-46.0625,-42.84375
95,1697609765,-0.50878906,0.06347656,-0.13769531,80.0,0.9375,-22.6875
96,1697609805,-0.29492188,0.13378906,-0.13085938,70.65625,52.1875,2.3125
97,1697609845,-0.43164062,0.18457031,0.061523438,46.1875,105.34375,33.5
98,1697609885,-1.8564453,0.05078125,1.3105469,58.9375,94.96875,64.28125
99,1697609925,-1.0703125,0.017578125,0.6386719,53.4375,-98.8125,-71.09375
100,1697609965,0.15039062,0.4345703,0.18554688,-3.9375,1.40625,-46.125
101,1697610005,-2.0,-0.41503906,0.044921875,-102.875,82.96875,15.5625
102,1697610045,-0.41308594,-0.40039062,-0.57421875,-49.8125,17.46875,-31.3125
103,1697610085,-0.63183594,0.9511719,-0.15820312,-105.78125,103.46875,40.90625
104,1697610125,-1.5400391,-1.2060547,-0.33691406,-103.90625,123.375,35.65625
105,1697610165,-0.9511719,-0.19042969,-0.083984375,-24.25,58.125,20.09375
106,1697610205,-0.8535156,0.0390625,-0.037109375,4.96875,48.28125,9.46875
107,1697610245,-0.9716797,-0.10449219,-0.052734375,-32.90625,77.84375,0.125
108,1697610285,-0.90722656,-0.08984375,-0.083984375,-61.65625,62.21875,5.375
109,1697610325,-0.9667969,-0.16894531,-0.12207031,-32.3125,56.53125,6.28125
110,1697610365,-0.8798828,-0.099609375,-0.1328125,-25.71875,54.03125,5.75
111,1697610405,-0.9482422,0.0087890625,-0.099609375,-42.6875,52.25,12.28125
112,1697610445,-1.0439453,-0.15527344,-0.12988281,-45.75,52.5,25.15625
113,1697610485,-1.0273438,-0.52246094,-0.09375,-23.34375,30.71875,26.4375
114,1697610525,-1.3486328,-0.37109375,-0.056640625,-18.875,10.15625,-9.9375
115,1697610565,-1.2353516,0.036132812,0.23535156,-44.28125,-15.4375,-24.84375
116,1697610605,-1.5185547,-0.77441406,0.21289062,-24.1875,-70.1875,2.5625
117,1697610645,-1.3212891,-0.16015625,0.061523438,36.34375,-154.90625,-24.53125
118,1697610685,-1.2050781,0.50390625,-0.19238281,57.34375,-185.28125,-22.625
119,1697610725,-1.3574219,-0.265625,-0.30664062,-35.90625,-153.96875,-13.46875
120,1697610765,-1.1533203,-0.3564453,-0.25878906,40.09375,-88.25,-63.53125
121,1697610805,-1.0595703,-0.16699219,-0.14941406,122.28125,-98.4375,-80.25
122,1697610845,-0.76464844,-0.018554688,-0.15332031,148.1875,-86.21875,-64.375
123,1697610885,-0.58203125,0.017578125,-0.11230469,108.75,-53.34375,-51.03125
124,1697610925,-0.578125,0.01953125,-0.1171875,82.375,-9.09375,-37.59375
125,1697610965,-0.4716797,0.140625,-0.12109375,63.21875,45.84375,-19.28125
126,1697611005,-0.4345703,0.24316406,-0.028320312,14.75,86.75,6.84375
127,1697611045,-1.2636719,0.119140625,0.87890625,-9.59375,103.84375,36.625
128,1697611085,-2.0,-1.0546875,1.3330078,77.25,-103.4375,-2.875
129,1697611125,-0.05859375,0.359375,0.23632812,56.375,-31.59375,-70.75
130,1697611165,-1.0185547,-0.030273438,-0.2841797,-112.875,79.65625,3.84375
131,1697611205,-2.0,-1.2392578,0.64746094,19.5,-39.40625,-5.1875
132,1697611245,0.095703125,1.2294922,-0.13964844,-67.15625,34.8125,25.34375
133,1697611285,-0.78808594,0.3359375,-0.3623047,-142.40625,94.8125,67.03125
134,1697611325,-1.515625,-1.7832031,-0.31347656,-163.0,100.59375,26.6875
135,1697611365,-0.95703125,0.15625,-0.2109375,5.46875,47.4375,20.5
136,1697611405,-0.81347656,-0.018554688,-0.1015625,-11.9375,65.9375,20.15625
137,1697611445,-0.9394531,-0.059570312,-0.03515625,-40.90625,88.21875,11.25
138,1697611485,-1.0078125,-0.15527344,-0.11328125,-65.9375,66.21875,6.40625
139,1697611525,-0.85839844,-0.18261719,-0.02734375,-54.21875,43.03125,5.25
140,1697611565,-1.0214844,-0.12695312,-0.044921875,-28.9375,49.375,16.96875
141,1697611605,-0.98535156,-0.31054688,-0.076171875,-34.3125,52.1875,17.28125
142,1697611645,-1.0117188,-0.24121094,-0.034179688,-16.25,30.46875,19.65625
143,1697611685,-1.1230469,-0.48535156,-0.40039062,-8.3125,8.875,13.96875
144,1697611725,-1.265625,0.16894531,0.16503906,-31.875,2.625,-18.125
145,1697611765,-1.390625,-0.5908203,0.13671875,-12.78125,-40.09375,-0.3125
146,1697611805,-1.3710938,-0.3095703,0.19238281,15.65625,-116.75,-18.3125
147,1697611845,-1.1464844,0.3955078,0.0087890625,11.9375,-199.75,-22.21875
148,1697611885,-1.2714844,0.14648438,-0.421875,-9.125,-180.09375,-9.03125
149,1697611925,-1.3544922,-0.35742188,-0.28125,-3.75,-108.03125,-46.9375
150,1697611965,-1.1464844,-0.35058594,-0.06640625,121.25,-91.59375,-72.5625
151,1697612005,-0.8828125,-0.005859375,-0.17480469,137.4375,-91.71875,-65.1875
152,1697612045,-0.6064453,0.087890625,-0.1015625,93.65625,-60.34375,-50.84375
153,1697612085,-0.5703125,-0.0703125,-0.08691406,72.78125,-22.6875,-30.9375
154,1697612125,-0.42773438,0.08886719,-0.10839844,76.09375,28.75,-9.40625
155,1697612165,-0.38671875,0.23632812,0.005859375,32.4375,77.90625,11.1875
156,1697612205,-1.0224609,0.13769531,0.70410156,-8.375,105.90625,31.3125
157,1697612245,-2.0,-0.9189453,1.453125,35.4375,-42.46875,32.53125
158,1697612285,-0.50878906,0.15136719,0.39160156,34.65625,-66.34375,-56.34375
159,1697612325,-0.29785156,0.056640625,-0.04296875,-30.125,67.46875,-28.4375
160,1697612365,-2.0,-1.171875,-0.12207031,-104.5625,85.34375,2.875
161,1697612405,0.5058594,1.3876953,-0.41796875,32.09375,-12.625,-2.4375
162,1697612445,-0.3076172,0.703125,-0.14257812,-153.03125,89.4375,37.1875
163,1697612485,-2.0,-2.0,-0.4873047,-193.8125,116.34375,11.125
164,1697612525,-0.85058594,0.064453125,-0.22460938,-1.125,41.21875,22.34375
165,1697612565,-0.86035156,0.01953125,-0.12695312,19.21875,59.46875,25.9375
166,1697612605,-0.953125,0.0078125,-0.01953125,-23.09375,85.40625,10.25
167,1697612645,-0.9609375,-0.0390625,-0.053710938,-71.0,74.96875,11.0
168,1697612685,-0.89941406,-0.21191406,-0.14453125,-51.46875,49.5625,11.28125
169,1697612725,-0.91796875,-0.13183594,-0.0703125,-38.84375,55.5625,16.25
170,1697612765,-1.046875,-0.19238281,0.013671875,-22.71875,58.53125,20.09375
171,1697612805,-1.0117188,-0.21777344,0.01171875,-33.53125,38.09375,21.5
172,1697612845,-1.1396484,-0.62597656,-0.34179688,-4.15625,2.40625,15.5625
173,1697612885,-1.3603516,-0.072265625,0.24609375,-14.4375,-7.1875,-26.53125
174,1697612925,-1.484375,-0.4560547,0.1875,-3.625,-67.5625,-19.34375
175,1697612965,-1.3554688,0.046875,0.21484375,14.0625,-162.40625,-26.0625
176,1697613005,-1.1914062,0.47070312,-0.23925781,28.84375,-194.625,-18.0
177,1697613045,-1.4375,-0.30078125,-0.46679688,-68.1875,-162.34375,-15.125
178,1697613085,-1.2548828,-0.53515625,-0.15039062,47.21875,-79.59375,-64.4375
179,1697613125,-1.0292969,-0.13964844,-0.14160156,119.78125,-93.875,-77.21875
180,1697613165,-0.7519531,-0.022460938,-0.14453125,142.8125,-75.375,-65.25
181,1697613205,-0.53808594,-0.0009765625,-0.09863281,99.09375,-45.53125,-46.125
182,1697613245,-0.48828125,0.053710938,-0.08105469,83.0625,-1.34375,-26.59375
183,1697613285,-0.41308594,0.13964844,-0.09277344,65.53125,50.4375,-5.375
184,1697613325,-0.4658203,0.21484375,0.03515625,24.5625,96.5,21.96875
185,1697613365,-1.4765625,-0.043945312,1.4560547,18.09375,99.875,55.1875
186,1697613405,-1.7773438,-0.61035156,0.8808594,80.46875,-89.84375,-36.125
187,1697613445,-0.16992188,0.7285156,0.17089844,30.25,-18.90625,-50.53125
188,1697613485,-1.6396484,0.23144531,-0.3955078,-129.90625,46.15625,28.5625
189,1697613525,-1.0761719,-1.2148438,-0.54296875,-25.0,25.09375,-44.78125
190,1697613565,-0.5439453,1.0390625,-0.08300781,-105.4375,74.46875,36.03125
191,1697613605,-1.25,-0.4501953,-0.30078125,-117.28125,132.21875,52.375
192,1697613645,-1.0634766,-0.7480469,-0.26171875,-88.09375,85.46875,48.84375
193,1697613685,-0.9482422,-0.061523438,-0.15136719,-3.1875,73.6875,24.71875
194,1697613725,-0.98535156,0.0009765625,-0.0068359375,-46.53125,83.375,16.5
195,1697613765,-0.8730469,-0.13867188,-0.10546875,-58.5,71.84375,13.125
196,1697613805,-0.9560547,-0.16796875,-0.09277344,-52.375,61.96875,1.53125
197,1697613845,-0.90234375,-0.11328125,-0.09082031,-24.75,53.0625,7.8125
198,1697613885,-0.9902344,-0.111328125,-0.036132812,-36.15625,55.125,17.53125
199,1697613925,-1.078125,-0.24609375,-0.078125,-46.90625,43.90625,21.78125
200,1697613965,-1.0244141,-0.4794922,-0.07910156,-22.46875,19.59375,17.46875
201,1697614005,-1.2597656,-0.16796875,-0.10546875,-22.3125,3.78125,-7.9375
202,1697614045,-1.3935547,-0.23730469,0.119140625,-4.78125,-22.03125,-4.5625
203,1697614085,-1.4648438,-0.60253906,0.28027344,2.96875,-83.25,-12.15625
204,1697614125,-1.3027344,0.13867188,0.22753906,32.5625,-182.1875,-26.71875
205,1697614165,-1.2705078,0.4423828,-0.328125,57.71875,-185.90625,-19.09375
206,1697614205,-1.3720703,-0.5419922,-0.45996094,-27.0,-144.03125,-29.53125
207,1697614245,-1.3330078,-0.3017578,-0.10644531,84.375,-73.84375,-77.5
208,1697614285,-0.99902344,-0.041992188,-0.15722656,153.96875,-100.03125,-88.125
209,1697614325,-0.6982422,0.07519531,-0.13964844,126.0625,-75.84375,-70.96875
210,1697614365,-0.4951172,-0.03125,-0.11230469,95.1875,-34.09375,-44.96875
211,1697614405,-0.46777344,0.022460938,-0.12988281,95.5625,16.1875,-16.84375
212,1697614445,-0.2705078,0.1953125,-0.07714844,65.65625,67.34375,12.34375
213,1697614485,-0.7607422,0.19824219,0.41210938,18.34375,125.1875,45.21875
214,1697614525,-2.0,-0.6875,1.6904297,24.34375,2.6875,60.0625
215,1697614565,-0.50683594,0.38964844,0.39453125,19.28125,-89.21875,-65.125
216,1697614605,-0.16210938,0.12695312,-0.13769531,-65.9375,30.96875,-37.59375
217,1697614645,-2.0,-1.1972656,0.4560547,-1.65625,17.28125,12.40625
218,1697614685,-0.123046875,0.87109375,-0.19433594,-12.46875,-5.375,-1.09375
219,1697614725,-0.640625,0.6064453,-0.19335938,-115.625,88.6875,37.59375
220,1697614765,-1.6699219,-1.6875,-0.45703125,-159.75,120.25,14.40625
221,1697614805,-0.9628906,-0.07714844,-0.234375,-21.25,59.71875,28.09375
222,1697614845,-0.86035156,0.068359375,-0.068359375,2.34375,58.90625,21.25
223,1697614885,-0.9482422,-0.07128906,-0.0107421875,-23.6875,78.0,24.40625
224,1697614925,-0.95703125,-0.09277344,-0.091796875,-39.8125,71.0625,10.75
225,1697614965,-0.86816406,-0.171875,-0.13769531,-45.8125,66.71875,5.875
226,1697615005,-0.97558594,-0.043945312,-0.053710938,-50.1875,69.40625,14.90625
227,1697615045,-1.0634766,-0.16601562,0.06640625,-31.75,65.1875,23.5625
228,1697615085,-1.0634766,-0.4248047,0.018554688,-36.75,34.0625,20.15625
229,1697615125,-1.3242188,-0.46484375,-0.18945312,-16.8125,2.625,-0.125
230,1697615165,-1.2988281,-0.036132812,0.19921875,-35.0,-23.71875,-22.625
231,1697615205,-1.4941406,-0.5283203,0.22558594,-29.875,-89.78125,-17.09375
232,1697615245,-1.3007812,0.11230469,0.12695312,5.65625,-179.1875,-35.8125
233,1697615285,-1.2216797,0.52246094,-0.30371094,16.65625,-184.375,-32.59375
234,1697615325,-1.2802734,-0.33789062,-0.39941406,-58.90625,-134.6875,-27.78125
235,1697615365,-1.1894531,-0.4140625,-0.12695312,69.1875,-81.96875,-69.875
236,1697615405,-1.0410156,-0.072265625,-0.171875,117.34375,-89.90625,-73.96875
237,1697615445,-0.6816406,-0.016601562,-0.14453125,135.21875,-71.40625,-65.59375
238,1697615485,-0.4794922,-0.033203125,-0.09472656,113.625,-31.0,-34.59375
239,1697615525,-0.5830078,0.10546875,-0.099609375,79.15625,20.6875,-18.5625
240,1697615565,-0.4326172,0.12597656,-0.04296875,49.53125,55.25,-3.71875
241,1697615605,-0.6171875,0.16113281,0.15332031,6.09375,98.59375,23.3125
242,1697615645,-1.8691406,-0.14453125,1.3632812,10.65625,77.09375,43.34375
243,1697615685,-1.3105469,-0.38671875,0.7607422,26.59375,-71.71875,-37.96875
244,1697615725,-0.061523438,0.4609375,0.16308594,63.625,11.375,-71.21875
245,1697615765,-1.7919922,-0.20898438,-0.3564453,-132.09375,100.09375,35.84375
246,1697615805,-1.2675781,-0.67578125,0.11035156,39.46875,-31.0,-43.40625
247,1697615845,-0.27246094,1.2119141,-0.21679688,-129.84375,90.03125,33.9375
248,1697615885,-1.4941406,-0.5878906,-0.47558594,-136.375,120.96875,77.59375
249,1697615925,-0.9550781,-0.6855469,-0.16699219,-86.875,67.75,25.40625
250,1697615965,-0.9121094,0.08691406,-0.15234375,17.625,50.78125,17.09375
251,1697616005,-1.0009766,-0.06347656,-0.0546875,-27.84375,66.53125,16.5
252,1697616045,-0.9394531,-0.051757812,-0.043945312,-39.4375,66.1875,5.25
253,1697616085,-1.0097656,-0.15332031,-0.057617188,-65.21875,47.5625,1.71875
254,1697616125,-0.859375,-0.22167969,-0.11425781,-35.78125,43.90625,7.625
255,1697616165,-0.96484375,-0.15234375,-0.09765625,-29.4375,50.65625,12.40625
256,1697616205,-1.015625,-0.13476562,-0.07519531,-28.59375,49.3125,20.34375
257,1697616245,-1.0136719,-0.33691406,-0.005859375,-9.125,36.875,24.46875
258,1697616285,-1.1591797,-0.39160156,-0.3466797,-10.65625,3.0625,11.1875
259,1697616325,-1.2246094,0.24316406,0.3076172,-29.5625,-6.75,-22.03125
260,1697616365,-1.4658203,-0.7060547,0.17773438,-21.625,-60.0625,0.625
261,1697616405,-1.359375,-0.23632812,0.14160156,11.46875,-150.25,-24.59375
262,1697616445,-1.1347656,0.40527344,-0.140625,40.4375,-198.34375,-19.59375
263,1697616485,-1.3427734,-0.13183594,-0.4404297,-36.09375,-157.8125,-11.46875
264,1697616525,-1.140625,-0.48535156,-0.27929688,24.34375,-83.59375,-52.90625
265,1697616565,-1.0751953,-0.20214844,-0.14550781,129.375,-83.53125,-73.59375
266,1697616605,-0.82910156,0.025390625,-0.12890625,160.625,-77.625,-66.21875
267,1697616645,-0.5839844,0.060546875,-0.08691406,110.40625,-48.8125,-51.15625
268,1697616685,-0.6513672,0.0078125,-0.07910156,66.4375,-3.03125,-31.6875
269,1697616725,-0.5859375,0.087890625,-0.10839844,61.5,30.78125,-16.0
270,1697616765,-0.4609375,0.1953125,-0.02734375,31.34375,65.125,3.46875
271,1697616805,-0.9160156,0.10546875,0.40039062,-10.09375,96.25,30.875
272,1697616845,-2.0,-0.5605469,1.2783203,16.9375,-0.96875,31.375
273,1697616885,-0.9765625,-0.16308594,0.55859375,-0.9375,-70.375,-52.78125
274,1697616925,-0.047851562,0.20996094,0.13867188,3.09375,33.875,-52.59375
275,1697616965,-2.0,-0.3701172,-0.23339844,-61.71875,114.21875,42.90625
276,1697617005,-1.4003906,-0.51660156,0.4736328,-41.78125,-70.84375,-52.0625
277,1697617045,-0.0703125,1.3369141,-0.3203125,-74.0625,100.46875,43.46875
278,1697617085,-1.6884766,-0.74121094,-0.50683594,-148.21875,108.53125,74.59375
279,1697617125,-0.9501953,-0.67871094,-0.040039062,-92.84375,48.21875,16.25
280,1697617165,-0.88671875,0.091796875,-0.12011719,33.125,42.25,14.28125
281,1697617205,-0.96484375,-0.13964844,-0.13671875,-21.6875,68.6875,12.625
282,1697617245,-0.9609375,0.06738281,-0.068359375,-43.21875,72.53125,7.625
283,1697617285,-0.9765625,-0.15625,-0.10253906,-59.90625,56.15625,7.34375
284,1697617325,-0.87109375,-0.21972656,-0.08105469,-55.4375,46.21875,8.25
285,1697617365,-0.9814453,-0.16699219,-0.06347656,-18.15625,52.0625,19.15625
286,1697617405,-0.9873047,-0.18652344,-0.0087890625,-33.65625,52.1875,18.1875
287,1697617445,-0.98828125,-0.3125,-0.1328125,-15.46875,21.875,26.375
288,1697617485,-1.2207031,-0.37304688,-0.22070312,-11.875,6.65625,0.5
289,1697617525,-1.3251953,-0.049804688,0.19628906,-20.65625,-16.78125,-17.8125
290,1697617565,-1.4482422,-0.59277344,0.2548828,-17.1875,-68.96875,-11.90625
291,1697617605,-1.4023438,-0.095703125,0.21777344,30.4375,-170.03125,-24.40625
292,1697617645,-1.1806641,0.43652344,-0.099609375,31.28125,-209.9375,-18.84375
293,1697617685,-1.3818359,-0.2919922,-0.515625,-62.75,-155.125,-13.90625
294,1697617725,-1.1943359,-0.5029297,-0.3017578,76.15625,-75.96875,-59.3125
295,1697617765,-1.0976562,-0.2998047,-0.14355469,145.3125,-87.75,-79.53125
296,1697617805,-0.7763672,0.022460938,-0.14160156,182.34375,-79.21875,-62.75
297,1697617845,-0.53515625,0.060546875,-0.037109375,115.21875,-47.34375,-43.4375
298,1697617885,-0.5390625,0.0048828125,-0.099609375,85.5,3.25,-29.09375
299,1697617925,-0.48535156,0.09472656,-0.0859375,74.9375,50.59375,-11.90625
300,1697617965,-0.36523438,0.20410156,-0.015625,29.8125,94.90625,8.71875
301,1697618005,-1.15625,0.10644531,0.81933594,11.40625,133.4375,53.21875
302,1697618045,-2.0,-0.82128906,1.3798828,88.25,-50.40625,34.0625
303,1697618085,-0.36621094,0.5439453,0.21582031,51.1875,-55.90625,-51.21875
304,1697618125,-0.6386719,0.15234375,-0.24707031,-95.78125,66.21875,-16.90625
305,1697618165,-2.0,-1.0927734,0.5361328,-1.25,13.8125,19.96875
306,1697618205,0.27441406,0.45410156,-0.5878906,-10.59375,19.125,18.625
307,1697618245,-0.67285156,0.62890625,0.0068359375,-67.90625,84.71875,31.8125
308,1697618285,-1.7558594,-1.3046875,-0.3203125,-98.59375,82.34375,29.53125
309,1697618325,-0.83984375,-0.1015625,-0.17285156,15.40625,30.53125,26.1875
310,1697618365,-0.9716797,-0.09863281,-0.07324219,46.1875,43.28125,11.71875
311,1697618405,-0.95214844,0.020507812,0.001953125,14.1875,62.09375,-1.65625
312,1697618445,-0.9316406,0.016601562,-0.05859375,-17.1875,47.1875,8.4375
313,1697618485,-0.9511719,-0.13574219,-0.037109375,-13.5625,54.28125,6.0625
314,1697618525,-0.88964844,-0.12597656,-0.15234375,-6.375,54.875,12.53125
315,1697618565,-0.9765625,-0.051757812,-0.0859375,-16.625,58.375,15.8125
316,1697618605,-1.0146484,-0.11230469,-0.03515625,-16.3125,57.9375,24.3125
317,1697618645,-1.0263672,-0.32910156,-0.10644531,-8.75,35.46875,25.9375
318,1697618685,-1.1904297,-0.2890625,-0.16601562,11.09375,6.0,11.46875
319,1697618725,-1.2763672,-0.13964844,0.24121094,2.59375,-11.9375,-6.40625
320,1697618765,-1.4003906,-0.7050781,0.109375,-10.40625,-72.5,-4.625
321,1697618805,-1.2900391,-0.09863281,0.13574219,38.0,-147.4375,-22.03125
322,1697618845,-1.0097656,0.30859375,-0.06933594,49.59375,-182.65625,-18.125
323,1697618885,-1.3769531,-0.19824219,-0.26660156,-14.78125,-155.03125,-15.0
324,1697618925,-1.1875,-0.5341797,-0.2763672,54.4375,-88.1875,-56.875
325,1697618965,-1.1396484,-0.39453125,-0.30664062,140.40625,-66.15625,-85.375
326,1697619005,-0.85546875,-0.1015625,-0.12988281,207.5625,-68.03125,-79.40625
327,1697619045,-0.6796875,0.051757812,-0.09472656,148.34375,-33.6875,-68.90625
328,1697619085,-0.6621094,-0.03125,-0.11035156,118.5625,5.0625,-56.9375
329,1697619125,-0.5673828,0.021484375,-0.18847656,126.625,40.1875,-39.78125
330,1697619165,-0.5498047,0.20507812,-0.09667969,80.96875,73.0,-12.75
331,1697619205,-0.9316406,0.27148438,0.21484375,24.03125,92.78125,28.25
332,1697619245,-1.953125,-0.37890625,1.2558594,92.3125,22.84375,47.375
333,1697619285,-1.0175781,-0.09375,0.64941406,96.0625,-69.09375,-35.53125
334,1697619325,-0.18457031,0.041992188,0.047851562,-9.84375,26.5625,-68.59375
335,1697619365,-1.8105469,-0.42578125,-0.34570312,-48.375,99.0625,25.8125
336,1697619405,-1.7705078,-0.6152344,0.60546875,103.4375,-57.65625,-8.84375
337,1697619445,0.29785156,1.1015625,-0.5996094,-65.8125,89.5,27.53125
338,1697619485,-1.0732422,0.0029296875,-0.009765625,-79.375,72.34375,64.40625
339,1697619525,-1.3818359,-1.1552734,-0.11035156,-54.34375,44.9375,39.0625
340,1697619565,-0.87890625,-0.07910156,-0.2109375,42.59375,23.4375,18.5
341,1697619605,-0.95996094,-0.08886719,-0.08886719,60.78125,49.4375,6.15625
342,1697619645,-0.9863281,0.15136719,-0.043945312,20.125,63.0625,5.4375
343,1697619685,-0.8808594,-0.0107421875,-0.111328125,-7.84375,61.78125,10.4375
344,1697619725,-0.9189453,-0.16796875,-0.16601562,-4.0,64.90625,7.6875
345,1697619765,-0.91503906,-0.14160156,-0.14257812,14.4375,62.28125,8.78125
346,1697619805,-0.96484375,-0.032226562,-0.14648438,1.8125,62.5625,8.1875
347,1697619845,-1.0449219,0.036132812,0.0078125,-19.6875,59.28125,16.125
348,1697619885,-1.0683594,-0.32617188,-0.044921875,-16.9375,35.40625,24.53125
349,1697619925,-1.1113281,-0.44335938,-0.26464844,15.78125,-1.8125,19.90625
350,1697619965,-1.2636719,-0.00390625,0.2265625,-0.875,3.5,-9.40625
351,1697620005,-1.3730469,-0.56933594,0.046875,1.0625,-51.125,5.25
352,1697620045,-1.3291016,-0.3125,0.19921875,29.65625,-116.1875,-20.375
353,1697620085,-1.0576172,0.25097656,-0.044921875,48.875,-165.75,-26.96875
354,1697620125,-1.2041016,-0.001953125,-0.2763672,22.5,-147.75,-23.0
355,1697620165,-1.3222656,-0.38867188,-0.3095703,10.84375,-97.46875,-63.09375
356,1697620205,-1.2539062,-0.3955078,-0.22265625,135.34375,-59.375,-90.8125
357,1697620245,-0.9951172,-0.016601562,-0.203125,163.5625,-85.625,-84.65625
358,1697620285,-0.8066406,0.09375,-0.099609375,133.03125,-70.53125,-73.3125
359,1697620325,-0.6376953,-0.06738281,-0.0078125,132.84375,-21.34375,-47.71875
360,1697620365,-0.48632812,0.038085938,-0.10449219,139.5,22.53125,-22.34375
361,1697620405,-0.41308594,0.13183594,-0.068359375,87.4375,53.96875,3.53125
362,1697620445,-0.6669922,0.16308594,0.23339844,56.5,94.25,28.875
363,1697620485,-1.9814453,-0.4609375,1.1308594,101.0625,63.5,59.15625
364,1697620525,-1.1542969,0.18261719,0.6816406,96.96875,-71.9375,-20.3125
365,1697620565,-0.068359375,0.4951172,0.064453125,36.1875,-7.375,-61.09375
366,1697620605,-1.6708984,-0.1171875,-0.14550781,-116.90625,110.1875,17.875
367,1697620645,-1.5976562,-0.8544922,0.42382812,100.5,-24.65625,-14.53125
368,1697620685,-0.07324219,0.7265625,-0.265625,-94.375,53.53125,21.71875
369,1697620725,-1.0351562,0.0009765625,-0.18457031,-49.9375,87.15625,43.875
370,1697620765,-1.2910156,-0.8388672,-0.028320312,-39.15625,57.03125,21.5625
371,1697620805,-0.9765625,0.016601562,-0.19238281,-9.78125,42.125,12.15625
372,1697620845,-0.9394531,-0.08886719,-0.06640625,16.03125,66.0625,-4.09375
373,1697620885,-0.9863281,0.03515625,-0.08984375,-14.0,70.4375,3.65625
374,1697620925,-0.88378906,-0.046875,-0.103515625,-30.125,61.15625,7.75
375,1697620965,-0.9355469,-0.16210938,-0.11621094,-20.03125,68.0,3.46875
376,1697621005,-0.9326172,-0.11621094,-0.13476562,-18.625,58.375,7.21875
377,1697621045,-0.98828125,-0.005859375,-0.044921875,-15.84375,59.59375,11.65625
378,1697621085,-1.0507812,-0.13671875,-0.01953125,-41.65625,49.28125,21.125
379,1697621125,-1.0810547,-0.38867188,-0.14941406,-19.84375,24.1875,22.90625
380,1697621165,-1.1904297,-0.23730469,-0.08300781,5.65625,-1.28125,3.53125
381,1697621205,-1.3730469,-0.24902344,0.16015625,-2.40625,-23.625,-4.28125
382,1697621245,-1.4296875,-0.6191406,0.18554688,9.6875,-87.75,-8.65625
383,1697621285,-1.2226562,0.03515625,0.11621094,31.78125,-161.625,-13.46875
384,1697621325,-1.0283203,0.2109375,-0.044921875,54.4375,-185.0625,-3.21875
385,1697621365,-1.3339844,-0.41503906,-0.40429688,-9.59375,-149.21875,-23.0625
386,1697621405,-1.1552734,-0.5800781,-0.2578125,42.59375,-71.875,-69.09375
387,1697621445,-1.1025391,-0.37402344,-0.29296875,143.40625,-54.0,-89.03125
388,1697621485,-0.9140625,-0.057617188,-0.10449219,195.71875,-58.875,-82.5625
389,1697621525,-0.75390625,0.053710938,-0.07910156,137.84375,-23.25,-69.34375
390,1697621565,-0.6923828,0.016601562,-0.10449219,128.59375,12.40625,-49.1875
391,1697621605,-0.6074219,0.095703125,-0.15917969,117.71875,42.96875,-28.625
392,1697621645,-0.5810547,0.2265625,-0.068359375,74.9375,62.3125,-1.71875
393,1697621685,-0.96875,0.11328125,0.26464844,57.0,84.125,40.03125
394,1697621725,-1.9121094,-0.5654297,1.3486328,107.9375,3.3125,30.8125
395,1697621765,-0.9472656,0.07519531,0.4892578,82.5,-35.03125,-32.53125
396,1697621805,-0.22753906,0.020507812,0.001953125,28.59375,26.0,-61.34375
397,1697621845,-1.9277344,-0.265625,-0.328125,-80.59375,89.5,8.5625
398,1697621885,-1.7089844,-0.30273438,0.7001953,111.90625,-51.125,-5.125
399,1697621925,0.02734375,0.7236328,-0.55371094,-23.21875,57.875,32.46875
400,1697621965,-0.9248047,-0.07324219,-0.16796875,-93.78125,80.28125,43.46875
401,1697622005,-1.5371094,-1.0341797,-0.16113281,-27.0625,58.25,24.71875
402,1697622045,-0.8876953,-0.06640625,-0.09472656,46.71875,21.0,27.09375
403,1697622085,-0.9550781,-0.14257812,-0.08203125,69.4375,45.375,7.8125
404,1697622125,-1.0634766,0.06640625,-0.083984375,17.75,58.71875,-3.15625
405,1697622165,-0.83984375,-0.013671875,-0.12890625,4.375,44.6875,8.0
406,1697622205,-0.8466797,-0.23046875,-0.08496094,23.21875,58.0625,8.78125
407,1697622245,-0.9765625,-0.068359375,-0.111328125,23.40625,59.8125,3.46875
408,1697622285,-0.93652344,-0.0029296875,-0.12792969,4.25,66.78125,9.40625
409,1697622325,-1.0195312,0.0126953125,-0.028320312,-5.9375,58.59375,21.6875
410,1697622365,-1.1308594,-0.22851562,0.078125,-10.21875,43.34375,22.59375
411,1697622405,-1.0820312,-0.57714844,-0.3017578,35.0625,5.5,20.28125
412,1697622445,-1.2089844,0.111328125,0.23828125,7.5,1.78125,-13.78125
413,1697622485,-1.3984375,-0.43359375,0.18164062,6.25,-48.625,8.3125
414,1697622525,-1.3554688,-0.5449219,0.15820312,19.875,-122.4375,-7.625
415,1697622565,-1.1298828,0.19042969,-0.021484375,62.28125,-189.3125,-21.78125
416,1697622605,-1.0878906,0.07910156,-0.19335938,42.34375,-157.46875,-14.65625
417,1697622645,-1.3173828,-0.5488281,-0.38476562,19.03125,-107.15625,-48.75
418,1697622685,-1.1972656,-0.6669922,-0.2685547,117.59375,-65.90625,-89.03125
419,1697622725,-1.0097656,-0.12597656,-0.26660156,181.3125,-76.59375,-92.21875
420,1697622765,-0.8486328,-0.030273438,-0.10058594,187.53125,-56.1875,-84.46875
421,1697622805,-0.6767578,-0.078125,-0.013671875,148.96875,-2.84375,-67.5
422,1697622845,-0.6279297,-0.032226562,-0.16308594,168.9375,25.71875,-51.25
423,1697622885,-0.54589844,0.103515625,-0.12988281,104.65625,54.34375,-30.375
424,1697622925,-0.6455078,0.22363281,0.03515625,47.9375,86.1875,1.96875
425,1697622965,-1.3457031,-0.08105469,0.43847656,58.15625,96.5,36.375
426,1697623005,-1.5253906,-0.09863281,0.9941406,132.25,13.25,21.3125
427,1697623045,-0.81640625,-0.06542969,0.33203125,58.21875,-8.90625,-15.375
428,1697623085,-0.8251953,-0.3203125,-0.041992188,-11.125,52.6875,-53.875
429,1697623125,-1.5878906,-0.41503906,0.059570312,-32.84375,62.5625,1.53125
430,1697623165,-1.234375,-0.091796875,0.32714844,108.625,-26.53125,-8.59375
431,1697623205,-0.02734375,0.7519531,-0.5595703,-83.34375,99.75,45.0625
432,1697623245,-1.4580078,-0.47753906,-0.2578125,-29.8125,76.71875,46.21875
433,1697623285,-1.1113281,-0.5595703,-0.022460938,34.53125,28.75,32.78125
434,1697623325,-0.9794922,-0.13574219,-0.18554688,72.71875,36.375,16.5
435,1697623365,-0.9873047,-0.064453125,-0.080078125,64.625,46.9375,1.96875
436,1697623405,-0.98535156,0.032226562,-0.052734375,35.375,45.59375,3.375
437,1697623445,-0.9472656,-0.111328125,-0.025390625,36.0625,44.125,11.0
438,1697623485,-0.9326172,-0.05859375,-0.11230469,29.09375,56.59375,6.96875
439,1697623525,-0.8935547,0.0029296875,-0.11035156,16.59375,54.625,13.6875
440,1697623565,-0.9560547,-0.083984375,-0.109375,3.8125,52.8125,18.0625
441,1697623605,-1.0761719,-0.20507812,-0.061523438,7.5625,55.0625,20.4375
442,1697623645,-1.0976562,-0.36328125,-0.10546875,29.28125,14.28125,22.40625
443,1697623685,-1.2255859,-0.091796875,-0.055664062,27.03125,-0.78125,-2.5625
444,1697623725,-1.4169922,-0.25195312,0.21582031,28.40625,-26.59375,4.03125
445,1697623765,-1.3701172,-0.55859375,0.20019531,18.65625,-110.65625,-0.96875
446,1697623805,-1.1777344,0.080078125,0.10839844,66.5625,-200.78125,-4.28125
447,1697623845,-0.9316406,0.13085938,-0.14257812,73.90625,-175.21875,-1.15625
448,1697623885,-1.3818359,-0.55566406,-0.48535156,8.875,-132.6875,-28.625
449,1697623925,-1.1787109,-0.6015625,-0.23339844,119.71875,-58.28125,-82.625
450,1697623965,-1.1064453,-0.13964844,-0.18554688,168.5625,-47.71875,-97.78125
451,1697624005,-0.89160156,0.026367188,-0.02734375,175.34375,-52.46875,-80.375
452,1697624045,-0.7597656,-0.040039062,-0.00390625,114.34375,-8.78125,-68.15625
453,1697624085,-0.7080078,0.001953125,-0.13183594,139.4375,25.03125,-47.84375
454,1697624125,-0.6191406,0.15332031,-0.18554688,116.5,45.84375,-25.03125
455,1697624165,-0.5957031,0.37695312,-0.021484375,41.46875,62.28125,-0.90625
456,1697624205,-0.9970703,0.21972656,0.3330078,3.21875,87.09375,30.65625
457,1697624245,-2.0,-0.46289062,1.2753906,56.0625,8.875,26.625
458,1697624285,-0.85253906,-0.32617188,0.51464844,23.84375,-52.46875,-80.6875
459,1697624325,0.0390625,-0.13964844,-0.103515625,-42.9375,26.125,-54.8125
460,1697624365,-1.9130859,-0.48828125,-0.4794922,-13.8125,106.34375,32.71875
461,1697624405,-2.0,-0.39160156,1.0322266,-31.34375,-71.65625,-32.96875
462,1697624445,0.09082031,1.3056641,-0.5517578,-70.53125,68.1875,39.3125
463,1697624485,-0.8691406,-0.18847656,-0.3671875,-78.75,77.46875,78.4375
464,1697624525,-1.3779297,-0.9980469,-0.11425781,-112.5625,61.53125,26.4375
465,1697624565,-0.8984375,0.12011719,-0.11621094,7.65625,48.09375,17.21875
466,1697624605,-1.0175781,-0.056640625,-0.048828125,-17.40625,42.84375,19.28125
467,1697624645,-0.9511719,-0.07910156,-0.07519531,-47.5625,45.46875,6.40625
468,1697624685,-0.9550781,-0.2783203,-0.15820312,-30.46875,40.28125,3.4375
469,1697624725,-0.88671875,-0.12207031,-0.109375,-14.84375,41.03125,0.125
470,1697624765,-0.92285156,0.017578125,-0.09765625,-20.90625,41.21875,5.5625
471,1697624805,-1.0146484,-0.061523438,-0.10253906,-38.28125,47.875,16.90625
472,1697624845,-0.97558594,-0.140625,-0.015625,-36.28125,41.9375,19.59375
473,1697624885,-0.98046875,-0.5,-0.19042969,-21.625,17.65625,27.34375
474,1697624925,-1.1816406,-0.44335938,-0.15527344,-22.375,2.5625,-7.6875
475,1697624965,-1.3310547,0.115234375,0.20410156,-51.09375,-19.53125,-20.5
476,1697625005,-1.3916016,-0.39648438,0.15039062,-43.28125,-79.9375,-9.9375
477,1697625045,-1.3681641,-0.041992188,0.07714844,4.75,-136.46875,-31.1875
478,1697625085,-1.1601562,0.38085938,-0.14257812,-16.6875,-168.8125,-44.375
479,1697625125,-1.2021484,0.23730469,-0.2890625,-70.875,-129.4375,-44.84375
480,1697625165,-1.1855469,-0.2548828,-0.22265625,2.96875,-76.53125,-60.78125
481,1697625205,-0.96777344,-0.07519531,-0.0703125,44.84375,-70.375,-67.0
482,1697625245,-0.77734375,-0.068359375,-0.12890625,93.53125,-60.59375,-67.25
483,1697625285,-0.5449219,0.025390625,-0.018554688,84.28125,-33.6875,-46.5
484,1697625325,-0.5732422,0.08105469,0.0029296875,42.65625,18.0625,-19.96875
485,1697625365,-0.61328125,0.099609375,-0.025390625,8.03125,46.6875,-8.53125
486,1697625405,-0.6484375,0.09277344,0.0048828125,-31.21875,73.1875,5.1875
487,1697625445,-1.0371094,-0.13769531,0.5957031,-75.65625,117.375,18.25
488,1697625485,-2.0,-1.1914062,1.3300781,-45.8125,-29.21875,-1.28125
489,1697625525,-0.6269531,-0.07421875,0.35253906,15.84375,-78.65625,-56.5
490,1697625565,-0.6044922,0.5410156,-0.38964844,16.15625,17.96875,12.34375
491,1697625605,-2.0,-0.41503906,0.8203125,-50.375,42.78125,35.28125
492,1697625645,0.19140625,0.34570312,-0.51464844,-171.28125,23.6875,-25.3125
493,1697625685,-0.58984375,0.70214844,-0.34472656,-88.15625,79.25,43.09375
494,1697625725,-1.5654297,-1.9257812,-0.546875,-154.0625,86.4375,16.53125
495,1697625765,-0.9863281,0.2607422,-0.09667969,-30.71875,29.1875,3.84375
496,1697625805,-0.84277344,0.21875,-0.17089844,-85.28125,61.03125,18.0625
497,1697625845,-0.9941406,-0.33984375,-0.2421875,-90.59375,61.03125,17.40625
498,1697625885,-0.9433594,-0.30566406,-0.02734375,-94.0,50.25,-3.03125
499,1697625925,-0.9355469,-0.24804688,-0.0009765625,-80.90625,37.59375,-7.9375
500,1697625965,-0.9609375,-0.18066406,-0.009765625,-59.09375,36.03125,4.21875
501,1697626005,-0.9892578,-0.29589844,-0.044921875,-54.71875,24.1875,14.53125
502,1697626045,-0.9472656,-0.4169922,-0.13476562,-40.84375,17.34375,5.0
503,1697626085,-1.1015625,-0.29296875,-0.2685547,-26.28125,3.90625,-6.34375
504,1697626125,-1.21875,0.3671875,0.15136719,-93.96875,-3.03125,-33.875
505,1697626165,-1.3730469,-0.35742188,0.06542969,-61.96875,-39.34375,-2.125
506,1697626205,-1.4296875,-0.5488281,0.09863281,-61.25,-92.6875,-30.5
507,1697626245,-1.3056641,0.20214844,0.15234375,-8.625,-189.375,-38.5625
508,1697626285,-1.3046875,0.55859375,-0.234375,-20.90625,-198.09375,-18.3125
509,1697626325,-1.3095703,-0.18652344,-0.41601562,-106.34375,-128.34375,-16.15625
510,1697626365,-1.2236328,-0.36523438,-0.17480469,21.09375,-96.84375,-49.125
511,1697626405,-0.9785156,-0.15234375,-0.115234375,54.71875,-100.5,-44.6875
512,1697626445,-0.6777344,0.0009765625,-0.08105469,73.40625,-89.28125,-22.8125
513,1697626485,-0.5175781,0.017578125,-0.001953125,51.5,-52.53125,-0.3125
514,1697626525,-0.5234375,-0.03515625,-0.018554688,46.90625,-3.78125,17.71875
515,1697626565,-0.43066406,0.018554688,0.0703125,28.1875,52.4375,23.5
516,1697626605,-0.5439453,0.09667969,0.19824219,-23.21875,108.96875,30.59375
517,1697626645,-1.4765625,-0.13183594,1.0966797,-13.75,102.375,38.40625
518,1697626685,-1.8144531,-0.7285156,1.0009766,0.46875,-69.8125,-25.75
519,1697626725,-0.16113281,0.48632812,0.20800781,92.875,-14.8125,-44.78125
520,1697626765,-1.6425781,0.27441406,-0.21777344,-107.9375,90.03125,22.59375
521,1697626805,-1.2519531,-0.69433594,0.15820312,-28.46875,4.84375,-49.0
522,1697626845,-0.4345703,0.8125,-0.24707031,-97.875,54.5625,31.75
523,1697626885,-1.1689453,-0.4267578,-0.3623047,-120.1875,97.71875,35.53125
524,1697626925,-1.0546875,-0.58203125,-0.15234375,-93.09375,62.21875,19.0625
525,1697626965,-0.90722656,0.119140625,-0.123046875,-46.15625,53.0,28.5
526,1697627005,-1.0478516,-0.23242188,-0.13476562,-52.5,64.09375,26.4375
527,1697627045,-0.9091797,-0.1953125,-0.061523438,-44.875,72.9375,12.59375
528,1697627085,-0.9501953,-0.18847656,-0.08105469,-49.75,60.4375,4.8125
529,1697627125,-0.91308594,-0.19042969,-0.053710938,-36.75,50.59375,1.78125
530,1697627165,-0.9589844,0.001953125,-0.022460938,-38.84375,49.09375,7.8125
531,1697627205,-0.9794922,-0.17773438,-0.041992188,-48.25,44.375,16.1875
532,1697627245,-1.0039062,-0.32226562,-0.14257812,-36.46875,28.6875,16.25
533,1697627285,-1.0888672,-0.4638672,-0.2861328,-14.5625,10.4375,8.90625
534,1697627325,-1.3681641,0.11621094,0.19238281,-40.375,3.6875,-24.53125
535,1697627365,-1.5126953,-0.56347656,0.06542969,-17.1875,-50.40625,-7.9375
536,1697627405,-1.3378906,-0.07128906,0.15332031,1.3125,-131.53125,-31.71875
537,1697627445,-1.1132812,0.5546875,-0.14648438,1.5625,-191.21875,-21.46875
538,1697627485,-1.2939453,0.01171875,-0.35253906,-54.65625,-163.6875,-8.65625
539,1697627525,-1.1806641,-0.3330078,-0.29101562,-23.75,-92.9375,-53.28125
540,1697627565,-1.1347656,-0.19238281,-0.09277344,102.6875,-89.90625,-65.0
541,1697627605,-0.8359375,0.00390625,-0.10058594,111.0,-84.53125,-57.6875
542,1697627645,-0.6220703,0.021484375,-0.08496094,81.78125,-55.40625,-42.90625
543,1697627685,-0.5996094,-0.0126953125,-0.07128906,59.3125,-20.8125,-23.0
544,1697627725,-0.4638672,0.041015625,-0.10253906,66.625,18.25,-3.46875
545,1697627765,-0.38867188,0.15039062,-0.020507812,47.09375,68.1875,16.90625
546,1697627805,-0.9013672,0.140625,0.5488281,16.09375,104.8125,36.0625
547,1697627845,-2.0,-0.81152344,1.7910156,14.875,-62.625,38.21875
548,1697627885,-0.46191406,0.296875,0.37402344,61.3125,-65.40625,-56.34375
549,1697627925,-0.4716797,0.26953125,-0.34179688,-66.96875,57.625,-1.65625
550,1697627965,-2.0,-0.6464844,0.8876953,-16.75,4.46875,8.1875
551,1697628005,0.08203125,0.54785156,-0.3828125,-120.75,35.03125,23.3125
552,1697628045,-0.82421875,0.23046875,-0.42089844,-121.53125,100.0,58.46875
553,1697628085,-1.3867188,-1.4257812,-0.22558594,-110.8125,96.09375,26.5
554,1697628125,-0.9873047,0.17285156,-0.24023438,14.125,52.6875,18.8125
555,1697628165,-0.8388672,-0.0009765625,-0.0078125,-22.0625,73.625,14.59375
556,1697628205,-0.95703125,-0.072265625,-0.05078125,-45.6875,79.96875,11.0
557,1697628245,-0.9609375,-0.15039062,-0.08203125,-59.96875,57.1875,6.90625
558,1697628285,-0.8300781,-0.17578125,-0.14453125,-23.8125,59.09375,10.125
559,1697628325,-1.0507812,-0.052734375,-0.005859375,-29.125,55.625,17.875
560,1697628365,-1.0283203,-0.13574219,-0.01171875,-39.09375,51.34375,19.34375
561,1697628405,-0.9765625,-0.44921875,-0.10839844,-29.5625,18.0625,22.78125
562,1697628445,-1.2753906,-0.4296875,-0.123046875,-19.6875,1.28125,-9.9375
563,1697628485,-1.3554688,-0.13769531,0.16015625,-19.25,-25.75,-21.0625
564,1697628525,-1.5292969,-0.49609375,0.23339844,-10.15625,-99.0,-16.0625
565,1697628565,-1.2988281,0.31835938,0.17285156,9.0625,-184.375,-28.375
566,1697628605,-1.2900391,0.3466797,-0.35351562,7.59375,-179.0,-24.21875
567,1697628645,-1.3193359,-0.31347656,-0.35253906,-46.90625,-127.96875,-37.65625
568,1697628685,-1.2470703,-0.37695312,-0.12207031,83.0,-77.125,-68.78125
569,1697628725,-0.9902344,-0.021484375,-0.17675781,132.96875,-91.53125,-73.78125
570,1697628765,-0.6640625,0.049804688,-0.13574219,120.59375,-65.96875,-59.6875
571,1697628805,-0.51464844,0.015625,-0.09765625,79.6875,-27.28125,-41.25
572,1697628845,-0.5234375,0.06738281,-0.10644531,68.71875,22.03125,-18.375
573,1697628885,-0.3779297,0.171875,-0.076171875,53.875,65.75,4.34375
574,1697628925,-0.66015625,0.15820312,0.16113281,21.09375,104.4375,32.90625
575,1697628965,-2.0,-0.3798828,1.640625,35.8125,29.125,53.40625
576,1697629005,-0.8964844,-0.056640625,0.6015625,42.9375,-89.96875,-70.0
577,1697629045,0.083984375,0.52246094,0.09277344,-25.34375,38.71875,-53.46875
578,1697629085,-2.0,-0.26953125,-0.15917969,-101.53125,66.34375,46.75
579,1697629125,-0.13867188,-0.21289062,-0.55371094,-34.3125,1.40625,-32.53125
580,1697629165,-0.52734375,0.9345703,-0.14941406,-123.3125,95.21875,33.03125
581,1697629205,-1.7832031,-1.4697266,-0.49609375,-134.65625,118.53125,31.75
582,1697629245,-0.8847656,-0.08496094,-0.17675781,-21.875,55.5,22.59375
583,1697629285,-0.8330078,0.046875,-0.09667969,6.9375,57.5,17.03125
584,1697629325,-0.9658203,-0.12890625,-0.034179688,-31.625,78.0625,8.0625
585,1697629365,-0.953125,-0.109375,-0.036132812,-62.34375,60.0,5.25
586,1697629405,-0.9355469,-0.2265625,-0.12890625,-46.65625,52.9375,4.28125
587,1697629445,-0.8876953,-0.07910156,-0.08984375,-38.15625,51.15625,9.53125
588,1697629485,-1.0332031,-0.17089844,-0.07324219,-32.75,55.5,20.875
589,1697629525,-1.0117188,-0.2919922,0.0029296875,-27.96875,47.625,19.96875
590,1697629565,-1.078125,-0.45214844,-0.14648438,-13.875,19.90625,19.15625
591,1697629605,-1.3085938,0.034179688,0.08105469,-22.1875,2.75,-12.1875
592,1697629645,-1.4111328,-0.40722656,0.19433594,-15.59375,-49.5,-5.125
593,1697629685,-1.4238281,-0.32421875,0.31445312,-10.46875,-141.09375,-24.15625
594,1697629725,-1.1113281,0.2783203,-0.111328125,10.84375,-212.28125,-19.03125
595,1697629765,-1.3398438,0.1328125,-0.50390625,-18.09375,-165.5625,-14.09375
596,1697629805,-1.2529297,-0.609375,-0.24609375,-12.53125,-89.53125,-59.03125
597,1697629845,-1.1669922,-0.2998047,-0.13574219,123.21875,-77.6875,-75.1875
598,1697629885,-0.8720703,-0.005859375,-0.15234375,170.3125,-79.75,-67.3125
599,1697629925,-0.5957031,0.09375,-0.091796875,120.59375,-53.625,-50.71875
600,1697629965,-0.53027344,0.0029296875,-0.087890625,80.0625,-8.46875,-31.71875
601,1697630005,-0.546875,0.07128906,-0.13378906,73.53125,31.6875,-16.34375
602,1697630045,-0.39746094,0.22265625,-0.10058594,36.34375,68.4375,2.15625
603,1697630085,-0.8935547,0.15234375,0.34765625,-10.15625,97.53125,38.28125
604,1697630125,-2.0,-0.79003906,1.7412109,33.5,-21.15625,42.65625
605,1697630165,-0.5996094,0.06933594,0.4794922,18.40625,-68.53125,-75.9375
606,1697630205,-0.053710938,0.140625,-0.1640625,-62.28125,48.09375,-39.125
607,1697630245,-2.0,-0.8964844,-0.125,-76.125,92.78125,35.84375
608,1697630285,0.26757812,0.9501953,-0.47460938,12.0,-24.34375,-7.75
609,1697630325,-0.23828125,0.8964844,-0.2265625,-129.84375,95.21875,38.875
610,1697630365,-2.0,-1.8955078,-0.6582031,-174.09375,133.375,32.15625
611,1697630405,-0.91015625,0.044921875,-0.18066406,-10.53125,47.875,22.78125
612,1697630445,-0.8027344,-0.00390625,-0.07128906,1.0625,65.1875,19.78125
613,1697630485,-0.9794922,-0.107421875,-0.083984375,-30.53125,71.78125,5.3125
614,1697630525,-1.0292969,-0.06542969,-0.017578125,-74.96875,53.78125,0.90625
615,1697630565,-0.8574219,-0.21679688,-0.14355469,-53.625,47.5625,9.15625
616,1697630605,-0.92089844,-0.18457031,-0.11035156,-32.5,50.84375,15.5
617,1697630645,-1.0449219,-0.1484375,-0.123046875,-20.78125,61.65625,23.8125
618,1697630685,-0.9921875,-0.20703125,-0.021484375,-13.875,47.125,26.4375
619,1697630725,-1.0947266,-0.40039062,-0.29785156,-19.90625,15.875,19.15625
620,1697630765,-1.2539062,0.1328125,0.20410156,-35.53125,-1.46875,-21.46875
621,1697630805,-1.4179688,-0.5371094,0.19238281,-21.375,-51.375,-7.6875
622,1697630845,-1.4443359,-0.265625,0.328125,-5.40625,-153.84375,-25.1875
623,1697630885,-1.1689453,0.4453125,-0.25976562,-1.65625,-221.5,-22.875
624,1697630925,-1.3017578,-0.055664062,-0.5048828,-42.8125,-157.34375,-10.96875
625,1697630965,-1.1582031,-0.5625,-0.24902344,24.875,-83.71875,-57.5
626,1697631005,-1.1660156,-0.15234375,-0.13085938,123.21875,-87.875,-64.15625
627,1697631045,-0.86035156,0.053710938,-0.13769531,155.4375,-82.5,-63.65625
628,1697631085,-0.59277344,0.04296875,-0.07421875,98.71875,-54.1875,-43.40625
629,1697631125,-0.5888672,-0.05078125,-0.09667969,80.65625,-11.71875,-23.4375
630,1697631165,-0.53808594,0.07128906,-0.15234375,79.15625,24.59375,-7.125
631,1697631205,-0.3701172,0.22558594,-0.09277344,43.0625,64.78125,10.5
632,1697631245,-0.8417969,0.15527344,0.49609375,13.34375,108.15625,37.71875
633,1697631285,-2.0,-0.7138672,1.7294922,28.125,-12.3125,46.34375
634,1697631325,-0.59277344,0.20605469,0.34472656,44.0,-80.0625,-60.59375
635,1697631365,-0.2421875,0.1640625,-0.15136719,-55.6875,49.09375,-33.3125
636,1697631405,-2.0,-0.39648438,0.58203125,-56.25,26.8125,26.875
637,1697631445,0.07519531,0.29101562,-0.4951172,-51.03125,11.5,2.5625
638,1697631485,-0.65722656,0.4765625,-0.3671875,-101.78125,90.40625,39.125
639,1697631525,-1.6494141,-1.6113281,-0.3388672,-86.4375,92.46875,24.78125
640,1697631565,-0.9736328,0.15039062,-0.21875,10.34375,48.46875,10.5625
641,1697631605,-0.83984375,0.046875,-0.07519531,-8.125,61.53125,6.34375
642,1697631645,-0.9140625,-0.033203125,-0.068359375,-40.65625,78.5,6.09375
643,1697631685,-0.97265625,-0.13867188,-0.13476562,-59.71875,62.625,7.5
644,1697631725,-0.91015625,-0.19824219,-0.123046875,-31.8125,61.71875,5.75
645,1697631765,-0.90527344,-0.051757812,-0.0859375,-25.15625,59.75,13.6875
646,1697631805,-1.0615234,-0.13378906,-0.048828125,-32.5,59.03125,20.28125
647,1697631845,-0.9951172,-0.33496094,-0.032226562,-20.65625,44.03125,23.0
648,1697631885,-1.0820312,-0.54785156,-0.36621094,-6.625,14.0,17.46875
649,1697631925,-1.2236328,0.17285156,0.20996094,-18.03125,5.6875,-20.0625
650,1697631965,-1.3671875,-0.41796875,0.15136719,-26.03125,-35.5,2.75
651,1697632005,-1.3876953,-0.4921875,0.111328125,3.65625,-111.6875,-15.0625
652,1697632045,-1.1601562,0.3173828,-0.038085938,32.875,-193.90625,-28.8125
653,1697632085,-1.3056641,0.24511719,-0.19921875,9.4375,-178.09375,-13.84375
654,1697632125,-1.3476562,-0.49414062,-0.30664062,-25.28125,-111.25,-41.625
655,1697632165,-1.2021484,-0.36816406,-0.27246094,88.84375,-70.4375,-77.625
656,1697632205,-1.0273438,-0.05078125,-0.17382812,160.9375,-79.03125,-72.875
657,1697632245,-0.6933594,0.06542969,-0.05859375,152.5625,-62.125,-60.78125
658,1697632285,-0.5439453,0.025390625,-0.026367188,94.09375,-20.75,-42.71875
659,1697632325,-0.5673828,0.0625,-0.1328125,84.21875,21.0,-27.03125
660,1697632365,-0.47070312,0.16308594,-0.13183594,56.3125,49.09375,-9.46875
661,1697632405,-0.6142578,0.25683594,0.068359375,2.96875,84.1875,17.03125
662,1697632445,-1.5498047,-0.1484375,1.1113281,0.78125,82.59375,40.09375
663,1697632485,-1.6669922,-0.5878906,1.03125,35.5,-84.03125,-44.90625
664,1697632525,-0.038085938,0.37109375,0.2607422,10.21875,4.28125,-79.46875
665,1697632565,-1.4042969,-0.2578125,-0.28808594,-84.6875,79.25,17.15625
666,1697632605,-2.0,-1.3310547,0.8330078,-42.75,-66.21875,-59.6875
667,1697632645,0.52441406,1.6572266,-0.58691406,-81.0,77.03125,36.0625
668,1697632685,-1.5166016,-0.55566406,-0.50683594,-167.125,97.125,100.90625
669,1697632725,-1.2041016,-0.8515625,0.016601562,-133.875,58.71875,19.09375
670,1697632765,-0.87109375,0.19238281,-0.19042969,23.71875,46.34375,19.46875
671,1697632805,-0.86816406,-0.047851562,-0.11816406,-13.9375,61.21875,20.5625
672,1697632845,-0.97265625,0.07324219,-0.052734375,-72.03125,79.125,17.46875
673,1697632885,-0.9716797,-0.21777344,-0.15527344,-89.25,56.34375,17.28125
674,1697632925,-0.8544922,-0.25390625,-0.20703125,-58.5,51.09375,14.96875
675,1697632965,-0.9433594,-0.17480469,-0.043945312,-31.40625,60.375,21.71875
676,1697633005,-1.0166016,-0.21777344,0.020507812,-28.9375,55.4375,23.8125
677,1697633045,-1.0625,-0.3330078,-0.041992188,-28.71875,34.75,23.0625
678,1697633085,-1.2333984,-0.32128906,-0.13964844,-31.09375,7.34375,1.90625
679,1697633125,-1.3134766,-0.1328125,0.12890625,-30.59375,-15.4375,-12.3125
680,1697633165,-1.4414062,-0.5234375,0.13964844,-19.0625,-58.9375,-14.59375
681,1697633205,-1.2744141,0.0029296875,0.064453125,27.375,-154.96875,-29.0
682,1697633245,-1.2441406,0.5078125,-0.10253906,13.90625,-188.15625,-19.09375
683,1697633285,-1.3144531,-0.26171875,-0.40039062,-81.5625,-150.375,-17.5
684,1697633325,-1.2128906,-0.2529297,-0.28027344,5.84375,-93.625,-57.78125
685,1697633365,-1.1533203,-0.12792969,-0.22265625,133.53125,-94.28125,-61.46875
686,1697633405,-0.83691406,-0.034179688,-0.12207031,149.75,-87.03125,-61.03125
687,1697633445,-0.6044922,0.045898438,-0.0703125,109.0,-47.0,-41.0
688,1697633485,-0.63964844,0.017578125,-0.15625,73.03125,0.0625,-23.0625
689,1697633525,-0.50878906,0.07324219,-0.18359375,63.15625,28.28125,-10.75
690,1697633565,-0.38378906,0.15722656,-0.09277344,41.90625,66.125,7.5
691,1697633605,-0.8466797,0.06640625,0.37402344,21.28125,112.375,30.8125
692,1697633645,-2.0,-0.81152344,1.7451172,23.65625,-48.375,33.9375
693,1697633685,-0.69140625,0.20019531,0.41503906,37.15625,-68.34375,-52.4375
694,1697633725,-0.18359375,0.24902344,-0.09082031,-31.40625,52.0,-45.78125
695,1697633765,-2.0,-0.68652344,-0.022460938,-101.46875,86.1875,33.40625
696,1697633805,0.23046875,0.4560547,-0.46191406,-3.875,-27.09375,-27.78125
697,1697633845,-0.38476562,0.8066406,-0.0703125,-108.96875,82.03125,36.03125
698,1697633885,-1.8867188,-1.7412109,-0.5214844,-135.21875,102.0,16.375
699,1697633925,-0.85546875,0.0234375,-0.16796875,-23.15625,42.3125,17.875
700,1697633965,-0.8496094,0.015625,-0.12109375,20.4375,51.40625,26.125
701,1697634005,-0.98046875,-0.09375,-0.13574219,-5.5,73.5625,17.78125
702,1697634045,-0.9658203,-0.0126953125,-0.09472656,-45.3125,72.71875,13.1875
703,1697634085,-0.87402344,-0.15136719,-0.14355469,-55.625,63.125,10.0
704,1697634125,-0.86035156,-0.1796875,-0.15136719,-50.625,63.0,13.75
705,1697634165,-1.0576172,-0.16308594,-0.078125,-26.5625,67.75,21.3125
706,1697634205,-1.0341797,-0.22753906,0.16015625,-24.25,52.5625,20.03125
707,1697634245,-1.078125,-0.4638672,-0.19433594,-17.65625,16.25,21.90625
708,1697634285,-1.3203125,-0.04296875,0.109375,-33.03125,-0.96875,-21.125
709,1697634325,-1.3769531,-0.48046875,0.125,-15.28125,-43.03125,-8.90625
710,1697634365,-1.4462891,-0.39941406,0.080078125,-2.78125,-122.125,-28.75
711,1697634405,-1.1005859,0.4453125,0.047851562,9.125,-195.59375,-31.0625
712,1697634445,-1.2421875,0.16015625,-0.3095703,-10.21875,-166.0,-14.21875
713,1697634485,-1.2265625,-0.55078125,-0.36621094,-6.6875,-90.9375,-51.09375
714,1697634525,-1.2539062,-0.32910156,-0.19238281,103.4375,-70.5,-75.6875
715,1697634565,-0.984375,-0.013671875,-0.14746094,147.6875,-82.4375,-70.4375
716,1697634605,-0.6582031,0.0625,-0.07714844,119.90625,-57.53125,-52.59375
717,1697634645,-0.5732422,-0.015625,-0.068359375,90.375,-12.8125,-35.46875
718,1697634685,-0.5488281,0.009765625,-0.10546875,86.71875,18.5,-22.53125
719,1697634725,-0.41796875,0.12207031,-0.09375,58.875,51.53125,-0.1875
720,1697634765,-0.6660156,0.15917969,0.125,26.96875,90.03125,28.625
721,1697634805,-1.7607422,-0.21386719,1.1113281,26.03125,77.90625,45.34375
722,1697634845,-1.4257812,-0.2578125,0.8339844,43.6875,-77.25,-42.46875
723,1697634885,-0.15722656,0.39453125,0.19824219,53.875,-3.65625,-73.1875
724,1697634925,-1.8701172,-0.37597656,-0.052734375,-123.875,86.3125,18.125
725,1697634965,-0.8642578,-0.37402344,-0.048828125,26.59375,-66.15625,-46.9375
726,1697635005,-0.14941406,1.1376953,-0.22851562,-62.09375,86.875,44.75
727,1697635045,-1.8378906,-0.8730469,-0.5019531,-143.6875,134.40625,41.8125
728,1697635085,-0.92089844,-0.359375,-0.13964844,-67.78125,54.40625,33.5
729,1697635125,-0.94140625,-0.029296875,-0.24804688,-15.15625,63.96875,19.15625
730,1697635165,-1.0058594,-0.08984375,-0.15625,-29.125,70.03125,6.15625
731,1697635205,-0.9013672,0.017578125,-0.06347656,-54.15625,68.0625,7.375
732,1697635245,-0.9794922,-0.27148438,-0.12792969,-56.59375,59.03125,12.9375
733,1697635285,-0.8847656,-0.20800781,-0.14648438,-30.59375,54.9375,5.3125
734,1697635325,-0.8925781,-0.064453125,0.0029296875,-23.15625,54.625,8.84375
735,1697635365,-1.0371094,-0.13085938,-0.0625,-31.75,48.78125,19.90625
736,1697635405,-1.0458984,-0.36328125,-0.045898438,-20.21875,41.75,19.96875
737,1697635445,-1.1835938,-0.3486328,-0.15820312,-5.40625,12.65625,9.15625
738,1697635485,-1.2402344,0.33007812,0.15136719,-30.90625,-7.8125,-17.75
739,1697635525,-1.4316406,-0.5078125,0.22753906,-9.53125,-57.25,3.46875
740,1697635565,-1.3857422,-0.29296875,0.20214844,2.25,-169.46875,-19.84375
741,1697635605,-1.1357422,0.26464844,-0.024414062,33.96875,-244.25,-14.71875
742,1697635645,-1.390625,-0.10839844,-0.59765625,-44.6875,-170.71875,-14.28125
743,1697635685,-1.2226562,-0.6347656,-0.3544922,15.375,-66.21875,-74.28125
744,1697635725,-1.1289062,-0.421875,-0.15527344,119.1875,-68.09375,-91.0
745,1697635765,-0.84765625,0.06640625,-0.06738281,202.96875,-82.3125,-69.03125
746,1697635805,-0.48242188,0.1015625,0.0009765625,122.28125,-31.78125,-48.03125
747,1697635845,-0.57128906,-0.0546875,-0.08300781,69.4375,6.40625,-31.90625
748,1697635885,-0.6386719,-0.018554688,-0.14746094,76.75,32.90625,-14.8125
749,1697635925,-0.5449219,0.25390625,-0.06640625,49.40625,65.25,4.875
750,1697635965,-0.86035156,0.2861328,0.2763672,-13.9375,81.375,30.28125
751,1697636005,-1.8320312,-0.56152344,1.1044922,-5.75,38.21875,38.59375
752,1697636045,-1.2490234,-0.35058594,0.74609375,34.34375,-61.15625,-46.4375
753,1697636085,-0.13085938,0.11816406,0.20117188,-12.03125,13.9375,-76.96875
754,1697636125,-1.7060547,-0.08886719,-0.24023438,-62.15625,92.0625,38.8125
755,1697636165,-1.7685547,-0.74121094,0.4111328,-4.53125,-63.21875,-38.625
756,1697636205,-0.0625,1.15625,-0.3486328,-99.25,80.34375,32.15625
757,1697636245,-1.4814453,-0.3935547,-0.45898438,-138.3125,122.875,62.1875
758,1697636285,-1.0019531,-0.90625,-0.23828125,-99.09375,72.65625,35.21875
759,1697636325,-0.9609375,0.02734375,-0.18066406,8.46875,64.71875,18.4375
