,timestamp,accel_x,accel_y,accel_z,gyro_x,gyro_y,gyro_z
0,1697605965,-1.3964844,0.46875,0.19726562,98.125,-46.65625,8.5
1,1697606005,-1.0820312,-0.021484375,0.16894531,56.75,-159.0625,18.125
2,1697606045,-1.3056641,0.09472656,-0.24609375,31.96875,-197.34375,-45.21875
3,1697606085,-1.1884766,0.62597656,-0.60058594,-16.0625,-154.75,-71.46875
4,1697606125,-0.92578125,0.7675781,-0.20214844,-181.03125,-58.0,-54.625
5,1697606165,-0.93066406,0.47753906,-0.044921875,-53.03125,-104.4375,-55.53125
6,1697606205,-0.9453125,0.18652344,-0.14355469,64.625,-160.40625,-20.9375
7,1697606245,-1.1396484,-0.068359375,-0.111328125,11.34375,-92.0,-37.40625
8,1697606285,-0.65625,0.48632812,0.078125,31.625,-72.34375,-29.90625
9,1697606325,-0.5214844,0.40429688,-0.024414062,73.25,-74.1875,-0.09375
10,1697606365,-0.48242188,0.25390625,-0.07128906,63.96875,-32.84375,13.125
11,1697606405,-0.5761719,0.11425781,-0.053710938,37.15625,19.21875,16.125
12,1697606445,-0.78222656,0.17382812,0.15136719,18.78125,64.25,20.03125
13,1697606485,-0.9589844,0.20996094,0.265625,-15.625,87.21875,17.03125
14,1697606525,-1.3046875,0.42382812,0.7753906,-42.3125,86.84375,11.96875
15,1697606565,-1.4970703,-0.0859375,0.7402344,25.375,16.59375,-4.5625
16,1697606605,-0.6201172,0.05859375,0.119140625,9.625,29.34375,-7.0625
17,1697606645,-1.0166016,0.4404297,-0.5625,-73.4375,83.46875,48.71875
18,1697606685,-1.984375,0.4140625,1.9960938,-19.65625,261.34375,-0.96875
19,1697606725,-0.42578125,0.546875,-0.7060547,-96.5,10.1875,-17.625
20,1697606765,-0.54003906,0.39453125,-0.3330078,-17.03125,-5.6875,16.75
21,1697606805,-0.9970703,0.35839844,-0.24804688,12.5,19.34375,32.1875
22,1697606845,-1.0546875,0.13085938,-0.32226562,187.125,6.09375,34.6875
23,1697606885,-0.87597656,0.29785156,-0.07128906,100.21875,95.875,0.875
24,1697606925,-0.9453125,0.02734375,-0.049804688,-107.25,10.78125,-12.375
25,1697606965,-0.96972656,0.09765625,-0.22558594,46.1875,9.75,-12.625
26,1697607005,-0.96875,0.3076172,-0.20019531,25.9375,14.9375,-4.3125
27,1697607045,-0.84765625,0.33984375,-0.2763672,-21.5625,27.09375,-5.40625
28,1697607085,-0.8300781,0.39453125,-0.24316406,-68.71875,53.28125,-2.96875
29,1697607125,-0.9042969,0.4345703,-0.19042969,-11.59375,68.03125,16.0
30,1697607165,-1.0185547,0.19824219,-0.11328125,24.78125,41.375,36.5
31,1697607205,-1.0517578,0.203125,-0.16601562,-0.84375,7.125,24.375
32,1697607245,-1.0400391,0.21582031,-0.31445312,-21.5,-4.53125,16.6875
33,1697607285,-0.9472656,0.22753906,-0.2109375,-11.71875,11.46875,15.21875
34,1697607325,-0.98535156,0.21191406,-0.024414062,6.65625,17.0625,10.5
35,1697607365,-1.2519531,0.13085938,-0.13183594,-2.03125,-3.90625,14.1875
36,1697607405,-1.4082031,0.3935547,0.032226562,50.65625,-40.84375,1.40625
37,1697607445,-0.9902344,0.3154297,0.09277344,78.78125,-160.15625,18.5
38,1697607485,-1.0429688,0.28222656,-0.07324219,31.5625,-198.75,-6.03125
39,1697607525,-0.9511719,0.40625,-0.390625,-34.84375,-155.59375,-49.5625
40,1697607565,-1.1181641,0.578125,-0.33984375,-137.625,-84.25,-70.65625
41,1697607605,-1.1689453,0.35546875,-0.15039062,-24.1875,-33.59375,-47.71875
42,1697607645,-1.0576172,0.14453125,-0.07714844,132.5625,-163.96875,-31.0625
43,1697607685,-0.8457031,0.24707031,-0.11621094,52.96875,-132.03125,-51.125
44,1697607725,-0.5576172,0.46777344,0.026367188,42.28125,-71.90625,-44.78125
45,1697607765,-0.50390625,0.56152344,-0.0048828125,34.0625,-23.5625,-30.6875
46,1697607805,-0.43554688,0.38085938,-0.06640625,31.71875,3.90625,10.15625
47,1697607845,-0.4404297,0.30859375,-0.048828125,25.375,44.46875,35.59375
48,1697607885,-0.7939453,0.20214844,0.13476562,-15.5625,101.59375,23.625
49,1697607925,-1.5253906,-0.13574219,0.70996094,-38.46875,122.96875,3.84375
50,1697607965,-1.625,-0.12207031,1.0078125,12.9375,10.1875,-20.75
51,1697608005,-0.71875,0.43359375,0.4482422,2.125,4.375,-7.1875
52,1697608045,-0.49023438,0.65527344,-0.14355469,12.875,58.75,25.84375
53,1697608085,-1.9316406,0.88378906,-0.79003906,-3.1875,14.5,63.5
54,1697608125,-1.2832031,0.08105469,1.2109375,-212.53125,171.96875,-54.90625
55,1697608165,-0.31835938,0.6191406,-0.70996094,-159.78125,81.28125,-1.09375
56,1697608205,-0.7265625,0.47753906,-0.22265625,-83.9375,12.9375,15.5625
57,1697608245,-1.2832031,0.12402344,-0.34179688,50.21875,54.84375,36.28125
58,1697608285,-0.9003906,-0.14746094,-0.2109375,220.09375,-8.125,40.28125
59,1697608325,-0.93359375,0.26660156,0.057617188,-25.6875,97.03125,3.25
60,1697608365,-1.0927734,0.29296875,-0.20019531,-71.34375,51.0,-28.78125
61,1697608405,-0.9189453,0.30371094,-0.18261719,-22.21875,41.65625,-25.4375
62,1697608445,-0.81152344,0.26757812,-0.25976562,23.8125,11.59375,-0.84375
63,1697608485,-0.8876953,0.18359375,-0.3017578,10.5625,19.09375,0.5625
64,1697608525,-0.9199219,0.26464844,-0.16894531,-31.75,51.625,-8.71875
65,1697608565,-0.9355469,0.41308594,-0.018554688,3.09375,63.9375,-1.03125
66,1697608605,-0.99902344,0.24023438,-0.057617188,-0.90625,38.6875,22.46875
67,1697608645,-0.984375,0.15917969,-0.17871094,-24.46875,15.0625,20.15625
68,1697608685,-1.0175781,0.11621094,-0.31835938,-18.75,-10.40625,19.46875
69,1697608725,-0.94628906,0.38085938,-0.3203125,-2.6875,7.4375,5.375
70,1697608765,-1.03125,0.41796875,0.024414062,-1.53125,50.03125,3.84375
71,1697608805,-1.3447266,0.15332031,-0.19042969,-39.75,-19.3125,21.1875
72,1697608845,-1.3642578,0.56347656,0.23046875,27.03125,-8.125,5.5
73,1697608885,-0.90527344,0.3544922,0.07421875,66.59375,-178.96875,48.90625
74,1697608925,-1.0908203,-0.103515625,-0.18164062,-58.96875,-174.40625,-3.71875
75,1697608965,-1.1201172,0.18847656,-0.5283203,-28.3125,-148.8125,-48.28125
76,1697609005,-1.0683594,0.46484375,-0.34472656,-133.0,-61.125,-58.09375
77,1697609045,-1.0996094,0.22753906,0.06933594,-79.65625,-47.75,-62.59375
78,1697609085,-0.90527344,0.3955078,-0.072265625,155.6875,-176.71875,-38.0
79,1697609125,-0.8261719,0.17285156,-0.16796875,59.3125,-108.15625,-60.21875
80,1697609165,-0.75,0.29882812,-0.052734375,41.0,-67.75,-64.5625
81,1697609205,-0.6220703,0.5,-0.022460938,77.3125,-47.0,-44.46875
82,1697609245,-0.46191406,0.4375,-0.02734375,63.84375,-13.4375,-10.25
83,1697609285,-0.4267578,0.44921875,-0.015625,26.84375,35.5,20.09375
84,1697609325,-0.61328125,0.29785156,0.001953125,-20.03125,115.59375,24.4375
85,1697609365,-1.2744141,0.234375,0.46289062,17.09375,134.875,37.1875
86,1697609405,-1.984375,-0.4794922,1.1933594,-40.53125,45.75,-30.03125
87,1697609445,-1.0234375,0.29003906,-0.08984375,-75.8125,7.125,-40.40625
88,1697609485,-0.84375,0.3515625,-0.29492188,-6.90625,23.71875,-15.78125
89,1697609525,-0.86328125,0.18554688,-0.19140625,13.0625,12.0,3.96875
90,1697609565,-0.89941406,0.19433594,-0.30371094,4.625,3.21875,-1.6875
91,1697609605,-0.8183594,0.31933594,-0.24511719,-42.125,38.1875,-11.09375
92,1697609645,-0.8125,0.4296875,-0.15332031,0.1875,52.84375,5.5625
93,1697609685,-0.9921875,0.23925781,-0.16015625,23.5,40.625,32.0
94,1697609725,-1.0048828,0.22753906,-0.11328125,-9.28125,32.8125,27.34375
95,1697609765,-1.0595703,0.28710938,-0.14550781,-25.34375,18.1875,21.8125
96,1697609805,-0.99316406,0.1953125,-0.34960938,-14.15625,-10.875,21.25
97,1697609845,-0.97753906,0.2861328,-0.024414062,-15.1875,42.28125,0.375
98,1697609885,-1.2539062,0.083984375,-0.18457031,-11.90625,-13.875,23.625
99,1697609925,-1.4824219,0.091796875,-0.043945312,48.09375,-27.65625,13.5625
100,1697609965,-1.1386719,0.11230469,0.05078125,83.84375,-144.125,9.03125
101,1697610005,-1.0039062,0.15527344,-0.02734375,77.5625,-205.71875,-5.78125
102,1697610045,-1.1679688,0.45898438,-0.5126953,-22.84375,-155.28125,-39.46875
103,1697610085,-1.0341797,0.5517578,-0.3623047,-128.1875,-79.84375,-60.34375
104,1697610125,-1.0673828,0.40820312,0.0,-116.46875,-58.125,-60.90625
105,1697610165,-1.0039062,0.22363281,-0.11035156,126.9375,-163.90625,-30.9375
106,1697610205,-0.95996094,0.18164062,-0.087890625,59.3125,-107.3125,-53.46875
107,1697610245,-0.6777344,0.32714844,-0.06542969,42.125,-87.65625,-53.21875
108,1697610285,-0.5576172,0.43359375,-0.08691406,62.25,-50.6875,-40.03125
109,1697610325,-0.39453125,0.4296875,-0.07128906,58.40625,-12.65625,-5.40625
110,1697610365,-0.3779297,0.38085938,-0.07324219,49.375,25.625,26.3125
111,1697610405,-0.48632812,0.3466797,-0.080078125,-6.0,121.1875,35.28125
112,1697610445,-1.4462891,0.2939453,0.72558594,-38.75,173.375,64.03125
113,1697610485,-1.90625,-0.54589844,0.9013672,7.875,16.65625,-19.09375
114,1697610525,-0.79785156,-0.056640625,0.59472656,-11.90625,36.0625,-23.4375
115,1697610565,-0.9863281,0.296875,-0.7998047,-29.96875,38.6875,48.21875
116,1697610605,-1.6445312,0.625,0.9707031,62.3125,62.59375,-5.34375
117,1697610645,-0.5097656,0.8769531,-0.67285156,-3.53125,-60.25,-17.4375
118,1697610685,-0.36132812,0.60546875,-0.2734375,-74.15625,-11.6875,-9.21875
119,1697610725,-0.9355469,0.3876953,-0.375,-16.0625,42.90625,33.34375
120,1697610765,-0.9970703,0.20019531,-0.42285156,209.59375,-21.5,39.0625
121,1697610805,-0.9501953,0.17480469,-0.12109375,176.875,78.53125,38.65625
122,1697610845,-1.0888672,-0.001953125,-0.032226562,-161.375,48.1875,-11.71875
123,1697610885,-0.9189453,0.22558594,-0.20507812,41.6875,19.40625,-19.59375
124,1697610925,-0.83691406,0.33203125,-0.25097656,1.03125,14.625,-8.84375
125,1697610965,-0.85058594,0.21582031,-0.23339844,-14.03125,29.15625,-6.46875
126,1697611005,-0.8486328,0.296875,-0.20703125,-16.53125,41.1875,-0.46875
127,1697611045,-0.8847656,0.41210938,-0.19335938,-18.5,60.84375,15.46875
128,1697611085,-1.0253906,0.21386719,-0.09765625,23.90625,49.25,36.09375
129,1697611125,-0.9863281,0.34960938,-0.1015625,-8.4375,17.4375,24.5
130,1697611165,-0.98828125,0.24707031,-0.37304688,-21.90625,-4.40625,23.4375
131,1697611205,-0.9082031,0.34179688,-0.25097656,-13.4375,24.46875,13.5
132,1697611245,-0.9765625,0.28808594,-0.08496094,-15.5625,33.0,14.78125
133,1697611285,-1.3056641,0.07910156,-0.28027344,-29.78125,-6.0625,20.28125
134,1697611325,-1.4228516,0.22558594,0.13964844,35.21875,-29.9375,0.5625
135,1697611365,-1.0068359,0.28808594,0.11328125,68.0,-135.15625,1.0
136,1697611405,-0.95214844,0.18066406,-0.020507812,37.84375,-178.65625,-7.0625
137,1697611445,-0.99121094,0.29882812,-0.41503906,9.75,-164.125,-43.9375
138,1697611485,-1.1337891,0.5751953,-0.421875,-83.25,-108.53125,-65.84375
139,1697611525,-1.0068359,0.515625,-0.2939453,-97.40625,-65.625,-46.3125
140,1697611565,-1.1777344,0.15234375,0.099609375,137.6875,-159.875,-15.78125
141,1697611605,-0.88964844,0.19921875,-0.001953125,43.6875,-114.8125,-63.78125
142,1697611645,-0.5966797,0.3955078,0.015625,34.46875,-71.3125,-45.8125
143,1697611685,-0.59765625,0.46777344,-0.041015625,52.25,-39.1875,-28.375
144,1697611725,-0.36816406,0.5126953,-0.056640625,47.25,-18.15625,-0.84375
145,1697611765,-0.42382812,0.3876953,-0.059570312,46.375,24.46875,32.0625
146,1697611805,-0.7167969,0.29003906,0.043945312,9.53125,99.09375,40.65625
147,1697611845,-1.421875,0.3251953,0.71777344,-37.46875,127.3125,51.21875
148,1697611885,-1.7880859,-0.33984375,0.92089844,2.0,16.59375,-11.875
149,1697611925,-0.68847656,0.26171875,0.5517578,19.40625,-16.9375,-14.28125
150,1697611965,-0.5126953,0.46289062,-0.49121094,-31.625,48.5,12.90625
151,1697612005,-1.8935547,0.9580078,-0.4716797,-52.5625,57.0625,20.65625
152,1697612045,-1.2392578,0.18457031,1.3574219,-26.6875,210.875,-54.375
153,1697612085,-0.26953125,0.41796875,-0.6152344,-89.40625,38.5,-22.375
154,1697612125,-0.7392578,0.43066406,-0.37890625,-73.125,28.71875,0.4375
155,1697612165,-1.1660156,0.28515625,-0.38671875,182.3125,24.59375,41.03125
156,1697612205,-1.0341797,0.09765625,-0.099609375,197.5,57.65625,13.4375
157,1697612245,-1.2128906,0.19433594,0.09277344,-116.03125,-1.96875,-16.90625
158,1697612285,-0.8798828,0.14257812,-0.29589844,29.53125,5.53125,-11.34375
159,1697612325,-0.85839844,0.328125,-0.18457031,-3.65625,36.84375,-17.5625
160,1697612365,-0.82128906,0.18457031,-0.22265625,17.8125,10.25,5.4375
161,1697612405,-0.9238281,0.14550781,-0.2841797,0.4375,15.0,-3.03125
162,1697612445,-0.8623047,0.3564453,-0.18261719,-11.96875,48.09375,-5.1875
163,1697612485,-0.9394531,0.38183594,-0.09667969,23.0625,61.375,12.59375
164,1697612525,-1.0117188,0.23730469,-0.068359375,18.71875,36.1875,26.375
165,1697612565,-0.9794922,0.26757812,-0.21582031,-20.5,6.09375,22.03125
166,1697612605,-0.9902344,0.26171875,-0.28710938,-17.09375,15.5,17.78125
167,1697612645,-0.9765625,0.29492188,-0.23339844,-8.90625,22.3125,16.0
168,1697612685,-0.9902344,0.27929688,-0.030273438,-6.78125,24.28125,12.59375
169,1697612725,-1.1884766,0.08203125,-0.1796875,-15.5625,-10.21875,19.78125
170,1697612765,-1.3798828,0.0859375,-0.10253906,33.3125,-25.78125,9.34375
171,1697612805,-1.1484375,0.265625,0.125,78.125,-136.96875,-7.8125
172,1697612845,-0.99902344,0.26171875,0.0087890625,53.65625,-185.375,-17.875
173,1697612885,-1.1328125,0.44921875,-0.42285156,-44.4375,-144.125,-53.40625
174,1697612925,-1.0058594,0.59472656,-0.4560547,-129.59375,-73.375,-64.25
175,1697612965,-1.1210938,0.38183594,0.038085938,-98.03125,-23.875,-49.78125
176,1697613005,-1.1337891,0.140625,-0.033203125,161.8125,-198.125,-18.40625
177,1697613045,-0.72558594,0.3388672,0.029296875,34.71875,-111.46875,-42.71875
178,1697613085,-0.5917969,0.49902344,0.07324219,4.625,-69.09375,-31.90625
179,1697613125,-0.56933594,0.5107422,0.036132812,23.375,-35.53125,-4.625
180,1697613165,-0.49316406,0.4501953,-0.10253906,34.53125,-16.625,23.75
181,1697613205,-0.52441406,0.23535156,-0.07128906,27.21875,15.90625,31.1875
182,1697613245,-0.76953125,0.076171875,-0.115234375,-14.59375,82.5,27.84375
183,1697613285,-1.3222656,-0.109375,0.40527344,-24.40625,108.8125,7.09375
184,1697613325,-1.4052734,-0.20703125,0.9941406,13.5,56.125,-0.15625
185,1697613365,-1.2675781,0.33691406,0.7011719,29.65625,6.5625,-4.6875
186,1697613405,-0.6542969,0.37109375,0.25683594,20.6875,25.8125,-2.71875
187,1697613445,-1.140625,0.4267578,-0.6357422,-20.5,25.375,72.15625
188,1697613485,-1.2294922,0.71777344,-0.095703125,-40.59375,108.75,-9.375
189,1697613525,-0.23730469,0.44628906,-0.8076172,-74.09375,-80.65625,7.75
190,1697613565,-0.61816406,0.35351562,-0.58203125,-147.59375,4.375,-0.90625
191,1697613605,-1.2470703,0.1953125,-0.4658203,2.8125,36.0,23.03125
192,1697613645,-0.9238281,-0.03515625,-0.3701172,230.15625,9.3125,40.96875
193,1697613685,-1.0244141,0.2578125,-0.041015625,119.4375,93.78125,1.21875
194,1697613725,-1.0996094,0.20898438,0.119140625,-218.09375,54.6875,-60.09375
195,1697613765,-0.9140625,0.3095703,-0.21582031,4.8125,3.34375,-23.25
196,1697613805,-0.8222656,0.21875,-0.25,-9.28125,17.5,-2.5
197,1697613845,-0.9033203,0.1015625,-0.30859375,30.9375,-1.65625,-0.0625
198,1697613885,-0.8564453,0.2763672,-0.24316406,-18.625,47.59375,-14.625
199,1697613925,-0.84765625,0.484375,-0.10546875,-35.96875,63.65625,1.34375
200,1697613965,-0.98046875,0.25585938,-0.15039062,-1.21875,39.71875,29.3125
201,1697614005,-1.0244141,0.21777344,-0.18847656,-15.8125,34.78125,27.28125
202,1697614045,-1.0673828,0.16894531,-0.28710938,-19.59375,7.5625,22.03125
203,1697614085,-1.0234375,0.25976562,-0.28125,-24.0625,18.21875,7.46875
204,1697614125,-0.98046875,0.3515625,-0.041015625,-27.09375,47.15625,0.0
205,1697614165,-1.1015625,0.057617188,-0.140625,-39.4375,-16.75,24.25
206,1697614205,-1.3466797,0.13378906,-0.19335938,9.28125,-10.40625,4.15625
207,1697614245,-1.2373047,0.3173828,0.31640625,46.1875,-88.6875,-9.875
208,1697614285,-1.0039062,0.28808594,-0.03125,76.53125,-162.5625,-6.875
209,1697614325,-1.2041016,0.44433594,-0.28027344,-22.46875,-167.625,-41.375
210,1697614365,-0.9589844,0.5625,-0.45703125,-124.03125,-104.5625,-50.84375
211,1697614405,-1.0195312,0.5527344,-0.107421875,-120.65625,-47.6875,-51.0
212,1697614445,-1.109375,0.33007812,-0.0048828125,86.0,-138.3125,-17.25
213,1697614485,-0.9814453,0.3017578,-0.1171875,46.75,-121.09375,-34.84375
214,1697614525,-0.6855469,0.38476562,0.0078125,-1.84375,-82.34375,-39.125
215,1697614565,-0.6230469,0.42578125,0.001953125,14.9375,-48.34375,-28.0625
216,1697614605,-0.49804688,0.44335938,-0.043945312,34.71875,-30.71875,-1.75
217,1697614645,-0.36914062,0.35351562,-0.11328125,25.3125,12.1875,25.90625
218,1697614685,-0.43359375,0.3330078,-0.08203125,11.53125,78.78125,45.375
219,1697614725,-1.015625,0.2529297,0.18945312,-53.65625,173.3125,48.28125
220,1697614765,-1.984375,-0.64746094,0.87597656,-70.5625,129.0625,10.3125
221,1697614805,-1.3408203,0.171875,0.94921875,-61.21875,52.65625,-36.4375
222,1697614845,-0.72753906,0.6113281,-0.11621094,-27.53125,50.875,-5.90625
223,1697614885,-1.3916016,0.76464844,-0.375,-24.0,3.9375,34.6875
224,1697614925,-0.73339844,0.3984375,0.24316406,-47.1875,29.53125,-18.71875
225,1697614965,-0.48632812,0.4609375,-0.39257812,-73.25,35.4375,-15.5
226,1697615005,-0.7939453,0.45703125,-0.28710938,-113.71875,32.625,1.71875
227,1697615045,-1.0205078,0.20996094,-0.41015625,125.53125,29.71875,24.25
228,1697615085,-0.93066406,0.15722656,-0.20117188,141.21875,53.21875,23.9375
229,1697615125,-1.2792969,-0.0087890625,0.17871094,-95.21875,135.96875,4.71875
230,1697615165,-1.0263672,0.29003906,-0.18359375,10.1875,14.21875,-27.75
231,1697615205,-0.7988281,0.3388672,-0.31347656,-25.53125,21.21875,-12.6875
232,1697615245,-0.8564453,0.2998047,-0.30273438,0.65625,21.96875,3.84375
233,1697615285,-0.9345703,0.18652344,-0.25585938,-41.375,27.8125,-0.71875
234,1697615325,-0.875,0.24707031,-0.22167969,-46.03125,43.75,-5.0625
235,1697615365,-0.8359375,0.3486328,-0.17871094,-18.9375,56.9375,5.5
236,1697615405,-0.9560547,0.10449219,-0.07421875,-4.46875,46.6875,22.78125
237,1697615445,-1.0693359,0.20898438,-0.21386719,-35.71875,19.625,14.0625
238,1697615485,-1.0175781,0.2421875,-0.2705078,-32.53125,4.3125,14.65625
239,1697615525,-1.0126953,0.25585938,-0.17675781,-26.0,18.46875,15.75
240,1697615565,-1.0341797,0.39941406,0.0087890625,-8.25,26.84375,4.65625
241,1697615605,-1.2539062,0.09277344,-0.13769531,-20.15625,-16.6875,18.375
242,1697615645,-1.2294922,0.29101562,0.3486328,12.03125,-67.59375,-11.875
243,1697615685,-0.984375,0.32421875,-0.038085938,61.75,-174.34375,-7.0
244,1697615725,-1.2548828,0.51660156,-0.3203125,-49.0,-162.25,-49.0625
245,1697615765,-1.0605469,0.6230469,-0.4423828,-168.9375,-70.6875,-55.96875
246,1697615805,-1.0205078,0.35351562,-0.02734375,-151.0,-24.4375,-52.65625
247,1697615845,-0.9375,0.3203125,-0.22167969,27.8125,-142.46875,-20.6875
248,1697615885,-0.8017578,0.22851562,-0.087890625,48.03125,-121.09375,-26.28125
249,1697615925,-0.7558594,0.32421875,0.0234375,0.90625,-66.84375,-39.71875
250,1697615965,-0.7138672,0.4326172,0.009765625,14.53125,-44.4375,-39.125
251,1697616005,-0.5966797,0.4560547,-0.08203125,27.40625,-30.15625,-10.0
252,1697616045,-0.44628906,0.39453125,-0.059570312,30.6875,7.25,12.53125
253,1697616085,-0.52734375,0.30859375,0.0146484375,-8.78125,71.40625,32.71875
254,1697616125,-0.921875,0.13085938,0.09277344,-35.28125,135.0,30.21875
255,1697616165,-1.4306641,-0.0859375,0.7246094,-30.15625,138.71875,31.9375
256,1697616205,-1.7080078,-0.34277344,0.7216797,-104.75,80.3125,-33.625
257,1697616245,-0.98046875,0.21484375,0.50097656,9.9375,-14.125,-9.8125
258,1697616285,-0.5546875,0.5595703,-0.53515625,-44.9375,31.0,27.1875
259,1697616325,-1.4892578,0.9277344,0.015625,-22.09375,76.09375,35.09375
260,1697616365,-0.75,0.46191406,-0.25878906,-210.6875,12.1875,-23.25
261,1697616405,-0.48242188,0.30859375,-0.38867188,-104.9375,6.28125,5.1875
262,1697616445,-0.99316406,0.3544922,-0.35351562,11.71875,23.53125,32.96875
263,1697616485,-1.0859375,0.119140625,-0.42089844,185.0625,-1.34375,35.53125
264,1697616525,-0.88671875,0.18359375,-0.14355469,174.9375,56.5625,18.5
265,1697616565,-1.0673828,0.17773438,-0.041015625,-232.25,52.0,-37.59375
266,1697616605,-0.9472656,0.12695312,-0.15625,-0.96875,12.125,-23.90625
267,1697616645,-0.9082031,0.21484375,-0.27148438,-25.15625,13.53125,-18.40625
268,1697616685,-0.8828125,0.30859375,-0.30566406,-58.40625,24.28125,-14.875
269,1697616725,-0.9111328,0.2685547,-0.21289062,-57.125,54.5,-11.8125
270,1697616765,-0.8671875,0.42578125,-0.20507812,-37.65625,77.3125,-1.34375
271,1697616805,-0.96191406,0.38867188,0.034179688,18.125,66.21875,32.46875
272,1697616845,-0.9785156,0.21191406,-0.25,-23.0625,13.46875,35.90625
273,1697616885,-1.0146484,0.15527344,-0.265625,-31.6875,20.75,25.46875
274,1697616925,-1.0068359,0.2998047,-0.15722656,-32.65625,26.28125,3.90625
275,1697616965,-1.0410156,0.20800781,-0.140625,-28.4375,9.3125,10.875
276,1697617005,-1.3037109,0.04296875,-0.10058594,-25.46875,-7.15625,0.125
277,1697617045,-1.4638672,0.28808594,0.30371094,15.25,-62.15625,-18.25
278,1697617085,-1.125,0.15039062,0.07519531,52.0625,-180.1875,-20.1875
279,1697617125,-1.2011719,0.45214844,-0.29003906,49.5625,-204.71875,-40.34375
280,1697617165,-0.9736328,0.6220703,-0.5341797,-102.0,-139.0,-28.84375
281,1697617205,-0.953125,0.50683594,-0.4140625,-159.5625,-18.75,-61.75
282,1697617245,-1.1279297,0.08300781,-0.07128906,-18.0625,-91.6875,-44.125
283,1697617285,-0.9248047,0.4814453,-0.01171875,55.53125,-132.78125,-38.4375
284,1697617325,-0.5917969,0.3701172,-0.091796875,3.59375,-82.78125,-16.96875
285,1697617365,-0.671875,0.26757812,-0.005859375,39.65625,-70.375,-6.15625
286,1697617405,-0.5214844,0.4873047,-0.025390625,9.34375,-31.6875,9.15625
287,1697617445,-0.40234375,0.37402344,-0.123046875,41.0,2.25,33.71875
288,1697617485,-0.5019531,0.25195312,-0.03515625,9.59375,81.28125,47.0625
289,1697617525,-1.2158203,0.328125,0.45898438,-56.78125,148.0,48.09375
290,1697617565,-1.6298828,-0.47753906,0.95703125,-57.9375,91.46875,19.1875
291,1697617605,-0.96484375,0.1015625,0.5175781,48.59375,7.125,-4.1875
292,1697617645,-0.93359375,0.3466797,0.037109375,15.75,71.40625,3.84375
293,1697617685,-1.9521484,0.95996094,-0.47851562,-5.875,50.03125,16.5625
294,1697617725,-0.49609375,0.36816406,0.4501953,-2.03125,-51.59375,-2.6875
295,1697617765,-0.24121094,0.4091797,-0.59375,-49.5,15.71875,5.6875
296,1697617805,-0.88964844,0.3642578,-0.42578125,-38.15625,12.8125,-2.1875
297,1697617845,-1.171875,0.057617188,-0.32617188,108.21875,82.375,33.875
298,1697617885,-0.9345703,0.076171875,-0.10546875,224.96875,45.53125,21.875
299,1697617925,-1.1347656,0.31835938,0.15429688,-116.75,46.375,-5.46875
300,1697617965,-0.8808594,0.12695312,-0.19824219,37.46875,3.90625,-9.625
301,1697618005,-0.7939453,0.16992188,-0.25585938,17.8125,12.5625,-17.8125
302,1697618045,-0.99316406,0.21582031,-0.3125,39.90625,5.90625,-16.71875
303,1697618085,-0.88964844,0.4609375,-0.2939453,-19.46875,35.625,-11.59375
304,1697618125,-0.68847656,0.5644531,-0.22167969,-78.8125,72.125,-2.90625
305,1697618165,-0.9794922,0.22851562,-0.17675781,-0.5625,59.75,33.28125
306,1697618205,-1.0585938,0.21484375,-0.043945312,23.0,39.15625,29.125
307,1697618245,-1.0117188,0.21386719,-0.24121094,-22.34375,-1.96875,22.71875
308,1697618285,-0.92578125,0.24511719,-0.32226562,-7.75,5.71875,18.09375
309,1697618325,-1.0341797,0.3798828,-0.091796875,-11.0,29.53125,6.375
310,1697618365,-1.2910156,0.14550781,-0.12109375,8.40625,-5.875,22.96875
311,1697618405,-1.5087891,0.33007812,0.32421875,12.5,-44.8125,2.9375
312,1697618445,-0.9941406,0.10058594,0.08984375,99.90625,-175.84375,15.15625
313,1697618485,-1.2275391,0.17773438,-0.29492188,27.28125,-201.90625,-27.28125
314,1697618525,-1.1552734,0.5185547,-0.5263672,-51.8125,-121.78125,-48.6875
315,1697618565,-0.9248047,0.4716797,-0.25195312,-152.65625,-42.5625,-55.65625
316,1697618605,-1.0585938,0.3388672,-0.013671875,-55.78125,-70.21875,-47.71875
317,1697618645,-0.9707031,0.23339844,-0.06347656,115.34375,-143.625,-32.6875
318,1697618685,-0.8486328,0.27734375,-0.07128906,50.71875,-95.21875,-52.53125
319,1697618725,-0.66503906,0.41992188,-0.11230469,69.8125,-72.09375,-43.1875
320,1697618765,-0.5029297,0.43066406,-0.10644531,47.65625,-39.625,-21.03125
321,1697618805,-0.49414062,0.38476562,-0.0078125,48.09375,3.46875,7.09375
322,1697618845,-0.4970703,0.29003906,-0.049804688,43.34375,46.75,33.03125
323,1697618885,-0.6425781,0.20214844,0.06542969,-16.46875,86.53125,37.90625
324,1697618925,-1.6591797,0.15625,0.796875,-28.8125,131.15625,28.34375
325,1697618965,-1.5146484,-0.11816406,0.921875,-20.875,42.84375,-32.8125
326,1697619005,-0.79589844,0.23046875,0.35253906,4.03125,4.75,-9.5625
327,1697619045,-1.1816406,0.546875,-0.75683594,-19.0,43.5625,38.53125
328,1697619085,-1.7050781,0.16210938,1.6787109,-11.78125,175.9375,14.28125
329,1697619125,-0.7246094,0.6484375,-0.63378906,5.96875,-28.28125,-8.28125
330,1697619165,-0.6191406,0.49316406,-0.29882812,3.65625,-25.53125,5.3125
331,1697619205,-0.9013672,0.3388672,-0.2919922,92.65625,31.0,12.34375
332,1697619245,-0.9941406,0.25878906,-0.2607422,95.34375,30.875,17.53125
333,1697619285,-0.8808594,0.28320312,-0.19238281,10.4375,62.4375,7.59375
334,1697619325,-0.8066406,0.24121094,-0.19238281,-9.9375,43.9375,-10.53125
335,1697619365,-0.9394531,0.24609375,-0.23144531,-13.4375,31.53125,-2.625
336,1697619405,-0.9082031,0.25,-0.24414062,1.875,28.1875,0.5625
337,1697619445,-0.8144531,0.17480469,-0.24023438,-40.53125,33.1875,-2.5625
338,1697619485,-0.8574219,0.3408203,-0.265625,-29.46875,41.125,7.59375
339,1697619525,-0.84765625,0.3642578,-0.27539062,3.96875,51.625,24.25
340,1697619565,-0.9707031,0.2109375,-0.08203125,20.5625,51.5625,39.125
341,1697619605,-1.0878906,0.32226562,-0.14355469,-8.0625,27.5625,22.15625
342,1697619645,-1.0830078,0.23535156,-0.22070312,-30.65625,13.34375,17.53125
343,1697619685,-1.0205078,0.17675781,-0.22363281,-34.0625,18.40625,9.65625
344,1697619725,-1.1474609,0.09472656,-0.24414062,-18.25,-3.75,11.625
345,1697619765,-1.3359375,0.18847656,-0.23242188,5.125,-6.5,-8.78125
346,1697619805,-1.3076172,0.44433594,0.4658203,68.1875,-17.84375,-3.40625
347,1697619845,-0.9560547,0.16503906,-0.068359375,59.3125,-154.0,6.25
348,1697619885,-1.0673828,0.3095703,-0.29785156,11.15625,-179.34375,-38.5
349,1697619925,-0.9765625,0.51953125,-0.4658203,-35.78125,-135.875,-35.375
350,1697619965,-1.015625,0.6152344,-0.24609375,-129.71875,-74.34375,-39.90625
351,1697620005,-1.0292969,0.4248047,0.05859375,-52.8125,-53.46875,-16.71875
352,1697620045,-1.1279297,0.16699219,-0.15625,77.3125,-141.1875,-10.96875
353,1697620085,-0.7285156,0.33984375,-0.026367188,6.15625,-100.65625,-43.375
354,1697620125,-0.578125,0.44628906,-0.0126953125,47.65625,-74.90625,-30.4375
355,1697620165,-0.41992188,0.4794922,-0.109375,33.9375,-46.71875,-9.8125
356,1697620205,-0.3935547,0.36914062,-0.11035156,37.59375,-2.15625,16.3125
357,1697620245,-0.4560547,0.25683594,-0.06347656,20.8125,57.0625,26.1875
358,1697620285,-0.88183594,0.19921875,0.125,-19.90625,108.75,27.34375
359,1697620325,-1.5947266,-0.115234375,0.9199219,-40.15625,105.875,27.65625
360,1697620365,-1.5742188,0.11425781,0.9033203,-32.28125,35.03125,-33.6875
361,1697620405,-0.71191406,0.5078125,0.42382812,11.28125,13.34375,-16.09375
362,1697620445,-1.3017578,0.63378906,-0.9082031,-59.75,30.8125,51.90625
363,1697620485,-1.9179688,-0.23339844,1.8554688,-93.28125,272.875,-26.15625
364,1697620525,-0.09277344,0.7089844,-0.4970703,-99.0625,4.4375,-25.6875
365,1697620565,-0.36328125,0.5966797,-0.38378906,-125.8125,45.46875,-4.75
366,1697620605,-1.4013672,0.5205078,-0.3046875,-1.46875,76.46875,58.125
367,1697620645,-0.9667969,-0.052734375,-0.35253906,256.34375,-20.15625,50.375
368,1697620685,-1.0488281,-0.0068359375,0.14160156,-169.0,59.25,-0.96875
369,1697620725,-0.9394531,0.08886719,-0.21289062,9.46875,11.71875,-20.8125
370,1697620765,-0.81347656,0.29882812,-0.23339844,-15.5625,24.9375,-26.40625
371,1697620805,-0.7871094,0.4189453,-0.2939453,-8.1875,8.09375,-7.4375
372,1697620845,-0.9013672,0.2734375,-0.18652344,11.46875,24.21875,2.8125
373,1697620885,-0.9169922,0.3466797,-0.14453125,-15.5625,36.46875,3.25
374,1697620925,-0.8642578,0.2265625,-0.16503906,16.96875,43.1875,24.78125
375,1697620965,-0.8046875,0.31640625,-0.27246094,51.375,5.90625,33.9375
376,1697621005,-1.109375,0.28125,-0.27148438,-5.0625,48.6875,28.6875
377,1697621045,-1.0566406,0.3466797,-0.2841797,-66.90625,60.15625,4.96875
378,1697621085,-1.0449219,0.3544922,-0.00390625,-57.6875,79.625,-0.34375
379,1697621125,-1.1201172,-0.06738281,-0.055664062,-40.59375,-4.71875,23.4375
380,1697621165,-1.1777344,0.20996094,-0.18554688,-13.5625,-7.53125,0.5
381,1697621205,-1.3027344,0.36816406,-0.034179688,47.0,-27.71875,2.5
382,1697621245,-1.1083984,0.27539062,0.24414062,35.21875,-94.9375,12.71875
383,1697621285,-1.0478516,0.16308594,0.00390625,42.15625,-150.03125,1.90625
384,1697621325,-1.125,0.22460938,-0.3955078,-5.875,-154.0625,-44.53125
385,1697621365,-1.0175781,0.46972656,-0.39746094,-59.8125,-108.53125,-57.96875
386,1697621405,-0.9433594,0.50097656,-0.06347656,-119.8125,-44.3125,-57.53125
387,1697621445,-1.1113281,0.27734375,-0.0068359375,48.59375,-119.53125,-25.9375
388,1697621485,-1.1035156,0.29785156,-0.12988281,58.03125,-105.0625,-50.65625
389,1697621525,-0.6953125,0.40625,-0.05859375,19.46875,-85.46875,-54.0625
390,1697621565,-0.6796875,0.4248047,-0.036132812,40.71875,-63.125,-30.4375
391,1697621605,-0.47558594,0.48242188,-0.103515625,62.5625,-46.875,-6.59375
392,1697621645,-0.37109375,0.38378906,-0.109375,34.84375,5.65625,19.1875
393,1697621685,-0.5029297,0.25878906,-0.09375,22.15625,73.03125,39.1875
394,1697621725,-1.0429688,0.24414062,0.19433594,-13.0,131.6875,35.53125
395,1697621765,-1.9082031,-0.5058594,1.0761719,-78.125,97.875,3.5
396,1697621805,-0.7470703,0.4296875,-0.16699219,-34.1875,54.125,7.15625
397,1697621845,-0.8857422,0.40722656,-0.20898438,3.0,63.03125,27.125
398,1697621885,-1.0029297,0.23828125,-0.1171875,5.84375,48.09375,30.03125
399,1697621925,-1.1601562,0.18164062,-0.16308594,-28.875,7.90625,21.5625
400,1697621965,-1.0351562,0.16113281,-0.3125,-16.78125,-3.125,7.53125
401,1697622005,-1.0859375,0.26953125,-0.095703125,-13.0,21.59375,-0.0625
402,1697622045,-1.2402344,0.05859375,-0.24804688,3.59375,-27.90625,13.4375
403,1697622085,-1.4072266,0.2783203,-0.068359375,61.6875,-23.5,-8.03125
404,1697622125,-1.0117188,0.23632812,0.099609375,36.875,-157.4375,-17.625
405,1697622165,-1.046875,0.5332031,-0.125,26.0,-182.6875,-24.71875
406,1697622205,-0.8466797,0.6064453,-0.40527344,-90.28125,-134.71875,-36.5625
407,1697622245,-0.9638672,0.5292969,-0.36035156,-135.9375,-70.8125,-45.40625
408,1697622285,-1.2314453,0.0234375,0.10839844,33.375,-17.46875,-29.03125
409,1697622325,-1.0800781,0.31152344,-0.23144531,66.21875,-122.28125,-54.75
410,1697622365,-0.72265625,0.26464844,-0.017578125,6.40625,-86.375,-45.21875
411,1697622405,-0.66796875,0.42773438,-0.0068359375,23.90625,-54.53125,-38.3125
412,1697622445,-0.43164062,0.53222656,-0.11035156,33.1875,-34.375,-17.375
413,1697622485,-0.42578125,0.33984375,-0.13671875,29.125,-0.125,20.09375
414,1697622525,-0.4873047,0.29882812,-0.10449219,10.0625,60.65625,32.59375
415,1697622565,-0.8828125,0.23339844,0.20214844,-11.59375,95.3125,37.96875
416,1697622605,-1.9199219,-0.12890625,0.9140625,-57.3125,93.6875,41.28125
417,1697622645,-1.5039062,-0.10839844,0.74902344,-4.59375,32.03125,-26.125
418,1697622685,-1.1953125,0.6113281,0.27148438,-14.59375,49.0,6.65625
419,1697622725,-1.2011719,0.59375,-0.5644531,10.5,-43.84375,29.0625
420,1697622765,-0.7636719,0.35058594,0.47851562,-57.0625,195.71875,-21.59375
421,1697622805,-0.515625,0.8066406,-0.08984375,-79.21875,50.03125,5.625
422,1697622845,-0.8876953,0.5966797,-0.24414062,-80.875,46.3125,24.125
423,1697622885,-1.1367188,0.11425781,-0.3251953,43.15625,46.875,22.0
424,1697622925,-0.96875,-0.033203125,-0.22265625,141.09375,-3.5625,37.125
425,1697622965,-0.9511719,0.26660156,0.14257812,10.375,99.59375,14.78125
426,1697623005,-0.93847656,0.15234375,-0.16796875,-51.75,32.09375,-28.6875
427,1697623045,-0.84765625,0.3017578,-0.25,-55.3125,34.53125,-24.40625
428,1697623085,-0.88671875,0.30273438,-0.25195312,-13.5,32.6875,-11.03125
429,1697623125,-0.9091797,0.265625,-0.1875,-25.5625,46.8125,-4.6875
430,1697623165,-0.83691406,0.24902344,-0.16113281,-33.03125,51.3125,7.09375
431,1697623205,-0.9013672,0.3486328,-0.20214844,-25.6875,55.96875,21.9375
432,1697623245,-0.94921875,0.3701172,-0.11328125,-10.875,55.46875,25.53125
433,1697623285,-1.0195312,0.16992188,-0.17773438,-36.125,17.5625,28.5625
434,1697623325,-1.0615234,0.119140625,-0.3701172,-35.34375,-1.0,6.84375
435,1697623365,-1.1240234,0.21777344,-0.05078125,-26.125,42.15625,-6.28125
436,1697623405,-1.3505859,0.15527344,-0.032226562,-45.28125,-4.84375,-1.34375
437,1697623445,-1.3476562,0.21679688,0.038085938,17.5,-36.34375,-16.21875
438,1697623485,-1.0771484,0.37109375,0.1484375,49.0625,-187.28125,-17.25
439,1697623525,-0.95996094,0.38085938,-0.16113281,-23.625,-170.90625,-40.625
440,1697623565,-1.1289062,0.69140625,-0.4970703,-162.84375,-107.4375,-62.1875
441,1697623605,-1.1621094,0.47558594,-0.17871094,-169.4375,-4.46875,-55.34375
442,1697623645,-1.265625,0.34570312,0.047851562,126.28125,-185.8125,-0.84375
443,1697623685,-1.0585938,0.31054688,-0.11816406,-4.65625,-136.0,-31.71875
444,1697623725,-0.40429688,0.57910156,0.08300781,1.46875,-89.8125,-39.65625
445,1697623765,-0.5996094,0.39746094,0.05078125,-2.625,-42.4375,-26.59375
446,1697623805,-0.50097656,0.35742188,-0.083984375,22.03125,-48.84375,7.09375
447,1697623845,-0.34375,0.23925781,-0.119140625,35.40625,-13.875,30.71875
448,1697623885,-0.21679688,0.2841797,-0.09667969,-3.65625,72.75,33.65625
449,1697623925,-0.7363281,0.25878906,0.032226562,-54.9375,166.0,40.46875
450,1697623965,-1.984375,-0.09375,0.77246094,-91.125,181.5,48.71875
451,1697624005,-1.9277344,-0.49902344,1.0322266,-12.75,65.46875,-21.71875
452,1697624045,-0.72558594,0.11328125,0.27148438,-37.1875,35.09375,-29.28125
453,1697624085,-0.8798828,0.31835938,-0.3046875,16.15625,6.34375,-0.09375
454,1697624125,-0.8486328,0.39160156,-0.22265625,-35.59375,61.9375,-6.40625
455,1697624165,-0.83984375,0.46972656,-0.028320312,-23.1875,85.75,12.28125
456,1697624205,-0.9638672,0.1328125,-0.13867188,-24.53125,17.4375,34.1875
457,1697624245,-1.0410156,0.125,-0.31054688,-21.4375,15.78125,25.59375
458,1697624285,-0.9785156,0.24414062,-0.3095703,-9.46875,17.875,11.1875
459,1697624325,-1.0751953,0.45898438,-0.19628906,-32.84375,45.53125,-7.5625
460,1697624365,-1.0576172,0.31347656,0.099609375,-25.28125,27.75,7.8125
461,1697624405,-1.2929688,-0.06933594,-0.16699219,-25.15625,-37.375,18.875
462,1697624445,-1.4804688,0.20410156,0.23046875,23.125,-55.4375,-8.71875
463,1697624485,-1.0683594,0.27246094,0.15039062,78.0,-187.03125,-1.625
464,1697624525,-1.1230469,0.4765625,-0.10449219,58.96875,-205.53125,-9.5625
465,1697624565,-0.9580078,0.5888672,-0.48046875,-117.625,-151.03125,-17.875
466,1697624605,-0.9941406,0.3544922,-0.40625,-159.71875,-40.78125,-49.3125
467,1697624645,-1.2431641,0.040039062,0.20898438,36.8125,-95.15625,-21.71875
468,1697624685,-0.9765625,0.29101562,-0.16015625,87.34375,-141.4375,-45.40625
469,1697624725,-0.65625,0.2265625,-0.107421875,63.03125,-105.375,-39.0
470,1697624765,-0.68066406,0.29101562,0.029296875,45.84375,-56.71875,-40.34375
471,1697624805,-0.5654297,0.4248047,-0.018554688,55.125,-26.0625,-28.0
472,1697624845,-0.38476562,0.4326172,-0.09765625,42.65625,0.09375,-1.03125
473,1697624885,-0.43066406,0.45117188,-0.095703125,18.625,62.4375,16.125
474,1697624925,-0.73828125,0.42871094,0.15722656,-26.25,138.09375,32.71875
475,1697624965,-1.8935547,-0.15625,1.0576172,-95.875,173.1875,43.21875
476,1697625005,-1.2177734,-0.16601562,0.74316406,38.21875,-16.25,-8.90625
477,1697625045,-0.7519531,0.328125,0.16992188,60.71875,23.78125,-2.625
478,1697625085,-1.1699219,0.24023438,-0.5126953,-54.3125,89.34375,36.6875
479,1697625125,-1.984375,0.23144531,1.9960938,0.65625,238.28125,-9.5
480,1697625165,-0.41503906,0.6660156,-0.7714844,-19.78125,-31.25,-9.09375
481,1697625205,-0.5654297,0.64453125,-0.34472656,-24.59375,11.9375,-6.75
482,1697625245,-1.0107422,0.3701172,-0.15039062,-10.4375,64.625,28.21875
483,1697625285,-0.90527344,0.13574219,-0.37304688,175.71875,-36.8125,37.78125
484,1697625325,-0.98339844,0.2841797,-0.23046875,96.75,57.1875,19.0
485,1697625365,-0.78515625,0.25976562,0.049804688,-23.375,83.78125,-21.53125
486,1697625405,-0.90527344,0.2919922,-0.24902344,13.90625,-2.34375,0.875
487,1697625445,-0.8496094,0.20019531,-0.31640625,22.34375,15.5625,10.8125
488,1697625485,-0.890625,0.22558594,-0.2705078,2.125,26.40625,0.6875
489,1697625525,-0.80371094,0.3330078,-0.21289062,-35.71875,66.34375,2.28125
490,1697625565,-0.87402344,0.41210938,-0.11328125,27.78125,72.3125,20.71875
491,1697625605,-1.0498047,0.18359375,-0.08496094,4.6875,17.0625,34.0625
492,1697625645,-0.99902344,0.29101562,-0.17675781,-21.5,14.15625,19.4375
493,1697625685,-0.99121094,0.17285156,-0.2861328,-9.90625,1.28125,26.3125
494,1697625725,-1.0009766,0.19238281,-0.27734375,6.65625,7.1875,25.09375
495,1697625765,-1.1386719,0.29785156,-0.11035156,26.53125,12.5,18.9375
496,1697625805,-1.4521484,0.15429688,-0.060546875,24.84375,-26.625,17.90625
497,1697625845,-1.3525391,0.20410156,0.30859375,61.53125,-110.5625,7.28125
498,1697625885,-1.0371094,0.08984375,0.09765625,85.875,-189.53125,0.0625
499,1697625925,-1.1455078,0.17480469,-0.45507812,43.4375,-195.6875,-47.78125
500,1697625965,-1.1347656,0.49804688,-0.5566406,-49.75,-125.5,-55.65625
501,1697626005,-0.9707031,0.5126953,-0.2578125,-109.5,-61.0,-53.15625
502,1697626045,-1.1328125,0.09277344,0.029296875,88.1875,-149.90625,-37.9375
503,1697626085,-0.95703125,0.19921875,-0.20214844,77.9375,-136.71875,-72.6875
504,1697626125,-0.67871094,0.3388672,-0.1640625,49.25,-83.03125,-61.28125
505,1697626165,-0.61621094,0.4140625,-0.09667969,71.71875,-49.75,-45.9375
506,1697626205,-0.39746094,0.45507812,-0.13769531,75.75,-28.28125,-10.125
507,1697626245,-0.29492188,0.53125,-0.041992188,59.375,15.78125,23.03125
508,1697626285,-0.60058594,0.43359375,-0.06542969,9.625,118.03125,46.59375
509,1697626325,-1.5976562,0.2607422,0.74121094,-25.5625,133.09375,47.5
510,1697626365,-1.5722656,-0.41015625,0.6923828,-1.78125,23.46875,-3.65625
511,1697626405,-1.0742188,-0.076171875,0.6191406,-9.40625,15.1875,-16.46875
512,1697626445,-0.82421875,0.328125,-0.5029297,-17.65625,47.40625,10.21875
513,1697626485,-1.671875,0.7871094,-0.24121094,30.75,65.21875,19.96875
514,1697626525,-0.5996094,0.33691406,-0.12792969,-183.40625,-17.84375,-45.03125
515,1697626565,-0.4189453,0.5419922,-0.45703125,-22.96875,4.9375,-11.71875
516,1697626605,-1.0175781,0.3876953,-0.22949219,24.28125,22.25,32.59375
517,1697626645,-1.0361328,0.0625,-0.25097656,222.15625,5.0,39.0625
518,1697626685,-0.8496094,0.15136719,0.060546875,153.75,45.53125,25.28125
519,1697626725,-0.96972656,0.1875,-0.22460938,-7.5625,7.6875,-21.59375
520,1697626765,-0.8027344,0.3671875,-0.2734375,-4.34375,29.65625,-23.0625
521,1697626805,-0.80566406,0.46289062,-0.20898438,-7.8125,49.71875,-3.03125
522,1697626845,-0.9394531,0.13671875,-0.11328125,8.96875,21.28125,22.0
523,1697626885,-0.91308594,0.2109375,-0.28320312,-3.65625,36.0625,2.5625
524,1697626925,-0.82714844,0.41308594,-0.23144531,20.4375,74.9375,13.8125
525,1697626965,-1.0166016,0.28125,-0.07910156,27.15625,24.46875,38.09375
526,1697627005,-1.0576172,0.30078125,-0.23339844,-16.46875,12.8125,21.375
527,1697627045,-1.0341797,0.25976562,-0.25878906,4.375,14.21875,18.875
528,1697627085,-1.0302734,0.14453125,-0.09765625,-11.25,15.84375,14.78125
529,1697627125,-1.359375,0.08203125,-0.29101562,-2.1875,-13.03125,11.25
530,1697627165,-1.5175781,0.2998047,0.087890625,50.28125,-25.59375,-10.25
531,1697627205,-1.0107422,0.2578125,0.009765625,34.78125,-145.28125,-7.4375
532,1697627245,-0.8544922,0.28222656,0.013671875,53.03125,-185.1875,-10.0625
533,1697627285,-0.953125,0.49609375,-0.41015625,-2.1875,-161.21875,-31.78125
534,1697627325,-1.1357422,0.5722656,-0.2734375,-106.21875,-64.78125,-38.4375
535,1697627365,-1.0390625,0.35351562,-0.16601562,-44.4375,-59.59375,-31.40625
536,1697627405,-1.0849609,0.15429688,-0.119140625,99.125,-111.40625,-19.21875
537,1697627445,-0.7949219,0.2919922,0.0107421875,32.21875,-114.59375,-48.6875
538,1697627485,-0.6513672,0.38085938,-0.0126953125,41.3125,-54.40625,-35.625
539,1697627525,-0.49121094,0.5488281,-0.061523438,27.09375,-28.75,-21.53125
540,1697627565,-0.421875,0.39160156,-0.10546875,18.25,-1.0,4.65625
541,1697627605,-0.5390625,0.26953125,-0.087890625,34.40625,36.90625,22.53125
542,1697627645,-0.99902344,0.16308594,0.14257812,-6.53125,84.75,5.8125
543,1697627685,-1.4423828,-0.045898438,0.890625,-22.90625,64.5,0.25
544,1697627725,-1.3339844,-0.19433594,0.5761719,15.5625,17.5625,-14.5625
545,1697627765,-1.015625,0.23144531,0.4267578,48.65625,-8.75,-15.78125
546,1697627805,-0.7685547,0.24804688,0.016601562,12.03125,54.90625,0.5
547,1697627845,-1.4824219,0.6425781,-0.40820312,-28.25,70.53125,44.03125
548,1697627885,-1.0751953,0.14453125,0.49609375,-114.375,8.59375,-41.0625
549,1697627925,-0.421875,0.9003906,-0.38867188,-61.65625,41.90625,-0.90625
550,1697627965,-0.6689453,0.5390625,-0.17480469,-82.9375,60.65625,24.125
551,1697628005,-1.1611328,0.2861328,-0.2734375,38.4375,43.9375,45.0625
552,1697628045,-0.96972656,-0.0048828125,-0.24121094,152.28125,-28.53125,54.21875
553,1697628085,-0.9814453,0.06640625,-0.15234375,104.96875,84.46875,17.09375
554,1697628125,-0.9863281,0.12109375,-0.095703125,-78.5625,43.4375,-22.375
555,1697628165,-0.95214844,0.18554688,-0.19433594,-32.40625,46.5,-21.65625
556,1697628205,-0.86816406,0.328125,-0.22558594,-2.6875,34.96875,-17.03125
557,1697628245,-0.82714844,0.28808594,-0.21191406,-55.375,45.21875,-11.15625
558,1697628285,-0.89160156,0.29492188,-0.16503906,-28.75,41.625,1.40625
559,1697628325,-0.90234375,0.32910156,-0.22265625,-11.0,52.28125,15.28125
560,1697628365,-0.9453125,0.22167969,-0.10253906,2.9375,57.46875,27.125
561,1697628405,-1.171875,0.26464844,-0.15722656,-24.78125,18.34375,22.34375
562,1697628445,-1.0927734,0.22851562,-0.34472656,-7.8125,-0.9375,16.5
563,1697628485,-1.0498047,0.2529297,-0.028320312,-21.4375,27.21875,5.1875
564,1697628525,-1.2255859,0.14355469,-0.087890625,-19.15625,-16.375,6.25
565,1697628565,-1.5439453,0.14257812,0.109375,8.53125,-30.34375,-9.03125
566,1697628605,-1.0683594,0.203125,-0.032226562,47.40625,-170.375,-20.4375
567,1697628645,-1.0478516,0.29589844,-0.034179688,31.84375,-203.125,-31.53125
568,1697628685,-1.0449219,0.6113281,-0.45996094,-48.40625,-154.4375,-36.84375
569,1697628725,-1.0664062,0.5292969,-0.28222656,-163.09375,-49.03125,-53.21875
570,1697628765,-1.2080078,0.20800781,0.06542969,68.21875,-78.3125,-29.09375
571,1697628805,-0.9785156,0.34375,-0.1953125,85.9375,-161.40625,-38.5
572,1697628845,-0.64160156,0.24609375,-0.0703125,21.0,-109.625,-38.875
573,1697628885,-0.58691406,0.37304688,-0.045898438,36.5625,-57.625,-29.59375
574,1697628925,-0.4453125,0.47460938,-0.060546875,37.40625,-15.40625,-11.28125
575,1697628965,-0.34472656,0.3876953,-0.12988281,25.03125,23.25,22.96875
576,1697629005,-0.35839844,0.26171875,-0.12890625,40.53125,78.84375,43.03125
577,1697629045,-1.0322266,0.23925781,0.12890625,-42.125,163.1875,34.5
578,1697629085,-1.984375,-0.68066406,1.4169922,-140.375,124.6875,-16.21875
579,1697629125,-1.1357422,0.22460938,0.7324219,-26.3125,15.90625,-31.3125
580,1697629165,-1.3564453,0.5644531,-0.39941406,-38.15625,59.875,41.875
581,1697629205,-1.4257812,-0.0703125,0.9140625,139.71875,96.96875,16.125
582,1697629245,-0.18164062,0.6923828,-0.32421875,-125.625,21.34375,-33.5
583,1697629285,-0.5283203,1.0361328,-0.068359375,-83.5,96.96875,1.90625
584,1697629325,-1.1962891,0.46484375,-0.23632812,-51.53125,100.75,51.34375
585,1697629365,-1.0078125,0.044921875,-0.29101562,121.6875,-26.5625,46.21875
586,1697629405,-0.99316406,-0.091796875,-0.20117188,159.53125,45.09375,43.40625
587,1697629445,-1.0625,-0.046875,-0.040039062,-105.53125,-5.5,-46.875
588,1697629485,-0.84277344,0.21386719,-0.21875,5.78125,32.28125,-26.40625
589,1697629525,-0.9121094,0.31054688,-0.3330078,8.71875,4.3125,-13.53125
590,1697629565,-0.84375,0.41015625,-0.29492188,-39.3125,53.5,-15.96875
591,1697629605,-0.84375,0.41503906,0.0029296875,-31.9375,99.28125,-10.5
592,1697629645,-0.94433594,0.26757812,-0.119140625,0.4375,37.875,25.9375
593,1697629685,-1.0,0.16308594,-0.12890625,4.34375,35.375,25.65625
594,1697629725,-1.125,0.2607422,-0.15136719,-25.34375,10.84375,16.0
595,1697629765,-1.03125,0.18847656,-0.3701172,-5.125,-12.53125,17.46875
596,1697629805,-0.95996094,0.3388672,-0.07128906,-11.78125,24.28125,-0.53125
597,1697629845,-1.1914062,0.23730469,0.038085938,-14.09375,-0.6875,2.9375
598,1697629885,-1.5878906,0.01171875,0.0546875,-1.46875,-39.25,4.21875
599,1697629925,-1.1767578,0.15234375,0.0234375,54.5,-173.1875,-20.5
600,1697629965,-1.1386719,0.24804688,-0.09472656,64.4375,-222.90625,-43.3125
601,1697630005,-1.0283203,0.56933594,-0.4560547,-45.28125,-161.28125,-49.25
602,1697630045,-1.0957031,0.56933594,-0.30566406,-188.78125,-66.375,-56.75
603,1697630085,-1.2626953,0.23339844,0.22070312,124.09375,-36.5,-27.09375
604,1697630125,-0.9902344,0.3095703,-0.17089844,115.15625,-158.21875,-42.34375
605,1697630165,-0.5488281,0.26757812,-0.051757812,29.0,-110.1875,-38.875
606,1697630205,-0.55566406,0.3935547,-0.001953125,12.875,-36.03125,-21.90625
607,1697630245,-0.49023438,0.49121094,-0.049804688,27.71875,-5.9375,-8.59375
608,1697630285,-0.37109375,0.37402344,-0.125,33.0625,18.53125,26.5
609,1697630325,-0.4111328,0.26953125,-0.12402344,33.5,74.03125,47.9375
610,1697630365,-1.1064453,0.15332031,0.18652344,-35.78125,146.53125,42.3125
611,1697630405,-1.984375,-0.5019531,1.2255859,-113.84375,123.34375,18.625
612,1697630445,-1.3310547,0.14453125,0.8720703,-6.96875,3.90625,-28.6875
613,1697630485,-0.5488281,0.47851562,0.08984375,46.125,33.125,-2.71875
614,1697630525,-1.7207031,0.5859375,-0.7714844,-18.4375,-4.84375,55.4375
615,1697630565,-1.3359375,-0.18164062,1.3583984,-226.625,218.90625,-60.78125
616,1697630605,-0.24414062,0.7480469,-0.5488281,-52.875,13.71875,-11.53125
617,1697630645,-0.6308594,0.65625,-0.24707031,-92.90625,41.3125,7.40625
618,1697630685,-1.3076172,0.3701172,-0.33203125,2.9375,77.8125,45.46875
619,1697630725,-0.88671875,0.064453125,-0.33203125,238.53125,-23.5,64.59375
620,1697630765,-1.0244141,0.13867188,0.0234375,144.46875,85.8125,32.53125
621,1697630805,-0.9238281,-0.018554688,-0.057617188,-115.3125,12.3125,-44.90625
622,1697630845,-0.7832031,0.2998047,-0.25976562,-12.75,16.71875,-11.34375
623,1697630885,-0.8925781,0.27441406,-0.3388672,3.46875,12.75,-2.1875
624,1697630925,-0.9140625,0.2919922,-0.23046875,-26.75,47.46875,-7.5625
625,1697630965,-0.8652344,0.39941406,-0.109375,-20.875,60.90625,2.34375
626,1697631005,-0.9248047,0.29296875,-0.16503906,-3.3125,44.90625,23.5625
627,1697631045,-0.99902344,0.1640625,-0.15332031,-16.3125,33.5625,30.34375
628,1697631085,-1.0722656,0.17871094,-0.14550781,-18.625,25.1875,17.21875
629,1697631125,-1.0722656,0.16113281,-0.26660156,-16.84375,2.4375,14.28125
630,1697631165,-1.0527344,0.2763672,-0.09863281,-0.84375,16.90625,6.375
631,1697631205,-1.0371094,0.22460938,-0.016601562,1.28125,-3.25,15.53125
632,1697631245,-1.3574219,0.0107421875,-0.18261719,4.75,-32.59375,5.625
633,1697631285,-1.3193359,0.3408203,0.3486328,54.25,-102.5,-14.8125
634,1697631325,-0.9980469,0.26464844,0.064453125,83.625,-187.40625,-7.3125
635,1697631365,-1.0332031,0.40429688,-0.31054688,12.5,-191.78125,-33.5625
636,1697631405,-1.0546875,0.5283203,-0.42773438,-133.5,-118.5,-40.875
637,1697631445,-1.0966797,0.3466797,-0.32226562,-62.1875,-63.625,-39.34375
638,1697631485,-1.1611328,0.24707031,0.0625,106.1875,-140.75,-26.65625
639,1697631525,-0.8955078,0.20996094,-0.14550781,85.875,-135.28125,-48.75
640,1697631565,-0.59375,0.33691406,0.017578125,41.8125,-84.625,-43.03125
641,1697631605,-0.60058594,0.4658203,0.01171875,32.96875,-31.15625,-38.5625
642,1697631645,-0.5185547,0.5,-0.049804688,37.71875,-3.6875,-12.25
643,1697631685,-0.40234375,0.4267578,-0.1484375,29.0625,28.125,23.09375
644,1697631725,-0.47753906,0.40039062,-0.020507812,9.28125,102.53125,43.46875
645,1697631765,-1.0751953,0.37597656,0.31933594,-58.28125,167.03125,50.0625
646,1697631805,-1.984375,-1.0605469,1.2910156,-80.75,55.40625,-9.9375
647,1697631845,-0.80371094,0.17089844,0.48046875,2.9375,-15.53125,-15.625
648,1697631885,-0.5800781,0.5878906,-0.6386719,18.0625,34.71875,44.15625
649,1697631925,-1.7851562,0.9716797,-0.3388672,-4.9375,44.40625,22.09375
650,1697631965,-0.47851562,0.41308594,0.041992188,-210.28125,5.28125,-57.25
651,1697632005,-0.2705078,0.5498047,-0.45703125,-119.4375,49.4375,-11.09375
652,1697632045,-1.0058594,0.43359375,-0.38671875,-100.09375,77.0,31.6875
653,1697632085,-1.0869141,0.17578125,-0.40234375,261.21875,-2.28125,69.65625
654,1697632125,-0.9189453,-0.18554688,0.8105469,223.1875,85.625,25.9375
655,1697632165,-1.1582031,0.14257812,-0.041992188,-34.71875,13.90625,-38.6875
656,1697632205,-0.77441406,0.2529297,-0.38183594,3.90625,-4.65625,-23.90625
657,1697632245,-0.81640625,0.46972656,-0.30859375,-42.96875,34.78125,-13.53125
658,1697632285,-0.8378906,0.21191406,-0.28710938,6.59375,15.1875,2.9375
659,1697632325,-0.82910156,0.23144531,-0.1953125,-21.78125,49.96875,-2.4375
660,1697632365,-0.8984375,0.46972656,-0.20898438,-0.375,64.875,14.65625
661,1697632405,-1.0703125,0.22363281,-0.017578125,39.125,56.625,41.09375
662,1697632445,-1.0566406,0.3154297,-0.07910156,-23.0,11.28125,20.09375
663,1697632485,-1.0351562,0.12109375,-0.21777344,-33.875,-10.875,25.40625
664,1697632525,-1.0039062,0.2578125,-0.20605469,11.09375,-9.21875,14.71875
665,1697632565,-1.1982422,0.19726562,-0.07421875,19.34375,6.46875,16.90625
666,1697632605,-1.5292969,0.2109375,0.0107421875,29.65625,-30.09375,7.59375
667,1697632645,-1.2089844,0.2734375,0.16796875,63.28125,-149.90625,5.5625
668,1697632685,-1.0029297,0.2734375,-0.06542969,23.25,-210.65625,3.0
669,1697632725,-0.9433594,0.3779297,-0.42089844,-24.0,-173.65625,-37.09375
670,1697632765,-1.1347656,0.453125,-0.38183594,-119.625,-107.6875,-48.4375
671,1697632805,-1.0673828,0.4580078,-0.16113281,12.8125,-84.96875,-18.0625
672,1697632845,-0.9638672,0.24804688,-0.03125,105.84375,-145.09375,-7.875
673,1697632885,-0.86328125,0.18554688,-0.17675781,81.0,-76.75,-42.78125
674,1697632925,-0.5517578,0.14648438,-0.03515625,62.6875,-46.53125,-49.78125
675,1697632965,-0.6044922,0.25683594,0.025390625,47.125,20.375,-56.4375
676,1697633005,-0.6533203,0.3310547,-0.18652344,118.09375,1.875,-33.3125
677,1697633045,-0.6435547,0.4296875,0.38476562,45.84375,13.65625,-25.5625
678,1697633085,-0.8623047,0.41796875,0.29101562,-15.75,44.65625,-11.34375
679,1697633125,-0.9501953,0.3251953,0.29492188,22.09375,40.6875,3.25
680,1697633165,-1.0175781,0.09082031,0.3046875,81.71875,22.3125,16.90625
681,1697633205,-1.2646484,-0.087890625,0.43066406,60.71875,37.15625,-10.65625
682,1697633245,-1.3847656,-0.05859375,0.75878906,-42.78125,63.65625,-35.09375
683,1697633285,-0.9892578,0.5498047,-0.03125,-15.1875,80.1875,14.78125
684,1697633325,-1.8251953,1.0039062,0.5488281,-20.375,87.3125,37.71875
685,1697633365,-0.083984375,0.4814453,-0.66308594,-97.59375,-46.9375,15.28125
686,1697633405,-0.45996094,0.43847656,-0.42773438,-164.4375,59.375,11.78125
687,1697633445,-1.5683594,0.24609375,-0.32714844,-105.78125,109.96875,45.375
688,1697633485,-0.84472656,-0.061523438,-0.23535156,277.46875,-18.75,64.71875
689,1697633525,-0.6982422,-0.0625,0.46484375,216.375,116.6875,51.96875
690,1697633565,-1.25,-0.0625,-0.08984375,-32.53125,-1.40625,-45.8125
691,1697633605,-0.9580078,0.27246094,-0.15234375,24.96875,26.28125,-33.9375
692,1697633645,-0.71484375,0.47070312,-0.29101562,-64.75,9.6875,-39.71875
693,1697633685,-0.77246094,0.6279297,-0.25585938,-63.0625,59.125,-22.25
694,1697633725,-0.84472656,0.54785156,-0.35839844,-26.96875,61.75,12.34375
695,1697633765,-1.0048828,0.2578125,-0.14746094,86.125,61.5625,50.125
696,1697633805,-1.0654297,0.2890625,0.09277344,42.84375,29.28125,35.40625
697,1697633845,-1.0683594,0.11328125,-0.24609375,-10.75,0.09375,33.53125
698,1697633885,-0.9970703,0.111328125,-0.22265625,-4.40625,2.5,18.125
699,1697633925,-1.0351562,0.37109375,0.14648438,3.46875,6.03125,-3.21875
700,1697633965,-1.3076172,0.123046875,0.0009765625,-27.15625,-32.0625,3.96875
701,1697634005,-1.3720703,0.103515625,0.17480469,17.5625,-131.0625,-14.875
702,1697634045,-1.3681641,0.30859375,-0.18847656,64.09375,-233.40625,-55.65625
703,1697634085,-1.1064453,0.6035156,-0.41503906,16.84375,-186.84375,-57.46875
704,1697634125,-0.9501953,0.8144531,-0.28515625,-230.09375,-110.90625,-43.4375
705,1697634165,-1.0898438,0.29589844,-0.015625,30.9375,-54.65625,-22.625
706,1697634205,-1.1738281,0.265625,-0.17285156,68.0625,-138.25,-43.4375
707,1697634245,-0.5810547,0.1328125,-0.15136719,44.5,-116.96875,-44.1875
708,1697634285,-0.3701172,0.26367188,-0.0029296875,26.3125,-64.78125,-17.5
709,1697634325,-0.4814453,0.4892578,-0.1171875,37.53125,7.1875,-1.03125
710,1697634365,-0.3935547,0.48046875,-0.13378906,58.59375,27.09375,17.34375
711,1697634405,-0.5107422,0.23632812,-0.12890625,19.78125,97.65625,25.53125
712,1697634445,-1.0507812,0.25683594,0.25,-73.0625,149.09375,31.5
713,1697634485,-1.984375,-0.46289062,1.0585938,-72.15625,122.71875,22.15625
714,1697634525,-0.8779297,0.34765625,-0.21875,-40.96875,35.25,-4.1875
715,1697634565,-0.93359375,0.296875,-0.2578125,-13.375,30.3125,11.25
716,1697634605,-0.99609375,0.19238281,-0.22753906,-19.15625,44.125,13.25
717,1697634645,-1.0761719,0.17578125,-0.19824219,-35.09375,36.0,9.34375
718,1697634685,-1.0546875,0.20117188,-0.15527344,-47.4375,30.375,1.0
719,1697634725,-1.0566406,0.25195312,-0.05078125,-56.40625,12.625,-7.3125
720,1697634765,-1.2265625,0.13769531,0.0625,-81.71875,-6.0625,-12.25
721,1697634805,-1.4638672,0.22753906,0.17675781,-76.0625,-62.46875,-36.71875
722,1697634845,-1.328125,0.46191406,0.30664062,-50.59375,-157.84375,-41.0625
723,1697634885,-0.92285156,0.6113281,-0.3173828,-16.3125,-213.21875,-17.8125
724,1697634925,-0.8330078,0.7324219,-0.36035156,-172.5,-154.9375,24.25
725,1697634965,-0.93847656,0.4267578,-0.14355469,22.625,-17.65625,-12.6875
726,1697635005,-1.0322266,0.359375,0.11425781,-76.34375,-75.875,-29.28125
727,1697635045,-0.7939453,0.3359375,-0.091796875,-6.34375,-65.3125,-29.09375
728,1697635085,-0.56152344,0.31445312,0.15136719,22.59375,-85.09375,2.40625
729,1697635125,-0.4609375,0.51464844,0.052734375,11.90625,-38.09375,35.28125
730,1697635165,-0.49023438,0.48828125,-0.08984375,-19.21875,13.90625,48.09375
731,1697635205,-0.56152344,0.4423828,-0.10839844,-46.75,67.84375,45.1875
732,1697635245,-0.9892578,0.19628906,-0.025390625,-26.96875,91.90625,75.21875
733,1697635285,-1.28125,0.041992188,0.375,-78.375,116.8125,22.21875
734,1697635325,-1.3603516,-0.3017578,0.8623047,-85.03125,98.5,-1.21875
735,1697635365,-1.21875,0.0087890625,0.63378906,-71.28125,106.0,-19.28125
