,timestamp,accel_x,accel_y,accel_z,gyro_x,gyro_y,gyro_z
0,1697605965,-0.2536621,-1.0671997,0.06072998,-2.234375,0.921875,0.203125
1,1697606005,-0.34936523,-1.185852,0.21942139,-4.640625,-3.859375,-3.359375
2,1697606045,-0.54833984,-1.0689087,0.20379639,-13.265625,6.734375,-6.609375
3,1697606085,-0.25048828,-1.1360474,-0.4319458,-10.609375,5.046875,-10.0625
4,1697606125,-0.25341797,-1.1463013,-0.39678955,4.984375,-1.03125,-0.25
5,1697606165,-0.36816406,-1.1907349,-0.04937744,4.15625,12.109375,5.671875
6,1697606205,-0.20825195,-0.91534424,-0.039611816,2.96875,13.4375,7.65625
7,1697606245,-0.17333984,-0.7630005,-0.09967041,3.28125,4.75,8.125
8,1697606285,-0.14331055,-0.6980591,-0.12408447,4.234375,-3.46875,4.703125
9,1697606325,-0.34301758,-0.84381104,-0.09136963,5.921875,-6.953125,3.21875
10,1697606365,-0.31176758,-0.85601807,-0.09527588,6.078125,-2.90625,0.921875
11,1697606405,-0.31396484,-0.8723755,-0.032287598,7.34375,-1.03125,2.03125
12,1697606445,-0.2680664,-0.8713989,-0.042053223,6.78125,-3.390625,3.25
13,1697606485,-0.31567383,-0.9307251,-0.0056762695,3.171875,-6.75,1.6875
14,1697606525,-0.38061523,-1.0020142,0.01727295,-2.140625,-7.015625,-2.140625
15,1697606565,-0.4243164,-1.0903931,0.049743652,-5.15625,-4.90625,-1.1875
16,1697606605,-0.47583008,-1.0559692,0.022155762,-12.609375,-0.828125,-1.875
17,1697606645,-0.040283203,-1.5183716,-0.15289307,-2.390625,-0.796875,-6.109375
18,1697606685,0.064453125,-1.0928345,-0.32525635,-4.703125,-16.84375,15.125
19,1697606725,-0.13964844,-0.78448486,-0.24395752,-4.046875,-34.828125,-7.234375
20,1697606765,-0.24926758,-1.1956177,-0.018371582,-5.796875,-21.828125,-2.75
21,1697606805,-0.15063477,-0.7920532,-0.13092041,-7.53125,-17.84375,1.59375
22,1697606845,-0.118896484,-0.8386841,-0.07281494,-3.21875,-19.96875,2.125
23,1697606885,-0.16088867,-0.98223877,0.035095215,-2.40625,-19.90625,0.515625
24,1697606925,-0.23364258,-0.8687134,0.045837402,-6.203125,-12.40625,1.296875
25,1697606965,-0.1928711,-0.7793579,0.022644043,-0.640625,-9.46875,1.171875
26,1697607005,-0.23168945,-0.8245239,0.10638428,-0.625,-6.84375,-0.859375
27,1697607045,-0.21459961,-0.8335571,0.07513428,-0.625,-4.578125,-3.21875
28,1697607085,-0.3544922,-1.0610962,0.22406006,-0.984375,2.109375,-5.875
29,1697607125,-0.1850586,-1.0823364,-0.030578613,-4.15625,8.296875,-6.390625
30,1697607165,-0.18579102,-1.2319946,0.23406982,-6.3125,-0.328125,-5.3125
31,1697607205,-0.58374023,-1.1516724,0.053649902,-17.0625,-2.890625,-7.125
32,1697607245,-0.35205078,-1.0828247,-0.48394775,-10.546875,4.796875,-7.65625
33,1697607285,-0.23364258,-1.0740356,-0.3189087,9.09375,8.96875,-1.59375
34,1697607325,-0.35498047,-1.1106567,-0.006652832,7.453125,11.578125,1.234375
35,1697607365,-0.28759766,-0.91363525,-0.039611816,4.546875,14.53125,2.859375
36,1697607405,-0.26000977,-0.67510986,-0.15777588,2.609375,9.0,1.03125
37,1697607445,-0.3930664,-0.7576294,-0.12432861,5.375,2.03125,-1.859375
38,1697607485,-0.28222656,-0.8015747,-0.08282471,1.953125,6.8125,-3.25
39,1697607525,-0.29907227,-0.8015747,0.00091552734,0.78125,3.9375,-3.234375
40,1697607565,-0.3076172,-0.7893677,0.0038452148,2.078125,3.078125,-1.609375
41,1697607605,-0.359375,-0.8665161,-0.0051879883,2.234375,-0.296875,-1.203125
42,1697607645,-0.49487305,-0.97076416,0.0770874,-0.625,4.125,-2.203125
43,1697607685,-0.39208984,-1.1018677,-0.038635254,2.71875,1.421875,0.46875
44,1697607725,-0.53686523,-1.2129517,0.121520996,-0.859375,-8.609375,3.9375
45,1697607765,-0.5944824,-1.1704712,0.14569092,-18.71875,-4.8125,2.046875
46,1697607805,-0.17456055,-1.2034302,-0.30303955,-2.984375,2.734375,-3.359375
47,1697607845,0.056640625,-1.1123657,-0.40899658,6.03125,-5.796875,11.578125
48,1697607885,-0.25195312,-1.0335083,-0.12677002,-5.078125,-25.625,-7.796875
49,1697607925,-0.3647461,-1.0142212,-0.04107666,-9.921875,-6.4375,-4.375
50,1697607965,-0.21606445,-0.7293091,-0.16680908,-6.328125,-1.625,-0.125
51,1697608005,-0.19702148,-0.6824341,-0.05255127,0.703125,-7.109375,1.90625
52,1697608045,-0.27612305,-0.83062744,0.042175293,2.6875,-1.375,3.203125
53,1697608085,-0.22558594,-0.8291626,0.019226074,2.84375,-1.53125,4.453125
54,1697608125,-0.23144531,-0.7810669,0.053649902,2.96875,-1.828125,6.28125
55,1697608165,-0.19873047,-0.8411255,0.08026123,-0.140625,-3.421875,5.65625
56,1697608205,-0.45263672,-1.0496216,0.18084717,-1.953125,-0.171875,3.8125
57,1697608245,-0.38671875,-1.0957642,0.08416748,-6.515625,10.609375,1.125
58,1697608285,-0.44091797,-1.237854,0.25946045,-6.5,1.15625,-5.25
59,1697608325,-0.5371094,-1.3150024,-0.15045166,-13.046875,3.3125,-7.90625
60,1697608365,-0.12646484,-1.0664673,-0.6519165,-1.53125,4.03125,0.015625
61,1697608405,-0.42041016,-1.0842896,-0.0791626,11.296875,10.59375,4.453125
62,1697608445,-0.28759766,-1.06427,-0.15386963,2.875,26.171875,2.625
63,1697608485,-0.17333984,-0.9138794,-0.15093994,6.59375,12.96875,1.921875
64,1697608525,-0.26538086,-0.74664307,-0.113098145,4.796875,12.796875,3.140625
65,1697608565,-0.25708008,-0.78204346,-0.17388916,7.640625,5.8125,1.84375
66,1697608605,-0.3256836,-0.7720337,-0.04815674,8.078125,5.421875,2.5625
67,1697608645,-0.28564453,-0.7034302,-0.03277588,6.90625,7.640625,2.9375
68,1697608685,-0.2446289,-0.7293091,-0.023498535,7.390625,4.046875,3.828125
69,1697608725,-0.28955078,-0.8381958,0.02557373,4.640625,-1.03125,3.234375
70,1697608765,-0.40551758,-1.0249634,0.0038452148,0.421875,-5.546875,0.03125
71,1697608805,-0.45092773,-1.069397,-0.09527588,2.328125,-6.84375,1.390625
72,1697608845,-0.6672363,-1.2681274,0.13323975,-7.875,2.171875,1.6875
73,1697608885,-0.30004883,-1.5049438,-0.12677002,-13.828125,5.59375,-6.625
74,1697608925,0.14672852,-1.0154419,-0.409729,-3.296875,1.640625,6.640625
75,1697608965,-0.17211914,-0.99468994,-0.20831299,4.03125,-26.71875,-2.3125
76,1697609005,-0.31103516,-1.2039185,-0.06793213,-6.1875,-7.734375,-2.046875
77,1697609045,-0.28466797,-0.7991333,-0.08428955,-8.5,-0.046875,0.5625
78,1697609085,-0.22729492,-0.673645,-0.07086182,-3.375,0.796875,0.25
79,1697609125,-0.18725586,-0.7661743,0.018737793,1.53125,0.375,-0.625
80,1697609165,-0.21044922,-0.8428345,0.0072631836,2.25,4.125,1.125
81,1697609205,-0.17260742,-0.831604,0.011413574,4.25,0.03125,1.40625
82,1697609245,-0.28027344,-0.7642212,0.046813965,1.734375,1.03125,1.25
83,1697609285,-0.3798828,-0.864563,0.08758545,0.03125,1.375,-4.453125
84,1697609325,-0.30371094,-1.114563,0.07220459,1.0625,10.234375,-4.046875
85,1697609365,-0.28955078,-1.1780396,0.08685303,-0.75,0.65625,-7.40625
86,1697609405,-0.6113281,-1.2261353,0.14691162,-7.1875,1.8125,-7.59375
87,1697609445,-0.20947266,-1.3093872,-0.4487915,-7.609375,7.59375,-10.1875
88,1697609485,-0.33520508,-0.9500122,-0.29937744,10.125,4.640625,3.65625
89,1697609525,-0.5187988,-1.1504517,-0.12652588,9.203125,23.484375,4.65625
90,1697609565,-0.21044922,-0.93756104,-0.1795044,9.09375,23.671875,3.171875
91,1697609605,-0.22753906,-0.85235596,-0.09307861,5.375,17.640625,5.234375
92,1697609645,-0.18530273,-0.64801025,-0.113342285,5.75,10.46875,7.765625
93,1697609685,-0.30908203,-0.7217407,-0.13702393,8.09375,4.359375,4.765625
94,1697609725,-0.34033203,-0.7827759,-0.07696533,3.921875,8.03125,2.453125
95,1697609765,-0.35766602,-0.7954712,-0.046447754,4.078125,10.40625,3.609375
96,1697609805,-0.3486328,-0.87286377,-0.02178955,1.515625,10.625,2.8125
97,1697609845,-0.3527832,-0.96051025,-0.011291504,-2.125,7.28125,1.515625
98,1697609885,-0.39086914,-1.0232544,-0.09039307,-0.796875,-4.421875,0.71875
99,1697609925,-0.70825195,-1.170227,0.1227417,-5.46875,5.265625,1.265625
100,1697609965,-0.38208008,-1.1912231,0.013122559,-17.109375,10.40625,-1.9375
101,1697610005,0.17822266,-1.1807251,-0.3496704,-1.609375,-2.328125,-0.28125
102,1697610045,-0.03466797,-1.2161255,-0.28424072,3.28125,-17.671875,5.671875
103,1697610085,-0.17797852,-1.0234985,-0.34039307,-0.734375,-14.546875,2.328125
104,1697610125,-0.30566406,-1.1541138,-0.113098145,-1.640625,-9.984375,-0.984375
105,1697610165,-0.21728516,-0.85723877,-0.013977051,-11.71875,-4.4375,0.0625
106,1697610205,-0.1850586,-0.75079346,-0.007385254,-6.453125,-6.515625,0.75
107,1697610245,-0.2446289,-0.82891846,0.008972168,-3.140625,1.171875,1.265625
108,1697610285,-0.23510742,-0.6958618,0.051208496,-1.6875,6.3125,-0.6875
109,1697610325,-0.19848633,-0.69781494,0.020690918,2.609375,5.0625,-0.71875
110,1697610365,-0.2861328,-0.85162354,0.09466553,0.0625,6.4375,-5.078125
111,1697610405,-0.4091797,-1.0484009,0.06048584,3.046875,10.546875,-6.65625
112,1697610445,-0.29663086,-1.2324829,0.019958496,3.296875,12.390625,-7.78125
113,1697610485,-0.3955078,-1.2710571,0.30316162,-7.09375,6.65625,-14.125
114,1697610525,-0.47583008,-1.3726196,-0.11236572,-10.6875,3.203125,-13.96875
115,1697610565,-0.16918945,-0.9324341,-0.3040161,-4.953125,9.625,-3.515625
116,1697610605,-0.36083984,-0.92437744,-0.14752197,9.828125,17.234375,-0.015625
117,1697610645,-0.37304688,-1.0198364,-0.19415283,12.921875,12.328125,-1.75
118,1697610685,-0.2956543,-0.9331665,-0.13922119,12.078125,11.921875,2.9375
119,1697610725,-0.29418945,-0.8008423,-0.08843994,11.9375,11.65625,9.046875
120,1697610765,-0.3305664,-0.71173096,-0.10699463,11.859375,11.21875,8.640625
121,1697610805,-0.27734375,-0.72491455,-0.17242432,10.75,9.171875,4.875
122,1697610845,-0.29638672,-0.7788696,-0.1663208,13.109375,5.0,2.921875
123,1697610885,-0.40307617,-0.87872314,-0.05670166,14.9375,2.3125,2.84375
124,1697610925,-0.37280273,-0.91412354,-0.043029785,10.234375,3.671875,4.484375
125,1697610965,-0.39282227,-0.9612427,-0.05596924,6.3125,1.40625,6.140625
126,1697611005,-0.39233398,-1.0523071,-0.1296997,2.953125,-1.765625,3.71875
127,1697611045,-0.5517578,-1.2402954,0.07366943,-1.53125,-6.609375,2.78125
128,1697611085,-0.6237793,-1.328186,-0.097717285,-12.125,3.578125,0.78125
129,1697611125,-0.19360352,-1.1528931,-0.3147583,-3.859375,12.96875,1.125
130,1697611165,0.19824219,-0.8440552,-0.6235962,6.046875,-4.890625,13.390625
131,1697611205,-0.27172852,-1.1528931,-0.08673096,6.546875,-19.75,-3.265625
132,1697611245,-0.24780273,-0.90509033,-0.21734619,-9.125,3.765625,2.90625
133,1697611285,-0.08666992,-0.7654419,-0.19366455,-2.4375,-6.40625,2.625
134,1697611325,-0.2277832,-0.7280884,-0.09844971,-2.796875,-9.984375,1.609375
135,1697611365,-0.18286133,-0.7659302,-0.06378174,-1.15625,-8.09375,-0.203125
136,1697611405,-0.23071289,-0.8106079,-0.035217285,-1.203125,-3.203125,0.796875
137,1697611445,-0.2607422,-0.8596802,-0.006164551,2.0,-1.875,-0.265625
138,1697611485,-0.34521484,-0.8804321,0.0033569336,3.703125,3.078125,0.125
139,1697611525,-0.27783203,-1.0523071,-0.031555176,1.75,9.6875,-5.5625
140,1697611565,-0.29638672,-1.2559204,0.03314209,-4.484375,8.953125,-10.640625
141,1697611605,-0.20581055,-1.2800903,0.0368042,-15.234375,3.234375,-18.75
142,1697611645,-0.18652344,-1.458313,-0.29034424,-17.328125,-17.828125,-17.40625
143,1697611685,-0.6455078,-1.0601196,-0.09307861,-6.84375,-2.0625,-5.046875
144,1697611725,-0.29858398,-0.74713135,-0.44073486,-3.75,21.78125,1.8125
145,1697611765,-0.30493164,-0.76568604,-0.29156494,13.734375,5.9375,-2.34375
146,1697611805,-0.37646484,-0.9795532,-0.081848145,9.234375,11.1875,0.015625
147,1697611845,-0.2746582,-0.7749634,-0.14483643,3.0625,13.53125,3.875
148,1697611885,-0.2619629,-0.7359009,-0.12432861,6.171875,7.765625,3.921875
149,1697611925,-0.26611328,-0.77130127,-0.16851807,3.078125,5.375,3.640625
150,1697611965,-0.38623047,-0.77178955,-0.124572754,3.875,-1.1875,1.734375
151,1697612005,-0.39038086,-0.78619385,-0.12286377,3.390625,1.15625,1.5625
152,1697612045,-0.36694336,-0.7979126,-0.08917236,3.59375,0.28125,2.53125
153,1697612085,-0.36572266,-0.89263916,-0.08721924,-0.875,-2.859375,2.875
154,1697612125,-0.49438477,-0.91070557,0.008728027,-3.6875,-0.890625,3.09375
155,1697612165,-0.47583008,-1.0095825,-0.02960205,-4.59375,2.515625,1.375
156,1697612205,-0.47631836,-1.1130981,-0.04425049,-5.671875,-3.59375,1.0
157,1697612245,-0.56103516,-1.375061,-0.06842041,-8.375,1.8125,0.453125
158,1697612285,-0.1706543,-1.1836548,-0.33355713,-9.171875,10.78125,7.3125
159,1697612325,-0.013427734,-0.8413696,-0.52178955,2.046875,-16.21875,8.21875
160,1697612365,-0.29907227,-1.2090454,-0.08868408,4.140625,-27.140625,-12.734375
161,1697612405,-0.4338379,-1.0645142,-0.121154785,-7.953125,1.875,7.5625
162,1697612445,-0.12866211,-0.73272705,-0.17779541,-6.859375,-0.34375,5.578125
163,1697612485,-0.3005371,-0.7366333,-0.030822754,-4.4375,-6.859375,2.875
164,1697612525,-0.23217773,-0.7468872,-0.04156494,-5.75,2.84375,2.421875
165,1697612565,-0.22167969,-0.77838135,-0.0005493164,-2.53125,1.984375,4.28125
166,1697612605,-0.20703125,-0.878479,-0.022766113,-3.0625,3.265625,3.046875
167,1697612645,-0.28027344,-0.8484497,0.097351074,-2.46875,-0.890625,3.078125
168,1697612685,-0.29101562,-0.94073486,0.10614014,-8.1875,-0.234375,-2.15625
169,1697612725,-0.40112305,-1.03302,0.199646,-11.671875,4.703125,-4.765625
170,1697612765,-0.3635254,-1.1072388,0.049743652,-15.109375,13.71875,-6.109375
171,1697612805,-0.30322266,-1.114563,0.20281982,-10.09375,21.046875,-2.390625
172,1697612845,-0.28515625,-1.4246216,-0.29327393,-13.9375,-19.125,-11.828125
173,1697612885,-0.33447266,-1.156311,-0.039611816,-4.796875,-20.234375,1.375
174,1697612925,-0.6870117,-1.0808716,-0.023254395,-8.96875,7.03125,5.171875
175,1697612965,-0.107177734,-0.9685669,-0.2678833,2.4375,6.671875,0.328125
176,1697613005,-0.36328125,-0.87335205,-0.061828613,10.703125,1.875,4.640625
177,1697613045,-0.2290039,-0.70025635,0.010192871,6.796875,10.109375,2.65625
178,1697613085,-0.21044922,-0.62677,-0.0044555664,8.53125,6.109375,5.296875
179,1697613125,-0.2722168,-0.7029419,-0.054260254,4.78125,4.140625,1.015625
180,1697613165,-0.31762695,-0.78326416,0.018737793,6.375,3.453125,1.359375
181,1697613205,-0.49121094,-0.84747314,0.10028076,0.71875,8.765625,1.578125
182,1697613245,-0.37060547,-0.83917236,0.09222412,-0.765625,15.75,0.203125
183,1697613285,-0.3010254,-0.84747314,0.038024902,-4.203125,12.65625,1.53125
184,1697613325,-0.3005371,-1.0830688,0.061462402,-3.640625,-5.0625,-2.25
185,1697613365,-0.63061523,-1.1914673,0.18743896,-8.21875,2.515625,1.734375
186,1697613405,-0.10058594,-1.5713501,-0.18365479,2.515625,-1.984375,-1.203125
187,1697613445,0.099853516,-1.2893677,-0.22711182,8.5625,-12.390625,13.640625
188,1697613485,-0.35058594,-0.9319458,-0.29400635,3.078125,-34.5625,5.09375
189,1697613525,-0.21264648,-1.1397095,-0.093811035,1.734375,-22.03125,0.046875
190,1697613565,-0.3059082,-0.91119385,0.05999756,-5.359375,-11.328125,3.46875
191,1697613605,-0.15356445,-0.63067627,-0.09088135,-3.484375,-10.15625,2.71875
192,1697613645,-0.22705078,-0.741272,0.06463623,0.625,-4.203125,1.875
193,1697613685,-0.16430664,-0.7168579,-0.00592041,1.234375,0.375,2.859375
194,1697613725,-0.1340332,-0.8428345,0.08734131,3.375,-6.90625,-0.171875
195,1697613765,-0.31640625,-0.81817627,0.13006592,0.65625,-2.015625,0.875
196,1697613805,-0.2409668,-0.9397583,0.07537842,0.84375,-0.953125,-1.390625
197,1697613845,-0.4243164,-1.3245239,0.17840576,0.53125,6.859375,-3.96875
198,1697613885,-0.3918457,-1.1062622,0.13787842,-8.296875,6.875,-7.40625
199,1697613925,-0.24243164,-1.6013794,-0.29229736,-0.015625,-11.34375,-7.375
200,1697613965,-0.20117188,-1.2234497,-0.27496338,0.046875,-8.6875,5.796875
201,1697614005,-0.5710449,-0.87506104,0.014831543,-2.09375,16.671875,5.609375
202,1697614045,-0.1459961,-1.0310669,-0.2666626,2.734375,15.140625,-3.578125
203,1697614085,-0.22680664,-0.9800415,-0.16241455,8.609375,4.9375,2.21875
204,1697614125,-0.33325195,-0.80059814,-0.08843994,2.421875,12.46875,1.453125
205,1697614165,-0.18457031,-0.65875244,-0.1296997,8.546875,10.859375,3.234375
206,1697614205,-0.18261719,-0.706604,-0.097229004,8.859375,5.15625,2.359375
207,1697614245,-0.2980957,-0.7114868,-0.04449463,9.6875,2.21875,1.0625
208,1697614285,-0.29760742,-0.8213501,-0.028869629,8.578125,7.84375,2.25
209,1697614325,-0.38964844,-0.8677368,0.022888184,3.6875,5.375,1.203125
210,1697614365,-0.32666016,-1.050354,-0.1482544,1.71875,-0.828125,-4.828125
211,1697614405,-0.50439453,-1.2288208,0.09320068,0.484375,-0.921875,-2.953125
212,1697614445,-0.44677734,-1.3257446,-0.055236816,-15.125,4.578125,0.21875
213,1697614485,-0.05883789,-1.522522,-0.2000122,-7.984375,6.390625,-4.203125
214,1697614525,0.05883789,-0.79156494,-0.57891846,-0.234375,-11.25,22.078125
215,1697614565,-0.042236328,-1.0020142,-0.1975708,11.96875,-36.53125,-4.375
216,1697614605,-0.37670898,-1.2271118,0.023376465,-3.78125,-16.859375,7.390625
217,1697614645,-0.22729492,-0.6838989,-0.20953369,-11.1875,-4.4375,5.53125
218,1697614685,-0.095947266,-0.6902466,-0.097717285,-2.609375,-7.484375,0.921875
219,1697614725,-0.2512207,-0.7930298,0.0053100586,0.03125,-3.09375,-0.46875
220,1697614765,-0.13208008,-0.80255127,-0.008117676,1.359375,0.8125,0.90625
221,1697614805,-0.13647461,-0.829895,0.041931152,1.484375,1.109375,1.265625
222,1697614845,-0.24121094,-0.8804321,0.032165527,-2.96875,-0.515625,-2.15625
223,1697614885,-0.34106445,-1.0457153,0.11639404,-2.984375,4.953125,-5.96875
224,1697614925,-0.25024414,-1.2525024,0.010437012,-3.4375,10.5625,-5.265625
225,1697614965,-0.34326172,-1.414856,0.24969482,-7.421875,6.078125,-9.171875
226,1697615005,-0.36010742,-1.3179321,-0.13604736,-16.1875,-4.75,-7.921875
227,1697615045,-0.08959961,-0.9002075,-0.3008423,-3.921875,4.1875,-0.703125
228,1697615085,-0.5715332,-0.8381958,-0.10406494,-2.546875,11.65625,-3.171875
229,1697615125,-0.19970703,-1.0557251,-0.3789673,3.921875,18.765625,-8.59375
230,1697615165,-0.27954102,-1.1245728,-0.124572754,9.25,13.828125,-2.1875
231,1697615205,-0.23706055,-0.815979,-0.06451416,4.421875,23.25,3.421875
232,1697615245,-0.20214844,-0.71661377,-0.12017822,7.3125,12.15625,5.6875
233,1697615285,-0.15161133,-0.71539307,-0.14971924,5.9375,2.828125,3.46875
234,1697615325,-0.23828125,-0.74224854,-0.043762207,6.0,-1.21875,1.765625
235,1697615365,-0.36328125,-0.7437134,0.028259277,3.5,1.5625,1.703125
236,1697615405,-0.32617188,-0.8401489,-0.062072754,3.9375,-0.015625,0.65625
237,1697615445,-0.37036133,-1.0108032,0.0028686523,2.734375,1.625,-1.890625
238,1697615485,-0.5004883,-1.1758423,0.0021362305,0.484375,-4.515625,0.015625
239,1697615525,-0.50097656,-1.2090454,0.059020996,-13.859375,3.46875,-5.6875
240,1697615565,-0.32543945,-1.2503052,-0.090148926,-18.765625,-6.15625,-5.484375
241,1697615605,0.0026855469,-1.298645,-0.3328247,-5.515625,-3.46875,-0.34375
242,1697615645,0.01171875,-0.97491455,-0.41583252,-0.34375,-11.59375,10.703125
243,1697615685,-0.3330078,-1.1004028,-0.17193604,-1.84375,-18.171875,-4.484375
244,1697615725,-0.43139648,-0.94195557,0.01751709,-8.890625,-3.34375,-1.90625
245,1697615765,-0.15673828,-0.647522,-0.1038208,-8.4375,3.203125,1.65625
246,1697615805,-0.17602539,-0.6643677,-0.009338379,0.640625,-1.765625,-0.625
247,1697615845,-0.16259766,-0.8467407,0.034606934,1.28125,0.859375,0.390625
248,1697615885,-0.16772461,-0.8167114,0.06878662,-1.578125,-2.609375,1.578125
249,1697615925,-0.24194336,-0.7925415,0.09246826,-2.953125,-1.15625,1.984375
250,1697615965,-0.33203125,-0.89190674,0.121276855,-5.859375,-2.125,-4.796875
251,1697616005,-0.37353516,-1.0559692,0.0026245117,-0.9375,14.296875,-2.828125
252,1697616045,-0.2109375,-1.34552,0.16253662,-0.3125,-1.015625,-7.578125
253,1697616085,-0.6960449,-1.3550415,0.3348999,-13.296875,1.390625,-4.734375
254,1697616125,-0.24291992,-1.2380981,-0.27301025,-10.890625,-3.671875,-8.84375
255,1697616165,-0.21191406,-0.8179321,-0.24224854,2.34375,2.765625,10.171875
256,1697616205,-0.46118164,-0.9734497,-0.17706299,7.734375,12.203125,3.8125
257,1697616245,-0.22241211,-0.97784424,-0.13946533,7.6875,7.390625,-2.453125
258,1697616285,-0.24975586,-0.89263916,-0.051574707,7.1875,6.71875,3.640625
259,1697616325,-0.24194336,-0.68414307,-0.043518066,5.25,9.484375,4.953125
260,1697616365,-0.20117188,-0.65631104,-0.10015869,6.875,6.59375,4.21875
261,1697616405,-0.19604492,-0.7185669,-0.050598145,8.46875,2.140625,3.328125
262,1697616445,-0.32910156,-0.82891846,-0.007873535,7.671875,-5.734375,0.6875
263,1697616485,-0.42041016,-0.9229126,-0.0037231445,7.03125,-3.46875,1.609375
264,1697616525,-0.3564453,-0.96832275,-0.08648682,6.015625,-5.375,1.03125
265,1697616565,-0.49145508,-1.1773071,0.0026245117,3.890625,-5.375,-1.5625
266,1697616605,-0.55029297,-1.2129517,0.07879639,-3.8125,-3.859375,-1.390625
267,1697616645,-0.5402832,-1.1104126,0.12176514,-13.4375,2.25,-4.34375
268,1697616685,-0.3251953,-1.3545532,-0.09503174,-7.203125,1.90625,-7.796875
269,1697616725,0.1586914,-0.9873657,-0.4517212,2.34375,5.125,10.203125
270,1697616765,-0.049560547,-0.96881104,-0.38897705,8.359375,-24.53125,1.75
271,1697616805,-0.46166992,-1.2200317,-0.03253174,-1.515625,-20.84375,-5.625
272,1697616845,-0.24438477,-0.8374634,-0.06719971,-11.84375,-0.09375,2.078125
273,1697616885,-0.16040039,-0.63360596,-0.16607666,-4.40625,-5.328125,3.125
274,1697616925,-0.1772461,-0.7251587,-0.046203613,2.921875,-5.5,1.796875
275,1697616965,-0.18432617,-0.8753052,0.07220459,2.21875,-0.609375,3.328125
276,1697617005,-0.14501953,-0.78302,0.023620605,0.671875,-3.25,4.375
277,1697617045,-0.23510742,-0.78912354,0.025817871,2.5625,-6.46875,3.015625
278,1697617085,-0.3713379,-0.9468384,0.124694824,-3.046875,-8.171875,-4.5625
279,1697617125,-0.49291992,-1.1209106,0.070495605,1.625,9.390625,-2.140625
280,1697617165,-0.21875,-1.269104,0.030700684,1.328125,0.921875,-4.734375
281,1697617205,-0.51049805,-1.6177368,-0.17388916,1.90625,-10.5,-4.40625
282,1697617245,-0.047607422,-1.1528931,-0.45733643,-4.296875,-0.828125,1.828125
283,1697617285,-0.4716797,-0.83673096,-0.022521973,7.078125,10.046875,11.15625
284,1697617325,-0.30932617,-0.9661255,-0.26641846,1.015625,24.265625,3.21875
285,1697617365,-0.22631836,-0.8892212,-0.2041626,8.375,15.46875,2.546875
286,1697617405,-0.27978516,-0.7984009,-0.11798096,3.3125,20.515625,6.484375
287,1697617445,-0.1977539,-0.65631104,-0.12750244,5.4375,17.609375,5.65625
288,1697617485,-0.15429688,-0.72540283,-0.1260376,7.765625,11.703125,4.328125
289,1697617525,-0.28344727,-0.7852173,-0.07940674,5.0625,7.640625,3.15625
290,1697617565,-0.29663086,-0.8069458,-0.047180176,4.53125,7.84375,2.296875
291,1697617605,-0.31518555,-0.89971924,-0.022033691,2.15625,3.859375,-0.59375
292,1697617645,-0.33129883,-1.0823364,-0.06719971,1.078125,-0.875,-2.671875
293,1697617685,-0.5253906,-1.2246704,-0.018615723,-1.578125,-4.484375,-5.46875
294,1697617725,-0.54785156,-1.2908325,0.12567139,-12.140625,6.59375,-1.296875
295,1697617765,-0.10986328,-1.2932739,-0.31866455,-14.578125,0.328125,-4.25
296,1697617805,0.056640625,-0.9854126,-0.50177,1.4375,-0.390625,2.9375
297,1697617845,-0.11791992,-1.1409302,-0.36920166,6.703125,-21.15625,-1.359375
298,1697617885,-0.46411133,-1.1824341,-0.062805176,-2.703125,-10.203125,-4.03125
299,1697617925,-0.17895508,-0.7996216,-0.09063721,-8.96875,4.875,3.203125
300,1697617965,-0.064941406,-0.6314087,-0.062316895,-2.75,-4.046875,2.640625
301,1697618005,-0.15307617,-0.70196533,-0.05303955,-0.890625,-6.53125,0.484375
302,1697618045,-0.17602539,-0.7949829,-0.0037231445,-2.546875,-2.28125,1.265625
303,1697618085,-0.16259766,-0.7295532,-0.008117676,-2.140625,-0.734375,1.703125
304,1697618125,-0.2277832,-0.76934814,0.054626465,-1.296875,-2.890625,1.4375
305,1697618165,-0.3894043,-0.9937134,0.13763428,-4.28125,0.578125,-9.984375
306,1697618205,-0.44335938,-1.1697388,-0.012268066,-4.34375,19.265625,-6.0
307,1697618245,-0.07470703,-1.2874146,0.043395996,2.015625,-0.65625,-12.015625
308,1697618285,-0.5974121,-1.4417114,0.2748413,-11.78125,-7.296875,-7.15625
309,1697618325,-0.26513672,-1.111145,-0.5601196,-23.03125,-10.375,-9.375
310,1697618365,-0.2919922,-0.753479,-0.3887329,5.421875,-1.046875,5.796875
311,1697618405,-0.4572754,-1.2925415,-0.15240479,3.484375,9.546875,-0.65625
312,1697618445,-0.27294922,-0.9463501,-0.08428955,-1.109375,12.328125,2.9375
313,1697618485,-0.28100586,-0.75787354,-0.042541504,1.1875,10.640625,5.671875
314,1697618525,-0.22851562,-0.67022705,-0.07574463,1.203125,9.28125,4.546875
315,1697618565,-0.1977539,-0.7022095,-0.06451416,3.03125,2.671875,3.796875
316,1697618605,-0.32592773,-0.70147705,0.008728027,0.46875,2.5,3.078125
317,1697618645,-0.31274414,-0.7053833,0.024597168,-1.1875,5.1875,3.5
318,1697618685,-0.31958008,-0.7756958,-0.046691895,-0.375,0.171875,3.640625
319,1697618725,-0.41479492,-1.1360474,0.027770996,0.671875,-5.859375,-1.1875
320,1697618765,-0.5371094,-1.1343384,0.02166748,-0.8125,-7.421875,4.8125
321,1697618805,-0.53271484,-1.2114868,0.14202881,-10.578125,-0.640625,-2.328125
322,1697618845,-0.21948242,-1.4170532,-0.113586426,-13.3125,-0.84375,-5.109375
323,1697618885,-0.00048828125,-1.1636353,-0.34503174,-1.640625,-1.828125,-1.09375
324,1697618925,0.06591797,-1.1192017,-0.3587036,8.265625,-19.765625,4.765625
325,1697618965,-0.44921875,-1.1941528,-0.045715332,2.671875,-15.90625,-2.734375
326,1697619005,-0.23144531,-0.7954712,-0.03326416,-5.234375,-4.5,0.09375
327,1697619045,-0.21289062,-0.60479736,-0.014709473,-3.0625,-4.953125,0.6875
328,1697619085,-0.14770508,-0.6836548,-0.05279541,4.71875,-5.015625,1.0
329,1697619125,-0.18066406,-0.83477783,0.078552246,2.78125,-1.296875,1.390625
330,1697619165,-0.20751953,-0.7774048,0.070739746,0.515625,-0.640625,1.984375
331,1697619205,-0.22509766,-0.7449341,0.061950684,2.609375,-0.59375,1.421875
332,1697619245,-0.3203125,-0.9483032,0.1449585,-1.34375,-0.8125,-5.625
333,1697619285,-0.3569336,-1.1882935,0.094177246,-1.65625,14.234375,-4.40625
334,1697619325,-0.2709961,-1.2092896,0.1293335,-4.96875,2.75,-7.140625
335,1697619365,-0.5461426,-1.2398071,0.15325928,-10.4375,0.640625,-6.546875
336,1697619405,-0.2211914,-1.2410278,-0.5498657,-10.859375,-0.09375,-5.203125
337,1697619445,-0.33203125,-0.91363525,-0.3633423,8.625,1.578125,0.3125
338,1697619485,-0.48779297,-1.3032837,-0.050842285,5.859375,17.8125,-1.46875
339,1697619525,-0.21704102,-1.0484009,-0.050842285,2.125,16.671875,1.453125
340,1697619565,-0.1862793,-0.6987915,-0.049621582,4.703125,11.78125,9.1875
341,1697619605,-0.17651367,-0.5671997,-0.10308838,5.828125,2.921875,8.75
342,1697619645,-0.2109375,-0.67388916,-0.078186035,6.453125,-2.546875,4.90625
343,1697619685,-0.33520508,-0.78619385,-0.019836426,1.734375,-0.375,2.359375
344,1697619725,-0.35620117,-0.8081665,0.024597168,3.03125,-1.328125,1.390625
345,1697619765,-0.36328125,-0.8760376,0.02508545,-0.046875,-3.765625,1.265625
346,1697619805,-0.36743164,-0.9692993,-0.035705566,-0.28125,-1.6875,-0.25
347,1697619845,-0.48657227,-1.1172485,0.010925293,1.6875,-11.484375,-5.21875
348,1697619885,-0.6958008,-1.2925415,0.2411499,-10.328125,11.75,-1.984375
349,1697619925,-0.115234375,-1.3960571,-0.22076416,-9.5625,2.890625,-5.859375
350,1697619965,0.07055664,-1.1426392,-0.28814697,5.453125,7.359375,6.21875
351,1697620005,-0.0859375,-1.1035767,-0.31011963,6.796875,-22.828125,-1.171875
352,1697620045,-0.3894043,-1.2268677,-0.05279541,-3.46875,-21.453125,-7.875
353,1697620085,-0.3618164,-0.8171997,-0.0647583,-9.359375,-3.5,3.0625
354,1697620125,-0.17333984,-0.63165283,-0.117004395,-5.78125,-3.140625,3.546875
355,1697620165,-0.1965332,-0.67974854,0.00970459,-1.875,-5.625,3.78125
356,1697620205,-0.18408203,-0.7527466,0.05340576,-0.375,1.9375,4.921875
357,1697620245,-0.2175293,-0.69317627,0.08758545,2.21875,2.296875,5.953125
358,1697620285,-0.2746582,-0.7449341,0.04827881,3.421875,1.796875,3.484375
359,1697620325,-0.4050293,-1.0918579,0.2321167,1.390625,8.140625,-5.6875
360,1697620365,-0.21899414,-1.192688,-0.007873535,-1.421875,9.359375,-5.703125
361,1697620405,-0.27172852,-1.2788696,0.30877686,-7.0625,-4.390625,-4.75
362,1697620445,-0.55859375,-1.1724243,-0.13336182,-16.5,-9.46875,-8.59375
363,1697620485,-0.24194336,-1.005188,-0.77130127,2.78125,-2.625,-1.328125
364,1697620525,-0.4753418,-1.1533813,-0.11236572,16.8125,0.5625,-3.90625
365,1697620565,-0.4140625,-1.3245239,-0.07989502,1.328125,21.5625,2.90625
366,1697620605,-0.27124023,-0.9649048,-0.105773926,2.375,19.421875,2.71875
367,1697620645,-0.1640625,-0.6326294,-0.02154541,3.1875,14.34375,7.484375
368,1697620685,-0.15136719,-0.54107666,-0.070617676,3.421875,1.8125,5.984375
369,1697620725,-0.27612305,-0.64849854,-0.0635376,2.9375,-1.390625,3.09375
370,1697620765,-0.34106445,-0.6819458,-0.0335083,1.046875,-1.546875,4.59375
371,1697620805,-0.3310547,-0.725647,-0.053527832,0.984375,-3.046875,4.65625
372,1697620845,-0.4375,-1.0708618,0.003112793,-1.0,-6.609375,-3.3125
373,1697620885,-0.53564453,-1.2197876,0.109802246,-3.90625,-1.5,-2.578125
374,1697620925,-0.6191406,-1.3120728,0.2033081,-14.125,6.265625,-2.34375
375,1697620965,-0.24975586,-1.5708618,-0.12042236,-8.25,10.078125,-7.28125
376,1697621005,0.064208984,-1.125061,-0.37677002,1.921875,12.234375,11.734375
377,1697621045,-0.07714844,-0.89312744,-0.26568604,2.796875,-21.03125,3.21875
378,1697621085,-0.3840332,-1.2351685,-0.16534424,-4.71875,-11.890625,-7.359375
379,1697621125,-0.23486328,-0.89190674,-0.011047363,-13.609375,5.203125,1.859375
380,1697621165,-0.2536621,-0.5820923,-0.0725708,-11.0,2.734375,1.53125
381,1697621205,-0.1418457,-0.58477783,0.014587402,-1.453125,2.09375,1.296875
382,1697621245,-0.18896484,-0.72198486,0.08538818,3.046875,1.484375,0.25
383,1697621285,-0.15356445,-0.73443604,0.09051514,2.9375,0.4375,0.71875
384,1697621325,-0.2919922,-0.82037354,0.19866943,1.890625,2.421875,-0.75
385,1697621365,-0.36254883,-0.9351196,0.22210693,-4.25,3.9375,-6.921875
386,1697621405,-0.37524414,-1.2476196,0.15594482,-0.59375,10.828125,-8.515625
387,1697621445,-0.38500977,-1.2307739,0.2538452,-8.109375,-0.96875,-10.4375
388,1697621485,-0.5917969,-1.1668091,0.24066162,-14.625,1.84375,-8.296875
389,1697621525,-0.29223633,-1.2473755,-0.38336182,-12.328125,0.15625,-8.4375
390,1697621565,-0.2626953,-0.94903564,-0.43414307,0.765625,-3.5625,2.875
391,1697621605,-0.5439453,-1.2288208,0.039489746,1.859375,16.796875,4.8125
392,1697621645,-0.2409668,-1.024231,-0.055725098,1.390625,14.953125,0.875
393,1697621685,-0.18237305,-0.90875244,0.020446777,9.640625,8.40625,7.34375
394,1697621725,-0.21362305,-0.6609497,0.0036010742,7.015625,5.109375,8.390625
395,1697621765,-0.26708984,-0.70025635,-0.062316895,4.21875,2.984375,4.9375
396,1697621805,-0.3400879,-0.67022705,0.019714355,3.671875,3.421875,3.359375
397,1697621845,-0.29370117,-0.6848755,0.061950684,2.328125,7.484375,3.5
398,1697621885,-0.25219727,-0.7341919,0.058776855,0.296875,0.46875,3.921875
399,1697621925,-0.3659668,-1.0730591,0.0036010742,3.078125,-15.625,0.390625
400,1697621965,-0.6364746,-1.2139282,0.27850342,5.015625,-5.265625,3.984375
401,1697622005,-0.5397949,-1.2017212,0.1564331,-8.78125,7.828125,1.1875
402,1697622045,-0.1484375,-1.3157349,-0.07354736,-6.578125,-1.5625,-4.28125
403,1697622085,0.12036133,-1.1096802,-0.32696533,5.359375,-8.4375,3.015625
404,1697622125,-0.046142578,-1.2630005,-0.2390747,5.75,-27.921875,5.3125
405,1697622165,-0.3413086,-1.2324829,-0.030822754,-4.546875,-19.09375,-1.90625
406,1697622205,-0.29614258,-0.8862915,-0.014709473,-7.03125,-8.359375,1.890625
407,1697622245,-0.19165039,-0.55792236,-0.043029785,-2.59375,-7.609375,5.09375
408,1697622285,-0.20336914,-0.5913696,0.005065918,5.21875,-9.640625,1.9375
409,1697622325,-0.23486328,-0.7647095,0.105895996,5.390625,-2.453125,0.15625
410,1697622365,-0.1616211,-0.7124634,0.11273193,3.890625,4.984375,2.609375
411,1697622405,-0.2175293,-0.7485962,0.066589355,3.234375,-2.328125,1.609375
412,1697622445,-0.38012695,-1.0574341,0.2543335,1.578125,4.09375,-6.859375
413,1697622485,-0.26098633,-1.2156372,0.15618896,-2.53125,10.015625,-5.921875
414,1697622525,-0.26367188,-1.3235474,0.2633667,-9.953125,-4.28125,-4.796875
415,1697622565,-0.5817871,-1.2866821,-0.33892822,-13.96875,-8.359375,-2.0
416,1697622605,-0.24267578,-0.97662354,-0.88653564,11.453125,-3.375,3.640625
417,1697622645,-0.5991211,-1.6138306,0.20916748,19.390625,6.09375,3.65625
418,1697622685,-0.20874023,-1.0784302,-0.18023682,1.65625,24.90625,7.28125
419,1697622725,-0.2109375,-0.80059814,-0.05987549,12.46875,16.78125,9.09375
420,1697622765,-0.087646484,-0.5303345,-0.04083252,5.5625,14.4375,9.09375
421,1697622805,-0.10620117,-0.52593994,-0.07720947,9.171875,2.71875,7.65625
422,1697622845,-0.2734375,-0.6992798,-0.06329346,4.34375,-2.828125,2.625
423,1697622885,-0.4230957,-0.7996216,-0.020080566,0.703125,-0.765625,2.046875
424,1697622925,-0.39086914,-0.87872314,0.007751465,-2.90625,2.90625,1.546875
425,1697622965,-0.35986328,-1.104065,-0.014221191,-4.734375,-3.296875,-1.34375
426,1697623005,-0.6286621,-1.2756958,0.086120605,-3.328125,2.671875,-3.453125
427,1697623045,-0.52856445,-1.2442017,-0.03643799,-8.109375,13.203125,-4.015625
428,1697623085,-0.18945312,-1.4746704,-0.30914307,-0.546875,16.421875,-4.359375
429,1697623125,0.20336914,-1.0532837,-0.62164307,9.421875,-0.125,7.171875
430,1697623165,0.075927734,-1.2417603,-0.10626221,12.296875,-26.65625,-0.9375
431,1697623205,-0.38867188,-1.0784302,-0.025939941,-6.171875,-9.390625,4.03125
432,1697623245,-0.19750977,-0.73321533,-0.23297119,-6.9375,1.28125,6.015625
433,1697623285,-0.13891602,-0.5881958,-0.06427002,1.65625,-7.171875,1.796875
434,1697623325,-0.18261719,-0.8323364,0.094177246,0.125,-3.90625,-1.203125
435,1697623365,-0.12475586,-0.74346924,0.028259277,-2.15625,-1.0,1.15625
436,1697623405,-0.17700195,-0.7268677,0.09881592,-0.78125,-2.859375,1.125
437,1697623445,-0.23583984,-0.7258911,0.04925537,-2.34375,-6.15625,1.109375
438,1697623485,-0.35009766,-1.0574341,0.109069824,-2.53125,-0.328125,-6.328125
439,1697623525,-0.36401367,-1.3381958,0.101989746,-4.859375,4.234375,-12.71875
440,1697623565,-0.44970703,-1.3677368,0.26361084,-15.0625,2.421875,-12.421875
441,1697623605,-0.19970703,-1.5405884,-0.5869751,-9.125,-8.640625,-8.75
442,1697623645,-0.20458984,-0.769104,-0.36773682,12.375,-9.953125,6.484375
443,1697623685,-0.62768555,-1.40802,-0.002746582,7.1875,20.046875,-1.71875
444,1697623725,0.021484375,-1.0288696,-0.18609619,1.078125,17.78125,2.8125
445,1697623765,-0.27929688,-0.78692627,-0.078430176,9.203125,9.15625,8.875
446,1697623805,-0.21020508,-0.5425415,-0.09210205,2.140625,14.0,5.078125
447,1697623845,-0.15332031,-0.5420532,-0.10675049,5.71875,2.515625,4.171875
448,1697623885,-0.265625,-0.6765747,-0.031066895,1.53125,-1.6875,0.75
449,1697623925,-0.34326172,-0.72540283,0.05999756,-2.234375,4.484375,-0.578125
450,1697623965,-0.39819336,-0.8357544,0.018981934,-5.765625,5.34375,1.421875
451,1697624005,-0.3635254,-1.0891724,-0.00592041,-5.671875,0.109375,-4.484375
452,1697624045,-0.53881836,-1.2017212,0.16107178,-6.859375,-6.1875,-5.046875
453,1697624085,-0.5678711,-1.4390259,0.0040893555,-8.140625,8.890625,-6.203125
454,1697624125,-0.048583984,-1.342102,-0.42218018,-0.328125,29.65625,4.859375
455,1697624165,0.33129883,-1.0073853,-0.64263916,6.484375,-25.015625,5.65625
456,1697624205,-0.56103516,-1.500061,0.027770996,1.421875,-24.5625,-9.84375
457,1697624245,-0.16870117,-0.92388916,-0.14996338,-9.984375,5.40625,6.640625
458,1697624285,-0.15258789,-0.64801025,-0.03326416,-5.171875,-2.625,7.640625
459,1697624325,-0.21020508,-0.5108032,0.043884277,-3.671875,-7.421875,2.1875
460,1697624365,-0.16088867,-0.6668091,0.014099121,1.484375,-1.3125,1.328125
461,1697624405,-0.23413086,-0.68341064,0.10223389,2.4375,4.671875,0.875
462,1697624445,-0.21069336,-0.7542114,0.066833496,1.859375,7.546875,0.265625
463,1697624485,-0.26831055,-0.9155884,0.13201904,-0.03125,2.375,-5.890625
464,1697624525,-0.46850586,-1.2810669,0.18328857,1.78125,17.109375,-6.09375
465,1697624565,-0.26708984,-1.3560181,0.08050537,-8.09375,6.1875,-8.0
466,1697624605,-0.576416,-1.3848267,-0.032287598,-6.984375,-7.03125,-8.78125
467,1697624645,-0.0769043,-1.1980591,-0.5471802,-7.03125,-12.625,-8.59375
468,1697624685,-0.41430664,-0.98809814,-0.08062744,8.546875,9.421875,4.703125
469,1697624725,-0.3215332,-1.1885376,-0.2913208,1.6875,22.078125,-3.546875
470,1697624765,-0.1730957,-0.91485596,-0.06939697,6.828125,6.59375,0.453125
471,1697624805,-0.3239746,-0.7451782,0.032409668,1.578125,9.71875,4.625
472,1697624845,-0.2163086,-0.5623169,-0.13555908,2.9375,9.6875,4.828125
473,1697624885,-0.21166992,-0.6524048,-0.12042236,5.625,4.25,2.265625
474,1697624925,-0.32641602,-0.69659424,0.0065307617,5.609375,2.125,2.0625
475,1697624965,-0.34838867,-0.75128174,0.008728027,3.234375,4.15625,3.828125
476,1697625005,-0.3491211,-0.88238525,0.0036010742,1.4375,1.796875,2.171875
477,1697625045,-0.40893555,-1.0933228,-0.0032348633,-3.015625,-2.5,-1.09375
478,1697625085,-0.70947266,-1.1951294,0.17132568,-3.75,-1.8125,-2.296875
479,1697625125,-0.46777344,-1.4448853,-0.08795166,-7.453125,12.015625,-2.921875
480,1697625165,0.0107421875,-1.3772583,-0.33843994,2.015625,11.953125,1.171875
481,1697625205,0.09008789,-0.90802,-0.52667236,5.015625,-9.5,12.140625
482,1697625245,-0.28295898,-1.2075806,-0.015686035,1.75,-27.890625,-5.890625
483,1697625285,-0.30419922,-0.9595337,0.027526855,-10.078125,-3.140625,4.859375
484,1697625325,-0.16992188,-0.5239868,-0.17926025,-10.03125,1.15625,2.578125
485,1697625365,-0.18676758,-0.6148071,-0.04864502,4.46875,-6.015625,-0.296875
486,1697625405,-0.19189453,-0.7703247,0.13031006,4.421875,-1.90625,1.21875
487,1697625445,-0.1315918,-0.7852173,0.051208496,3.109375,2.28125,1.671875
488,1697625485,-0.22192383,-0.736145,0.09490967,3.71875,0.8125,2.453125
489,1697625525,-0.25317383,-0.9151001,0.116882324,0.8125,-2.234375,-2.0
490,1697625565,-0.40429688,-1.2300415,0.2321167,1.71875,5.390625,-6.09375
491,1697625605,-0.44384766,-1.2051392,0.09832764,-0.609375,4.546875,-6.578125
492,1697625645,-0.4345703,-1.3828735,0.18792725,-4.4375,3.90625,-6.578125
493,1697625685,-0.30737305,-1.2625122,-0.49102783,-12.796875,0.859375,-9.28125
494,1697625725,-0.14160156,-0.7686157,-0.59454346,14.21875,-4.78125,3.625
495,1697625765,-0.47265625,-1.3709106,-0.11505127,10.5,8.109375,-1.546875
496,1697625805,-0.23779297,-1.0806274,-0.086242676,-0.265625,13.765625,-0.375
497,1697625845,-0.23852539,-0.831604,-0.11553955,2.125,9.09375,3.796875
498,1697625885,-0.15722656,-0.6135864,-0.11090088,1.5,4.765625,3.546875
499,1697625925,-0.17626953,-0.6790161,-0.1038208,3.359375,-6.90625,2.28125
500,1697625965,-0.31591797,-0.78741455,-0.007873535,0.703125,-8.734375,1.390625
501,1697626005,-0.35131836,-0.6482544,-0.03643799,-0.1875,-2.65625,4.4375
502,1697626045,-0.33618164,-0.7283325,-0.0017700195,1.828125,-3.734375,2.140625
503,1697626085,-0.38842773,-1.0274048,0.01776123,1.015625,-5.09375,-3.75
504,1697626125,-0.41601562,-1.1685181,0.032409668,-2.015625,-9.5,-3.859375
505,1697626165,-0.6147461,-1.2747192,0.168396,-11.46875,-0.75,-2.609375
506,1697626205,-0.328125,-1.3206177,-0.07281494,-25.6875,-3.65625,-6.859375
507,1697626245,0.014404297,-1.2410278,-0.48687744,-1.5625,1.625,2.71875
508,1697626285,-0.016601562,-1.085022,-0.4151001,7.65625,-13.3125,13.671875
509,1697626325,-0.40625,-1.1160278,-0.1675415,2.25,-18.75,-2.9375
510,1697626365,-0.35888672,-0.96173096,0.008239746,-6.28125,-2.953125,0.625
511,1697626405,-0.28222656,-0.5964966,-0.0881958,-7.125,5.5625,4.734375
512,1697626445,-0.13916016,-0.5935669,-0.024719238,2.265625,0.828125,2.421875
513,1697626485,-0.19262695,-0.81866455,0.05999756,2.90625,5.65625,2.078125
514,1697626525,-0.15185547,-0.74835205,0.06317139,1.796875,4.578125,3.28125
515,1697626565,-0.23950195,-0.6929321,0.05682373,1.046875,2.03125,3.1875
516,1697626605,-0.3864746,-0.99468994,0.18475342,0.546875,-1.6875,-6.6875
517,1697626645,-0.36743164,-1.2451782,0.066589355,-0.984375,15.859375,-3.6875
518,1697626685,-0.28320312,-1.3069458,0.15423584,-4.234375,1.09375,-7.90625
519,1697626725,-0.72021484,-1.2595825,0.014343262,-9.421875,-0.078125,-5.0625
520,1697626765,-0.1159668,-1.1853638,-0.62872314,-10.125,9.453125,-4.75
521,1697626805,-0.23486328,-0.8364868,-0.23883057,12.25,-0.265625,2.734375
522,1697626845,-0.5925293,-1.2319946,-0.023010254,3.84375,24.296875,-0.234375
523,1697626885,-0.17456055,-0.9998169,-0.13775635,3.578125,23.96875,2.953125
524,1697626925,-0.1850586,-0.7070923,-0.10357666,4.171875,9.765625,5.0
525,1697626965,-0.23095703,-0.6189575,-0.01739502,5.171875,5.453125,6.578125
526,1697627005,-0.2614746,-0.63067627,-0.06524658,3.65625,1.703125,4.953125
527,1697627045,-0.35913086,-0.6682739,-0.0071411133,2.828125,5.34375,2.65625
528,1697627085,-0.3154297,-0.7227173,-0.04034424,3.9375,7.28125,3.4375
529,1697627125,-0.36889648,-0.94000244,-0.08868408,4.25,-2.953125,-1.390625
530,1697627165,-0.38256836,-1.2749634,0.022155762,-0.046875,-3.765625,-4.515625
531,1697627205,-0.6203613,-1.2590942,0.06781006,-7.78125,-7.171875,-4.0
532,1697627245,-0.4831543,-1.6455688,-0.026184082,-4.03125,0.796875,-2.84375
533,1697627285,-0.122802734,-1.1375122,-0.22808838,-5.625,9.671875,4.78125
534,1697627325,0.11621094,-0.7168579,-0.43218994,2.765625,-11.203125,9.265625
535,1697627365,-0.3491211,-1.1502075,-0.038146973,1.296875,-24.421875,-6.09375
536,1697627405,-0.26831055,-0.92974854,0.029968262,-11.296875,-3.78125,-0.515625
537,1697627445,-0.114746094,-0.6824341,-0.15338135,-10.8125,-4.125,3.015625
538,1697627485,-0.16870117,-0.66192627,-0.0335083,-1.4375,-10.359375,-0.046875
539,1697627525,-0.2529297,-0.83599854,0.121520996,-0.5,-5.90625,-0.390625
540,1697627565,-0.22753906,-0.7686157,0.11517334,-2.6875,-1.171875,1.453125
541,1697627605,-0.25073242,-0.70562744,0.12591553,-1.984375,-3.984375,-0.3125
542,1697627645,-0.20385742,-0.8826294,0.06854248,-2.9375,-3.1875,-2.65625
543,1697627685,-0.33081055,-1.2063599,0.20794678,-1.3125,6.25,-2.53125
544,1697627725,-0.42407227,-1.111145,0.19989014,-10.484375,-2.578125,-4.953125
545,1697627765,-0.5461426,-1.2774048,-0.07501221,-10.96875,-0.03125,-5.546875
546,1697627805,-0.34594727,-1.0772095,-0.5967407,-9.328125,5.6875,-3.1875
547,1697627845,-0.34448242,-1.0991821,-0.21929932,13.421875,8.578125,4.0
548,1697627885,-0.39624023,-1.3230591,0.0004272461,5.328125,12.671875,5.234375
549,1697627925,-0.3527832,-0.9939575,-0.06329346,7.015625,18.453125,10.3125
550,1697627965,-0.25439453,-0.7029419,-0.097229004,9.0625,19.703125,9.5
551,1697628005,-0.14282227,-0.62042236,-0.08306885,11.453125,12.171875,7.9375
552,1697628045,-0.17504883,-0.6668091,-0.034729004,6.96875,3.46875,5.703125
553,1697628085,-0.25219727,-0.63067627,0.0004272461,4.703125,3.40625,5.140625
554,1697628125,-0.13769531,-0.65826416,-0.07696533,2.8125,-1.40625,5.609375
555,1697628165,-0.1953125,-0.9751587,-0.06768799,1.90625,-17.59375,-0.609375
556,1697628205,-0.5061035,-1.1939087,0.07342529,-0.765625,-19.21875,-3.515625
557,1697628245,-0.7219238,-1.1851196,0.18475342,-5.625,-9.046875,-0.71875
558,1697628285,-0.4880371,-1.5579224,-0.02130127,-4.078125,9.546875,-8.0625
559,1697628325,0.061523438,-1.31427,-0.26153564,-7.21875,10.328125,2.4375
560,1697628365,0.12915039,-0.87945557,-0.30499268,4.453125,-16.171875,6.28125
561,1697628405,-0.4267578,-1.2705688,-0.07623291,0.4375,-26.984375,-8.046875
562,1697628445,-0.25732422,-0.86187744,-0.06036377,-7.109375,-1.703125,0.1875
563,1697628485,-0.14526367,-0.6511841,-0.105773926,-4.15625,-4.546875,1.15625
564,1697628525,-0.12060547,-0.6453247,0.005554199,-0.171875,-11.171875,-0.28125
565,1697628565,-0.17895508,-0.75372314,0.06463623,0.015625,-5.71875,1.5
566,1697628605,-0.16796875,-0.65802,0.034362793,0.875,-5.65625,1.796875
567,1697628645,-0.25878906,-0.67852783,0.07098389,4.71875,-5.421875,0.3125
568,1697628685,-0.43579102,-0.9507446,0.21624756,1.96875,-5.09375,-5.953125
569,1697628725,-0.3659668,-1.1882935,0.038513184,2.640625,12.421875,-4.8125
570,1697628765,-0.25463867,-1.3115845,0.20550537,-1.984375,0.28125,-11.578125
571,1697628805,-0.52856445,-1.0586548,0.31341553,-20.671875,9.25,-6.640625
572,1697628845,-0.19946289,-1.0459595,-0.6135864,-10.40625,-0.703125,-6.34375
573,1697628885,-0.09887695,-1.3963013,-0.8381958,20.96875,-12.125,-3.265625
574,1697628925,-0.44580078,-1.7886353,0.13934326,4.40625,4.84375,-0.5625
575,1697628965,-0.25073242,-0.9468384,-0.06573486,-7.09375,12.890625,6.0
576,1697629005,-0.36865234,-0.66290283,-0.059143066,0.984375,14.546875,10.6875
577,1697629045,-0.16918945,-0.33917236,-0.1326294,6.296875,18.9375,8.75
578,1697629085,-0.1538086,-0.5269165,-0.04034424,9.84375,8.109375,5.265625
579,1697629125,-0.21875,-0.6670532,-0.078430176,5.53125,5.796875,5.171875
580,1697629165,-0.16259766,-0.755188,-0.0725708,3.984375,-1.890625,6.0
581,1697629205,-0.21972656,-0.99786377,0.007019043,2.734375,-12.625,1.96875
582,1697629245,-0.49536133,-1.2732544,0.097839355,-1.515625,-19.546875,-1.328125
583,1697629285,-0.7050781,-1.156311,0.16253662,-17.21875,2.953125,0.296875
584,1697629325,-0.12768555,-1.4448853,-0.26153564,-12.203125,-2.515625,-6.71875
585,1697629365,0.05102539,-1.4939575,-0.36114502,4.4375,3.5625,1.328125
586,1697629405,-0.17016602,-1.0462036,-0.36187744,-0.15625,-11.453125,4.84375
587,1697629445,-0.34057617,-1.2097778,-0.14483643,2.84375,-3.15625,-12.578125
588,1697629485,-0.22753906,-0.97442627,0.09466553,-9.484375,11.828125,-1.375
589,1697629525,-0.20922852,-0.44586182,-0.054260254,-13.28125,3.890625,1.53125
590,1697629565,-0.068847656,-0.4277954,-0.08062744,-3.90625,-2.890625,-3.171875
591,1697629605,-0.09765625,-0.7437134,0.027282715,-0.046875,-4.578125,-3.984375
592,1697629645,-0.1850586,-0.7593384,0.11859131,-1.484375,-2.640625,0.1875
593,1697629685,-0.29418945,-0.8870239,0.17938232,-1.328125,-0.1875,-0.125
594,1697629725,-0.33520508,-0.92266846,0.06390381,1.09375,6.234375,-0.484375
595,1697629765,-0.3022461,-1.3294067,0.15814209,1.6875,7.546875,-6.734375
596,1697629805,-0.53564453,-1.2319946,0.40716553,-20.484375,3.234375,-7.46875
597,1697629845,-0.45947266,-1.2258911,-0.37652588,-19.375,-6.484375,-10.078125
598,1697629885,-0.055664062,-1.2522583,-0.75616455,4.5,3.4375,1.640625
599,1697629925,-0.41503906,-1.3674927,-0.0256958,16.234375,5.234375,2.21875
600,1697629965,-0.48168945,-1.1958618,0.08416748,-1.078125,15.1875,0.328125
601,1697630005,-0.28320312,-0.88653564,-0.078430176,-6.046875,21.5625,2.734375
602,1697630045,-0.15551758,-0.57232666,-0.06500244,0.578125,12.4375,3.609375
603,1697630085,-0.19360352,-0.64508057,-0.019348145,2.46875,-0.25,2.078125
604,1697630125,-0.2980957,-0.6694946,0.03753662,-1.1875,2.84375,3.515625
605,1697630165,-0.28100586,-0.63653564,0.039489746,-1.953125,7.453125,4.359375
606,1697630205,-0.29541016,-0.63482666,0.023620605,-1.359375,1.828125,3.359375
607,1697630245,-0.32714844,-0.98883057,0.047302246,3.53125,-8.90625,0.46875
608,1697630285,-0.6164551,-1.1270142,0.17327881,2.546875,-7.546875,2.5
609,1697630325,-0.63623047,-1.208313,0.1317749,-7.0625,7.875,0.109375
610,1697630365,-0.095458984,-1.4033813,-0.33306885,9.28125,1.125,-7.140625
611,1697630405,0.375,-1.348938,-0.35577393,21.140625,-4.515625,7.890625
612,1697630445,-0.3762207,-1.4714966,-0.1963501,2.21875,-21.984375,1.953125
613,1697630485,-0.44262695,-1.2544556,0.023132324,-7.828125,-14.734375,-4.625
614,1697630525,-0.26416016,-0.7476196,-0.006164551,-15.21875,-0.078125,5.65625
615,1697630565,-0.1328125,-0.47808838,-0.0491333,-8.234375,-8.953125,2.625
616,1697630605,-0.19750977,-0.548645,0.06781006,-1.125,-4.28125,2.515625
617,1697630645,-0.17675781,-0.6477661,0.08441162,1.765625,1.140625,1.328125
618,1697630685,-0.20996094,-0.6096802,0.06317139,2.6875,-0.375,0.5625
619,1697630725,-0.23339844,-0.79229736,0.10223389,3.265625,-4.09375,-3.453125
620,1697630765,-0.41357422,-1.1619263,0.2008667,3.671875,9.0625,-5.828125
621,1697630805,-0.24487305,-1.2703247,0.10394287,-1.3125,0.6875,-10.28125
622,1697630845,-0.6364746,-1.3462524,0.3456421,-11.84375,-6.40625,-7.859375
623,1697630885,-0.3425293,-1.2102661,-0.3279419,-17.578125,-7.125,-11.3125
624,1697630925,-0.23999023,-1.0547485,-0.58843994,8.421875,-9.28125,1.28125
625,1697630965,-0.44189453,-1.3743286,-0.07281494,11.984375,8.015625,2.171875
626,1697631005,-0.40014648,-1.1900024,0.01776123,4.296875,16.765625,7.34375
627,1697631045,-0.2854004,-0.7966919,-0.109680176,5.125,21.953125,10.734375
628,1697631085,-0.09716797,-0.4968872,-0.144104,12.0625,14.234375,10.15625
629,1697631125,-0.12988281,-0.57696533,-0.047912598,14.46875,-1.765625,7.015625
630,1697631165,-0.33691406,-0.67755127,0.019958496,6.234375,1.828125,5.046875
631,1697631205,-0.2631836,-0.6633911,-0.051086426,3.25,6.578125,7.046875
632,1697631245,-0.26098633,-0.75787354,-0.04864502,4.296875,-2.53125,4.5
633,1697631285,-0.42089844,-1.1807251,-0.0037231445,0.546875,-10.84375,-4.71875
634,1697631325,-0.6113281,-1.2161255,0.12054443,-6.15625,-4.90625,-1.5625
635,1697631365,-0.4987793,-1.263977,-0.005432129,-11.53125,14.109375,-0.96875
636,1697631405,0.04321289,-1.4334106,-0.4661255,-0.5625,11.40625,-3.078125
637,1697631445,0.21313477,-1.144104,-0.46636963,10.640625,-20.796875,11.765625
638,1697631485,-0.30395508,-1.2737427,-0.12677002,-1.875,-29.34375,-3.65625
639,1697631525,-0.35839844,-1.1199341,-0.07550049,-9.46875,-9.921875,-2.8125
640,1697631565,-0.17480469,-0.71832275,-0.058654785,-9.0625,-2.296875,4.90625
641,1697631605,-0.15454102,-0.48931885,-0.046936035,-3.53125,-7.953125,2.109375
642,1697631645,-0.16455078,-0.6553345,0.012390137,2.953125,-4.96875,0.015625
643,1697631685,-0.18115234,-0.66851807,0.043151855,3.484375,-3.234375,0.390625
644,1697631725,-0.20410156,-0.6538696,0.08050537,3.71875,-0.96875,1.84375
645,1697631765,-0.29223633,-0.88238525,0.051940918,2.265625,-2.15625,-2.078125
646,1697631805,-0.25561523,-1.2356567,0.07733154,1.140625,5.390625,-7.078125
647,1697631845,-0.26513672,-1.3081665,0.14569092,-3.703125,-9.1875,-9.34375
648,1697631885,-0.6999512,-1.3648071,0.10491943,-16.0625,-5.90625,-8.03125
649,1697631925,-0.096191406,-1.2153931,-0.7827759,-9.140625,2.359375,-1.734375
650,1697631965,-0.32006836,-0.90582275,-0.24468994,11.375,3.921875,5.328125
651,1697632005,-0.44067383,-1.4243774,-0.07159424,1.015625,21.421875,1.078125
652,1697632045,-0.23461914,-0.9805298,-0.18927002,2.5625,23.234375,3.78125
653,1697632085,-0.24829102,-0.74420166,-0.08892822,3.375,22.078125,5.75
654,1697632125,-0.11987305,-0.6123657,-0.06890869,8.078125,10.921875,4.796875
655,1697632165,-0.19580078,-0.7402954,-0.06500244,4.109375,1.0625,4.671875
656,1697632205,-0.23779297,-0.59869385,-0.058410645,1.640625,1.015625,3.765625
657,1697632245,-0.23144531,-0.66290283,-0.06402588,2.46875,-0.4375,1.53125
658,1697632285,-0.27490234,-0.82525635,-0.0056762695,0.28125,-7.0,0.515625
659,1697632325,-0.4494629,-1.130188,0.049987793,-0.15625,-4.984375,-6.5625
660,1697632365,-0.5161133,-1.1826782,0.12615967,-11.5625,2.078125,-3.515625
661,1697632405,-0.41577148,-1.1243286,-0.0115356445,-20.46875,-3.0,-3.5625
662,1697632445,-0.017333984,-1.4812622,-0.34210205,-9.359375,-10.03125,-11.28125
663,1697632485,0.07446289,-1.3399048,-0.28936768,-3.46875,-3.59375,6.09375
664,1697632525,-0.16992188,-1.0706177,-0.39849854,-2.078125,-28.59375,0.34375
665,1697632565,-0.45385742,-1.2090454,-0.004699707,-3.296875,-18.21875,-9.28125
666,1697632605,-0.3425293,-0.7876587,-0.00030517578,-13.5,0.3125,2.6875
667,1697632645,-0.13916016,-0.5147095,-0.08013916,-6.28125,-1.265625,2.0625
668,1697632685,-0.21191406,-0.70513916,0.05999756,6.21875,-2.234375,0.734375
669,1697632725,-0.2319336,-0.6975708,0.14764404,0.59375,6.921875,2.25
670,1697632765,-0.21166992,-0.54278564,0.08001709,0.0,5.546875,0.265625
671,1697632805,-0.29052734,-0.78912354,0.1281128,1.578125,2.046875,-5.15625
672,1697632845,-0.39086914,-1.08844,0.14300537,-1.296875,13.1875,-6.078125
673,1697632885,-0.21069336,-1.2034302,0.07513428,0.84375,2.171875,-9.34375
674,1697632925,-0.72265625,-1.3721313,0.34100342,-12.59375,-4.84375,-6.65625
675,1697632965,-0.36889648,-1.4539185,-0.41119385,-18.515625,4.234375,-11.703125
676,1697633005,-0.27807617,-0.93707275,-0.4138794,4.1875,13.78125,7.65625
677,1697633045,-0.38354492,-1.284729,-6.1035156e-05,9.421875,11.0,1.109375
678,1697633085,-0.3544922,-1.0979614,0.042175293,4.6875,14.015625,3.09375
679,1697633125,-0.3154297,-0.835022,-0.105529785,5.578125,15.171875,5.59375
680,1697633165,-0.17114258,-0.6074829,-0.07281494,9.203125,12.484375,6.90625
681,1697633205,-0.23120117,-0.5977173,0.005065918,8.34375,5.15625,6.703125
682,1697633245,-0.30151367,-0.64556885,-0.0068969727,3.71875,8.078125,4.21875
683,1697633285,-0.2529297,-0.63653564,-0.027160645,4.015625,7.578125,4.75
684,1697633325,-0.25683594,-0.81866455,0.047302246,3.953125,3.796875,3.015625
685,1697633365,-0.2512207,-1.1184692,0.002380371,0.296875,-8.828125,1.8125
686,1697633405,-0.6972656,-1.1184692,0.078308105,1.296875,-13.65625,5.84375
687,1697633445,-0.6765137,-1.2651978,-0.04083252,-6.3125,13.671875,1.171875
688,1697633485,0.030273438,-1.5952759,-0.44439697,13.390625,10.046875,-1.765625
689,1697633525,0.3190918,-1.098938,-0.4517212,6.421875,-13.03125,22.328125
690,1697633565,-0.39208984,-1.2686157,-0.14459229,-6.765625,-27.421875,-8.203125
691,1697633605,-0.2163086,-1.0535278,-0.018615723,-10.140625,-6.203125,-0.484375
692,1697633645,-0.14501953,-0.68292236,-0.055725098,-13.1875,-3.71875,5.96875
693,1697633685,-0.13574219,-0.63848877,-0.02935791,-3.453125,-9.0625,1.125
694,1697633725,-0.19116211,-0.6914673,0.048034668,-1.0,-4.59375,1.515625
695,1697633765,-0.14868164,-0.64385986,0.06781006,2.53125,-1.53125,1.765625
696,1697633805,-0.19384766,-0.6421509,0.051696777,4.96875,-2.625,1.40625
697,1697633845,-0.23876953,-0.88946533,0.113220215,2.984375,-6.4375,-4.203125
698,1697633885,-0.40649414,-1.1585083,0.11590576,2.46875,8.046875,-4.453125
699,1697633925,-0.10473633,-1.2349243,0.04925537,0.125,1.25,-7.828125
700,1697633965,-0.52612305,-1.2659302,0.22113037,-12.609375,-5.3125,-6.671875
701,1697634005,-0.47216797,-1.2434692,-0.59259033,-14.125,1.84375,-10.296875
702,1697634045,-0.1652832,-0.96343994,-0.5166626,20.65625,7.078125,3.890625
703,1697634085,-0.34033203,-1.5454712,-0.06866455,7.4375,14.75,4.671875
704,1697634125,-0.3972168,-1.0112915,-0.0960083,1.078125,25.578125,6.4375
705,1697634165,-0.20751953,-0.7149048,-0.16827393,3.3125,19.875,3.53125
706,1697634205,-0.092041016,-0.57525635,-0.116760254,3.25,15.015625,5.71875
707,1697634245,-0.21289062,-0.6609497,-0.09552002,4.3125,0.796875,2.859375
708,1697634285,-0.3088379,-0.6914673,-0.030334473,1.984375,1.609375,2.171875
709,1697634325,-0.32080078,-0.6638794,-0.002746582,0.578125,3.84375,2.46875
710,1697634365,-0.24438477,-0.85479736,-0.027160645,-0.921875,0.96875,0.390625
711,1697634405,-0.37036133,-1.0606079,-0.06304932,-1.390625,-17.453125,-1.9375
712,1697634445,-0.67993164,-1.333313,0.14031982,-8.859375,-4.421875,-3.640625
713,1697634485,-0.2956543,-1.2280884,-0.11529541,-10.265625,14.53125,4.046875
714,1697634525,-0.20092773,-1.3440552,-0.12823486,0.28125,15.015625,-1.078125
715,1697634565,-0.020751953,-1.0720825,-0.48883057,2.890625,-14.328125,14.765625
716,1697634605,-0.33398438,-1.2212524,-0.12579346,0.71875,-15.453125,-0.8125
717,1697634645,-0.21655273,-0.9590454,-0.11114502,-3.828125,-0.046875,5.890625
718,1697634685,-0.16357422,-0.7283325,-0.017150879,-2.796875,-1.78125,5.078125
719,1697634725,-0.15356445,-0.6079712,-0.01373291,-1.140625,-3.53125,4.640625
720,1697634765,-0.21777344,-0.65582275,-0.01739502,4.3125,2.71875,2.703125
721,1697634805,-0.09033203,-0.7925415,-0.006652832,6.953125,4.1875,2.109375
722,1697634845,-0.20117188,-0.8130493,0.12860107,1.6875,1.796875,1.21875
723,1697634885,-0.31054688,-0.7251587,0.09197998,-2.984375,0.65625,-1.09375
724,1697634925,-0.25268555,-1.0869751,0.23919678,3.40625,6.15625,-7.21875
725,1697634965,-0.37817383,-1.319397,0.03338623,-0.828125,4.15625,-4.140625
726,1697635005,-0.38427734,-1.350647,0.29632568,-3.859375,-0.03125,-10.578125
727,1697635045,-0.17236328,-1.3567505,-0.49957275,-5.125,-1.890625,-12.625
728,1697635085,-0.16430664,-0.9417114,-0.36676025,6.90625,2.875,3.53125
729,1697635125,-0.5551758,-1.22052,-0.07940674,-1.078125,20.265625,-3.375
730,1697635165,-0.16235352,-1.1257935,-0.17877197,0.9375,16.140625,-7.734375
731,1697635205,-0.15966797,-0.9585571,-0.1482544,2.421875,9.84375,3.125
732,1697635245,-0.21948242,-0.6292114,-0.09576416,3.65625,6.375,5.1875
733,1697635285,-0.23632812,-0.64068604,-0.08111572,5.96875,2.9375,1.59375
734,1697635325,-0.24316406,-0.6760864,-0.028381348,5.53125,5.546875,2.0625
735,1697635365,-0.25268555,-0.64190674,-0.008605957,7.109375,3.40625,3.46875
736,1697635405,-0.24414062,-0.7546997,0.015808105,3.203125,4.234375,4.171875
737,1697635445,-0.27661133,-0.9714966,0.05731201,-3.9375,-1.09375,-2.40625
738,1697635485,-0.4675293,-1.102356,0.058776855,-5.546875,-8.15625,-2.734375
739,1697635525,-0.62768555,-1.2437134,0.1630249,-18.0625,3.25,-2.84375
740,1697635565,-0.021484375,-1.671936,-0.4192505,-2.53125,10.171875,-8.78125
741,1697635605,0.13134766,-1.5379028,-0.378479,8.890625,-4.046875,10.046875
742,1697635645,-0.16308594,-1.1079712,-0.30718994,-1.21875,-32.84375,-0.28125
743,1697635685,-0.49682617,-1.1177368,-0.023742676,-11.296875,-10.875,-5.1875
744,1697635725,-0.13256836,-0.5845337,-0.08526611,-15.46875,2.703125,4.28125
745,1697635765,-0.12426758,-0.42852783,-0.039367676,-4.84375,-5.796875,0.96875
746,1697635805,-0.21484375,-0.6934204,0.089538574,2.265625,-3.734375,-1.46875
747,1697635845,-0.13256836,-0.76153564,0.035095215,-0.640625,2.703125,-1.171875
748,1697635885,-0.17700195,-0.7268677,0.0680542,1.3125,-0.546875,1.203125
749,1697635925,-0.29077148,-0.8513794,0.18231201,-3.078125,-7.796875,-4.03125
