,timestamp,accel_x,accel_y,accel_z,gyro_x,gyro_y,gyro_z
0,1697605965,-0.12524414,-0.9470825,0.37371826,-0.421875,-0.171875,-0.125
1,1697606005,-0.12158203,-0.9546509,0.35101318,-2.359375,0.34375,-0.671875
2,1697606045,-0.13452148,-0.9475708,0.3768921,-1.3125,0.46875,-0.046875
3,1697606085,-0.123535156,-0.94781494,0.3751831,-0.21875,-0.6875,-0.140625
4,1697606125,-0.12597656,-0.954895,0.36029053,-1.75,0.0625,-0.34375
5,1697606165,-0.12719727,-0.9546509,0.36175537,-0.859375,-0.75,-0.15625
6,1697606205,-0.110839844,-0.94781494,0.3690796,-1.25,-0.359375,-0.421875
7,1697606245,-0.13598633,-0.9495239,0.36932373,-1.484375,0.28125,-0.359375
8,1697606285,-0.13012695,-0.93878174,0.36297607,-0.390625,-0.546875,0.0
9,1697606325,-0.12963867,-0.9475708,0.35906982,-0.6875,-0.484375,0.140625
10,1697606365,-0.11694336,-0.9512329,0.37420654,-0.25,-0.765625,-0.09375
11,1697606405,-0.119384766,-0.9404907,0.35736084,1.171875,-1.53125,-0.15625
12,1697606445,-0.13061523,-0.9463501,0.3571167,-0.875,-2.0,0.0625
13,1697606485,-0.13208008,-0.9429321,0.3739624,0.25,-1.203125,0.1875
14,1697606525,-0.125,-0.9463501,0.36102295,1.296875,-1.484375,0.328125
15,1697606565,-0.12011719,-0.9470825,0.33685303,-1.609375,-1.625,-0.234375
16,1697606605,-0.12402344,-0.95440674,0.37738037,0.703125,-0.03125,0.171875
17,1697606645,-0.13085938,-0.94854736,0.36346436,0.46875,-0.4375,-0.125
18,1697606685,-0.12963867,-0.94195557,0.35076904,0.203125,-0.8125,-0.0625
19,1697606725,-0.13378906,-0.954895,0.3600464,0.53125,0.265625,0.109375
20,1697606765,-0.123046875,-0.9536743,0.35980225,-0.1875,-0.109375,-0.046875
21,1697606805,-0.1328125,-0.94122314,0.3522339,0.21875,0.109375,0.1875
22,1697606845,-0.12133789,-0.9636841,0.3451538,0.28125,-0.609375,0.0625
23,1697606885,-0.123046875,-0.9561157,0.35565186,-0.125,0.578125,-0.4375
24,1697606925,-0.12890625,-0.9463501,0.3517456,-0.1875,0.078125,-0.078125
25,1697606965,-0.12866211,-0.9578247,0.35247803,0.53125,-0.4375,0.234375
26,1697607005,-0.14111328,-0.95098877,0.34710693,-0.71875,0.40625,0.0
27,1697607045,-0.13012695,-0.9534302,0.338562,-0.734375,0.03125,-0.296875
28,1697607085,-0.12670898,-0.96343994,0.3534546,0.234375,1.21875,-0.296875
29,1697607125,-0.12402344,-0.9619751,0.33294678,-0.78125,-0.0625,-0.609375
30,1697607165,-0.12207031,-0.95147705,0.34320068,-2.0625,0.71875,-0.53125
31,1697607205,-0.12451172,-0.9541626,0.3546753,0.6875,0.546875,-0.4375
32,1697607245,-0.13085938,-0.94000244,0.3451538,-0.453125,0.15625,-0.46875
33,1697607285,-0.13232422,-0.9512329,0.33758545,-1.34375,0.359375,-0.234375
34,1697607325,-0.1171875,-0.97247314,0.35076904,-1.40625,-0.21875,-0.53125
35,1697607365,-0.12719727,-0.9522095,0.34344482,-1.390625,0.484375,-0.78125
36,1697607405,-0.12939453,-0.9546509,0.35272217,-1.25,0.078125,-0.4375
37,1697607445,-0.12597656,-0.96343994,0.35443115,-1.6875,-0.4375,-0.859375
38,1697607485,-0.13867188,-0.9487915,0.3468628,-2.109375,0.5625,-0.71875
39,1697607525,-0.12475586,-0.9522095,0.3554077,-2.34375,-0.453125,-0.21875
40,1697607565,-0.12695312,-0.95684814,0.36395264,-2.640625,0.578125,-0.625
41,1697607605,-0.12939453,-0.95391846,0.35882568,-2.078125,0.46875,-0.4375
42,1697607645,-0.13012695,-0.9463501,0.36297607,-1.875,0.328125,-0.453125
43,1697607685,-0.13061523,-0.9607544,0.36419678,-1.34375,0.015625,-0.140625
44,1697607725,-0.123046875,-0.94000244,0.34979248,-2.640625,0.078125,-0.640625
45,1697607765,-0.13867188,-0.95806885,0.37078857,-1.5625,1.140625,-0.125
46,1697607805,-0.13500977,-0.95880127,0.37445068,-0.046875,0.328125,-0.0625
47,1697607845,-0.12939453,-0.94903564,0.35321045,-1.515625,0.359375,-0.5625
48,1697607885,-0.12695312,-0.95513916,0.36175537,-0.5,0.40625,-0.015625
49,1697607925,-0.123046875,-0.9524536,0.36468506,-0.46875,0.3125,-0.578125
50,1697607965,-0.13085938,-0.9456177,0.36151123,-0.515625,0.65625,-0.125
51,1697608005,-0.13354492,-0.94903564,0.3607788,-0.109375,-0.3125,-0.125
52,1697608045,-0.12573242,-0.9492798,0.355896,-0.046875,0.359375,-0.515625
53,1697608085,-0.1381836,-0.9534302,0.36395264,0.203125,0.28125,-0.140625
54,1697608125,-0.13208008,-0.9500122,0.35443115,-0.03125,-0.15625,-0.234375
55,1697608165,-0.13598633,-0.9500122,0.35784912,-0.734375,0.21875,-0.078125
56,1697608205,-0.12524414,-0.9429321,0.35882568,-0.828125,0.0,-0.5
57,1697608245,-0.12963867,-0.94244385,0.355896,1.734375,0.90625,0.265625
58,1697608285,-0.12792969,-0.96099854,0.34100342,-2.4375,0.171875,-0.375
59,1697608325,-0.125,-0.95758057,0.3710327,0.203125,1.71875,-0.53125
60,1697608365,-0.12719727,-0.9458618,0.36151123,1.0625,-0.15625,-0.109375
61,1697608405,-0.12548828,-0.95196533,0.3475952,-0.921875,-0.15625,-0.078125
62,1697608445,-0.13012695,-0.96539307,0.35980225,-0.171875,0.125,-0.140625
63,1697608485,-0.11791992,-0.9470825,0.35516357,0.1875,-0.078125,-0.109375
64,1697608525,-0.12915039,-0.94537354,0.34783936,-0.8125,-0.03125,0.0
65,1697608565,-0.12719727,-0.95977783,0.35198975,-0.140625,0.0,-0.03125
66,1697608605,-0.12817383,-0.9487915,0.354187,0.203125,-0.3125,-0.0625
67,1697608645,-0.12939453,-0.95318604,0.35150146,-0.453125,-0.59375,-0.09375
68,1697608685,-0.12646484,-0.954895,0.34832764,-1.09375,-0.5625,-0.140625
69,1697608725,-0.12597656,-0.9585571,0.36029053,-0.890625,0.1875,-0.34375
70,1697608765,-0.12695312,-0.9312134,0.3529663,-0.03125,-0.859375,0.015625
71,1697608805,-0.13085938,-0.96417236,0.3468628,0.03125,-0.40625,0.34375
72,1697608845,-0.12182617,-0.95806885,0.34490967,-2.0625,0.328125,-0.578125
73,1697608885,-0.12915039,-0.95147705,0.35931396,-0.34375,0.5,-0.21875
74,1697608925,-0.13427734,-0.9595337,0.36224365,-0.015625,-0.515625,-0.234375
75,1697608965,-0.12866211,-0.9522095,0.34588623,-1.0625,0.640625,-0.234375
76,1697609005,-0.122558594,-0.95440674,0.35028076,-0.046875,0.515625,-0.015625
77,1697609045,-0.1171875,-0.9561157,0.34124756,-0.734375,0.09375,-0.46875
78,1697609085,-0.123535156,-0.9458618,0.34588623,-1.40625,0.140625,-0.28125
79,1697609125,-0.13134766,-0.9522095,0.35394287,-0.5,0.21875,-0.171875
80,1697609165,-0.12988281,-0.9495239,0.3505249,-0.53125,-0.265625,-0.21875
81,1697609205,-0.13232422,-0.9446411,0.35247803,-0.171875,-0.09375,-0.046875
82,1697609245,-0.13330078,-0.9624634,0.3505249,-0.484375,0.484375,0.109375
83,1697609285,-0.12207031,-0.9553833,0.3456421,-0.40625,1.1875,-0.15625
84,1697609325,-0.12988281,-0.9434204,0.36419678,-0.328125,0.71875,-0.25
85,1697609365,-0.12695312,-0.9649048,0.33880615,-0.28125,-0.390625,-0.28125
86,1697609405,-0.1262207,-0.9536743,0.34661865,-1.953125,0.765625,-0.734375
87,1697609445,-0.14208984,-0.9541626,0.36444092,0.65625,0.140625,-0.015625
88,1697609485,-0.1274414,-0.95025635,0.3378296,-1.125,0.125,-0.421875
89,1697609525,-0.12719727,-0.95928955,0.34710693,-1.140625,1.140625,-0.625
90,1697609565,-0.12939453,-0.96539307,0.34661865,0.53125,-0.046875,-0.234375
91,1697609605,-0.11645508,-0.9475708,0.35638428,-1.1875,0.46875,-0.5625
92,1697609645,-0.125,-0.9585571,0.34466553,-0.34375,0.71875,-0.46875
93,1697609685,-0.13110352,-0.940979,0.34295654,0.296875,-0.734375,-0.15625
94,1697609725,-0.12719727,-0.9607544,0.34710693,-1.09375,-0.359375,-0.15625
95,1697609765,-0.11987305,-0.96099854,0.34246826,-0.328125,0.0,-0.59375
96,1697609805,-0.12915039,-0.95098877,0.3451538,-0.890625,0.28125,-0.390625
97,1697609845,-0.13085938,-0.95880127,0.34661865,-0.734375,0.09375,-0.109375
98,1697609885,-0.13110352,-0.9524536,0.36102295,0.0625,0.609375,-0.359375
99,1697609925,-0.12207031,-0.9558716,0.31732178,-1.8125,-0.4375,-0.640625
100,1697609965,-0.12548828,-0.9590454,0.35687256,-1.140625,0.28125,-0.1875
101,1697610005,-0.13769531,-0.9612427,0.35687256,0.125,-0.15625,-0.203125
102,1697610045,-0.12768555,-0.94903564,0.3336792,-1.5,0.046875,-0.46875
103,1697610085,-0.13427734,-0.94854736,0.34490967,-1.34375,0.171875,-0.1875
104,1697610125,-0.12866211,-0.96295166,0.3451538,0.21875,-0.5,-0.125
105,1697610165,-0.122802734,-0.9475708,0.3505249,-1.40625,0.390625,-0.390625
106,1697610205,-0.13183594,-0.9607544,0.3493042,0.296875,-0.3125,0.125
107,1697610245,-0.1274414,-0.9602661,0.34124756,-0.84375,-0.078125,-0.046875
108,1697610285,-0.12646484,-0.9421997,0.3480835,-0.296875,0.5625,0.109375
109,1697610325,-0.12548828,-0.9534302,0.3414917,-0.625,0.390625,-0.203125
110,1697610365,-0.13110352,-0.9624634,0.34735107,-0.6875,0.484375,0.0
111,1697610405,-0.12597656,-0.956604,0.34100342,-0.953125,0.34375,-0.34375
112,1697610445,-0.12866211,-0.95880127,0.35321045,-0.09375,0.390625,-0.296875
113,1697610485,-0.118652344,-0.95513916,0.33685303,-1.359375,-0.859375,-0.5
114,1697610525,-0.12890625,-0.95318604,0.35687256,-1.234375,0.828125,-0.40625
115,1697610565,-0.13232422,-0.9590454,0.35638428,0.640625,0.0,0.046875
116,1697610605,-0.12890625,-0.9546509,0.33514404,-1.6875,0.46875,-0.640625
117,1697610645,-0.12866211,-0.96173096,0.34466553,-0.96875,0.359375,-0.25
118,1697610685,-0.12182617,-0.96295166,0.34783936,0.328125,-0.234375,-0.15625
119,1697610725,-0.12768555,-0.9561157,0.3468628,-1.21875,0.03125,-0.453125
120,1697610765,-0.13134766,-0.95440674,0.34832764,-0.140625,-0.546875,-0.21875
121,1697610805,-0.13085938,-0.95684814,0.34490967,-0.484375,-0.390625,-0.375
122,1697610845,-0.13427734,-0.9561157,0.34368896,-0.65625,0.046875,-0.375
123,1697610885,-0.123535156,-0.95196533,0.34075928,-0.390625,-0.21875,-0.34375
124,1697610925,-0.12988281,-0.9507446,0.33807373,-0.953125,0.4375,-0.09375
125,1697610965,-0.12573242,-0.9500122,0.34710693,-0.8125,0.59375,-0.25
126,1697611005,-0.1328125,-0.96099854,0.34295654,-0.203125,0.015625,-0.34375
127,1697611045,-0.12646484,-0.9573364,0.36468506,-0.3125,0.125,-0.234375
128,1697611085,-0.12231445,-0.9590454,0.34075928,-0.15625,-0.921875,-0.3125
129,1697611125,-0.11694336,-0.93927,0.3361206,-0.296875,0.71875,-0.40625
130,1697611165,-0.14013672,-0.9614868,0.35028076,2.125,-0.171875,0.21875
131,1697611205,-0.12915039,-0.94854736,0.34466553,-0.5625,-0.015625,-0.265625
132,1697611245,-0.12866211,-0.958313,0.3378296,-0.796875,0.640625,-0.125
133,1697611285,-0.13354492,-0.9673462,0.34368896,1.53125,-0.09375,0.046875
134,1697611325,-0.12719727,-0.9553833,0.33050537,-0.375,0.015625,-0.484375
135,1697611365,-0.13110352,-0.95147705,0.338562,-0.546875,0.328125,-0.328125
136,1697611405,-0.12695312,-0.96588135,0.3348999,-0.65625,0.203125,-0.46875
137,1697611445,-0.13085938,-0.95880127,0.3397827,-0.671875,0.125,-0.578125
138,1697611485,-0.12866211,-0.96221924,0.33758545,-0.1875,-0.03125,-0.453125
139,1697611525,-0.12646484,-0.96099854,0.32757568,-0.921875,-0.09375,-0.34375
140,1697611565,-0.1274414,-0.95269775,0.3361206,-1.203125,0.78125,-0.75
141,1697611605,-0.123291016,-0.958313,0.33099365,-0.71875,0.71875,-0.625
142,1697611645,-0.14331055,-0.9602661,0.340271,0.203125,0.1875,-0.046875
143,1697611685,-0.12402344,-0.94317627,0.3378296,0.15625,0.25,-0.0625
144,1697611725,-0.12841797,-0.96539307,0.32659912,0.046875,0.609375,0.15625
145,1697611765,-0.13452148,-0.95977783,0.338562,1.375,0.40625,0.640625
146,1697611805,-0.12866211,-0.9546509,0.30682373,-2.140625,-0.546875,-0.1875
147,1697611845,-0.14038086,-0.96881104,0.3427124,-0.796875,-0.359375,0.421875
148,1697611885,-0.12402344,-0.9661255,0.33538818,0.890625,-1.484375,0.703125
149,1697611925,-0.11303711,-0.954895,0.33026123,-1.375,0.09375,0.234375
150,1697611965,-0.11743164,-0.96173096,0.32269287,-0.25,-0.734375,0.203125
151,1697612005,-0.12182617,-0.9746704,0.32489014,1.109375,-1.421875,0.359375
152,1697612045,-0.119628906,-0.9558716,0.33514404,-1.21875,-0.71875,-0.515625
153,1697612085,-0.13256836,-0.9678345,0.3336792,-1.0,0.125,-0.34375
154,1697612125,-0.13085938,-0.95928955,0.3192749,-1.578125,1.421875,-0.765625
155,1697612165,-0.118652344,-0.95635986,0.32537842,-1.59375,0.4375,-0.921875
156,1697612205,-0.12988281,-0.9656372,0.33099365,-1.421875,0.21875,-0.546875
157,1697612245,-0.12768555,-0.9524536,0.3390503,-1.703125,0.90625,-0.734375
158,1697612285,-0.12841797,-0.9553833,0.33026123,-2.109375,1.890625,-0.75
159,1697612325,-0.13842773,-0.95880127,0.32781982,-2.375,1.46875,-0.453125
160,1697612365,-0.11767578,-0.95513916,0.32489014,-3.625,0.453125,-1.140625
161,1697612405,-0.111816406,-0.96051025,0.33514404,-1.84375,1.1875,-0.8125
162,1697612445,-0.115478516,-0.9446411,0.35247803,0.03125,-0.53125,-0.578125
163,1697612485,-0.114990234,-0.9522095,0.33758545,0.828125,-0.828125,-0.15625
164,1697612525,-0.12133789,-0.9470825,0.33148193,-2.375,-0.25,-1.0625
165,1697612565,-0.13647461,-0.95562744,0.35980225,1.109375,0.109375,-0.375
166,1697612605,-0.14233398,-0.95098877,0.33294678,0.109375,-0.734375,-0.125
167,1697612645,-0.12548828,-0.95147705,0.32611084,-2.03125,-0.375,-1.3125
168,1697612685,-0.14135742,-0.9692993,0.34417725,1.609375,-0.34375,-0.328125
169,1697612725,-0.1237793,-0.9595337,0.33294678,0.3125,-0.890625,-0.453125
170,1697612765,-0.1184082,-0.9536743,0.3300171,-1.03125,-0.546875,-1.25
171,1697612805,-0.13208008,-0.97003174,0.3439331,0.125,-0.4375,-1.015625
172,1697612845,-0.14501953,-0.960022,0.32366943,-1.59375,-1.3125,-1.25
173,1697612885,-0.14501953,-0.9487915,0.3336792,-1.28125,-0.953125,-1.046875
174,1697612925,-0.14794922,-0.956604,0.33758545,-1.140625,-0.15625,-0.984375
175,1697612965,-0.14648438,-0.9512329,0.32928467,-1.015625,0.28125,-0.78125
176,1697613005,-0.14282227,-0.95269775,0.34100342,-0.671875,0.046875,-1.171875
177,1697613045,-0.15478516,-0.9507446,0.33709717,-0.53125,0.515625,-0.984375
178,1697613085,-0.15478516,-0.97076416,0.32928467,-1.140625,0.453125,-1.3125
179,1697613125,-0.15551758,-0.95440674,0.34490967,0.390625,0.90625,-1.390625
180,1697613165,-0.14379883,-0.9639282,0.32440186,-1.515625,-0.09375,-1.40625
181,1697613205,-0.14208984,-0.95635986,0.33953857,-2.9375,1.09375,-1.96875
182,1697613245,-0.15478516,-0.9541626,0.35858154,-0.5625,1.078125,-1.734375
183,1697613285,-0.15698242,-0.9644165,0.33392334,-2.078125,0.703125,-1.46875
184,1697613325,-0.13549805,-0.9470825,0.3300171,-3.265625,-0.578125,-2.25
185,1697613365,-0.14355469,-0.95806885,0.35198975,-0.703125,-0.03125,-1.765625
186,1697613405,-0.15454102,-0.95318604,0.34881592,-0.171875,-2.921875,-0.671875
187,1697613445,-0.15527344,-0.9727173,0.33636475,-0.765625,-2.0625,-0.40625
188,1697613485,-0.15307617,-0.9561157,0.33880615,-0.515625,-1.78125,-0.296875
189,1697613525,-0.1472168,-0.9390259,0.3468628,-0.9375,-0.71875,-0.765625
190,1697613565,-0.17822266,-0.954895,0.35662842,0.0625,-0.53125,-0.078125
191,1697613605,-0.16870117,-0.95318604,0.35028076,0.15625,-0.75,-0.078125
192,1697613645,-0.15795898,-0.95928955,0.31365967,-0.25,1.6875,-0.0625
193,1697613685,-0.14379883,-0.9614868,0.31976318,-1.25,1.890625,-0.328125
194,1697613725,-0.13989258,-0.96759033,0.3163452,-0.984375,1.78125,-0.703125
195,1697613765,-0.13549805,-0.95684814,0.32025146,-1.046875,1.203125,-0.53125
196,1697613805,-0.1352539,-0.96881104,0.31707764,-0.84375,0.359375,-0.265625
197,1697613845,-0.13842773,-0.96661377,0.3209839,-0.265625,-0.296875,-0.0625
198,1697613885,-0.13500977,-0.95513916,0.3065796,-2.296875,-0.671875,-0.390625
199,1697613925,-0.1340332,-0.96099854,0.31951904,-2.578125,-0.046875,-0.5
200,1697613965,-0.14355469,-0.95196533,0.33831787,0.96875,0.140625,-0.5
201,1697614005,-0.15698242,-0.9678345,0.29608154,-1.578125,-1.234375,0.09375
202,1697614045,-0.13256836,-0.95928955,0.31488037,-2.515625,-1.5625,-0.46875
203,1697614085,-0.14746094,-0.9573364,0.3241577,0.1875,-0.34375,-0.40625
204,1697614125,-0.14550781,-0.9480591,0.3180542,-0.875,-1.234375,-0.234375
205,1697614165,-0.14233398,-0.96588135,0.32269287,-1.21875,-1.546875,-0.078125
206,1697614205,-0.13964844,-0.9570923,0.32269287,0.234375,-1.21875,-0.546875
207,1697614245,-0.15844727,-0.9553833,0.3078003,-2.90625,-0.765625,-0.078125
208,1697614285,-0.14624023,-0.9595337,0.3234253,-1.671875,0.359375,-0.46875
209,1697614325,-0.15014648,-0.9624634,0.31610107,0.109375,0.0625,-0.03125
210,1697614365,-0.14575195,-0.95928955,0.31365967,-1.046875,0.15625,-0.21875
211,1697614405,-0.1538086,-0.9602661,0.324646,-1.328125,0.984375,-0.34375
212,1697614445,-0.15112305,-0.9585571,0.31903076,-1.921875,1.171875,-0.46875
213,1697614485,-0.140625,-0.95440674,0.32122803,-0.546875,0.328125,0.078125
214,1697614525,-0.14770508,-0.9558716,0.3319702,0.671875,0.765625,0.375
215,1697614565,-0.13305664,-0.96588135,0.3065796,-0.9375,0.140625,-0.265625
216,1697614605,-0.14477539,-0.9558716,0.31414795,-2.0,1.0625,-1.15625
217,1697614645,-0.15112305,-0.95391846,0.338562,1.5625,1.6875,-0.125
218,1697614685,-0.15209961,-0.9590454,0.32147217,0.890625,-0.171875,0.25
219,1697614725,-0.14428711,-0.9651489,0.30804443,-0.9375,0.3125,-0.375
220,1697614765,-0.14672852,-0.95806885,0.3222046,0.625,0.8125,-0.28125
221,1697614805,-0.13354492,-0.95513916,0.3143921,0.015625,0.390625,-0.1875
222,1697614845,-0.1508789,-0.96221924,0.31121826,-1.03125,0.578125,-0.328125
223,1697614885,-0.14282227,-0.95513916,0.31951904,0.453125,0.25,0.0625
224,1697614925,-0.14111328,-0.9651489,0.31488037,-0.5,-0.265625,-0.125
225,1697614965,-0.14746094,-0.95928955,0.3180542,-0.71875,-0.359375,-0.296875
226,1697615005,-0.14404297,-0.9678345,0.30804443,-0.90625,0.359375,-0.09375
227,1697615045,-0.14379883,-0.9651489,0.31658936,-0.90625,0.390625,-0.484375
228,1697615085,-0.15039062,-0.9541626,0.31878662,-0.5,0.25,-0.359375
229,1697615125,-0.14355469,-0.97125244,0.31097412,-1.15625,0.375,-0.421875
230,1697615165,-0.14160156,-0.9524536,0.32684326,0.140625,0.421875,-0.71875
231,1697615205,-0.14355469,-0.95880127,0.30169678,-1.515625,-0.03125,-0.671875
232,1697615245,-0.14379883,-0.9663696,0.31488037,-2.328125,0.484375,-0.8125
233,1697615285,-0.1508789,-0.9649048,0.3373413,0.15625,0.890625,-0.46875
234,1697615325,-0.13964844,-0.9585571,0.31170654,-1.40625,0.15625,-0.5
235,1697615365,-0.1430664,-0.9595337,0.31341553,-1.890625,0.375,-0.859375
236,1697615405,-0.14770508,-0.96954346,0.3192749,-0.609375,-0.03125,-0.484375
237,1697615445,-0.1394043,-0.9522095,0.32489014,-1.421875,0.265625,-0.71875
238,1697615485,-0.15332031,-0.95513916,0.31072998,-1.40625,0.5625,-0.328125
239,1697615525,-0.1538086,-0.96051025,0.324646,-0.734375,-0.671875,-0.3125
240,1697615565,-0.14501953,-0.9546509,0.32489014,-1.203125,-0.125,-0.734375
241,1697615605,-0.15112305,-0.9570923,0.32122803,-1.28125,0.140625,-0.53125
242,1697615645,-0.15161133,-0.9636841,0.322937,-1.171875,-0.09375,-0.734375
243,1697615685,-0.15405273,-0.9585571,0.32684326,-1.46875,0.78125,-0.75
244,1697615725,-0.15551758,-0.95440674,0.32440186,-1.765625,1.25,-1.09375
245,1697615765,-0.16235352,-0.9578247,0.3234253,-1.984375,0.96875,-1.265625
246,1697615805,-0.1550293,-0.9639282,0.31951904,-0.4375,0.78125,-1.078125
247,1697615845,-0.15209961,-0.9446411,0.31878662,-3.65625,1.890625,-1.75
248,1697615885,-0.15942383,-0.95806885,0.3427124,-0.734375,2.09375,-1.25
249,1697615925,-0.17041016,-0.95806885,0.32635498,-1.078125,2.203125,-1.046875
250,1697615965,-0.14672852,-0.95880127,0.3217163,-2.8125,1.484375,-1.234375
251,1697616005,-0.15673828,-0.9541626,0.3439331,-1.234375,0.890625,-0.8125
252,1697616045,-0.15429688,-0.9536743,0.33880615,-1.53125,0.421875,-0.46875
253,1697616085,-0.15014648,-0.94854736,0.33709717,-1.65625,0.75,-1.078125
254,1697616125,-0.16430664,-0.94488525,0.34124756,-0.28125,0.28125,-0.78125
255,1697616165,-0.16381836,-0.95635986,0.33465576,-1.03125,0.15625,-0.8125
256,1697616205,-0.16113281,-0.96099854,0.340271,-1.46875,0.046875,-1.15625
257,1697616245,-0.16040039,-0.9492798,0.34490967,-1.328125,-0.546875,-0.8125
258,1697616285,-0.16210938,-0.944397,0.3451538,-0.921875,0.234375,-0.453125
259,1697616325,-0.17382812,-0.9495239,0.33514404,-1.59375,0.78125,-0.59375
260,1697616365,-0.16918945,-0.95440674,0.3361206,-1.484375,-0.59375,-0.421875
261,1697616405,-0.15673828,-0.95635986,0.34466553,-0.4375,0.0625,0.203125
262,1697616445,-0.15429688,-0.94000244,0.3312378,-3.59375,0.375,-0.453125
263,1697616485,-0.16088867,-0.9480591,0.35809326,-1.25,-0.328125,0.015625
264,1697616525,-0.16186523,-0.95562744,0.34490967,-0.65625,-0.640625,0.375
265,1697616565,-0.16113281,-0.9307251,0.33709717,-2.703125,-0.59375,-0.625
266,1697616605,-0.19165039,-0.9524536,0.3632202,-1.6875,0.078125,0.359375
267,1697616645,-0.16772461,-0.97125244,0.35687256,-1.125,-1.421875,0.546875
268,1697616685,-0.16381836,-0.93878174,0.3529663,-1.671875,-0.015625,-0.171875
269,1697616725,-0.15698242,-0.927063,0.3493042,-0.9375,-0.203125,0.40625
270,1697616765,-0.1616211,-0.9619751,0.34783936,-1.421875,-0.203125,0.234375
271,1697616805,-0.16430664,-0.9495239,0.36053467,-1.421875,-1.4375,0.0
272,1697616845,-0.16210938,-0.9468384,0.3600464,-1.734375,-1.546875,0.234375
273,1697616885,-0.15893555,-0.9480591,0.36883545,-1.40625,-1.265625,0.296875
274,1697616925,-0.16918945,-0.93536377,0.3468628,-1.546875,-0.796875,0.4375
275,1697616965,-0.15844727,-0.9463501,0.34588623,-1.921875,-1.296875,0.40625
276,1697617005,-0.16552734,-0.9451294,0.3703003,-0.15625,-0.4375,0.1875
277,1697617045,-0.15527344,-0.93634033,0.3463745,-3.046875,-1.421875,0.015625
278,1697617085,-0.15209961,-0.9595337,0.3866577,-1.109375,-0.5,0.359375
279,1697617125,-0.16040039,-0.95318604,0.37298584,-0.296875,-1.640625,0.015625
280,1697617165,-0.16040039,-0.9404907,0.3456421,-1.984375,-0.6875,0.03125
281,1697617205,-0.16235352,-0.95758057,0.36590576,-1.34375,-1.1875,0.34375
282,1697617245,-0.1538086,-0.94732666,0.3607788,-0.59375,-1.421875,0.203125
283,1697617285,-0.16040039,-0.94854736,0.36688232,-1.8125,-0.515625,0.203125
284,1697617325,-0.1586914,-0.9512329,0.37298584,-0.0625,-0.9375,0.78125
285,1697617365,-0.15356445,-0.94610596,0.35516357,-1.09375,-0.671875,0.6875
286,1697617405,-0.14746094,-0.9434204,0.3595581,-0.671875,-0.03125,0.546875
287,1697617445,-0.15283203,-0.9421997,0.36029053,-0.25,-0.5,0.734375
288,1697617485,-0.1508789,-0.95098877,0.36663818,-0.53125,-0.109375,0.703125
289,1697617525,-0.15551758,-0.9458618,0.36029053,-0.078125,-0.328125,0.59375
290,1697617565,-0.14819336,-0.9522095,0.35614014,-0.78125,0.296875,0.203125
291,1697617605,-0.14648438,-0.94781494,0.371521,0.828125,0.21875,0.375
292,1697617645,-0.15014648,-0.9458618,0.3439331,-0.890625,-0.390625,-0.015625
293,1697617685,-0.15283203,-0.94000244,0.3619995,-1.859375,1.375,-0.25
294,1697617725,-0.15307617,-0.9507446,0.37200928,0.421875,1.203125,-0.078125
295,1697617765,-0.14794922,-0.9480591,0.35101318,-0.421875,1.265625,-0.265625
296,1697617805,-0.14819336,-0.94903564,0.3534546,-1.25,1.203125,-0.28125
297,1697617845,-0.14892578,-0.9585571,0.35687256,0.171875,1.421875,-0.0625
298,1697617885,-0.1484375,-0.93536377,0.35662842,-0.25,1.40625,-0.59375
299,1697617925,-0.15673828,-0.95025635,0.35125732,0.21875,1.3125,0.03125
300,1697617965,-0.14501953,-0.96466064,0.3571167,2.765625,-0.296875,-0.25
301,1697618005,-0.13989258,-0.95318604,0.34906006,1.828125,2.0625,-0.265625
302,1697618045,-0.14892578,-0.95098877,0.35125732,0.8125,1.359375,-0.25
303,1697618085,-0.14013672,-0.9470825,0.3451538,0.375,1.234375,-0.625
304,1697618125,-0.14526367,-0.954895,0.34295654,-0.453125,1.921875,-0.828125
305,1697618165,-0.15039062,-0.95513916,0.34295654,-0.25,1.21875,-0.46875
306,1697618205,-0.14111328,-0.95098877,0.35101318,0.375,1.421875,-0.640625
307,1697618245,-0.1418457,-0.95758057,0.33343506,1.03125,0.875,-0.421875
308,1697618285,-0.1418457,-0.956604,0.31756592,-2.3125,1.25,-1.1875
309,1697618325,-0.14868164,-0.958313,0.34954834,-0.171875,1.453125,-0.578125
310,1697618365,-0.14770508,-0.9663696,0.34173584,-0.03125,1.0625,-0.6875
311,1697618405,-0.14086914,-0.9434204,0.33807373,-1.09375,0.453125,-0.921875
312,1697618445,-0.16040039,-0.9619751,0.33172607,-1.453125,0.328125,-0.546875
313,1697618485,-0.1328125,-0.96466064,0.34344482,-1.1875,0.03125,-0.890625
314,1697618525,-0.13964844,-0.94366455,0.33880615,-1.0625,0.8125,-1.1875
315,1697618565,-0.15722656,-0.9553833,0.33807373,-0.59375,0.296875,-0.421875
316,1697618605,-0.15283203,-0.9585571,0.33441162,-0.25,0.328125,-0.484375
317,1697618645,-0.14941406,-0.9463501,0.34661865,-1.296875,0.78125,-0.53125
318,1697618685,-0.15356445,-0.9546509,0.33343506,-0.96875,0.390625,-0.34375
319,1697618725,-0.15185547,-0.9541626,0.34197998,-0.21875,-0.46875,-0.375
320,1697618765,-0.14990234,-0.9500122,0.33758545,-0.015625,0.015625,-0.5
321,1697618805,-0.15258789,-0.9636841,0.33807373,0.171875,-0.359375,-0.3125
322,1697618845,-0.15307617,-0.9627075,0.34832764,-0.046875,-0.3125,-0.265625
323,1697618885,-0.15014648,-0.940979,0.3554077,0.25,0.40625,-0.4375
324,1697618925,-0.15820312,-0.9649048,0.3295288,-1.6875,-0.0625,-0.421875
325,1697618965,-0.15771484,-0.9500122,0.3475952,-2.734375,-0.015625,-0.703125
326,1697619005,-0.15966797,-0.9512329,0.355896,-0.46875,0.40625,-0.265625
327,1697619045,-0.15722656,-0.95147705,0.33953857,-1.921875,0.265625,-0.609375
328,1697619085,-0.15161133,-0.9534302,0.33880615,-2.140625,0.28125,-0.765625
329,1697619125,-0.1628418,-0.9602661,0.35321045,-1.3125,0.203125,-0.34375
330,1697619165,-0.14672852,-0.94317627,0.355896,-1.96875,0.53125,-0.859375
331,1697619205,-0.15942383,-0.9483032,0.35369873,-1.46875,0.8125,-0.578125
332,1697619245,-0.15356445,-0.9570923,0.35150146,-1.65625,0.046875,-0.609375
333,1697619285,-0.16040039,-0.94854736,0.35736084,-1.875,0.671875,-0.65625
334,1697619325,-0.15942383,-0.944397,0.3522339,-1.09375,0.890625,-0.359375
335,1697619365,-0.15625,-0.9505005,0.35662842,-1.671875,1.03125,-0.375
336,1697619405,-0.15551758,-0.9470825,0.35980225,-1.8125,0.78125,-0.59375
337,1697619445,-0.15649414,-0.9468384,0.35760498,-2.0625,1.390625,-0.421875
338,1697619485,-0.15332031,-0.9595337,0.3600464,-1.5,0.84375,-0.1875
339,1697619525,-0.15356445,-0.9368286,0.37469482,-0.5625,1.0625,-0.59375
340,1697619565,-0.15356445,-0.9500122,0.3480835,-2.296875,0.828125,-0.390625
341,1697619605,-0.15722656,-0.94000244,0.3607788,-3.703125,1.578125,-0.65625
342,1697619645,-0.16479492,-0.9475708,0.3817749,0.609375,2.46875,-0.171875
343,1697619685,-0.15942383,-0.94122314,0.3595581,-1.140625,1.3125,-0.046875
344,1697619725,-0.15209961,-0.9439087,0.36639404,-1.890625,1.125,-0.4375
345,1697619765,-0.15209961,-0.954895,0.36224365,0.3125,0.734375,0.265625
346,1697619805,-0.1484375,-0.9487915,0.3571167,-0.3125,0.71875,-0.203125
347,1697619845,-0.1538086,-0.94415283,0.36761475,-0.3125,1.046875,-0.140625
348,1697619885,-0.15820312,-0.9480591,0.37542725,0.359375,-0.296875,0.15625
349,1697619925,-0.14868164,-0.9517212,0.36932373,-0.109375,0.234375,0.0
350,1697619965,-0.15161133,-0.94976807,0.36102295,0.109375,0.65625,-0.1875
351,1697620005,-0.14404297,-0.94903564,0.3612671,-0.203125,0.5,-0.140625
352,1697620045,-0.15234375,-0.9512329,0.3632202,-0.296875,0.484375,-0.203125
353,1697620085,-0.1496582,-0.94732666,0.3637085,0.0,0.25,-0.171875
354,1697620125,-0.15014648,-0.940979,0.35614014,-0.375,0.0625,-0.125
355,1697620165,-0.15942383,-0.95440674,0.3661499,1.671875,0.28125,0.28125
356,1697620205,-0.14331055,-0.9517212,0.34051514,-2.46875,-0.21875,-0.515625
357,1697620245,-0.14575195,-0.9492798,0.37200928,-0.140625,0.90625,-0.234375
358,1697620285,-0.15429688,-0.9451294,0.36419678,0.1875,-0.09375,-0.015625
359,1697620325,-0.1496582,-0.9456177,0.35443115,-1.59375,0.09375,-0.109375
360,1697620365,-0.14550781,-0.9495239,0.36712646,-0.75,0.015625,0.015625
361,1697620405,-0.14746094,-0.9570923,0.36346436,-0.71875,-0.1875,-0.0625
362,1697620445,-0.15063477,-0.944397,0.35980225,-1.515625,0.015625,-0.046875
363,1697620485,-0.14916992,-0.9451294,0.36956787,-0.6875,0.21875,-0.078125
364,1697620525,-0.15063477,-0.94000244,0.36273193,-0.9375,-0.3125,-0.03125
365,1697620565,-0.14379883,-0.9500122,0.36102295,-1.125,-0.015625,-0.296875
366,1697620605,-0.14868164,-0.95391846,0.3649292,-1.140625,-0.140625,-0.171875
367,1697620645,-0.14282227,-0.94903564,0.36053467,-0.921875,-0.046875,-0.34375
368,1697620685,-0.15258789,-0.940979,0.3571167,-0.984375,-0.125,-0.3125
369,1697620725,-0.15625,-0.95196533,0.3600464,-1.03125,-0.296875,-0.265625
370,1697620765,-0.15063477,-0.9468384,0.35882568,0.21875,0.328125,0.0625
371,1697620805,-0.13769531,-0.9451294,0.34906006,-3.09375,0.359375,-0.625
372,1697620845,-0.14770508,-0.94488525,0.3739624,-0.3125,1.4375,-0.03125
373,1697620885,-0.14746094,-0.9495239,0.36663818,-0.46875,0.375,0.0625
374,1697620925,-0.14404297,-0.94610596,0.35662842,-1.921875,0.46875,-0.109375
375,1697620965,-0.14624023,-0.95098877,0.36932373,-1.265625,0.171875,-0.3125
376,1697621005,-0.13891602,-0.94415283,0.36517334,-1.296875,0.671875,-0.046875
377,1697621045,-0.14257812,-0.9517212,0.3612671,-2.03125,1.1875,-0.421875
378,1697621085,-0.14282227,-0.9475708,0.37005615,-0.390625,0.359375,0.046875
379,1697621125,-0.1381836,-0.9495239,0.36541748,-1.125,0.6875,-0.0625
380,1697621165,-0.140625,-0.9512329,0.36639404,-1.4375,0.703125,-0.484375
381,1697621205,-0.1394043,-0.94781494,0.36590576,-0.890625,0.796875,-0.28125
382,1697621245,-0.1472168,-0.9492798,0.36590576,-1.671875,0.203125,-0.21875
383,1697621285,-0.14428711,-0.9483032,0.3768921,-1.65625,0.71875,-0.875
384,1697621325,-0.15209961,-0.94073486,0.37957764,-0.6875,0.84375,-0.90625
385,1697621365,-0.15649414,-0.95806885,0.35516357,-0.828125,0.421875,-0.46875
386,1697621405,-0.13452148,-0.9260864,0.35247803,-3.53125,-0.34375,-2.03125
387,1697621445,-0.15649414,-0.9390259,0.40081787,-0.546875,1.328125,-1.4375
388,1697621485,-0.17138672,-0.9500122,0.3842163,-0.0625,0.734375,-0.734375
389,1697621525,-0.1574707,-0.9368286,0.3624878,-1.75,1.09375,-0.90625
390,1697621565,-0.1459961,-0.94903564,0.37200928,-0.328125,0.9375,-0.640625
391,1697621605,-0.14233398,-0.9439087,0.37005615,-0.59375,0.40625,-0.4375
392,1697621645,-0.14526367,-0.9378052,0.37982178,-1.59375,0.640625,-0.890625
393,1697621685,-0.1538086,-0.94537354,0.37493896,-0.75,0.03125,-0.328125
394,1697621725,-0.15283203,-0.93414307,0.37738037,-1.734375,-0.40625,-0.796875
395,1697621765,-0.15161133,-0.94610596,0.3805542,-1.890625,0.375,-0.796875
396,1697621805,-0.14916992,-0.93707275,0.38446045,-1.046875,-0.15625,-0.515625
397,1697621845,-0.15405273,-0.9458618,0.3859253,-1.46875,-0.09375,-0.734375
398,1697621885,-0.15063477,-0.93463135,0.385437,-1.546875,-0.140625,-0.65625
399,1697621925,-0.14819336,-0.9319458,0.38885498,-2.3125,-1.046875,-1.046875
400,1697621965,-0.16259766,-0.9456177,0.38909912,0.0625,-0.59375,-0.4375
401,1697622005,-0.15405273,-0.9336548,0.36639404,-3.5,-0.640625,-1.34375
402,1697622045,-0.16015625,-0.94073486,0.3925171,-0.078125,0.8125,-0.9375
403,1697622085,-0.1706543,-0.9561157,0.38983154,-0.140625,0.21875,-0.296875
404,1697622125,-0.15820312,-0.9451294,0.37005615,-2.828125,-0.4375,-0.84375
405,1697622165,-0.14990234,-0.9312134,0.38519287,-1.0625,-0.140625,-0.984375
406,1697622205,-0.1652832,-0.94488525,0.3937378,-0.078125,0.625,-0.953125
407,1697622245,-0.16723633,-0.9307251,0.39056396,-0.203125,0.515625,-1.0625
408,1697622285,-0.15942383,-0.9192505,0.3912964,0.78125,-0.203125,-1.0
409,1697622325,-0.17089844,-0.94366455,0.38983154,0.890625,0.171875,-0.453125
410,1697622365,-0.16430664,-0.9470825,0.38006592,0.9375,-0.703125,-0.453125
411,1697622405,-0.15966797,-0.9404907,0.37493896,0.140625,-0.421875,-0.828125
412,1697622445,-0.17016602,-0.9385376,0.36956787,0.390625,-1.203125,-1.296875
413,1697622485,-0.17041016,-0.93585205,0.37713623,1.140625,0.234375,-0.96875
414,1697622525,-0.18530273,-0.9390259,0.37982178,1.078125,0.171875,-0.4375
415,1697622565,-0.17382812,-0.94732666,0.37249756,1.40625,0.171875,-0.296875
416,1697622605,-0.17456055,-0.93951416,0.3768921,2.890625,0.46875,-0.109375
417,1697622645,-0.17651367,-0.94537354,0.35076904,0.296875,-0.03125,-0.0625
418,1697622685,-0.17236328,-0.9451294,0.37347412,0.515625,1.296875,-0.421875
419,1697622725,-0.1665039,-0.9468384,0.3710327,2.703125,0.09375,-0.15625
420,1697622765,-0.16015625,-0.9500122,0.35931396,0.71875,-0.625,-0.421875
421,1697622805,-0.17700195,-0.9487915,0.36517334,0.09375,1.0,-0.390625
422,1697622845,-0.17138672,-0.95440674,0.3534546,1.53125,-0.015625,0.015625
423,1697622885,-0.15917969,-0.9429321,0.3534546,0.671875,-0.234375,-0.296875
424,1697622925,-0.1694336,-0.9517212,0.35247803,0.3125,-0.1875,0.078125
425,1697622965,-0.16821289,-0.96417236,0.35125732,0.84375,-0.78125,0.28125
426,1697623005,-0.16186523,-0.9546509,0.34613037,0.28125,-1.046875,0.234375
427,1697623045,-0.15161133,-0.94610596,0.33636475,-0.0625,-1.9375,-0.203125
428,1697623085,-0.16137695,-0.95513916,0.33929443,-0.078125,-2.28125,0.03125
429,1697623125,-0.15771484,-0.95269775,0.33441162,-1.21875,-2.21875,0.078125
430,1697623165,-0.17797852,-0.9602661,0.34783936,0.734375,-1.359375,0.796875
431,1697623205,-0.17407227,-0.9446411,0.3439331,0.265625,-1.734375,1.25
432,1697623245,-0.17260742,-0.96051025,0.32855225,-0.421875,-1.84375,1.03125
433,1697623285,-0.16772461,-0.9492798,0.35150146,2.421875,-0.078125,0.828125
434,1697623325,-0.16918945,-0.95025635,0.3217163,-0.171875,-1.0,0.53125
435,1697623365,-0.1821289,-0.94732666,0.32806396,-1.890625,-0.046875,-0.1875
436,1697623405,-0.1796875,-0.9561157,0.34881592,0.34375,2.078125,-0.125
437,1697623445,-0.1784668,-0.94195557,0.3300171,-1.890625,1.53125,-0.15625
438,1697623485,-0.17285156,-0.95196533,0.3348999,-1.640625,1.390625,-0.6875
439,1697623525,-0.17407227,-0.97491455,0.3390503,0.171875,1.921875,-0.296875
440,1697623565,-0.15185547,-0.9402466,0.33026123,-0.703125,1.390625,-0.59375
441,1697623605,-0.16040039,-0.9417114,0.33587646,-0.84375,2.46875,-1.28125
442,1697623645,-0.16479492,-0.9546509,0.3378296,-1.078125,2.46875,-0.625
443,1697623685,-0.15429688,-0.95269775,0.33514404,-1.40625,2.25,-0.8125
444,1697623725,-0.16503906,-0.95196533,0.33538818,-0.859375,1.9375,-0.90625
445,1697623765,-0.1743164,-0.95513916,0.34002686,-1.21875,2.25,-0.25
446,1697623805,-0.15771484,-0.95758057,0.33416748,-1.28125,2.765625,-0.234375
447,1697623845,-0.15917969,-0.95440674,0.34124756,-0.53125,2.625,-0.28125
448,1697623885,-0.15478516,-0.9385376,0.33538818,-1.078125,0.953125,-0.484375
449,1697623925,-0.15209961,-0.9585571,0.3571167,0.046875,1.640625,-0.5625
450,1697623965,-0.17016602,-0.95635986,0.34320068,0.984375,1.46875,0.125
451,1697624005,-0.1538086,-0.9468384,0.32781982,-2.40625,1.203125,-0.796875
452,1697624045,-0.16186523,-0.9492798,0.34539795,-1.625,1.109375,-0.46875
453,1697624085,-0.15844727,-0.95635986,0.3607788,-0.25,1.296875,-0.21875
454,1697624125,-0.15161133,-0.9529419,0.34368896,-2.109375,0.453125,-0.21875
455,1697624165,-0.16040039,-0.94781494,0.33441162,-2.671875,1.546875,-0.671875
456,1697624205,-0.15478516,-0.96051025,0.3505249,-0.03125,0.625,0.234375
457,1697624245,-0.14770508,-0.95147705,0.3493042,-1.4375,0.765625,-0.546875
458,1697624285,-0.17260742,-0.95025635,0.35198975,-1.890625,1.015625,0.140625
459,1697624325,-0.16064453,-0.9595337,0.3463745,-1.015625,0.25,0.125
460,1697624365,-0.15478516,-0.93878174,0.3468628,-1.765625,0.90625,-0.21875
461,1697624405,-0.15429688,-0.9522095,0.3554077,-1.40625,0.265625,-0.015625
462,1697624445,-0.15136719,-0.94073486,0.3607788,-0.546875,0.4375,0.359375
463,1697624485,-0.1550293,-0.94903564,0.34613037,-0.90625,1.234375,0.4375
464,1697624525,-0.15014648,-0.9517212,0.35394287,-0.890625,0.734375,0.46875
465,1697624565,-0.15039062,-0.95684814,0.35003662,0.328125,-0.25,0.4375
466,1697624605,-0.14624023,-0.95513916,0.3619995,3.421875,-0.53125,1.015625
467,1697624645,-0.14477539,-0.9434204,0.33416748,-0.78125,-0.84375,0.171875
468,1697624685,-0.14916992,-0.9541626,0.36419678,1.9375,0.578125,0.484375
469,1697624725,-0.14868164,-0.94659424,0.34222412,1.53125,-0.046875,0.59375
470,1697624765,-0.15039062,-0.94976807,0.32904053,-0.421875,-0.53125,0.125
471,1697624805,-0.15258789,-0.956604,0.34954834,0.5,-0.53125,-0.125
472,1697624845,-0.1538086,-0.9524536,0.34320068,0.3125,-0.90625,0.328125
473,1697624885,-0.15454102,-0.95977783,0.33563232,-0.5625,0.046875,-0.171875
474,1697624925,-0.15356445,-0.9524536,0.3378296,0.0,-0.3125,0.171875
475,1697624965,-0.14941406,-0.94488525,0.33319092,-0.734375,-0.21875,0.265625
476,1697625005,-0.14672852,-0.96539307,0.33929443,-0.90625,0.09375,-0.234375
477,1697625045,-0.1430664,-0.9607544,0.33685303,-0.125,-0.859375,-0.28125
478,1697625085,-0.14746094,-0.9500122,0.34100342,-1.25,0.296875,-0.140625
479,1697625125,-0.15576172,-0.9470825,0.340271,-0.5,-0.765625,-0.25
480,1697625165,-0.15283203,-0.9573364,0.34222412,-0.984375,-0.375,0.0
481,1697625205,-0.14672852,-0.9495239,0.3451538,0.25,-0.25,-0.015625
482,1697625245,-0.14331055,-0.9585571,0.3204956,-2.53125,-0.375,-0.484375
483,1697625285,-0.1484375,-0.96221924,0.34173584,-1.859375,0.578125,-0.421875
484,1697625325,-0.14941406,-0.95440674,0.3480835,-0.34375,0.546875,-0.140625
485,1697625365,-0.14526367,-0.94854736,0.3287964,-2.4375,0.203125,-0.484375
486,1697625405,-0.1459961,-0.95880127,0.3397827,-1.890625,-0.203125,-0.453125
487,1697625445,-0.13916016,-0.96832275,0.34466553,-0.921875,-0.625,-0.078125
488,1697625485,-0.13354492,-0.94195557,0.34246826,-1.859375,0.0,-0.515625
489,1697625525,-0.14794922,-0.9451294,0.33343506,-1.59375,-0.953125,-0.03125
490,1697625565,-0.15576172,-0.9627075,0.35272217,-1.65625,-0.859375,-0.21875
491,1697625605,-0.15185547,-0.94415283,0.34881592,-1.078125,-0.90625,0.140625
492,1697625645,-0.14892578,-0.94610596,0.34222412,-0.59375,-1.265625,0.265625
493,1697625685,-0.14990234,-0.956604,0.3517456,-0.546875,-1.609375,0.09375
494,1697625725,-0.14941406,-0.94976807,0.34613037,-0.8125,-1.078125,0.046875
495,1697625765,-0.15625,-0.9585571,0.33953857,-0.796875,-1.390625,0.015625
496,1697625805,-0.15356445,-0.96051025,0.3505249,0.515625,-0.5625,-0.015625
497,1697625845,-0.1418457,-0.9512329,0.32904053,-2.15625,-1.890625,-0.4375
498,1697625885,-0.14697266,-0.954895,0.3505249,-1.359375,-0.21875,-0.5625
499,1697625925,-0.16040039,-0.956604,0.35125732,-0.171875,-0.859375,-0.015625
500,1697625965,-0.1550293,-0.9512329,0.3414917,-2.40625,-0.53125,-0.46875
501,1697626005,-0.15527344,-0.95147705,0.34613037,-0.9375,-0.34375,-0.140625
502,1697626045,-0.14501953,-0.9541626,0.34881592,-0.328125,-0.921875,-0.25
503,1697626085,-0.15600586,-0.94976807,0.35003662,-1.34375,0.03125,-0.5625
504,1697626125,-0.15771484,-0.9500122,0.34954834,-0.4375,-0.1875,-0.15625
505,1697626165,-0.15576172,-0.9512329,0.3439331,-0.96875,-0.375,-0.625
506,1697626205,-0.15039062,-0.95440674,0.3444214,-1.0625,-0.015625,-0.5625
507,1697626245,-0.16235352,-0.9495239,0.35003662,0.015625,-0.46875,-0.609375
508,1697626285,-0.15795898,-0.9561157,0.3522339,-0.984375,-0.15625,-0.640625
509,1697626325,-0.15332031,-0.9417114,0.3505249,-0.625,-0.078125,-0.765625
510,1697626365,-0.16040039,-0.95440674,0.35443115,-0.953125,0.71875,-0.609375
511,1697626405,-0.1550293,-0.9651489,0.34490967,-0.609375,-0.046875,-0.1875
512,1697626445,-0.15356445,-0.94415283,0.33172607,-3.484375,0.0625,-1.046875
513,1697626485,-0.15917969,-0.9541626,0.3649292,-0.640625,0.921875,-0.71875
514,1697626525,-0.1640625,-0.9446411,0.3571167,-0.5,0.21875,-0.390625
515,1697626565,-0.15576172,-0.9470825,0.34222412,-1.78125,0.03125,-0.6875
516,1697626605,-0.1652832,-0.9507446,0.35272217,-0.90625,0.015625,-0.53125
517,1697626645,-0.14916992,-0.954895,0.34954834,-1.0625,-0.28125,-0.53125
518,1697626685,-0.15844727,-0.9451294,0.34954834,-1.078125,0.21875,-0.375
519,1697626725,-0.15917969,-0.9451294,0.35491943,0.34375,-0.34375,-0.171875
520,1697626765,-0.15649414,-0.9470825,0.33929443,-0.46875,-0.5,-0.28125
521,1697626805,-0.1586914,-0.94488525,0.34954834,-0.859375,0.53125,-0.53125
522,1697626845,-0.16845703,-0.956604,0.3505249,-0.78125,-0.765625,-0.09375
523,1697626885,-0.15478516,-0.9446411,0.35784912,-1.015625,-0.265625,-0.578125
524,1697626925,-0.16699219,-0.9602661,0.34295654,-0.90625,-0.078125,-0.265625
525,1697626965,-0.1586914,-0.9507446,0.36639404,0.53125,-0.75,-0.328125
526,1697627005,-0.16259766,-0.9356079,0.3451538,-0.28125,-0.671875,-0.421875
527,1697627045,-0.16064453,-0.9458618,0.34051514,-2.46875,-0.6875,-0.21875
528,1697627085,-0.1616211,-0.95318604,0.36151123,-0.421875,0.71875,-0.546875
529,1697627125,-0.16748047,-0.95098877,0.35150146,-0.25,-0.0625,-0.28125
530,1697627165,-0.16186523,-0.94854736,0.35003662,-0.8125,-0.140625,-0.375
531,1697627205,-0.1628418,-0.9570923,0.36053467,0.15625,-0.0625,-0.125
532,1697627245,-0.15698242,-0.93341064,0.3505249,-0.578125,-0.390625,-0.5
533,1697627285,-0.16967773,-0.95147705,0.3373413,-1.84375,0.5625,-0.03125
534,1697627325,-0.15307617,-0.95318604,0.35125732,-0.828125,-0.53125,-0.375
535,1697627365,-0.15771484,-0.94781494,0.3529663,-0.609375,-0.109375,0.015625
536,1697627405,-0.16992188,-0.95318604,0.3480835,-0.421875,-0.5,0.53125
537,1697627445,-0.15649414,-0.9470825,0.3493042,0.0,-0.046875,-0.0625
538,1697627485,-0.16235352,-0.9421997,0.34368896,-0.703125,0.1875,-0.359375
539,1697627525,-0.16870117,-0.94537354,0.3480835,-1.171875,0.265625,0.015625
540,1697627565,-0.16748047,-0.95196533,0.3607788,-0.25,-0.015625,0.171875
541,1697627605,-0.15722656,-0.9536743,0.33880615,-1.484375,0.90625,-0.25
542,1697627645,-0.16333008,-0.9524536,0.35906982,-1.84375,1.25,0.046875
543,1697627685,-0.16333008,-0.956604,0.36102295,-0.734375,1.46875,0.15625
544,1697627725,-0.15332031,-0.94122314,0.35247803,-1.796875,1.59375,0.453125
545,1697627765,-0.15258789,-0.9470825,0.35150146,-2.5625,1.359375,0.09375
546,1697627805,-0.1459961,-0.9541626,0.36395264,-1.875,0.953125,-0.03125
547,1697627845,-0.15722656,-0.94000244,0.3583374,-2.984375,0.65625,-0.53125
548,1697627885,-0.1640625,-0.94976807,0.36224365,-2.828125,0.65625,-0.0625
549,1697627925,-0.15136719,-0.9492798,0.36810303,-1.984375,0.09375,-0.28125
550,1697627965,-0.15478516,-0.9446411,0.36541748,-1.34375,1.234375,0.09375
551,1697628005,-0.15820312,-0.9480591,0.35784912,-0.984375,1.53125,-0.015625
552,1697628045,-0.15942383,-0.9480591,0.36346436,0.125,0.859375,0.46875
553,1697628085,-0.15209961,-0.94976807,0.3673706,0.0625,1.3125,0.28125
554,1697628125,-0.15307617,-0.95098877,0.3619995,0.1875,1.0,0.75
555,1697628165,-0.14575195,-0.94537354,0.37493896,1.4375,1.0625,0.625
556,1697628205,-0.14404297,-0.9456177,0.34661865,-0.890625,-0.25,0.265625
557,1697628245,-0.14013672,-0.9495239,0.36468506,-0.78125,1.125,0.078125
558,1697628285,-0.15478516,-0.9536743,0.37591553,1.359375,0.78125,0.1875
559,1697628325,-0.14941406,-0.95025635,0.3529663,-0.734375,-0.046875,0.3125
560,1697628365,-0.14355469,-0.94244385,0.35272217,-0.703125,-0.5,0.078125
561,1697628405,-0.14257812,-0.9619751,0.36639404,1.03125,-0.40625,0.40625
562,1697628445,-0.13793945,-0.94488525,0.3554077,-0.203125,-0.59375,-0.171875
563,1697628485,-0.1459961,-0.940979,0.3637085,-0.09375,-0.5625,0.078125
564,1697628525,-0.1459961,-0.9534302,0.34881592,-0.5625,-0.765625,0.25
565,1697628565,-0.14208984,-0.9512329,0.34539795,-1.09375,-0.703125,-0.28125
566,1697628605,-0.1472168,-0.94854736,0.35272217,-0.859375,-0.78125,-0.40625
567,1697628645,-0.14526367,-0.95562744,0.35003662,-0.59375,-0.875,-0.140625
568,1697628685,-0.14379883,-0.9529419,0.34881592,-1.34375,-0.171875,-0.46875
569,1697628725,-0.14160156,-0.9470825,0.3414917,-1.78125,-0.78125,-0.625
570,1697628765,-0.14941406,-0.9524536,0.3554077,0.296875,0.296875,-0.09375
571,1697628805,-0.13427734,-0.9483032,0.34124756,-3.265625,-0.484375,-0.765625
572,1697628845,-0.14404297,-0.95684814,0.36395264,-0.796875,0.609375,-0.5
573,1697628885,-0.14550781,-0.9507446,0.3600464,-0.15625,0.0625,-0.21875
574,1697628925,-0.1472168,-0.9429321,0.34979248,-1.96875,0.359375,-0.328125
575,1697628965,-0.1484375,-0.95196533,0.36151123,-0.84375,0.546875,-0.234375
576,1697629005,-0.1459961,-0.95098877,0.36224365,-0.953125,-0.0625,-0.359375
577,1697629045,-0.1484375,-0.9468384,0.355896,-1.0625,0.328125,-0.328125
578,1697629085,-0.1484375,-0.95391846,0.35882568,-0.40625,0.171875,-0.265625
579,1697629125,-0.14257812,-0.9429321,0.35858154,-1.03125,0.203125,-0.375
580,1697629165,-0.15185547,-0.9492798,0.355896,-0.75,0.453125,-0.3125
581,1697629205,-0.14746094,-0.9573364,0.35760498,-1.109375,0.828125,-0.109375
582,1697629245,-0.14135742,-0.9414673,0.3624878,-0.453125,1.109375,-0.21875
583,1697629285,-0.14282227,-0.9500122,0.35882568,-1.171875,0.484375,-0.359375
584,1697629325,-0.1430664,-0.9446411,0.3678589,-0.75,-0.375,-0.25
585,1697629365,-0.14404297,-0.9507446,0.3475952,-0.234375,0.328125,-0.15625
586,1697629405,-0.14257812,-0.9439087,0.34857178,-2.8125,0.359375,-0.5
587,1697629445,-0.14770508,-0.9404907,0.3817749,0.328125,0.71875,-0.1875
588,1697629485,-0.14526367,-0.954895,0.35491943,-1.125,0.625,-0.34375
589,1697629525,-0.13989258,-0.9534302,0.35198975,-1.78125,0.453125,-0.546875
590,1697629565,-0.14501953,-0.94537354,0.37078857,-0.15625,-0.078125,-0.1875
591,1697629605,-0.14355469,-0.94244385,0.3764038,-1.078125,-0.3125,-0.5625
592,1697629645,-0.14575195,-0.93878174,0.36932373,-1.15625,0.3125,-0.4375
593,1697629685,-0.14575195,-0.94781494,0.36175537,-0.5625,-0.265625,-0.421875
594,1697629725,-0.15112305,-0.94732666,0.3727417,-1.375,0.546875,-0.65625
595,1697629765,-0.14746094,-0.9470825,0.37200928,-0.859375,0.390625,-0.46875
596,1697629805,-0.1459961,-0.93927,0.36932373,-0.890625,-0.015625,-0.4375
597,1697629845,-0.14916992,-0.9517212,0.36444092,-1.453125,0.203125,-0.515625
598,1697629885,-0.14428711,-0.95196533,0.36468506,-1.0,0.734375,-0.609375
599,1697629925,-0.15527344,-0.9446411,0.38275146,-0.078125,0.421875,-0.578125
600,1697629965,-0.14697266,-0.9534302,0.35784912,-2.140625,-0.5625,-0.859375
601,1697630005,-0.15063477,-0.94317627,0.37786865,-1.75,1.375,-0.84375
602,1697630045,-0.15307617,-0.94244385,0.38250732,-0.40625,1.53125,-0.59375
603,1697630085,-0.15283203,-0.9468384,0.36566162,-2.046875,1.875,-0.640625
604,1697630125,-0.15478516,-0.93292236,0.37738037,-1.765625,1.1875,-0.859375
605,1697630165,-0.1538086,-0.9561157,0.38275146,-0.265625,1.28125,-0.25
606,1697630205,-0.15307617,-0.9336548,0.37249756,-1.03125,1.96875,-0.78125
607,1697630245,-0.1574707,-0.93927,0.37005615,-1.09375,1.5,-0.453125
608,1697630285,-0.15039062,-0.95880127,0.37225342,-0.953125,0.359375,-0.625
609,1697630325,-0.1496582,-0.9512329,0.39276123,-1.234375,0.53125,-0.765625
610,1697630365,-0.14916992,-0.9365845,0.37860107,-0.875,0.796875,-0.46875
611,1697630405,-0.15844727,-0.93951416,0.36663818,-0.90625,0.734375,-0.5625
612,1697630445,-0.15283203,-0.93341064,0.3788452,-0.984375,0.390625,-0.640625
613,1697630485,-0.15673828,-0.9439087,0.3764038,-0.828125,0.671875,-0.4375
614,1697630525,-0.15771484,-0.9480591,0.39300537,-0.109375,0.390625,-0.375
615,1697630565,-0.15014648,-0.9458618,0.36810303,-1.96875,-0.78125,-0.28125
616,1697630605,-0.1459961,-0.9414673,0.3847046,-2.078125,0.5625,-0.421875
617,1697630645,-0.15771484,-0.94000244,0.3895874,0.1875,0.046875,-0.109375
618,1697630685,-0.15600586,-0.9378052,0.37469482,-2.0,0.203125,-0.015625
619,1697630725,-0.1496582,-0.9456177,0.3727417,-2.15625,-0.265625,-0.1875
620,1697630765,-0.15307617,-0.9468384,0.38909912,0.046875,-0.125,0.125
621,1697630805,-0.14819336,-0.93292236,0.38031006,-1.828125,-0.53125,-0.484375
622,1697630845,-0.15405273,-0.94073486,0.38323975,-0.6875,0.140625,0.0
623,1697630885,-0.1538086,-0.9360962,0.37982178,-0.6875,-0.140625,-0.25
624,1697630925,-0.14453125,-0.94732666,0.3788452,-1.5625,-0.28125,-0.3125
625,1697630965,-0.15014648,-0.94903564,0.39056396,-1.03125,-0.453125,-0.15625
626,1697631005,-0.14990234,-0.9456177,0.38128662,-1.125,-0.015625,-0.234375
627,1697631045,-0.14868164,-0.9324341,0.37786865,-1.59375,0.15625,-0.40625
628,1697631085,-0.16064453,-0.94537354,0.38250732,-1.703125,-0.234375,-0.375
629,1697631125,-0.15332031,-0.93463135,0.3920288,-1.734375,-0.546875,-0.5
630,1697631165,-0.15112305,-0.9356079,0.385437,-0.609375,0.046875,-0.046875
631,1697631205,-0.15014648,-0.9351196,0.37664795,-3.40625,0.25,-0.75
632,1697631245,-0.16064453,-0.94366455,0.40374756,-0.328125,1.125,-0.484375
633,1697631285,-0.15893555,-0.94537354,0.39569092,-0.71875,1.390625,-0.421875
634,1697631325,-0.1538086,-0.9404907,0.37908936,-2.375,1.4375,-1.046875
635,1697631365,-0.15429688,-0.93927,0.40325928,-0.984375,1.171875,-0.765625
636,1697631405,-0.1484375,-0.93634033,0.3842163,-1.0,0.171875,-0.984375
637,1697631445,-0.15478516,-0.928772,0.3937378,-1.984375,0.71875,-1.34375
638,1697631485,-0.16259766,-0.9373169,0.39593506,-0.828125,-0.359375,-0.453125
639,1697631525,-0.16308594,-0.9402466,0.39031982,-1.46875,0.890625,-0.1875
640,1697631565,-0.14892578,-0.9246216,0.39227295,-1.828125,0.1875,-0.453125
641,1697631605,-0.16113281,-0.9336548,0.4015503,-1.0,0.375,0.1875
642,1697631645,-0.15014648,-0.9343872,0.4069214,-0.5625,0.15625,0.171875
643,1697631685,-0.15478516,-0.92852783,0.39520264,0.703125,0.125,0.3125
644,1697631725,-0.14428711,-0.92852783,0.3829956,0.015625,-1.109375,-0.015625
645,1697631765,-0.14746094,-0.94000244,0.3866577,-0.484375,-0.875,-0.359375
646,1697631805,-0.1706543,-0.944397,0.41912842,1.8125,-0.78125,0.234375
647,1697631845,-0.15966797,-0.9336548,0.37738037,-1.078125,-2.203125,-0.078125
648,1697631885,-0.15698242,-0.93634033,0.402771,-1.203125,0.625,-0.390625
649,1697631925,-0.15991211,-0.9487915,0.40545654,1.265625,0.09375,-0.0625
650,1697631965,-0.15893555,-0.9307251,0.3847046,-0.75,-1.40625,-0.125
651,1697632005,-0.15112305,-0.93707275,0.38641357,-1.59375,-1.859375,-0.46875
652,1697632045,-0.16113281,-0.95098877,0.3937378,-0.140625,-1.234375,-0.234375
653,1697632085,-0.15795898,-0.93756104,0.39178467,-2.109375,-0.421875,-0.984375
654,1697632125,-0.16455078,-0.93585205,0.39154053,-0.609375,-0.953125,-0.671875
655,1697632165,-0.16186523,-0.9397583,0.38372803,-0.796875,-1.8125,-0.75
656,1697632205,-0.16479492,-0.9368286,0.38226318,-0.546875,-1.328125,-0.578125
657,1697632245,-0.16796875,-0.9326782,0.3866577,-0.671875,-1.171875,-0.21875
658,1697632285,-0.16870117,-0.94073486,0.39398193,-0.265625,-1.609375,0.0
659,1697632325,-0.16625977,-0.9326782,0.39642334,-0.25,-0.625,0.265625
660,1697632365,-0.16845703,-0.9302368,0.38323975,-1.015625,-0.546875,0.140625
661,1697632405,-0.15966797,-0.93292236,0.35906982,-2.484375,-1.03125,-1.1875
662,1697632445,-0.16772461,-0.94781494,0.4064331,0.734375,-1.984375,-1.578125
663,1697632485,-0.17993164,-0.9417114,0.38372803,-1.671875,0.078125,-1.390625
664,1697632525,-0.16137695,-0.9241333,0.39544678,-1.0625,1.3125,-1.78125
665,1697632565,-0.17407227,-0.9390259,0.39666748,1.296875,1.1875,-1.171875
666,1697632605,-0.17456055,-0.95562744,0.38128662,0.234375,0.828125,-0.75
667,1697632645,-0.16040039,-0.93096924,0.38201904,-0.546875,0.625,-1.109375
668,1697632685,-0.15600586,-0.9446411,0.38372803,1.328125,-0.21875,-0.671875
669,1697632725,-0.15917969,-0.92755127,0.38250732,-0.375,-0.234375,-1.109375
670,1697632765,-0.17553711,-0.9312134,0.39349365,0.578125,0.640625,-1.09375
671,1697632805,-0.1850586,-0.9475708,0.37542725,1.8125,0.21875,-0.296875
672,1697632845,-0.17797852,-0.942688,0.3764038,-0.21875,0.625,-0.75
673,1697632885,-0.17163086,-0.93585205,0.36346436,0.921875,0.328125,-0.40625
674,1697632925,-0.17578125,-0.9326782,0.37176514,0.484375,0.78125,-0.578125
675,1697632965,-0.18188477,-0.94244385,0.37420654,0.21875,1.5,-0.46875
676,1697633005,-0.17749023,-0.9475708,0.37225342,1.171875,0.53125,-0.0625
677,1697633045,-0.16674805,-0.93707275,0.38519287,0.59375,0.234375,-0.375
678,1697633085,-0.17700195,-0.9470825,0.36419678,1.5625,0.625,0.109375
679,1697633125,-0.1694336,-0.94317627,0.3475952,-1.265625,-1.3125,0.0
680,1697633165,-0.16625977,-0.93951416,0.37322998,0.03125,1.484375,-0.6875
681,1697633205,-0.19018555,-0.9546509,0.3637085,1.0625,-0.40625,0.234375
682,1697633245,-0.17651367,-0.9439087,0.36419678,-0.328125,0.390625,-0.203125
683,1697633285,-0.1796875,-0.9522095,0.36029053,1.015625,-0.5,0.3125
684,1697633325,-0.1694336,-0.9495239,0.35858154,-0.375,-0.328125,-0.046875
685,1697633365,-0.19091797,-0.94732666,0.35858154,0.453125,1.34375,-0.125
686,1697633405,-0.17578125,-0.95513916,0.35809326,0.203125,0.703125,0.65625
687,1697633445,-0.1730957,-0.9536743,0.36273193,0.40625,0.953125,0.609375
688,1697633485,-0.16845703,-0.9570923,0.3583374,-0.890625,1.5625,0.21875
689,1697633525,-0.14550781,-0.9356079,0.34417725,1.78125,-0.046875,-0.78125
690,1697633565,-0.18554688,-0.95440674,0.35858154,-0.296875,1.625,0.015625
691,1697633605,-0.17456055,-0.96417236,0.3649292,-2.65625,0.25,-0.359375
692,1697633645,-0.18286133,-0.93463135,0.38104248,-1.140625,1.234375,0.28125
693,1697633685,-0.19116211,-0.9487915,0.35638428,-2.125,1.828125,0.921875
694,1697633725,-0.1640625,-0.9402466,0.35394287,-2.09375,1.015625,0.046875
695,1697633765,-0.17285156,-0.9421997,0.37957764,0.203125,2.09375,0.03125
696,1697633805,-0.15966797,-0.942688,0.36883545,-0.265625,2.0625,0.203125
697,1697633845,-0.17285156,-0.9483032,0.371521,-2.03125,2.9375,-0.5625
698,1697633885,-0.1743164,-0.9570923,0.3624878,-0.90625,3.5625,-0.65625
699,1697633925,-0.16259766,-0.9439087,0.35369873,-1.890625,3.96875,-0.984375
700,1697633965,-0.15185547,-0.9505005,0.37908936,-2.421875,3.34375,-1.640625
701,1697634005,-0.15161133,-0.9590454,0.355896,-2.078125,2.609375,-1.90625
702,1697634045,-0.1616211,-0.93707275,0.36444092,-2.703125,2.515625,-1.921875
703,1697634085,-0.14697266,-0.94610596,0.37127686,-1.5625,0.84375,-1.296875
704,1697634125,-0.13793945,-0.93756104,0.38641357,-1.828125,1.171875,-1.625
705,1697634165,-0.1340332,-0.9456177,0.34613037,-0.875,3.796875,-0.78125
706,1697634205,-0.14282227,-0.9500122,0.35076904,0.4375,3.515625,-0.640625
707,1697634245,-0.14648438,-0.9585571,0.35125732,1.71875,0.625,0.0
708,1697634285,-0.1340332,-0.9456177,0.34100342,0.6875,1.484375,0.03125
709,1697634325,-0.13061523,-0.95025635,0.34906006,1.078125,0.421875,0.390625
710,1697634365,-0.14233398,-0.9612427,0.34075928,1.34375,0.3125,0.34375
711,1697634405,-0.14794922,-0.958313,0.34661865,1.125,-1.234375,0.546875
712,1697634445,-0.14331055,-0.9536743,0.3390503,1.859375,-0.484375,0.578125
713,1697634485,-0.15478516,-0.9451294,0.35491943,-1.25,-2.078125,-0.484375
714,1697634525,-0.16357422,-0.94610596,0.33953857,0.96875,-0.640625,0.328125
715,1697634565,-0.15234375,-0.9451294,0.33587646,-2.375,-1.296875,-0.125
716,1697634605,-0.14819336,-0.9522095,0.35736084,1.078125,-0.734375,0.5
717,1697634645,-0.15576172,-0.94317627,0.34539795,-0.140625,-1.875,0.390625
718,1697634685,-0.15844727,-0.9475708,0.33636475,-1.4375,-1.734375,-0.125
719,1697634725,-0.1616211,-0.9612427,0.34588623,0.34375,-1.984375,0.234375
720,1697634765,-0.15332031,-0.95196533,0.3522339,-0.640625,-1.359375,-0.21875
721,1697634805,-0.16845703,-0.9512329,0.34051514,-0.8125,-0.71875,-0.359375
722,1697634845,-0.16845703,-0.95391846,0.3505249,-0.078125,-0.796875,-0.1875
723,1697634885,-0.16601562,-0.9468384,0.33758545,-1.046875,-0.515625,-0.203125
724,1697634925,-0.15478516,-0.9492798,0.34490967,-0.78125,0.125,-0.203125
725,1697634965,-0.16357422,-0.95562744,0.3475952,-0.796875,0.59375,-0.515625
726,1697635005,-0.16259766,-0.94732666,0.33538818,-1.046875,0.90625,-0.6875
727,1697635045,-0.16186523,-0.95880127,0.34075928,-1.109375,0.890625,-0.625
728,1697635085,-0.15966797,-0.94366455,0.35809326,0.46875,1.46875,-0.546875
729,1697635125,-0.15429688,-0.9456177,0.33441162,-1.90625,1.0,-0.859375
730,1697635165,-0.16040039,-0.9500122,0.35125732,-1.09375,1.59375,-0.828125
731,1697635205,-0.16088867,-0.94781494,0.35150146,0.03125,1.484375,-0.515625
732,1697635245,-0.15356445,-0.95098877,0.33172607,-1.78125,1.4375,-0.796875
733,1697635285,-0.15185547,-0.94976807,0.35125732,-1.203125,1.09375,-0.71875
734,1697635325,-0.15893555,-0.9483032,0.34832764,-0.796875,0.453125,-0.484375
735,1697635365,-0.16259766,-0.94488525,0.3493042,-1.484375,1.390625,-0.859375
736,1697635405,-0.15551758,-0.95318604,0.35321045,-1.125,0.96875,-0.46875
737,1697635445,-0.15576172,-0.9529419,0.3456421,-1.109375,0.421875,-0.53125
738,1697635485,-0.15991211,-0.9553833,0.355896,-1.8125,0.75,-0.59375
739,1697635525,-0.16259766,-0.95098877,0.35809326,-0.828125,0.78125,-0.3125
740,1697635565,-0.15405273,-0.9470825,0.3456421,-1.4375,0.859375,-0.625
741,1697635605,-0.15332031,-0.94000244,0.35028076,-1.203125,0.34375,-0.5625
742,1697635645,-0.16210938,-0.9541626,0.36834717,-1.25,0.1875,-0.171875
743,1697635685,-0.15625,-0.9429321,0.34124756,-0.171875,0.859375,0.609375
744,1697635725,-0.1508789,-0.9404907,0.3439331,-2.53125,0.375,-0.03125
745,1697635765,-0.16137695,-0.95269775,0.36712646,0.609375,0.375,0.40625
746,1697635805,-0.16381836,-0.9451294,0.34783936,-1.09375,-0.15625,0.328125
747,1697635845,-0.15625,-0.9456177,0.3505249,-1.4375,-0.328125,0.0
748,1697635885,-0.16870117,-0.95513916,0.3595581,-0.546875,0.421875,0.265625
749,1697635925,-0.14648438,-0.94659424,0.3583374,-1.515625,-0.109375,-0.125
750,1697635965,-0.16259766,-0.9397583,0.3463745,-1.734375,0.515625,-0.421875
751,1697636005,-0.16552734,-0.95025635,0.35614014,-1.4375,0.15625,-0.390625
752,1697636045,-0.16455078,-0.95758057,0.36663818,-1.609375,1.609375,-0.921875
753,1697636085,-0.1640625,-0.9451294,0.3607788,-1.265625,1.0625,-0.171875
754,1697636125,-0.16088867,-0.93829346,0.36712646,-1.390625,0.59375,-0.09375
755,1697636165,-0.15356445,-0.9561157,0.35858154,-2.015625,0.4375,-0.40625
756,1697636205,-0.1484375,-0.9451294,0.35687256,-2.34375,0.609375,-0.6875
757,1697636245,-0.14648438,-0.9365845,0.37908936,-0.484375,-0.375,-0.5
758,1697636285,-0.15332031,-0.9470825,0.3607788,-0.796875,-0.640625,-0.234375
759,1697636325,-0.15795898,-0.93414307,0.3505249,-3.859375,-0.90625,-1.078125
