,timestamp,accel_x,accel_y,accel_z,gyro_x,gyro_y,gyro_z
0,1697605965,-0.19140625,-0.79571533,0.39056396,28.890625,10.8125,9.40625
1,1697606005,-0.038085938,-1.0803833,0.479187,14.484375,3.203125,7.34375
2,1697606045,-0.2536621,-1.145813,0.4159546,-13.875,0.71875,0.0
3,1697606085,-0.18457031,-0.74542236,0.3637085,-12.28125,-3.78125,-9.921875
4,1697606125,-0.16992188,-0.7612915,0.2826538,16.640625,4.0,3.796875
5,1697606165,-0.09423828,-1.2224731,0.48651123,23.609375,11.015625,22.328125
6,1697606205,-0.15942383,-1.0628052,0.3463745,-20.375,-2.109375,-5.890625
7,1697606245,-0.17993164,-0.88897705,0.39569092,-16.71875,-6.828125,-11.15625
8,1697606285,-0.119384766,-0.673645,0.30999756,-22.8125,-12.734375,-13.65625
9,1697606325,-0.17260742,-0.7210083,0.35101318,-25.984375,-12.875,-14.296875
10,1697606365,-0.26635742,-0.58673096,0.28094482,3.859375,-4.546875,-0.546875
11,1697606405,-0.029296875,-1.4292603,0.5560913,39.84375,30.6875,30.828125
12,1697606445,-0.111328125,-1.060852,0.37615967,-29.828125,-29.3125,-6.546875
13,1697606485,-0.22143555,-0.85284424,0.36566162,-8.453125,9.375,-14.484375
14,1697606525,-0.24267578,-0.6914673,0.39813232,-26.09375,-10.84375,-12.21875
15,1697606565,-0.24682617,-0.7481079,0.31829834,-2.0,1.15625,0.234375
16,1697606605,-0.018066406,-1.2063599,0.5392456,52.640625,27.09375,20.296875
17,1697606645,0.00048828125,-1.2437134,0.40545654,-5.484375,-18.671875,8.609375
18,1697606685,-0.2553711,-0.7937622,0.31658936,-17.171875,10.1875,-14.640625
19,1697606725,-0.2578125,-0.62872314,0.34710693,1.625,-7.15625,-17.890625
20,1697606765,-0.22875977,-0.72491455,0.30755615,22.078125,4.96875,0.65625
21,1697606805,0.04321289,-1.473938,0.479187,33.875,25.109375,39.1875
22,1697606845,-0.14135742,-1.1245728,0.3456421,-34.15625,-20.40625,-7.5625
23,1697606885,-0.23486328,-0.84161377,0.3661499,-26.609375,1.90625,-21.34375
24,1697606925,-0.21850586,-0.5906372,0.26727295,-13.828125,-16.734375,-21.203125
25,1697606965,-0.16430664,-0.8088989,0.4352417,37.078125,14.5,15.6875
26,1697607005,0.083740234,-1.3486938,0.47943115,12.890625,-1.046875,27.734375
27,1697607045,-0.34301758,-0.93292236,0.3270874,-26.203125,-0.03125,-14.484375
28,1697607085,-0.17919922,-0.7954712,0.34246826,-7.46875,-3.765625,-20.65625
29,1697607125,-0.21289062,-0.6548462,0.32489014,16.078125,1.609375,-2.78125
30,1697607165,-0.008056641,-1.2710571,0.53045654,47.421875,26.71875,37.890625
31,1697607205,-0.19262695,-1.0740356,0.29315186,-32.546875,-20.25,4.203125
32,1697607245,-0.1730957,-0.8599243,0.34124756,-14.125,1.859375,-24.34375
33,1697607285,-0.10620117,-0.7046509,0.25872803,11.78125,-2.140625,-18.875
34,1697607325,-0.1484375,-1.1531372,0.4833374,49.359375,33.40625,30.9375
35,1697607365,-0.07104492,-1.1826782,0.24163818,-0.734375,-14.65625,17.890625
36,1697607405,-0.26220703,-0.8821411,0.27972412,25.46875,18.640625,20.328125
37,1697607445,0.032470703,-1.3582153,0.40447998,22.0625,1.5,30.21875
38,1697607485,-0.118896484,-0.9299927,0.3522339,-28.140625,-12.359375,-23.0
39,1697607525,-0.14526367,-0.79107666,0.3583374,-13.125,5.515625,-13.125
40,1697607565,-0.18652344,-0.68536377,0.27630615,0.078125,-7.984375,-3.25
41,1697607605,-0.1940918,-1.0640259,0.3986206,14.015625,12.640625,23.96875
42,1697607645,-0.052734375,-1.2505493,0.36273193,-9.765625,-9.109375,-1.34375
43,1697607685,-0.1274414,-0.91290283,0.30706787,-12.59375,1.265625,-20.65625
44,1697607725,-0.122558594,-0.6946411,0.28900146,-3.203125,-3.984375,-6.1875
45,1697607765,-0.19238281,-0.8364868,0.32977295,21.671875,11.1875,9.078125
46,1697607805,-0.0637207,-1.2734985,0.3991089,9.828125,3.015625,12.59375
47,1697607845,-0.13623047,-0.940979,0.24432373,-20.5625,-9.28125,-13.734375
48,1697607885,-0.12792969,-0.82940674,0.3065796,-13.390625,-3.21875,-7.828125
49,1697607925,-0.19604492,-0.7971802,0.36883545,4.53125,-4.203125,2.515625
50,1697607965,-0.14794922,-1.2224731,0.47698975,14.078125,6.890625,16.5
51,1697608005,-0.14160156,-0.93536377,0.26141357,-28.140625,-12.28125,-13.3125
52,1697608045,-0.1315918,-0.8753052,0.39569092,-11.015625,-6.765625,-12.296875
53,1697608085,-0.20043945,-0.7317505,0.31829834,-0.671875,-7.515625,-3.78125
54,1697608125,-0.19604492,-1.2024536,0.42669678,30.296875,20.15625,20.03125
55,1697608165,-0.061279297,-1.1340942,0.35565186,-21.859375,-16.796875,-0.171875
56,1697608205,-0.20996094,-0.8464966,0.29901123,-14.546875,-1.25,-16.140625
57,1697608245,-0.16015625,-0.7144165,0.30804443,-11.390625,-6.78125,-6.796875
58,1697608285,-0.2536621,-0.9065552,0.42059326,22.734375,10.140625,12.0625
59,1697608325,-0.038330078,-1.2520142,0.43426514,4.984375,0.3125,12.421875
60,1697608365,-0.19335938,-0.8430786,0.30194092,-14.96875,-3.59375,-16.453125
61,1697608405,-0.11010742,-0.87506104,0.39935303,-10.421875,-4.9375,-6.859375
62,1697608445,-0.24682617,-0.7251587,0.246521,-1.875,-2.609375,1.109375
63,1697608485,-0.21264648,-1.2337036,0.48187256,34.578125,25.640625,20.078125
64,1697608525,-0.008300781,-1.1362915,0.369812,-20.046875,-13.953125,-6.421875
65,1697608565,-0.20532227,-0.8435669,0.29510498,-6.3125,2.375,-8.921875
66,1697608605,-0.1899414,-0.67681885,0.354187,-17.65625,-8.0,-5.859375
67,1697608645,-0.26757812,-0.81744385,0.31292725,15.453125,4.9375,7.5625
68,1697608685,-0.05126953,-1.4343872,0.5741577,21.359375,16.640625,21.140625
69,1697608725,-0.103027344,-0.93048096,0.31732178,-30.078125,-14.203125,-16.3125
70,1697608765,-0.1574707,-0.8413696,0.38153076,-6.25,-1.171875,-8.15625
71,1697608805,-0.17602539,-0.6865845,0.36761475,-26.46875,-12.15625,-5.46875
72,1697608845,-0.31689453,-0.7346802,0.37225342,35.78125,5.609375,9.0
73,1697608885,0.20288086,-1.5420532,0.555603,4.484375,5.65625,15.296875
74,1697608925,-0.28442383,-0.81988525,0.26141357,-19.28125,-1.546875,-12.25
75,1697608965,-0.20410156,-0.8179321,0.36102295,-8.5,-4.765625,-7.28125
76,1697609005,-0.2512207,-0.6399536,0.34710693,-15.9375,-10.546875,-3.828125
77,1697609045,-0.26586914,-0.99224854,0.43597412,50.0,23.921875,20.609375
78,1697609085,0.171875,-1.3355103,0.42156982,-13.375,-6.484375,-1.96875
79,1697609125,-0.24780273,-0.7822876,0.3312378,-8.453125,4.34375,-14.421875
80,1697609165,-0.1977539,-0.8057251,0.46209717,-3.0625,-5.6875,1.140625
81,1697609205,0.06933594,-1.2090454,0.35906982,51.703125,12.03125,14.328125
82,1697609245,0.14355469,-1.6126099,0.55999756,-21.796875,-8.015625,-9.171875
83,1697609285,-0.29125977,-0.85772705,0.4237671,-6.3125,17.515625,-0.265625
84,1697609325,-0.3618164,-0.52301025,0.30316162,-10.640625,-9.984375,-5.25
85,1697609365,-0.18383789,-0.49468994,0.2736206,-18.828125,-8.53125,-9.71875
86,1697609405,-0.12866211,-0.90802,0.3444214,22.015625,12.390625,10.546875
87,1697609445,-0.075927734,-1.8638306,0.69036865,34.96875,5.828125,13.9375
88,1697609485,-0.064208984,-0.95318604,0.50531006,-20.046875,0.21875,-12.34375
89,1697609525,-0.2944336,-0.67071533,0.34344482,6.046875,3.09375,11.609375
90,1697609565,-0.14111328,-0.80792236,0.3151245,5.9375,7.25,7.953125
91,1697609605,-0.19506836,-1.4607544,0.6351929,27.171875,-5.890625,19.171875
92,1697609645,-0.068847656,-1.1589966,0.6102905,-30.71875,-14.90625,-20.78125
93,1697609685,-0.29003906,-0.7102661,0.38885498,10.296875,11.546875,8.3125
94,1697609725,-0.21899414,-0.57696533,0.24798584,-10.1875,1.390625,-1.734375
95,1697609765,-0.16137695,-0.7720337,0.34735107,6.171875,10.140625,7.53125
96,1697609805,-0.001953125,-1.203186,0.25408936,20.28125,-16.171875,6.5625
97,1697609845,0.18896484,-1.3076782,0.70770264,-24.203125,-11.484375,-30.1875
98,1697609885,-0.5046387,-0.8389282,0.45550537,-5.78125,4.5625,16.859375
99,1697609925,-0.21240234,-0.65875244,0.35858154,-3.234375,0.71875,-0.0625
100,1697609965,-0.11669922,-0.63848877,0.24383545,-2.046875,2.078125,-5.03125
101,1697610005,-0.095947266,-1.0339966,0.39837646,11.546875,8.375,11.375
102,1697610045,-0.07470703,-1.196106,0.39764404,-14.90625,-12.65625,-12.15625
103,1697610085,-0.14624023,-1.0664673,0.6581421,-8.59375,-4.671875,-6.78125
104,1697610125,-0.31835938,-0.83380127,0.37200928,0.046875,-2.234375,5.125
105,1697610165,-0.12060547,-0.6795044,0.38397217,-8.734375,1.203125,-2.046875
106,1697610205,-0.13793945,-0.74176025,0.3156128,3.0,3.734375,3.265625
107,1697610245,-0.1875,-1.0181274,0.4779663,15.734375,6.734375,6.421875
108,1697610285,-0.09448242,-1.3027954,0.5475464,-1.875,-0.984375,-9.140625
109,1697610325,-0.08520508,-0.8999634,0.5385132,-17.640625,-7.484375,-7.734375
110,1697610365,-0.2932129,-0.7312622,0.36053467,5.5,1.3125,6.78125
111,1697610405,-0.1875,-0.71173096,0.3920288,-5.53125,-0.53125,-0.453125
112,1697610445,-0.18701172,-0.92926025,0.3908081,2.765625,6.578125,3.75
113,1697610485,-0.11450195,-1.1130981,0.42303467,17.3125,-2.390625,1.546875
114,1697610525,-0.013671875,-1.1531372,0.5675659,-4.65625,5.40625,-9.0
115,1697610565,-0.29223633,-0.7246704,0.3475952,-6.09375,1.234375,3.4375
116,1697610605,-0.21655273,-0.7390747,0.4718628,-0.96875,-1.34375,0.265625
117,1697610645,-0.16381836,-0.84820557,0.4430542,-5.609375,5.375,1.75
118,1697610685,-0.21118164,-1.0857544,0.3932495,-22.546875,-3.421875,2.59375
119,1697610725,-0.17382812,-1.0061646,0.4647827,-27.21875,-10.3125,-15.265625
120,1697610765,-0.079833984,-0.9492798,0.58929443,-9.171875,-4.28125,-10.96875
121,1697610805,-0.15649414,-0.8970337,0.5153198,7.1875,9.015625,-2.953125
122,1697610845,-0.22949219,-0.78985596,0.4262085,0.171875,5.46875,0.640625
123,1697610885,-0.20410156,-0.77130127,0.434021,-2.078125,-6.703125,0.90625
124,1697610925,-0.18139648,-0.8706665,0.4574585,3.46875,-14.125,-0.625
125,1697610965,-0.21728516,-1.0020142,0.49334717,20.96875,-13.640625,3.53125
126,1697611005,-0.12841797,-1.0354614,0.4779663,19.640625,-4.609375,4.5625
127,1697611045,-0.075927734,-0.7817993,0.46258545,7.84375,15.015625,4.890625
128,1697611085,-0.32788086,-0.92755127,0.36029053,0.90625,6.078125,8.203125
129,1697611125,-0.28881836,-0.7593384,0.4484253,-9.09375,-12.703125,-10.296875
130,1697611165,-0.15966797,-0.88165283,0.31365967,9.4375,-2.109375,1.65625
131,1697611205,0.013916016,-1.2341919,0.5199585,17.8125,9.75,16.625
132,1697611245,-0.20336914,-1.0278931,0.39886475,-17.046875,10.296875,-4.109375
133,1697611285,-0.3310547,-0.8320923,0.47747803,-6.703125,-8.03125,-5.546875
134,1697611325,-0.19213867,-0.6358032,0.34979248,-5.484375,-6.34375,-6.890625
135,1697611365,-0.13647461,-0.8052368,0.23699951,23.84375,2.6875,16.671875
136,1697611405,0.02319336,-1.3059692,0.54071045,2.265625,4.03125,7.421875
137,1697611445,-0.22216797,-1.0852661,0.512146,-17.234375,6.28125,-13.734375
138,1697611485,-0.3552246,-0.798645,0.4389038,1.546875,-1.9375,-2.578125
139,1697611525,-0.15576172,-0.5845337,0.24969482,-19.75,-8.921875,-3.84375
140,1697611565,-0.1928711,-0.9368286,0.38934326,10.828125,6.1875,14.53125
141,1697611605,-0.014404297,-1.3779907,0.5861206,19.25,-1.5625,8.359375
142,1697611645,-0.07080078,-1.0186157,0.434021,-23.03125,3.140625,-15.515625
143,1697611685,-0.35839844,-0.75372314,0.4208374,13.71875,7.953125,3.296875
144,1697611725,-0.203125,-0.7112427,0.38739014,-23.390625,-6.890625,-7.21875
145,1697611765,-0.13183594,-0.7371216,0.27435303,-8.265625,-3.203125,-4.0
146,1697611805,-0.10986328,-1.1885376,0.5248413,34.390625,2.84375,18.96875
147,1697611845,0.09838867,-1.1951294,0.48846436,-15.09375,-0.953125,-11.875
148,1697611885,-0.3701172,-0.8062134,0.39520264,1.515625,15.296875,2.5625
149,1697611925,-0.2849121,-0.70758057,0.40301514,-5.265625,-10.28125,-5.046875
150,1697611965,-0.099365234,-0.7070923,0.36444092,-25.1875,-3.5,-8.859375
151,1697612005,-0.16479492,-0.9356079,0.33319092,27.875,1.90625,11.8125
152,1697612045,0.0009765625,-1.5064087,0.70477295,16.375,4.984375,5.28125
153,1697612085,-0.18481445,-0.9060669,0.38909912,-17.703125,6.796875,-6.3125
154,1697612125,-0.32128906,-0.70025635,0.39349365,6.640625,-1.921875,0.4375
155,1697612165,-0.17114258,-0.66900635,0.36151123,-28.828125,-9.59375,-11.28125
156,1697612205,-0.1472168,-0.8418579,0.3546753,11.28125,6.265625,1.640625
157,1697612245,-0.033691406,-1.3457642,0.4303589,29.046875,11.90625,16.828125
158,1697612285,-0.026123047,-1.2488403,0.50335693,-9.34375,-3.6875,-10.96875
159,1697612325,-0.27734375,-0.64971924,0.36151123,-3.734375,11.421875,-3.40625
160,1697612365,-0.22387695,-0.7168579,0.4196167,-11.140625,-10.796875,-5.078125
161,1697612405,-0.140625,-0.76763916,0.39788818,-34.0,-15.765625,-8.15625
162,1697612445,-0.1875,-0.9993286,0.4628296,-25.703125,-9.90625,-5.5625
163,1697612485,-0.24536133,-1.1411743,0.59661865,-28.609375,-0.15625,-9.5625
164,1697612525,-0.111816406,-0.9690552,0.58270264,5.921875,12.875,-0.734375
165,1697612565,-0.1862793,-0.80474854,0.4694214,18.359375,11.453125,0.15625
166,1697612605,-0.23632812,-0.74835205,0.387146,1.109375,-2.953125,0.3125
167,1697612645,-0.19506836,-0.817688,0.4484253,5.03125,-10.4375,2.078125
168,1697612685,-0.23022461,-0.9351196,0.44989014,17.65625,-13.109375,4.296875
169,1697612725,-0.15942383,-1.0032349,0.52630615,33.625,7.234375,8.65625
170,1697612765,-0.07080078,-1.000061,0.3756714,6.203125,4.796875,8.40625
171,1697612805,-0.19824219,-0.84576416,0.41912842,0.3125,7.03125,-8.25
172,1697612845,-0.24829102,-0.85040283,0.4328003,-14.34375,-4.703125,-5.296875
173,1697612885,-0.23022461,-0.78448486,0.3546753,4.046875,-6.40625,3.453125
174,1697612925,-0.15917969,-1.0459595,0.369812,37.421875,12.421875,14.890625
175,1697612965,-0.059570312,-1.0786743,0.42718506,-2.265625,1.640625,0.359375
176,1697613005,-0.20263672,-1.0098267,0.4022827,-11.203125,13.171875,-1.828125
177,1697613045,-0.24658203,-0.7612915,0.4171753,-27.640625,-7.640625,-8.84375
178,1697613085,-0.20361328,-0.6289673,0.3378296,8.890625,-5.0,-4.203125
179,1697613125,-0.09277344,-1.3084106,0.48016357,29.9375,5.96875,17.984375
180,1697613165,-0.026123047,-1.1504517,0.39007568,-21.421875,-3.59375,-4.171875
181,1697613205,-0.18554688,-0.90289307,0.3612671,-10.78125,5.53125,-10.734375
182,1697613245,-0.28222656,-0.6860962,0.432312,-17.859375,-9.140625,-7.5625
183,1697613285,-0.25708008,-0.7424927,0.36029053,6.109375,1.015625,6.609375
184,1697613325,-0.13696289,-1.0049438,0.3204956,8.796875,3.875,13.71875
185,1697613365,-0.060058594,-1.3731079,0.5343628,0.078125,0.0625,-9.359375
186,1697613405,-0.06347656,-0.9204712,0.4520874,-11.09375,7.765625,-17.203125
187,1697613445,-0.29077148,-0.6956177,0.449646,4.046875,9.0625,7.046875
188,1697613485,-0.23632812,-0.7334595,0.38104248,-17.25,-4.3125,-0.578125
189,1697613525,-0.1665039,-0.8792114,0.3842163,2.515625,-2.953125,-2.546875
190,1697613565,-0.09008789,-1.1672974,0.41400146,26.5,-4.0,10.8125
191,1697613605,0.016113281,-1.2991333,0.47454834,4.328125,-0.40625,-0.296875
192,1697613645,-0.265625,-0.7131958,0.3295288,-10.296875,16.65625,1.96875
193,1697613685,-0.34448242,-0.65948486,0.4298706,-2.265625,-3.859375,-0.359375
194,1697613725,-0.17089844,-0.7144165,0.29388428,-9.734375,-5.21875,-12.578125
195,1697613765,-0.024658203,-1.112854,0.40618896,30.640625,5.640625,11.359375
196,1697613805,0.06518555,-1.3386841,0.4923706,-5.15625,-8.71875,-4.046875
197,1697613845,-0.23413086,-0.85894775,0.36273193,-14.90625,10.765625,-6.5625
198,1697613885,-0.31103516,-0.6362915,0.39178467,-1.90625,-3.625,-4.265625
199,1697613925,-0.21850586,-0.68756104,0.28240967,-0.65625,-4.203125,-0.453125
200,1697613965,-0.08496094,-1.3242798,0.50408936,12.703125,-3.5,14.0625
201,1697614005,-0.04711914,-1.1616821,0.5499878,-21.75,-16.3125,-19.890625
202,1697614045,-0.33984375,-0.8167114,0.35321045,-0.03125,6.765625,3.53125
203,1697614085,-0.22045898,-0.61553955,0.30682373,0.796875,-0.109375,2.015625
204,1697614125,-0.21069336,-0.8440552,0.33685303,14.328125,15.765625,5.78125
205,1697614165,-0.008544922,-1.1594849,0.28948975,0.609375,-5.90625,3.484375
206,1697614205,-0.10595703,-1.3015747,0.6437378,-11.859375,-2.21875,-14.59375
207,1697614245,-0.060058594,-0.8045044,0.49945068,1.25,9.203125,-1.5
208,1697614285,-0.39404297,-0.7012329,0.27264404,1.515625,1.109375,11.875
209,1697614325,-0.20336914,-0.7017212,0.322937,-7.0,-2.015625,-5.921875
210,1697614365,-0.08251953,-1.0657349,0.27337646,0.328125,-8.125,1.71875
211,1697614405,-0.056640625,-1.2732544,0.6720581,-13.1875,-1.9375,-6.515625
212,1697614445,-0.24951172,-0.8706665,0.48944092,0.8125,12.15625,0.8125
213,1697614485,-0.2854004,-0.692688,0.32928467,3.703125,-0.90625,4.703125
214,1697614525,-0.15014648,-0.6826782,0.3007202,-0.84375,3.625,-4.359375
215,1697614565,-0.084472656,-1.1045532,0.21502686,6.203125,-6.453125,10.046875
216,1697614605,-0.00048828125,-1.2070923,0.6552124,-11.640625,0.15625,-7.5625
217,1697614645,-0.3088379,-0.8804321,0.45892334,3.0625,10.84375,1.59375
218,1697614685,-0.2631836,-0.7280884,0.34051514,5.921875,-1.734375,7.203125
219,1697614725,-0.13061523,-0.71832275,0.31732178,-2.28125,4.171875,-3.1875
220,1697614765,-0.07861328,-1.1089478,0.2897339,5.25,-0.625,6.640625
221,1697614805,-0.061523438,-1.2583618,0.6029663,-20.984375,-5.96875,-8.796875
222,1697614845,-0.12719727,-0.8792114,0.5387573,-6.40625,-3.484375,-14.40625
223,1697614885,-0.35986328,-0.78302,0.3685913,11.875,0.015625,10.09375
224,1697614925,-0.11254883,-0.71881104,0.41107178,-9.90625,3.703125,-6.0625
225,1697614965,-0.12231445,-0.91485596,0.30511475,8.59375,-2.34375,0.5625
226,1697615005,-0.1496582,-1.1309204,0.41912842,-10.828125,-2.75,-0.234375
227,1697615045,-0.024414062,-1.0449829,0.71795654,1.375,5.28125,-12.984375
228,1697615085,-0.3955078,-0.8110962,0.31414795,10.734375,3.203125,10.984375
229,1697615125,-0.24047852,-0.74053955,0.42132568,4.015625,0.828125,2.84375
230,1697615165,-0.14453125,-0.97979736,0.39764404,5.859375,6.578125,3.3125
231,1697615205,-0.19384766,-1.0527954,0.3505249,-21.265625,-10.640625,-0.359375
232,1697615245,-0.14282227,-1.0046997,0.35394287,-30.625,-14.4375,-14.9375
233,1697615285,-0.122558594,-0.93878174,0.46966553,-13.921875,0.109375,-7.640625
234,1697615325,-0.17553711,-0.8880005,0.4640503,5.09375,6.8125,-3.40625
235,1697615365,-0.25195312,-0.81573486,0.31658936,9.4375,-5.4375,1.90625
236,1697615405,-0.265625,-0.9841919,0.40985107,15.46875,-16.90625,2.5
237,1697615445,-0.06225586,-0.8106079,0.6154175,-13.21875,9.0625,-9.9375
238,1697615485,-0.31518555,-0.960022,0.53289795,14.53125,11.421875,12.140625
239,1697615525,-0.24560547,-0.82476807,0.33563232,-7.359375,-2.90625,4.765625
240,1697615565,-0.09863281,-0.9026489,0.4069214,-2.984375,-6.453125,-6.609375
241,1697615605,-0.19360352,-1.1157837,0.28460693,3.59375,-9.40625,4.0
242,1697615645,-0.043945312,-0.9451294,0.49969482,-8.34375,4.984375,-7.578125
243,1697615685,-0.30981445,-0.88287354,0.5414429,16.34375,17.1875,11.5
244,1697615725,-0.36254883,-0.736145,0.32073975,-0.390625,-2.515625,4.65625
245,1697615765,-0.16333008,-0.7432251,0.38616943,-6.96875,1.015625,-9.09375
246,1697615805,-0.0949707,-1.0664673,0.26068115,5.5,-11.265625,4.53125
247,1697615845,-0.008544922,-1.1965942,0.5951538,-10.09375,5.1875,-6.25
248,1697615885,-0.23486328,-0.9800415,0.5722046,9.09375,14.203125,1.015625
249,1697615925,-0.42236328,-0.72857666,0.31781006,13.296875,-0.171875,13.28125
250,1697615965,-0.17041016,-0.64556885,0.34613037,-13.546875,1.34375,-7.546875
251,1697616005,-0.10620117,-1.0108032,0.28997803,3.65625,-3.5625,0.65625
252,1697616045,-0.096191406,-1.2556763,0.59710693,-11.609375,-5.640625,0.21875
253,1697616085,-0.05883789,-1.0264282,0.7020874,1.125,4.46875,-12.984375
254,1697616125,-0.46606445,-0.77960205,0.29534912,9.671875,4.0625,17.53125
255,1697616165,-0.1953125,-0.6030884,0.30389404,-7.375,1.0625,-4.9375
256,1697616205,-0.076660156,-0.9109497,0.3241577,7.28125,-0.296875,-1.109375
257,1697616245,-0.049560547,-1.2854614,0.5477905,-13.671875,-5.453125,4.4375
258,1697616285,-0.07788086,-1.0974731,0.6847534,2.5,1.734375,-13.109375
259,1697616325,-0.45263672,-0.7942505,0.29803467,10.296875,3.109375,14.328125
260,1697616365,-0.15942383,-0.6218872,0.34197998,-2.328125,2.671875,-3.78125
261,1697616405,-0.087402344,-0.928772,0.3180542,2.5625,4.09375,-2.75
262,1697616445,-0.13012695,-1.1257935,0.31610107,-5.953125,-8.84375,5.0
263,1697616485,-0.038085938,-1.0581665,0.63153076,-15.0625,1.984375,-11.84375
264,1697616525,-0.35546875,-0.84332275,0.44451904,10.828125,8.109375,7.25
265,1697616565,-0.27929688,-0.74053955,0.3546753,3.390625,-4.453125,3.375
266,1697616605,-0.07885742,-0.8088989,0.37957764,2.0,6.90625,-6.546875
267,1697616645,-0.12841797,-1.0974731,0.3517456,-1.15625,-3.265625,6.53125
268,1697616685,-0.096191406,-1.1321411,0.5895386,-8.765625,-3.28125,-7.25
269,1697616725,-0.15136719,-0.8753052,0.5126343,1.703125,5.296875,-2.953125
270,1697616765,-0.3798828,-0.7942505,0.34857178,12.296875,2.28125,9.609375
271,1697616805,-0.15991211,-0.8064575,0.51971436,-2.078125,0.953125,-1.875
272,1697616845,-0.12451172,-1.0396118,0.35784912,-11.640625,-4.0,4.421875
273,1697616885,-0.20678711,-0.9837036,0.3439331,-7.46875,-14.265625,-2.40625
274,1697616925,-0.09814453,-1.036438,0.38763428,-16.609375,-6.890625,-11.59375
275,1697616965,-0.15014648,-0.89312744,0.49920654,8.5,4.84375,-2.375
276,1697617005,-0.13208008,-0.87091064,0.40594482,14.40625,9.65625,7.578125
277,1697617045,-0.19702148,-0.8699341,0.246521,4.375,0.578125,5.265625
278,1697617085,-0.16137695,-0.81256104,0.5182495,-4.15625,-5.1875,-5.34375
279,1697617125,-0.19360352,-1.098938,0.52264404,-0.078125,12.6875,4.609375
280,1697617165,-0.2680664,-0.8518677,0.26922607,5.9375,-9.34375,1.578125
281,1697617205,-0.07299805,-0.9636841,0.3439331,1.40625,-6.234375,0.4375
282,1697617245,-0.03149414,-0.9483032,0.48651123,-4.578125,8.109375,-2.140625
283,1697617285,-0.30541992,-0.989563,0.4611206,7.28125,8.484375,8.921875
284,1697617325,-0.24609375,-0.82647705,0.40496826,-8.65625,-0.796875,-5.125
285,1697617365,-0.079589844,-0.8291626,0.30706787,4.53125,-2.328125,-6.078125
286,1697617405,-0.08520508,-1.0401001,0.338562,-0.75,-5.453125,6.28125
287,1697617445,-0.09375,-1.0994263,0.5343628,-7.34375,5.09375,-3.4375
288,1697617485,-0.1772461,-0.92510986,0.44110107,-2.140625,3.5625,-2.09375
289,1697617525,-0.3359375,-0.8460083,0.38201904,6.625,-1.109375,1.59375
290,1697617565,-0.14892578,-0.7996216,0.37542725,-3.9375,3.5,-2.796875
291,1697617605,-0.080078125,-0.9692993,0.34661865,3.40625,1.8125,4.390625
292,1697617645,-0.07421875,-1.1140747,0.4406128,7.265625,-1.953125,1.796875
293,1697617685,-0.13769531,-1.0278931,0.48016357,-6.078125,5.984375,-1.375
294,1697617725,-0.26391602,-0.83135986,0.3600464,1.875,3.09375,1.5625
295,1697617765,-0.15698242,-0.74835205,0.27557373,3.421875,-4.390625,-3.109375
296,1697617805,-0.01977539,-1.0200806,0.3920288,4.578125,-7.515625,3.25
297,1697617845,-0.043945312,-1.0794067,0.47772217,-10.265625,0.78125,-2.109375
298,1697617885,-0.40307617,-1.0093384,0.38104248,-0.8125,0.0625,-1.34375
299,1697617925,-0.1430664,-0.81817627,0.3607788,-9.34375,0.109375,-4.1875
300,1697617965,-0.11254883,-0.83428955,0.215271,4.453125,3.1875,1.4375
301,1697618005,-0.08886719,-1.1633911,0.54364014,8.53125,5.828125,8.65625
302,1697618045,-0.05859375,-1.0610962,0.57196045,-13.96875,-4.078125,-5.703125
303,1697618085,-0.33276367,-0.8250122,0.3480835,0.53125,-1.421875,2.421875
304,1697618125,-0.1274414,-0.69903564,0.28826904,-14.0625,-3.875,-11.046875
305,1697618165,-0.07714844,-0.9614868,0.2609253,9.3125,2.03125,5.671875
306,1697618205,-0.022460938,-1.1743774,0.59368896,-0.78125,0.84375,0.015625
307,1697618245,-0.17382812,-1.0254517,0.60198975,-6.90625,-1.625,-7.90625
308,1697618285,-0.35742188,-0.7654419,0.30145264,-0.28125,-2.25,8.28125
309,1697618325,-0.12695312,-0.67559814,0.3241577,5.203125,6.625,-1.765625
310,1697618365,-0.12646484,-0.99786377,0.29974365,18.578125,9.015625,3.921875
311,1697618405,-0.022705078,-1.2798462,0.4545288,-3.703125,-7.453125,-0.125
312,1697618445,-0.061767578,-0.9800415,0.59295654,-18.28125,-4.671875,-10.1875
313,1697618485,-0.45239258,-0.8118286,0.3234253,8.8125,1.890625,9.96875
314,1697618525,-0.12573242,-0.6987915,0.32904053,-8.125,2.921875,-8.0625
315,1697618565,-0.052978516,-0.9348755,0.2868042,14.421875,8.140625,1.34375
316,1697618605,-0.043945312,-1.1741333,0.38763428,-1.296875,-5.9375,7.65625
317,1697618645,-0.04272461,-1.0896606,0.5805054,-7.796875,1.359375,-10.578125
318,1697618685,-0.3996582,-0.8526001,0.32611084,0.4375,-3.203125,4.09375
319,1697618725,-0.17211914,-0.7617798,0.47821045,0.828125,0.140625,-1.921875
320,1697618765,-0.06323242,-0.99786377,0.36029053,20.25,2.359375,2.34375
321,1697618805,-0.15112305,-1.0022583,0.25335693,-13.015625,-18.046875,-4.375
322,1697618845,-0.12182617,-0.9163208,0.30023193,-18.859375,-22.6875,-17.609375
323,1697618885,-0.15527344,-0.98101807,0.43695068,-27.9375,-5.875,-1.578125
324,1697618925,-0.21875,-1.0159302,0.44647217,9.875,-0.40625,3.171875
325,1697618965,-0.21679688,-0.8740845,0.35882568,-3.046875,6.890625,0.703125
326,1697619005,-0.14819336,-0.7608032,0.30047607,2.5,-5.390625,-2.296875
327,1697619045,-0.16479492,-0.9819946,0.34539795,-3.796875,5.21875,2.4375
328,1697619085,-0.118896484,-0.9932251,0.64056396,-3.25,-5.03125,-1.8125
329,1697619125,-0.23852539,-1.0003052,0.42034912,-2.84375,-1.734375,6.421875
330,1697619165,-0.33154297,-0.736145,0.3444214,2.046875,-1.671875,-0.078125
331,1697619205,-0.13232422,-0.82354736,0.2670288,0.15625,0.359375,-5.28125
332,1697619245,-0.041748047,-1.1411743,0.4598999,8.625,4.15625,8.234375
333,1697619285,-0.0793457,-1.0969849,0.5062866,-8.125,11.640625,-1.390625
334,1697619325,-0.2800293,-0.8904419,0.40789795,-2.1875,-0.71875,-1.453125
335,1697619365,-0.25976562,-0.73565674,0.35491943,-3.421875,-3.25,-5.8125
336,1697619405,-0.17944336,-0.7979126,0.34783936,2.3125,-1.578125,0.25
337,1697619445,-0.037109375,-1.2244263,0.3920288,3.359375,2.765625,8.0
338,1697619485,-0.05419922,-1.005188,0.5895386,-1.34375,5.25,-8.375
339,1697619525,-0.39208984,-0.8484497,0.36297607,5.015625,1.546875,3.9375
340,1697619565,-0.26611328,-0.7432251,0.3180542,-18.96875,-4.578125,-1.484375
341,1697619605,-0.14550781,-0.7920532,0.3522339,1.296875,4.421875,-1.125
342,1697619645,-0.038085938,-1.1680298,0.38641357,1.671875,0.328125,4.375
343,1697619685,-0.103271484,-1.223938,0.47479248,-13.046875,1.921875,-10.65625
344,1697619725,-0.111083984,-0.83184814,0.53338623,-6.546875,2.765625,-9.546875
345,1697619765,-0.36450195,-0.7007446,0.37371826,13.296875,2.640625,8.390625
346,1697619805,-0.23388672,-0.79473877,0.4159546,-5.859375,-4.078125,0.640625
347,1697619845,-0.07080078,-0.94488525,0.4171753,-1.171875,-3.53125,-2.578125
348,1697619885,-0.09814453,-1.1419067,0.3764038,-0.265625,-5.015625,2.609375
349,1697619925,-0.033447266,-1.0025024,0.5783081,0.328125,5.671875,-9.5625
350,1697619965,-0.40722656,-0.7996216,0.37298584,14.140625,9.8125,10.484375
351,1697620005,-0.2783203,-0.76885986,0.32904053,-2.53125,-5.84375,1.5625
352,1697620045,-0.08251953,-0.8748169,0.37493896,1.4375,2.65625,-8.171875
353,1697620085,-0.12182617,-1.1658325,0.31219482,-6.875,-5.671875,4.546875
354,1697620125,-0.012207031,-1.0264282,0.62371826,1.5,5.234375,-7.078125
355,1697620165,-0.34594727,-0.8587036,0.36810303,3.765625,7.9375,3.8125
356,1697620205,-0.31103516,-0.76519775,0.35491943,-0.078125,-4.90625,4.421875
357,1697620245,-0.09790039,-0.7781372,0.3463745,-6.8125,2.25,-7.015625
358,1697620285,-0.08544922,-1.1399536,0.26800537,1.109375,-4.484375,4.328125
359,1697620325,-0.009277344,-1.1582642,0.6564331,-8.90625,2.765625,-9.265625
360,1697620365,-0.3095703,-0.850647,0.5321655,-0.5,-0.09375,2.578125
361,1697620405,-0.41577148,-0.7210083,0.2892456,8.46875,1.28125,10.1875
362,1697620445,-0.1274414,-0.7005005,0.37371826,-12.875,3.4375,-5.21875
363,1697620485,-0.08081055,-1.0274048,0.31243896,5.46875,-1.53125,1.609375
364,1697620525,-0.0068359375,-1.2791138,0.50946045,-8.671875,-4.921875,-3.4375
365,1697620565,-0.045654297,-1.039856,0.61395264,-3.21875,0.78125,-14.828125
366,1697620605,-0.50878906,-0.7263794,0.35321045,14.515625,4.578125,15.0625
367,1697620645,-0.26586914,-0.6860962,0.3673706,-10.6875,0.9375,0.234375
368,1697620685,-0.060302734,-0.84039307,0.37908936,2.8125,3.65625,-2.890625
369,1697620725,-0.10961914,-1.1682739,0.36517334,-1.6875,-0.1875,3.125
370,1697620765,0.008300781,-1.2466431,0.5494995,-0.65625,-9.78125,-8.890625
371,1697620805,-0.14257812,-0.8892212,0.64642334,2.4375,8.203125,-4.5
372,1697620845,-0.6218262,-0.6951294,0.2723999,11.59375,7.0,16.359375
373,1697620885,-0.25,-0.6428833,0.4208374,-11.21875,1.578125,-4.578125
374,1697620925,0.045654297,-1.0615845,0.45672607,-1.65625,-0.0625,3.0
375,1697620965,-0.13232422,-1.2219849,0.44232178,-26.125,-10.328125,-0.125
376,1697621005,-0.18334961,-1.005188,0.38983154,-25.859375,-3.84375,-15.75
377,1697621045,-0.16992188,-0.82818604,0.5084839,-2.609375,7.546875,-10.390625
378,1697621085,-0.16381836,-0.85821533,0.50897217,10.890625,8.609375,-1.46875
379,1697621125,-0.22045898,-0.82037354,0.43695068,1.78125,3.3125,2.640625
380,1697621165,-0.2331543,-0.8081665,0.3847046,-9.140625,-10.84375,-0.984375
381,1697621205,-0.15576172,-0.88946533,0.4467163,0.375,-6.921875,-2.5625
382,1697621245,-0.21972656,-1.0100708,0.5060425,26.34375,-3.4375,4.625
383,1697621285,-0.2368164,-1.005188,0.22137451,39.765625,-10.421875,14.203125
384,1697621325,0.03100586,-0.97735596,0.55584717,-6.65625,12.59375,-2.921875
385,1697621365,-0.24194336,-0.65509033,0.6322632,8.6875,9.09375,-0.5
386,1697621405,-0.592041,-0.87872314,0.2831421,0.4375,-0.046875,16.78125
387,1697621445,-0.034179688,-0.81036377,0.3546753,-28.03125,2.734375,-15.640625
388,1697621485,0.11376953,-1.0020142,0.39813232,-14.328125,2.171875,-4.828125
389,1697621525,-0.09863281,-1.0869751,0.479187,-9.359375,-1.296875,-0.328125
390,1697621565,-0.25146484,-1.1223755,0.5253296,9.890625,6.859375,2.375
391,1697621605,-0.15234375,-0.8406372,0.12835693,17.03125,-17.75,-3.921875
392,1697621645,0.056640625,-0.8027954,0.44818115,-2.40625,8.109375,-10.96875
393,1697621685,-0.3466797,-0.75079346,0.7736206,6.859375,12.265625,16.5625
394,1697621725,-0.6672363,-0.8555298,0.24847412,11.578125,-0.546875,27.8125
395,1697621765,-0.11743164,-0.7871704,0.26971436,-11.609375,0.8125,-24.109375
396,1697621805,0.2685547,-1.22052,0.40130615,0.859375,0.28125,-8.578125
397,1697621845,-0.025634766,-1.2249146,0.48968506,-3.453125,4.421875,4.765625
398,1697621885,-0.33203125,-0.96954346,0.40594482,13.515625,16.09375,8.5625
399,1697621925,-0.27368164,-0.75909424,0.260437,-0.890625,-16.21875,-7.203125
400,1697621965,-0.015380859,-0.73223877,0.55145264,-16.046875,-2.296875,-14.109375
401,1697622005,-0.3059082,-0.9187622,0.5109253,8.3125,9.375,15.53125
402,1697622045,-0.25610352,-0.9089966,0.34881592,-7.546875,-2.9375,5.984375
403,1697622085,-0.05029297,-0.86968994,0.277771,-6.5625,-2.859375,-8.796875
404,1697622125,-0.12451172,-1.1797485,0.4389038,14.390625,4.1875,4.515625
405,1697622165,-0.06738281,-1.1143188,0.5307007,-3.84375,-1.390625,-5.125
406,1697622205,-0.21386719,-0.7918091,0.5241089,-7.453125,5.328125,-0.6875
407,1697622245,-0.3876953,-0.7852173,0.3192749,6.8125,-8.3125,5.640625
408,1697622285,-0.10449219,-0.7776489,0.3908081,-30.625,-1.859375,-7.296875
409,1697622325,-0.1015625,-0.93829346,0.37371826,13.0625,10.171875,4.03125
410,1697622365,-0.021484375,-1.1538696,0.37200928,28.71875,5.875,0.234375
411,1697622405,-0.024414062,-1.0552368,0.5602417,10.5,9.125,-4.84375
412,1697622445,-0.30786133,-0.79815674,0.38787842,-4.59375,-1.59375,6.828125
413,1697622485,-0.29907227,-0.72979736,0.34417725,-14.40625,-3.265625,-3.625
414,1697622525,-0.10864258,-0.74176025,0.3209839,-0.5,5.28125,-2.359375
415,1697622565,-0.15722656,-1.0957642,0.2543335,21.21875,3.953125,13.90625
416,1697622605,0.013916016,-1.2908325,0.6195679,8.265625,-3.25,-5.84375
417,1697622645,-0.21289062,-0.84161377,0.43206787,-13.84375,-2.140625,-7.25
418,1697622685,-0.3869629,-0.7217407,0.3439331,-2.984375,-3.328125,7.75
419,1697622725,-0.14331055,-0.661438,0.2711792,-21.046875,-2.40625,-6.5625
420,1697622765,-0.19335938,-0.99664307,0.3151245,19.3125,4.890625,9.703125
421,1697622805,0.099365234,-1.451477,0.6600952,10.109375,-1.84375,-5.359375
422,1697622845,-0.22583008,-0.93170166,0.4467163,-14.75,2.796875,-7.0625
423,1697622885,-0.3642578,-0.6934204,0.31536865,4.96875,0.96875,7.078125
424,1697622925,-0.122802734,-0.6694946,0.3390503,-23.40625,-3.765625,-8.171875
425,1697622965,-0.20678711,-0.91973877,0.33563232,8.640625,6.890625,3.9375
426,1697623005,-0.08691406,-1.3772583,0.5639038,25.4375,-9.609375,7.5
427,1697623045,0.051757812,-1.0647583,0.54437256,-18.078125,3.234375,-17.625
428,1697623085,-0.4375,-0.7307739,0.2694702,7.421875,1.671875,10.9375
429,1697623125,-0.22070312,-0.6995239,0.34075928,-20.421875,-5.90625,-4.75
430,1697623165,-0.1015625,-0.81451416,0.29974365,-8.109375,3.6875,-5.109375
431,1697623205,-0.1784668,-1.1504517,0.27044678,18.25,-2.234375,14.65625
432,1697623245,0.03149414,-1.2678833,0.69989014,3.109375,-0.453125,-11.125
433,1697623285,-0.31713867,-0.75201416,0.4015503,-10.28125,5.96875,4.1875
434,1697623325,-0.34350586,-0.6670532,0.30218506,-1.390625,-3.34375,0.578125
435,1697623365,-0.09350586,-0.7251587,0.38641357,-25.234375,-1.375,-12.59375
436,1697623405,-0.1796875,-1.005188,0.35272217,15.890625,3.890625,7.25
437,1697623445,0.049560547,-1.5320435,0.6618042,20.71875,-2.921875,8.96875
438,1697623485,-0.04638672,-0.96343994,0.5062866,-18.15625,-2.15625,-10.03125
439,1697623525,-0.4873047,-0.692688,0.32489014,12.515625,2.015625,5.765625
440,1697623565,-0.23413086,-0.65582275,0.3649292,-29.140625,-8.078125,-9.9375
441,1697623605,-0.06567383,-0.8670044,0.42352295,-15.0625,1.484375,-1.203125
442,1697623645,-0.18530273,-1.2019653,0.5182495,-17.484375,0.828125,3.140625
443,1697623685,-0.18164062,-1.1204224,0.5272827,-18.0625,-10.03125,-12.5
444,1697623725,-0.14501953,-0.85601807,0.43914795,0.203125,-1.9375,-7.015625
445,1697623765,-0.1928711,-0.7319946,0.48382568,9.953125,3.921875,-1.78125
446,1697623805,-0.22729492,-0.83917236,0.46038818,-3.8125,-2.421875,3.390625
447,1697623845,-0.20043945,-0.9180298,0.47210693,-9.671875,-8.03125,0.984375
448,1697623885,-0.19335938,-0.9258423,0.4310913,-1.09375,-9.65625,-2.484375
449,1697623925,-0.16748047,-0.8604126,0.42181396,19.03125,-12.671875,0.578125
450,1697623965,-0.22192383,-1.0298462,0.25604248,49.703125,1.859375,11.90625
451,1697624005,0.16455078,-0.85723877,0.5831909,4.5,10.046875,5.3125
452,1697624045,-0.36889648,-1.0857544,0.5128784,-0.21875,12.8125,14.46875
453,1697624085,-0.5124512,-0.8567505,0.37371826,-2.640625,-9.453125,-11.265625
454,1697624125,-0.08325195,-0.7354126,0.29608154,0.53125,1.390625,-12.75
455,1697624165,0.064697266,-0.9656372,0.09954834,10.3125,3.359375,15.453125
456,1697624205,0.032470703,-1.154602,0.5180054,-2.859375,13.0625,4.921875
457,1697624245,-0.4777832,-1.1677856,0.5270386,-13.984375,0.75,-3.46875
458,1697624285,-0.38378906,-0.8994751,0.42840576,5.9375,-3.109375,-3.984375
459,1697624325,0.013183594,-0.51104736,0.18426514,-20.015625,-4.359375,-11.28125
460,1697624365,-0.103027344,-0.7710571,0.15911865,20.5,10.21875,15.90625
461,1697624405,-0.008056641,-1.2654419,0.5578003,10.796875,9.640625,6.921875
462,1697624445,-0.30615234,-1.3303833,0.63812256,-9.890625,2.484375,-2.53125
463,1697624485,-0.39941406,-0.87872314,0.37982178,-0.734375,-9.765625,-4.15625
464,1697624525,-0.056884766,-0.548645,0.32440186,-29.15625,-3.671875,-14.453125
465,1697624565,-0.1496582,-0.647522,0.20013428,7.9375,3.078125,6.921875
466,1697624605,-0.078125,-1.2578735,0.44036865,22.171875,0.375,17.484375
467,1697624645,0.0847168,-1.3355103,0.6989136,-6.421875,8.390625,-17.953125
468,1697624685,-0.4892578,-0.89068604,0.36688232,6.109375,-4.8125,12.640625
469,1697624725,-0.2722168,-0.583313,0.2982788,-16.34375,-4.703125,-7.9375
470,1697624765,-0.1184082,-0.5720825,0.26263428,-9.734375,4.984375,-5.515625
471,1697624805,-0.19677734,-0.9976196,0.36468506,15.734375,9.921875,15.03125
472,1697624845,0.15429688,-1.461731,0.39691162,11.875,-1.546875,-2.0625
473,1697624885,-0.03540039,-1.1594849,0.6486206,3.234375,6.75,-9.0625
474,1697624925,-0.4819336,-0.77056885,0.2868042,1.09375,-1.25,11.609375
475,1697624965,-0.3232422,-0.5774536,0.27215576,-29.6875,-2.0625,-6.515625
476,1697625005,-0.03857422,-0.6277466,0.2904663,-10.265625,1.484375,-11.375
477,1697625045,-0.106933594,-1.1795044,0.4237671,6.59375,0.84375,11.78125
478,1697625085,0.072753906,-1.5701294,0.58221436,13.96875,-7.90625,1.5
479,1697625125,-0.087890625,-0.96173096,0.42401123,-7.828125,2.3125,-12.296875
480,1697625165,-0.41088867,-0.6382446,0.34588623,7.328125,11.578125,7.53125
481,1697625205,-0.34570312,-0.6331177,0.38616943,-14.609375,-7.546875,-4.109375
482,1697625245,-0.056640625,-0.7637329,0.2826538,-5.703125,0.515625,-8.3125
483,1697625285,-0.009033203,-1.1782837,0.3114624,23.359375,-0.28125,11.265625
484,1697625325,-0.037109375,-1.3894653,0.5824585,15.15625,5.546875,4.578125
485,1697625365,-0.3305664,-0.81866455,0.32269287,-6.875,11.09375,5.140625
486,1697625405,-0.328125,-0.61016846,0.3312378,-2.140625,-2.15625,-1.46875
487,1697625445,-0.06689453,-0.690979,0.31463623,-23.84375,-5.328125,-16.015625
488,1697625485,-0.15332031,-1.017395,0.38885498,5.046875,0.03125,4.09375
489,1697625525,-0.061279297,-1.487854,0.6415405,7.6875,-7.25,12.0
490,1697625565,-0.06567383,-0.9456177,0.44500732,-2.96875,10.546875,-10.046875
491,1697625605,-0.40307617,-0.7456665,0.28948975,7.109375,5.53125,3.453125
492,1697625645,-0.21435547,-0.694397,0.37225342,-18.28125,-6.6875,-5.75
493,1697625685,-0.08129883,-0.83380127,0.26776123,-1.328125,-0.390625,-3.34375
494,1697625725,-0.099609375,-1.2815552,0.46453857,7.5625,-8.375,10.609375
495,1697625765,-0.053710938,-1.1582642,0.5331421,-4.25,1.75,-9.296875
496,1697625805,-0.32617188,-0.7490845,0.30267334,-1.171875,9.03125,3.140625
497,1697625845,-0.17260742,-0.7197876,0.39349365,-9.125,-6.171875,-4.3125
498,1697625885,-0.095458984,-0.7451782,0.33709717,-8.171875,-1.140625,-6.328125
499,1697625925,-0.22558594,-1.0908813,0.35736084,9.640625,1.4375,12.171875
500,1697625965,-0.047607422,-1.367981,0.70648193,5.203125,-6.5625,4.75
501,1697626005,-0.1184082,-0.8530884,0.46868896,-4.953125,10.71875,-8.09375
502,1697626045,-0.39697266,-0.7617798,0.3378296,4.984375,2.25,3.78125
503,1697626085,-0.13061523,-0.69610596,0.3781128,-24.65625,-12.84375,-13.71875
504,1697626125,-0.0949707,-0.8599243,0.2741089,-1.359375,3.015625,1.34375
505,1697626165,-0.15551758,-1.2527466,0.31414795,8.359375,-3.640625,12.171875
506,1697626205,-0.020996094,-1.2034302,0.65301514,8.75,3.65625,-11.328125
507,1697626245,-0.2932129,-0.68927,0.3126831,-2.71875,16.25,5.984375
508,1697626285,-0.2434082,-0.66192627,0.34710693,-6.109375,-9.578125,-3.171875
509,1697626325,-0.09106445,-0.7271118,0.35247803,-16.4375,-5.046875,-9.796875
510,1697626365,-0.1772461,-1.1292114,0.38519287,1.9375,1.796875,10.234375
511,1697626405,-0.15966797,-1.3884888,0.5673218,19.515625,-8.40625,3.296875
512,1697626445,0.00024414062,-0.95928955,0.5741577,2.03125,7.15625,-13.5
513,1697626485,-0.41845703,-0.65948486,0.24041748,8.8125,8.890625,16.015625
514,1697626525,-0.20776367,-0.6397095,0.32904053,-12.203125,-10.21875,-6.75
515,1697626565,-0.024169922,-0.913147,0.32366943,0.84375,-0.40625,-5.34375
516,1697626605,-0.1340332,-1.2363892,0.30194092,6.546875,3.6875,11.203125
517,1697626645,-0.07104492,-1.1878052,0.64227295,9.515625,7.8125,-7.421875
518,1697626685,-0.28100586,-0.82696533,0.418396,-7.6875,8.1875,5.09375
519,1697626725,-0.29345703,-0.659729,0.2921753,-1.625,-6.546875,0.40625
520,1697626765,-0.056640625,-0.70928955,0.29364014,-2.90625,4.71875,-7.921875
521,1697626805,-0.07421875,-1.1467896,0.2753296,8.8125,-0.421875,11.375
522,1697626845,-0.23950195,-1.2905884,0.5968628,-4.125,-1.59375,-2.078125
523,1697626885,-0.14111328,-0.9558716,0.42474365,-8.84375,2.9375,-7.9375
524,1697626925,-0.30029297,-0.77227783,0.33831787,2.0,-1.9375,7.21875
525,1697626965,-0.08496094,-0.6946411,0.30706787,-2.46875,2.328125,-3.5625
526,1697627005,-0.12060547,-0.96539307,0.2999878,12.71875,5.765625,4.546875
527,1697627045,-0.20263672,-1.2158813,0.56292725,4.921875,-4.0,0.875
528,1697627085,-0.08618164,-1.0161743,0.4598999,-7.328125,4.59375,-7.9375
529,1697627125,-0.30664062,-0.8296509,0.3829956,0.875,-2.703125,7.578125
530,1697627165,-0.100097656,-0.76153564,0.42913818,-10.953125,0.796875,-2.21875
531,1697627205,-0.1027832,-0.9024048,0.35858154,-16.453125,4.15625,-2.484375
532,1697627245,-0.24243164,-1.0462036,0.4298706,-26.171875,0.53125,-3.71875
533,1697627285,-0.1694336,-1.0796509,0.46185303,-13.4375,-8.828125,-7.859375
534,1697627325,-0.09350586,-0.93634033,0.42962646,-0.84375,-4.90625,-7.078125
535,1697627365,-0.16137695,-0.8086548,0.46551514,3.1875,5.90625,-4.015625
536,1697627405,-0.22460938,-0.80963135,0.47479248,-0.859375,3.703125,1.53125
537,1697627445,-0.23461914,-0.9065552,0.45770264,-6.15625,-4.421875,2.375
538,1697627485,-0.23852539,-0.9402466,0.5072632,-11.78125,-11.46875,-2.28125
539,1697627525,-0.19580078,-0.92974854,0.46697998,-12.234375,-14.84375,-5.34375
540,1697627565,-0.15649414,-0.8101196,0.3937378,3.671875,-16.890625,-3.203125
541,1697627605,-0.21313477,-0.9055786,0.40594482,45.625,6.40625,13.640625
542,1697627645,-0.0068359375,-1.0081177,0.4706421,9.65625,16.15625,5.90625
543,1697627685,-0.29907227,-0.92510986,0.4015503,11.65625,25.5625,7.515625
544,1697627725,-0.28637695,-0.8755493,0.38153076,1.28125,-11.25,-2.09375
545,1697627765,-0.15063477,-0.8464966,0.40179443,27.84375,3.40625,0.265625
546,1697627805,0.052001953,-1.0505981,0.3065796,-3.859375,6.734375,10.140625
547,1697627845,-0.2565918,-0.96221924,0.37982178,-5.21875,11.359375,3.984375
548,1697627885,-0.27319336,-1.0305786,0.44769287,-7.421875,-3.203125,-7.359375
549,1697627925,-0.21533203,-0.833313,0.1749878,-7.84375,-8.15625,-2.890625
550,1697627965,-0.01928711,-1.0244751,0.54681396,10.921875,3.0625,13.28125
551,1697628005,-0.15917969,-0.96759033,0.3632202,-8.640625,9.890625,3.8125
552,1697628045,-0.19116211,-1.0056763,0.38739014,-9.4375,-1.140625,-3.875
553,1697628085,-0.16894531,-0.67803955,0.28094482,-0.171875,-8.34375,-9.109375
554,1697628125,-0.08178711,-1.1016235,0.5392456,40.4375,10.046875,20.609375
555,1697628165,-0.012207031,-0.9817505,0.28656006,-20.171875,-1.296875,5.625
556,1697628205,-0.20043945,-0.98394775,0.37713623,-1.375,6.6875,-9.953125
557,1697628245,-0.17822266,-0.8945923,0.4796753,-22.890625,-4.453125,-14.671875
558,1697628285,-0.22827148,-0.7178345,0.1762085,3.9375,-5.15625,4.328125
559,1697628325,-0.017822266,-1.2747192,0.52630615,39.09375,5.921875,22.40625
560,1697628365,0.014404297,-1.0630493,0.2904663,-22.640625,-5.328125,-7.75
561,1697628405,-0.26879883,-0.9390259,0.36566162,-2.515625,9.5625,-6.40625
562,1697628445,-0.2211914,-0.7583618,0.41448975,-27.15625,-5.375,-13.078125
563,1697628485,-0.234375,-0.62823486,0.14813232,0.390625,-10.234375,3.921875
564,1697628525,0.029785156,-1.3562622,0.61395264,32.0625,5.28125,16.484375
565,1697628565,-0.00048828125,-1.1519165,0.37738037,-30.84375,2.40625,-14.140625
566,1697628605,-0.33422852,-0.8977661,0.43670654,5.109375,0.578125,-4.203125
567,1697628645,-0.18066406,-0.6824341,0.3776245,-23.71875,-4.09375,-7.453125
568,1697628685,-0.18310547,-0.62994385,0.16668701,-7.859375,-0.015625,0.5
569,1697628725,0.14819336,-1.4841919,0.5895386,-5.25,-8.890625,-2.9375
570,1697628765,-0.2421875,-0.9837036,0.30755615,-12.4375,13.234375,-9.015625
571,1697628805,-0.2541504,-0.69976807,0.4159546,-0.5625,-4.171875,-5.96875
572,1697628845,-0.14819336,-0.6240845,0.32391357,-26.265625,0.328125,-10.015625
573,1697628885,-0.2578125,-0.75177,0.22943115,21.90625,-3.6875,8.796875
574,1697628925,0.091796875,-1.5742798,0.6876831,13.671875,-5.953125,10.796875
575,1697628965,-0.1274414,-0.9673462,0.33099365,-16.03125,13.609375,-8.546875
576,1697629005,-0.32348633,-0.7774048,0.41741943,4.90625,-2.34375,-2.578125
577,1697629045,-0.14501953,-0.6370239,0.33807373,-23.09375,-5.625,-8.5
578,1697629085,-0.18359375,-0.79571533,0.17938232,10.75,-0.609375,7.671875
579,1697629125,0.0009765625,-1.560852,0.7423706,20.15625,-1.671875,11.953125
580,1697629165,-0.13647461,-1.0110474,0.38275146,-21.265625,7.921875,-8.515625
581,1697629205,-0.33447266,-0.81622314,0.387146,7.90625,-0.75,-0.5
582,1697629245,-0.13598633,-0.65338135,0.3768921,-21.171875,-5.9375,-9.453125
583,1697629285,-0.15332031,-0.76153564,0.14422607,2.65625,-4.359375,5.390625
584,1697629325,-0.0625,-1.3965454,0.7706909,17.734375,2.453125,7.65625
585,1697629365,-0.13891602,-1.0344849,0.41937256,-24.640625,3.640625,-9.328125
586,1697629405,-0.3317871,-0.8130493,0.3912964,9.046875,-1.40625,1.8125
587,1697629445,-0.107666016,-0.66973877,0.38983154,-15.9375,-0.765625,-8.3125
588,1697629485,-0.15161133,-0.7805786,0.2826538,-5.140625,5.765625,-0.390625
589,1697629525,-0.25952148,-1.1907349,0.43865967,27.203125,-0.625,11.0
590,1697629565,0.06762695,-1.1646118,0.5878296,4.265625,0.609375,-0.125
591,1697629605,-0.3466797,-0.80181885,0.24334717,-1.671875,15.28125,4.265625
592,1697629645,-0.27441406,-0.73028564,0.36151123,-13.71875,-12.296875,-9.640625
593,1697629685,-0.049072266,-0.7149048,0.37982178,-16.625,-0.328125,-9.640625
594,1697629725,-0.1862793,-1.0430298,0.36566162,8.59375,6.953125,12.46875
595,1697629765,-0.107421875,-1.4570923,0.638855,12.859375,-12.578125,4.21875
596,1697629805,-0.06616211,-0.9429321,0.49749756,-18.109375,-0.515625,-10.53125
597,1697629845,-0.36791992,-0.65216064,0.3456421,5.84375,4.515625,1.921875
598,1697629885,-0.16723633,-0.70513916,0.34881592,-14.703125,-3.75,-2.34375
599,1697629925,-0.111328125,-0.84161377,0.32000732,1.015625,3.25,-2.34375
600,1697629965,-0.16430664,-1.2698364,0.48553467,0.875,2.390625,6.53125
601,1697630005,-0.083984375,-1.2097778,0.4784546,9.28125,-4.828125,-2.15625
602,1697630045,-0.14233398,-0.86309814,0.46844482,1.0,12.953125,0.375
603,1697630085,-0.32104492,-0.64019775,0.32391357,11.328125,-0.53125,1.6875
604,1697630125,-0.18554688,-0.80670166,0.42352295,-16.015625,-3.484375,-3.953125
605,1697630165,-0.07055664,-0.9031372,0.39959717,-10.0,-1.15625,-3.28125
606,1697630205,-0.3413086,-1.138977,0.38763428,-3.75,-8.71875,5.46875
607,1697630245,0.0107421875,-1.0696411,0.47698975,9.171875,-9.8125,0.78125
608,1697630285,-0.0690918,-0.87335205,0.3361206,27.1875,18.3125,-0.375
609,1697630325,-0.18920898,-0.85406494,0.27679443,8.046875,4.46875,7.796875
610,1697630365,-0.2265625,-0.83477783,0.3986206,-10.46875,-0.546875,-1.859375
611,1697630405,-0.1862793,-0.9204712,0.4833374,-3.953125,-2.953125,0.046875
612,1697630445,-0.17138672,-0.9746704,0.3727417,0.078125,-4.4375,2.65625
613,1697630485,-0.14013672,-1.0298462,0.2921753,13.796875,-5.796875,5.53125
614,1697630525,0.03125,-1.0615845,0.42303467,11.1875,-2.984375,6.703125
615,1697630565,-0.16699219,-0.86676025,0.40325928,-11.921875,8.328125,-0.234375
616,1697630605,-0.28027344,-0.8718872,0.37322998,0.859375,10.390625,3.0
617,1697630645,-0.16357422,-0.8855591,0.3126831,-8.921875,-10.828125,-6.53125
618,1697630685,-0.026855469,-1.0037231,0.3300171,7.6875,-0.640625,0.734375
619,1697630725,-0.041503906,-1.116272,0.54022217,14.140625,10.21875,5.640625
620,1697630765,-0.17529297,-0.8731079,0.48284912,-1.65625,-5.359375,-5.0625
621,1697630805,-0.22070312,-0.81207275,0.37420654,2.953125,-4.859375,-0.109375
622,1697630845,-0.22460938,-0.8140259,0.29266357,27.609375,-8.171875,8.5
623,1697630885,-0.03491211,-1.2263794,0.60491943,42.59375,15.0625,19.921875
624,1697630925,-0.16870117,-0.8340454,0.3463745,-3.703125,12.75,7.828125
625,1697630965,-0.3383789,-0.927063,0.35736084,1.859375,7.875,-1.234375
626,1697631005,-0.123535156,-0.7505493,0.37835693,-24.25,-17.296875,-20.59375
627,1697631045,-0.14135742,-0.8364868,0.25482178,30.9375,0.796875,12.140625
628,1697631085,0.061523438,-1.2578735,0.46038818,9.765625,21.453125,23.78125
629,1697631125,-0.21459961,-1.0671997,0.34246826,-2.421875,11.265625,-0.90625
630,1697631165,-0.2878418,-0.8567505,0.3961792,-6.75,-3.28125,-15.640625
631,1697631205,-0.13745117,-0.67559814,0.29241943,-22.09375,-7.5,-11.671875
632,1697631245,-0.20947266,-0.8880005,0.32977295,19.734375,0.5625,21.28125
633,1697631285,0.0146484375,-1.2556763,0.4940796,1.609375,-2.171875,7.984375
634,1697631325,-0.15209961,-1.0540161,0.3390503,-9.0625,6.859375,-10.375
635,1697631365,-0.23413086,-0.8491821,0.40863037,-6.625,-1.140625,-8.890625
636,1697631405,-0.17822266,-0.647522,0.21429443,-3.53125,-8.578125,-0.984375
637,1697631445,-0.076416016,-1.100647,0.4694214,25.953125,7.265625,17.5625
638,1697631485,0.012451172,-1.1555786,0.4076538,-18.078125,-11.328125,-6.953125
639,1697631525,-0.28100586,-1.0181274,0.34051514,-13.890625,-2.609375,-11.890625
640,1697631565,-0.19042969,-0.70635986,0.4472046,-18.234375,-5.71875,-8.5625
641,1697631605,-0.2421875,-0.73223877,0.1774292,1.78125,2.34375,4.0
642,1697631645,-0.0859375,-1.0090942,0.3324585,14.875,-2.59375,14.078125
643,1697631685,0.103027344,-1.2966919,0.5778198,-3.125,6.0,-11.796875
644,1697631725,-0.30151367,-0.8648071,0.41522217,4.140625,3.71875,3.15625
645,1697631765,-0.26293945,-0.7161255,0.33514404,-2.703125,-1.46875,2.015625
646,1697631805,-0.15209961,-0.6812134,0.24920654,-7.1875,-0.015625,-4.875
647,1697631845,-0.04321289,-1.0657349,0.21820068,29.6875,11.234375,13.03125
648,1697631885,0.057861328,-1.3760376,0.5973511,20.796875,17.65625,5.234375
649,1697631925,-0.23461914,-0.98150635,0.3908081,-13.375,-3.34375,0.671875
650,1697631965,-0.3708496,-0.7258911,0.3156128,-5.59375,-7.015625,-0.859375
651,1697632005,-0.08642578,-0.6519165,0.1395874,-16.140625,-6.53125,-13.8125
652,1697632045,-0.029541016,-1.0405884,0.5182495,18.109375,8.828125,9.171875
653,1697632085,-0.06323242,-1.2407837,0.39544678,-6.765625,0.875,3.515625
654,1697632125,-0.2939453,-1.010315,0.37664795,-12.046875,-3.015625,-7.0
655,1697632165,-0.07788086,-0.7371216,0.36566162,-5.734375,-3.5625,-10.9375
656,1697632205,-0.1496582,-0.71539307,0.15740967,7.90625,-1.40625,0.5625
657,1697632245,-0.10839844,-1.201477,0.58758545,23.171875,12.515625,17.328125
658,1697632285,-0.09082031,-1.0671997,0.3600464,-20.234375,-5.59375,-3.015625
659,1697632325,-0.25708008,-0.93927,0.354187,-2.109375,-1.75,-6.359375
660,1697632365,-0.09716797,-0.831604,0.37249756,-19.96875,-6.640625,-14.078125
661,1697632405,-0.23901367,-0.7979126,0.14984131,-1.640625,2.078125,4.109375
662,1697632445,-0.13208008,-1.2896118,0.6129761,21.84375,2.15625,15.703125
663,1697632485,-0.020019531,-1.0640259,0.4569702,-17.703125,-6.1875,-10.46875
664,1697632525,-0.31567383,-0.84747314,0.3258667,-6.078125,-2.671875,-1.90625
665,1697632565,-0.1821289,-0.7078247,0.37591553,-20.78125,-6.296875,-11.96875
666,1697632605,-0.19726562,-0.7371216,0.18328857,5.8125,8.21875,4.9375
667,1697632645,-0.09472656,-1.3555298,0.51068115,20.8125,-3.71875,21.234375
668,1697632685,0.06665039,-1.1047974,0.5375366,-22.28125,-11.96875,-19.84375
669,1697632725,-0.3022461,-0.84991455,0.34246826,1.71875,6.03125,0.078125
670,1697632765,-0.234375,-0.6555786,0.371521,-5.515625,-5.71875,-4.953125
671,1697632805,-0.12060547,-0.659729,0.19866943,0.21875,6.359375,-1.859375
672,1697632845,-0.08569336,-1.2434692,0.3234253,20.265625,-2.3125,17.328125
673,1697632885,0.11230469,-1.2578735,0.6461792,-7.765625,-10.28125,-19.515625
674,1697632925,-0.32958984,-0.8880005,0.31976318,-3.390625,9.03125,3.9375
675,1697632965,-0.28320312,-0.6255493,0.34344482,8.1875,-0.453125,2.734375
676,1697633005,-0.09643555,-0.6253052,0.25164795,-3.109375,7.546875,-5.28125
677,1697633045,-0.11279297,-1.0632935,0.23773193,10.46875,1.390625,8.859375
678,1697633085,-0.05444336,-1.2649536,0.6671753,-10.34375,-9.734375,-17.8125
679,1697633125,-0.08569336,-1.0742798,0.5006714,4.46875,6.796875,-9.0625
680,1697633165,-0.39233398,-0.77423096,0.3065796,7.3125,-7.71875,16.546875
681,1697633205,-0.18041992,-0.92022705,0.49554443,-2.03125,2.109375,-7.0625
682,1697633245,-0.22167969,-0.82891846,0.44256592,9.21875,9.953125,-2.859375
683,1697633285,-0.18066406,-0.7007446,0.36761475,-0.453125,-4.953125,2.015625
684,1697633325,-0.19482422,-0.77227783,0.30755615,20.34375,-18.796875,7.8125
685,1697633365,-0.091308594,-1.1253052,0.5338745,22.21875,-2.75,2.8125
686,1697633405,-0.13354492,-0.9163208,0.52752686,-4.953125,12.9375,1.78125
687,1697633445,-0.35375977,-0.9331665,0.40716553,1.984375,3.28125,7.671875
688,1697633485,-0.22973633,-0.7156372,0.33758545,-2.65625,-13.9375,-7.71875
689,1697633525,-0.13061523,-0.8804321,0.2994995,30.5625,11.0,4.90625
690,1697633565,0.04272461,-1.1712036,0.51483154,0.375,17.40625,7.84375
691,1697633605,-0.30517578,-1.062561,0.49212646,6.34375,17.578125,4.984375
692,1697633645,-0.38012695,-0.83599854,0.38153076,-5.0625,-6.5,-4.875
693,1697633685,-0.084228516,-0.6433716,0.20819092,-14.828125,-3.921875,-9.671875
694,1697633725,-0.07470703,-0.95098877,0.30096436,31.21875,8.515625,15.859375
695,1697633765,0.05102539,-1.2612915,0.55389404,9.25,9.390625,11.484375
696,1697633805,-0.2998047,-0.93292236,0.3336792,-15.109375,7.75,-5.703125
697,1697633845,-0.31298828,-0.8340454,0.41033936,-2.6875,-4.4375,-8.140625
698,1697633885,-0.059570312,-0.7229614,0.20672607,-24.71875,-10.859375,-11.78125
699,1697633925,-0.21069336,-0.9121704,0.39715576,15.71875,-7.09375,15.96875
700,1697633965,0.072509766,-1.2319946,0.53778076,-4.484375,1.25,-5.328125
701,1697634005,-0.32617188,-0.99224854,0.37054443,-3.71875,0.734375,1.703125
702,1697634045,-0.18847656,-0.7835083,0.41278076,1.546875,1.125,-2.75
703,1697634085,-0.13720703,-0.7017212,0.29144287,-12.546875,-1.03125,-8.71875
704,1697634125,-0.22949219,-0.9180298,0.1954956,24.34375,2.0625,11.515625
705,1697634165,0.080078125,-1.3059692,0.66986084,9.796875,0.265625,4.71875
706,1697634205,-0.15795898,-0.93927,0.34100342,-10.34375,11.046875,-1.75
707,1697634245,-0.3720703,-0.7883911,0.39788818,7.96875,0.234375,2.6875
708,1697634285,-0.13769531,-0.6897583,0.29388428,-17.203125,-5.359375,-15.234375
709,1697634325,-0.13793945,-0.87872314,0.2387085,23.640625,6.625,14.234375
710,1697634365,0.041259766,-1.3811646,0.6351929,17.234375,14.640625,17.953125
711,1697634405,-0.16821289,-1.0515747,0.30218506,-12.875,2.671875,-5.984375
712,1697634445,-0.31982422,-0.79351807,0.40594482,-3.5,-3.40625,-9.234375
713,1697634485,-0.08251953,-0.70391846,0.31463623,-25.3125,-9.875,-19.359375
714,1697634525,-0.19970703,-0.7227173,0.25115967,19.484375,4.328125,12.796875
715,1697634565,0.07714844,-1.4849243,0.5848999,18.53125,2.953125,16.921875
716,1697634605,-0.15625,-1.1055298,0.25750732,-21.484375,-3.65625,-15.984375
717,1697634645,-0.31762695,-0.77838135,0.38275146,-2.765625,4.046875,-7.21875
718,1697634685,-0.15283203,-0.68341064,0.3102417,-25.3125,-9.015625,-9.5
719,1697634725,-0.30273438,-0.75372314,0.24603271,8.96875,-5.125,13.609375
720,1697634765,0.030029297,-1.3745728,0.6107788,20.328125,4.09375,10.375
721,1697634805,-0.091552734,-1.0325317,0.27825928,-17.140625,7.671875,-14.1875
722,1697634845,-0.19091797,-0.8135376,0.4472046,2.59375,0.234375,-2.875
723,1697634885,-0.14697266,-0.71051025,0.2970581,-18.75,-4.265625,-5.96875
724,1697634925,-0.33789062,-0.8049927,0.27972412,26.15625,0.578125,17.703125
725,1697634965,0.1508789,-1.4126587,0.6102905,23.546875,-5.484375,12.484375
726,1697635005,-0.08911133,-1.0130005,0.24041748,-21.9375,9.234375,-11.40625
727,1697635045,-0.26171875,-0.77301025,0.38372803,2.328125,-0.390625,-8.03125
728,1697635085,-0.22460938,-0.6602173,0.260437,-12.46875,-9.375,-4.59375
729,1697635125,-0.26635742,-1.0161743,0.44525146,14.125,-3.03125,25.6875
730,1697635165,0.10229492,-1.1863403,0.51971436,-5.96875,-4.15625,-2.90625
731,1697635205,-0.20825195,-1.0247192,0.2999878,-9.84375,5.484375,-18.796875
732,1697635245,-0.13696289,-0.7671509,0.4586792,-6.203125,-4.3125,-8.953125
733,1697635285,-0.21069336,-0.6296997,0.23260498,-12.078125,1.484375,-2.78125
734,1697635325,-0.31396484,-0.9849243,0.38690186,5.3125,7.71875,20.578125
735,1697635365,0.026367188,-1.4126587,0.6156616,8.140625,-7.6875,-3.875
736,1697635405,-0.078125,-0.86798096,0.30706787,-9.515625,8.640625,-12.578125
737,1697635445,-0.30078125,-0.81085205,0.4039917,3.125,2.46875,1.21875
738,1697635485,-0.20751953,-0.64385986,0.25164795,-10.453125,-6.125,-2.953125
739,1697635525,-0.21606445,-0.91119385,0.27874756,32.703125,11.015625,18.15625
740,1697635565,0.1784668,-1.3567505,0.6066284,2.9375,-0.359375,2.40625
741,1697635605,-0.24169922,-1.0569458,0.28826904,-11.046875,14.09375,-12.015625
742,1697635645,-0.28564453,-0.7288208,0.45404053,-3.15625,-8.828125,-5.953125
743,1697635685,-0.103759766,-0.72442627,0.32562256,-32.375,-5.171875,-8.25
744,1697635725,-0.21142578,-0.91241455,0.3710327,-27.46875,-1.375,-0.375
745,1697635765,-0.2824707,-1.18219,0.5409546,-31.9375,-17.03125,-12.09375
746,1697635805,-0.0925293,-0.98272705,0.5548706,-8.125,-7.484375,-4.34375
747,1697635845,-0.1105957,-0.77227783,0.46307373,12.953125,6.609375,-1.578125
748,1697635885,-0.1381836,-0.7888794,0.20965576,7.96875,-13.703125,-1.46875
749,1697635925,0.084472656,-1.1187134,0.47381592,3.296875,10.390625,14.5625
750,1697635965,-0.25610352,-1.2571411,0.4862671,-1.234375,16.203125,5.703125
751,1697636005,-0.28881836,-0.92437744,0.43548584,-6.953125,-6.9375,-14.546875
752,1697636045,-0.057128906,-0.5491333,0.30560303,-15.4375,-4.296875,-9.265625
753,1697636085,-0.18920898,-0.7583618,0.20965576,13.625,-1.171875,14.859375
754,1697636125,-0.056396484,-1.2922974,0.5765991,-1.328125,1.65625,7.3125
755,1697636165,-0.15820312,-1.2251587,0.47479248,-12.328125,13.71875,-11.640625
756,1697636205,-0.34545898,-0.8530884,0.4298706,9.4375,-4.328125,0.78125
757,1697636245,-0.060058594,-0.59161377,0.32391357,-15.1875,0.609375,-3.734375
758,1697636285,-0.13964844,-0.76641846,0.22161865,7.96875,1.59375,7.125
759,1697636325,-0.1850586,-1.329895,0.63739014,15.890625,-6.203125,8.65625
