,timestamp,accel_x,accel_y,accel_z,gyro_x,gyro_y,gyro_z
0,1697605965,-0.030273438,-0.9890747,0.1852417,-1.625,0.796875,-0.234375
1,1697606005,-0.038085938,-0.99835205,0.19232178,-0.40625,0.203125,0.0625
2,1697606045,-0.025390625,-0.9885864,0.19354248,-0.5625,0.734375,-0.421875
3,1697606085,-0.03515625,-0.9817505,0.1852417,-1.125,0.75,-0.140625
4,1697606125,-0.0390625,-0.98687744,0.18475342,-0.203125,0.390625,0.203125
5,1697606165,-0.03491211,-0.9717407,0.18084717,-0.03125,0.8125,0.15625
6,1697606205,-0.04296875,-0.9690552,0.16864014,1.9375,0.484375,0.546875
7,1697606245,-0.052490234,-1.0149536,0.15594482,1.234375,-0.28125,1.21875
8,1697606285,-0.057128906,-1.0205688,0.14471436,1.046875,-0.234375,0.5625
9,1697606325,-0.06640625,-1.00177,0.13909912,0.234375,0.703125,0.453125
10,1697606365,-0.06518555,-0.9898071,0.15179443,-0.140625,0.078125,0.59375
11,1697606405,-0.05419922,-1.0151978,0.137146,-2.8125,-1.78125,0.5
12,1697606445,-0.052734375,-1.000061,0.15252686,-4.40625,-0.03125,-0.171875
13,1697606485,-0.044677734,-0.99713135,0.16009521,-2.578125,0.03125,1.046875
14,1697606525,-0.017578125,-0.9963989,0.14422607,-3.296875,-1.359375,1.359375
15,1697606565,0.009033203,-0.9976196,0.15325928,-2.15625,-1.078125,2.671875
16,1697606605,0.011230469,-0.9973755,0.19085693,-0.5,-0.0625,4.828125
17,1697606645,0.06323242,-1.008606,0.18328857,0.703125,0.015625,8.5625
18,1697606685,0.13598633,-0.9651489,0.22161865,3.6875,-2.390625,12.953125
19,1697606725,0.064208984,-0.9248657,0.27801514,4.390625,-2.375,13.234375
20,1697606765,0.00048828125,-1.0178833,0.29193115,-0.75,-5.703125,12.34375
21,1697606805,0.0026855469,-1.0701294,0.35491943,-3.90625,-1.4375,4.546875
22,1697606845,-0.023925781,-1.0466919,0.2819214,-1.484375,-2.078125,2.46875
23,1697606885,0.052978516,-0.95269775,0.26483154,1.484375,7.6875,0.40625
24,1697606925,0.018798828,-0.90411377,0.22454834,3.984375,5.484375,0.03125
25,1697606965,0.037597656,-0.88116455,0.23431396,6.0625,4.71875,3.21875
26,1697607005,0.11743164,-0.96417236,0.24212646,7.21875,3.21875,5.703125
27,1697607045,0.111328125,-0.9627075,0.26605225,2.890625,5.359375,1.140625
28,1697607085,0.04272461,-0.9265747,0.23553467,3.4375,0.078125,2.921875
29,1697607125,0.040527344,-0.894104,0.22406006,11.265625,5.109375,3.59375
30,1697607165,0.08544922,-0.9483032,0.2062378,2.03125,-3.609375,2.53125
31,1697607205,0.0871582,-0.95269775,0.30438232,11.046875,-0.265625,3.140625
32,1697607245,-0.052246094,-0.942688,0.21795654,8.046875,0.28125,-0.4375
33,1697607285,-0.009521484,-0.9924927,0.17108154,9.0625,-6.515625,0.28125
34,1697607325,0.013916016,-1.0574341,0.25238037,17.796875,12.578125,-0.28125
35,1697607365,0.110839844,-1.0930786,0.08441162,9.25,-11.421875,0.90625
36,1697607405,0.30126953,-1.3433228,0.15667725,22.75,-4.28125,5.625
37,1697607445,0.032470703,-1.3779907,0.05267334,-7.75,8.03125,-6.640625
38,1697607485,0.07714844,-1.2734985,-0.04083252,9.5625,-4.390625,2.140625
39,1697607525,0.30151367,-1.1682739,-0.017150879,7.515625,15.328125,-4.546875
40,1697607565,0.21582031,-1.0386353,-0.073791504,-13.84375,-0.625,-12.515625
41,1697607605,0.087890625,-0.9204712,-0.19805908,-18.140625,4.765625,-5.265625
42,1697607645,0.0036621094,-0.9993286,-0.21173096,3.015625,17.421875,-6.203125
43,1697607685,0.005126953,-1.0776978,0.038757324,-2.625,10.1875,-11.90625
44,1697607725,0.07739258,-0.9480591,0.11175537,-6.390625,8.1875,-9.734375
45,1697607765,0.064453125,-0.725647,0.031188965,7.140625,8.515625,-2.265625
46,1697607805,-0.008056641,-0.58917236,0.0048217773,-2.03125,9.359375,3.4375
47,1697607845,-0.068603516,-0.6062622,-0.04473877,-4.484375,4.203125,5.546875
48,1697607885,0.0036621094,-0.70758057,-0.038635254,6.15625,9.546875,5.734375
49,1697607925,0.110839844,-0.84625244,0.027038574,4.234375,-0.6875,9.109375
50,1697607965,0.17041016,-0.98883057,0.06781006,0.890625,-8.6875,10.28125
51,1697608005,-0.044433594,-1.0879517,0.074645996,-5.8125,-9.828125,6.046875
52,1697608045,-0.13793945,-1.1177368,0.050476074,2.53125,-0.875,9.046875
53,1697608085,-0.09863281,-1.2310181,0.057800293,-4.84375,-1.375,2.5
54,1697608125,0.020507812,-1.1694946,0.10101318,-3.28125,-3.65625,3.25
55,1697608165,0.12573242,-1.1084595,-0.051574707,-1.53125,-12.0,5.734375
56,1697608205,0.09423828,-1.3196411,-0.14556885,-17.84375,-8.921875,10.015625
57,1697608245,0.5336914,-1.7070923,0.19134521,1.046875,-0.625,7.03125
58,1697608285,0.39501953,-1.0488892,0.038757324,-6.953125,-13.078125,-9.46875
59,1697608325,0.17602539,-0.6921997,-0.09234619,-3.796875,-12.828125,-3.53125
60,1697608365,0.2607422,-0.72662354,0.03729248,4.171875,-6.046875,6.171875
61,1697608405,0.2861328,-1.0852661,0.16546631,-3.734375,-14.609375,3.1875
62,1697608445,0.03955078,-1.0654907,0.20111084,-1.703125,-8.125,-10.640625
63,1697608485,0.033447266,-0.81695557,0.097351074,-1.265625,-2.75,-9.5625
64,1697608525,0.115722656,-0.690979,0.07220459,1.578125,2.4375,-7.90625
65,1697608565,0.0847168,-0.6387329,0.11639404,4.046875,-9.078125,-5.140625
66,1697608605,-0.009033203,-0.6663208,0.11932373,7.71875,-0.703125,-2.25
67,1697608645,-0.041748047,-0.7305298,0.081970215,2.296875,3.265625,4.0625
68,1697608685,0.018066406,-0.7918091,0.15008545,0.34375,1.390625,2.78125
69,1697608725,0.024169922,-0.9026489,0.13934326,-4.875,-2.15625,0.6875
70,1697608765,0.107666016,-0.9927368,0.12762451,4.46875,-10.234375,2.109375
71,1697608805,0.08642578,-1.2068481,0.27801514,13.890625,6.625,3.71875
72,1697608845,-0.041015625,-1.3086548,0.19696045,-0.015625,-2.984375,-5.84375
73,1697608885,-0.06933594,-1.343811,0.047790527,4.921875,-3.640625,-13.15625
74,1697608925,0.21801758,-1.505188,0.020446777,23.75,13.796875,-5.71875
75,1697608965,-0.012451172,-1.0640259,0.039489746,-2.46875,0.078125,6.703125
76,1697609005,-0.10083008,-1.0957642,0.07489014,-2.703125,-2.21875,5.328125
77,1697609045,-0.115478516,-1.0005493,0.054138184,-8.484375,-0.28125,1.28125
78,1697609085,0.025634766,-1.1279907,0.03265381,-16.21875,-1.28125,-1.421875
79,1697609125,0.1796875,-1.3919067,0.053649902,-13.765625,-5.46875,2.328125
80,1697609165,0.20166016,-1.3814087,0.11004639,2.15625,-5.421875,7.15625
81,1697609205,0.38012695,-1.3230591,0.086364746,-21.921875,-12.359375,3.453125
82,1697609245,0.23730469,-1.3018188,0.05316162,-11.40625,-10.890625,2.03125
83,1697609285,0.31640625,-0.9639282,0.002380371,7.09375,-9.34375,-3.03125
84,1697609325,0.36816406,-0.82232666,0.0028686523,9.515625,-10.515625,-0.640625
85,1697609365,0.3046875,-0.93585205,0.1930542,15.6875,-2.484375,3.78125
86,1697609405,-0.02368164,-0.9338989,0.18719482,6.03125,-9.34375,-4.140625
87,1697609445,-0.12768555,-0.788147,0.09588623,-3.140625,-10.375,-9.03125
88,1697609485,0.14916992,-0.6709595,0.039733887,4.21875,-3.390625,-2.328125
89,1697609525,0.23144531,-0.6404419,0.14276123,0.765625,-4.125,-1.171875
90,1697609565,0.022705078,-0.6692505,0.1539917,-7.015625,-6.5,-2.09375
91,1697609605,-0.13745117,-0.7402954,0.105651855,-10.4375,1.734375,1.25
92,1697609645,-0.030517578,-0.7632446,0.18548584,3.140625,-0.21875,-0.328125
93,1697609685,0.05102539,-0.9417114,0.15472412,-4.859375,-10.0,-0.3125
94,1697609725,0.12548828,-1.1738892,0.24993896,-7.3125,-7.515625,1.78125
95,1697609765,0.022705078,-1.3308716,0.34881592,-0.078125,-3.125,-2.125
96,1697609805,-0.12841797,-1.2251587,0.25726318,1.3125,-2.53125,-14.828125
97,1697609845,0.09765625,-1.4407349,0.042663574,-15.125,-14.875,-9.953125
98,1697609885,0.12695312,-1.2979126,0.16766357,4.78125,16.4375,-8.578125
99,1697609925,0.045898438,-0.7371216,0.14007568,8.484375,11.4375,4.90625
100,1697609965,0.0087890625,-0.5598755,0.06561279,9.375,1.984375,10.125
101,1697610005,-0.060791016,-0.4421997,-0.027893066,8.546875,3.390625,6.4375
102,1697610045,-0.10229492,-0.41241455,-0.050842285,8.546875,5.421875,-0.21875
103,1697610085,0.045654297,-0.73272705,-0.12286377,5.171875,-2.4375,8.984375
104,1697610125,0.22143555,-1.201477,-0.013000488,0.46875,-13.296875,18.046875
105,1697610165,0.091552734,-1.4819946,0.17791748,5.515625,-23.46875,12.6875
106,1697610205,-0.10839844,-1.3916626,0.14764404,-5.5,-1.890625,7.3125
107,1697610245,-0.14990234,-1.1699829,-0.062561035,-4.15625,-7.203125,-5.265625
108,1697610285,-0.026611328,-1.1138306,-0.11065674,-7.9375,-6.15625,-4.03125
109,1697610325,0.32177734,-1.4888306,-0.039123535,-4.46875,-2.265625,3.71875
110,1697610365,0.40771484,-1.4453735,0.024108887,-1.75,-16.0625,-1.453125
111,1697610405,0.33325195,-0.97540283,-0.024475098,0.265625,-5.171875,1.6875
112,1697610445,0.3395996,-0.80010986,0.008972168,3.671875,-6.21875,4.90625
113,1697610485,0.2475586,-0.86602783,0.08660889,1.46875,-12.90625,7.546875
114,1697610525,0.055664062,-0.9053345,0.15081787,-0.765625,-4.6875,5.59375
115,1697610565,-0.05493164,-0.78790283,0.036315918,-3.84375,-7.328125,-2.8125
116,1697610605,0.0012207031,-0.6453247,0.0040893555,3.765625,1.109375,-5.734375
117,1697610645,0.08300781,-0.66485596,0.05609131,5.65625,7.78125,-2.609375
118,1697610685,0.061523438,-0.73321533,0.059265137,-4.0625,5.234375,2.90625
119,1697610725,0.12475586,-0.7866821,0.11199951,-3.28125,2.703125,4.078125
120,1697610765,0.100097656,-0.8897095,0.16351318,-12.5,-2.265625,-1.9375
121,1697610805,0.041015625,-1.0420532,0.20257568,-24.9375,-3.359375,-7.671875
122,1697610845,0.08251953,-1.0484009,0.22576904,-19.0625,4.078125,-7.125
123,1697610885,0.1328125,-1.0574341,0.24456787,-3.25,-3.8125,-5.765625
124,1697610925,0.011474609,-1.0986938,0.15960693,-0.25,0.8125,-11.46875
125,1697610965,0.16064453,-1.4380493,0.06976318,-7.6875,-12.265625,-6.609375
126,1697611005,0.17089844,-1.5352173,0.23236084,13.90625,16.359375,-1.09375
127,1697611045,0.18066406,-1.2166138,0.0021362305,-6.21875,7.953125,-14.8125
128,1697611085,0.06518555,-0.9522095,-0.11627197,1.5625,19.53125,-6.796875
129,1697611125,0.16040039,-0.76397705,-0.089904785,1.546875,17.203125,-8.375
130,1697611165,0.20874023,-0.97735596,0.04925537,5.6875,13.296875,4.828125
131,1697611205,-0.04663086,-1.1011353,0.11663818,1.3125,8.171875,-0.859375
132,1697611245,-0.09326172,-0.8916626,0.07293701,11.046875,10.296875,-1.171875
133,1697611285,0.091552734,-0.6223755,0.022399902,0.234375,8.328125,4.328125
134,1697611325,0.08203125,-0.598938,0.055847168,6.203125,2.640625,0.984375
135,1697611365,-0.010009766,-0.6721802,0.039245605,11.5,3.703125,-0.234375
136,1697611405,-0.009277344,-0.80914307,0.039245605,4.09375,2.515625,8.703125
137,1697611445,-0.020263672,-0.93096924,0.03704834,-1.671875,-5.921875,8.3125
138,1697611485,-0.055664062,-1.0332642,0.036071777,-0.71875,-9.625,4.71875
139,1697611525,-0.022705078,-1.1123657,0.0927124,1.421875,-7.546875,3.4375
140,1697611565,0.068847656,-1.3335571,0.11224365,-1.734375,-2.78125,2.21875
141,1697611605,0.013183594,-1.2947388,-0.077941895,-12.015625,-15.28125,-1.921875
142,1697611645,-0.018554688,-1.2632446,-0.04888916,2.4375,-6.78125,3.9375
143,1697611685,0.43115234,-1.505188,0.12713623,11.640625,-7.421875,6.109375
144,1697611725,0.31054688,-1.1416626,0.03265381,-3.28125,-13.671875,-4.109375
145,1697611765,0.21728516,-0.8340454,-0.07159424,-3.609375,-10.203125,0.546875
146,1697611805,0.31347656,-0.8970337,0.08465576,-0.21875,-0.078125,6.03125
147,1697611845,0.2277832,-1.0525513,0.22161865,-4.640625,-8.953125,-0.828125
148,1697611885,-0.0031738281,-1.135315,0.14984131,-4.515625,-1.921875,5.25
149,1697611925,0.103759766,-1.3372192,0.1708374,3.328125,-8.671875,8.078125
150,1697611965,0.046142578,-1.484436,-0.0012817383,-2.421875,-8.96875,7.078125
151,1697612005,0.17382812,-1.225647,-0.007873535,4.046875,-4.703125,2.796875
152,1697612045,0.30029297,-0.9981079,0.07928467,3.25,3.078125,0.859375
153,1697612085,0.35961914,-1.0217896,0.1618042,1.265625,-3.578125,8.09375
154,1697612125,0.15429688,-1.0874634,0.2033081,-4.8125,-10.5,0.78125
155,1697612165,-0.056396484,-0.9692993,0.16864014,-6.171875,-5.78125,-2.4375
156,1697612205,-0.00024414062,-0.8115845,0.13909912,-0.921875,0.546875,-5.09375
157,1697612245,0.0637207,-0.7095337,0.1395874,7.3125,4.3125,-1.734375
158,1697612285,-0.032714844,-0.66192627,0.15301514,-0.671875,3.234375,-2.734375
159,1697612325,-0.08862305,-0.6795044,0.17132568,-0.140625,11.28125,-0.84375
160,1697612365,-0.05029297,-0.7463989,0.18499756,-1.59375,12.390625,-3.40625
161,1697612405,0.080566406,-0.82940674,0.24578857,3.6875,1.25,-3.578125
162,1697612445,-0.043945312,-0.8286743,0.08074951,-2.4375,-2.609375,8.390625
163,1697612485,-0.03173828,-1.1184692,0.062438965,-1.296875,-6.609375,10.0
164,1697612525,-0.14770508,-1.1275024,0.11224365,-7.78125,-2.6875,5.203125
165,1697612565,-0.15478516,-1.1565552,0.15228271,-6.109375,-2.390625,-0.609375
166,1697612605,-0.05126953,-1.2073364,0.20379639,-6.75,2.46875,1.765625
167,1697612645,-0.020263672,-1.1660767,0.058044434,-7.984375,-10.84375,2.953125
168,1697612685,0.1743164,-1.2852173,0.11419678,-0.578125,-7.9375,5.03125
169,1697612725,0.23413086,-1.4544067,0.1605835,-7.15625,-13.6875,4.03125
170,1697612765,0.08886719,-1.1917114,0.007751465,1.625,-15.734375,1.5625
171,1697612805,0.24169922,-0.881897,-0.043273926,12.09375,-4.625,3.34375
172,1697612845,0.4025879,-0.8130493,0.09686279,12.53125,-2.34375,7.765625
173,1697612885,0.2770996,-0.9192505,0.20794678,3.78125,-18.671875,10.0625
174,1697612925,-0.103271484,-0.93414307,0.16131592,-0.0625,-21.234375,1.8125
175,1697612965,-0.23657227,-0.81817627,0.043151855,-4.265625,-13.34375,-6.625
176,1697613005,0.01977539,-1.4094849,-0.024963379,2.71875,-5.015625,3.359375
177,1697613045,0.21826172,-1.4590454,0.16522217,-6.203125,-2.53125,-1.9375
178,1697613085,0.3491211,-1.1160278,0.10638428,-3.796875,8.65625,-4.0
179,1697613125,0.3395996,-0.8635864,-0.015197754,5.71875,4.09375,2.0625
180,1697613165,0.39208984,-0.93927,0.07904053,3.265625,-2.09375,10.109375
181,1697613205,0.21142578,-1.2766724,0.27191162,-6.296875,-6.65625,6.78125
182,1697613245,-0.10986328,-1.1174927,0.21429443,-9.921875,1.359375,-9.78125
183,1697613285,-0.11035156,-0.81988525,0.012390137,-2.390625,11.640625,-10.6875
184,1697613325,0.22509766,-0.61016846,0.09613037,3.125,11.65625,-0.15625
185,1697613365,0.17236328,-0.6026001,0.21673584,3.53125,13.65625,1.84375
186,1697613405,0.037597656,-0.6050415,0.14105225,3.875,6.5625,8.828125
187,1697613445,-0.045898438,-0.6223755,0.10101318,-2.609375,13.25,7.09375
188,1697613485,-0.041748047,-0.7102661,0.08905029,1.125,14.65625,0.359375
189,1697613525,0.111816406,-0.8245239,0.13397217,2.703125,16.84375,1.734375
190,1697613565,0.32592773,-1.0181274,0.21209717,2.25,15.21875,6.328125
191,1697613605,0.17749023,-1.3013306,0.31365967,19.015625,6.078125,2.59375
192,1697613645,-0.09375,-1.3181763,0.062683105,-2.171875,-4.890625,-8.15625
193,1697613685,0.22607422,-1.3999634,0.018737793,12.140625,-11.15625,-2.21875
194,1697613725,0.15063477,-1.3587036,0.07342529,5.609375,18.5625,-5.515625
195,1697613765,0.1484375,-0.99835205,0.008972168,2.734375,8.515625,-14.53125
196,1697613805,0.1940918,-0.83477783,-0.15484619,6.03125,8.109375,-4.28125
197,1697613845,0.24731445,-0.9048462,-0.10235596,-4.109375,16.125,-2.859375
198,1697613885,0.1303711,-1.0825806,0.013366699,-4.96875,-4.484375,-5.34375
199,1697613925,0.024414062,-1.0481567,0.07611084,10.78125,11.890625,-0.9375
200,1697613965,0.08203125,-0.8960571,0.0006713867,9.3125,1.9375,-0.875
201,1697614005,0.0847168,-0.75079346,-0.02520752,-4.4375,-4.328125,0.0
202,1697614045,0.06591797,-0.7324829,-0.034729004,1.03125,-5.296875,0.71875
203,1697614085,0.04248047,-0.753479,-0.0049438477,7.953125,-4.109375,4.1875
204,1697614125,0.029785156,-0.8665161,0.022888184,-2.5625,-6.59375,4.875
205,1697614165,0.055664062,-0.95147705,0.026306152,-5.125,-17.75,2.234375
206,1697614205,0.034423828,-0.98321533,0.022644043,-1.75,-13.046875,2.21875
207,1697614245,-0.09643555,-0.9729614,0.0040893555,-11.125,-15.390625,1.3125
208,1697614285,-0.064697266,-1.1082153,0.025817871,-5.921875,-10.796875,0.078125
209,1697614325,0.12109375,-1.3154907,-0.057922363,-5.09375,-13.265625,1.125
210,1697614365,0.43725586,-1.3567505,0.10321045,4.75,-9.5625,6.390625
211,1697614405,0.43164062,-1.2866821,0.078063965,-5.96875,-20.4375,6.78125
212,1697614445,0.29101562,-1.0664673,0.05657959,-8.484375,-14.15625,4.875
213,1697614485,0.18164062,-0.83135986,-0.042785645,-3.65625,-20.484375,3.296875
214,1697614525,0.19311523,-0.84820557,0.06390381,-4.53125,-9.578125,3.96875
215,1697614565,0.0949707,-1.0134888,0.16644287,-2.359375,-9.4375,2.34375
216,1697614605,-0.018310547,-1.0200806,0.15447998,-2.328125,-0.75,-4.0625
217,1697614645,0.1459961,-0.79400635,0.054382324,3.15625,3.59375,-2.3125
218,1697614685,0.2626953,-0.70880127,0.11053467,11.03125,-1.59375,5.53125
219,1697614725,0.1784668,-0.79107666,0.1708374,5.71875,-2.78125,7.453125
220,1697614765,0.03173828,-0.8286743,0.13934326,0.859375,-4.75,5.25
221,1697614805,0.010986328,-0.8340454,0.11956787,4.078125,-0.953125,0.78125
222,1697614845,0.038330078,-0.8262329,0.14666748,12.6875,4.953125,-2.296875
223,1697614885,0.0793457,-0.8748169,0.11029053,3.46875,-3.40625,-0.40625
224,1697614925,0.080078125,-1.0271606,0.13885498,1.03125,2.25,0.78125
225,1697614965,0.016845703,-1.1367798,0.14642334,0.890625,9.359375,-9.40625
226,1697615005,0.048583984,-1.2913208,0.057556152,-6.265625,0.78125,-15.0
227,1697615045,0.3708496,-1.2422485,0.026794434,8.890625,10.796875,-3.296875
228,1697615085,0.31884766,-1.0691528,-0.066223145,-10.1875,15.71875,-7.71875
229,1697615125,0.17138672,-1.2088013,-0.046447754,4.03125,6.625,0.265625
230,1697615165,0.067871094,-1.0733032,-0.081848145,-4.046875,23.28125,-2.765625
231,1697615205,0.1340332,-0.90582275,-0.20172119,-1.8125,11.703125,-4.59375
232,1697615245,0.15209961,-0.93048096,-0.074035645,-4.71875,14.421875,0.015625
233,1697615285,0.0007324219,-1.0879517,0.054138184,-2.25,11.3125,2.28125
234,1697615325,-0.015136719,-1.0130005,0.14324951,-5.0625,10.96875,-0.21875
235,1697615365,0.11328125,-0.76934814,0.002380371,-13.015625,1.9375,-0.65625
236,1697615405,0.08618164,-0.6272583,0.01727295,-5.046875,3.65625,1.453125
237,1697615445,-0.055908203,-0.69122314,0.0045776367,-13.34375,-2.6875,1.15625
238,1697615485,-0.05908203,-0.86602783,0.054138184,-3.75,5.4375,-0.765625
239,1697615525,-0.013916016,-0.9324341,0.05999756,-0.40625,-0.140625,0.9375
240,1697615565,-0.0056152344,-0.90167236,0.04559326,11.78125,-2.609375,1.4375
241,1697615605,0.039794922,-0.9717407,0.04071045,8.078125,-6.90625,-0.0625
242,1697615645,0.064208984,-1.2434692,-0.12994385,-0.765625,-24.296875,1.734375
243,1697615685,0.20483398,-1.4819946,0.04534912,30.171875,1.765625,7.046875
244,1697615725,0.38378906,-1.3196411,0.062927246,8.515625,0.125,1.875
245,1697615765,0.40893555,-1.1165161,-0.051086426,-8.71875,6.0625,-4.03125
246,1697615805,0.42504883,-0.9065552,-0.094055176,-6.015625,-9.09375,4.984375
247,1697615845,0.43286133,-0.93463135,0.124694824,-3.859375,3.4375,3.3125
248,1697615885,0.13549805,-1.1333618,0.16522217,-6.890625,-12.578125,2.421875
249,1697615925,0.034423828,-1.0029907,0.058044434,-6.390625,-11.859375,-6.015625
250,1697615965,0.1237793,-0.8296509,0.005554199,7.8125,-3.5625,-6.671875
251,1697616005,0.19213867,-0.7293091,0.046813965,24.296875,0.453125,-3.078125
252,1697616045,0.12817383,-0.7178345,0.112976074,11.640625,-2.078125,-0.25
253,1697616085,0.0007324219,-0.7139282,0.042907715,0.53125,-7.15625,-0.21875
254,1697616125,-0.041992188,-0.7686157,0.07220459,4.125,1.53125,-3.109375
255,1697616165,0.06567383,-0.8088989,0.11053467,0.09375,-4.828125,-4.921875
256,1697616205,0.10644531,-0.9014282,0.10614014,0.65625,-2.921875,-2.9375
257,1697616245,0.03491211,-0.99884033,0.09442139,-9.046875,-1.5,-5.765625
258,1697616285,0.03466797,-1.1934204,0.070251465,2.8125,-2.484375,-10.90625
259,1697616325,0.16723633,-1.597229,0.11907959,-11.109375,6.84375,-4.5625
260,1697616365,0.2265625,-1.190979,-0.042297363,-12.875,5.359375,-4.890625
261,1697616405,0.17871094,-1.253479,-0.128479,-9.328125,1.109375,-5.3125
262,1697616445,0.014160156,-1.1101685,-0.07647705,-14.53125,13.90625,-3.765625
263,1697616485,0.061279297,-0.8845825,-0.29156494,-13.0625,8.21875,-4.875
264,1697616525,0.14233398,-0.8977661,-0.09893799,-0.5,21.0625,0.90625
265,1697616565,-0.0078125,-1.100647,0.023376465,-1.3125,5.046875,1.609375
266,1697616605,-0.04272461,-0.94903564,0.05267334,5.671875,10.78125,-1.109375
267,1697616645,0.013183594,-0.770813,0.048034668,3.84375,9.359375,5.46875
268,1697616685,0.037353516,-0.67803955,0.04119873,-5.8125,3.03125,6.59375
269,1697616725,0.038085938,-0.6670532,0.0021362305,0.9375,-2.65625,5.375
270,1697616765,-0.03955078,-0.73223877,-0.013244629,-2.265625,0.421875,6.0
271,1697616805,-0.055419922,-0.93048096,0.026306152,-6.8125,-1.5625,4.75
272,1697616845,-0.020507812,-1.0942993,0.018249512,-0.109375,2.4375,4.34375
273,1697616885,-0.049804688,-1.0449829,0.07928467,3.46875,3.546875,1.484375
274,1697616925,-0.0043945312,-1.1455688,0.015319824,-1.578125,-0.5625,-0.46875
275,1697616965,-0.008544922,-1.2544556,-0.0960083,-18.0625,-11.375,-0.234375
276,1697617005,0.16015625,-1.4087524,0.01361084,0.484375,-4.5,0.890625
277,1697617045,0.36694336,-1.3613892,0.12567139,-4.25,-2.859375,-4.9375
278,1697617085,0.28881836,-0.95440674,-0.022277832,0.3125,-2.75,-3.078125
279,1697617125,0.33618164,-0.89678955,-0.0037231445,-3.78125,-2.046875,3.0
280,1697617165,0.3232422,-1.0071411,0.15716553,-1.953125,-3.8125,4.171875
281,1697617205,0.04321289,-1.1323853,0.16522217,-12.40625,-3.03125,0.765625
282,1697617245,0.001953125,-0.8875122,0.07879639,-3.0,-3.296875,-3.890625
283,1697617285,0.08178711,-0.73321533,0.005554199,3.140625,5.296875,-4.3125
284,1697617325,-0.0087890625,-0.6470337,0.0680542,3.921875,11.28125,-2.109375
285,1697617365,0.036865234,-0.64556885,0.082458496,2.78125,13.203125,3.84375
286,1697617405,0.10913086,-0.65875244,0.109802246,-1.03125,10.234375,6.53125
287,1697617445,0.15332031,-0.81988525,0.17523193,11.828125,8.59375,7.53125
288,1697617485,0.07299805,-0.95758057,0.2033081,3.734375,-1.015625,6.859375
289,1697617525,0.033935547,-0.9834595,0.13494873,1.75,-3.125,9.640625
290,1697617565,-0.021240234,-1.0588989,-0.013977051,-12.34375,8.734375,2.90625
291,1697617605,0.01586914,-1.2532349,0.038513184,-5.5,11.265625,0.625
292,1697617645,0.06933594,-1.3294067,0.015319824,-7.453125,4.6875,1.828125
293,1697617685,0.30737305,-1.3359985,-0.06524658,6.5,0.21875,4.75
294,1697617725,0.5332031,-1.2710571,0.07977295,3.6875,4.09375,0.6875
295,1697617765,0.2902832,-0.96759033,0.06732178,-3.828125,3.6875,-4.671875
296,1697617805,0.17236328,-0.8101196,-0.11236572,-7.640625,-7.1875,4.265625
297,1697617845,0.2705078,-0.9404907,0.078552246,0.8125,6.703125,1.9375
298,1697617885,0.07080078,-1.1084595,0.23529053,-7.5625,10.296875,-5.9375
299,1697617925,0.021972656,-0.95684814,0.1642456,-6.71875,10.578125,-10.859375
300,1697617965,0.15356445,-0.7061157,0.058532715,-5.5,9.65625,-6.359375
301,1697618005,0.171875,-0.6099243,0.0993042,-3.234375,1.984375,-2.203125
302,1697618045,0.07470703,-0.67852783,0.13763428,-1.1875,-1.28125,3.0625
303,1697618085,-0.037841797,-0.78302,0.14398193,-1.890625,6.53125,6.96875
304,1697618125,-0.00390625,-0.86065674,0.16986084,1.6875,7.578125,2.46875
305,1697618165,0.076416016,-0.88897705,0.1708374,7.640625,8.90625,2.984375
306,1697618205,0.119384766,-0.9553833,0.15667725,0.296875,-1.46875,2.640625
307,1697618245,0.106933594,-1.2144165,0.2789917,-7.546875,8.875,-1.578125
308,1697618285,0.08666992,-1.411438,0.19378662,-1.40625,5.234375,-4.515625
309,1697618325,0.3701172,-1.5647583,0.012145996,-1.296875,-5.046875,10.046875
310,1697618365,0.26049805,-1.1589966,0.022644043,-1.765625,18.5625,-6.921875
311,1697618405,0.14233398,-0.987854,0.018005371,4.4375,3.703125,-11.984375
312,1697618445,0.12548828,-0.850647,-0.105285645,18.171875,18.0625,2.078125
313,1697618485,0.23168945,-0.8032837,-0.13531494,7.671875,20.078125,2.015625
314,1697618525,0.15551758,-0.9224243,0.109313965,6.8125,6.171875,-1.46875
315,1697618565,-0.07543945,-0.95880127,0.078552246,-5.59375,3.625,-2.4375
316,1697618605,0.010009766,-0.8101196,-0.018371582,10.75,13.390625,0.078125
317,1697618645,0.1394043,-0.6602173,-0.0068969727,-7.171875,10.0,2.421875
318,1697618685,0.1105957,-0.70147705,0.0036010742,-5.1875,3.90625,-0.40625
319,1697618725,-0.06933594,-0.9043579,0.025817871,-0.4375,8.140625,-2.4375
320,1697618765,0.020263672,-0.96466064,0.055114746,1.703125,8.53125,2.90625
321,1697618805,0.15527344,-0.9265747,0.042907715,-6.328125,-1.421875,3.96875
322,1697618845,0.04272461,-0.95635986,0.08099365,-7.578125,-5.75,2.078125
323,1697618885,-0.18017578,-1.1087036,0.07196045,-8.5625,-1.9375,1.3125
324,1697618925,-0.10131836,-1.2861938,0.05999756,-9.09375,5.875,-4.234375
325,1697618965,0.13891602,-1.2024536,-0.03741455,0.5625,-2.53125,0.59375
326,1697619005,0.1899414,-1.3521118,0.039245605,-12.15625,5.453125,9.359375
327,1697619045,0.30908203,-1.6060181,0.13153076,-2.984375,-7.34375,2.734375
328,1697619085,0.19824219,-1.0298462,0.0067749023,2.296875,-5.703125,-3.796875
329,1697619125,0.2331543,-0.7451782,-0.070129395,8.46875,1.703125,1.875
330,1697619165,0.3383789,-0.8184204,0.05999756,-9.4375,9.46875,3.625
331,1697619205,0.20898438,-0.94366455,0.1786499,-21.53125,12.1875,-2.171875
332,1697619245,-0.08520508,-0.9871216,0.18890381,-17.84375,19.453125,-9.1875
333,1697619285,0.021728516,-0.7810669,0.09222412,-15.046875,10.703125,-12.0
334,1697619325,0.20922852,-0.7112427,0.07952881,-11.484375,10.328125,-10.375
335,1697619365,0.16210938,-0.7461548,0.20159912,-10.359375,8.1875,-8.484375
336,1697619405,-0.0126953125,-0.8855591,0.18572998,-12.171875,4.359375,-3.96875
337,1697619445,-0.09008789,-0.89068604,0.19915771,-6.265625,18.09375,-6.78125
338,1697619485,0.010009766,-0.7852173,0.21478271,-3.921875,16.984375,-10.171875
339,1697619525,-0.03100586,-0.7642212,0.2687378,-0.265625,18.734375,-9.078125
340,1697619565,-0.10595703,-0.8154907,0.26849365,-4.59375,15.796875,-7.90625
341,1697619605,-0.07006836,-0.9451294,0.2789917,-11.703125,13.296875,-9.625
342,1697619645,0.017578125,-1.0623169,0.31195068,-7.21875,14.296875,-10.578125
343,1697619685,0.032958984,-1.0029907,0.38568115,-10.09375,14.75,-13.609375
344,1697619725,0.059570312,-0.53448486,-0.09844971,3.890625,15.671875,10.640625
345,1697619765,0.008056641,-0.64727783,-0.08404541,3.078125,11.53125,10.53125
346,1697619805,0.013671875,-0.835022,0.0099487305,-15.171875,4.25,4.0625
347,1697619845,0.015136719,-1.0315552,0.029968262,-12.328125,0.90625,0.5625
348,1697619885,-0.038330078,-1.0261841,0.0099487305,-4.0,8.15625,6.390625
349,1697619925,-0.024658203,-1.0161743,-0.003479004,-13.03125,-1.53125,3.671875
350,1697619965,0.026367188,-1.3076782,-0.021057129,-19.984375,-0.921875,-4.078125
351,1697620005,0.03173828,-1.4636841,-0.023742676,-10.265625,-1.21875,8.203125
352,1697620045,0.25512695,-1.4876099,0.016540527,-7.71875,-1.125,6.78125
353,1697620085,0.4189453,-1.3626099,0.112976074,-5.609375,3.8125,-8.234375
354,1697620125,0.26904297,-0.95098877,-0.082092285,6.03125,3.0625,-3.65625
355,1697620165,0.53222656,-0.5811157,-0.10211182,19.671875,-15.484375,6.171875
356,1697620205,0.4177246,-0.81036377,0.16864014,-10.1875,-10.46875,7.3125
357,1697620245,-0.045166016,-1.210022,0.19036865,-14.84375,-18.484375,6.546875
358,1697620285,-0.08666992,-0.9116821,0.06317139,5.171875,-16.546875,-7.375
359,1697620325,-0.0107421875,-0.5767212,-0.004699707,23.078125,-4.9375,-12.078125
360,1697620365,0.06713867,-0.52227783,0.035095215,18.078125,2.21875,-6.421875
361,1697620405,0.1381836,-0.6765747,0.11639404,8.078125,-4.265625,-1.34375
362,1697620445,0.026855469,-0.91900635,0.16009521,15.296875,-0.28125,2.4375
363,1697620485,0.0036621094,-0.97003174,0.10101318,3.46875,-11.1875,-5.234375
364,1697620525,0.099609375,-1.0249634,0.06951904,2.171875,-5.6875,-4.4375
365,1697620565,0.07861328,-1.100647,0.061950684,-0.671875,1.671875,-0.640625
366,1697620605,0.036376953,-1.1416626,0.105407715,1.421875,-0.03125,-8.078125
367,1697620645,-0.04345703,-1.3425903,-0.046936035,-7.6875,-8.0625,-12.109375
368,1697620685,0.32470703,-1.4512329,-0.1506958,1.59375,8.109375,6.859375
369,1697620725,0.2836914,-1.18927,-0.08380127,-29.46875,5.84375,-20.515625
370,1697620765,0.16381836,-1.0130005,-0.13092041,-7.015625,-0.890625,-5.234375
371,1697620805,0.009521484,-0.9529419,-0.144104,-16.609375,24.015625,6.828125
372,1697620845,0.045410156,-0.95635986,-0.07525635,3.6875,4.140625,-0.890625
373,1697620885,0.09692383,-0.91412354,0.03265381,1.90625,10.328125,-4.109375
374,1697620925,0.020751953,-0.7901001,0.09100342,-1.453125,4.609375,3.046875
375,1697620965,-0.04663086,-0.7017212,0.008483887,-9.671875,5.21875,8.8125
376,1697621005,-0.056396484,-0.68536377,-0.04815674,-21.328125,1.390625,5.84375
377,1697621045,0.0690918,-0.71832275,0.03265381,-18.546875,7.75,1.625
378,1697621085,0.0847168,-0.85723877,0.14056396,-15.9375,6.328125,3.1875
379,1697621125,0.0056152344,-1.0015259,0.16815186,-9.46875,-8.53125,3.0
380,1697621165,-0.05859375,-1.0977173,0.1593628,-5.625,-3.296875,3.625
381,1697621205,-0.16601562,-1.175354,0.1696167,-4.734375,-1.875,-4.609375
382,1697621245,0.092285156,-1.2354126,-0.036193848,4.28125,-17.953125,-2.890625
383,1697621285,0.34936523,-1.4263306,0.08001709,21.421875,2.8125,13.3125
384,1697621325,0.55493164,-1.4153442,0.22625732,8.34375,-9.046875,6.03125
385,1697621365,0.28979492,-0.9483032,0.086364746,-11.421875,-11.765625,-4.03125
386,1697621405,0.23461914,-0.800354,0.0016479492,2.875,-10.5,1.734375
387,1697621445,0.24511719,-0.89019775,0.15130615,5.234375,-5.453125,5.671875
388,1697621485,0.025390625,-1.154602,0.24554443,0.546875,-7.46875,0.828125
389,1697621525,0.052978516,-0.93756104,0.18328857,-3.40625,-4.453125,-5.703125
390,1697621565,0.068359375,-0.6602173,0.07171631,5.625,-4.140625,-5.390625
391,1697621605,0.05810547,-0.62872314,0.09124756,15.0625,-1.03125,-3.484375
392,1697621645,-0.068359375,-0.6362915,0.113708496,9.21875,-0.78125,2.375
393,1697621685,0.044433594,-0.77911377,0.17938232,2.96875,-1.578125,6.015625
394,1697621725,0.05078125,-0.9602661,0.22991943,-2.28125,-5.109375,5.953125
395,1697621765,0.1821289,-1.0422974,0.18304443,-5.5625,-22.6875,0.171875
396,1697621805,0.038085938,-1.1484985,0.26019287,1.921875,-0.546875,-1.546875
397,1697621845,-0.055419922,-1.2263794,0.16937256,2.640625,0.609375,-12.125
398,1697621885,0.22167969,-1.4119263,0.1149292,-13.078125,-2.15625,-3.515625
399,1697621925,0.22753906,-1.2488403,0.0045776367,-1.578125,6.203125,-2.078125
400,1697621965,0.20800781,-1.1187134,-0.07305908,-8.109375,2.71875,-9.265625
401,1697622005,0.06958008,-0.9859009,-0.066467285,-4.671875,20.890625,-4.09375
402,1697622045,0.07739258,-0.87213135,-0.124816895,7.359375,19.125,-4.53125
403,1697622085,0.1171875,-0.92633057,-0.027893066,2.90625,18.078125,-0.484375
404,1697622125,-0.0041503906,-1.00177,0.06732178,7.234375,16.78125,2.1875
405,1697622165,-0.022460938,-0.85772705,0.05340576,5.109375,14.265625,1.703125
406,1697622205,0.059814453,-0.7439575,0.054138184,-4.9375,15.671875,1.953125
407,1697622245,0.06958008,-0.79107666,0.027038574,-1.015625,14.640625,2.234375
408,1697622285,0.033203125,-0.8164673,0.026062012,-4.796875,5.828125,1.0
409,1697622325,-0.010253906,-0.8340454,0.012390137,-1.171875,9.28125,2.546875
410,1697622365,0.012939453,-0.87677,0.03729248,-5.125,3.75,2.3125
411,1697622405,0.015380859,-0.90753174,0.08294678,-6.875,-1.1875,0.328125
412,1697622445,0.0703125,-1.0222778,0.11444092,-8.25,-5.828125,1.96875
413,1697622485,0.16748047,-1.1314087,-0.058166504,-14.765625,-22.234375,2.71875
414,1697622525,0.075927734,-1.3457642,0.09906006,6.046875,-3.34375,3.40625
415,1697622565,0.28637695,-1.4429321,0.14666748,5.296875,-7.515625,4.6875
416,1697622605,0.3466797,-1.2012329,0.09442139,-0.609375,-6.0625,3.875
417,1697622645,0.32495117,-1.0010376,0.05731201,-0.546875,-8.09375,3.09375
418,1697622685,0.37353516,-0.8792114,0.039733887,1.703125,-14.84375,5.390625
419,1697622725,0.23461914,-0.93927,0.16986084,-3.15625,-19.125,4.78125
420,1697622765,-0.046875,-1.0420532,0.20526123,-3.890625,-14.875,-1.75
421,1697622805,-0.06665039,-0.90704346,0.08538818,-7.3125,-6.71875,-8.546875
422,1697622845,0.17016602,-0.71466064,0.08685303,4.78125,-6.1875,-5.0625
423,1697622885,0.15576172,-0.65582275,0.17059326,10.234375,-1.09375,1.515625
424,1697622925,0.02709961,-0.74224854,0.16204834,-6.390625,-11.609375,4.3125
425,1697622965,-0.0036621094,-0.8435669,0.23114014,3.5625,-7.75,3.859375
426,1697623005,-0.044677734,-0.91363525,0.21356201,-0.03125,-6.703125,-9.59375
427,1697623045,0.05078125,-0.91729736,0.18304443,2.71875,-3.953125,-8.1875
428,1697623085,0.11621094,-0.9241333,0.21478271,1.0,-0.21875,-2.359375
429,1697623125,-0.00048828125,-1.0877075,0.2140503,-2.734375,-1.546875,-6.703125
430,1697623165,-0.015136719,-1.2903442,0.17547607,-6.046875,-4.140625,-6.046875
431,1697623205,0.29711914,-1.3972778,0.13128662,1.375,5.1875,7.953125
432,1697623245,0.37060547,-1.2297974,0.08074951,-4.484375,10.109375,-6.5625
433,1697623285,0.13134766,-1.1211548,0.0060424805,8.453125,6.453125,-3.5625
434,1697623325,0.008544922,-0.93096924,-0.09429932,1.921875,21.015625,1.265625
435,1697623365,0.18261719,-0.8557739,-0.0725708,2.75,18.8125,-1.6875
436,1697623405,0.0925293,-1.0144653,0.04168701,-5.375,15.953125,-1.65625
437,1697623445,-0.1262207,-1.0027466,0.06829834,7.015625,17.265625,-3.484375
438,1697623485,-0.020751953,-0.8279419,0.08685303,5.359375,28.953125,-5.015625
439,1697623525,0.110839844,-0.7781372,0.05657959,-2.921875,20.640625,-2.265625
440,1697623565,0.08886719,-0.69903564,0.07489014,2.8125,16.015625,-0.453125
441,1697623605,0.044921875,-0.704895,0.07269287,7.390625,13.265625,3.15625
442,1697623645,0.021484375,-0.82940674,0.0836792,-1.09375,8.671875,8.90625
443,1697623685,0.015625,-0.94244385,0.09881592,-9.421875,-3.546875,8.515625
444,1697623725,-0.06323242,-1.0488892,0.11517334,-7.34375,0.671875,4.640625
445,1697623765,-0.15966797,-1.201477,0.11956787,-16.765625,-0.5,-2.0
446,1697623805,0.021728516,-1.2454224,0.09661865,-4.328125,3.40625,-2.859375
447,1697623845,0.111328125,-1.2158813,0.05682373,-4.03125,3.640625,8.15625
448,1697623885,0.43920898,-1.2905884,0.14886475,2.421875,3.34375,14.34375
449,1697623925,0.4189453,-1.3562622,0.1515503,1.09375,-8.109375,13.46875
450,1697623965,0.091308594,-1.0789185,-0.041809082,6.703125,-4.875,4.890625
451,1697624005,0.16430664,-0.7649536,-0.0947876,15.078125,-1.96875,-2.640625
452,1697624045,0.3942871,-0.88897705,0.06463623,14.265625,9.25,6.15625
453,1697624085,0.31958008,-0.98565674,0.13446045,0.328125,-5.625,9.5
454,1697624125,0.12011719,-0.94195557,0.08929443,0.578125,-15.15625,2.4375
455,1697624165,0.020507812,-0.8130493,0.06536865,4.59375,-4.890625,-4.15625
456,1697624205,0.020751953,-0.70098877,0.02532959,5.09375,-0.5,-6.5625
457,1697624245,0.11279297,-0.6538696,0.031677246,2.484375,-0.890625,-2.75
458,1697624285,0.15136719,-0.7293091,0.105651855,3.796875,-5.671875,-1.15625
459,1697624325,0.11303711,-0.8928833,0.13812256,0.5,-12.3125,1.515625
460,1697624365,0.08276367,-0.9104614,0.16156006,1.140625,-7.890625,-1.125
461,1697624405,0.028076172,-0.93878174,0.10223389,1.59375,-0.75,-1.640625
462,1697624445,-0.0024414062,-0.96881104,0.0927124,2.453125,1.875,-0.234375
463,1697624485,0.53930664,-1.5032349,0.19329834,-11.46875,4.96875,-0.890625
464,1697624525,0.20654297,-1.0960083,0.0079956055,-8.171875,-6.84375,0.640625
465,1697624565,0.2109375,-0.8062134,-0.030090332,-2.90625,-3.4375,4.734375
466,1697624605,0.40307617,-0.8442993,0.1083374,2.4375,1.546875,7.046875
467,1697624645,0.17797852,-1.0491333,0.20135498,-4.015625,-3.203125,1.21875
468,1697624685,-0.05859375,-0.9883423,0.17449951,1.109375,2.015625,-2.296875
469,1697624725,0.051513672,-0.7720337,0.11004639,-3.3125,9.6875,-4.75
470,1697624765,0.17236328,-0.77349854,0.14007568,0.6875,11.9375,-4.375
471,1697624805,0.09399414,-0.7444458,0.21307373,1.625,5.78125,-1.140625
472,1697624845,0.0146484375,-0.73565674,0.14227295,-3.71875,10.65625,2.0625
473,1697624885,-0.017822266,-0.7617798,0.13885498,0.359375,11.859375,-0.53125
474,1697624925,0.043945312,-0.84698486,0.15325928,-0.40625,10.3125,-1.875
475,1697624965,0.10986328,-0.8838501,0.15887451,-2.6875,5.890625,-1.03125
476,1697625005,0.08691406,-0.99420166,0.19525146,-6.34375,6.734375,-2.578125
477,1697625045,0.02319336,-1.1690063,0.3234253,-1.71875,13.890625,-8.296875
478,1697625085,0.07763672,-1.2627563,0.2489624,6.640625,1.8125,-10.515625
479,1697625125,0.3725586,-1.3972778,0.11566162,-6.0625,-2.0,-0.640625
480,1697625165,0.17333984,-1.2439575,0.06414795,2.03125,17.734375,-6.875
481,1697625205,0.059326172,-1.1292114,-0.0154418945,10.53125,1.109375,-11.28125
482,1697625245,0.1303711,-0.90753174,-0.14434814,7.421875,21.421875,-3.3125
483,1697625285,0.3178711,-0.90093994,-0.09039307,7.484375,24.421875,2.03125
484,1697625325,0.15258789,-1.0427856,0.10467529,2.796875,8.6875,0.078125
485,1697625365,-0.03100586,-0.9771118,0.04119873,8.265625,5.0,0.15625
486,1697625405,-0.03515625,-0.7764282,0.017028809,14.53125,11.71875,3.3125
487,1697625445,0.12402344,-0.7473755,0.059753418,0.453125,6.390625,4.96875
488,1697625485,0.08959961,-0.71661377,0.039489746,4.390625,-1.4375,2.921875
489,1697625525,-0.076660156,-0.7432251,-0.024719238,10.78125,-2.5,2.0625
490,1697625565,-0.04296875,-0.83721924,0.008728027,2.734375,6.875,4.015625
491,1697625605,0.018798828,-0.9661255,0.008972168,-0.046875,-0.109375,3.5
492,1697625645,0.015625,-0.9727173,0.070495605,2.484375,1.84375,-0.953125
493,1697625685,-0.1274414,-1.0635376,0.070251465,-14.625,0.234375,-7.890625
494,1697625725,-0.1381836,-1.2175903,0.008972168,-13.0,-3.46875,-7.3125
495,1697625765,0.122558594,-1.2415161,0.0004272461,-1.125,-2.421875,2.0625
496,1697625805,0.057373047,-1.2966919,-0.013977051,-14.234375,-12.984375,3.5
497,1697625845,0.26489258,-1.6655884,0.05633545,4.6875,-1.140625,7.3125
498,1697625885,0.3334961,-1.1326294,0.039489746,-19.359375,0.4375,-3.0
499,1697625925,0.21606445,-0.7554321,-0.1482544,-22.5,1.34375,-2.90625
500,1697625965,0.20678711,-0.77130127,0.09197998,-18.203125,15.75,3.4375
501,1697626005,0.107666016,-0.9199829,0.17132568,-16.375,15.703125,-3.625
502,1697626045,-0.055419922,-0.9463501,0.1437378,-14.078125,17.28125,-9.40625
503,1697626085,-0.02734375,-0.70977783,0.097839355,-1.421875,14.3125,-6.90625
504,1697626125,0.14428711,-0.7769165,0.08026123,0.875,3.3125,1.96875
505,1697626165,0.18603516,-0.9055786,0.230896,-5.859375,10.765625,2.203125
506,1697626205,0.04638672,-0.9663696,0.19891357,-4.890625,10.125,-2.125
507,1697626245,-0.09448242,-1.0471802,0.14471436,-16.46875,14.71875,4.90625
508,1697626285,-0.119628906,-1.229065,0.20281982,-4.03125,16.421875,4.859375
509,1697626325,-0.1574707,-1.1775513,0.06390381,2.03125,8.546875,8.390625
510,1697626365,0.013427734,-1.3587036,-0.05670166,15.890625,11.875,11.21875
511,1697626405,0.16992188,-1.5747681,0.026550293,10.4375,10.9375,2.5625
512,1697626445,0.36645508,-1.1865845,-0.011779785,3.375,8.671875,-1.3125
513,1697626485,0.47094727,-0.87506104,-0.014953613,3.625,12.671875,-5.25
514,1697626525,0.4128418,-0.80303955,-0.050109863,-0.53125,-1.15625,1.078125
515,1697626565,0.22021484,-0.9434204,0.054138184,-3.6875,3.875,-1.890625
516,1697626605,0.0625,-1.1087036,0.04071045,-8.59375,22.25,-0.09375
517,1697626645,-0.07739258,-1.00177,0.098083496,16.734375,20.09375,-2.671875
518,1697626685,-0.036621094,-0.79278564,0.027282715,2.6875,20.875,3.671875
519,1697626725,0.08081055,-0.659729,0.035339355,-18.4375,9.046875,8.640625
520,1697626765,0.029296875,-0.69903564,-0.047668457,-10.1875,-0.515625,7.296875
521,1697626805,-0.029785156,-0.7803345,0.04046631,1.140625,5.6875,11.703125
522,1697626845,0.051757812,-0.9133911,0.11102295,-0.90625,1.3125,12.828125
523,1697626885,0.050048828,-0.954895,-0.025939941,-5.953125,-15.46875,9.734375
524,1697626925,-0.025146484,-0.9085083,0.07977295,4.0625,-4.328125,13.75
525,1697626965,-0.06616211,-1.0232544,0.109313965,-14.59375,-3.609375,7.234375
526,1697627005,-0.07836914,-1.2190552,0.11663818,-3.15625,-6.078125,-4.234375
527,1697627045,-0.09423828,-1.367981,-0.004699707,-3.578125,-2.890625,1.0625
528,1697627085,0.3955078,-1.5161743,0.13397217,13.578125,5.015625,8.171875
529,1697627125,0.5422363,-1.2749634,0.21844482,-15.078125,-9.1875,-5.40625
530,1697627165,0.19311523,-1.0076294,-0.004699707,-7.671875,-7.65625,-0.46875
531,1697627205,0.24853516,-0.8352661,-0.03717041,6.640625,-11.53125,5.03125
532,1697627245,0.36523438,-0.97857666,0.17230225,-7.6875,3.609375,3.828125
533,1697627285,0.11694336,-1.0723267,0.26776123,-12.015625,-0.734375,-2.625
534,1697627325,-0.044677734,-0.85357666,0.19476318,-3.21875,-1.359375,-5.046875
535,1697627365,0.055419922,-0.6970825,0.04437256,3.75,-8.015625,-2.953125
536,1697627405,0.23120117,-0.6428833,0.15228271,5.453125,-7.71875,3.421875
537,1697627445,0.11352539,-0.72198486,0.199646,1.015625,-8.984375,4.03125
538,1697627485,-0.08862305,-0.80059814,0.20013428,8.28125,7.734375,3.984375
539,1697627525,-0.13183594,-0.8447876,0.18621826,-3.015625,7.625,-4.34375
540,1697627565,0.07714844,-0.8584595,0.20184326,1.203125,4.828125,-6.234375
541,1697627605,0.1887207,-0.86431885,0.2140503,-0.734375,-12.015625,-2.109375
542,1697627645,0.099609375,-0.9902954,0.246521,-6.84375,-9.453125,-0.421875
543,1697627685,-0.14770508,-1.2293091,0.21380615,0.5,-9.921875,-8.015625
544,1697627725,0.026123047,-1.367981,0.23895264,5.609375,-4.484375,-11.625
545,1697627765,0.3317871,-1.5054321,0.16156006,4.421875,3.515625,-8.265625
546,1697627805,0.07861328,-1.3015747,0.14007568,1.078125,19.171875,-12.3125
547,1697627845,0.08886719,-1.0820923,-0.04156494,-9.09375,11.328125,-11.890625
548,1697627885,0.14086914,-0.86138916,0.00970459,2.765625,20.328125,-8.3125
549,1697627925,0.1640625,-0.87823486,0.010925293,7.578125,14.984375,-2.578125
550,1697627965,0.09277344,-0.9793091,0.073913574,-5.125,9.421875,-1.890625
551,1697628005,-0.052734375,-0.97979736,0.101745605,3.9375,10.8125,-2.703125
552,1697628045,-0.055908203,-0.8447876,0.097595215,-6.765625,7.265625,0.734375
553,1697628085,0.07373047,-0.7456665,0.07904053,-3.40625,6.171875,1.453125
554,1697628125,0.107421875,-0.6917114,0.028015137,3.859375,-2.1875,3.765625
555,1697628165,0.06542969,-0.73687744,0.101989746,3.28125,2.75,7.6875
556,1697628205,-0.025390625,-0.86383057,0.09246826,-2.578125,-8.203125,6.546875
557,1697628245,-0.13720703,-0.90631104,0.08758545,-6.5625,-8.578125,1.265625
558,1697628285,-0.1171875,-0.98223877,0.11663818,0.6875,3.4375,3.34375
559,1697628325,-0.04248047,-1.114563,0.13787842,-0.921875,0.03125,4.125
560,1697628365,0.03881836,-1.2105103,0.14984131,-5.4375,-5.234375,1.828125
561,1697628405,-0.047851562,-1.4024048,0.19012451,-10.234375,-3.03125,4.59375
562,1697628445,0.28515625,-1.3963013,0.1461792,2.28125,-10.765625,9.390625
563,1697628485,0.31958008,-1.1091919,0.23260498,6.03125,-10.1875,2.46875
564,1697628525,0.3322754,-0.8838501,-0.038146973,2.0625,-20.578125,2.234375
565,1697628565,0.3569336,-0.9507446,0.09613037,-3.34375,-10.3125,5.578125
566,1697628605,0.18847656,-1.039856,0.18621826,-0.546875,-11.765625,6.34375
567,1697628645,0.03955078,-0.9849243,0.230896,-9.515625,-9.53125,0.34375
568,1697628685,0.04248047,-0.9038696,0.12591553,0.375,-15.09375,-1.53125
569,1697628725,0.11206055,-0.7893677,0.15447998,-2.078125,-10.515625,-2.25
570,1697628765,0.08666992,-0.7324829,0.19989014,6.421875,-4.75,1.96875
571,1697628805,-0.016601562,-0.7451782,0.18743896,-0.421875,-4.84375,3.46875
572,1697628845,-0.026367188,-0.8010864,0.21990967,0.671875,-2.5,1.75
573,1697628885,0.011474609,-0.83721924,0.20892334,-0.921875,-5.5625,-1.640625
574,1697628925,0.05859375,-0.9026489,0.26483154,3.484375,-3.96875,0.53125
575,1697628965,0.06201172,-0.9702759,0.25823975,2.921875,-1.4375,-1.5
576,1697629005,-0.025390625,-1.0457153,0.29632568,2.625,2.140625,-5.734375
577,1697629045,0.05029297,-1.2764282,0.17327881,-4.75,-5.765625,-7.796875
578,1697629085,0.19677734,-1.3062134,0.22381592,-8.890625,6.25,-5.1875
579,1697629125,0.16918945,-1.2681274,0.06488037,-5.484375,12.625,-7.1875
580,1697629165,0.09350586,-1.253479,0.09710693,-0.96875,17.078125,-6.4375
581,1697629205,0.09448242,-1.0349731,0.034362793,2.203125,18.046875,-10.03125
582,1697629245,0.18188477,-0.90997314,-0.038879395,-0.875,21.46875,-6.796875
583,1697629285,0.080322266,-0.9116821,0.03363037,1.1875,21.640625,-2.703125
584,1697629325,-0.041748047,-0.98809814,0.062438965,8.90625,19.09375,-1.828125
585,1697629365,-0.06616211,-0.92852783,0.11834717,4.71875,18.75,0.234375
586,1697629405,0.06640625,-0.85601807,0.061706543,1.921875,14.015625,3.46875
587,1697629445,0.059814453,-0.78082275,0.10736084,6.84375,16.5625,5.90625
588,1697629485,-0.017089844,-0.7127075,0.09442139,5.265625,13.6875,4.5625
589,1697629525,0.018066406,-0.7427368,0.09881592,3.40625,11.5,4.96875
590,1697629565,0.07470703,-0.829895,0.12860107,5.390625,2.25,9.484375
591,1697629605,-0.020263672,-0.9168091,0.16400146,-0.1875,-1.53125,8.828125
592,1697629645,-0.109375,-1.0950317,0.09637451,-10.375,-3.5,1.875
593,1697629685,-0.043701172,-1.1887817,0.10882568,-4.171875,7.625,-0.109375
594,1697629725,0.19750977,-1.1680298,-0.07623291,-3.765625,-15.734375,5.9375
595,1697629765,0.3972168,-1.4212036,0.07098389,9.109375,-7.453125,19.6875
596,1697629805,0.3725586,-1.5003052,0.2855835,-1.234375,-13.1875,7.03125
597,1697629845,0.13330078,-1.0003052,-0.07232666,0.46875,-11.59375,2.375
598,1697629885,0.39038086,-0.84576416,-0.10870361,5.03125,-8.96875,11.046875
599,1697629925,0.5131836,-0.9783325,0.19573975,3.359375,-2.1875,9.828125
600,1697629965,0.06274414,-1.1126099,0.23895264,-6.78125,-20.375,-0.59375
601,1697630005,-0.06323242,-0.93170166,0.10687256,-5.6875,-9.234375,-3.75
602,1697630045,0.1171875,-0.6633911,0.055358887,-0.71875,-5.359375,-6.453125
603,1697630085,0.17260742,-0.5840454,0.08758545,-12.921875,-10.984375,-7.34375
604,1697630125,0.09667969,-0.6992798,0.16473389,-1.046875,-13.484375,-1.0
605,1697630165,0.10253906,-0.9209595,-0.04547119,4.96875,17.25,9.109375
606,1697630205,0.17993164,-1.0515747,-0.009094238,0.75,10.765625,11.609375
607,1697630245,0.014404297,-0.99346924,-0.04083252,-4.703125,-5.390625,10.625
608,1697630285,-0.22973633,-1.0623169,-0.20831299,-7.046875,1.875,5.15625
609,1697630325,-0.037353516,-1.1890259,-0.08721924,-1.859375,14.28125,3.8125
610,1697630365,0.23535156,-1.4695435,-0.053527832,-18.8125,1.75,2.796875
611,1697630405,0.19360352,-1.357727,-0.023010254,-13.3125,-0.5,-2.71875
612,1697630445,0.40063477,-1.0552368,-0.011779785,-6.09375,6.125,-5.9375
613,1697630485,0.44482422,-0.79107666,-0.15582275,1.34375,-1.703125,3.5625
614,1697630525,0.40429688,-0.82891846,-0.14605713,-12.8125,-1.625,5.4375
615,1697630565,0.27441406,-0.9483032,0.025817871,-1.421875,1.28125,0.234375
616,1697630605,0.047607422,-1.0361938,0.13250732,-22.265625,12.734375,-8.453125
617,1697630645,0.075927734,-0.8411255,0.04510498,-21.140625,10.65625,-13.71875
618,1697630685,0.21362305,-0.7139282,0.06536865,-19.765625,9.53125,-9.84375
619,1697630725,0.16918945,-1.4707642,0.10882568,6.1875,12.4375,6.53125
620,1697630765,0.099365234,-1.2473755,-0.0029907227,-2.359375,10.65625,0.0
621,1697630805,0.43017578,-1.0576782,-0.08673096,6.03125,20.3125,4.46875
622,1697630845,0.5205078,-0.8726196,0.1449585,6.546875,16.03125,5.578125
623,1697630885,0.22949219,-0.99176025,0.18865967,-4.21875,7.265625,10.671875
624,1697630925,0.07739258,-0.99786377,0.16033936,-2.15625,7.234375,4.25
625,1697630965,-0.0029296875,-0.85821533,0.11517334,-3.625,11.734375,-3.234375
626,1697631005,0.09887695,-0.81134033,0.07562256,2.40625,13.828125,-4.5625
627,1697631045,0.15795898,-0.76885986,0.15008545,3.671875,15.078125,-0.609375
628,1697631085,0.059814453,-0.72003174,0.15692139,-6.546875,13.0,1.109375
629,1697631125,-0.033935547,-0.77008057,0.20184326,-1.90625,19.59375,-0.21875
630,1697631165,0.0029296875,-0.80303955,0.16156006,-3.25,11.71875,-3.5
631,1697631205,0.06640625,-0.83721924,0.19281006,2.234375,17.4375,-3.140625
632,1697631245,0.13793945,-0.9224243,0.22503662,1.171875,8.4375,-2.9375
633,1697631285,0.031982422,-1.1216431,0.30023193,4.453125,13.5625,-6.140625
634,1697631325,-0.024658203,-1.3533325,0.1564331,3.703125,6.4375,-12.625
635,1697631365,0.075683594,-1.0234985,0.12860107,8.84375,16.3125,1.296875
636,1697631405,0.064697266,-0.7925415,0.030456543,15.921875,7.9375,8.3125
637,1697631445,0.029052734,-0.64678955,-0.059387207,-0.6875,1.546875,10.0625
638,1697631485,-0.020263672,-0.7163696,-0.08380127,-2.109375,2.5,9.234375
639,1697631525,-0.010253906,-0.7371216,0.015075684,12.265625,12.96875,5.0
640,1697631565,0.071777344,-0.77716064,0.03656006,4.046875,5.96875,4.703125
641,1697631605,0.11987305,-0.8621216,0.038024902,-2.1875,-4.375,6.46875
642,1697631645,0.02319336,-1.0205688,0.0072631836,-5.9375,-9.78125,3.828125
643,1697631685,-0.07495117,-1.248352,0.03338623,-2.484375,-1.125,-2.671875
644,1697631725,0.063964844,-1.3086548,0.074401855,-6.703125,-2.0625,-5.03125
645,1697631765,0.16552734,-1.354065,-0.11212158,-8.9375,-9.34375,0.3125
646,1697631805,0.20166016,-1.5708618,-0.031799316,0.890625,1.859375,7.125
647,1697631845,0.37231445,-1.2979126,0.070739746,-10.109375,-8.3125,-9.3125
648,1697631885,0.16210938,-0.8833618,-0.16265869,-3.046875,-6.40625,-4.109375
649,1697631925,0.27539062,-0.6668091,-0.07086182,-0.078125,1.328125,2.875
650,1697631965,0.3383789,-0.866272,0.10784912,-8.265625,3.1875,3.921875
651,1697632005,-0.1459961,-1.0994263,0.23553467,-12.953125,-3.109375,-0.09375
652,1697632045,-0.10424805,-0.8648071,0.05682373,-4.96875,2.546875,-5.625
653,1697632085,0.12402344,-0.7005005,-0.011779785,-4.15625,1.3125,-8.890625
654,1697632125,0.14208984,-0.69122314,0.13739014,-2.828125,10.34375,0.234375
655,1697632165,0.022705078,-0.7432251,0.13275146,-2.15625,5.15625,2.234375
656,1697632205,0.0063476562,-0.7620239,0.14471436,4.75,11.046875,5.171875
657,1697632245,0.056640625,-0.79644775,0.15985107,1.390625,8.046875,0.875
658,1697632285,-0.08862305,-0.9302368,0.15765381,-13.03125,-4.0625,-7.0625
659,1697632325,-0.14233398,-1.0376587,0.18011475,-0.046875,18.640625,-1.09375
660,1697632365,-0.021728516,-1.1985474,0.2633667,0.4375,18.03125,3.765625
661,1697632405,0.048583984,-1.4004517,0.39520264,0.90625,14.765625,1.21875
662,1697632445,0.14013672,-1.2859497,0.13250732,8.8125,3.671875,-5.640625
663,1697632485,0.25219727,-1.5776978,-0.08013916,-4.046875,5.296875,15.484375
664,1697632525,-0.03173828,-0.58380127,-0.04058838,7.59375,13.59375,8.9375
665,1697632565,-0.038085938,-0.7102661,0.029968262,2.625,14.375,9.875
666,1697632605,0.044677734,-0.9089966,0.04144287,-4.4375,6.59375,6.671875
667,1697632645,0.060058594,-0.9627075,0.0079956055,-0.75,-1.734375,5.203125
668,1697632685,0.022216797,-0.94732666,0.035339355,-3.625,-0.078125,6.265625
669,1697632725,0.02709961,-1.2556763,0.066345215,-7.140625,0.15625,3.5625
670,1697632765,0.14477539,-1.3347778,0.0048217773,-7.375,-4.96875,-4.5
671,1697632805,0.044433594,-1.2280884,0.0079956055,1.046875,-5.140625,2.625
672,1697632845,0.31445312,-1.3616333,0.0446167,-9.0625,-7.203125,4.40625
673,1697632885,0.2368164,-1.4807739,0.030700684,-4.703125,-12.40625,-3.546875
674,1697632925,0.18530273,-0.94781494,0.051696777,8.0,-0.140625,-11.1875
675,1697632965,0.29760742,-0.61309814,0.05267334,25.125,2.59375,-4.09375
676,1697633005,0.37646484,-0.75201416,0.053649902,-2.515625,-9.53125,3.421875
677,1697633045,0.099853516,-1.0342407,0.032165527,-7.671875,-14.3125,8.234375
678,1697633085,-0.044921875,-1.0476685,0.14569092,5.15625,1.515625,0.3125
679,1697633125,0.014892578,-0.84210205,0.08514404,-1.796875,1.796875,-5.46875
680,1697633165,0.14086914,-0.77301025,0.124938965,9.390625,2.6875,-2.3125
681,1697633205,0.16088867,-0.7359009,0.11077881,2.21875,-5.296875,2.6875
682,1697633245,0.048828125,-0.70318604,0.097595215,-7.640625,-2.84375,4.96875
683,1697633285,-0.03100586,-0.831604,0.15911865,0.625,-1.671875,1.421875
684,1697633325,-0.04711914,-1.0464478,0.2616577,0.90625,-3.140625,-3.625
685,1697633365,-0.026123047,-0.98223877,0.18182373,-0.78125,4.1875,-9.234375
686,1697633405,-0.014892578,-0.98101807,0.051696777,-8.921875,-0.59375,-13.484375
687,1697633445,0.014160156,-1.3486938,0.024108887,-11.734375,-10.78125,-11.078125
688,1697633485,0.21801758,-1.546936,0.18670654,23.921875,15.359375,2.65625
689,1697633525,0.22436523,-1.2078247,-0.16973877,-20.203125,-8.234375,-16.953125
690,1697633565,0.18969727,-1.076477,-0.10333252,-2.703125,17.515625,-12.453125
691,1697633605,0.03881836,-1.006897,-0.018615723,-15.421875,20.25,-4.53125
692,1697633645,0.055664062,-0.9265747,-0.066223145,-15.671875,10.609375,0.03125
693,1697633685,0.036621094,-0.9451294,-0.016418457,2.578125,12.234375,-4.1875
694,1697633725,-0.11279297,-0.97540283,0.07635498,2.953125,10.015625,-1.03125
695,1697633765,-0.060546875,-0.7979126,0.077819824,-8.359375,17.59375,1.875
696,1697633805,0.05029297,-0.673645,0.04901123,3.8125,11.46875,6.390625
697,1697633845,0.044677734,-0.67755127,0.040222168,0.125,4.828125,8.375
698,1697633885,0.02368164,-0.80914307,0.12713623,-1.1875,2.390625,9.8125
699,1697633925,0.009765625,-0.98809814,0.12030029,-2.15625,-2.28125,9.265625
700,1697633965,-0.07788086,-0.9541626,0.117370605,-1.5,-3.9375,4.25
701,1697634005,-0.114746094,-0.972229,0.05267334,-3.15625,-3.703125,2.578125
702,1697634045,-0.083496094,-1.1323853,0.16351318,-2.90625,-0.3125,3.1875
703,1697634085,0.09326172,-1.3789673,-0.040100098,-9.671875,-21.375,3.28125
704,1697634125,0.22802734,-1.3057251,0.049987793,14.59375,2.578125,11.53125
705,1697634165,0.44873047,-1.302063,0.13885498,10.671875,-0.71875,10.546875
706,1697634205,0.27368164,-1.1082153,0.03363037,1.6875,-2.171875,-0.84375
707,1697634245,0.19970703,-0.847229,-0.06085205,-4.03125,-8.515625,1.96875
708,1697634285,0.42944336,-0.8911743,0.07611084,6.453125,0.46875,6.390625
709,1697634325,0.24291992,-1.076477,0.24603271,-5.921875,-7.578125,-1.078125
710,1697634365,-0.092285156,-1.0288696,0.21307373,-13.875,-10.921875,-7.453125
711,1697634405,-0.0009765625,-0.7971802,0.07659912,-6.90625,-2.34375,-6.03125
712,1697634445,0.15014648,-0.6091919,0.06976318,1.0625,-3.671875,-4.109375
713,1697634485,0.11279297,-0.6499634,0.18963623,1.484375,1.484375,0.984375
714,1697634525,0.0009765625,-0.7229614,0.15545654,0.609375,-2.046875,8.015625
715,1697634565,0.029785156,-0.8225708,0.21844482,-3.796875,-2.359375,5.21875
716,1697634605,0.055419922,-0.940979,0.28778076,-4.0625,-2.59375,0.0625
717,1697634645,0.16821289,-0.97052,0.18865967,-5.375,-7.71875,1.390625
718,1697634685,-0.061523438,-1.0078735,0.2374878,0.078125,9.34375,-3.75
719,1697634725,-0.08178711,-1.1262817,0.13690186,-0.8125,6.5625,-14.203125
720,1697634765,0.33422852,-1.4036255,0.09222412,-10.140625,-1.75,-1.0
721,1697634805,-0.07128906,-0.89727783,0.06390381,9.625,7.671875,-3.15625
722,1697634845,0.0061035156,-0.6069946,0.06072998,2.96875,9.796875,-1.875
723,1697634885,0.05419922,-0.6148071,0.0033569336,6.65625,6.53125,2.265625
724,1697634925,0.033935547,-0.7593384,0.031188965,6.953125,7.296875,5.609375
725,1697634965,0.034423828,-0.81134033,0.0368042,-0.046875,-3.203125,4.359375
726,1697635005,-0.09277344,-0.8897095,0.018737793,13.578125,4.0625,9.0625
727,1697635045,-0.13061523,-0.9507446,0.015319824,14.859375,-0.015625,7.640625
728,1697635085,-0.011474609,-1.1494751,0.038513184,4.859375,6.90625,-0.25
729,1697635125,0.1928711,-1.2307739,0.018005371,2.46875,-2.28125,0.6875
730,1697635165,0.18945312,-1.2693481,-0.09625244,-10.9375,-18.65625,5.859375
731,1697635205,0.2607422,-1.3953247,0.024597168,5.4375,-17.390625,5.140625
732,1697635245,0.35986328,-1.3279419,0.13006592,-4.6875,-13.21875,-2.53125
733,1697635285,0.28149414,-0.93341064,-0.12188721,0.328125,-14.9375,1.953125
734,1697635325,0.34692383,-0.7061157,-0.18023682,6.5,-19.828125,5.34375
735,1697635365,0.37426758,-0.8765259,0.06854248,5.75,-12.671875,10.890625
736,1697635405,0.04296875,-1.177063,0.101257324,-2.953125,-17.484375,2.390625
737,1697635445,-0.044433594,-0.9890747,0.05316162,2.078125,-13.078125,-2.609375
738,1697635485,0.11669922,-0.75738525,-0.0071411133,4.140625,-5.0625,-8.84375
739,1697635525,0.20336914,-0.7168579,0.06781006,9.21875,-1.6875,-0.9375
740,1697635565,0.12133789,-0.7149048,0.1239624,4.765625,-8.375,3.84375
741,1697635605,0.060302734,-0.75323486,0.08343506,-2.34375,-7.25,5.375
742,1697635645,-0.0024414062,-0.7732544,0.06707764,-2.296875,-8.6875,-3.265625
743,1697635685,0.072753906,-0.90753174,0.105163574,-1.078125,1.265625,-8.171875
744,1697635725,0.13378906,-1.0523071,0.12908936,0.484375,-6.75,-0.234375
745,1697635765,0.079833984,-1.1314087,0.20794678,-0.8125,3.0,-2.28125
746,1697635805,0.029541016,-1.1138306,-0.019592285,-4.640625,-9.28125,-11.828125
747,1697635845,0.19506836,-1.4038696,-0.035949707,-1.171875,-10.5625,-4.390625
748,1697635885,0.31030273,-1.3428345,0.042175293,3.03125,16.203125,-4.15625
749,1697635925,0.14575195,-1.060852,-0.108947754,1.890625,-8.890625,-14.296875
750,1697635965,0.13354492,-0.95928955,-0.1482544,-19.25,9.890625,-5.21875
751,1697636005,0.29736328,-0.8777466,-0.15362549,-10.34375,1.71875,-8.484375
752,1697636045,0.21362305,-0.98565674,0.046081543,5.953125,-2.578125,-4.3125
753,1697636085,-0.11450195,-1.0379028,0.058044434,-8.28125,5.140625,-0.671875
754,1697636125,-0.15356445,-0.8718872,-0.059143066,-0.6875,7.46875,-2.3125
755,1697636165,0.018798828,-0.72979736,-0.038635254,-3.796875,11.0,-4.171875
756,1697636205,0.18041992,-0.7473755,0.0680542,-6.5,9.734375,1.828125
757,1697636245,0.11791992,-0.7280884,0.05316162,0.921875,1.765625,5.09375
758,1697636285,-0.027832031,-0.80255127,0.051940918,-1.03125,-0.96875,5.640625
759,1697636325,-0.05810547,-0.897522,0.07318115,-1.703125,1.109375,5.96875
