# Sensor type: Respeck
# Activity type: Standing
# Activity subtype: Singing
# Subject id: s2086938
# Notes: 
timestamp,accel_x,accel_y,accel_z,gyro_x,gyro_y,gyro_z
1695750080994,-0.03466797,-0.97198486,0.043395996,-2.140625,0.484375,-0.453125
1695750081069,-0.018554688,-0.9558716,0.055114746,0.46875,-0.046875,-0.15625
1695750081071,-0.009277344,-0.9680786,0.022155762,-0.125,-1.015625,-1.375
1695750081115,-0.025146484,-0.9558716,0.050964355,4.21875,-1.921875,-0.578125
1695750081143,-0.030273438,-0.93951416,0.019958496,2.9375,-4.046875,-0.3125
1695750081188,-0.014892578,-0.9924927,0.029724121,3.296875,-3.953125,0.078125
1695750081234,-0.034423828,-1.0061646,0.041931152,2.3125,-4.3125,0.265625
1695750081264,-0.029541016,-0.9885864,0.00970459,-1.9375,-3.578125,-0.609375
1695750081310,-0.016113281,-0.9932251,0.057800293,-0.15625,-1.9375,0.21875
1695750081355,-0.045654297,-1.006897,0.046569824,1.59375,-2.0,0.078125
1695750081384,-0.05029297,-0.991272,0.024841309,-0.09375,-1.78125,-0.046875
1695750081429,-0.052246094,-0.9727173,0.018493652,-1.09375,-1.90625,0.21875
1695750081460,-0.028564453,-0.9817505,-0.0015258789,-1.8125,-0.765625,-0.1875
1695750081505,-0.033935547,-0.9927368,0.038757324,-0.015625,-0.890625,0.484375
1695750081549,-0.03564453,-0.9829712,0.034118652,-0.78125,-2.59375,-0.03125
1695750081579,-0.01977539,-0.9829712,0.03338623,-1.15625,-1.671875,-0.484375
1695750081624,-0.03930664,-0.9920044,0.043395996,1.078125,-2.0625,0.609375
1695750081669,-0.028564453,-0.97906494,0.019714355,-0.265625,-1.96875,-0.078125
1695750081700,-0.030761719,-0.98638916,0.04046631,-0.1875,-1.734375,0.203125
1695750081745,-0.038330078,-0.9829712,0.011413574,0.671875,-2.984375,-0.71875
1695750081790,-0.023925781,-0.9783325,0.02166748,-2.078125,-5.171875,-1.03125
1695750081819,-0.02319336,-1.0154419,0.05633545,2.9375,-0.875,0.828125
1695750081864,-0.033691406,-0.97662354,0.016296387,0.875,-2.03125,0.5625
1695750081898,-0.02319336,-0.9898071,0.022399902,1.5625,-3.5625,-0.21875
1695750081939,-0.03540039,-1.0100708,1.8310547E-4,3.765625,-2.984375,-0.640625
1695750081984,-0.01953125,-0.97662354,0.03363037,3.4375,-1.9375,0.109375
1695750082013,-0.052001953,-1.0029907,-0.0051879883,1.34375,-3.234375,-0.546875
1695750082059,0.0017089844,-0.989563,-0.004699707,1.828125,-2.546875,-1.640625
1695750082104,-0.040771484,-0.98565674,0.007019043,2.9375,-4.03125,-0.28125
1695750082134,-0.033447266,-1.0027466,0.014587402,1.953125,-2.375,-0.265625
1695750082179,-0.033203125,-0.9788208,0.007507324,0.921875,-2.46875,-0.265625
1695750082225,-0.044433594,-0.98931885,-0.00982666,1.5625,-2.359375,-0.1875
1695750082254,-0.017822266,-0.99102783,-0.0115356445,0.609375,-2.359375,-0.703125
1695750082300,-0.029541016,-0.9968872,-0.002746582,1.484375,-2.4375,-0.078125
1695750082375,-0.041748047,-0.99346924,-0.009094238,1.046875,-1.796875,0.828125
1695750082377,-0.0234375,-0.97906494,-0.014709473,1.90625,-2.3125,-0.109375
1695750082419,-0.041503906,-0.9976196,-0.024719238,2.015625,-2.21875,0.265625
1695750082449,-0.020019531,-0.97735596,0.0053100586,2.515625,-2.1875,-0.609375
1695750082494,-0.060546875,-1.0105591,-0.011047363,2.71875,-1.8125,-0.328125
1695750082540,-0.0107421875,-0.97442627,-0.04449463,1.953125,-0.28125,-0.5625
1695750082569,-0.04321289,-0.98687744,-0.026916504,3.84375,-0.5,0.34375
1695750082615,-0.03881836,-0.9939575,-0.03277588,2.453125,-0.90625,-0.046875
1695750082660,-0.029541016,-0.9841919,-0.039367676,2.0625,-1.265625,-0.390625
1695750082689,-0.031982422,-0.99884033,-0.055236816,1.671875,-1.515625,0.09375
1695750082734,-0.017822266,-0.9746704,-0.04083252,0.984375,-0.984375,0.453125
1695750082779,-0.032714844,-0.9902954,-0.04034424,0.703125,-0.5,1.0625
1695750082810,-0.037841797,-0.9932251,-0.051330566,2.03125,-0.734375,0.9375
1695750082854,-0.040283203,-0.97125244,-0.0115356445,5.796875,0.828125,1.078125
1695750082900,-0.025634766,-1.0230103,-0.066467285,5.59375,1.875,3.03125
1695750082929,-0.0068359375,-0.9661255,-0.05279541,4.234375,2.125,3.421875
1695750082975,-0.03564453,-0.987854,-0.06378174,3.0625,0.015625,1.3125
1695750083004,-0.020263672,-0.97662354,-0.097473145,1.984375,1.25,1.234375
1695750083052,-0.025390625,-0.97125244,-0.07867432,2.328125,0.484375,0.34375
1695750083094,-0.029052734,-0.98883057,-0.07208252,1.296875,0.9375,0.28125
1695750083124,-0.0056152344,-0.98687744,-0.08648682,0.734375,0.1875,0.1875
1695750083169,-0.022460938,-0.991272,-0.08526611,-0.578125,-0.671875,0.375
1695750083213,-0.016357422,-0.989563,-0.073791504,-1.390625,-1.125,-0.125
1695750083244,-0.025878906,-0.9829712,-0.07598877,-1.53125,-2.25,-1.15625
1695750083290,-0.010986328,-0.97857666,-0.07965088,-1.453125,-2.4375,-0.40625
1695750083335,-0.007080078,-0.99346924,-0.06817627,-1.140625,-1.953125,-1.09375
1695750083364,-0.0146484375,-0.99884033,-0.055725098,-3.4375,0.015625,-0.71875
1695750083410,-0.04736328,-1.017395,-0.031066895,-5.328125,-1.34375,0.015625
1695750083439,-0.045410156,-1.0130005,-0.033996582,-2.84375,4.5625,0.15625
1695750083484,0.032958984,-0.9902954,-0.0635376,-4.734375,7.359375,3.453125
1695750083530,-0.021972656,-0.97979736,-0.08721924,-7.125,4.984375,2.515625
1695750083558,-0.061767578,-1.0151978,-0.0012817383,-7.1875,10.609375,1.671875
1695750083603,-0.018798828,-1.0127563,-0.007385254,-10.75,10.765625,0.890625
1695750083649,-0.010253906,-0.9680786,-0.023254395,-11.953125,2.453125,1.109375
1695750083679,-0.0061035156,-0.944397,-0.02935791,-7.8125,0.46875,0.296875
1695750083724,-0.0056152344,-0.96759033,0.0036010742,-3.6875,-0.1875,0.625
1695750083770,-0.02319336,-0.99420166,0.030944824,-4.859375,-0.78125,1.765625
1695750083802,-0.028320312,-0.9973755,0.02532959,-2.6875,-1.09375,0.640625
1695750083844,-0.0021972656,-0.97003174,0.0060424805,-4.203125,-2.03125,-1.125
1695750083889,-0.0126953125,-0.9768677,0.047302246,-2.359375,-1.28125,0.015625
1695750083920,-0.025878906,-0.9932251,0.023620605,-0.828125,0.21875,-1.46875
1695750083964,-0.019042969,-0.9692993,0.035339355,-0.546875,-2.171875,-1.34375
1695750083995,-0.011230469,-0.9517212,-0.027404785,1.25,-2.890625,-3.25
1695750084039,-0.010498047,-0.9678345,0.018493652,5.03125,-2.859375,-1.609375
1695750084084,-0.008544922,-0.9783325,0.0079956055,2.5,-2.484375,-1.578125
1695750084114,-0.013671875,-0.99713135,0.010437012,-0.65625,-4.078125,-1.59375
1695750084160,-0.022216797,-1.003479,0.035339355,0.734375,-3.3125,-1.265625
1695750084205,-0.032470703,-0.9932251,0.018493652,-2.28125,-3.796875,-2.015625
1695750084235,-0.036132812,-0.98687744,0.010192871,-3.5,-6.3125,-2.46875
1695750084280,-0.03857422,-0.97662354,0.022399902,-0.625,-6.890625,-3.28125
1695750084325,-0.028076172,-1.0027466,0.039489746,0.03125,-4.453125,-2.21875
1695750084355,-0.028564453,-0.9951782,0.028747559,-1.1875,-3.359375,-1.421875
1695750084400,-0.04711914,-1.000061,0.0079956055,0.453125,-3.453125,-1.015625
1695750084429,-0.04345703,-0.9871216,0.042907715,4.75,-2.125,-0.359375
1695750084475,-0.053710938,-1.0081177,0.031188965,3.921875,-2.375,0.3125
1695750084520,-0.020507812,-0.9829712,-0.003967285,0.28125,-0.203125,-0.53125
1695750084550,-0.05834961,-0.9944458,0.018005371,2.59375,0.265625,0.890625
1695750084595,-0.05029297,-0.9937134,0.009216309,4.421875,0.109375,0.8125
1695750084639,-0.040039062,-0.9824829,0.0016479492,3.328125,-1.546875,0.359375
1695750084669,-0.043945312,-0.9890747,-0.004211426,2.65625,-0.40625,0.46875
1695750084714,-0.025878906,-0.9829712,-0.013977051,0.515625,-0.5,-0.328125
1695750084760,-0.049072266,-0.9993286,-0.011291504,1.625,-0.59375,0.34375
1695750084789,-0.029296875,-0.99102783,-0.006652832,1.53125,-0.546875,0.859375
1695750084835,-0.029296875,-0.9915161,-0.013244629,0.375,-0.828125,0.828125
1695750084879,-0.04321289,-0.9771118,-0.0015258789,1.8125,-1.265625,0.765625
1695750084909,-0.041992188,-0.98272705,-0.030578613,0.078125,-0.640625,-0.046875
1695750084954,-0.029785156,-0.97979736,0.0018920898,2.640625,-0.453125,0.109375
1695750084983,-0.025390625,-0.9817505,-0.028869629,3.046875,0.15625,0.28125
1695750085030,-0.038085938,-0.9841919,-0.02545166,1.984375,-0.421875,0.21875
1695750085075,-0.05126953,-0.9981079,-0.0154418945,3.046875,0.46875,0.21875
1695750085104,-0.028076172,-0.989563,-0.038635254,1.765625,1.15625,-0.59375
1695750085151,-0.029296875,-0.9944458,-0.04425049,2.390625,0.109375,0.296875
1695750085194,-0.025146484,-0.98638916,-0.039855957,1.59375,0.875,0.234375
1695750085224,-0.036376953,-0.9949341,-0.043029785,1.34375,0.71875,0.59375
1695750085269,-0.041748047,-0.99102783,-0.04083252,0.8125,0.734375,0.46875
1695750085314,-0.028076172,-0.986145,-0.05230713,0.796875,0.1875,0.15625
1695750085344,-0.015136719,-0.9795532,-0.057922363,0.25,0.203125,0.015625
1695750085389,-0.04345703,-1.0203247,-0.004699707,-1.296875,5.46875,1.078125
1695750085435,-0.03564453,-1.0366821,-0.042297363,-4.046875,6.390625,2.4375
1695750085464,-0.03491211,-0.98443604,-0.00592041,-9.828125,7.578125,1.40625
1695750085510,-0.034423828,-1.0042114,-0.043518066,-14.765625,4.59375,-0.890625
1695750085539,-0.07421875,-0.9963989,0.04876709,-8.09375,7.46875,-0.53125
1695750085584,-0.028076172,-1.0142212,0.029724121,-7.140625,7.125,1.3125
1695750085629,-0.032714844,-0.9639282,-0.0064086914,-3.578125,2.59375,1.015625
1695750085659,-0.033447266,-0.9505005,0.008483887,-1.203125,-0.6875,0.765625
1695750085704,-0.03515625,-0.94854736,0.010681152,0.5625,-1.609375,0.203125
1695750085750,-0.016845703,-0.9585571,-0.015930176,-0.234375,-5.4375,-0.53125
1695750085779,-0.008544922,-0.954895,-0.016906738,-2.171875,-9.390625,-1.90625
1695750085825,-0.01171875,-1.0039673,0.040222168,-0.09375,-7.25,-1.109375
1695750085869,-0.024902344,-0.9944458,0.020446777,-2.25,-6.265625,-2.125
1695750085900,-0.043945312,-1.0037231,0.016784668,-1.796875,-4.953125,-1.984375
1695750085945,-0.03955078,-1.0078735,0.047790527,3.421875,-1.921875,-1.734375
1695750085974,-0.047607422,-0.9834595,0.034118652,2.515625,-1.046875,-1.375
1695750086019,-0.022216797,-0.9685669,-0.0015258789,1.78125,-0.796875,-1.375
1695750086064,-0.055664062,-0.9920044,0.011657715,3.671875,-1.96875,-0.6875
1695750086094,-0.042236328,-0.99664307,0.010437012,2.953125,-2.125,-1.09375
1695750086140,-0.052490234,-0.9829712,0.0072631836,3.0,-2.625,-0.1875
1695750086185,-0.052246094,-0.989563,-0.0037231445,1.953125,-1.515625,0.15625
1695750086215,-0.03491211,-0.98028564,0.0053100586,2.03125,-1.578125,-0.125
1695750086260,-0.0625,-0.9915161,-0.0010375977,3.671875,-0.796875,0.921875
1695750086305,-0.044677734,-0.98516846,-0.00982666,2.75,-1.359375,0.828125
1695750086334,-0.045166016,-0.98272705,-0.014709473,2.90625,-0.578125,0.15625
1695750086379,-0.036376953,-0.9873657,-0.028137207,2.390625,-1.984375,-0.328125
1695750086425,-0.044189453,-0.99053955,-0.03375244,2.609375,-0.546875,0.0625
1695750086454,-0.040771484,-0.9920044,-0.020080566,2.8125,-1.1875,0.234375
1695750086500,-0.032958984,-0.9961548,-0.024230957,2.453125,-0.296875,-0.109375
1695750086530,-0.03955078,-0.972229,-0.03741455,1.015625,-0.484375,-0.65625
1695750086575,-0.053466797,-1.0039673,-0.03692627,2.296875,-0.578125,0.265625
1695750086620,-0.040771484,-0.9751587,-0.038635254,1.078125,-1.0625,-0.078125
1695750086649,-0.045654297,-0.98101807,-0.044006348,1.765625,-0.734375,0.328125
1695750086694,-0.040039062,-0.9859009,-0.04083252,1.046875,-0.640625,0.375
1695750086739,-0.047851562,-0.98394775,-0.04547119,0.421875,-1.34375,-0.15625
1695750086769,-0.041503906,-0.9812622,-0.040100098,-0.421875,0.109375,0.078125
1695750086815,-0.024414062,-0.9944458,-0.02911377,-2.140625,1.578125,0.203125
1695750086860,-0.03955078,-1.0244751,-0.006164551,-4.890625,3.828125,1.484375
1695750086889,-0.0546875,-1.000061,-0.022277832,-9.59375,3.0625,1.171875
1695750086934,-0.04272461,-1.0105591,-0.026672363,-10.703125,4.40625,0.5
1695750086964,-0.03125,-0.98883057,0.027282715,-9.3125,5.859375,0.609375
1695750087010,-0.037597656,-1.0125122,0.003112793,-6.5,6.3125,1.5625
1695750087055,-0.044189453,-0.9758911,0.019958496,-5.140625,4.796875,0.734375
1695750087129,-0.056396484,-0.9780884,0.007751465,-0.1875,2.0625,0.4375
1695750087132,-0.020019531,-0.95098877,0.007019043,0.078125,1.21875,0.15625
1695750087173,-0.033447266,-0.9624634,0.0079956055,3.125,-1.453125,0.875
1695750087204,-0.0234375,-0.9607544,-0.013977051,0.15625,-3.984375,0.0
1695750087250,-0.02758789,-0.96417236,6.713867E-4,0.0625,-6.59375,-1.359375
1695750087295,-0.060302734,-0.975647,-0.022277832,-1.046875,-12.6875,-2.796875
1695750087324,0.005859375,-1.0288696,0.051696777,2.65625,-3.34375,-0.890625
1695750087370,-0.048339844,-1.003479,0.02142334,-1.0625,-2.03125,-0.390625
1695750087414,-0.028564453,-0.99713135,-0.0010375977,-1.015625,-0.28125,-1.109375
1695750087444,-0.050048828,-0.99786377,0.008972168,0.421875,-1.078125,-0.515625
1695750087489,-0.041259766,-0.9690552,0.031188965,0.03125,-0.546875,-0.65625
1695750087519,-0.05810547,-0.99957275,0.010681152,-1.171875,-2.40625,-0.640625
1695750087564,-0.02319336,-0.96539307,-0.016174316,-3.5625,-1.609375,-1.734375
1695750087609,-0.06274414,-0.9990845,0.0211792,0.703125,-2.546875,-0.203125
1695750087639,-0.049072266,-0.99102783,0.023864746,-0.21875,-2.0625,-0.40625
1695750087685,-0.049072266,-0.98931885,0.010437012,-1.0625,-2.296875,-0.484375
1695750087730,-0.05444336,-0.9939575,0.013122559,-1.8125,-1.90625,-0.5625
1695750087759,-0.052734375,-0.99053955,0.020446777,-1.5,-0.625,-1.1875
1695750087804,-0.05883789,-0.9927368,0.018737793,-1.3125,-0.578125,-0.5625
1695750087849,-0.047607422,-0.9812622,0.018737793,-0.484375,0.234375,-0.25
1695750087879,-0.05126953,-0.9805298,0.015808105,-0.234375,-0.25,-0.546875
1695750087925,-0.044677734,-0.99346924,0.019470215,-0.03125,-0.71875,-0.125
1695750087955,-0.05053711,-0.98150635,0.03338623,1.703125,-0.390625,0.375
1695750087999,-0.04248047,-0.98101807,0.008483887,-0.25,0.078125,0.15625
1695750088044,-0.0625,-0.9924927,0.029968262,1.296875,-1.21875,0.703125
1695750088077,-0.033935547,-0.98516846,-0.009338379,-1.578125,-0.28125,-0.265625
1695750088120,-0.055664062,-0.9807739,0.023864746,1.046875,0.34375,0.0
1695750088165,-0.057617188,-0.991272,0.03265381,1.234375,-0.0625,0.078125
1695750088194,-0.060302734,-0.98931885,0.007751465,-0.21875,-0.4375,-0.28125
1695750088240,-0.055908203,-0.9963989,0.008239746,-0.09375,-0.25,-0.171875
1695750088285,-0.03515625,-0.98931885,0.011169434,-0.515625,-0.265625,-0.328125
1695750088314,-0.05908203,-0.99884033,0.016052246,-0.484375,-0.640625,-0.25
1695750088360,-0.041992188,-0.9841919,0.01751709,-0.65625,-0.8125,-0.171875
1695750088435,-0.04321289,-0.9859009,0.015075684,-0.21875,-0.90625,-0.3125
1695750088438,-0.064453125,-0.9873657,0.021911621,-0.140625,-0.875,-0.328125
1695750088478,-0.05078125,-0.9819946,0.018737793,-0.671875,0.125,-0.96875
1695750088509,-0.068847656,-1.005188,0.011169434,0.25,-0.4375,-0.8125
1695750088554,-0.052734375,-0.96417236,0.013122559,0.25,-0.28125,-0.265625
1695750088600,-0.06640625,-1.0049438,0.0099487305,0.3125,-0.65625,-0.015625
1695750088629,-0.043701172,-0.97198486,-0.002746582,-1.1875,-0.25,-0.90625
1695750088674,-0.06982422,-1.0005493,0.018981934,0.90625,-0.1875,0.09375
1695750088720,-0.05810547,-0.98931885,0.020935059,1.140625,-0.75,-0.21875
1695750088749,-0.057128906,-0.9890747,0.012878418,2.5,-0.234375,0.265625
1695750088794,-0.056884766,-0.9866333,0.003112793,1.109375,-0.359375,0.390625
1695750088839,-0.05444336,-0.9866333,0.007507324,0.390625,-0.984375,-0.0625
1695750088868,-0.05908203,-0.9963989,0.0028686523,-0.625,-1.09375,-0.09375
1695750088914,-0.053710938,-0.99420166,0.010192871,-0.375,-1.4375,-0.015625
1695750088959,-0.05493164,-0.9885864,0.007507324,-0.578125,-1.1875,0.015625
1695750088989,-0.05517578,-0.9834595,0.004333496,-0.78125,-0.984375,0.015625
1695750089034,-0.055664062,-0.98883057,0.0045776367,-0.734375,-0.96875,-0.140625
1695750089064,-0.061035156,-0.99835205,-0.003479004,-0.015625,-1.15625,0.0
1695750089109,-0.05102539,-0.97540283,0.011413574,1.328125,-1.421875,0.171875
1695750089155,-0.06958008,-0.99884033,0.0021362305,0.375,-1.15625,0.625
1695750089184,-0.045166016,-0.9697876,-0.012756348,-1.71875,-1.078125,-0.171875
1695750089229,-0.06567383,-1.0029907,0.01776123,1.5625,-0.546875,0.671875
1695750089275,-0.06347656,-0.9859009,0.01776123,-0.21875,-1.015625,0.125
1695750089304,-0.049804688,-0.9817505,0.011657715,-0.8125,-0.828125,0.09375
1695750089349,-0.05053711,-0.9998169,0.002380371,-0.328125,1.78125,0.1875
1695750089395,-0.04663086,-0.9998169,0.019470215,-1.625,5.1875,1.125
1695750089424,-0.05517578,-1.0493774,0.05291748,-3.46875,8.375,2.984375
1695750089469,-0.06225586,-1.020813,0.024108887,-6.609375,8.53125,3.46875
1695750089499,-0.07348633,-0.96759033,0.010437012,-6.53125,6.3125,1.0625
1695750089544,-0.038085938,-0.9776001,0.028747559,-1.015625,9.984375,1.90625
1695750089589,-0.032958984,-0.973938,0.04901123,-3.9375,6.9375,4.171875
1695750089620,-0.055419922,-0.98321533,0.023864746,1.015625,0.875,3.5625
1695750089664,-0.020507812,-0.9480591,0.05657959,0.96875,-1.109375,1.25
1695750089715,-0.047607422,-0.95758057,0.034851074,2.859375,-4.8125,0.890625
1695750089738,7.324219E-4,-0.9417114,-0.01739502,-1.640625,-4.234375,-0.46875
1695750089784,-0.033447266,-0.9834595,0.043395996,5.328125,-3.375,0.5
1695750089829,-0.025146484,-1.015686,0.043395996,2.828125,-1.8125,0.34375
1695750089860,-0.032958984,-1.006897,0.0211792,-1.359375,-1.078125,-0.21875
1695750089905,-0.02709961,-0.99713135,0.021911621,-0.828125,-0.5,-0.59375
1695750089979,-0.008056641,-0.98150635,0.019714355,-1.59375,0.171875,-0.71875
1695750089982,-0.021484375,-0.9961548,0.02508545,-1.109375,0.1875,-0.46875
1695750090023,-0.017089844,-0.98321533,0.026062012,-0.859375,-0.640625,-0.625
1695750090054,-0.020507812,-0.98272705,0.028503418,-0.265625,-0.90625,-0.390625
1695750090101,-0.02709961,-0.991272,0.032409668,-0.03125,-1.609375,-0.53125
1695750090145,-0.03466797,-0.99053955,0.034606934,-0.484375,-1.203125,-0.5
1695750090174,-0.033935547,-0.9846802,0.03289795,-0.34375,-1.1875,-0.4375
1695750090219,-0.020507812,-0.9763794,0.0045776367,-2.78125,0.171875,-1.015625
1695750090264,-0.032714844,-0.98931885,0.048034668,1.140625,-0.359375,0.21875
1695750090294,-0.032226562,-0.98443604,0.014343262,-1.34375,-1.078125,-0.328125
1695750090339,-0.03466797,-0.98272705,0.027038574,-0.75,-2.359375,0.390625
1695750090385,-0.04321289,-0.9920044,0.0368042,0.78125,-2.859375,0.21875
1695750090415,-0.033447266,-0.989563,0.02947998,-0.140625,-2.8125,-0.296875
1695750090460,-0.037841797,-0.9944458,0.040222168,0.171875,-2.15625,0.015625
1695750090489,-0.028320312,-0.9885864,0.031677246,-1.078125,-2.09375,-0.1875
1695750090535,-0.040283203,-0.99835205,0.041931152,-0.546875,-2.234375,0.015625
1695750090580,-0.032714844,-0.98443604,0.04071045,-0.0625,-1.390625,-0.328125
1695750090609,-0.036376953,-0.9837036,0.036071777,-0.46875,-1.796875,-0.390625
1695750090654,-0.041259766,-0.9915161,0.034362793,-0.65625,-2.15625,-0.296875
1695750090700,-0.03173828,-0.989563,0.031921387,-0.171875,-1.640625,-0.53125
1695750090729,-0.045654297,-0.98101807,0.034851074,-1.0625,-2.015625,-0.09375
1695750090774,-0.038330078,-0.98101807,0.01727295,-2.96875,-0.53125,-1.046875
1695750090819,-0.049804688,-1.0020142,0.03778076,5.921875,-0.9375,0.140625
1695750090849,-0.014892578,-0.9834595,0.020935059,1.078125,1.0625,0.3125
1695750090894,-0.038330078,-0.9819946,0.03778076,0.96875,-0.140625,1.125
1695750090940,-0.036376953,-0.9963989,0.039245605,1.34375,-0.53125,0.890625
1695750090969,-0.02758789,-0.9866333,0.0289917,0.03125,-0.5625,0.234375
1695750091014,-0.033447266,-0.9920044,0.03778076,-0.25,-0.3125,0.625
1695750091044,-0.028808594,-0.98394775,0.020690918,-1.703125,-0.734375,-0.28125
1695750091089,-0.034423828,-0.9898071,0.017028809,-1.78125,-0.46875,-0.234375
1695750091134,-0.026367188,-0.99591064,0.027282715,-1.78125,1.015625,-0.375
1695750091164,-0.01977539,-1.0005493,0.026794434,-1.921875,4.71875,-0.46875
1695750091210,-0.02734375,-1.0244751,0.051940918,-0.859375,4.75,1.28125
1695750091254,-0.041992188,-1.022522,0.074401855,-0.21875,6.484375,1.859375
1695750091284,-0.038330078,-0.99664307,0.058288574,-1.640625,7.671875,2.40625
1695750091330,-0.029541016,-0.96466064,0.032409668,-4.375,7.6875,1.296875
1695750091375,-0.01953125,-0.97540283,0.051452637,0.15625,4.65625,2.015625
1695750091405,-0.0048828125,-0.9746704,0.019958496,0.828125,5.6875,1.359375
1695750091449,-0.033203125,-0.9883423,0.0446167,5.15625,4.234375,2.65625
1695750091494,-0.010986328,-0.98638916,0.016784668,3.921875,2.125,2.203125
1695750091524,-0.012207031,-0.9636841,0.016540527,3.796875,0.3125,1.328125
1695750091570,-0.012451172,-0.9553833,0.008972168,4.703125,-2.859375,0.53125
1695750091599,0.022460938,-0.9631958,-0.022521973,1.859375,-1.921875,0.015625
1695750091644,0.005859375,-0.9937134,0.012634277,2.671875,-3.3125,0.8125
1695750091690,-0.017578125,-1.0049438,0.012878418,1.609375,-3.46875,0.28125
1695750091719,-0.0075683594,-1.0046997,9.1552734E-4,-0.09375,-2.796875,-0.328125
1695750091765,-0.012451172,-0.98883057,-0.006164551,-1.078125,-2.484375,-0.9375
1695750091810,-0.008300781,-1.00177,1.8310547E-4,-1.5,-2.171875,-0.875
1695750091839,-0.024414062,-1.0066528,-0.0012817383,-1.0625,-1.359375,-0.9375
1695750091885,-0.014160156,-0.9763794,0.03387451,-0.546875,-0.9375,-0.671875
1695750091929,-0.022949219,-0.9793091,0.020690918,-0.296875,-2.546875,-0.15625
1695750091959,0.0126953125,-0.9746704,-0.0049438477,-2.59375,0.375,-1.203125
1695750092005,-0.029052734,-0.99224854,0.016784668,0.515625,-0.265625,-0.140625
1695750092034,-0.0061035156,-0.9981079,0.015319824,-0.515625,-0.1875,-0.296875
1695750092080,-0.0146484375,-0.9866333,0.0026245117,-0.984375,-0.140625,0.015625
1695750092124,-0.017822266,-0.9890747,0.004333496,-0.5,-0.75,-0.140625
1695750092154,-0.0053710938,-0.9834595,0.011169434,-1.84375,0.125,-0.65625
1695750092199,-0.028076172,-1.0015259,0.018493652,-0.6875,0.515625,-0.234375
1695750092244,-0.010498047,-0.9859009,0.012390137,-0.703125,0.65625,-0.390625
1695750092274,-0.008056641,-0.9866333,0.026062012,0.25,0.015625,-0.28125
1695750092320,-0.013427734,-0.9854126,0.010925293,-0.484375,-0.015625,-0.375
1695750092365,-0.020019531,-0.98150635,0.029724121,1.0,0.71875,-0.03125
1695750092393,0.0012207031,-0.98150635,-0.0037231445,-1.875,1.421875,-0.46875
1695750092439,-0.008300781,-0.99224854,0.014831543,1.015625,-0.203125,0.296875
1695750092485,-0.016357422,-0.99346924,0.0048217773,-0.421875,-0.5,-0.078125
1695750092514,-0.015380859,-0.97442627,0.019470215,-0.515625,0.796875,0.265625
1695750092560,-0.029296875,-0.9961548,0.023620605,-0.015625,0.78125,0.625
1695750092589,-0.01171875,-0.9849243,0.020690918,-0.890625,0.703125,0.359375
1695750092634,-0.022460938,-1.0066528,0.035583496,-0.5,0.859375,0.921875
1695750092680,-0.0087890625,-1.0161743,0.028503418,-2.765625,1.46875,0.6875
1695750092709,-0.020507812,-1.0071411,0.024353027,-3.53125,0.546875,0.96875
1695750092755,-0.016845703,-0.986145,0.04119873,-5.0,-1.046875,0.265625
1695750092800,-0.012939453,-0.99176025,0.031188965,-2.25,-1.234375,-0.21875
1695750092829,-0.0056152344,-0.98028564,0.026550293,-0.671875,-0.28125,0.125
1695750092874,-0.0078125,-0.9849243,0.028259277,-0.28125,0.0625,0.609375
1695750092919,-0.012207031,-0.9734497,0.023864746,0.875,-0.53125,0.6875
1695750092949,-0.006591797,-0.92926025,0.026794434,1.296875,-3.265625,-0.78125
1695750092994,-0.013427734,-0.99542236,0.039978027,3.1875,-2.40625,-0.671875
1695750093024,-0.0061035156,-0.9614868,0.018249512,1.578125,-0.96875,-1.828125
1695750093069,-0.033935547,-1.0115356,0.03338623,5.515625,-2.34375,-0.109375
1695750093114,-0.014892578,-0.9981079,0.014343262,3.078125,-1.75,-1.90625
1695750093146,-0.015136719,-1.0064087,0.022644043,-0.234375,-1.4375,-1.125
1695750093190,-0.018066406,-0.9951782,0.011413574,-0.4375,-1.015625,-0.734375
1695750093235,-0.010253906,-0.98809814,0.0099487305,-1.9375,-0.75,-0.9375
1695750093264,-0.022949219,-0.9902954,0.008483887,-0.53125,-0.6875,-0.296875
1695750093309,-0.016845703,-0.98809814,0.02142334,-0.6875,-1.125,-0.109375
1695750093354,-0.020751953,-0.98687744,0.01727295,-0.78125,-1.78125,-0.265625
1695750093384,-0.018554688,-0.9871216,0.018981934,-0.46875,-1.4375,-0.65625
1695750093430,-0.034423828,-0.98321533,0.030456543,0.953125,-1.171875,-0.109375
1695750093474,-0.015136719,-0.972229,0.007751465,-1.734375,-0.3125,-1.1875
1695750093506,-0.02734375,-0.97662354,0.028015137,-0.03125,-1.921875,-0.671875
1695750093549,-0.022460938,-0.9729614,-0.027893066,0.390625,-3.40625,-2.953125
1695750093579,-0.009033203,-0.9915161,0.035339355,2.34375,0.203125,-0.46875
1695750093624,-0.03881836,-0.99298096,0.015075684,1.828125,-0.8125,0.234375
1695750093671,-0.027832031,-0.98150635,-0.012756348,-2.53125,-4.203125,-1.640625
1695750093698,-0.02734375,-0.99664307,0.026550293,3.046875,-2.265625,-0.234375
1695750093744,-0.03125,-0.9939575,0.0040893555,0.328125,-2.65625,-0.953125
1695750093789,-0.028564453,-0.9963989,0.005065918,0.59375,-1.640625,0.078125
1695750093820,-0.029296875,-0.9920044,-0.011779785,-0.09375,-1.6875,-0.234375
1695750093864,-0.021728516,-0.9819946,0.004333496,0.125,-1.703125,-0.53125
1695750093908,-0.036621094,-0.9907837,0.0072631836,0.453125,-1.859375,-0.296875
1695750093939,-0.029785156,-0.9956665,-0.0044555664,-0.59375,-1.140625,-0.390625
1695750093985,-0.026367188,-0.9951782,-0.008361816,-1.171875,-0.71875,-0.453125
1695750094014,-0.03491211,-0.9846802,0.009460449,0.078125,-1.65625,-0.34375
1695750094060,-0.03930664,-0.9998169,0.008972168,-0.34375,-2.46875,-0.234375
1695750094104,-0.01928711,-0.98223877,-0.0029907227,-3.078125,-1.734375,-1.125
1695750094134,-0.03955078,-0.9924927,0.010437012,-0.53125,-1.3125,-0.015625
1695750094179,-0.029785156,-0.98883057,0.0040893555,-1.53125,-2.1875,-0.78125
1695750094225,-0.029296875,-0.9849243,0.016784668,-1.796875,-2.203125,-0.890625
1695750094254,-0.036132812,-1.0027466,0.015563965,-2.0625,-1.40625,-0.40625
1695750094300,-0.040527344,-0.9795532,0.015319824,-2.25,-2.28125,-0.828125
1695750094345,-0.033447266,-0.98272705,0.021911621,-1.25,-1.90625,-0.609375
1695750094374,-0.037353516,-0.9890747,0.020202637,-0.53125,-1.640625,-0.46875
1695750094418,-0.037109375,-0.99053955,0.020690918,-0.1875,-0.859375,-0.453125
1695750094465,-0.037841797,-0.99053955,0.021911621,-0.71875,-0.953125,-0.609375
1695750094494,-0.05419922,-0.9939575,0.018737793,0.3125,-1.9375,-0.34375
1695750094540,-0.028564453,-0.9678345,0.024353027,-1.796875,-1.6875,-1.390625
1695750094569,-0.0546875,-0.9924927,0.03363037,0.375,-2.640625,-0.296875
1695750094614,-0.020751953,-0.9859009,0.008728027,-2.625,-0.78125,-1.578125
1695750094660,-0.05908203,-0.987854,0.030456543,-0.28125,-1.21875,-0.25
1695750094689,-0.048828125,-0.9968872,0.04046631,0.53125,-0.71875,0.109375
1695750094735,-0.047851562,-0.9885864,0.016052246,-0.921875,-1.375,-0.203125
1695750094779,-0.048095703,-0.9939575,0.0289917,-0.109375,-0.53125,0.40625
1695750094809,-0.041259766,-0.9854126,0.018737793,-1.109375,-0.421875,0.28125
1695750094854,-0.056640625,-0.98760986,0.026062012,-0.640625,-1.4375,0.3125
1695750094900,-0.046142578,-0.99053955,0.036315918,-0.0625,-0.71875,0.46875
1695750094929,-0.05908203,-0.9873657,0.025817871,-0.234375,-0.78125,0.375
1695750094975,-0.038330078,-0.99224854,0.019958496,-0.078125,-0.796875,0.21875
1695750095020,-0.04248047,-0.98272705,0.024353027,-0.140625,-1.40625,0.03125
1695750095049,-0.041259766,-0.99005127,0.013366699,-1.984375,-0.390625,-0.546875
1695750095095,-0.049072266,-1.0005493,0.022888184,-0.0625,-1.6875,0.015625
1695750095124,-0.04663086,-0.9949341,0.030944824,-0.84375,-2.125,-0.421875
1695750095170,-0.03930664,-0.97613525,0.03656006,-1.515625,-0.984375,-0.65625
1695750095214,-0.053710938,-1.0151978,0.058532715,-1.25,2.5,0.515625
1695750095244,-0.055419922,-1.0098267,0.049987793,-3.546875,3.84375,0.984375
1695750095289,-0.07714844,-1.0127563,0.059020996,-4.703125,3.078125,0.453125
1695750095335,-0.0075683594,-0.9927368,0.05340576,-1.765625,5.296875,-0.34375
1695750095364,-0.060791016,-1.0039673,0.054626465,-1.875,4.53125,-0.078125
1695750095410,-0.049560547,-0.9661255,0.035583496,-3.8125,2.46875,0.234375
1695750095454,-0.038330078,-0.9505005,0.02923584,-1.109375,-0.15625,0.4375
1695750095486,-0.05883789,-0.9619751,0.038757324,0.921875,-1.59375,0.828125
1695750095529,-0.028808594,-0.9631958,0.038757324,0.8125,-2.484375,0.015625
1695750095559,-0.040283203,-0.9529419,0.023376465,1.25,-5.765625,-0.6875
1695750095605,-0.017089844,-0.9729614,0.04852295,1.015625,-3.765625,-2.09375
1695750095650,-0.048583984,-1.0073853,0.06781006,3.765625,-4.078125,-0.625
1695750095679,-0.044433594,-1.0073853,0.03265381,-0.546875,-1.75,-1.03125
1695750095724,-0.061767578,-0.9932251,0.042663574,0.671875,-0.921875,-1.640625
1695750095770,-0.037109375,-0.98809814,0.039733887,0.1875,-0.578125,-1.875
1695750095799,-0.052734375,-0.97784424,0.02923584,-0.0625,-0.921875,-1.234375
1695750095845,-0.059570312,-0.9961548,0.043151855,0.84375,-1.203125,-1.03125
1695750095890,-0.045898438,-0.9949341,0.031433105,0.203125,-1.359375,-1.59375
1695750095918,-0.064941406,-0.98931885,0.039978027,-0.703125,-1.0,-0.953125
1695750095964,-0.0625,-0.99346924,0.04046631,-0.5,-0.390625,-0.703125
1695750096038,-0.064208984,-0.9885864,0.043395996,-0.3125,-1.140625,-0.375
1695750096041,-0.06201172,-0.9854126,0.043884277,-0.421875,-0.390625,0.171875
1695750096083,-0.06665039,-0.9824829,0.04510498,-0.375,-0.6875,0.265625
1695750096113,-0.044921875,-0.99420166,0.018005371,-1.25,0.078125,-0.015625
1695750096159,-0.055664062,-0.9907837,0.046325684,0.375,-0.640625,0.53125
1695750096205,-0.0703125,-0.9998169,0.042907715,1.09375,-1.515625,0.90625
1695750096234,-0.047851562,-0.98150635,0.04510498,-0.78125,-0.078125,0.203125
1695750096279,-0.07519531,-0.9932251,0.04852295,1.078125,-0.84375,0.921875
1695750096324,-0.050048828,-0.99786377,0.039978027,-0.71875,-0.59375,0.109375
1695750096354,-0.056884766,-0.98687744,0.043884277,0.21875,-0.453125,0.609375
1695750096399,-0.052978516,-0.99005127,0.03289795,-0.96875,-0.671875,0.59375
1695750096445,-0.053466797,-0.986145,0.03656006,-0.515625,-1.046875,0.1875
1695750096474,-0.05493164,-0.9859009,0.035827637,-0.59375,-1.421875,0.203125
1695750096519,-0.05029297,-0.9866333,0.028259277,-0.921875,-1.546875,-0.1875
1695750096549,-0.045654297,-0.9873657,0.02557373,-0.984375,-1.734375,-0.640625
1695750096594,-0.050048828,-0.99053955,0.029724121,-0.390625,-0.90625,-0.234375
1695750096639,-0.052978516,-0.9998169,0.020690918,0.21875,-0.796875,-0.140625
1695750096669,-0.049560547,-0.9763794,0.051452637,0.40625,-1.046875,0.34375
1695750096715,-0.06591797,-0.99957275,0.039001465,0.375,-1.90625,0.453125
1695750096759,-0.036621094,-0.9859009,0.01751709,-2.875,-0.515625,-0.609375
1695750096788,-0.0625,-0.9915161,0.038269043,1.15625,-0.921875,0.6875
1695750096834,-0.043945312,-0.9854126,0.039733887,0.265625,-0.84375,0.140625
1695750096879,-0.05859375,-0.9829712,0.039245605,-0.859375,-1.515625,0.09375
1695750096909,-0.048095703,-0.97906494,0.043395996,0.328125,-1.8125,-0.734375
1695750096955,-0.04711914,-0.9849243,0.036315918,0.265625,-1.453125,-0.890625
1695750096999,-0.061523438,-0.9993286,0.0368042,1.078125,-0.671875,-0.578125
1695750097029,-0.053955078,-0.9890747,0.022644043,0.25,-0.75,-0.53125
1695750097074,-0.055908203,-0.99346924,0.030700684,0.28125,-0.921875,-0.140625
1695750097104,-0.060791016,-0.9849243,0.031921387,-0.453125,-0.671875,-0.375
1695750097149,-0.06542969,-0.99713135,0.03656006,0.453125,-0.859375,0.125
1695750097194,-0.053222656,-0.9673462,0.043640137,-0.859375,-0.4375,-0.125
1695750097224,-0.068359375,-0.9927368,0.049987793,0.296875,-1.5625,0.453125
1695750097270,-0.043945312,-0.9849243,0.014343262,-1.5625,-0.578125,-0.5625
1695750097315,-0.068359375,-0.9973755,0.051208496,1.203125,0.3125,0.828125
1695750097344,-0.049072266,-0.9949341,0.06048584,0.453125,0.765625,0.96875
1695750097389,-0.053710938,-1.0012817,0.053649902,-2.375,2.25,1.171875
1695750097434,-0.052001953,-1.0317993,0.06463623,-4.609375,4.078125,1.75
1695750097464,-0.07324219,-1.0046997,0.050964355,-5.96875,2.453125,1.0
1695750097508,-0.044677734,-0.9788208,0.066345215,-4.59375,1.078125,0.890625
1695750097554,-0.05053711,-0.96417236,0.030944824,-0.703125,-0.046875,-0.125
1695750097584,-0.030517578,-0.95391846,0.043640137,-0.171875,-1.71875,-0.421875
1695750097631,-0.055908203,-0.9595337,0.036315918,2.765625,-4.359375,-0.46875
1695750097659,-0.03149414,-0.96588135,0.05682373,4.1875,-1.796875,0.421875
1695750097704,-0.04638672,-0.99005127,0.029968262,3.421875,-1.078125,0.265625
1695750097749,-0.053222656,-1.0022583,0.06048584,3.703125,-1.65625,0.859375
1695750097779,-0.048583984,-1.0120239,0.022644043,0.8125,-0.5,0.296875
1695750097824,-0.03955078,-0.97857666,0.050476074,-1.3125,0.6875,-0.328125
1695750097869,-0.060302734,-1.0073853,0.058532715,0.171875,0.28125,0.03125
1695750097900,-0.048095703,-0.98223877,0.04486084,-0.875,0.015625,-0.390625
1695750097944,-0.052734375,-0.96099854,0.047546387,0.03125,-0.421875,-0.265625
1695750097990,-0.052246094,-0.9807739,0.03729248,-0.78125,-1.328125,-0.046875
1695750098019,-0.044921875,-0.9907837,0.043395996,-0.6875,-1.21875,-0.265625
1695750098064,-0.049072266,-0.991272,0.042663574,-0.328125,-1.09375,-0.171875
1695750098094,-0.04711914,-0.9866333,0.043395996,0.203125,-0.71875,0.0625
1695750098138,-0.0390625,-0.98443604,0.035095215,0.21875,-0.828125,-0.265625
1695750098184,-0.041748047,-0.98150635,0.026794434,-0.3125,-1.5625,-0.53125
1695750098214,-0.06225586,-0.99468994,0.016296387,-0.109375,-0.984375,-0.96875
1695750098260,-0.04248047,-0.9885864,0.051940918,0.578125,-1.375,-0.109375
1695750098304,-0.04663086,-1.0039673,0.046081543,-0.8125,-1.875,-0.125
1695750098334,-0.036865234,-0.9619751,0.023376465,-3.59375,-0.171875,-1.46875
1695750098380,-0.05883789,-0.98809814,0.04559326,0.21875,-0.296875,0.15625
1695750098424,-0.057128906,-0.9859009,0.058532715,0.359375,-0.21875,-0.328125
1695750098454,-0.056152344,-0.98687744,0.03704834,-0.34375,-1.625,-0.03125
1695750098500,-0.04736328,-0.98321533,0.043151855,-0.140625,-1.3125,0.203125
1695750098544,-0.04321289,-0.973938,0.030456543,-0.71875,-1.71875,-0.40625
1695750098574,-0.06201172,-0.98223877,0.03387451,0.453125,-3.515625,-0.484375
1695750098618,-0.048095703,-0.99053955,0.054870605,0.875,-2.421875,-0.5625
1695750098649,-0.04711914,-1.0012817,0.04876709,-1.515625,-2.46875,-0.765625
1695750098695,-0.061767578,-1.0042114,0.05706787,-1.171875,0.84375,0.390625
1695750098739,-0.061279297,-0.99713135,0.07196045,-0.828125,2.625,1.25
1695750098769,-0.06762695,-1.0147095,0.070739746,-0.328125,6.171875,1.4375
1695750098814,-0.049316406,-0.98443604,0.048034668,-1.875,4.921875,1.921875
1695750098858,-0.022216797,-1.0015259,0.039978027,-7.421875,5.625,0.828125
1695750098889,-0.076171875,-0.99346924,0.055603027,-0.796875,4.0625,0.984375
1695750098935,-0.048828125,-0.99102783,0.05340576,-1.890625,2.078125,0.328125
1695750098980,-0.052001953,-0.9854126,0.070007324,-2.09375,0.53125,0.765625
1695750099009,-0.014404297,-0.96588135,0.057556152,-0.453125,0.015625,0.140625
1695750099054,-0.030761719,-0.94732666,0.036315918,-0.953125,-1.15625,0.234375
1695750099084,-0.048828125,-0.9649048,0.04925537,1.4375,-1.484375,0.8125
1695750099130,-0.0234375,-0.9414673,0.039978027,3.25,-2.0,-0.171875
1695750099174,-0.039794922,-0.9710083,0.04534912,4.171875,-1.28125,-0.015625
1695750099204,-0.052001953,-1.00177,0.06048584,2.8125,-1.9375,-0.359375
1695750099249,-0.022949219,-1.015686,0.053649902,0.65625,-2.015625,-1.03125
1695750099294,-0.051513672,-1.0090942,0.01727295,-1.078125,-1.078125,-1.140625
1695750099324,-0.05102539,-0.97906494,0.07220459,-0.09375,0.015625,-0.46875
1695750099369,-0.05834961,-0.9961548,0.05316162,0.765625,-1.34375,0.21875
1695750099414,-0.03125,-0.9741821,0.034118652,-2.21875,0.28125,-0.78125
1695750099444,-0.06518555,-0.9949341,0.054870605,-0.421875,-1.59375,0.078125
1695750099489,-0.056396484,-0.9885864,0.05731201,-1.1875,-1.6875,-0.109375
1695750099534,-0.05810547,-0.99957275,0.049987793,-0.921875,-1.21875,-0.03125
1695750099564,-0.045898438,-0.9920044,0.055603027,0.046875,-0.3125,-0.125
1695750099610,-0.032226562,-0.9907837,0.04437256,-1.578125,-0.125,-0.765625
1695750099639,-0.04296875,-0.9871216,0.043395996,-0.921875,-0.109375,-0.515625
1695750099684,-0.061523438,-0.98223877,0.055847168,-1.15625,-0.609375,-0.09375
1695750099728,-0.05419922,-0.99346924,0.058776855,-1.4375,-1.21875,-0.546875
1695750099758,-0.041259766,-0.9871216,0.050964355,-1.25,-0.234375,-1.28125
1695750099803,-0.053222656,-0.98028564,0.06536865,-0.046875,-1.234375,-0.21875
1695750099849,-0.050048828,-0.9714966,0.053649902,-2.125,-0.046875,-1.03125
1695750099879,-0.061523438,-0.9873657,0.066833496,-0.59375,-1.53125,-0.4375
1695750099925,-0.036132812,-0.98223877,0.03753662,-3.21875,-0.265625,-1.734375
1695750099970,-0.06567383,-0.9807739,0.06390381,-1.0625,-0.8125,-0.84375
1695750099999,-0.053955078,-0.9873657,0.07611084,-0.5,-1.515625,-0.484375
1695750100044,-0.059814453,-0.9866333,0.07171631,-0.640625,-1.796875,0.140625
1695750100074,-0.06616211,-0.9973755,0.08392334,0.46875,-0.984375,0.5625
1695750100120,-0.052001953,-0.9771118,0.06317139,-1.296875,-0.953125,0.1875
1695750100163,-0.06640625,-0.98687744,0.06561279,-0.3125,-1.203125,0.75
1695750100194,-0.05493164,-0.9751587,0.07293701,-0.09375,-0.875,0.5625
1695750100239,-0.064453125,-0.987854,0.07977295,0.96875,-0.78125,0.609375
1695750100285,-0.05908203,-0.9837036,0.06732178,0.0625,-0.9375,0.0625
1695750100314,-0.051513672,-0.98321533,0.062438965,-0.203125,-0.4375,-0.203125
1695750100359,-0.057373047,-1.0042114,0.049987793,-0.15625,-0.328125,-0.28125
1695750100405,-0.053222656,-0.9771118,0.07220459,0.96875,-0.90625,-0.015625
1695750100434,-0.06958008,-1.0083618,0.07196045,1.359375,-0.984375,0.375
1695750100479,-0.03955078,-0.9727173,0.04486084,-2.375,-0.53125,-0.796875
1695750100525,-0.06567383,-0.9902954,0.06878662,0.78125,-0.9375,0.4375
1695750100554,-0.052490234,-0.97979736,0.06439209,0.421875,-1.515625,0.25
1695750100599,-0.060058594,-0.9729614,0.070007324,0.796875,-2.234375,1.21875
1695750100629,-0.0690918,-0.9944458,0.059265137,1.890625,-3.15625,1.046875
1695750100675,-0.041748047,-0.9968872,0.07489014,1.59375,-0.90625,0.734375
1695750100719,-0.05517578,-0.9898071,0.041931152,0.546875,-0.96875,0.40625
1695750100749,-0.03173828,-0.9834595,0.042907715,0.484375,-0.53125,0.46875
1695750100793,-0.045166016,-0.98638916,0.046569824,1.234375,-0.828125,0.046875
1695750100840,-0.057861328,-1.0022583,0.043884277,-0.078125,-1.546875,-0.5625
1695750100869,-0.04345703,-0.9890747,0.05731201,-0.453125,-0.625,-1.125
1695750100914,-0.05053711,-0.99102783,0.018005371,-2.984375,-0.421875,-1.6875
1695750100959,-0.04638672,-0.9985962,0.055114746,0.359375,-0.390625,-0.421875
1695750100992,-0.048095703,-1.00177,0.03778076,-0.828125,-0.4375,-0.671875
1695750101034,-0.057373047,-0.97784424,0.048034668,-1.265625,0.375,-0.078125
1695750101078,-0.06347656,-0.99346924,0.049987793,0.0625,-0.21875,0.3125
1695750101111,-0.043945312,-0.97906494,0.046081543,-1.234375,-1.375,-0.03125
1695750101154,-0.052246094,-0.986145,0.055358887,-1.09375,-1.828125,-0.125
1695750101184,-0.049316406,-0.9780884,0.055847168,-1.078125,-2.359375,-0.34375
1695750101229,-0.04663086,-0.99176025,0.062438965,-0.203125,-0.03125,0.65625
1695750101274,-0.048095703,-0.9976196,0.07684326,-0.8125,3.390625,1.15625
1695750101305,-0.055664062,-1.0291138,0.08294678,-0.390625,5.578125,2.4375
1695750101348,-0.067871094,-1.0386353,0.116882324,6.9375,9.859375,4.953125
1695750101394,-0.02368164,-0.9673462,0.018493652,2.953125,9.890625,4.640625
1695750101424,-0.053955078,-0.96417236,0.034606934,4.6875,9.75,6.734375
1695750101469,-0.0234375,-0.96099854,0.00970459,0.09375,4.890625,3.078125
1695750101514,-0.021972656,-0.9771118,0.026550293,-0.71875,-1.34375,1.203125
1695750101544,0.008056641,-0.9607544,-0.010803223,-2.046875,-1.703125,-1.015625
1695750101590,-0.0234375,-0.94415283,0.027038574,0.265625,-4.953125,-0.96875
1695750101618,-0.018798828,-0.9644165,0.023376465,0.21875,-5.625,-2.078125
1695750101664,-0.0031738281,-0.9968872,0.039001465,1.171875,-4.21875,-1.75
1695750101709,-0.040771484,-1.010315,0.058532715,1.1875,-3.359375,-0.4375
1695750101738,-0.022949219,-0.99884033,0.030212402,-0.828125,-1.390625,-1.296875
1695750101784,-0.032714844,-0.98638916,0.026550293,-0.921875,-0.796875,-0.78125
1695750101828,-0.031982422,-0.98101807,0.03778076,-0.03125,-1.234375,-0.34375
1695750101858,-0.021240234,-0.9751587,0.03338623,0.328125,-2.078125,-0.5
1695750101904,-0.037597656,-0.9871216,0.02923584,-0.265625,-3.203125,-0.640625
1695750101949,-0.028564453,-0.9937134,0.019470215,-0.78125,-2.15625,-0.859375
1695750101979,-0.04736328,-0.9939575,0.03289795,0.46875,-1.5,-0.421875
1695750102024,-0.03466797,-0.9795532,0.046569824,-1.09375,-0.515625,-0.25
1695750102069,-0.057128906,-1.003479,0.0524292,0.75,-1.71875,0.140625
1695750102098,-0.025390625,-0.98565674,0.018493652,-3.40625,0.046875,-1.5625
1695750102144,-0.046875,-0.98883057,0.045837402,-1.421875,-0.390625,-0.203125
1695750102174,-0.040771484,-0.9932251,0.04901123,-0.71875,-0.90625,-0.5625
1695750102220,-0.038085938,-0.97906494,0.04071045,-1.9375,-2.578125,-0.515625
1695750102263,-0.039794922,-0.9873657,0.054382324,-1.109375,-2.578125,-0.296875
1695750102294,-0.03515625,-0.9927368,0.047546387,-1.75,-1.0625,-0.34375
1695750102339,-0.044433594,-0.9837036,0.042175293,-1.59375,-0.984375,-0.171875
1695750102384,-0.044433594,-0.9920044,0.045837402,-0.703125,-1.53125,-0.078125
1695750102414,-0.037353516,-0.99102783,0.05218506,-0.03125,-0.9375,0.203125
1695750102460,-0.032958984,-0.98321533,0.047790527,-1.203125,-1.078125,0.0
1695750102505,-0.03540039,-0.97613525,0.04510498,-1.6875,-0.984375,-0.46875
1695750102534,-0.044189453,-0.99053955,0.03753662,0.046875,-1.203125,-1.046875
1695750102578,-0.049072266,-0.9885864,0.046813965,3.21875,-2.578125,-0.8125
1695750102609,-0.040283203,-0.99591064,0.06390381,2.8125,-1.25,0.5625
1695750102655,-0.029052734,-0.973938,0.030212402,-2.265625,-0.9375,-0.5
1695750102699,-0.06567383,-0.9920044,0.058288574,0.875,-0.671875,0.828125
1695750102729,-0.045166016,-0.986145,0.043640137,0.421875,-0.265625,-0.0625
1695750102774,-0.046875,-0.991272,0.04534912,-1.15625,-0.984375,-0.21875
1695750102820,-0.040771484,-0.98638916,0.039245605,-0.671875,-0.890625,-0.203125
1695750102848,-0.043945312,-0.98809814,0.04876709,-0.8125,-0.78125,-0.5
1695750102895,-0.049804688,-0.98931885,0.06317139,-1.09375,-0.234375,-0.03125
1695750102938,-0.049316406,-0.98101807,0.051452637,-0.59375,-0.84375,-0.375
1695750102969,-0.04663086,-0.9873657,0.049987793,-0.6875,-1.84375,-0.5625
1695750103015,-0.041748047,-0.97906494,0.047790527,-0.59375,-1.796875,-0.640625
1695750103090,-0.052246094,-0.9883423,0.059753418,0.046875,-1.875,-0.6875
1695750103092,-0.040771484,-0.9663696,0.030700684,-1.78125,-0.5,-1.515625
1695750103134,-0.05834961,-0.9902954,0.049987793,2.84375,-1.96875,-0.515625
1695750103164,-0.044433594,-0.98638916,0.039978027,1.265625,-1.390625,-1.015625
1695750103209,-0.04663086,-0.98101807,0.06121826,-0.234375,1.09375,-0.328125
1695750103254,-0.061767578,-1.0222778,0.07098389,0.328125,3.390625,1.609375
1695750103285,-0.05834961,-1.0264282,0.06488037,-0.4375,3.25,1.8125
1695750103329,-0.056152344,-0.989563,0.057800293,-0.875,3.765625,0.875
1695750103373,-0.032226562,-0.9819946,0.050720215,-6.265625,3.515625,0.71875
1695750103404,-0.05419922,-0.9937134,0.05609131,-3.453125,3.09375,0.953125
1695750103449,-0.036865234,-0.9866333,0.07147217,-1.28125,3.34375,1.1875
1695750103494,-0.036376953,-0.99298096,0.059020996,0.640625,2.6875,1.359375
1695750103524,-0.032226562,-0.9668579,0.039978027,-0.125,0.3125,0.65625
1695750103569,-0.026611328,-0.9636841,0.042907715,0.984375,-0.515625,0.40625
1695750103613,-0.029296875,-0.9690552,0.024108887,2.5625,-2.328125,0.28125
1695750103645,-0.022705078,-0.9495239,0.039733887,1.515625,-3.046875,-0.53125
1695750103688,-0.047851562,-1.0044556,0.06439209,2.875,-5.890625,-0.03125
1695750103719,-0.015380859,-1.005188,0.047546387,-0.875,-0.75,-0.734375
1695750103764,-0.052001953,-0.9990845,0.05267334,0.796875,-0.875,0.015625
1695750103809,-0.040527344,-0.99468994,0.04876709,0.21875,-0.3125,-0.34375
1695750103838,-0.04248047,-0.9807739,0.04510498,-0.421875,-1.03125,0.078125
1695750103883,-0.045898438,-0.98272705,0.04827881,0.21875,-2.390625,0.140625
1695750103928,-0.024902344,-0.98760986,0.03704834,-1.3125,-2.21875,-0.09375
1695750103958,-0.045166016,-0.991272,0.04437256,-1.421875,-2.171875,0.53125
1695750104003,-0.044677734,-0.9829712,0.05706787,-1.015625,-2.484375,0.03125
1695750104049,-0.044433594,-0.97540283,0.054382324,-1.328125,-3.78125,-0.4375
1695750104079,-0.03857422,-0.98028564,0.04852295,-0.859375,-3.515625,-1.4375
1695750104124,-0.05126953,-0.98028564,0.050964355,1.8125,-2.265625,-0.9375
1695750104154,-0.037109375,-0.97491455,0.036071777,-0.890625,-0.390625,-1.4375
1695750104199,-0.04321289,-0.9854126,0.054870605,1.140625,-1.703125,-0.796875
1695750104244,-0.045166016,-0.9973755,0.03656006,0.953125,-1.25,-1.015625
1695750104273,-0.059570312,-0.9678345,0.055114746,0.203125,-4.15625,-1.40625
1695750104319,-0.056396484,-1.0015259,0.05999756,1.203125,-2.21875,-0.84375
1695750104364,-0.051757812,-0.9898071,0.039489746,-0.34375,-0.625,-0.734375
1695750104394,-0.04296875,-0.99468994,0.04949951,1.28125,0.34375,-0.015625
1695750104439,-0.048095703,-0.98883057,0.036071777,-0.234375,-0.140625,-0.046875
1695750104484,-0.053955078,-0.97540283,0.039489746,0.4375,-0.375,-0.28125
1695750104514,-0.05053711,-0.9937134,0.04046631,0.625,-0.625,-0.625
1695750104559,-0.05126953,-0.98931885,0.04095459,-0.078125,-1.140625,-0.71875
1695750104605,-0.057128906,-0.989563,0.035339355,-0.953125,-2.234375,-1.15625
1695750104634,-0.052734375,-0.9697876,0.040222168,0.015625,-2.734375,-1.484375
1695750104680,-0.041992188,-1.0059204,0.04437256,-0.234375,2.59375,-0.5
1695750104710,-0.06323242,-1.020813,0.07147217,-0.09375,2.984375,1.53125
1695750104753,-0.052001953,-1.0227661,0.05218506,-0.484375,5.1875,1.65625
1695750104799,-0.037597656,-0.9817505,0.039978027,0.578125,8.4375,1.25
1695750104830,-0.048828125,-0.989563,0.050720215,1.5625,8.65625,3.75
1695750104875,-0.05883789,-1.013977,0.051208496,-3.515625,5.84375,3.53125
1695750104920,-0.07885742,-1.0056763,0.061950684,-4.703125,2.078125,1.90625
1695750104949,-0.021484375,-0.9578247,0.034606934,-3.0,0.859375,0.734375
1695750104993,-0.033447266,-0.9829712,0.043395996,-0.953125,0.0,1.875
1695750105039,-0.029785156,-0.9714966,0.044128418,0.25,-0.828125,1.921875
1695750105070,-0.032958984,-0.960022,0.04071045,1.8125,-2.984375,1.4375
1695750105114,-0.0146484375,-0.96051025,0.027038574,2.0625,-3.359375,0.90625
1695750105143,-0.01928711,-0.9776001,0.039245605,2.890625,-1.203125,0.515625
1695750105189,-0.02734375,-0.9973755,0.034118652,1.609375,-1.59375,0.328125
1695750105235,-0.040771484,-0.9741821,0.057556152,1.1875,-2.140625,0.046875
1695750105264,-0.039794922,-1.0010376,0.050476074,0.96875,-5.453125,-0.875
1695750105309,-0.022216797,-0.9873657,0.02508545,-3.0625,-1.453125,-2.0625
1695750105355,-0.041503906,-1.000061,0.054626465,-0.5625,-1.0625,-0.90625
1695750105384,-0.031982422,-1.0007935,0.050964355,-0.328125,0.203125,-0.65625
1695750105429,-0.021728516,-0.98883057,0.047058105,-0.828125,0.390625,-0.5625
1695750105474,-0.024414062,-0.98883057,0.043640137,-0.265625,-0.609375,-0.15625
1695750105504,-0.029785156,-0.9890747,0.04510498,-0.9375,0.515625,-0.46875
1695750105549,-0.041259766,-0.9915161,0.050476074,-0.203125,0.328125,-0.21875
1695750105594,-0.026855469,-0.9854126,0.04095459,-0.75,-0.171875,-0.203125
1695750105624,-0.034423828,-0.98638916,0.046813965,-0.21875,-0.46875,-0.484375
1695750105669,-0.033935547,-0.9812622,0.04510498,-1.453125,0.0,-1.265625
1695750105699,-0.045898438,-1.0025024,0.039978027,-1.03125,0.5,-0.921875
1695750105744,-0.029541016,-0.97857666,0.06512451,0.15625,0.421875,-0.578125
1695750105789,-0.045654297,-0.9985962,0.05316162,-0.171875,-1.5,-0.515625
1695750105818,-0.026611328,-0.9734497,0.046081543,-3.921875,-0.3125,-2.203125
1695750105864,-0.060302734,-0.99298096,0.058288574,-1.3125,-1.125,-1.359375
1695750105909,-0.053710938,-1.003479,0.07244873,-1.546875,-0.59375,-0.78125
1695750105939,-0.033691406,-1.0020142,0.05999756,-3.03125,0.578125,-0.9375
1695750105984,-0.044433594,-0.9817505,0.054138184,-1.96875,-0.578125,0.046875
1695750106028,-0.03857422,-0.97247314,0.0770874,-1.3125,-0.09375,0.015625
1695750106059,-0.05053711,-0.9824829,0.07220459,-1.671875,-1.4375,0.203125
1695750106104,-0.03564453,-0.9817505,0.07757568,-0.796875,-1.578125,-0.171875
1695750106134,-0.045654297,-0.99005127,0.074645996,-0.703125,-1.96875,-0.734375
1695750106179,-0.040527344,-0.9841919,0.086364746,-0.5,-2.265625,-0.390625
1695750106224,-0.06518555,-1.0056763,0.061950684,0.34375,-0.984375,-0.296875
1695750106254,-0.05493164,-0.97491455,0.09466553,0.890625,-0.640625,0.28125
1695750106298,-0.060546875,-1.0066528,0.07537842,0.703125,-1.625,0.859375
1695750106345,-0.036376953,-0.9702759,0.04901123,-1.796875,0.21875,-0.640625
1695750106374,-0.06738281,-0.9961548,0.07489014,0.078125,-1.34375,0.71875
1695750106420,-0.044921875,-0.96881104,0.078552246,-0.859375,-2.515625,-1.046875
1695750106464,-0.0546875,-0.987854,0.06878662,-1.453125,-2.84375,-0.734375
1695750106494,-0.051757812,-0.9985962,0.07537842,-0.9375,-1.96875,-0.625
1695750106539,-0.030029297,-0.9661255,0.0692749,-0.515625,-1.859375,-1.203125
1695750106584,-0.061767578,-0.98883057,0.06951904,-0.375,-2.9375,0.0
1695750106615,-0.053222656,-0.9939575,0.061462402,0.5,-2.671875,-0.5625
1695750106659,-0.061767578,-1.0025024,0.08514404,0.484375,-0.796875,-0.421875
1695750106689,-0.05126953,-1.0117798,0.061950684,-2.890625,1.4375,-0.046875
1695750106734,-0.043701172,-1.0149536,0.078063965,-3.953125,3.796875,1.078125
1695750106779,-0.059326172,-0.99884033,0.113464355,-1.640625,3.53125,1.640625
1695750106809,-0.048095703,-0.9837036,0.0927124,1.359375,3.375,1.15625
1695750106854,-0.02709961,-0.96295166,0.066345215,-1.375,4.453125,0.359375
1695750106900,-0.07421875,-0.99420166,0.09710693,1.515625,2.40625,1.703125
1695750106931,-0.026367188,-0.942688,0.055358887,0.0,-0.40625,-0.53125
1695750106974,-0.0390625,-0.94537354,0.06585693,3.046875,-4.390625,-0.921875
1695750107019,-0.029052734,-0.96295166,0.04071045,3.71875,-4.765625,-1.640625
1695750107049,-0.022949219,-0.9807739,0.07513428,4.75,-0.234375,-1.125
1695750107095,-0.06201172,-1.0137329,0.066589355,4.5,-0.15625,0.078125
1695750107138,-0.055664062,-1.0042114,0.054382324,2.5,0.59375,0.265625
1695750107169,-0.05102539,-0.9924927,0.051208496,0.546875,0.234375,-0.9375
1695750107214,-0.057128906,-0.9939575,0.05706787,-0.328125,0.640625,-0.453125
1695750107244,-0.072265625,-1.0105591,0.05291748,0.34375,0.0,-0.46875
1695750107289,-0.055908203,-0.9702759,0.074157715,-0.359375,-0.484375,-0.234375
1695750107334,-0.06689453,-0.9783325,0.055114746,0.71875,-2.34375,0.109375
1695750107363,-0.033447266,-0.97125244,0.042175293,-1.65625,0.390625,-0.671875
1695750107409,-0.08203125,-0.99786377,0.066833496,0.609375,-0.296875,1.0625
1695750107454,-0.047607422,-0.989563,0.059753418,0.109375,-0.0625,-0.140625
1695750107484,-0.059814453,-0.9829712,0.050964355,-0.40625,-0.375,0.0625
1695750107529,-0.059326172,-0.9898071,0.05706787,0.828125,-0.390625,0.328125
1695750107574,-0.043945312,-0.9837036,0.042419434,-0.96875,-0.4375,-0.609375
1695750107603,-0.05859375,-0.989563,0.05291748,-0.390625,-0.578125,0.015625
1695750107648,-0.05126953,-0.9729614,0.05291748,0.015625,-1.359375,-0.40625
1695750107679,-0.052734375,-0.98931885,0.047302246,-0.421875,-2.15625,-0.625
1695750107724,-0.051757812,-0.9871216,0.049987793,-0.796875,-1.5625,-0.828125
1695750107769,-0.05810547,-1.0003052,0.046081543,0.25,-0.71875,-0.453125
1695750107844,-0.04736328,-0.97979736,0.0692749,0.0,-0.9375,-0.671875
1695750107847,-0.07128906,-0.99005127,0.06097412,0.953125,-2.765625,-0.09375
1695750107889,-0.038330078,-0.9793091,0.038757324,-2.75,-0.625,-1.578125
1695750107919,-0.07861328,-0.98516846,0.057800293,0.828125,-0.796875,-0.28125
1695750107964,-0.057128906,-0.9898071,0.05267334,-0.28125,-1.03125,-0.90625
1695750108008,-0.059326172,-0.98272705,0.049987793,-0.125,-0.53125,-0.65625
1695750108039,-0.05834961,-0.99713135,0.042175293,0.015625,-0.78125,-0.296875
1695750108083,-0.053710938,-0.9710083,0.038269043,-1.125,-0.546875,-0.625
1695750108128,-0.06982422,-0.9920044,0.051696777,-0.546875,-0.9375,-0.59375
1695750108160,-0.059326172,-0.97198486,0.05340576,0.203125,-1.578125,-0.78125
1695750108204,-0.06689453,-0.9915161,0.047546387,2.34375,-1.640625,-0.40625
1695750108234,-0.05493164,-0.9837036,0.042175293,0.703125,-0.328125,-0.25
1695750108280,-0.06518555,-1.0046997,0.039245605,0.328125,0.015625,0.453125
1695750108328,-0.053222656,-0.972229,0.059265137,1.4375,0.09375,0.0
1695750108353,-0.08276367,-0.99835205,0.047546387,1.390625,-1.59375,0.953125
1695750108399,-0.03515625,-0.975647,0.034118652,-2.40625,0.265625,-0.4375
1695750108444,-0.084228516,-0.9883423,0.05609131,0.703125,-0.78125,0.515625
1695750108474,-0.05078125,-0.9885864,0.051940918,-0.4375,-1.015625,0.0
1695750108518,-0.063964844,-0.98760986,0.040222168,-0.84375,-1.25,0.125
1695750108565,-0.05444336,-0.99713135,0.050231934,0.328125,-0.59375,0.390625
1695750108594,-0.060791016,-0.9685669,0.034606934,-0.796875,-0.90625,-0.03125
1695750108639,-0.06689453,-0.99102783,0.03753662,0.109375,-1.234375,0.5625
1695750108669,-0.06347656,-0.9829712,0.04071045,0.375,-1.421875,0.421875
1695750108714,-0.049804688,-1.0066528,0.055847168,2.609375,-1.0,0.46875
1695750108758,-0.056884766,-1.0198364,0.059020996,-3.9375,2.390625,3.265625
1695750108788,-0.08251953,-1.0405884,0.051452637,-3.921875,7.09375,3.78125
1695750108834,-0.0546875,-0.98638916,0.070251465,-3.671875,6.3125,3.9375
1695750108878,-0.06567383,-0.98638916,0.05291748,-2.203125,3.34375,2.59375
1695750108908,-0.030517578,-0.9673462,0.050964355,-4.546875,4.140625,1.84375
1695750108953,-0.04321289,-0.9578247,0.08050537,0.984375,2.15625,2.046875
1695750108998,-0.028076172,-0.93878174,0.050964355,3.71875,0.375,1.359375
1695750109028,-0.020751953,-0.94366455,0.02532959,6.25,-0.125,0.734375
1695750109075,-0.029785156,-0.96661377,0.00970459,5.9375,-1.9375,-0.125
1695750109149,-0.015380859,-1.0027466,0.040222168,4.984375,-1.21875,0.171875
1695750109153,-0.036376953,-1.0059204,0.046325684,0.609375,-1.984375,0.921875
1695750109194,-0.0390625,-0.9890747,0.039978027,-0.78125,-1.828125,0.15625
1695750109223,-0.040771484,-0.9907837,0.04046631,-0.5625,-2.140625,-0.671875
1695750109269,-0.025634766,-0.99664307,0.038024902,0.0625,-1.234375,-0.953125
1695750109313,-0.029052734,-0.9907837,0.021911621,-1.203125,-2.15625,-0.921875
1695750109343,-0.038085938,-0.97735596,0.054626465,-0.703125,-2.546875,-0.78125
1695750109390,-0.049072266,-0.9998169,0.047302246,-0.296875,-3.59375,-0.28125
1695750109433,-0.020751953,-0.9746704,0.030944824,-3.984375,-1.140625,-1.421875
1695750109464,-0.060546875,-1.0029907,0.05731201,0.421875,-1.3125,-0.0625
1695750109508,-0.029785156,-0.99102783,0.0368042,-0.609375,-0.609375,-0.921875
1695750109553,-0.03491211,-0.9871216,0.035827637,-1.28125,-0.234375,-0.8125
1695750109584,-0.034179688,-0.99713135,0.04144287,-0.78125,-0.5,-0.75
1695750109629,-0.041748047,-0.9783325,0.035827637,-2.09375,-1.59375,-1.125
1695750109674,-0.03857422,-0.9937134,0.04510498,-1.296875,-1.984375,-1.21875
1695750109703,-0.046142578,-0.9834595,0.0446167,-1.515625,-1.703125,-0.8125
1695750109749,-0.03955078,-0.9944458,0.05340576,-0.765625,-0.5625,-0.578125
1695750109781,-0.049804688,-0.986145,0.048034668,-0.484375,-0.40625,-0.46875
1695750109824,-0.044677734,-0.9898071,0.036071777,-0.609375,-0.015625,-0.40625
1695750109869,-0.05078125,-0.9727173,0.061462402,1.328125,-1.421875,-0.09375
1695750109898,-0.053710938,-1.0003052,0.047058105,0.78125,-2.453125,0.125
1695750109944,-0.024169922,-0.9817505,0.036071777,-3.84375,-1.03125,-1.8125
1695750109989,-0.061279297,-1.0044556,0.07098389,1.28125,0.21875,0.671875
1695750110018,-0.05908203,-0.9807739,0.06048584,-0.015625,-1.359375,-0.453125
1695750110064,-0.05834961,-0.9951782,0.061950684,-0.640625,-1.84375,-0.296875
1695750110110,-0.05419922,-0.99884033,0.062683105,-0.875,0.390625,-0.140625
1695750110138,-0.041503906,-1.0134888,0.078308105,-3.671875,4.875,1.1875
1695750110183,-0.06347656,-1.0591431,0.10028076,-6.71875,5.875,3.578125
1695750110215,-0.08618164,-0.9873657,0.047790527,-5.265625,0.890625,1.296875
1695750110260,-0.016845703,-0.9500122,0.057556152,-0.1875,0.875,0.640625
1695750110304,-0.033203125,-0.94854736,0.04949951,-1.5,-0.0625,1.46875
1695750110334,-0.033203125,-0.960022,0.04852295,-0.9375,-0.984375,1.0625
1695750110379,-0.030761719,-0.9470825,0.059020996,3.40625,-1.90625,0.25
1695750110423,-0.030029297,-0.95391846,0.04852295,4.765625,-4.484375,-0.328125
1695750110453,-0.020507812,-0.9949341,0.07122803,2.546875,-1.1875,-0.734375
1695750110498,-0.057373047,-1.0181274,0.06707764,3.03125,-0.921875,0.546875
1695750110544,-0.031982422,-0.9871216,0.05999756,-0.953125,-1.328125,-0.90625
1695750110574,-0.039794922,-0.9924927,0.061462402,-0.03125,-0.609375,-0.21875
1695750110619,-0.040283203,-0.9841919,0.04559326,-0.046875,-1.109375,-0.375
1695750110664,-0.033203125,-0.9763794,0.04534912,-1.53125,-1.21875,-0.1875
1695750110694,-0.055419922,-0.9993286,0.04901123,-1.484375,-1.53125,-0.046875
1695750110739,-0.017822266,-0.9834595,0.06072998,-1.046875,-0.84375,-0.671875
1695750110768,-0.043701172,-0.9780884,0.058776855,-1.203125,-2.359375,-0.546875
1695750110814,-0.045898438,-0.991272,0.05657959,-1.71875,-2.6875,-1.234375
1695750110859,-0.040771484,-0.9927368,0.051940918,-0.234375,-0.046875,-1.25
1695750110889,-0.05883789,-0.98272705,0.07879639,0.328125,-0.9375,0.03125
1695750110934,-0.040039062,-0.99835205,0.06976318,0.5625,-1.125,0.140625
1695750110979,-0.03100586,-0.9697876,0.05340576,-2.703125,-0.5,-0.640625
1695750111009,-0.05908203,-0.9998169,0.07928467,1.40625,-0.28125,1.140625
1695750111054,-0.037109375,-0.9859009,0.051452637,-0.890625,-1.515625,-0.390625
1695750111099,-0.042236328,-0.98028564,0.0524292,-1.359375,-1.546875,0.25
1695750111128,-0.043945312,-0.989563,0.06048584,-0.578125,-1.28125,0.046875
1695750111174,-0.042236328,-0.9963989,0.06463623,-0.34375,-1.203125,0.015625
1695750111204,-0.05444336,-0.9819946,0.06365967,-0.5,-1.625,-0.203125
1695750111249,-0.053222656,-0.98760986,0.070495605,0.234375,-1.640625,0.0
1695750111294,-0.044189453,-0.98809814,0.062683105,0.03125,-1.34375,-0.65625
1695750111324,-0.044677734,-0.9871216,0.0446167,-0.96875,-0.59375,-0.71875
1695750111369,-0.039794922,-0.9956665,0.039245605,-0.765625,-0.390625,-0.625
1695750111414,-0.050048828,-0.98565674,0.07904053,1.4375,-1.296875,-0.09375
1695750111443,-0.049560547,-0.9927368,0.077819824,1.140625,-1.984375,0.203125
1695750111489,-0.033203125,-0.97320557,0.04876709,-3.015625,-0.0625,-1.09375
1695750111534,-0.06567383,-0.991272,0.06439209,-0.171875,-0.796875,0.21875
1695750111563,-0.044433594,-0.98101807,0.06439209,-0.453125,-1.46875,-0.234375
1695750111608,-0.055664062,-0.99176025,0.06414795,-0.421875,-1.359375,0.015625
1695750111654,-0.05126953,-0.9817505,0.0602417,-0.953125,-1.671875,-0.125
1695750111683,-0.044433594,-0.9729614,0.07147217,-0.828125,-0.90625,-0.390625
1695750111728,-0.06201172,-0.9800415,0.06317139,-0.328125,-1.421875,-0.125
1695750111759,-0.04296875,-0.9763794,0.07879639,0.265625,-1.1875,0.5625
1695750111803,-0.0546875,-0.98394775,0.081970215,0.375,-0.84375,0.59375
1695750111849,-0.052734375,-0.9920044,0.06414795,-1.390625,-0.3125,0.203125
1695750111879,-0.045654297,-0.99298096,0.05291748,-0.546875,-0.296875,-0.140625
1695750111923,-0.043701172,-0.97906494,0.077819824,1.46875,-1.546875,0.265625
1695750111968,-0.05908203,-0.9890747,0.06951904,0.484375,-3.359375,0.25
1695750111998,-0.03930664,-0.9734497,0.05267334,-2.96875,-4.359375,-1.453125
1695750112043,-0.04345703,-0.98809814,0.06878662,0.609375,-0.84375,0.3125
1695750112090,-0.056640625,-0.9890747,0.066101074,1.40625,-0.09375,0.234375
1695750112119,-0.04736328,-0.9915161,0.05609131,1.390625,-0.921875,-0.046875
1695750112165,-0.057861328,-0.9990845,0.059753418,0.5625,-1.71875,-0.28125
1695750112209,-0.038085938,-0.9763794,0.062927246,-0.046875,-0.515625,-0.703125
1695750112239,-0.056152344,-0.9927368,0.059265137,0.25,0.171875,0.25
1695750112283,-0.063964844,-0.9883423,0.05633545,2.03125,-0.703125,0.390625
1695750112313,-0.055664062,-0.9788208,0.0524292,3.359375,-1.34375,-0.25
1695750112358,-0.04272461,-0.98760986,0.043884277,0.328125,-2.90625,-1.421875
1695750112403,-0.049072266,-1.0076294,0.048034668,0.671875,-1.25,-0.25
1695750112434,-0.037841797,-0.98565674,0.077819824,0.921875,2.65625,0.328125
1695750112479,-0.067871094,-1.0132446,0.07318115,1.125,3.703125,1.8125
1695750112523,-0.04248047,-1.0193481,0.047058105,-3.515625,5.28125,0.890625
1695750112554,-0.06567383,-0.98028564,0.06463623,-0.203125,2.78125,1.03125
1695750112600,-0.040283203,-0.9883423,0.055847168,-5.109375,1.5625,1.171875
1695750112644,-0.046875,-0.9990845,0.06829834,-4.296875,2.109375,0.03125
1695750112673,-0.04272461,-1.000061,0.06439209,-2.234375,1.8125,0.875
1695750112719,-0.03125,-0.9746704,0.06121826,0.078125,0.90625,0.96875
1695750112749,-0.037109375,-0.9656372,0.054382324,2.265625,-0.84375,0.953125
1695750112794,-0.013427734,-0.9439087,0.035827637,2.421875,-2.5,-0.015625
1695750112839,-0.030761719,-0.94976807,0.01776123,2.796875,-4.921875,0.234375
1695750112869,-0.028808594,-0.99591064,0.054138184,2.921875,-3.453125,0.78125
1695750112915,-0.057373047,-1.0164185,0.049743652,1.625,-2.4375,0.859375
1695750112960,-0.041015625,-0.9961548,0.07757568,0.203125,-0.65625,0.5625
1695750112989,-0.040771484,-0.9924927,0.049987793,0.65625,-1.078125,0.09375
1695750113034,-0.016113281,-0.9780884,0.02532959,-2.1875,0.1875,-0.78125
1695750113079,-0.057861328,-0.98443604,0.04901123,-0.5625,-2.453125,-0.25
1695750113109,-0.033935547,-0.9927368,0.04827881,-0.734375,-1.390625,-0.859375
1695750113154,-0.043701172,-0.9866333,0.04852295,0.375,-1.734375,-0.328125
1695750113199,-0.030517578,-1.0010376,0.062683105,-0.875,-1.15625,-0.390625
1695750113228,-0.03955078,-0.98931885,0.036071777,-2.140625,-2.671875,-1.09375
1695750113273,-0.042236328,-0.98760986,0.05340576,-0.375,-1.921875,-1.09375
1695750113303,-0.035888672,-0.98516846,0.05218506,0.53125,-0.71875,-0.421875
1695750113348,-0.04663086,-0.99713135,0.05340576,-0.609375,-1.359375,-0.390625
1695750113393,-0.043701172,-0.9939575,0.06072998,-0.5625,-0.609375,-0.453125
1695750113423,-0.03881836,-0.986145,0.032165527,-1.703125,-0.546875,-1.125
1695750113468,-0.05419922,-0.9697876,0.06536865,0.015625,-1.625,-0.4375
1695750113514,-0.068359375,-0.9961548,0.06732178,0.453125,-2.796875,0.21875
1695750113544,-0.040771484,-0.98321533,0.039001465,-1.328125,-3.0625,-2.140625
1695750113589,-0.052734375,-0.9951782,0.066101074,1.125,-1.25,-0.5625
1695750113634,-0.048583984,-0.98809814,0.051940918,-0.96875,-0.875,-0.625
1695750113664,-0.057617188,-0.9866333,0.06341553,-0.484375,-0.421875,-0.328125
1695750113709,-0.041015625,-1.0025024,0.06756592,-2.125,1.890625,0.03125
1695750113738,-0.046142578,-1.0357056,0.0914917,-4.984375,4.953125,2.375
1695750113784,-0.06958008,-1.008606,0.06707764,-4.453125,4.875,2.484375
1695750113830,-0.020263672,-0.97247314,0.06878662,-7.1875,4.15625,2.734375
1695750113904,-0.06298828,-1.0064087,0.07928467,-5.8125,2.40625,1.78125
1695750113906,-0.038330078,-0.9819946,0.082214355,-2.546875,2.40625,0.46875
1695750113948,-0.033691406,-0.9729614,0.06976318,-2.34375,0.328125,0.703125
1695750113978,-0.032226562,-0.94781494,0.077819824,1.28125,-1.328125,0.078125
1695750114023,-0.029785156,-0.9741821,0.059753418,5.015625,-0.953125,-0.125
1695750114068,-0.0234375,-0.944397,0.051696777,5.046875,-0.796875,-2.390625
1695750114098,-0.016357422,-1.0125122,0.082458496,8.0,1.0,-0.765625
1695750114142,-0.040283203,-1.0098267,0.07269287,1.796875,0.390625,-1.171875
1695750114188,-0.045166016,-0.9824829,0.055114746,-0.828125,-0.78125,-1.84375
1695750114218,-0.061279297,-0.9885864,0.05657959,-0.453125,-0.4375,-1.796875
1695750114263,-0.03955078,-0.98028564,0.062927246,0.421875,-0.296875,-1.609375
1695750114293,-0.05859375,-0.9924927,0.06365967,-0.390625,-1.0,-0.59375
1695750114338,-0.044433594,-0.9927368,0.06121826,0.328125,-1.296875,-0.484375
1695750114383,-0.043701172,-0.99420166,0.058532715,-0.328125,-1.0,0.296875
1695750114413,-0.053955078,-0.9795532,0.06365967,-1.140625,-1.734375,0.15625
1695750114459,-0.05078125,-0.99664307,0.043640137,-1.71875,-0.625,0.171875
1695750114504,-0.05029297,-0.99298096,0.07513428,0.609375,-1.453125,0.421875
1695750114534,-0.044677734,-0.99298096,0.054138184,-1.375,-1.59375,-0.03125
1695750114579,-0.045654297,-0.97076416,0.06561279,-1.84375,-1.28125,-0.359375
1695750114624,-0.056640625,-0.991272,0.059265137,-0.3125,-3.046875,-0.046875
1695750114654,-0.048095703,-0.98443604,0.08465576,-2.90625,-3.96875,-1.03125
1695750114699,-0.061035156,-1.00177,0.08782959,0.203125,-2.40625,-0.09375
1695750114728,-0.052246094,-0.9805298,0.059020996,-0.90625,-1.59375,-0.203125
1695750114774,-0.048339844,-0.9819946,0.054626465,-1.296875,-2.765625,-0.4375
1695750114819,-0.051757812,-0.99713135,0.074645996,0.125,-1.3125,0.0
1695750114849,-0.049560547,-0.97198486,0.06732178,0.0625,-1.640625,-0.15625
1695750114894,-0.04711914,-0.9846802,0.070251465,0.4375,-1.96875,-0.140625
1695750114938,-0.0690918,-0.98101807,0.07684326,1.0625,-3.015625,-0.171875
1695750114969,-0.040039062,-0.97125244,0.06561279,-1.015625,-0.140625,-1.046875
1695750115013,-0.079589844,-0.99346924,0.081970215,0.59375,-2.046875,0.203125
1695750115059,-0.040771484,-0.99298096,0.053649902,-0.859375,-0.859375,-0.859375
1695750115088,-0.06640625,-0.9702759,0.07684326,0.15625,-0.65625,-0.078125
1695750115134,-0.06347656,-0.9968872,0.062438965,1.296875,-1.171875,-0.3125
1695750115209,-0.057861328,-0.9854126,0.06463623,-0.828125,-3.046875,-1.265625
1695750115212,-0.061279297,-0.9898071,0.06048584,0.125,-4.0,-1.625
1695750115253,-0.048339844,-0.99542236,0.066345215,0.03125,-0.453125,-0.6875
1695750115283,-0.06347656,-0.98809814,0.051208496,-0.390625,-0.625,-0.0625
1695750115328,-0.05419922,-0.98101807,0.059753418,0.609375,-0.890625,-0.15625
1695750115374,-0.060302734,-0.98809814,0.06439209,0.5625,-2.0,-0.28125
1695750115404,-0.057373047,-0.9741821,0.058776855,-0.1875,-1.296875,-0.59375
1695750115449,-0.0690918,-0.98516846,0.06414795,0.96875,-1.875,0.25
1695750115494,-0.04711914,-0.9805298,0.06097412,0.171875,-1.015625,-0.390625
1695750115523,-0.0703125,-0.989563,0.062194824,2.0625,-2.546875,-0.046875
1695750115569,-0.024902344,-0.98101807,0.023864746,-1.375,-1.625,-1.5625
1695750115614,-0.06518555,-0.9795532,0.059020996,0.0625,-1.453125,-0.625
1695750115644,-0.072265625,-0.9949341,0.06707764,0.84375,-2.328125,-1.03125
1695750115688,-0.055908203,-0.9812622,0.062438965,0.03125,-1.484375,-0.890625
1695750115734,-0.064941406,-0.9968872,0.05657959,-0.015625,-0.1875,0.0
1695750115764,-0.051757812,-0.9866333,0.04046631,-0.390625,0.90625,0.34375
1695750115809,-0.061767578,-0.9939575,0.039001465,1.0,0.703125,0.46875
1695750115840,-0.04736328,-0.9973755,0.047058105,2.390625,1.953125,1.21875
1695750115884,-0.03955078,-0.9746704,0.042175293,0.953125,1.390625,0.96875
