timestamp,accel_x,accel_y,accel_z,gyro_x,gyro_y,gyro_z
1696105012553,-0.075927734,-0.9800415,0.2399292,1.0,-0.65625,-0.109375
1696105012596,-0.071777344,-0.9741821,0.22235107,0.015625,-1.203125,0.1875
1696105012629,-0.08178711,-0.98638916,0.23553467,1.125,-0.0625,0.109375
1696105012672,-0.06738281,-0.9710083,0.22210693,0.21875,-0.828125,0.046875
1696105012716,-0.076171875,-0.991272,0.22894287,3.0625,-1.0625,0.0625
1696105012747,-0.07055664,-0.96954346,0.20672607,-2.328125,-0.796875,0.0
1696105012791,-0.07519531,-0.98101807,0.24822998,0.703125,-0.609375,-0.1875
1696105012821,-0.068847656,-0.9800415,0.22454834,-0.515625,-0.21875,0.015625
1696105012866,-0.07080078,-0.98516846,0.2111206,0.53125,-0.921875,0.296875
1696105012913,-0.07885742,-0.98028564,0.23699951,1.53125,-1.25,-0.046875
1696105012942,-0.06347656,-0.9793091,0.23040771,-0.625,-0.390625,0.203125
1696105012990,-0.080078125,-0.9727173,0.21990967,0.625,-0.875,0.640625
1696105013032,-0.07373047,-0.9780884,0.22283936,0.765625,0.0,-0.03125
1696105013062,-0.060302734,-0.98150635,0.21307373,-0.296875,-1.46875,0.3125
1696105013106,-0.075927734,-0.97735596,0.22650146,0.34375,-1.25,0.359375
1696105013136,-0.072021484,-0.9771118,0.21820068,-0.1875,-0.625,0.265625
1696105013182,-0.068603516,-0.97540283,0.2333374,2.734375,-1.171875,-0.34375
1696105013242,-0.059570312,-0.97857666,0.1930542,-2.875,-2.203125,-0.109375
1696105013256,-0.078125,-0.9788208,0.24163818,2.15625,-0.25,-0.125
1696105013302,-0.0690918,-0.986145,0.21746826,0.171875,-0.25,-0.328125
1696105013332,-0.057617188,-0.98028564,0.20526123,0.546875,-0.6875,0.234375
1696105013376,-0.07080078,-0.98809814,0.22796631,1.359375,-1.359375,0.078125
1696105013436,-0.059570312,-0.98272705,0.21307373,0.515625,-0.78125,0.140625
1696105013451,-0.07348633,-0.9817505,0.21331787,-0.40625,-0.75,0.375
1696105013497,-0.06201172,-0.98321533,0.21087646,0.453125,-1.359375,0.25
1696105013544,-0.059570312,-0.98931885,0.21331787,0.984375,-0.5625,0.4375
1696105013572,-0.075927734,-0.9846802,0.21331787,-0.03125,-1.703125,0.1875
1696105013617,-0.06933594,-0.99224854,0.2074585,0.828125,-1.03125,0.375
1696105013693,-0.057373047,-0.97125244,0.21502686,1.109375,-0.234375,-0.328125
1696105013697,-0.061035156,-0.99102783,0.19085693,0.5,-2.484375,0.671875
1696105013737,-0.06640625,-0.98101807,0.21087646,-0.5625,-0.140625,-0.578125
1696105013768,-0.06640625,-0.9866333,0.21087646,1.15625,-0.34375,0.015625
1696105013812,-0.060058594,-0.98223877,0.20281982,0.546875,-0.859375,0.171875
1696105013842,-0.06518555,-0.98028564,0.20477295,0.078125,-0.078125,0.03125
1696105013888,-0.06665039,-0.9824829,0.21063232,0.609375,-1.546875,0.078125
1696105013932,-0.061523438,-0.98223877,0.19110107,-0.0625,0.09375,0.203125
1696105013963,-0.064453125,-0.986145,0.20501709,0.75,-0.625,0.125
1696105014008,-0.061035156,-0.98150635,0.20770264,0.3125,-0.46875,-0.171875
1696105014053,-0.07324219,-0.98272705,0.18939209,0.046875,-1.015625,0.0625
1696105014082,-0.07348633,-0.9837036,0.20428467,-0.8125,-0.65625,-0.359375
1696105014127,-0.045654297,-0.99176025,0.2020874,-0.75,-0.921875,-0.0625
1696105014156,-0.06616211,-0.99005127,0.21673584,1.453125,-1.28125,0.0625
1696105014202,-0.0690918,-0.9817505,0.18499756,-4.640625,-3.296875,-0.0625
1696105014247,-0.08300781,-0.991272,0.22528076,0.265625,-1.625,-0.46875
1696105014276,-0.06274414,-0.98150635,0.21234131,-0.4375,-2.046875,-0.296875
1696105014322,-0.0546875,-0.9776001,0.19915771,-0.390625,-2.9375,0.1875
1696105014367,-0.07910156,-0.9846802,0.22088623,0.96875,-2.0,-0.09375
1696105014397,-0.068847656,-0.98565674,0.20965576,0.8125,-3.0625,0.109375
1696105014442,-0.060302734,-0.9807739,0.20355225,1.046875,-1.921875,0.515625
1696105014472,-0.061035156,-0.9771118,0.20428467,1.375,-2.6875,0.375
1696105014517,-0.05834961,-0.9907837,0.2008667,1.828125,-1.78125,0.65625
1696105014564,-0.07470703,-0.9819946,0.19500732,0.65625,-2.15625,0.5
1696105014591,-0.07055664,-0.98443604,0.20819092,0.671875,-1.984375,-0.03125
1696105014637,-0.061035156,-0.989563,0.1954956,0.71875,-1.0,0.28125
1696105014667,-0.06738281,-0.99224854,0.20184326,2.890625,-1.703125,0.15625
1696105014713,-0.071777344,-0.97784424,0.17523193,-2.25,-2.3125,-0.140625
1696105014757,-0.06713867,-0.9973755,0.21307373,2.734375,-0.953125,-0.046875
1696105014787,-0.06347656,-0.9846802,0.1852417,0.515625,-0.875,0.21875
1696105014832,-0.06591797,-0.9890747,0.17840576,-0.09375,-2.296875,-0.046875
1696105014876,-0.06738281,-1.0003052,0.19036865,0.90625,-0.53125,-0.140625
1696105014908,-0.05517578,-0.9883423,0.17962646,-0.703125,-0.734375,0.015625
1696105014952,-0.05834961,-0.9837036,0.18670654,-0.265625,-0.703125,-0.03125
1696105014983,-0.07055664,-0.98321533,0.18695068,-0.21875,-0.609375,0.03125
1696105015026,-0.06323242,-0.9817505,0.18719482,-0.15625,-0.609375,-0.09375
1696105015072,-0.06738281,-0.9841919,0.18865967,-0.796875,-0.6875,-0.21875
1696105015102,-0.061035156,-0.9981079,0.18914795,0.484375,0.109375,0.0
1696105015146,-0.06616211,-0.98321533,0.19451904,0.4375,0.1875,-0.46875
1696105015177,-0.06689453,-0.9854126,0.18060303,-0.359375,-1.015625,0.484375
1696105015223,-0.06640625,-0.9854126,0.18548584,-1.65625,0.15625,-0.703125
1696105015267,-0.064453125,-0.9932251,0.20770264,1.09375,-0.140625,0.1875
1696105015297,-0.063964844,-0.986145,0.18988037,-0.59375,-0.1875,0.3125
1696105015343,-0.072021484,-0.98638916,0.1918335,-0.46875,-0.125,-0.28125
1696105015388,-0.07128906,-0.989563,0.19622803,0.046875,-0.203125,0.359375
1696105015417,-0.06762695,-0.9871216,0.18377686,-0.640625,0.328125,-0.265625
1696105015464,-0.053222656,-0.99053955,0.19256592,-0.234375,-0.109375,-0.484375
1696105015493,-0.06225586,-0.98883057,0.1852417,0.0625,0.078125,-0.296875
1696105015553,-0.06689453,-0.9902954,0.18914795,-0.5,-0.359375,-0.78125
1696105015583,-0.063964844,-0.98760986,0.19354248,-1.40625,0.65625,-0.703125
1696105015611,-0.07446289,-0.9939575,0.19036865,-1.390625,0.671875,-0.328125
1696105015656,-0.051757812,-0.9807739,0.20794678,0.09375,0.359375,-0.4375
1696105015702,-0.05834961,-0.98443604,0.17913818,-1.546875,-1.703125,0.515625
1696105015732,-0.07006836,-0.9729614,0.20794678,0.390625,0.5,0.09375
1696105015777,-0.064208984,-0.9883423,0.20843506,2.125,0.0,0.28125
1696105015807,-0.06347656,-0.987854,0.1930542,2.84375,0.109375,0.203125
1696105015853,-0.056640625,-0.986145,0.19647217,4.71875,-0.125,0.328125
1696105015900,-0.061767578,-0.9788208,0.18597412,2.953125,-0.3125,-0.171875
1696105015927,-0.052246094,-0.9956665,0.184021,1.1875,-0.4375,0.421875
1696105015972,-0.0637207,-0.98638916,0.17938232,0.6875,-0.734375,0.171875
1696105016002,-0.048828125,-0.9805298,0.18060303,0.640625,-0.828125,0.328125
1696105016047,-0.059570312,-0.9907837,0.17816162,-0.5,-1.15625,0.28125
1696105016093,-0.052001953,-0.9902954,0.1852417,0.25,-2.125,0.4375
1696105016122,-0.06347656,-0.9944458,0.17889404,0.109375,-1.828125,0.65625
1696105016167,-0.04638672,-0.9937134,0.18939209,1.40625,-1.9375,-0.015625
1696105016243,-0.056640625,-0.98565674,0.16326904,-1.375,-3.84375,0.140625
1696105016246,-0.07373047,-0.99420166,0.1828003,-1.296875,-1.140625,-0.453125
1696105016288,-0.063964844,-0.98687744,0.18157959,-0.671875,-1.75,-0.140625
1696105016317,-0.04321289,-0.9841919,0.16326904,-1.0,-1.921875,-0.015625
1696105016362,-0.061279297,-0.9937134,0.19671631,0.515625,-2.0,-0.109375
1696105016408,-0.056396484,-0.99102783,0.18182373,-0.0625,-2.1875,0.140625
1696105016437,-0.05883789,-0.99346924,0.18035889,0.46875,-2.609375,-0.03125
1696105016483,-0.05810547,-0.9883423,0.18206787,1.65625,-1.8125,0.359375
1696105016513,-0.061279297,-0.9951782,0.18255615,0.328125,-1.640625,-0.09375
1696105016558,-0.06298828,-0.989563,0.16497803,0.171875,-2.3125,-0.0625
1696105016602,-0.06298828,-0.99176025,0.17962646,0.15625,-0.984375,-0.234375
1696105016632,-0.055419922,-0.987854,0.17010498,-1.203125,-2.59375,0.03125
1696105016679,-0.055419922,-0.9961548,0.18450928,1.3125,-1.828125,-0.328125
1696105016723,-0.056640625,-0.98443604,0.15716553,-2.09375,-2.65625,-0.140625
1696105016751,-0.06640625,-0.99224854,0.19769287,-0.53125,-1.296875,-0.375
1696105016799,-0.052490234,-0.98272705,0.17327881,-1.390625,-2.40625,-0.140625
1696105016828,-0.05859375,-0.98028564,0.17376709,-0.34375,-1.125,-0.078125
1696105016872,-0.067871094,-0.987854,0.18670654,-0.140625,-1.34375,-0.78125
1696105016917,-0.068847656,-0.9949341,0.18353271,-0.84375,-1.4375,-0.171875
1696105016947,-0.064941406,-0.9841919,0.18792725,-0.21875,-1.609375,0.265625
1696105016992,-0.053710938,-0.98443604,0.17303467,-0.9375,-0.75,0.15625
1696105017036,-0.06298828,-0.9866333,0.17694092,-0.75,-0.921875,-0.015625
1696105017066,-0.0625,-0.98883057,0.18963623,-0.34375,-0.4375,-0.0625
1696105017112,-0.068359375,-0.9841919,0.1876831,-0.921875,-0.796875,-0.015625
1696105017143,-0.061523438,-0.9866333,0.18304443,-1.484375,-1.046875,-0.046875
1696105017186,-0.059570312,-0.99224854,0.19866943,1.078125,-0.3125,0.171875
1696105017232,-0.064941406,-0.9741821,0.17596436,-3.96875,-1.734375,-0.265625
1696105017263,-0.06616211,-0.98638916,0.20233154,0.0,0.25,-0.203125
1696105017309,-0.057128906,-0.9829712,0.18939209,-0.6875,-0.625,0.171875
1696105017336,-0.072509766,-0.99224854,0.18988037,-0.390625,-1.0,0.078125
1696105017383,-0.064697266,-0.9976196,0.18890381,0.625,-0.15625,0.109375
1696105017428,-0.051513672,-0.98809814,0.19158936,-0.578125,-0.1875,-0.015625
1696105017457,-0.05859375,-0.9907837,0.19403076,-0.078125,-1.0,0.515625
1696105017502,-0.060546875,-0.97906494,0.19378662,-0.515625,-0.859375,-0.21875
1696105017547,-0.060791016,-0.99884033,0.18572998,-0.625,-0.640625,-0.015625
1696105017577,-0.061767578,-0.99053955,0.19989014,-0.4375,-0.984375,-0.234375
1696105017623,-0.055664062,-0.9849243,0.1930542,-0.640625,-0.328125,0.09375
1696105017653,-0.06323242,-0.98638916,0.19573975,-0.890625,-1.078125,-0.296875
1696105017697,-0.05908203,-0.99420166,0.19207764,1.59375,-1.6875,0.046875
1696105017743,-0.0637207,-0.97369385,0.1774292,-3.75,-1.765625,-0.65625
1696105017773,-0.06201172,-0.9937134,0.21502686,0.53125,-1.890625,-0.296875
1696105017817,-0.06640625,-0.99053955,0.1828003,0.0625,-2.796875,0.375
1696105017848,-0.06567383,-0.98760986,0.19793701,0.5,-1.71875,0.1875
1696105017892,-0.06591797,-0.98687744,0.18841553,-0.046875,-2.328125,-0.109375
1696105017938,-0.060302734,-0.989563,0.19012451,-1.421875,-1.609375,0.03125
1696105017967,-0.06542969,-0.98931885,0.19476318,0.203125,-1.328125,0.03125
1696105018012,-0.059326172,-0.9846802,0.19451904,-0.390625,-2.09375,-0.4375
1696105018058,-0.060791016,-0.99346924,0.199646,-0.171875,-1.171875,-0.0625
1696105018087,-0.075927734,-0.9807739,0.19866943,-0.84375,-2.140625,-0.453125
1696105018132,-0.056396484,-0.9837036,0.20184326,-0.90625,-1.078125,0.015625
1696105018162,-0.05883789,-0.97857666,0.20379639,-1.5625,-1.375,-0.25
1696105018207,-0.063964844,-0.99346924,0.20672607,0.890625,-1.640625,0.09375
1696105018252,-0.06616211,-0.9800415,0.19378662,-2.703125,-1.40625,-0.5
1696105018281,-0.075927734,-0.9924927,0.21697998,0.875,-1.4375,-0.078125
1696105018327,-0.05517578,-0.9727173,0.1954956,-1.140625,-1.640625,-0.234375
1696105018357,-0.07348633,-0.9849243,0.2062378,-1.25,-1.828125,-0.359375
1696105018401,-0.05419922,-0.9795532,0.19720459,-0.5,-0.28125,0.125
1696105018448,-0.07519531,-0.9817505,0.20281982,-1.578125,-0.15625,-0.25
1696105018477,-0.063964844,-0.9819946,0.20501709,-0.578125,-1.0625,-0.03125
1696105018522,-0.06567383,-0.9898071,0.20428467,-0.09375,-0.578125,0.0
1696105018567,-0.07006836,-0.98028564,0.20379639,-0.625,-1.0,-0.203125
1696105018596,-0.061767578,-0.9714966,0.2111206,-0.640625,-1.140625,-0.265625
1696105018642,-0.0793457,-0.9871216,0.21820068,0.171875,-0.5,0.046875
1696105018673,-0.067871094,-0.9776001,0.2074585,-0.546875,-0.4375,-0.0625
1696105018717,-0.064697266,-0.99786377,0.2189331,2.1875,-0.484375,0.109375
1696105018762,-0.05883789,-0.96759033,0.18865967,-2.9375,-0.75,-0.28125
1696105018791,-0.07006836,-0.99542236,0.22698975,1.875,0.828125,0.234375
1696105018838,-0.064941406,-0.98272705,0.20574951,0.125,-0.28125,0.15625
1696105018882,-0.056152344,-0.9788208,0.19525146,-0.71875,-0.78125,-0.046875
1696105018912,-0.07080078,-0.99835205,0.2074585,0.484375,-0.25,-0.234375
1696105018957,-0.056396484,-0.9751587,0.1984253,0.203125,-0.375,-0.03125
1696105018985,-0.06958008,-0.98150635,0.2020874,1.03125,0.703125,0.5625
1696105019032,-0.059326172,-0.97491455,0.20648193,0.6875,-0.234375,0.28125
1696105019079,-0.059814453,-0.9859009,0.2062378,1.09375,0.34375,0.234375
1696105019108,-0.06958008,-0.9924927,0.2111206,1.578125,0.0,0.421875
1696105019153,-0.060302734,-0.9854126,0.21063232,0.71875,-0.59375,0.21875
1696105019198,-0.068115234,-0.98394775,0.1918335,-0.390625,-0.921875,0.34375
1696105019228,-0.048339844,-0.9834595,0.20281982,1.859375,0.3125,-0.203125
1696105019272,-0.057373047,-0.989563,0.18206787,-0.46875,-1.125,-0.03125
1696105019302,-0.068847656,-0.9939575,0.20574951,0.78125,0.265625,-0.296875
1696105019347,-0.059814453,-0.98272705,0.2008667,0.0,-1.15625,-0.078125
1696105019392,-0.048339844,-0.98516846,0.19329834,-1.0,-1.234375,-0.0625
1696105019423,-0.067871094,-0.9973755,0.1954956,1.4375,-1.890625,0.03125
1696105019468,-0.059326172,-0.9807739,0.19793701,0.375,-1.546875,-0.015625
1696105019496,-0.0637207,-0.99102783,0.19403076,0.125,-1.46875,0.015625
1696105019543,-0.06323242,-0.987854,0.19036865,-0.34375,-1.921875,0.203125
1696105019588,-0.056152344,-0.9883423,0.19281006,-0.25,-2.140625,-0.21875
1696105019622,-0.06298828,-0.9873657,0.1906128,0.171875,-1.6875,-0.078125
1696105019661,-0.060058594,-0.99591064,0.18792725,0.546875,-2.65625,-0.21875
1696105019693,-0.0625,-0.99468994,0.19110107,1.328125,-2.046875,-0.046875
1696105019736,-0.05029297,-0.9829712,0.1954956,0.546875,-0.90625,-0.203125
1696105019783,-0.06225586,-0.9985962,0.18182373,1.75,-2.953125,0.484375
1696105019812,-0.06518555,-0.98150635,0.16766357,-1.15625,-2.0625,-0.234375
1696105019856,-0.060791016,-0.99420166,0.19671631,2.078125,-1.484375,-0.03125
1696105019902,-0.047607422,-0.98760986,0.1786499,0.40625,-2.609375,0.25
1696105019932,-0.06982422,-0.98809814,0.19110107,0.90625,-2.421875,0.21875
1696105019976,-0.06738281,-0.9854126,0.1774292,1.015625,-2.6875,0.203125
1696105020007,-0.059326172,-0.987854,0.18231201,0.34375,-2.09375,0.25
1696105020053,-0.055664062,-0.986145,0.17376709,0.203125,-2.21875,0.0
1696105020097,-0.06982422,-0.99224854,0.18499756,-0.234375,-1.9375,-0.03125
1696105020128,-0.064453125,-0.9902954,0.17230225,-0.421875,-1.984375,-0.09375
1696105020173,-0.055664062,-0.989563,0.18084717,-0.328125,-1.578125,-0.0625
1696105020218,-0.064208984,-0.98321533,0.18353271,-0.78125,-2.1875,-0.390625
1696105020247,-0.05810547,-0.98931885,0.17181396,-1.359375,-2.296875,-0.265625
1696105020292,-0.068603516,-0.98565674,0.1930542,1.765625,-0.640625,-0.0625
1696105020322,-0.056396484,-0.9727173,0.1552124,-4.484375,-2.734375,-0.578125
1696105020369,-0.06933594,-0.9937134,0.20257568,-0.03125,-0.734375,0.03125
1696105020412,-0.05419922,-0.9768677,0.1708374,-1.984375,-0.453125,-0.046875
1696105020442,-0.05883789,-0.9873657,0.1864624,-1.390625,-1.25,-0.328125
1696105020488,-0.064941406,-0.99420166,0.18206787,0.015625,-0.75,-0.046875
1696105020521,-0.06713867,-0.99053955,0.18792725,-1.140625,-0.65625,-0.203125
1696105020562,-0.07006836,-0.9829712,0.18353271,-0.875,-0.890625,0.0
1696105020606,-0.05859375,-0.98516846,0.18865967,-0.859375,-1.0,-0.125
1696105020636,-0.06274414,-0.9829712,0.19940186,-0.78125,-0.34375,0.109375
1696105020682,-0.06738281,-0.9812622,0.19012451,-0.78125,-0.484375,-0.140625
1696105020727,-0.059814453,-0.9859009,0.19647217,-1.0,-0.9375,-0.1875
1696105020757,-0.056152344,-0.97906494,0.18572998,-2.03125,-0.765625,0.140625
1696105020802,-0.06542969,-0.9883423,0.21502686,1.515625,0.234375,-0.25
1696105020832,-0.04663086,-0.9793091,0.17376709,-1.875,-2.09375,0.125
1696105020876,-0.072509766,-0.98687744,0.20135498,-0.4375,0.328125,-0.171875
1696105020922,-0.063964844,-0.98809814,0.20306396,-0.1875,-0.734375,-0.015625
1696105020952,-0.057373047,-0.98883057,0.19256592,-0.90625,-1.25,-0.09375
1696105021012,-0.06689453,-0.99053955,0.19793701,0.734375,-0.9375,-0.140625
1696105021026,-0.055908203,-0.9846802,0.19940186,-0.265625,-0.9375,-0.125
1696105021072,-0.06665039,-0.9829712,0.19696045,-0.4375,-0.484375,0.09375
1696105021118,-0.0546875,-0.9758911,0.18890381,-0.125,-1.03125,-0.140625
1696105021148,-0.055419922,-0.99298096,0.20526123,0.046875,-0.734375,-0.328125
1696105021193,-0.07373047,-0.9849243,0.19866943,-0.34375,-0.796875,-0.03125
1696105021238,-0.0690918,-0.98150635,0.20037842,-0.25,-0.578125,-0.265625
1696105021267,-0.05517578,-0.9783325,0.18865967,-1.546875,-0.5625,-0.140625
1696105021313,-0.06982422,-0.9793091,0.20794678,1.46875,-0.578125,-0.078125
1696105021342,-0.061279297,-0.9824829,0.1852417,-2.265625,-1.28125,-0.046875
1696105021389,-0.08129883,-0.98883057,0.20257568,0.09375,0.328125,-0.40625
1696105021435,-0.06323242,-0.99224854,0.20916748,0.578125,-0.21875,0.046875
1696105021463,-0.061035156,-0.9920044,0.19036865,-0.1875,-0.390625,-0.015625
1696105021506,-0.0637207,-0.99298096,0.20379639,0.4375,-0.515625,-0.109375
1696105021552,-0.060058594,-0.9871216,0.19891357,0.0625,-0.453125,-0.25
1696105021582,-0.057128906,-0.9817505,0.20184326,-0.6875,-0.25,0.015625
1696105021626,-0.06225586,-0.9885864,0.19476318,-0.09375,-0.28125,0.0625
1696105021658,-0.06225586,-0.98565674,0.199646,-0.359375,-0.15625,-0.109375
1696105021703,-0.059814453,-0.98321533,0.20062256,-0.90625,-1.234375,-0.578125
1696105021748,-0.064453125,-0.98516846,0.20428467,-1.109375,-1.203125,-0.453125
1696105021776,-0.0625,-0.98809814,0.20526123,-0.515625,-1.546875,-0.296875
1696105021822,-0.06640625,-0.9898071,0.2098999,2.671875,-1.609375,0.09375
1696105021852,-0.060546875,-0.98272705,0.18109131,-1.578125,-2.96875,-0.0625
1696105021897,-0.076660156,-0.9834595,0.20892334,-0.640625,-1.703125,-0.34375
1696105021943,-0.056152344,-0.98443604,0.2111206,-0.21875,-3.1875,-0.296875
1696105021973,-0.06591797,-0.97979736,0.19500732,-0.5625,-3.0625,-0.03125
1696105022017,-0.076171875,-0.9973755,0.19793701,-0.53125,-2.9375,-0.546875
1696105022092,-0.056152344,-0.9805298,0.20135498,-0.921875,-2.3125,-0.265625
1696105022095,-0.06958008,-0.98272705,0.20135498,-0.4375,-2.5,-0.21875
1696105022137,-0.072021484,-0.98150635,0.199646,-0.328125,-2.9375,-0.1875
1696105022167,-0.064697266,-0.98394775,0.20428467,0.40625,-1.75,-0.140625
1696105022213,-0.07055664,-0.9746704,0.20184326,-0.28125,-1.96875,-0.03125
1696105022258,-0.07080078,-0.9805298,0.20428467,-0.640625,-1.828125,0.234375
1696105022287,-0.061523438,-0.97247314,0.19403076,-2.546875,0.0625,-0.125
1696105022333,-0.07080078,-0.98516846,0.21795654,2.046875,-0.578125,0.8125
1696105022361,-0.079833984,-0.9758911,0.1876831,-2.390625,-2.484375,0.4375
1696105022407,-0.061279297,-0.9902954,0.230896,0.3125,0.125,-0.078125
1696105022452,-0.07055664,-0.973938,0.20574951,-1.8125,-1.296875,0.375
1696105022482,-0.071777344,-0.99346924,0.2033081,0.375,-0.859375,-0.203125
1696105022527,-0.060058594,-0.9951782,0.21356201,1.328125,-2.0625,0.21875
1696105022573,-0.060058594,-0.9734497,0.20648193,-1.578125,-0.46875,-0.125
1696105022604,-0.07006836,-0.98687744,0.20672607,-0.640625,-1.5,0.09375
1696105022647,-0.064941406,-0.9807739,0.20379639,-0.71875,-1.484375,0.171875
1696105022676,-0.06518555,-0.9795532,0.19866943,-0.25,-0.734375,0.1875
1696105022721,-0.057128906,-0.9824829,0.20648193,-0.984375,-0.5,-0.09375
1696105022767,-0.07495117,-0.9734497,0.2189331,-0.28125,-0.5,0.234375
1696105022797,-0.06640625,-0.975647,0.19256592,-1.46875,-0.703125,0.03125
1696105022842,-0.07006836,-0.98883057,0.22796631,2.015625,0.734375,0.171875
1696105022887,-0.05078125,-0.9793091,0.1906128,-1.625,-0.71875,-0.328125
1696105022932,-0.07373047,-0.98272705,0.22479248,1.234375,0.890625,-0.296875
1696105022963,-0.06518555,-0.97906494,0.20574951,-0.015625,-0.359375,0.03125
1696105022992,-0.05834961,-0.9883423,0.19866943,0.078125,-0.671875,-0.40625
1696105023037,-0.06713867,-0.99298096,0.20965576,0.453125,-0.53125,0.046875
1696105023082,-0.047851562,-0.98101807,0.2033081,-0.375,-0.640625,-0.078125
1696105023112,-0.06616211,-0.9859009,0.21209717,0.671875,-0.484375,0.28125
1696105023157,-0.067871094,-0.98809814,0.21209717,0.859375,-0.71875,0.46875
1696105023188,-0.064941406,-0.9871216,0.19573975,0.15625,-0.90625,0.34375
1696105023232,-0.060058594,-0.9834595,0.20574951,0.484375,-0.890625,0.09375
1696105023277,-0.06982422,-0.989563,0.21746826,0.484375,0.140625,0.125
1696105023308,-0.053955078,-0.98760986,0.20404053,0.671875,-0.671875,0.328125
1696105023352,-0.06347656,-0.98516846,0.21209717,2.546875,0.40625,0.25
1696105023397,-0.05102539,-0.97735596,0.17840576,-1.5625,-1.109375,0.015625
1696105023428,-0.06982422,-0.987854,0.21429443,1.125,0.5,-0.078125
1696105023473,-0.05126953,-0.9890747,0.20428467,0.953125,0.078125,0.125
1696105023503,-0.05517578,-0.98883057,0.19207764,0.71875,-0.125,-0.015625
1696105023547,-0.059814453,-0.9924927,0.19329834,1.078125,-0.34375,-0.046875
1696105023592,-0.055419922,-0.98760986,0.19525146,-0.015625,-0.734375,-0.078125
1696105023623,-0.052246094,-0.98565674,0.19012451,-0.21875,0.25,0.015625
1696105023666,-0.05908203,-0.9819946,0.1984253,-0.25,-0.65625,0.03125
1696105023697,-0.060058594,-0.98638916,0.19866943,-0.609375,-0.6875,-0.28125
1696105023743,-0.056396484,-0.9866333,0.20111084,0.078125,-2.203125,-0.109375
1696105023791,-0.06518555,-0.9890747,0.2111206,-0.625,-1.140625,-0.03125
1696105023816,-0.063964844,-0.9854126,0.19256592,-1.0,-1.625,-0.359375
1696105023863,-0.05078125,-0.99420166,0.20892334,1.125,-1.546875,-0.171875
1696105023910,-0.051757812,-0.98883057,0.18109131,-0.8125,-2.875,0.15625
1696105023939,-0.07104492,-0.9837036,0.21453857,-1.296875,-0.5625,-0.625
1696105023983,-0.052978516,-0.9885864,0.20843506,-0.34375,-2.1875,-0.140625
1696105024012,-0.057128906,-0.9829712,0.19500732,-1.109375,-2.546875,0.03125
1696105024056,-0.063964844,-0.9829712,0.2098999,-1.84375,-2.859375,-0.03125
1696105024103,-0.059326172,-0.98687744,0.20892334,-0.59375,-3.296875,-0.078125
1696105024132,-0.059814453,-0.98101807,0.20306396,-1.109375,-1.796875,0.1875
1696105024176,-0.06738281,-0.9807739,0.20452881,0.3125,-3.078125,-0.3125
1696105024207,-0.06542969,-0.99005127,0.19866943,-0.15625,-2.40625,-0.0625
1696105024253,-0.0637207,-0.98516846,0.1984253,-0.34375,-1.796875,-0.421875
1696105024298,-0.07128906,-0.9873657,0.20379639,-1.296875,-1.890625,-0.53125
1696105024327,-0.057861328,-0.98516846,0.18695068,-0.484375,-2.375,-0.0625
1696105024372,-0.0625,-0.98321533,0.21063232,2.3125,-0.65625,0.015625
1696105024416,-0.05444336,-0.98443604,0.18182373,-0.21875,-2.703125,0.28125
1696105024462,-0.07324219,-0.99224854,0.22064209,-0.078125,-1.875,-0.125
1696105024505,-0.059570312,-0.98565674,0.20159912,0.6875,-1.40625,0.484375
1696105024522,-0.05859375,-0.9788208,0.1954956,-0.9375,-1.625,-0.25
1696105024567,-0.0715332,-0.987854,0.199646,-0.203125,-1.78125,0.046875
1696105024613,-0.053710938,-0.9807739,0.20281982,0.28125,-1.84375,0.15625
1696105024644,-0.052734375,-0.98150635,0.19989014,0.21875,-0.015625,0.015625
1696105024687,-0.06616211,-0.9805298,0.19622803,-0.359375,-0.984375,-0.21875
1696105024761,-0.05493164,-0.9834595,0.19818115,0.40625,0.40625,-0.265625
1696105024764,-0.06201172,-0.9817505,0.1930542,0.34375,0.15625,0.140625
1696105024807,-0.0625,-0.99053955,0.2020874,-0.84375,-0.046875,-0.359375
1696105024838,-0.060546875,-0.9949341,0.19500732,-0.21875,-0.21875,-0.015625
1696105024881,-0.057617188,-0.9812622,0.21502686,0.171875,0.90625,-0.390625
1696105024927,-0.061035156,-0.9890747,0.18841553,-0.125,-1.296875,0.15625
1696105024956,-0.057128906,-0.9834595,0.20892334,-1.375,2.25,0.234375
1696105025002,-0.060791016,-0.9866333,0.2062378,1.859375,1.125,0.90625
1696105025033,-0.061035156,-0.98394775,0.19036865,-0.03125,-0.9375,0.3125
1696105025077,-0.051757812,-0.9859009,0.1984253,-0.609375,-0.484375,-0.078125
1696105025122,-0.063964844,-0.9883423,0.20062256,0.4375,-1.46875,0.328125
1696105025152,-0.053710938,-0.9824829,0.19720459,-0.53125,-0.78125,-0.15625
1696105025196,-0.060791016,-0.9907837,0.2008667,0.625,-1.109375,-0.015625
1696105025242,-0.057128906,-0.9817505,0.20013428,0.03125,-0.734375,0.09375
1696105025273,-0.057861328,-0.9834595,0.19451904,0.578125,-0.96875,-0.109375
1696105025316,-0.064453125,-0.9915161,0.20526123,0.859375,-0.890625,-0.046875
1696105025347,-0.064941406,-0.99468994,0.20111084,0.6875,0.1875,0.0625
1696105025392,-0.052246094,-0.9854126,0.19598389,0.234375,0.453125,-0.40625
1696105025436,-0.060546875,-0.9939575,0.19500732,1.84375,-0.78125,0.3125
1696105025467,-0.057128906,-0.98394775,0.184021,-1.75,-0.859375,-0.421875
1696105025512,-0.059570312,-0.99005127,0.20355225,1.015625,0.53125,-0.296875
1696105025542,-0.057617188,-0.9871216,0.1942749,-0.171875,-0.6875,-0.125
1696105025586,-0.061279297,-0.987854,0.1852417,-0.515625,-1.0625,-0.046875
1696105025632,-0.05908203,-0.99346924,0.19866943,-0.09375,-1.171875,-0.3125
1696105025661,-0.053710938,-0.98443604,0.19598389,-0.421875,-0.484375,-0.40625
1696105025707,-0.056640625,-0.9812622,0.19598389,-0.234375,-1.421875,-0.046875
1696105025752,-0.05859375,-0.9824829,0.20452881,-0.484375,-1.21875,-0.125
1696105025782,-0.059814453,-0.9866333,0.19403076,-0.203125,-0.984375,-0.3125
1696105025827,-0.055664062,-0.9812622,0.19793701,-0.34375,-1.59375,-0.125
1696105025856,-0.06738281,-0.97979736,0.20501709,-0.4375,-1.796875,-0.34375
1696105025904,-0.06640625,-0.9890747,0.1930542,-0.40625,-1.921875,-0.265625
1696105025947,-0.05859375,-0.97491455,0.20257568,0.34375,-0.90625,-0.6875
1696105025978,-0.0637207,-0.9859009,0.19500732,-0.09375,-4.015625,0.171875
1696105026023,-0.07299805,-0.9849243,0.19744873,-2.171875,-2.0,-0.796875
1696105026068,-0.064453125,-0.98687744,0.20599365,0.171875,-2.25,-0.484375
1696105026098,-0.056396484,-0.9793091,0.18914795,-0.15625,-2.703125,-0.34375
1696105026143,-0.068847656,-0.98321533,0.19451904,-1.03125,-2.875,-0.40625
1696105026174,-0.0690918,-0.98321533,0.20135498,-0.890625,-2.953125,0.078125
1696105026216,-0.061035156,-0.98028564,0.19622803,-1.828125,-1.21875,-0.265625
1696105026263,-0.05834961,-0.9819946,0.20672607,-0.3125,-1.90625,0.0625
1696105026292,-0.07055664,-0.9788208,0.19989014,1.078125,-1.609375,0.296875
1696105026336,-0.07714844,-0.9890747,0.20037842,0.265625,-2.46875,0.15625
1696105026367,-0.06713867,-0.98809814,0.20135498,-0.359375,-1.90625,-0.09375
1696105026412,-0.06591797,-0.98638916,0.18963623,-0.578125,-1.359375,0.078125
1696105026462,-0.067871094,-0.9907837,0.19329834,-0.15625,-1.3125,0.09375
1696105026490,-0.07324219,-0.9819946,0.21746826,0.140625,-1.125,-0.21875
1696105026532,-0.07299805,-0.9824829,0.17913818,-1.109375,-2.359375,0.21875
1696105026579,-0.076416016,-0.9885864,0.20233154,-2.0625,-1.21875,-0.484375
1696105026606,-0.06689453,-0.9907837,0.21478271,0.90625,-1.875,0.078125
1696105026652,-0.068603516,-0.9795532,0.19281006,-1.671875,-2.4375,-0.359375
1696105026682,-0.072509766,-0.9793091,0.20233154,-0.9375,-1.203125,-0.15625
1696105026727,-0.05834961,-0.9819946,0.19476318,-0.6875,-1.640625,0.390625
1696105026772,-0.06762695,-0.9837036,0.1954956,-0.828125,-1.546875,-0.03125
1696105026816,-0.072265625,-0.9890747,0.20965576,-0.15625,-1.125,0.1875
1696105026848,-0.06591797,-0.9795532,0.20281982,-0.90625,-0.8125,0.125
1696105026876,-0.076416016,-0.99053955,0.20770264,-0.34375,-1.09375,0.234375
1696105026922,-0.0715332,-0.9834595,0.20599365,-0.265625,-0.828125,0.140625
1696105026967,-0.064453125,-0.97662354,0.21014404,-0.359375,-0.53125,-0.015625
1696105026999,-0.07055664,-0.9795532,0.20037842,-0.515625,0.015625,0.078125
1696105027042,-0.048339844,-0.9807739,0.20819092,2.359375,1.90625,0.3125
1696105027087,-0.067871094,-0.98516846,0.18719482,-0.4375,-0.5,0.515625
1696105027118,-0.08300781,-0.98394775,0.20941162,-0.46875,0.796875,0.0625
1696105027162,-0.076660156,-0.9883423,0.21917725,1.203125,-0.375,0.375
1696105027192,-0.051757812,-0.9883423,0.18963623,-0.15625,-1.25,0.09375
1696105027236,-0.064208984,-0.97906494,0.20501709,-0.046875,-0.46875,0.375
1696105027282,-0.063964844,-0.9807739,0.20062256,0.125,-1.40625,0.609375
1696105027313,-0.057128906,-0.97906494,0.20135498,-1.015625,-0.828125,0.109375
1696105027358,-0.056640625,-0.98443604,0.20233154,0.65625,-0.484375,0.546875
1696105027401,-0.06323242,-0.98687744,0.20013428,-0.515625,-0.53125,0.09375
1696105027431,-0.057861328,-0.9883423,0.19818115,0.109375,0.296875,-0.015625
1696105027476,-0.0690918,-0.99224854,0.20526123,0.4375,-0.75,0.0625
1696105027507,-0.060791016,-0.98321533,0.20721436,0.203125,0.015625,-0.046875
1696105027551,-0.060058594,-0.98321533,0.19720459,-0.03125,-0.4375,0.125
1696105027597,-0.056884766,-0.9883423,0.20770264,2.1875,-0.375,-0.046875
1696105027629,-0.05029297,-0.98443604,0.17962646,-0.96875,-1.875,-0.0625
1696105027672,-0.072021484,-0.986145,0.2177124,0.828125,0.9375,-0.21875
1696105027702,-0.052246094,-0.98638916,0.20062256,0.921875,-0.421875,-0.1875
1696105027748,-0.05029297,-0.9890747,0.19915771,0.21875,-0.140625,0.078125
1696105027792,-0.05883789,-0.9956665,0.20281982,0.9375,-0.171875,-0.0625
1696105027822,-0.060546875,-0.9849243,0.19622803,0.4375,-0.90625,-0.078125
1696105027866,-0.056396484,-0.98687744,0.20355225,-0.25,-0.515625,0.03125
1696105027943,-0.06542969,-0.9939575,0.19403076,-0.25,-1.578125,0.03125
1696105027947,-0.053466797,-0.9854126,0.19525146,-0.65625,-1.453125,-0.5
1696105027987,-0.0625,-0.9873657,0.2062378,-0.09375,-1.5,-0.21875
1696105028017,-0.063964844,-0.989563,0.19989014,0.015625,-2.0,-0.40625
1696105028063,-0.057617188,-0.989563,0.19696045,-0.53125,-1.9375,-0.25
1696105028110,-0.055419922,-0.9807739,0.21990967,-0.65625,-2.15625,-0.234375
1696105028136,-0.06933594,-0.9871216,0.20404053,-2.890625,-5.359375,0.078125
1696105028183,-0.08105469,-0.98638916,0.18353271,-4.078125,-5.453125,-1.328125
1696105028213,-0.047607422,-0.986145,0.22796631,0.28125,-0.96875,0.25
1696105028256,-0.060058594,-0.9805298,0.19818115,-1.828125,-2.53125,-0.25
1696105028302,-0.078125,-0.97540283,0.20574951,-1.234375,-3.203125,-0.1875
1696105028332,-0.07373047,-0.9866333,0.21331787,-0.109375,-2.15625,-0.125
1696105028376,-0.064941406,-0.97979736,0.21014404,-1.171875,-1.640625,-0.3125
1696105028423,-0.061035156,-0.98223877,0.2062378,-0.625,-1.796875,0.015625
1696105028454,-0.06713867,-0.9824829,0.20697021,-0.015625,-1.984375,-0.078125
1696105028496,-0.08251953,-0.9817505,0.20941162,0.375,-1.359375,-0.15625
1696105028526,-0.07006836,-0.9817505,0.2062378,0.046875,-1.703125,-0.453125
1696105028573,-0.05908203,-0.987854,0.21234131,0.0625,-1.34375,-0.28125
1696105028617,-0.06665039,-0.9746704,0.21453857,-0.359375,-1.078125,-0.234375
1696105028648,-0.076416016,-0.9907837,0.2140503,1.25,-1.3125,-0.140625
1696105028696,-0.0625,-0.97906494,0.19744873,-3.171875,-1.8125,-0.609375
1696105028737,-0.07373047,-0.9920044,0.22332764,1.0,-1.609375,-0.3125
1696105028768,-0.064941406,-0.98101807,0.19769287,-1.65625,-1.75,-0.046875
1696105028811,-0.06713867,-0.9819946,0.20843506,-0.890625,-0.953125,-0.390625
1696105028841,-0.06713867,-0.9837036,0.20721436,0.0,-0.578125,0.171875
1696105028886,-0.064941406,-0.9793091,0.21136475,-0.59375,-0.59375,-0.140625
1696105028935,-0.06982422,-0.98150635,0.2177124,-0.140625,-0.9375,0.109375
1696105028965,-0.06616211,-0.9859009,0.22015381,-0.625,-0.625,0.03125
1696105029008,-0.07421875,-0.97613525,0.21136475,0.09375,-0.34375,0.046875
1696105029036,-0.07080078,-0.9841919,0.20941162,-0.28125,-0.84375,-0.03125
1696105029082,-0.075683594,-0.98150635,0.21990967,0.546875,0.3125,0.265625
1696105029127,-0.07446289,-0.97540283,0.21942139,-0.859375,0.234375,0.046875
1696105029172,-0.06982422,-0.9866333,0.22064209,2.109375,-0.15625,0.4375
1696105029202,-0.06567383,-0.9763794,0.19476318,-1.640625,-0.609375,0.0
1696105029247,-0.072265625,-0.9898071,0.22479248,0.90625,1.21875,0.046875
1696105029277,-0.06201172,-0.98321533,0.20794678,0.734375,-0.125,0.125
1696105029323,-0.06567383,-0.98321533,0.2074585,-0.15625,0.3125,0.09375
1696105029351,-0.067871094,-0.9920044,0.21356201,1.9375,-0.09375,0.28125
1696105029397,-0.056884766,-0.9793091,0.20965576,1.21875,-0.0625,0.109375
1696105029442,-0.064941406,-0.9883423,0.20550537,0.46875,0.390625,0.265625
1696105029472,-0.068359375,-0.9834595,0.20965576,0.5625,0.421875,0.015625
1696105029517,-0.068603516,-0.9829712,0.1984253,1.140625,0.375,-0.109375
1696105029546,-0.06958008,-0.98565674,0.20526123,1.703125,0.640625,0.15625
1696105029592,-0.07055664,-0.9859009,0.20526123,4.015625,0.234375,0.453125
1696105029636,-0.064208984,-0.97540283,0.19818115,1.40625,0.28125,0.03125
1696105029666,-0.05859375,-0.9883423,0.20819092,2.171875,0.28125,0.140625
1696105029712,-0.057617188,-0.9866333,0.18206787,-1.703125,-1.40625,0.046875
1696105029756,-0.068603516,-0.99053955,0.20672607,-0.328125,0.328125,-0.0625
1696105029786,-0.05810547,-0.9890747,0.19940186,-0.75,-1.03125,-0.390625
1696105029833,-0.059570312,-0.98638916,0.19525146,-1.609375,-1.71875,-0.265625
1696105029906,-0.07055664,-0.99835205,0.20184326,-0.421875,-2.671875,-0.359375
1696105029907,-0.059326172,-0.98443604,0.20550537,-0.09375,-1.484375,-0.640625
1696105029952,-0.052978516,-0.98321533,0.20013428,-1.078125,-1.171875,-0.21875
1696105029983,-0.07299805,-0.9841919,0.20379639,-0.328125,-2.96875,-0.046875
1696105030026,-0.059570312,-0.9824829,0.20111084,-0.3125,-2.28125,-0.09375
1696105030057,-0.068847656,-0.98760986,0.20794678,-1.3125,-3.796875,-0.15625
1696105030102,-0.068359375,-0.9841919,0.20843506,-1.59375,-3.390625,-0.015625
1696105030148,-0.059326172,-0.9812622,0.20648193,-1.859375,-3.875,-0.375
1696105030178,-0.056884766,-0.98809814,0.21307373,1.046875,-1.78125,-0.359375
1696105030222,-0.072021484,-0.989563,0.19012451,-0.828125,-2.921875,-0.078125
1696105030266,-0.08154297,-0.9807739,0.21844482,-1.078125,-1.03125,-0.703125
1696105030296,-0.068115234,-0.9885864,0.21429443,-1.078125,-2.09375,-0.265625
1696105030342,-0.061767578,-0.9824829,0.2020874,-0.65625,-1.90625,0.015625
1696105030372,-0.0793457,-0.9854126,0.21575928,-0.53125,-1.96875,-0.203125
1696105030417,-0.06298828,-0.98028564,0.21942139,-1.578125,-2.34375,-0.0625
1696105030464,-0.07397461,-0.9902954,0.20819092,-2.03125,-2.9375,-0.40625
1696105030492,-0.05883789,-0.97979736,0.20574951,-0.875,-2.03125,-0.109375
1696105030536,-0.075683594,-0.97491455,0.21160889,-0.578125,-1.140625,0.0
1696105030584,-0.0847168,-0.98321533,0.22161865,-0.34375,-2.140625,-0.21875
1696105030612,-0.072265625,-0.9859009,0.21429443,-0.28125,-2.28125,-0.015625
1696105030656,-0.07104492,-0.986145,0.20257568,0.03125,-1.265625,0.0
1696105030687,-0.080566406,-0.9788208,0.23065186,0.46875,-0.8125,-0.078125
1696105030736,-0.06713867,-0.98443604,0.19989014,-0.28125,-2.53125,0.171875
1696105030776,-0.07788086,-0.9829712,0.22357178,-0.5,-0.609375,-0.078125
1696105030807,-0.06616211,-0.9780884,0.21136475,-0.296875,-1.40625,0.4375
1696105030852,-0.064697266,-0.97076416,0.20159912,-1.046875,-1.140625,0.078125
1696105030882,-0.07373047,-0.9788208,0.2189331,-0.328125,-1.3125,0.125
1696105030927,-0.072265625,-0.9788208,0.21600342,-1.078125,-1.453125,0.078125
1696105030974,-0.07446289,-0.9751587,0.2111206,-1.078125,-0.625,-0.21875
1696105031003,-0.061767578,-0.9807739,0.20452881,-0.6875,-0.9375,-0.328125
1696105031047,-0.07055664,-0.97979736,0.22283936,-0.328125,-0.921875,-0.03125
1696105031092,-0.07446289,-0.9763794,0.21209717,-0.625,-1.171875,-0.28125
1696105031121,-0.06738281,-0.9854126,0.21380615,-0.78125,-0.75,-0.46875
1696105031167,-0.076416016,-0.9883423,0.22137451,-0.3125,-0.21875,-0.078125
1696105031198,-0.064697266,-0.98028564,0.22503662,-0.09375,-0.546875,-0.390625
1696105031242,-0.06640625,-0.98931885,0.21209717,0.453125,-1.4375,0.1875
1696105031287,-0.076660156,-0.98101807,0.22088623,-2.171875,-0.171875,-0.65625
1696105031317,-0.075683594,-0.9834595,0.23284912,0.671875,-0.515625,0.015625
1696105031362,-0.064941406,-0.97906494,0.21185303,-1.046875,-1.390625,-0.125
1696105031392,-0.076416016,-0.98321533,0.2296753,-1.390625,-1.390625,-0.390625
1696105031437,-0.068115234,-0.9846802,0.22381592,0.0,-0.78125,0.203125
1696105031482,-0.07739258,-0.9849243,0.21600342,-0.734375,-1.109375,-0.09375
1696105031513,-0.068359375,-0.9846802,0.22235107,0.375,-0.796875,0.046875
1696105031556,-0.0690918,-0.9849243,0.22698975,-0.375,-1.28125,0.0
1696105031602,-0.071777344,-0.97979736,0.22332764,0.40625,-1.171875,0.0625
1696105031632,-0.08227539,-0.9800415,0.21624756,-0.140625,-1.28125,-0.03125
1696105031677,-0.07470703,-0.99102783,0.22454834,0.265625,-0.171875,0.046875
1696105031706,-0.064697266,-0.97320557,0.2255249,0.34375,-0.515625,0.109375
1696105031752,-0.07006836,-0.98638916,0.23236084,1.828125,-0.734375,0.375
1696105031796,-0.07080078,-0.973938,0.20574951,-2.671875,-1.125,-0.34375
1696105031827,-0.0769043,-0.9885864,0.24041748,0.90625,0.125,-0.21875
1696105031873,-0.064941406,-0.98516846,0.22601318,-0.171875,-0.65625,0.125
1696105031916,-0.07128906,-0.9807739,0.21453857,-0.609375,-0.796875,-0.234375
1696105031946,-0.07348633,-0.98687744,0.22625732,0.59375,-0.546875,-0.21875
1696105031993,-0.06689453,-0.98223877,0.21917725,-0.453125,-1.1875,-0.296875
1696105032022,-0.07104492,-0.97735596,0.22723389,-0.484375,-0.84375,-0.171875
1696105032067,-0.07421875,-0.9902954,0.21990967,-0.171875,-1.078125,0.015625
1696105032112,-0.07299805,-0.97442627,0.22113037,-0.125,-0.296875,-0.15625
1696105032142,-0.06542969,-0.98394775,0.21942139,-0.0625,-1.203125,0.015625
1696105032186,-0.07348633,-0.9807739,0.23162842,0.046875,-0.65625,0.046875
1696105032217,-0.07373047,-0.98883057,0.2189331,0.4375,-0.6875,0.265625
1696105032263,-0.06542969,-0.973938,0.22698975,0.578125,-0.140625,-0.15625
1696105032306,-0.07543945,-0.986145,0.21746826,0.140625,-2.0625,0.5
1696105032337,-0.07861328,-0.9819946,0.2177124,-1.65625,-0.390625,-0.484375
1696105032384,-0.08081055,-0.9849243,0.23114014,0.609375,-0.546875,0.046875
1696105032427,-0.05859375,-0.9795532,0.20819092,-0.3125,-0.703125,-0.15625
1696105032456,-0.07836914,-0.9837036,0.22503662,-1.453125,-1.25,-0.078125
1696105032504,-0.07421875,-0.97784424,0.22235107,-0.765625,-1.3125,-0.171875
1696105032532,-0.06591797,-0.9829712,0.22528076,-0.6875,-1.4375,-0.234375
1696105032577,-0.080322266,-0.98931885,0.22869873,0.09375,-1.453125,0.203125
1696105032623,-0.07348633,-0.97979736,0.22723389,0.3125,-1.625,-0.046875
1696105032652,-0.068359375,-0.98321533,0.22406006,0.34375,-1.34375,0.203125
1696105032696,-0.076171875,-0.9763794,0.23284912,-0.046875,-2.09375,0.03125
1696105032727,-0.07128906,-0.9788208,0.21868896,-0.296875,-1.9375,0.09375
1696105032773,-0.07446289,-0.9834595,0.21942139,0.1875,-0.9375,0.046875
1696105032819,-0.05883789,-0.9795532,0.2255249,0.375,-1.609375,-0.203125
1696105032847,-0.07836914,-0.99176025,0.21746826,1.28125,-2.3125,0.5
1696105032893,-0.0703125,-0.98028564,0.20574951,-2.96875,-1.71875,-0.125
1696105032939,-0.07421875,-0.98443604,0.23577881,1.703125,-1.59375,0.296875
1696105032968,-0.060791016,-0.9817505,0.2111206,0.203125,-2.03125,0.75
1696105033013,-0.072021484,-0.9837036,0.22235107,-0.75,-2.09375,0.078125
1696105033042,-0.06982422,-0.9854126,0.21966553,0.0,-1.4375,0.328125
1696105033087,-0.06616211,-0.98321533,0.21942139,-0.21875,-1.5625,0.109375
1696105033132,-0.06958008,-0.97979736,0.215271,-0.40625,-1.296875,0.03125
1696105033162,-0.061279297,-0.9890747,0.22747803,-0.375,-1.515625,-0.078125
1696105033208,-0.07104492,-0.98638916,0.21942139,0.0,-1.6875,0.09375
1696105033252,-0.07324219,-0.98394775,0.22601318,-0.28125,-1.875,0.015625
1696105033282,-0.07055664,-0.9734497,0.22235107,-0.046875,-1.4375,0.265625
1696105033326,-0.06689453,-0.9807739,0.21575928,-0.421875,-1.28125,0.53125
1696105033357,-0.06762695,-0.9883423,0.2345581,1.34375,-1.578125,0.203125
1696105033402,-0.055908203,-0.9783325,0.20648193,1.109375,-1.234375,0.9375
1696105033447,-0.06982422,-0.98443604,0.21502686,-1.84375,-1.25,0.015625
1696105033478,-0.06665039,-0.99053955,0.23065186,0.578125,-1.296875,0.234375
1696105033522,-0.05810547,-0.9763794,0.21307373,-0.625,-0.984375,0.015625
1696105033567,-0.076660156,-0.9885864,0.22137451,-0.78125,-1.21875,-0.125
1696105033597,-0.05859375,-0.98638916,0.21844482,-0.4375,-0.671875,-0.03125
1696105033642,-0.0625,-0.97979736,0.21429443,-1.421875,-0.71875,-0.21875
1696105033673,-0.06713867,-0.98101807,0.21917725,-0.328125,-0.6875,0.046875
1696105033716,-0.06518555,-0.98638916,0.2230835,-0.40625,-0.921875,0.046875
1696105033761,-0.07324219,-0.97857666,0.21990967,-0.703125,-0.8125,0.34375
1696105033792,-0.06640625,-0.98272705,0.22137451,0.046875,-1.15625,-0.078125
1696105033837,-0.056152344,-0.9854126,0.23236084,-0.09375,-0.65625,0.015625
1696105033866,-0.06982422,-0.9834595,0.2164917,-1.1875,-0.71875,-0.03125
1696105033912,-0.063964844,-0.97857666,0.23406982,1.203125,0.09375,0.0625
1696105033959,-0.059814453,-0.9812622,0.20379639,-1.734375,-1.859375,-0.0625
1696105033988,-0.07543945,-0.9746704,0.23065186,-1.0,0.28125,-0.1875
1696105034031,-0.059570312,-0.97247314,0.23577881,0.03125,-1.09375,0.015625
1696105034062,-0.06298828,-0.9805298,0.22259521,-0.0625,-0.71875,0.0625
1696105034106,-0.06567383,-0.9710083,0.2255249,0.1875,-1.09375,0.3125
1696105034152,-0.06933594,-0.9729614,0.23382568,0.21875,-1.59375,0.484375
1696105034183,-0.060791016,-0.97320557,0.21673584,-0.234375,-0.21875,0.421875
1696105034227,-0.064453125,-0.9849243,0.22894287,0.328125,-0.71875,0.34375
1696105034273,-0.060546875,-0.9783325,0.22039795,0.328125,-0.890625,0.25
1696105034303,-0.067871094,-0.98321533,0.22015381,0.1875,-0.96875,0.125
1696105034346,-0.067871094,-0.9837036,0.21917725,0.109375,-0.921875,0.125
1696105034377,-0.0625,-0.98516846,0.22479248,0.609375,-0.25,0.15625
1696105034423,-0.056640625,-0.98101807,0.2189331,-0.234375,-0.390625,-0.1875
1696105034467,-0.056396484,-0.98150635,0.22088623,1.953125,-0.578125,0.34375
1696105034499,-0.0715332,-0.97320557,0.20892334,-2.203125,-1.3125,-0.03125
1696105034542,-0.064697266,-0.986145,0.23236084,0.8125,0.03125,-0.09375
1696105034573,-0.057373047,-0.9829712,0.2230835,0.46875,-0.953125,-0.078125
1696105034618,-0.056396484,-0.9812622,0.21453857,-0.5625,-0.25,-0.109375
1696105034662,-0.05493164,-0.98565674,0.22576904,0.734375,-0.40625,0.046875
1696105034693,-0.05859375,-0.9795532,0.22601318,-0.71875,-1.203125,-0.234375
1696105034737,-0.057373047,-0.98516846,0.22479248,-0.796875,-0.90625,-0.21875
1696105034784,-0.05883789,-0.9849243,0.22625732,-0.03125,-1.4375,-0.125
1696105034814,-0.063964844,-0.98394775,0.22528076,0.359375,-0.921875,-0.1875
1696105034857,-0.061035156,-0.9817505,0.21966553,0.0,-2.375,0.03125
1696105034888,-0.06347656,-0.9837036,0.22259521,-0.0625,-1.53125,-0.21875
1696105034932,-0.06518555,-0.9758911,0.21453857,-0.453125,-1.859375,0.0
1696105034978,-0.05834961,-0.98272705,0.22845459,0.15625,-1.78125,-0.34375
1696105035007,-0.064697266,-0.9846802,0.21429443,0.265625,-2.75,0.0
1696105035054,-0.06958008,-0.97613525,0.21575928,-1.8125,-1.171875,-0.6875
1696105035098,-0.06616211,-0.9907837,0.22943115,0.453125,-1.53125,-0.3125
1696105035127,-0.0625,-0.98028564,0.215271,-0.515625,-1.984375,-0.296875
1696105035172,-0.07324219,-0.97735596,0.22235107,-0.734375,-1.875,-0.359375
1696105035202,-0.055419922,-0.9807739,0.22747803,0.296875,-1.609375,0.046875
1696105035247,-0.06347656,-0.9771118,0.21356201,-0.671875,-1.5,-0.21875
1696105035291,-0.064453125,-0.9783325,0.21600342,-0.09375,-1.46875,-0.328125
1696105035322,-0.068847656,-0.98028564,0.21551514,-0.3125,-1.59375,-0.234375
1696105035368,-0.06713867,-0.9829712,0.22406006,-0.046875,-1.703125,0.0
1696105035397,-0.06591797,-0.9788208,0.22235107,-0.296875,-1.796875,-0.28125
1696105035442,-0.06591797,-0.97735596,0.2267456,-0.234375,-1.1875,-0.25
1696105035488,-0.06762695,-0.9841919,0.21966553,-1.1875,-2.015625,-0.0625
1696105035516,-0.06665039,-0.9800415,0.23577881,1.125,-1.03125,-0.015625
1696105035562,-0.06738281,-0.9812622,0.19989014,-2.171875,-2.6875,-0.375
1696105035607,-0.084228516,-0.98565674,0.2399292,-0.09375,-0.984375,-0.5
1696105035636,-0.06640625,-0.9819946,0.22625732,-0.140625,-1.34375,0.015625
1696105035682,-0.06640625,-0.9805298,0.22113037,-0.921875,-1.171875,-0.28125
1696105035757,-0.07324219,-0.9763794,0.2296753,-0.421875,-0.796875,-0.09375
1696105035760,-0.067871094,-0.9717407,0.22625732,-0.65625,-1.375,0.078125
1696105035801,-0.07397461,-0.9846802,0.2333374,-1.03125,-1.03125,-0.109375
1696105035832,-0.06298828,-0.98028564,0.22332764,0.078125,-1.0625,0.109375
1696105035878,-0.07128906,-0.9763794,0.2296753,-0.625,-0.734375,-0.1875
1696105035911,-0.07739258,-0.98443604,0.23016357,-0.40625,-1.046875,-0.109375
1696105035952,-0.06958008,-0.97613525,0.23553467,-0.59375,-0.71875,-0.015625
1696105035997,-0.07397461,-0.9780884,0.22479248,-0.40625,-0.84375,0.0
1696105036027,-0.06958008,-0.9729614,0.22601318,-1.21875,-0.734375,-0.0625
1696105036072,-0.07519531,-0.9837036,0.24359131,1.75,-0.703125,0.28125
1696105036116,-0.068847656,-0.96881104,0.20770264,-2.75,-1.96875,-0.203125
1696105036146,-0.07910156,-0.9824829,0.24285889,0.09375,0.25,-0.375
1696105036193,-0.064453125,-0.97857666,0.22821045,-0.125,-0.671875,0.109375
1696105036238,-0.0690918,-0.98028564,0.22650146,-0.46875,-0.828125,-0.046875
1696105036267,-0.07714844,-0.9788208,0.23846436,0.828125,-0.25,-0.046875
1696105036312,-0.068603516,-0.9849243,0.23968506,-0.140625,-1.015625,0.234375
1696105036343,-0.06567383,-0.972229,0.2243042,-0.265625,-0.578125,0.28125
1696105036387,-0.06933594,-0.9824829,0.23284912,0.1875,-0.828125,0.15625
1696105036432,-0.0625,-0.97979736,0.22503662,0.125,-0.453125,0.484375
1696105036463,-0.07055664,-0.9795532,0.22503662,0.234375,-1.359375,0.0625
1696105036506,-0.07006836,-0.9854126,0.23236084,-0.046875,-1.046875,0.28125
1696105036536,-0.06274414,-0.9846802,0.22357178,0.28125,-0.5625,0.421875
1696105036584,-0.0637207,-0.9741821,0.230896,0.53125,0.1875,-0.046875
1696105036626,-0.06762695,-0.98516846,0.21380615,0.640625,-1.421875,0.671875
1696105036656,-0.06567383,-0.9758911,0.22137451,-1.40625,-0.421875,-0.375
1696105036704,-0.068603516,-0.98809814,0.23773193,0.96875,-0.171875,0.34375
1696105036732,-0.056884766,-0.9859009,0.22064209,0.28125,-0.5625,-0.015625
1696105036777,-0.067871094,-0.9805298,0.22454834,-0.84375,-0.875,-0.09375
1696105036823,-0.06665039,-0.98321533,0.22283936,-0.09375,-0.859375,0.09375
1696105036852,-0.05859375,-0.97857666,0.22650146,-0.59375,-1.265625,0.0625
1696105036898,-0.068603516,-0.9837036,0.22698975,-0.203125,-0.953125,0.015625
1696105036942,-0.05908203,-0.9819946,0.22918701,0.171875,-1.140625,0.046875
1696105036972,-0.06640625,-0.9795532,0.22772217,-0.21875,-0.890625,0.15625
1696105037017,-0.061767578,-0.9776001,0.22381592,0.4375,-1.171875,-0.0625
1696105037047,-0.060791016,-0.98443604,0.23358154,-0.3125,-0.84375,-0.03125
1696105037093,-0.06616211,-0.9793091,0.2218628,-0.9375,-0.953125,0.109375
1696105037137,-0.060058594,-0.9714966,0.23651123,0.546875,-0.59375,-0.390625
1696105037167,-0.05810547,-0.9795532,0.21429443,-0.5625,-2.109375,0.203125
1696105037212,-0.067871094,-0.9763794,0.22283936,-0.90625,-0.46875,-0.265625
1696105037242,-0.0625,-0.9837036,0.23162842,0.734375,-0.546875,0.203125
1696105037287,-0.06225586,-0.97906494,0.2255249,-0.296875,-1.046875,-0.1875
1696105037332,-0.07324219,-0.986145,0.23187256,-0.671875,-1.53125,0.078125
1696105037363,-0.06225586,-0.9763794,0.23114014,-0.453125,-1.03125,0.015625
1696105037406,-0.06225586,-0.9819946,0.21795654,-1.140625,-1.40625,0.046875
1696105037452,-0.071777344,-0.98028564,0.22772217,1.109375,-1.65625,0.1875
1696105037482,-0.064697266,-0.98272705,0.22039795,-0.171875,-0.609375,0.0625
1696105037527,-0.06591797,-0.9793091,0.21990967,-0.609375,-1.125,0.109375
1696105037557,-0.06274414,-0.9849243,0.23260498,-0.625,-1.15625,0.0625
1696105037602,-0.0703125,-0.98565674,0.2399292,-1.578125,-1.75,-0.03125
1696105037646,-0.059326172,-0.9817505,0.22772217,-1.25,-1.1875,0.265625
1696105037677,-0.050048828,-0.97491455,0.23846436,0.34375,-1.84375,-0.140625
1696105037722,-0.06713867,-0.9795532,0.21917725,-0.078125,-2.828125,0.59375
1696105037768,-0.0703125,-0.9829712,0.22869873,-1.09375,-1.015625,-0.46875
1696105037798,-0.061523438,-0.98638916,0.23822021,0.921875,-1.65625,0.125
1696105037842,-0.061523438,-0.9824829,0.21966553,0.328125,-1.765625,0.203125
1696105037872,-0.07446289,-0.9793091,0.23236084,-0.234375,-1.453125,0.203125
1696105037918,-0.064697266,-0.9807739,0.22479248,0.109375,-1.859375,0.453125
1696105037961,-0.06201172,-0.97442627,0.22406006,-0.75,-1.578125,0.375
1696105037993,-0.0625,-0.98028564,0.23358154,0.390625,-2.203125,0.203125
1696105038036,-0.06201172,-0.97735596,0.23040771,0.078125,-1.765625,0.125
1696105038067,-0.068359375,-0.98150635,0.23529053,-0.03125,-1.28125,-0.15625
1696105038113,-0.055664062,-0.9795532,0.22845459,0.75,-2.796875,-0.078125
1696105038157,-0.061767578,-0.97491455,0.22991943,0.421875,-1.234375,0.15625
1696105038187,-0.06201172,-0.9834595,0.21478271,-0.796875,-1.921875,0.015625
1696105038232,-0.06689453,-0.9793091,0.2321167,1.953125,-0.921875,0.046875
1696105038308,-0.05102539,-0.9746704,0.19403076,-0.75,-2.4375,-0.21875
1696105038311,-0.07373047,-0.9758911,0.24090576,0.859375,-1.328125,0.0625
1696105038384,-0.06713867,-0.9846802,0.21624756,-0.140625,-2.5625,0.1875
1696105038397,-0.057373047,-0.9793091,0.21575928,0.21875,-1.46875,0.453125
1696105038429,-0.060546875,-0.9780884,0.22869873,1.09375,-1.15625,0.296875
1696105038472,-0.05419922,-0.97369385,0.21917725,-0.65625,-1.46875,0.3125
1696105038502,-0.06689453,-0.9837036,0.21990967,-1.09375,-1.15625,0.234375
1696105038548,-0.059326172,-0.9800415,0.22503662,-0.59375,-0.84375,0.09375
1696105038578,-0.055908203,-0.97857666,0.21600342,-0.65625,-0.84375,0.1875
1696105038622,-0.06982422,-0.98028564,0.21624756,-0.4375,-0.890625,0.046875
1696105038666,-0.06665039,-0.986145,0.2267456,-1.0,-0.5625,0.09375
1696105038697,-0.059570312,-0.9805298,0.21209717,-0.84375,-1.09375,0.078125
1696105038742,-0.056640625,-0.9837036,0.23260498,0.734375,-0.203125,0.0625
1696105038787,-0.060791016,-0.98931885,0.20599365,-1.0625,-1.4375,0.296875
1696105038818,-0.068115234,-0.97784424,0.2255249,-0.21875,0.796875,-0.5
1696105038863,-0.063964844,-0.9817505,0.23260498,1.640625,-0.484375,0.171875
1696105038892,-0.048339844,-0.9776001,0.22576904,-0.765625,0.078125,-0.046875
1696105038952,-0.07128906,-0.97857666,0.23138428,-0.609375,0.265625,-0.15625
1696105038982,-0.059326172,-0.98443604,0.21942139,-0.765625,-0.46875,0.078125
1696105039013,-0.060546875,-0.97784424,0.22015381,-0.15625,-0.625,-0.109375
1696105039056,-0.056884766,-0.9780884,0.22259521,0.078125,-0.71875,-0.03125
1696105039103,-0.064453125,-0.97662354,0.2218628,-0.28125,-0.5625,0.109375
1696105039134,-0.060546875,-0.9829712,0.21697998,0.453125,-0.875,0.109375
1696105039177,-0.06274414,-0.9793091,0.22088623,0.421875,-0.6875,-0.21875
1696105039208,-0.050048828,-0.9932251,0.22528076,0.671875,-0.28125,0.15625
1696105039252,-0.053955078,-0.97125244,0.22503662,0.34375,0.21875,-0.484375
1696105039298,-0.06225586,-0.9859009,0.21624756,1.21875,-0.859375,0.125
1696105039327,-0.060058594,-0.97857666,0.2098999,-2.3125,-0.140625,-0.484375
1696105039372,-0.064941406,-0.9890747,0.23065186,0.984375,0.03125,-0.140625
1696105039401,-0.05029297,-0.98321533,0.22381592,-0.234375,-0.40625,-0.15625
1696105039446,-0.057373047,-0.9795532,0.21746826,-0.5625,-0.921875,-0.09375
1696105039492,-0.056152344,-0.98809814,0.22283936,0.796875,-0.421875,0.0625
1696105039521,-0.052490234,-0.9776001,0.21820068,0.28125,-0.53125,-0.078125
1696105039568,-0.052490234,-0.9763794,0.2164917,1.03125,0.171875,0.3125
1696105039612,-0.060546875,-0.9834595,0.22601318,0.21875,-0.359375,0.125
1696105039642,-0.05810547,-0.9805298,0.22381592,0.984375,-0.515625,0.09375
1696105039688,-0.052734375,-0.9780884,0.21282959,0.15625,-0.703125,0.0
1696105039717,-0.063964844,-0.9924927,0.22113037,0.109375,-0.28125,-0.171875
1696105039762,-0.048583984,-0.9795532,0.21624756,0.421875,0.03125,-0.203125
1696105039808,-0.06689453,-0.9873657,0.22503662,1.46875,-0.859375,0.15625
1696105039837,-0.059326172,-0.9805298,0.2074585,-1.96875,-0.921875,-0.5
1696105039882,-0.06274414,-0.98443604,0.22503662,-0.9375,-0.453125,-0.40625
1696105039912,-0.049072266,-0.98516846,0.22698975,-0.609375,-1.265625,-0.328125
1696105039959,-0.056884766,-0.9849243,0.21844482,-0.78125,-1.65625,-0.203125
1696105040002,-0.068603516,-0.98321533,0.22235107,0.703125,-2.203125,-0.140625
1696105040032,-0.060058594,-0.9824829,0.22576904,0.25,-3.09375,-0.28125
1696105040076,-0.05834961,-0.9795532,0.21746826,0.3125,-3.921875,0.046875
1696105040122,-0.059814453,-0.986145,0.21795654,1.25,-3.671875,-0.234375
1696105040153,-0.049316406,-0.9793091,0.21331787,0.0,-1.796875,0.015625
1696105040197,-0.068359375,-0.98321533,0.2140503,-1.125,-2.46875,-0.40625
1696105040226,-0.06591797,-0.9841919,0.21551514,0.1875,-3.328125,-0.265625
1696105040273,-0.0637207,-0.97784424,0.21600342,-0.6875,-1.953125,0.15625
1696105040316,-0.0690918,-0.9729614,0.2296753,0.5625,-1.234375,-0.515625
1696105040349,-0.061279297,-0.989563,0.20941162,-0.34375,-3.21875,-0.03125
1696105040393,-0.0715332,-0.97784424,0.20892334,-1.109375,-1.734375,-0.453125
1696105040423,-0.067871094,-0.98809814,0.21966553,1.78125,-2.28125,0.21875
1696105040467,-0.05444336,-0.972229,0.20721436,-0.09375,-0.75,-0.09375
1696105040511,-0.075927734,-0.9859009,0.22796631,-0.84375,-1.34375,-0.359375
1696105040542,-0.064697266,-0.98223877,0.21551514,-1.453125,-2.046875,-0.046875
1696105040587,-0.068603516,-0.97979736,0.2189331,-1.15625,-1.890625,-0.46875
1696105040632,-0.059326172,-0.9841919,0.2218628,-1.578125,-0.96875,-0.65625
1696105040662,-0.0715332,-0.98101807,0.22332764,-2.296875,-1.90625,-0.265625
1696105040708,-0.071777344,-0.9819946,0.22113037,-0.390625,-2.234375,-0.171875
1696105040737,-0.064697266,-0.98150635,0.21502686,-1.046875,-1.859375,0.0
1696105040782,-0.06616211,-0.9866333,0.22528076,-1.296875,-1.0625,-0.28125
1696105040826,-0.061035156,-0.9771118,0.21746826,-1.1875,-1.03125,0.15625
1696105040856,-0.06933594,-0.98223877,0.23529053,0.453125,-0.796875,0.203125
1696105040902,-0.061279297,-0.9651489,0.20037842,-2.4375,-1.1875,-0.125
1696105040946,-0.0769043,-0.98760986,0.24139404,0.265625,-0.59375,0.0
1696105040977,-0.064941406,-0.97979736,0.22796631,-1.03125,-0.84375,0.0
1696105041023,-0.06518555,-0.98223877,0.2267456,-1.046875,-0.65625,-0.109375
1696105041052,-0.07128906,-0.97906494,0.24261475,0.8125,-1.09375,0.140625
1696105041096,-0.06298828,-0.9746704,0.230896,0.0,-1.609375,0.203125
1696105041143,-0.06958008,-0.9741821,0.2255249,-0.984375,-1.234375,0.171875
1696105041171,-0.05859375,-0.9817505,0.22747803,0.015625,-0.890625,0.25
1696105041217,-0.068847656,-0.9751587,0.23040771,-0.375,-0.953125,0.4375
1696105041248,-0.0715332,-0.97491455,0.22137451,-0.765625,-0.828125,0.03125
1696105041292,-0.071777344,-0.97613525,0.23480225,-0.65625,-0.984375,-0.109375
1696105041336,-0.06518555,-0.9834595,0.2189331,-1.375,-0.5625,-0.03125
1696105041367,-0.06665039,-0.9800415,0.23651123,0.421875,-0.03125,-0.296875
1696105041412,-0.072265625,-0.9829712,0.21746826,-0.53125,-1.796875,0.015625
1696105041457,-0.0715332,-0.9807739,0.22796631,-1.5625,0.34375,-0.40625
1696105041487,-0.06323242,-0.98101807,0.22991943,0.46875,-0.390625,0.171875
1696105041532,-0.060546875,-0.9751587,0.22845459,-0.8125,-0.703125,-0.078125
1696105041607,-0.07348633,-0.9768677,0.23382568,-0.6875,-0.765625,0.0625
1696105041608,-0.06713867,-0.9817505,0.23602295,0.03125,-0.609375,0.3125
1696105041652,-0.068847656,-0.98394775,0.22503662,-1.0,-0.90625,0.140625
1696105041682,-0.055664062,-0.98028564,0.23162842,0.375,-0.28125,0.4375
1696105041727,-0.060546875,-0.9805298,0.22918701,0.265625,-0.6875,0.09375
1696105041759,-0.057373047,-0.9841919,0.23162842,0.671875,-0.296875,0.421875
1696105041802,-0.068115234,-0.98150635,0.23187256,0.265625,-0.703125,0.203125
1696105041848,-0.061767578,-0.97125244,0.23260498,0.40625,-0.03125,0.21875
1696105041876,-0.05883789,-0.98516846,0.2218628,0.0625,-0.21875,0.265625
1696105041922,-0.05444336,-0.9793091,0.23846436,1.28125,-0.171875,0.25
1696105041967,-0.06347656,-0.9783325,0.20159912,-0.609375,-1.859375,0.5
1696105041997,-0.06616211,-0.97662354,0.22528076,-0.171875,0.671875,-0.21875
1696105042041,-0.052978516,-0.9883423,0.23724365,0.984375,-0.09375,0.140625
1696105042072,-0.060058594,-0.9807739,0.22991943,-0.140625,-0.078125,0.1875
1696105042116,-0.07470703,-0.97906494,0.22772217,-0.53125,-0.890625,-0.078125
1696105042162,-0.056640625,-0.9771118,0.23822021,0.28125,-0.59375,-0.015625
1696105042192,-0.053222656,-0.9837036,0.22064209,-0.609375,-0.859375,0.125
1696105042236,-0.06640625,-0.98028564,0.22601318,0.265625,-0.671875,0.09375
1696105042281,-0.055419922,-0.98809814,0.2321167,-0.171875,-0.453125,0.09375
1696105042311,-0.064941406,-0.9871216,0.22943115,0.390625,-1.125,-0.171875
1696105042356,-0.06713867,-0.97491455,0.22283936,-0.09375,-1.09375,-0.34375
1696105042387,-0.06201172,-0.9800415,0.23651123,-0.421875,-0.859375,-0.21875
1696105042433,-0.053955078,-0.97784424,0.23699951,-0.234375,-0.9375,-0.453125
1696105042476,-0.061035156,-0.98760986,0.2345581,1.515625,-1.84375,-0.046875
1696105042506,-0.057373047,-0.9690552,0.21136475,-1.96875,-2.453125,-0.140625
1696105042552,-0.06738281,-0.9846802,0.23651123,-0.375,-1.28125,-0.359375
1696105042584,-0.05029297,-0.9800415,0.23358154,-1.015625,-1.609375,-0.15625
1696105042627,-0.06738281,-0.97076416,0.22821045,-1.140625,-2.328125,-0.078125
1696105042672,-0.06347656,-0.9866333,0.23651123,1.59375,-2.84375,0.09375
1696105042702,-0.055664062,-0.9697876,0.2387085,1.734375,-2.859375,0.25
1696105042747,-0.05078125,-0.98150635,0.2243042,0.0,-2.953125,0.015625
1696105042793,-0.07470703,-0.9846802,0.22821045,0.15625,-1.90625,0.046875
1696105042823,-0.06225586,-0.98272705,0.21258545,1.40625,-2.109375,0.1875
1696105042877,-0.06298828,-0.97784424,0.21990967,0.8125,-1.15625,0.25
1696105042897,-0.05444336,-0.9854126,0.2164917,2.84375,0.15625,0.640625
1696105042944,-0.0546875,-0.98028564,0.21502686,2.484375,1.984375,0.6875
1696105042990,-0.068359375,-0.9829712,0.22259521,0.40625,-0.96875,0.34375
1696105043016,-0.059570312,-0.9859009,0.22381592,3.046875,-2.0,0.359375
1696105043063,-0.05053711,-0.9807739,0.19573975,-2.109375,-2.625,0.0
1696105043092,-0.07128906,-0.9902954,0.23187256,0.171875,-0.875,0.015625
1696105043136,-0.05444336,-0.98394775,0.20892334,-0.25,-1.703125,0.171875
1696105043184,-0.057861328,-0.9780884,0.21380615,-0.46875,-1.59375,-0.03125
1696105043212,-0.05444336,-0.98638916,0.22698975,0.203125,-1.015625,-0.296875
1696105043256,-0.05419922,-0.9746704,0.215271,-0.921875,-1.84375,-0.09375
1696105043303,-0.06567383,-0.9837036,0.20819092,-0.34375,-0.875,-0.03125
1696105043335,-0.049072266,-0.98101807,0.20550537,0.484375,-0.265625,-0.140625
1696105043376,-0.05126953,-0.9776001,0.21258545,1.421875,2.15625,0.390625
1696105043407,-0.06689453,-0.9854126,0.20697021,0.328125,-0.25,-0.125
1696105043453,-0.061035156,-0.9829712,0.2086792,0.125,-1.140625,-0.296875
1696105043497,-0.061523438,-0.9763794,0.22137451,-0.21875,-0.046875,-0.015625
1696105043526,-0.057128906,-0.98321533,0.20184326,-2.234375,-1.765625,0.0625
1696105043572,-0.05419922,-0.98760986,0.22528076,0.171875,-1.546875,0.171875
1696105043616,-0.055664062,-0.96954346,0.19354248,-2.78125,-2.984375,-0.078125
1696105043647,-0.06225586,-0.9859009,0.22772217,-0.765625,-0.375,-0.03125
1696105043692,-0.059570312,-0.9800415,0.21209717,-1.1875,-1.625,-0.09375
1696105043722,-0.053466797,-0.98516846,0.2164917,-1.90625,-0.90625,-0.234375
1696105043767,-0.06323242,-0.9763794,0.22625732,-0.421875,-0.265625,-0.140625
1696105043812,-0.057617188,-0.97320557,0.22235107,-0.8125,-1.546875,0.25
1696105043842,-0.07055664,-0.9776001,0.21942139,-1.25,-1.0,-0.296875
1696105043887,-0.060058594,-0.98516846,0.22259521,0.078125,-0.703125,-0.15625
1696105043918,-0.052734375,-0.98150635,0.21453857,-0.140625,-1.046875,-0.109375
1696105043962,-0.06298828,-0.97857666,0.21942139,-0.515625,-0.65625,0.015625
1696105044008,-0.061767578,-0.97857666,0.22113037,-0.0625,-1.296875,-0.125
1696105044036,-0.05810547,-0.9788208,0.22357178,-0.671875,-0.265625,0.078125
1696105044082,-0.061035156,-0.9837036,0.21844482,-0.390625,-0.8125,0.15625
1696105044159,-0.05517578,-0.98565674,0.24066162,1.828125,-0.71875,0.140625
1696105044160,-0.050048828,-0.9788208,0.2062378,-1.546875,-1.875,0.109375
1696105044202,-0.06518555,-0.98150635,0.23236084,-0.046875,0.109375,-0.21875
1696105044232,-0.055908203,-0.9846802,0.23065186,0.6875,-0.78125,0.234375
1696105044278,-0.047607422,-0.98150635,0.22235107,-0.34375,-1.15625,-0.109375
1696105044321,-0.06616211,-0.97613525,0.22381592,0.140625,-1.078125,0.234375
1696105044351,-0.05493164,-0.9805298,0.22821045,0.484375,-1.34375,0.171875
1696105044396,-0.053710938,-0.9807739,0.22113037,-0.53125,-1.328125,0.15625
1696105044427,-0.05419922,-0.9854126,0.22332764,0.421875,-0.984375,0.15625
1696105044473,-0.057617188,-0.9793091,0.22015381,0.0,-0.84375,-0.125
1696105044517,-0.053710938,-0.98321533,0.21868896,0.234375,-0.6875,-0.15625
1696105044551,-0.05908203,-0.98638916,0.21917725,0.359375,-0.75,0.0625
1696105044592,-0.051513672,-0.97540283,0.21844482,0.09375,0.109375,0.0
1696105044638,-0.051513672,-0.9788208,0.21624756,0.046875,0.125,-0.03125
1696105044667,-0.04638672,-0.97662354,0.2255249,1.921875,-0.625,0.015625
1696105044712,-0.052734375,-0.9795532,0.20428467,-1.546875,-1.734375,-0.046875
1696105044741,-0.06689453,-0.9829712,0.23187256,-0.921875,0.015625,-0.359375
1696105044786,-0.050048828,-0.9783325,0.2230835,-0.09375,-0.953125,-0.078125
1696105044832,-0.05444336,-0.97662354,0.20843506,-0.484375,-0.8125,-0.15625
1696105044863,-0.057861328,-0.9812622,0.22039795,0.4375,-1.109375,-0.0625
1696105044908,-0.049804688,-0.98272705,0.22894287,0.0625,-1.265625,-0.09375
1696105044953,-0.055664062,-0.9883423,0.21087646,-0.5,-1.515625,0.125
1696105044982,-0.055664062,-0.98150635,0.21624756,0.296875,-1.34375,-0.0625
1696105045033,-0.05883789,-0.98394775,0.215271,0.046875,-1.078125,0.0625
1696105045056,-0.05859375,-0.9783325,0.22528076,-0.5,-1.90625,-0.140625
1696105045102,-0.05834961,-0.9859009,0.21820068,0.40625,-1.359375,-0.140625
1696105045148,-0.05517578,-0.9873657,0.21697998,0.46875,-0.921875,0.28125
1696105045176,-0.048828125,-0.98101807,0.2189331,-0.40625,-1.078125,-0.265625
1696105045223,-0.05859375,-0.98394775,0.21942139,0.953125,-1.703125,0.28125
1696105045252,-0.057861328,-0.97857666,0.2074585,-2.140625,-2.453125,-0.625
1696105045297,-0.064697266,-0.9859009,0.23040771,0.875,-0.921875,-0.171875
1696105045343,-0.050048828,-0.9817505,0.22088623,-0.734375,-2.359375,-0.34375
1696105045373,-0.059326172,-0.9780884,0.2111206,-0.171875,-1.875,-0.0625
1696105045419,-0.06542969,-0.9883423,0.22723389,0.765625,-2.546875,-0.390625
1696105045464,-0.046142578,-0.97540283,0.215271,-0.578125,-2.46875,-0.546875
1696105045491,-0.0625,-0.98565674,0.22039795,-0.453125,-1.421875,-0.140625
1696105045537,-0.055419922,-0.98638916,0.21844482,-0.84375,-1.796875,-0.296875
1696105045567,-0.05908203,-0.97662354,0.21990967,-0.65625,-2.15625,-0.203125
1696105045612,-0.07128906,-0.9841919,0.2255249,-0.90625,-2.859375,-0.28125
1696105045656,-0.060791016,-0.9805298,0.2255249,-1.5625,-2.65625,-0.34375
1696105045688,-0.059326172,-0.98150635,0.21087646,-1.390625,-2.21875,-0.078125
1696105045732,-0.059326172,-0.9746704,0.2387085,0.296875,-1.40625,-0.15625
1696105045762,-0.064208984,-0.9776001,0.2098999,-1.53125,-2.65625,0.109375
1696105045807,-0.07421875,-0.98101807,0.22357178,-1.0,-1.078125,-0.5625
1696105045852,-0.060546875,-0.98028564,0.23406982,0.46875,-2.53125,0.0625
1696105045883,-0.07788086,-0.98394775,0.2177124,2.359375,-2.09375,0.203125
1696105045926,-0.06591797,-0.9776001,0.23309326,0.765625,-1.0625,0.015625
1696105045973,-0.051513672,-0.97320557,0.21282959,0.21875,-1.96875,0.484375
1696105046002,-0.06738281,-0.98272705,0.21575928,0.015625,-1.40625,0.03125
1696105046048,-0.064697266,-0.9846802,0.2140503,0.25,-0.25,0.375
1696105046080,-0.061523438,-0.97784424,0.21868896,-0.53125,-0.609375,0.09375
1696105046123,-0.060302734,-0.9883423,0.21307373,-0.234375,-1.796875,0.171875
1696105046168,-0.0703125,-0.9819946,0.22796631,-0.375,-1.21875,-0.296875
1696105046202,-0.064208984,-0.98028564,0.20355225,-1.359375,-1.375,-0.03125
1696105046242,-0.05419922,-0.972229,0.23626709,0.109375,-0.328125,-0.25
1696105046272,-0.057128906,-0.98150635,0.2033081,-0.578125,-2.234375,0.125
1696105046316,-0.0703125,-0.9800415,0.22332764,-1.359375,0.15625,-0.4375
1696105046362,-0.072509766,-0.9817505,0.23309326,0.515625,-0.828125,0.109375
1696105046392,-0.057861328,-0.973938,0.22039795,-0.984375,-0.234375,-0.078125
1696105046436,-0.07714844,-0.97613525,0.2321167,-0.484375,-0.046875,-0.1875
1696105046482,-0.061523438,-0.98101807,0.21917725,-0.328125,-0.671875,0.25
1696105046512,-0.059570312,-0.975647,0.22161865,-0.859375,-0.046875,-0.28125
1696105046556,-0.063964844,-0.9824829,0.22723389,-0.109375,0.28125,-0.015625
1696105046587,-0.063964844,-0.9795532,0.23602295,-0.6875,-0.4375,-0.1875
1696105046632,-0.052734375,-0.9783325,0.22698975,-0.296875,0.328125,0.234375
1696105046676,-0.07006836,-0.9807739,0.2345581,-0.078125,0.015625,0.21875
1696105046708,-0.06298828,-0.98809814,0.22161865,-1.046875,-0.765625,0.078125
1696105046752,-0.06201172,-0.97491455,0.23944092,1.21875,0.140625,-0.265625
1696105046796,-0.05517578,-0.9788208,0.2177124,-0.421875,-1.890625,0.21875
1696105046826,-0.06933594,-0.9776001,0.2230835,-0.6875,0.015625,-0.28125
1696105046872,-0.060791016,-0.98516846,0.23260498,0.921875,-0.234375,0.234375
1696105046902,-0.057861328,-0.975647,0.22698975,-0.34375,-0.875,0.125
1696105046946,-0.05834961,-0.9819946,0.22528076,-0.390625,-0.703125,0.0
1696105046992,-0.061767578,-0.9817505,0.22869873,-0.171875,-1.28125,0.234375
1696105047022,-0.055908203,-0.97540283,0.22332764,0.125,-0.703125,0.171875
1696105047067,-0.06518555,-0.98101807,0.22772217,0.234375,-0.515625,0.078125
1696105047096,-0.061523438,-0.9795532,0.21966553,0.21875,-0.59375,0.203125
1696105047144,-0.053955078,-0.9805298,0.215271,0.375,-1.0625,0.15625
1696105047188,-0.06518555,-0.9805298,0.23382568,0.71875,-0.109375,0.046875
1696105047217,-0.060546875,-0.9763794,0.22650146,-1.078125,-0.625,-0.1875
1696105047262,-0.05419922,-0.98687744,0.2321167,1.703125,-0.09375,-0.046875
1696105047306,-0.050048828,-0.97662354,0.20477295,-1.3125,-1.328125,0.09375
1696105047337,-0.060058594,-0.9885864,0.22381592,0.453125,0.765625,-0.375
1696105047382,-0.055419922,-0.9788208,0.22869873,-0.671875,-0.4375,-0.0625
1696105047458,-0.05517578,-0.9873657,0.22259521,0.03125,-1.140625,0.015625
1696105047459,-0.055664062,-0.987854,0.22772217,0.265625,-1.078125,0.0
1696105047502,-0.05493164,-0.9834595,0.22698975,0.140625,-1.578125,-0.21875
1696105047532,-0.05834961,-0.9783325,0.2243042,-0.390625,-1.015625,0.21875
1696105047576,-0.052246094,-0.98272705,0.22747803,0.421875,-1.15625,0.078125
1696105047608,-0.05810547,-0.9824829,0.21990967,-0.015625,-1.078125,0.328125
1696105047653,-0.064208984,-0.9758911,0.22064209,0.296875,-1.21875,0.109375
1696105047697,-0.060546875,-0.9924927,0.22088623,0.40625,-0.578125,0.03125
1696105047727,-0.049316406,-0.97906494,0.22796631,0.390625,-0.40625,-0.625
1696105047772,-0.05444336,-0.99224854,0.21453857,0.96875,-1.59375,0.421875
1696105047819,-0.05493164,-0.97320557,0.22064209,-2.03125,-0.75,-0.625
1696105047847,-0.06201172,-0.9849243,0.23577881,0.046875,-0.484375,-0.203125
1696105047893,-0.05029297,-0.9812622,0.22698975,-0.828125,-1.21875,-0.265625
1696105047922,-0.050048828,-0.9849243,0.22259521,-0.375,-1.59375,-0.171875
1696105047968,-0.063964844,-0.98809814,0.22821045,-0.9375,-1.4375,-0.09375
1696105048012,-0.053466797,-0.97247314,0.22723389,-3.1875,-2.046875,-0.515625
1696105048044,-0.06689453,-0.99713135,0.23724365,1.03125,-3.71875,-0.109375
1696105048088,-0.056396484,-0.9741821,0.2255249,-0.75,-3.390625,-0.234375
1696105048132,-0.05493164,-0.9800415,0.22479248,-0.859375,-1.859375,0.15625
1696105048162,-0.080078125,-0.97540283,0.22991943,0.171875,-1.1875,-0.109375
1696105048207,-0.053955078,-0.9793091,0.23016357,-0.59375,-2.1875,-0.0625
1696105048236,-0.060058594,-0.97857666,0.23675537,1.640625,-2.515625,-0.015625
1696105048282,-0.05883789,-0.97125244,0.20574951,-3.296875,-2.296875,-0.375
1696105048328,-0.08154297,-0.99420166,0.2411499,0.96875,-1.21875,-0.421875
1696105048356,-0.055908203,-0.97540283,0.23699951,0.390625,-2.125,0.21875
1696105048402,-0.052001953,-0.97125244,0.22039795,-0.984375,-1.765625,-0.125
1696105048432,-0.06933594,-0.98687744,0.23675537,1.375,-1.953125,0.1875
1696105048476,-0.07006836,-0.97198486,0.22943115,-0.34375,-1.9375,-0.09375
1696105048522,-0.057617188,-0.9800415,0.23260498,-0.015625,-1.359375,0.359375
1696105048554,-0.057617188,-0.98272705,0.23016357,-0.4375,-1.46875,-0.09375
1696105048596,-0.072753906,-0.9812622,0.2267456,-0.9375,-1.234375,-0.375
1696105048641,-0.07421875,-0.97906494,0.23382568,-0.53125,-1.953125,-0.234375
1696105048673,-0.068603516,-0.97613525,0.23651123,-1.359375,-1.484375,-0.0625
1696105048717,-0.057861328,-0.9768677,0.2411499,0.25,-0.5625,-0.421875
1696105048747,-0.06274414,-0.9734497,0.21234131,-2.890625,-1.984375,-0.140625
1696105048792,-0.07495117,-0.98223877,0.24603271,-0.171875,-0.84375,-0.1875
1696105048837,-0.060791016,-0.9783325,0.2255249,-0.546875,-1.953125,0.15625
1696105048868,-0.060791016,-0.9776001,0.2230835,-0.953125,0.109375,0.09375
1696105048912,-0.07421875,-0.9788208,0.2526245,0.75,-1.3125,-0.078125
1696105048942,-0.059814453,-0.9697876,0.24090576,-0.6875,-1.1875,-0.109375
1696105048992,-0.0715332,-0.9812622,0.24066162,-0.953125,-1.328125,0.015625
1696105049033,-0.057373047,-0.97735596,0.23309326,-0.40625,-0.90625,-0.078125
1696105049063,-0.061035156,-0.9727173,0.23846436,0.078125,-0.609375,0.1875
1696105049109,-0.072509766,-0.9673462,0.23724365,-1.03125,-1.703125,-0.15625
1696105049152,-0.07006836,-0.9841919,0.2345581,-1.0625,-0.734375,-0.03125
1696105049183,-0.057128906,-0.9776001,0.24383545,1.5625,0.015625,-0.1875
1696105049227,-0.061767578,-0.97857666,0.2189331,-0.921875,-2.5,0.171875
1696105049257,-0.072265625,-0.97906494,0.24749756,-0.84375,0.90625,-0.609375
1696105049303,-0.064697266,-0.98028564,0.24481201,1.046875,-0.9375,0.046875
1696105049348,-0.055664062,-0.97540283,0.23773193,0.0,-0.65625,-0.140625
1696105049378,-0.0769043,-0.9776001,0.24066162,-0.671875,-0.875,-0.125
1696105049423,-0.06958008,-0.97613525,0.24481201,0.234375,-0.53125,0.203125
1696105049468,-0.064208984,-0.9783325,0.23236084,-0.203125,-0.265625,0.0
1696105049496,-0.061279297,-0.9741821,0.23406982,0.71875,-0.265625,0.328125
1696105049542,-0.06347656,-0.9763794,0.24212646,0.984375,-0.515625,-0.03125
1696105049571,-0.06274414,-0.97613525,0.22894287,0.96875,-0.421875,0.078125
1696105049617,-0.06933594,-0.9771118,0.2453003,1.40625,-0.4375,0.03125
1696105049663,-0.05859375,-0.9746704,0.23382568,0.40625,-0.703125,0.1875
1696105049693,-0.056640625,-0.9793091,0.24066162,3.09375,-0.828125,0.125
1696105049736,-0.06616211,-0.9849243,0.20281982,-1.65625,-2.390625,-0.109375
1696105049767,-0.06689453,-0.9873657,0.24920654,1.671875,0.125,-0.125
1696105049812,-0.055419922,-0.9807739,0.22943115,0.265625,-0.578125,0.265625
1696105049857,-0.05883789,-0.9834595,0.22772217,-0.375,-0.953125,-0.09375
1696105049887,-0.0637207,-0.97906494,0.22894287,0.796875,-0.28125,0.0625
1696105049934,-0.05810547,-0.97613525,0.22064209,0.0625,-1.46875,-0.21875
1696105049977,-0.057128906,-0.9783325,0.22845459,-0.609375,-0.921875,0.015625
1696105050007,-0.06933594,-0.98638916,0.22357178,0.4375,-0.609375,0.203125
1696105050052,-0.055419922,-0.9829712,0.21844482,0.390625,-0.25,-0.078125
1696105050083,-0.056640625,-0.9800415,0.2243042,-0.453125,-0.953125,-0.078125
1696105050127,-0.061767578,-0.99053955,0.22088623,0.515625,-0.375,0.109375
1696105050172,-0.056884766,-0.9690552,0.22845459,0.546875,0.171875,-0.265625
1696105050204,-0.05883789,-0.98516846,0.21014404,1.015625,-1.515625,0.28125
1696105050247,-0.061767578,-0.9780884,0.20794678,-1.546875,-0.796875,-0.4375
1696105050277,-0.06201172,-0.98687744,0.2321167,0.953125,-0.21875,-0.015625
1696105050322,-0.053710938,-0.9812622,0.21942139,-0.203125,-0.515625,-0.140625
1696105050367,-0.064941406,-0.9885864,0.21209717,-0.46875,-0.921875,0.21875
1696105050397,-0.051757812,-0.98394775,0.21844482,0.734375,-0.6875,-0.140625
1696105050442,-0.052734375,-0.98394775,0.22039795,-0.53125,-0.875,0.15625
1696105050487,-0.05859375,-0.9834595,0.22821045,0.296875,-1.03125,0.171875
1696105050518,-0.059814453,-0.98443604,0.21990967,0.0,-0.953125,0.015625
1696105050562,-0.056640625,-0.98150635,0.21209717,0.25,-0.953125,0.15625
1696105050591,-0.06201172,-0.9841919,0.22406006,-0.03125,-1.59375,-0.421875
1696105050643,-0.06591797,-0.9817505,0.22772217,0.125,-1.421875,0.15625
1696105050682,-0.05859375,-0.972229,0.22381592,-0.171875,-1.4375,0.265625
1696105050711,-0.057617188,-0.9902954,0.23382568,1.625,-2.1875,-0.21875
1696105050758,-0.064453125,-0.9841919,0.19451904,-2.09375,-4.09375,0.078125
1696105050802,-0.06591797,-0.9829712,0.23065186,-0.03125,-1.59375,-0.28125
1696105050832,-0.047607422,-0.9817505,0.22332764,-0.5625,-2.1875,-0.34375
1696105050880,-0.06201172,-0.9854126,0.21356201,0.546875,-3.359375,-0.046875
1696105050906,-0.064208984,-0.9846802,0.22772217,1.671875,-2.375,-0.53125
1696105050953,-0.053466797,-0.9807739,0.21942139,0.15625,-3.015625,-0.46875
1696105050996,-0.06665039,-0.9807739,0.21258545,-0.953125,-2.828125,-0.328125
1696105051027,-0.072753906,-0.9859009,0.22650146,0.234375,-1.4375,-0.375
1696105051072,-0.059326172,-0.9771118,0.2177124,-0.625,-1.0625,0.234375
1696105051102,-0.07299805,-0.973938,0.21331787,-0.0625,-2.1875,0.078125
1696105051147,-0.072509766,-0.9841919,0.21063232,0.453125,-1.296875,0.046875
1696105051194,-0.063964844,-0.9883423,0.21209717,-1.0,-0.5625,0.140625
1696105051222,-0.057617188,-0.97442627,0.23797607,-0.09375,-0.4375,-0.265625
1696105051266,-0.06738281,-0.9932251,0.20111084,0.0625,-2.46875,0.125
1696105051311,-0.07348633,-0.9841919,0.22235107,-2.15625,0.28125,-0.640625
1696105051342,-0.068115234,-0.98565674,0.23724365,-0.96875,-1.328125,-0.203125
1696105051386,-0.05883789,-0.98101807,0.21380615,-1.765625,-1.296875,-0.1875
1696105051417,-0.0703125,-0.9837036,0.23114014,-1.109375,-1.28125,-0.125
1696105051465,-0.064941406,-0.98101807,0.2243042,-1.015625,-1.671875,0.03125
1696105051506,-0.06933594,-0.97735596,0.2189331,-1.203125,-1.265625,-0.21875
1696105051536,-0.060546875,-0.98443604,0.22894287,-0.171875,-1.5,0.15625
1696105051582,-0.05102539,-0.97784424,0.21795654,-0.84375,-0.546875,0.40625
1696105051612,-0.075927734,-0.9751587,0.21795654,0.03125,-0.5,0.140625
