,timestamp,accel_x,accel_y,accel_z,gyro_x,gyro_y,gyro_z,mag_x,mag_y,mag_z,ind
0,1695920112672,0.3173828,0.4091797,-0.07714844,94.53125,69.9375,-26.5,0.0,0.0,0.0,31
1,1695920112712,0.27539062,0.13574219,-0.05859375,-7.9375,132.90625,17.5625,0.0,0.0,0.0,32
2,1695920112752,-0.66308594,0.13574219,0.6982422,-96.4375,73.78125,23.84375,0.0,0.0,0.0,33
3,1695920112792,-1.7822266,-0.30273438,0.28515625,-65.125,-44.28125,-27.90625,0.0,0.0,0.0,34
4,1695920112832,-1.0410156,0.21582031,-0.1640625,-37.90625,-48.78125,-23.4375,0.0,0.0,0.0,35
5,1695920112872,-0.50390625,0.7519531,-1.0224609,-98.28125,92.6875,114.71875,0.0,0.0,0.0,36
6,1695920112912,-2.0,-0.8925781,0.49121094,-12.65625,77.3125,69.1875,-37.0625,21.0625,-112.875,37
7,1695920112952,-1.4550781,0.08886719,-0.115234375,72.0625,113.4375,57.90625,0.0,0.0,0.0,38
8,1695920112992,-0.90234375,0.08984375,0.18164062,-25.40625,87.9375,59.6875,0.0,0.0,0.0,39
9,1695920113032,-0.7919922,0.09375,0.24707031,-19.71875,36.96875,37.03125,0.0,0.0,0.0,40
10,1695920113072,-0.51464844,-0.115234375,0.30566406,-27.84375,-16.6875,33.25,0.0,0.0,0.0,41
11,1695920113112,-0.37109375,-0.24707031,0.38378906,-10.21875,-66.0625,9.5625,0.0,0.0,0.0,42
12,1695920113152,-0.18164062,-0.040039062,-0.07714844,29.53125,-106.65625,-1.25,0.0,0.0,0.0,43
13,1695920113192,-2.0,0.080078125,0.52734375,82.75,-179.15625,-18.3125,0.0,0.0,0.0,44
14,1695920113232,-1.8330078,2.0,0.8857422,-186.84375,-100.96875,-136.3125,0.0,0.0,0.0,45
15,1695920113272,-1.5380859,0.28222656,-0.0009765625,-130.15625,-41.53125,-55.6875,0.0,0.0,0.0,46
16,1695920113312,-1.1953125,-0.6279297,0.09472656,-60.1875,-54.875,-53.71875,0.0,0.0,0.0,47
17,1695920113352,-0.7753906,0.22265625,-0.15917969,169.0,-99.0625,-41.53125,0.0,0.0,0.0,48
18,1695920113392,0.009765625,0.21875,-0.25,198.59375,-2.625,-26.375,-30.3125,19.0625,-107.625,49
19,1695920113432,0.45507812,0.055664062,0.015625,-44.375,186.9375,-6.375,0.0,0.0,0.0,50
20,1695920113472,-0.83984375,0.47265625,0.9033203,-88.03125,92.6875,12.0625,0.0,0.0,0.0,51
21,1695920113512,-0.8261719,-0.45703125,-0.13476562,-10.875,-46.71875,-1.40625,0.0,0.0,0.0,52
22,1695920113552,-2.0,0.95996094,1.0410156,-19.65625,-119.8125,-32.78125,0.0,0.0,0.0,53
23,1695920113592,-0.38964844,0.10839844,-0.6904297,-64.71875,38.0,13.0,0.0,0.0,0.0,54
24,1695920113632,-2.0,-1.0947266,-0.734375,-7.65625,85.8125,74.3125,0.0,0.0,0.0,55
25,1695920113672,-1.6826172,0.5126953,-0.11328125,141.78125,102.53125,56.6875,0.0,0.0,0.0,56
26,1695920113712,-1.203125,0.5058594,0.26757812,-27.90625,122.375,42.15625,0.0,0.0,0.0,57
27,1695920113752,-1.0185547,-0.20507812,0.17675781,-30.90625,57.90625,67.78125,0.0,0.0,0.0,58
28,1695920113792,-0.671875,-0.24023438,0.22167969,-32.78125,-6.4375,32.53125,0.0,0.0,0.0,59
29,1695920113832,-0.37402344,-0.2734375,0.28808594,-4.90625,-63.4375,11.15625,0.0,0.0,0.0,60
30,1695920113872,-0.13964844,-0.28222656,0.13085938,14.75,-90.65625,-24.75,0.0,0.0,0.0,61
31,1695920113912,-0.8935547,-0.056640625,0.0390625,55.71875,-126.71875,-40.0625,-37.625,27.0625,-118.375,62
32,1695920113952,-2.0,0.80371094,0.19335938,129.5,-151.125,-86.5625,0.0,0.0,0.0,63
33,1695920113992,-2.0,0.81640625,0.119140625,-66.90625,-105.84375,-56.21875,0.0,0.0,0.0,64
34,1695920114032,-1.2119141,-0.22753906,0.31933594,-94.125,-50.78125,-57.625,0.0,0.0,0.0,65
35,1695920114072,-1.0849609,-0.1484375,-0.41601562,93.625,-34.125,-66.25,0.0,0.0,0.0,66
36,1695920114112,-0.22363281,0.2265625,-0.13378906,174.125,-51.78125,-7.21875,0.0,0.0,0.0,67
37,1695920114152,0.47265625,0.19824219,-0.37695312,50.21875,143.21875,18.84375,0.0,0.0,0.0,68
38,1695920114192,-0.095703125,0.37109375,0.48046875,-109.5625,131.03125,24.03125,0.0,0.0,0.0,69
39,1695920114232,-1.2382812,-0.45117188,0.48242188,-103.53125,41.0,27.75,0.0,0.0,0.0,70
40,1695920114272,-2.0,0.40039062,0.19433594,-84.25,-79.65625,-59.21875,0.0,0.0,0.0,71
41,1695920114312,0.8027344,0.63378906,-0.46484375,-57.21875,-3.875,-25.34375,0.0,0.0,0.0,72
42,1695920114352,-2.0,0.17578125,-1.0371094,-54.15625,119.625,93.84375,0.0,0.0,0.0,73
43,1695920114392,-1.3701172,0.4375,0.07128906,93.25,89.59375,49.0,-36.625,19.5625,-114.1875,74
44,1695920114432,-1.2226562,0.36816406,0.20605469,56.25,113.5,55.96875,0.0,0.0,0.0,75
45,1695920114472,-1.2392578,-0.21582031,0.07910156,-18.25,72.3125,70.34375,0.0,0.0,0.0,76
46,1695920114512,-0.6640625,-0.2578125,0.24414062,-26.1875,-7.8125,34.65625,0.0,0.0,0.0,77
47,1695920114552,-0.50683594,-0.33496094,0.31054688,16.9375,-58.0625,10.71875,0.0,0.0,0.0,78
48,1695920114592,-0.2763672,-0.17871094,0.16503906,19.15625,-92.78125,-38.28125,0.0,0.0,0.0,79
49,1695920114632,-0.6015625,-0.0625,-0.10058594,51.8125,-124.84375,-40.71875,0.0,0.0,0.0,80
50,1695920114672,-2.0,-0.0234375,-0.030273438,160.03125,-162.78125,-90.34375,0.0,0.0,0.0,81
51,1695920114712,-2.0,1.1269531,0.171875,-130.8125,-141.8125,-49.6875,0.0,0.0,0.0,82
52,1695920114752,-1.4970703,-0.018554688,0.52246094,-101.46875,-24.375,-66.1875,0.0,0.0,0.0,83
53,1695920114792,-1.0273438,-0.57421875,-0.119140625,99.96875,-29.8125,-98.96875,0.0,0.0,0.0,84
54,1695920114832,-0.2919922,0.19140625,-0.3984375,200.90625,-31.25,-30.40625,0.0,0.0,0.0,85
55,1695920114872,0.43066406,0.38671875,-0.14257812,142.25,105.8125,26.34375,0.0,0.0,0.0,86
56,1695920114912,-0.06640625,0.32714844,0.22949219,-108.09375,142.5625,12.75,-31.625,26.3125,-109.375,87
57,1695920114952,-0.70410156,0.21582031,0.5654297,-108.46875,87.5625,10.46875,0.0,0.0,0.0,88
58,1695920114992,-2.0,-0.17382812,0.45703125,-84.5,-70.8125,-78.09375,0.0,0.0,0.0,89
59,1695920115032,-0.22265625,0.48828125,0.375,-83.9375,-21.0,-26.5625,0.0,0.0,0.0,90
60,1695920115072,-1.3291016,0.4033203,-1.0302734,-93.9375,161.59375,133.59375,0.0,0.0,0.0,91
61,1695920115112,-1.5361328,-0.3798828,0.6748047,-68.8125,131.6875,64.5625,0.0,0.0,0.0,92
62,1695920115152,-1.3515625,0.4638672,0.4375,58.6875,94.90625,58.875,0.0,0.0,0.0,93
63,1695920115192,-1.2412109,-0.25,0.19238281,-14.0625,50.21875,60.84375,0.0,0.0,0.0,94
64,1695920115232,-0.52441406,-0.26757812,0.2685547,0.40625,-23.5625,18.53125,0.0,0.0,0.0,95
65,1695920115272,-0.32421875,-0.31933594,0.15039062,40.28125,-27.1875,10.0625,0.0,0.0,0.0,96
66,1695920115312,-0.31640625,0.044921875,0.07714844,52.40625,-51.09375,-1.78125,0.0,0.0,0.0,97
67,1695920115352,-1.1904297,0.21191406,0.1953125,67.0625,-90.71875,-22.40625,0.0,0.0,0.0,98
68,1695920115392,-2.0,1.0966797,0.39648438,-3.5625,-108.65625,-63.0,-37.8125,29.4375,-119.3125,99
69,1695920115432,-2.0,0.72753906,0.08886719,-80.40625,-95.65625,-56.90625,0.0,0.0,0.0,100
70,1695920115472,-1.2177734,-0.3857422,0.072265625,-104.9375,-92.46875,-50.0625,0.0,0.0,0.0,101
71,1695920115512,-1.0048828,-0.15429688,0.0390625,84.59375,-85.84375,-60.0625,0.0,0.0,0.0,102
72,1695920115552,-0.2919922,-0.095703125,-0.23144531,154.65625,-40.40625,-44.625,0.0,0.0,0.0,103
73,1695920115592,0.50878906,0.10546875,-0.27539062,72.1875,127.71875,-8.9375,0.0,0.0,0.0,104
74,1695920115632,-0.033203125,0.4970703,0.7402344,-45.78125,97.40625,13.84375,0.0,0.0,0.0,105
75,1695920115672,-1.3447266,-0.7861328,0.36132812,-79.84375,-5.3125,16.15625,0.0,0.0,0.0,106
76,1695920115712,-1.6396484,0.4033203,-0.65234375,-36.9375,-37.0,-68.0625,0.0,0.0,0.0,107
77,1695920115752,0.28027344,1.1191406,-1.3857422,-78.75,125.65625,81.90625,0.0,0.0,0.0,108
78,1695920115792,-2.0,-1.4648438,0.046875,10.1875,51.0625,108.9375,0.0,0.0,0.0,109
79,1695920115832,-1.5566406,0.34179688,-0.18945312,143.28125,73.21875,75.84375,0.0,0.0,0.0,110
80,1695920115872,-1.0322266,0.23925781,0.3857422,-31.15625,106.84375,66.625,0.0,0.0,0.0,111
81,1695920115912,-0.91503906,-0.23242188,0.1171875,-28.65625,55.40625,50.03125,-39.0,29.75,-120.625,112
82,1695920115952,-0.46289062,-0.17773438,0.296875,-15.34375,-11.125,31.78125,0.0,0.0,0.0,113
83,1695920115992,-0.31445312,-0.10839844,0.30566406,-6.96875,-53.65625,5.40625,0.0,0.0,0.0,114
84,1695920116032,-0.1640625,-0.14355469,-0.053710938,30.25,-87.78125,-23.875,0.0,0.0,0.0,115
85,1695920116072,-1.3417969,-0.140625,0.203125,75.125,-123.0,-20.09375,0.0,0.0,0.0,116
86,1695920116112,-2.0,2.0,0.7158203,-35.34375,-138.6875,-126.78125,0.0,0.0,0.0,117
87,1695920116152,-2.0,0.7578125,0.14160156,-116.40625,-124.34375,-49.6875,0.0,0.0,0.0,118
88,1695920116192,-1.0429688,-0.18554688,0.47460938,-178.375,-57.09375,-85.15625,0.0,0.0,0.0,119
89,1695920116232,-1.3876953,-0.5449219,-0.4658203,82.1875,-14.96875,-91.09375,0.0,0.0,0.0,120
90,1695920116272,-0.31445312,0.28027344,-0.53808594,234.375,-47.4375,-46.71875,0.0,0.0,0.0,121
91,1695920116312,0.78222656,0.24511719,-0.119140625,54.78125,136.21875,10.59375,0.0,0.0,0.0,122
92,1695920116352,-0.13964844,0.19628906,0.4501953,-67.875,132.25,26.34375,0.0,0.0,0.0,123
93,1695920116392,-1.2773438,-0.53808594,0.2734375,-45.71875,48.4375,25.625,-34.8125,23.4375,-112.5625,124
94,1695920116432,-2.0,0.62402344,0.9580078,-6.59375,-57.15625,-77.46875,0.0,0.0,0.0,125
95,1695920116472,-0.40527344,-0.0029296875,0.043945312,-70.09375,9.09375,-27.34375,0.0,0.0,0.0,126
96,1695920116512,-1.0546875,0.6699219,-0.8671875,-98.53125,129.1875,124.4375,0.0,0.0,0.0,127
97,1695920116552,-1.4052734,-0.4560547,0.6455078,-23.40625,78.90625,73.15625,0.0,0.0,0.0,128
98,1695920116592,-1.4091797,0.32128906,0.20800781,56.25,120.90625,58.15625,0.0,0.0,0.0,129
99,1695920116632,-0.98046875,-0.119140625,0.0,-50.25,96.1875,73.15625,0.0,0.0,0.0,130
100,1695920116672,-0.6845703,-0.24316406,0.25390625,-16.125,42.84375,49.59375,0.0,0.0,0.0,131
101,1695920116712,-0.4501953,-0.02734375,0.33984375,-20.40625,-16.0,25.625,0.0,0.0,0.0,132
102,1695920116752,-0.26367188,-0.25195312,0.33203125,-3.8125,-63.90625,-4.40625,0.0,0.0,0.0,133
103,1695920116792,-1.0761719,-0.41503906,0.041992188,51.25,-108.65625,-29.0,0.0,0.0,0.0,134
104,1695920116832,-2.0,0.9716797,-0.0107421875,33.375,-122.875,-97.5,0.0,0.0,0.0,135
105,1695920116872,-2.0,0.4638672,0.2734375,-43.84375,-118.25,-79.46875,0.0,0.0,0.0,136
106,1695920116912,-1.2802734,-0.059570312,0.2841797,-90.59375,-80.15625,-65.03125,-33.875,25.5625,-110.0,137
107,1695920116952,-1.2753906,-0.13574219,-0.3779297,109.40625,-62.75,-63.0,0.0,0.0,0.0,138
108,1695920116992,-0.2919922,-0.055664062,-0.13476562,145.5,-49.15625,-51.59375,0.0,0.0,0.0,139
109,1695920117032,0.40039062,0.25683594,-0.25097656,89.65625,102.40625,-19.1875,0.0,0.0,0.0,140
110,1695920117072,0.0703125,0.4326172,0.072265625,9.6875,141.09375,22.5625,0.0,0.0,0.0,141
111,1695920117112,-0.8564453,-0.06738281,0.7314453,-75.28125,76.03125,35.15625,0.0,0.0,0.0,142
112,1695920117152,-2.0,-0.053710938,-0.19921875,-62.5,-114.53125,-73.8125,0.0,0.0,0.0,143
113,1695920117192,0.16601562,0.3720703,-0.3359375,-47.375,-4.78125,-40.84375,0.0,0.0,0.0,144
114,1695920117232,-2.0,0.703125,-0.88964844,-98.09375,160.15625,107.53125,0.0,0.0,0.0,145
115,1695920117272,-1.4921875,0.2919922,0.140625,62.53125,75.53125,68.90625,0.0,0.0,0.0,146
116,1695920117312,-1.3505859,0.25,0.20214844,54.78125,105.8125,71.15625,0.0,0.0,0.0,147
117,1695920117352,-1.0214844,-0.0146484375,-0.028320312,-57.4375,76.8125,61.625,0.0,0.0,0.0,148
118,1695920117392,-0.68359375,-0.18359375,0.16503906,-28.21875,31.25,44.59375,-38.6875,28.8125,-121.125,149
119,1695920117432,-0.47753906,-0.3125,0.29296875,-11.0,-39.03125,26.59375,0.0,0.0,0.0,150
120,1695920117472,-0.2861328,-0.28808594,0.27441406,-5.15625,-73.125,-5.21875,0.0,0.0,0.0,151
121,1695920117512,-0.66796875,-0.07519531,0.022460938,58.09375,-108.84375,-19.90625,0.0,0.0,0.0,152
122,1695920117552,-2.0,0.16113281,0.015625,87.4375,-137.53125,-77.21875,0.0,0.0,0.0,153
123,1695920117592,-2.0,0.7324219,0.5419922,-107.125,-144.3125,-82.84375,0.0,0.0,0.0,154
124,1695920117632,-1.5263672,0.09472656,0.33984375,-150.96875,-59.03125,-53.0625,0.0,0.0,0.0,155
125,1695920117672,-1.4169922,-0.6826172,-0.08984375,53.28125,-42.0,-83.375,0.0,0.0,0.0,156
126,1695920117712,-0.5527344,0.13085938,-0.08300781,150.125,-30.90625,-49.6875,0.0,0.0,0.0,157
127,1695920117752,0.26660156,0.23730469,-0.125,167.15625,44.0,-22.53125,0.0,0.0,0.0,158
128,1695920117792,0.39453125,0.26757812,-0.09472656,-33.03125,172.53125,13.28125,0.0,0.0,0.0,159
129,1695920117832,-0.5683594,0.16894531,0.6982422,-50.75,96.3125,23.84375,0.0,0.0,0.0,160
130,1695920117872,-1.5283203,-0.5625,0.46289062,-39.625,-78.4375,-11.25,0.0,0.0,0.0,161
131,1695920117912,-2.0,-0.20410156,-0.5800781,-6.71875,-66.375,-46.9375,-35.25,23.875,-111.8125,162
132,1695920117952,-0.0009765625,0.9951172,-1.1201172,-106.46875,93.96875,92.28125,0.0,0.0,0.0,163
133,1695920117992,-2.0,-1.1054688,0.31933594,41.84375,-6.5,90.4375,0.0,0.0,0.0,164
134,1695920118032,-1.3457031,0.21386719,0.0546875,42.03125,66.9375,55.09375,0.0,0.0,0.0,165
135,1695920118072,-0.890625,0.09472656,0.19042969,-27.40625,80.6875,47.46875,0.0,0.0,0.0,166
136,1695920118112,-0.8339844,-0.45898438,0.038085938,-3.90625,67.0,55.90625,0.0,0.0,0.0,167
137,1695920118152,-0.60546875,-0.123046875,0.15332031,13.03125,30.6875,46.6875,0.0,0.0,0.0,168
138,1695920118192,-0.53222656,-0.087890625,0.328125,2.4375,-11.0,12.625,0.0,0.0,0.0,169
139,1695920118232,-0.3251953,-0.13867188,0.16503906,13.21875,-64.46875,-16.125,0.0,0.0,0.0,170
140,1695920118272,-1.8427734,-0.20996094,0.16796875,118.625,-112.75,-46.21875,0.0,0.0,0.0,171
141,1695920118312,-1.7646484,1.5498047,0.23339844,-43.46875,-110.25,-74.84375,0.0,0.0,0.0,172
142,1695920118352,-1.9238281,0.5449219,0.064453125,-95.0,-118.96875,-61.78125,0.0,0.0,0.0,173
143,1695920118392,-1.1914062,-0.3564453,0.11328125,-106.21875,-90.65625,-47.875,-33.625,25.8125,-110.0,174
144,1695920118432,-1.1933594,-0.27929688,-0.12402344,86.59375,-49.75,-61.53125,0.0,0.0,0.0,175
145,1695920118472,-0.21777344,0.0107421875,-0.22265625,201.8125,-58.96875,-45.59375,0.0,0.0,0.0,176
146,1695920118512,0.42871094,0.3544922,-0.15332031,62.78125,104.21875,-2.8125,0.0,0.0,0.0,177
147,1695920118552,-0.07128906,0.48046875,0.23339844,-60.875,163.125,43.625,0.0,0.0,0.0,178
148,1695920118592,-1.0087891,-0.064453125,0.3076172,-109.6875,60.28125,52.90625,0.0,0.0,0.0,179
149,1695920118632,-2.0,-0.0625,-0.53125,-103.28125,-54.15625,-76.4375,0.0,0.0,0.0,180
150,1695920118672,0.23925781,0.32421875,-1.2109375,-100.84375,29.40625,-17.78125,0.0,0.0,0.0,181
151,1695920118712,-2.0,-0.77734375,-0.6269531,39.59375,77.9375,77.75,0.0,0.0,0.0,182
152,1695920118752,-1.3291016,0.7949219,-0.103515625,64.1875,102.9375,42.96875,0.0,0.0,0.0,183
153,1695920118792,-1.25,0.46289062,0.16503906,-22.46875,110.21875,71.8125,0.0,0.0,0.0,184
154,1695920118832,-1.0019531,-0.3642578,-0.0126953125,-34.6875,62.90625,64.875,0.0,0.0,0.0,185
155,1695920118872,-0.66015625,-0.3408203,0.20117188,-1.90625,8.96875,34.53125,0.0,0.0,0.0,186
156,1695920118912,-0.41210938,-0.1015625,0.33984375,4.5,-25.21875,6.03125,-38.25,32.5625,-120.9375,187
157,1695920118952,-0.26464844,-0.055664062,0.24707031,14.09375,-69.15625,-11.84375,0.0,0.0,0.0,188
158,1695920118992,-1.0107422,-0.265625,-0.13183594,75.65625,-123.4375,-19.65625,0.0,0.0,0.0,189
159,1695920119032,-2.0,1.1240234,0.16015625,71.09375,-129.46875,-82.65625,0.0,0.0,0.0,190
160,1695920119072,-2.0,0.47558594,0.22851562,-64.21875,-129.09375,-55.1875,0.0,0.0,0.0,191
161,1695920119112,-1.1962891,0.19042969,0.43164062,-103.84375,-69.03125,-73.9375,0.0,0.0,0.0,192
162,1695920119152,-1.3242188,-0.24707031,-0.23828125,45.75,-0.3125,-72.28125,0.0,0.0,0.0,193
163,1695920119192,-0.69628906,-0.041992188,-0.22167969,151.0,-38.96875,-59.71875,0.0,0.0,0.0,194
164,1695920119232,0.44140625,0.26171875,-0.16113281,138.96875,82.875,-36.21875,0.0,0.0,0.0,195
165,1695920119272,0.16894531,0.5996094,0.24121094,-36.6875,142.9375,14.75,0.0,0.0,0.0,196
166,1695920119312,-0.78222656,0.2998047,0.46875,-76.1875,89.21875,56.5,0.0,0.0,0.0,197
167,1695920119352,-1.4951172,-0.6191406,0.19335938,-21.625,-91.75,-7.78125,0.0,0.0,0.0,198
168,1695920119392,-1.1796875,0.203125,-0.18261719,-82.59375,-16.75,-63.8125,-35.25,26.3125,-113.875,199
169,1695920119432,-0.18847656,0.9628906,-1.0751953,-82.59375,108.03125,104.21875,0.0,0.0,0.0,200
170,1695920119472,-2.0,-1.2382812,0.8408203,-33.71875,25.6875,99.65625,0.0,0.0,0.0,201
171,1695920119512,-1.3710938,0.17675781,-0.12890625,84.15625,97.09375,54.5,0.0,0.0,0.0,202
172,1695920119552,-1.1708984,0.18261719,0.30371094,-73.5625,84.59375,64.1875,0.0,0.0,0.0,203
173,1695920119592,-0.93652344,-0.3828125,0.20996094,-22.46875,29.34375,61.4375,0.0,0.0,0.0,204
174,1695920119632,-0.5917969,-0.24121094,0.17773438,-0.6875,-10.15625,37.53125,0.0,0.0,0.0,205
175,1695920119672,-0.2841797,-0.29101562,0.21875,5.96875,-47.3125,11.40625,0.0,0.0,0.0,206
176,1695920119712,-0.32617188,-0.1484375,0.10644531,27.34375,-78.03125,-19.71875,0.0,0.0,0.0,207
177,1695920119752,-1.7744141,-0.013671875,-0.18652344,117.1875,-69.71875,-75.5625,0.0,0.0,0.0,208
178,1695920119792,-1.8925781,1.1914062,0.33984375,8.21875,-116.78125,-61.1875,0.0,0.0,0.0,209
179,1695920119832,-2.0,0.6171875,0.08496094,-31.5625,-103.96875,-60.5,0.0,0.0,0.0,210
180,1695920119872,-1.2519531,-0.115234375,-0.047851562,-57.375,-92.65625,-40.46875,0.0,0.0,0.0,211
181,1695920119912,-0.9746094,-0.18066406,0.12988281,51.0625,-57.375,-76.8125,-30.3125,27.9375,-108.625,212
182,1695920119952,-0.020507812,0.01171875,-0.15429688,111.6875,-10.875,-50.25,0.0,0.0,0.0,213
183,1695920119992,0.59277344,0.1640625,-0.515625,80.5,157.8125,-1.53125,0.0,0.0,0.0,214
184,1695920120032,-0.025390625,0.5214844,0.86035156,-96.6875,117.59375,21.78125,0.0,0.0,0.0,215
185,1695920120072,-1.5058594,-0.6455078,0.2109375,-91.4375,-22.78125,18.65625,0.0,0.0,0.0,216
186,1695920120112,-2.0,0.6689453,-0.20703125,-57.375,-8.6875,-40.59375,0.0,0.0,0.0,217
187,1695920120152,0.14746094,0.4296875,-0.91796875,-74.125,42.53125,46.4375,0.0,0.0,0.0,218
188,1695920120192,-2.0,-0.49316406,-0.3203125,59.8125,47.53125,94.03125,0.0,0.0,0.0,219
189,1695920120232,-1.3984375,0.0126953125,-0.12597656,29.90625,113.875,55.15625,0.0,0.0,0.0,220
190,1695920120272,-1.171875,0.2529297,0.3564453,-49.09375,83.90625,51.875,0.0,0.0,0.0,221
191,1695920120312,-1.0390625,-0.28222656,0.16503906,-19.125,33.6875,64.75,0.0,0.0,0.0,222
192,1695920120352,-0.56933594,-0.26953125,0.31347656,-13.6875,-32.375,29.78125,0.0,0.0,0.0,223
193,1695920120392,-0.4091797,-0.20019531,0.29296875,2.4375,-68.875,-4.03125,-37.375,34.5625,-121.875,224
194,1695920120432,-0.2109375,-0.107421875,-0.0087890625,15.90625,-85.59375,-26.0625,0.0,0.0,0.0,225
195,1695920120472,-2.0,-0.5205078,-0.36621094,136.09375,-91.9375,-86.75,0.0,0.0,0.0,226
196,1695920120512,-1.7871094,1.3789062,0.44921875,-69.96875,-123.0,-74.28125,0.0,0.0,0.0,227
197,1695920120552,-1.8701172,0.7636719,0.29296875,-129.21875,-56.09375,-66.40625,0.0,0.0,0.0,228
198,1695920120592,-1.2294922,-0.27148438,0.025390625,-28.9375,-60.125,-64.09375,0.0,0.0,0.0,229
199,1695920120632,-0.70410156,-0.00390625,0.19042969,142.5625,-109.09375,-32.5,0.0,0.0,0.0,230
200,1695920120672,-0.14355469,0.080078125,-0.057617188,126.03125,-9.40625,-22.59375,0.0,0.0,0.0,231
201,1695920120712,0.49902344,0.23925781,-0.3984375,33.4375,152.75,2.0,0.0,0.0,0.0,232
202,1695920120752,-0.3251953,0.36523438,0.5732422,-68.375,140.625,25.6875,0.0,0.0,0.0,233
203,1695920120792,-1.1552734,-0.8017578,0.13671875,-82.46875,-12.03125,-8.875,0.0,0.0,0.0,234
204,1695920120832,-2.0,0.6669922,-0.94628906,-71.3125,8.15625,-77.15625,0.0,0.0,0.0,235
205,1695920120872,0.20019531,1.0615234,-0.9589844,-29.9375,45.34375,14.625,-34.625,22.6875,-111.0625,236
206,1695920120912,-2.0,-0.9892578,-0.234375,56.6875,38.125,105.03125,0.0,0.0,0.0,237
207,1695920120952,-1.4042969,0.20605469,-0.26464844,75.5,95.125,47.65625,0.0,0.0,0.0,238
208,1695920120992,-1.2119141,0.29589844,0.47851562,-53.3125,103.25,72.375,0.0,0.0,0.0,239
209,1695920121032,-1.140625,-0.359375,0.20800781,-21.8125,31.84375,72.0,0.0,0.0,0.0,240
210,1695920121072,-0.6044922,-0.33691406,0.2763672,-5.5,-42.1875,35.625,0.0,0.0,0.0,241
211,1695920121112,-0.32910156,-0.31640625,0.18847656,14.9375,-66.125,2.4375,0.0,0.0,0.0,242
212,1695920121152,-0.47753906,-0.12207031,0.036132812,40.15625,-77.21875,-24.90625,0.0,0.0,0.0,243
213,1695920121192,-1.6142578,-0.021484375,-0.09667969,113.6875,-98.34375,-49.28125,0.0,0.0,0.0,244
214,1695920121232,-1.8359375,1.1542969,0.48242188,-51.96875,-133.875,-67.15625,0.0,0.0,0.0,245
215,1695920121272,-2.0,0.6201172,0.07714844,-90.96875,-104.1875,-59.15625,0.0,0.0,0.0,246
216,1695920121312,-1.2490234,-0.22949219,0.056640625,14.75,-55.3125,-66.375,0.0,0.0,0.0,247
217,1695920121352,-0.85839844,-0.07128906,0.15234375,97.46875,-33.78125,-77.78125,0.0,0.0,0.0,248
218,1695920121392,-0.005859375,-0.07421875,-0.32617188,151.28125,48.375,-51.46875,-31.0625,27.1875,-105.8125,249
219,1695920121432,0.4169922,0.44140625,-0.12011719,13.03125,127.1875,5.21875,0.0,0.0,0.0,250
220,1695920121472,-0.23535156,0.41796875,0.66015625,-30.59375,79.15625,17.1875,0.0,0.0,0.0,251
221,1695920121512,-0.8847656,-0.6640625,0.083984375,-39.1875,-15.46875,36.59375,0.0,0.0,0.0,252
222,1695920121552,-2.0,1.1220703,0.13183594,-2.625,-69.34375,-36.21875,0.0,0.0,0.0,253
223,1695920121592,0.4267578,0.53125,-0.15039062,-32.59375,-4.46875,-62.5,0.0,0.0,0.0,254
224,1695920121632,-1.8583984,0.69433594,-0.4736328,-84.5,162.8125,119.75,0.0,0.0,0.0,255
225,1695920121672,-1.3320312,-0.40722656,0.18359375,14.21875,68.59375,82.625,0.0,0.0,0.0,256
226,1695920121712,-1.4082031,0.20117188,0.12011719,18.65625,133.65625,45.625,0.0,0.0,0.0,257
227,1695920121752,-1.0107422,-0.09472656,0.091796875,-46.09375,92.5625,68.53125,0.0,0.0,0.0,258
228,1695920121792,-0.8359375,-0.38085938,0.15820312,-1.65625,24.9375,72.75,0.0,0.0,0.0,259
229,1695920121832,-0.6044922,-0.23828125,0.28027344,-8.25,-31.8125,11.28125,0.0,0.0,0.0,260
230,1695920121872,-0.27148438,-0.21191406,0.24804688,20.25,-63.375,-23.625,-36.125,36.5,-122.0,261
231,1695920121912,-0.81640625,-0.17382812,0.048828125,66.15625,-94.8125,-35.53125,0.0,0.0,0.0,262
232,1695920121952,-2.0,0.8261719,0.0068359375,87.3125,-121.21875,-62.5,0.0,0.0,0.0,263
233,1695920121992,-2.0,0.47753906,0.38671875,-47.9375,-131.3125,-39.4375,0.0,0.0,0.0,264
234,1695920122032,-1.4824219,0.072265625,0.20800781,-102.75,-82.21875,-57.875,0.0,0.0,0.0,265
235,1695920122072,-1.1171875,-0.24707031,-0.27148438,25.375,-14.0625,-82.53125,0.0,0.0,0.0,266
236,1695920122112,-0.6953125,0.0859375,0.029296875,141.59375,-51.78125,-62.40625,0.0,0.0,0.0,267
237,1695920122152,0.18066406,0.2607422,-0.0126953125,128.21875,45.75,-30.78125,0.0,0.0,0.0,268
238,1695920122192,0.095703125,0.2763672,-0.12695312,-54.28125,151.21875,12.75,0.0,0.0,0.0,269
239,1695920122232,-0.3544922,0.4482422,0.3095703,-119.8125,85.8125,30.0625,0.0,0.0,0.0,270
240,1695920122272,-0.42578125,-0.34472656,0.10449219,-98.40625,-31.21875,1.5625,0.0,0.0,0.0,271
241,1695920122312,-2.0,-0.044921875,-0.86621094,-136.3125,-20.46875,-77.40625,0.0,0.0,0.0,272
242,1695920122352,0.41503906,0.6464844,-0.4892578,-63.90625,64.875,33.4375,0.0,0.0,0.0,273
243,1695920122392,-2.0,-1.0244141,-0.07519531,39.84375,48.15625,85.0,-37.625,25.6875,-116.3125,274
244,1695920122432,-1.2568359,0.38378906,-0.3466797,91.34375,123.15625,68.03125,0.0,0.0,0.0,275
245,1695920122472,-1.3964844,0.28515625,0.4560547,-99.125,103.6875,67.1875,0.0,0.0,0.0,276
246,1695920122512,-0.9238281,-0.39746094,0.12890625,-66.125,22.5625,60.15625,0.0,0.0,0.0,277
247,1695920122552,-0.60546875,-0.31445312,0.18164062,-34.5,-39.5,27.875,0.0,0.0,0.0,278
248,1695920122592,-0.2705078,-0.26660156,0.25097656,22.1875,-70.9375,-7.8125,0.0,0.0,0.0,279
249,1695920122632,-0.25390625,-0.044921875,0.14746094,39.90625,-97.25,-25.03125,0.0,0.0,0.0,280
250,1695920122672,-1.6894531,-0.055664062,-0.3154297,108.4375,-80.71875,-56.90625,0.0,0.0,0.0,281
251,1695920122712,-1.8701172,1.1025391,0.5732422,-90.09375,-109.09375,-69.84375,0.0,0.0,0.0,282
252,1695920122752,-1.9423828,0.4638672,0.005859375,-52.375,-48.90625,-86.0,0.0,0.0,0.0,283
253,1695920122792,-1.4697266,-0.20996094,0.17089844,-35.65625,-28.40625,-83.21875,0.0,0.0,0.0,284
254,1695920122832,-0.92578125,0.080078125,0.25878906,110.15625,-95.84375,-61.28125,0.0,0.0,0.0,285
255,1695920122872,-0.06347656,0.21875,-0.20410156,96.0625,-25.03125,-31.15625,-31.5,25.8125,-111.0625,286
256,1695920122912,0.30566406,0.08886719,-0.22949219,17.0625,103.8125,16.15625,0.0,0.0,0.0,287
257,1695920122952,0.04296875,0.33398438,0.52734375,-75.09375,86.03125,31.125,0.0,0.0,0.0,288
258,1695920122992,-1.3867188,-0.6796875,0.97265625,-63.96875,-78.375,16.53125,0.0,0.0,0.0,289
259,1695920123032,-1.5595703,0.2861328,0.3564453,-63.1875,-5.375,-19.4375,0.0,0.0,0.0,290
260,1695920123072,-0.97753906,0.4873047,-0.8388672,-77.96875,122.40625,108.4375,0.0,0.0,0.0,291
261,1695920123112,-1.6484375,0.046875,0.2861328,31.71875,72.75,73.84375,0.0,0.0,0.0,292
262,1695920123152,-1.5283203,0.46191406,-0.20605469,75.4375,135.125,81.96875,0.0,0.0,0.0,293
263,1695920123192,-1.1425781,-0.23339844,0.18847656,-35.53125,84.9375,85.0625,0.0,0.0,0.0,294
264,1695920123232,-0.7714844,-0.125,0.18945312,-32.65625,32.53125,49.3125,0.0,0.0,0.0,295
265,1695920123272,-0.62402344,-0.44433594,0.46777344,26.46875,-27.25,37.9375,0.0,0.0,0.0,296
266,1695920123312,-0.3359375,-0.421875,0.34570312,24.53125,-68.0625,6.34375,0.0,0.0,0.0,297
267,1695920123352,-0.2890625,-0.22851562,0.04296875,46.375,-84.0625,-23.875,0.0,0.0,0.0,298
268,1695920123392,-2.0,-0.234375,-0.8671875,156.96875,-64.65625,-85.53125,-34.375,37.25,-118.25,299
269,1695920123432,-1.7382812,1.2958984,0.6542969,-50.6875,-127.40625,-71.65625,0.0,0.0,0.0,300
270,1695920123472,-1.8066406,0.8261719,0.20117188,-87.71875,-46.03125,-79.3125,0.0,0.0,0.0,301
271,1695920123512,-1.4873047,-0.43652344,-0.06640625,-29.25,-56.28125,-74.40625,0.0,0.0,0.0,302
272,1695920123552,-0.7480469,-0.18164062,0.037109375,102.65625,-54.75,-47.5,0.0,0.0,0.0,303
273,1695920123592,0.28710938,0.22363281,-0.30664062,154.71875,23.84375,-17.34375,0.0,0.0,0.0,304
274,1695920123632,0.60839844,0.35839844,-0.2626953,24.9375,155.5,19.21875,0.0,0.0,0.0,305
275,1695920123672,-0.453125,0.26464844,0.97265625,-86.0,87.03125,19.75,0.0,0.0,0.0,306
276,1695920123712,-1.6855469,-0.7128906,-0.14648438,-85.40625,-54.21875,-21.6875,0.0,0.0,0.0,307
277,1695920123752,-1.9882812,-0.018554688,0.06738281,4.125,-46.28125,-20.71875,0.0,0.0,0.0,308
278,1695920123792,0.061523438,0.73339844,-0.78808594,-78.5625,105.09375,72.4375,0.0,0.0,0.0,309
279,1695920123832,-2.0,-0.609375,0.2705078,8.71875,15.5625,94.78125,0.0,0.0,0.0,310
280,1695920123872,-1.6230469,-0.037109375,-0.26367188,89.28125,127.5625,74.03125,-37.1875,29.75,-117.1875,311
281,1695920123912,-1.3154297,-0.12011719,0.31933594,-55.375,98.25,63.46875,0.0,0.0,0.0,312
282,1695920123952,-0.9394531,-0.23339844,0.39453125,-22.0625,20.8125,44.34375,0.0,0.0,0.0,313
283,1695920123992,-0.5234375,-0.24316406,0.28027344,2.3125,-42.625,23.125,0.0,0.0,0.0,314
284,1695920124032,-0.22753906,-0.2529297,0.18847656,3.84375,-64.59375,-11.71875,0.0,0.0,0.0,315
285,1695920124072,-0.20605469,-0.14648438,-0.061523438,44.53125,-81.5,-27.59375,0.0,0.0,0.0,316
286,1695920124112,-1.9658203,-0.31152344,-0.29296875,96.25,-86.5625,-74.59375,0.0,0.0,0.0,317
287,1695920124152,-1.8203125,1.8525391,0.70214844,-104.75,-96.8125,-69.71875,0.0,0.0,0.0,318
288,1695920124192,-1.78125,0.8261719,0.047851562,-25.53125,-66.53125,-44.03125,0.0,0.0,0.0,319
289,1695920124232,-1.4228516,-0.5800781,0.20214844,-39.25,-61.71875,-46.59375,0.0,0.0,0.0,320
290,1695920124272,-0.85058594,-0.030273438,0.026367188,56.875,-35.96875,-50.125,0.0,0.0,0.0,321
291,1695920124312,0.07519531,0.18554688,-0.3017578,134.125,2.0,-18.21875,0.0,0.0,0.0,322
292,1695920124352,0.4638672,0.14648438,-0.18945312,8.71875,160.15625,20.96875,0.0,0.0,0.0,323
293,1695920124392,-0.5371094,0.1953125,0.9892578,-86.3125,75.125,18.78125,-35.375,32.875,-116.4375,324
294,1695920124432,-1.0332031,-0.53222656,-0.3408203,-67.15625,-44.3125,-14.71875,0.0,0.0,0.0,325
295,1695920124472,-2.0,0.9042969,-0.2861328,-26.25,-40.1875,-28.46875,0.0,0.0,0.0,326
296,1695920124512,-0.27246094,0.3857422,-0.92578125,-106.65625,22.625,27.28125,0.0,0.0,0.0,327
297,1695920124552,-2.0,-0.5253906,-0.33789062,31.40625,80.90625,80.625,0.0,0.0,0.0,328
298,1695920124592,-1.4111328,0.08496094,-0.091796875,51.3125,111.8125,67.71875,0.0,0.0,0.0,329
299,1695920124632,-1.2958984,0.421875,0.31640625,-35.71875,106.90625,65.78125,0.0,0.0,0.0,330
300,1695920124672,-1.015625,-0.2763672,0.24804688,-35.59375,60.40625,71.03125,0.0,0.0,0.0,331
301,1695920124712,-0.5546875,-0.4296875,0.15234375,8.84375,-9.90625,51.8125,0.0,0.0,0.0,332
302,1695920124752,-0.4736328,-0.2685547,0.390625,9.3125,-47.75,4.4375,0.0,0.0,0.0,333
303,1695920124792,-0.2529297,-0.08984375,0.07519531,14.09375,-86.3125,-28.875,0.0,0.0,0.0,334
304,1695920124832,-1.5136719,-0.19238281,0.1484375,106.0,-103.90625,-55.625,0.0,0.0,0.0,335
305,1695920124872,-2.0,1.6367188,0.29785156,-17.03125,-96.03125,-87.71875,-34.8125,36.625,-119.125,336
306,1695920124912,-2.0,0.5888672,0.037109375,-72.90625,-89.375,-61.21875,0.0,0.0,0.0,337
307,1695920124952,-1.4013672,-0.21875,0.3017578,-106.8125,-50.84375,-78.4375,0.0,0.0,0.0,338
308,1695920124992,-1.0224609,-0.34570312,-0.18457031,93.0625,-52.8125,-56.34375,0.0,0.0,0.0,339
309,1695920125032,-0.29003906,0.30371094,-0.2626953,207.125,-65.03125,-20.59375,0.0,0.0,0.0,340
310,1695920125072,0.4091797,0.3544922,-0.28320312,69.625,126.28125,13.40625,0.0,0.0,0.0,341
311,1695920125112,-0.15625,0.44140625,0.50878906,-100.0,134.25,19.9375,0.0,0.0,0.0,342
312,1695920125152,-1.0537109,-0.52734375,0.234375,-123.0625,50.15625,17.5625,0.0,0.0,0.0,343
313,1695920125192,-2.0,0.060546875,-0.2685547,-98.53125,-29.6875,-83.28125,0.0,0.0,0.0,344
314,1695920125232,-0.265625,0.31445312,-0.5371094,-38.09375,32.5625,-13.1875,0.0,0.0,0.0,345
315,1695920125272,-2.0,0.038085938,-0.7705078,-2.34375,70.1875,111.625,0.0,0.0,0.0,346
316,1695920125312,-1.5351562,0.22070312,0.03125,35.5625,91.65625,72.8125,0.0,0.0,0.0,347
317,1695920125352,-1.2861328,0.44140625,0.41503906,9.25,92.09375,68.40625,0.0,0.0,0.0,348
318,1695920125392,-0.9628906,-0.16210938,0.13085938,-34.6875,41.3125,59.3125,-38.25,34.375,-122.0,349
319,1695920125432,-0.52441406,-0.30859375,0.08691406,-25.59375,-22.34375,27.625,0.0,0.0,0.0,350
320,1695920125472,-0.32128906,-0.30273438,0.21582031,6.5,-57.21875,7.25,0.0,0.0,0.0,351
321,1695920125512,-0.15039062,-0.08203125,0.20214844,14.21875,-72.53125,-32.96875,0.0,0.0,0.0,352
322,1695920125552,-1.6669922,-0.11816406,0.2841797,91.40625,-111.53125,-54.59375,0.0,0.0,0.0,353
323,1695920125592,-2.0,1.6191406,0.6230469,-60.3125,-117.9375,-86.75,0.0,0.0,0.0,354
324,1695920125632,-2.0,0.671875,-0.047851562,-74.78125,-95.28125,-63.0625,0.0,0.0,0.0,355
325,1695920125672,-1.4560547,-0.39160156,0.171875,-56.28125,-72.21875,-62.28125,0.0,0.0,0.0,356
326,1695920125712,-0.7236328,-0.005859375,0.068359375,142.9375,-88.03125,-47.3125,0.0,0.0,0.0,357
327,1695920125752,-0.12695312,0.15136719,-0.15917969,204.4375,-21.375,-23.03125,0.0,0.0,0.0,358
328,1695920125792,0.34375,0.38378906,-0.029296875,12.25,168.5,0.21875,0.0,0.0,0.0,359
329,1695920125832,-0.24609375,0.46484375,0.5439453,-92.53125,86.53125,26.34375,0.0,0.0,0.0,360
330,1695920125872,-0.79296875,-0.46679688,-0.07714844,-71.0625,-23.15625,12.9375,-35.5625,32.4375,-117.625,361
331,1695920125912,-2.0,0.9238281,0.48046875,-39.6875,-59.15625,-27.96875,0.0,0.0,0.0,362
332,1695920125952,-0.14648438,0.23925781,-0.46875,-42.375,13.59375,-1.0,0.0,0.0,0.0,363
333,1695920125992,-2.0,0.4638672,-1.0341797,-39.625,127.84375,122.78125,0.0,0.0,0.0,364
334,1695920126032,-1.2597656,-0.3154297,-0.059570312,23.4375,120.15625,60.09375,0.0,0.0,0.0,365
335,1695920126072,-1.2070312,0.64160156,0.3876953,8.84375,128.03125,37.59375,0.0,0.0,0.0,366
336,1695920126112,-1.0595703,-0.030273438,0.2265625,-54.28125,66.75,53.375,0.0,0.0,0.0,367
337,1695920126152,-0.68066406,-0.3359375,0.2705078,-42.5,9.1875,52.46875,0.0,0.0,0.0,368
338,1695920126192,-0.44433594,-0.328125,0.32226562,-10.8125,-43.96875,23.25,0.0,0.0,0.0,369
339,1695920126232,-0.3173828,-0.27539062,0.08105469,11.65625,-85.59375,-16.1875,0.0,0.0,0.0,370
340,1695920126272,-1.5244141,-0.06933594,0.16601562,85.0625,-112.6875,-48.0625,0.0,0.0,0.0,371
341,1695920126312,-2.0,1.5136719,0.29882812,-36.75,-121.46875,-76.6875,0.0,0.0,0.0,372
342,1695920126352,-1.9501953,0.6513672,0.0048828125,-70.15625,-125.125,-57.15625,0.0,0.0,0.0,373
343,1695920126392,-1.1982422,-0.61328125,-0.021484375,-74.53125,-96.5625,-64.46875,-31.8125,28.6875,-110.3125,374
344,1695920126432,-1.0205078,-0.28125,-0.09863281,98.9375,-46.34375,-95.53125,0.0,0.0,0.0,375
345,1695920126472,-0.16113281,0.01953125,-0.3203125,225.8125,-39.75,-76.75,0.0,0.0,0.0,376
346,1695920126512,0.59765625,0.48339844,-0.033203125,67.5625,137.3125,-11.96875,0.0,0.0,0.0,377
347,1695920126552,-0.05859375,0.46191406,0.36816406,-27.0,137.0,33.25,0.0,0.0,0.0,378
348,1695920126592,-0.9042969,-0.13085938,0.5595703,-48.71875,21.78125,42.90625,0.0,0.0,0.0,379
349,1695920126632,-1.7460938,0.3388672,0.80371094,-110.90625,-11.84375,-24.375,0.0,0.0,0.0,380
350,1695920126672,-0.49316406,-0.53515625,-0.42578125,-40.1875,-18.8125,-75.5625,0.0,0.0,0.0,381
351,1695920126712,-0.11816406,0.59375,-0.5097656,-53.84375,134.3125,96.96875,0.0,0.0,0.0,382
352,1695920126752,-1.9882812,-0.9189453,0.009765625,13.28125,41.0,78.0,0.0,0.0,0.0,383
353,1695920126792,-1.6191406,0.37304688,0.0126953125,94.34375,109.46875,47.15625,0.0,0.0,0.0,384
354,1695920126832,-1.0585938,0.23925781,0.10449219,-68.0625,93.3125,69.125,0.0,0.0,0.0,385
355,1695920126872,-0.9042969,-0.44335938,0.2734375,-48.96875,57.34375,73.21875,-37.0625,33.5,-123.1875,386
356,1695920126912,-0.57714844,-0.23730469,0.21386719,-27.46875,-7.71875,31.28125,0.0,0.0,0.0,387
357,1695920126952,-0.36914062,-0.20800781,0.33984375,0.71875,-37.90625,-9.78125,0.0,0.0,0.0,388
358,1695920126992,-0.22363281,-0.14355469,0.06738281,5.0625,-80.8125,-18.6875,0.0,0.0,0.0,389
359,1695920127032,-2.0,-0.59375,-0.7861328,122.125,-78.5,-76.75,0.0,0.0,0.0,390
360,1695920127072,-1.8837891,1.453125,0.5732422,-93.03125,-108.34375,-86.1875,0.0,0.0,0.0,391
361,1695920127112,-1.6621094,0.82128906,0.119140625,-104.8125,-77.84375,-42.4375,0.0,0.0,0.0,392
362,1695920127152,-1.1855469,-0.41796875,0.099609375,-21.875,-80.34375,-19.84375,0.0,0.0,0.0,393
363,1695920127192,-0.6816406,0.034179688,-0.14648438,107.40625,-35.96875,-35.15625,0.0,0.0,0.0,394
364,1695920127232,-0.05078125,0.17675781,-0.18457031,164.90625,7.5,-33.84375,0.0,0.0,0.0,395
365,1695920127272,0.31152344,0.23535156,-0.13085938,2.90625,183.40625,-12.03125,0.0,0.0,0.0,396
366,1695920127312,-0.3876953,0.47558594,0.6767578,-117.625,125.96875,19.625,0.0,0.0,0.0,397
367,1695920127352,-1.34375,-0.35351562,0.20703125,-76.125,-47.5625,2.5625,0.0,0.0,0.0,398
368,1695920127392,-2.0,0.29492188,-0.52246094,-94.0625,-60.4375,-50.4375,-34.375,28.6875,-115.125,399
369,1695920127432,-0.09082031,1.1113281,-1.2988281,-147.0625,88.25,92.28125,0.0,0.0,0.0,400
370,1695920127472,-2.0,-1.8691406,0.18261719,14.5,55.03125,86.03125,0.0,0.0,0.0,401
371,1695920127512,-1.4775391,0.2705078,0.13183594,61.4375,59.5,45.09375,0.0,0.0,0.0,402
372,1695920127552,-0.98535156,0.25683594,0.2685547,-37.96875,78.84375,56.125,0.0,0.0,0.0,403
373,1695920127592,-0.89941406,-0.43847656,0.09765625,-27.25,59.75,51.375,0.0,0.0,0.0,404
374,1695920127632,-0.49804688,-0.24023438,0.13574219,10.46875,9.5,39.09375,0.0,0.0,0.0,405
375,1695920127672,-0.49316406,-0.23730469,0.34570312,22.1875,-28.75,21.09375,0.0,0.0,0.0,406
376,1695920127712,-0.5107422,-0.1796875,0.03515625,25.0625,-72.78125,-14.40625,0.0,0.0,0.0,407
377,1695920127752,-1.8320312,-0.15820312,-0.18261719,136.46875,-88.625,-72.59375,0.0,0.0,0.0,408
378,1695920127792,-1.9697266,1.4863281,0.13574219,-11.1875,-110.90625,-49.8125,0.0,0.0,0.0,409
379,1695920127832,-1.9580078,0.47070312,0.053710938,-56.65625,-108.28125,-53.125,0.0,0.0,0.0,410
380,1695920127872,-1.2568359,-0.1875,-0.02734375,-46.71875,-75.6875,-51.59375,-32.875,30.8125,-113.4375,411
381,1695920127912,-0.9091797,0.0048828125,-0.14257812,61.4375,-53.1875,-56.0,0.0,0.0,0.0,412
382,1695920127952,0.078125,-0.030273438,0.01171875,96.125,-14.59375,-47.9375,0.0,0.0,0.0,413
383,1695920127992,0.59765625,0.23730469,-0.4345703,38.625,157.28125,-9.0,0.0,0.0,0.0,414
384,1695920128032,-0.12792969,0.5449219,0.3720703,-67.46875,93.78125,25.125,0.0,0.0,0.0,415
385,1695920128072,-1.3535156,-0.15429688,0.59472656,-88.21875,-35.53125,20.90625,0.0,0.0,0.0,416
386,1695920128112,-1.8330078,0.35058594,-1.1357422,-186.21875,-9.90625,-84.625,0.0,0.0,0.0,417
387,1695920128152,-0.11035156,1.0380859,-1.0556641,-71.4375,44.84375,97.21875,0.0,0.0,0.0,418
388,1695920128192,-2.0,-2.0,0.22070312,37.71875,30.5,100.75,0.0,0.0,0.0,419
389,1695920128232,-1.6308594,0.08496094,-0.09277344,74.5625,88.4375,60.28125,0.0,0.0,0.0,420
390,1695920128272,-0.97753906,0.3408203,0.26953125,-68.375,111.5,63.9375,0.0,0.0,0.0,421
391,1695920128312,-0.8466797,-0.17675781,0.23535156,-37.96875,44.78125,48.75,0.0,0.0,0.0,422
392,1695920128352,-0.49121094,-0.25195312,0.17773438,-18.3125,-24.84375,39.90625,0.0,0.0,0.0,423
393,1695920128392,-0.3408203,-0.22167969,0.2109375,2.0625,-61.59375,11.40625,-36.625,33.5,-123.5,424
394,1695920128432,-0.24511719,-0.13476562,-0.15527344,61.3125,-91.1875,-5.03125,0.0,0.0,0.0,425
395,1695920128472,-2.0,0.029296875,-0.7158203,137.125,-69.59375,-69.09375,0.0,0.0,0.0,426
396,1695920128512,-1.5488281,0.8925781,0.4658203,-99.875,-142.65625,-75.625,0.0,0.0,0.0,427
397,1695920128552,-1.7832031,0.5761719,-0.041015625,-129.71875,-74.59375,-74.1875,0.0,0.0,0.0,428
398,1695920128592,-1.3115234,-0.4326172,0.037109375,-25.96875,-5.625,-69.65625,0.0,0.0,0.0,429
399,1695920128632,-0.7910156,-0.09863281,-0.09277344,112.96875,-44.3125,-66.1875,0.0,0.0,0.0,430
400,1695920128672,0.08300781,0.1015625,-0.2763672,161.90625,45.75,-27.59375,0.0,0.0,0.0,431
401,1695920128712,0.5107422,0.5048828,-0.041015625,-42.625,143.21875,18.53125,0.0,0.0,0.0,432
402,1695920128752,-0.5,0.2421875,0.8310547,-35.0625,70.65625,14.15625,0.0,0.0,0.0,433
403,1695920128792,-1.3095703,-0.83984375,0.13085938,-101.40625,-46.03125,-25.34375,0.0,0.0,0.0,434
404,1695920128832,-2.0,1.3662109,0.44726562,28.375,-71.84375,-55.25,0.0,0.0,0.0,435
405,1695920128872,0.37890625,0.56933594,-0.47070312,-55.375,-18.15625,0.65625,-35.875,22.8125,-114.1875,436
406,1695920128912,-2.0,0.6845703,-0.5107422,-89.0,126.75,155.6875,0.0,0.0,0.0,437
407,1695920128952,-1.3544922,-0.32421875,0.19238281,19.09375,119.75,75.78125,0.0,0.0,0.0,438
408,1695920128992,-1.15625,0.4375,0.21679688,-21.8125,98.875,46.4375,0.0,0.0,0.0,439
409,1695920129032,-1.1308594,-0.17382812,0.24707031,-61.21875,70.53125,70.34375,0.0,0.0,0.0,440
410,1695920129072,-0.70996094,-0.4501953,0.24707031,-35.46875,19.625,56.9375,0.0,0.0,0.0,441
411,1695920129112,-0.4794922,-0.40039062,0.32421875,-9.28125,-42.96875,13.65625,0.0,0.0,0.0,442
412,1695920129152,-0.26464844,-0.32421875,0.13574219,-8.625,-86.5,-17.40625,0.0,0.0,0.0,443
413,1695920129192,-0.87890625,-0.21289062,-0.11035156,106.84375,-118.0625,-37.5,0.0,0.0,0.0,444
414,1695920129232,-2.0,0.94921875,0.087890625,65.46875,-120.625,-83.34375,0.0,0.0,0.0,445
415,1695920129272,-2.0,0.7080078,0.19042969,-141.1875,-102.96875,-79.0625,0.0,0.0,0.0,446
416,1695920129312,-1.4169922,-0.4560547,0.2919922,-101.34375,-25.46875,-85.21875,0.0,0.0,0.0,447
417,1695920129352,-0.9667969,-0.12207031,-0.017578125,58.09375,-47.1875,-67.53125,0.0,0.0,0.0,448
418,1695920129392,-0.35253906,0.30664062,-0.19140625,158.75,-37.375,5.125,-31.625,21.3125,-112.25,449
419,1695920129432,0.5488281,0.42382812,-0.31054688,90.625,89.84375,34.71875,0.0,0.0,0.0,450
420,1695920129472,0.038085938,0.2578125,0.3544922,-91.3125,148.1875,20.375,0.0,0.0,0.0,451
421,1695920129512,-1.2197266,-0.94628906,0.15039062,-59.53125,30.25,26.71875,0.0,0.0,0.0,452
422,1695920129552,-2.0,0.4248047,0.6015625,-55.8125,-83.625,-62.46875,0.0,0.0,0.0,453
423,1695920129592,0.020507812,0.39941406,-0.42871094,-25.53125,-2.625,-48.59375,0.0,0.0,0.0,454
424,1695920129632,-1.9560547,0.71191406,-0.91503906,-104.6875,121.5625,137.75,0.0,0.0,0.0,455
425,1695920129672,-1.1523438,-0.359375,0.25585938,-8.75,90.875,82.0625,0.0,0.0,0.0,456
426,1695920129712,-1.3554688,0.3046875,0.24316406,50.21875,124.3125,60.90625,0.0,0.0,0.0,457
427,1695920129752,-1.0605469,-0.22753906,0.099609375,-50.84375,76.59375,62.59375,0.0,0.0,0.0,458
428,1695920129792,-0.8876953,-0.34375,0.21679688,-17.03125,2.59375,43.5625,0.0,0.0,0.0,459
429,1695920129832,-0.3701172,-0.099609375,0.26367188,12.125,-43.03125,6.8125,0.0,0.0,0.0,460
430,1695920129872,-0.22265625,-0.14160156,0.17480469,23.0,-76.6875,-19.71875,-38.5625,33.3125,-120.375,461
431,1695920129912,-0.7675781,-0.35839844,-0.16699219,51.625,-99.5625,-50.6875,0.0,0.0,0.0,462
432,1695920129952,-2.0,0.36621094,0.22363281,81.03125,-120.1875,-95.71875,0.0,0.0,0.0,463
433,1695920129992,-2.0,0.92285156,0.21289062,-124.71875,-122.8125,-68.5625,0.0,0.0,0.0,464
434,1695920130032,-1.5390625,-0.3671875,0.47851562,-87.25,-35.46875,-71.4375,0.0,0.0,0.0,465
435,1695920130072,-1.1884766,-0.21386719,-0.09277344,78.0,-65.625,-90.15625,0.0,0.0,0.0,466
436,1695920130112,-0.31152344,-0.03515625,0.0087890625,116.625,-9.28125,-21.6875,0.0,0.0,0.0,467
437,1695920130152,0.3857422,0.3076172,-0.29589844,75.25,88.4375,21.90625,0.0,0.0,0.0,468
438,1695920130192,0.3857422,0.38671875,-0.13476562,-12.21875,143.1875,37.09375,0.0,0.0,0.0,469
439,1695920130232,-0.74121094,-0.043945312,0.9316406,-92.0625,79.15625,32.09375,0.0,0.0,0.0,470
440,1695920130272,-2.0,-0.18066406,0.11816406,-115.125,-118.4375,-48.34375,0.0,0.0,0.0,471
441,1695920130312,-0.56347656,0.12402344,-0.3544922,36.0,-44.09375,-55.1875,0.0,0.0,0.0,472
442,1695920130352,-0.7480469,0.86035156,-0.78222656,-94.875,134.8125,118.40625,0.0,0.0,0.0,473
443,1695920130392,-2.0,-0.82128906,0.3671875,7.25,53.15625,84.6875,-35.6875,23.0,-115.375,474
444,1695920130432,-1.5087891,0.140625,-0.025390625,66.03125,108.9375,64.25,0.0,0.0,0.0,475
445,1695920130472,-0.97265625,0.0546875,0.15917969,-60.875,105.28125,62.125,0.0,0.0,0.0,476
446,1695920130512,-0.88964844,-0.32617188,0.31640625,-20.21875,37.03125,48.9375,0.0,0.0,0.0,477
447,1695920130552,-0.4658203,-0.2861328,0.33984375,-0.9375,-30.59375,30.3125,0.0,0.0,0.0,478
448,1695920130592,-0.111328125,-0.26171875,0.25,6.75,-54.15625,-11.0625,0.0,0.0,0.0,479
449,1695920130632,-0.32910156,-0.33984375,-0.0390625,46.75,-92.71875,-33.78125,0.0,0.0,0.0,480
450,1695920130672,-2.0,0.10058594,-0.35253906,118.28125,-85.65625,-91.5625,0.0,0.0,0.0,481
451,1695920130712,-2.0,1.0888672,0.23632812,-70.5625,-134.0625,-43.34375,0.0,0.0,0.0,482
452,1695920130752,-1.6279297,0.28710938,0.16210938,-72.03125,-75.53125,-35.125,0.0,0.0,0.0,483
453,1695920130792,-1.2929688,-0.50878906,-0.013671875,-24.1875,-52.375,-50.6875,0.0,0.0,0.0,484
454,1695920130832,-0.52441406,0.23925781,-0.19433594,98.3125,-51.09375,-29.25,0.0,0.0,0.0,485
455,1695920130872,0.40722656,0.18945312,-0.19238281,126.75,35.875,1.875,-30.625,23.875,-105.375,486
456,1695920130912,0.39746094,0.06933594,-0.06933594,-51.21875,204.75,19.9375,0.0,0.0,0.0,487
457,1695920130952,-0.609375,0.18847656,0.90625,-108.46875,75.1875,56.1875,0.0,0.0,0.0,488
458,1695920130992,-2.0,-0.013671875,0.9003906,-10.21875,-185.4375,-36.875,0.0,0.0,0.0,489
459,1695920131032,0.47460938,0.50878906,-0.23730469,-1.71875,-31.875,-87.0,0.0,0.0,0.0,490
460,1695920131072,-1.6269531,0.8691406,-0.39453125,-152.90625,160.3125,101.3125,0.0,0.0,0.0,491
461,1695920131112,-1.59375,-0.38378906,0.1875,-7.65625,94.78125,96.46875,0.0,0.0,0.0,492
462,1695920131152,-1.3798828,0.3466797,0.015625,106.5625,112.90625,74.21875,0.0,0.0,0.0,493
463,1695920131192,-1.0546875,-0.080078125,0.265625,-40.375,82.6875,48.5625,0.0,0.0,0.0,494
464,1695920131232,-0.9082031,-0.21875,0.27539062,-29.125,10.96875,37.46875,0.0,0.0,0.0,495
465,1695920131272,-0.2998047,-0.27441406,0.14355469,-15.40625,-35.59375,26.96875,0.0,0.0,0.0,496
466,1695920131312,0.0107421875,-0.27929688,0.24804688,-2.28125,-53.90625,-1.78125,0.0,0.0,0.0,497
467,1695920131352,-0.13867188,-0.111328125,-0.11425781,42.40625,-86.625,-12.71875,0.0,0.0,0.0,498
468,1695920131392,-2.0,-0.87402344,-1.0263672,156.84375,-49.5625,-101.40625,-35.25,30.3125,-117.0625,499
469,1695920131432,-2.0,1.2880859,0.50878906,-141.0625,-114.6875,-82.0,0.0,0.0,0.0,500
470,1695920131472,-1.0908203,0.30273438,0.1015625,-76.6875,-24.1875,-63.0,0.0,0.0,0.0,501
471,1695920131512,-1.4453125,-0.41308594,-0.15234375,27.28125,-21.75,-82.46875,0.0,0.0,0.0,502
472,1695920131552,-0.6953125,0.0126953125,-0.35253906,179.0,-29.0625,-35.21875,0.0,0.0,0.0,503
473,1695920131592,0.32714844,0.30273438,0.0009765625,119.84375,91.15625,-5.9375,0.0,0.0,0.0,504
474,1695920131632,-0.13964844,0.5986328,0.52734375,-118.71875,148.375,27.09375,0.0,0.0,0.0,505
475,1695920131672,-0.98046875,-0.4951172,0.111328125,-87.84375,21.21875,17.875,0.0,0.0,0.0,506
476,1695920131712,-0.29101562,0.045898438,0.32128906,-54.28125,-54.40625,-31.6875,0.0,0.0,0.0,507
477,1695920131752,-1.7324219,0.31933594,-0.70996094,-85.53125,80.71875,-22.0,0.0,0.0,0.0,508
478,1695920131792,-1.9082031,0.19628906,-0.71875,-95.96875,106.75,104.0,0.0,0.0,0.0,509
479,1695920131832,-1.6279297,0.111328125,-0.13964844,37.75,54.4375,97.46875,0.0,0.0,0.0,510
480,1695920131872,-1.5625,0.01953125,0.20898438,13.28125,100.09375,84.03125,-37.375,23.125,-117.625,511
481,1695920131912,-1.1347656,0.009765625,0.25,-20.46875,66.75,41.0,0.0,0.0,0.0,512
482,1695920131952,-0.578125,-0.10253906,0.08691406,-37.375,7.84375,40.625,0.0,0.0,0.0,513
483,1695920131992,-0.3828125,-0.4326172,0.2861328,12.1875,-26.3125,25.1875,0.0,0.0,0.0,514
484,1695920132032,-0.24707031,-0.36621094,0.19238281,34.40625,-70.9375,-15.28125,0.0,0.0,0.0,515
485,1695920132072,-0.18457031,0.057617188,0.0126953125,52.28125,-88.34375,-39.125,0.0,0.0,0.0,516
486,1695920132112,-1.9550781,-0.53222656,-0.81347656,132.84375,-101.875,-87.34375,0.0,0.0,0.0,517
487,1695920132152,-1.8603516,1.6962891,0.58496094,-105.65625,-91.1875,-64.28125,0.0,0.0,0.0,518
488,1695920132192,-1.65625,0.49316406,0.2890625,-113.78125,-75.15625,-34.5625,0.0,0.0,0.0,519
489,1695920132232,-1.4199219,-0.5019531,0.13671875,2.84375,-2.40625,-60.6875,0.0,0.0,0.0,520
490,1695920132272,-0.54589844,-0.022460938,-0.25195312,91.40625,-23.21875,-39.5,0.0,0.0,0.0,521
491,1695920132312,0.34277344,0.12207031,-0.20507812,129.75,61.875,6.03125,0.0,0.0,0.0,522
492,1695920132352,0.25878906,0.37890625,0.14257812,-40.59375,134.8125,25.5,0.0,0.0,0.0,523
493,1695920132392,-0.7470703,0.041992188,0.44726562,-69.65625,64.1875,5.78125,-33.625,23.3125,-116.125,524
494,1695920132432,-0.8535156,-0.27148438,-0.16601562,-87.34375,-67.53125,-43.65625,0.0,0.0,0.0,525
495,1695920132472,-1.6943359,0.56152344,-0.2578125,-102.5,-52.5625,-35.34375,0.0,0.0,0.0,526
496,1695920132512,-1.0712891,0.29882812,-1.0585938,-64.03125,64.5,88.25,0.0,0.0,0.0,527
497,1695920132552,-1.6435547,-0.25195312,0.6142578,7.5,40.21875,101.25,0.0,0.0,0.0,528
498,1695920132592,-1.8662109,-0.041992188,0.06542969,74.5,124.5625,78.71875,0.0,0.0,0.0,529
499,1695920132632,-1.1210938,0.12890625,0.08691406,-62.34375,80.375,66.34375,0.0,0.0,0.0,530
500,1695920132672,-0.6933594,-0.18457031,0.17675781,-32.0,23.90625,44.34375,0.0,0.0,0.0,531
501,1695920132712,-0.44726562,-0.2861328,0.2783203,5.59375,-9.71875,21.71875,0.0,0.0,0.0,532
502,1695920132752,-0.31835938,-0.38378906,0.20117188,8.78125,-50.625,-14.96875,0.0,0.0,0.0,533
503,1695920132792,-0.125,-0.056640625,0.14746094,19.9375,-84.96875,-38.90625,0.0,0.0,0.0,534
504,1695920132832,-1.9169922,-0.3173828,-0.12207031,124.5625,-148.4375,-57.03125,0.0,0.0,0.0,535
505,1695920132872,-2.0,2.0,0.66015625,-105.4375,-83.875,-126.46875,-34.5,29.125,-114.1875,536
506,1695920132912,-1.6074219,0.44726562,0.001953125,-91.375,-57.9375,-49.15625,0.0,0.0,0.0,537
507,1695920132952,-1.3789062,-0.65625,0.009765625,-49.6875,-63.125,-43.40625,0.0,0.0,0.0,538
508,1695920132992,-0.6386719,0.10839844,-0.028320312,149.75,-70.03125,-36.5625,0.0,0.0,0.0,539
509,1695920133032,0.17675781,0.35058594,-0.06542969,199.03125,-5.15625,6.8125,0.0,0.0,0.0,540
510,1695920133072,0.34277344,0.28710938,-0.06933594,-8.75,146.15625,24.9375,0.0,0.0,0.0,541
511,1695920133112,-0.515625,0.11230469,0.4375,-108.90625,107.90625,12.625,0.0,0.0,0.0,542
512,1695920133152,-0.88671875,-0.48632812,-0.095703125,-63.6875,5.0625,-28.40625,0.0,0.0,0.0,543
513,1695920133192,-2.0,1.0175781,0.671875,-42.96875,-95.84375,-73.4375,0.0,0.0,0.0,544
514,1695920133232,0.5332031,0.75390625,-0.6777344,-59.09375,30.875,3.53125,0.0,0.0,0.0,545
515,1695920133272,-2.0,-0.10644531,-0.81933594,-57.09375,91.21875,110.34375,0.0,0.0,0.0,546
516,1695920133312,-1.1074219,0.40820312,-0.375,69.1875,102.59375,48.09375,0.0,0.0,0.0,547
517,1695920133352,-1.1679688,0.71972656,0.30273438,-18.25,123.53125,44.96875,0.0,0.0,0.0,548
518,1695920133392,-1.1035156,-0.43652344,0.10058594,-23.40625,74.75,72.8125,-37.1875,26.125,-120.625,549
519,1695920133432,-0.5595703,-0.35253906,0.21386719,-12.59375,23.59375,56.1875,0.0,0.0,0.0,550
520,1695920133472,-0.43066406,-0.2578125,0.20800781,5.28125,-11.84375,19.8125,0.0,0.0,0.0,551
521,1695920133512,-0.23046875,-0.3173828,0.27539062,13.90625,-52.8125,-14.90625,0.0,0.0,0.0,552
522,1695920133552,-0.7558594,-0.095703125,-0.11816406,44.78125,-104.75,-37.25,0.0,0.0,0.0,553
523,1695920133592,-2.0,0.79589844,0.3076172,78.40625,-157.1875,-94.25,0.0,0.0,0.0,554
524,1695920133632,-2.0,0.9892578,0.34375,-110.84375,-136.71875,-65.09375,0.0,0.0,0.0,555
525,1695920133672,-1.4130859,-0.3125,0.43164062,-129.84375,-106.875,-27.71875,0.0,0.0,0.0,556
526,1695920133712,-1.4287109,-0.5576172,-0.044921875,94.90625,-88.28125,-60.6875,0.0,0.0,0.0,557
527,1695920133752,-0.3935547,0.18066406,-0.13867188,191.9375,-82.03125,-36.28125,0.0,0.0,0.0,558
528,1695920133792,0.54296875,0.35546875,-0.22851562,72.4375,94.03125,-16.625,0.0,0.0,0.0,559
529,1695920133832,0.29882812,0.3466797,-0.05859375,-72.03125,192.6875,8.03125,0.0,0.0,0.0,560
530,1695920133872,-0.5136719,-0.032226562,0.62890625,-109.8125,98.8125,32.875,-35.375,22.6875,-113.75,561
531,1695920133912,-1.1738281,-0.3798828,-0.043945312,-47.3125,-70.21875,-7.65625,0.0,0.0,0.0,562
532,1695920133952,-2.0,0.034179688,-0.030273438,-19.0625,-45.125,-3.0,0.0,0.0,0.0,563
533,1695920133992,0.043945312,0.66308594,-0.79785156,-109.34375,80.84375,98.4375,0.0,0.0,0.0,564
534,1695920134032,-2.0,-0.8886719,0.18066406,15.5625,32.09375,103.875,0.0,0.0,0.0,565
535,1695920134072,-1.2304688,-0.041015625,-0.21386719,79.875,144.15625,48.875,0.0,0.0,0.0,566
536,1695920134112,-1.1230469,0.28222656,0.25585938,-39.875,96.3125,53.03125,0.0,0.0,0.0,567
537,1695920134152,-0.89160156,-0.2705078,0.35839844,-31.15625,13.65625,38.75,0.0,0.0,0.0,568
538,1695920134192,-0.3623047,-0.12695312,0.19335938,-21.125,-28.28125,19.21875,0.0,0.0,0.0,569
539,1695920134232,-0.32910156,-0.41210938,0.17480469,5.0,-38.53125,-4.96875,0.0,0.0,0.0,570
540,1695920134272,-0.5439453,-0.083984375,0.059570312,37.46875,-76.625,-38.78125,0.0,0.0,0.0,571
541,1695920134312,-1.9501953,0.016601562,0.051757812,109.46875,-116.65625,-77.71875,0.0,0.0,0.0,572
542,1695920134352,-2.0,1.1474609,0.39746094,-117.6875,-135.09375,-75.6875,0.0,0.0,0.0,573
543,1695920134392,-1.7333984,-0.047851562,0.12402344,-131.375,-63.0,-58.4375,-33.875,22.25,-112.125,574
544,1695920134432,-1.3916016,-0.6279297,-0.07324219,55.96875,-67.53125,-84.5625,0.0,0.0,0.0,575
545,1695920134472,-0.5683594,-0.10449219,-0.17382812,128.03125,-55.125,-29.625,0.0,0.0,0.0,576
546,1695920134512,0.46875,0.3232422,-0.46484375,132.1875,59.8125,-5.5,0.0,0.0,0.0,577
547,1695920134552,0.43066406,0.43847656,0.055664062,-14.78125,142.5625,19.15625,0.0,0.0,0.0,578
548,1695920134592,-0.67578125,0.17675781,0.8017578,-108.96875,70.0625,31.46875,0.0,0.0,0.0,579
549,1695920134632,-1.2509766,-0.5341797,-0.20703125,-79.78125,-55.8125,-28.09375,0.0,0.0,0.0,580
550,1695920134672,-1.9052734,0.20214844,-0.015625,-34.9375,-25.15625,-49.75,0.0,0.0,0.0,581
551,1695920134712,-0.044921875,1.2314453,-1.1152344,-21.875,112.78125,119.75,0.0,0.0,0.0,582
552,1695920134752,-2.0,-1.2373047,0.13769531,24.40625,31.40625,103.6875,0.0,0.0,0.0,583
553,1695920134792,-1.7246094,-0.06738281,-0.047851562,74.21875,131.5625,61.5625,0.0,0.0,0.0,584
554,1695920134832,-1.1855469,0.22265625,0.17480469,-41.15625,104.125,69.25,0.0,0.0,0.0,585
555,1695920134872,-1.0146484,-0.2607422,0.30371094,-22.125,18.34375,55.84375,-39.0,25.5625,-123.0625,586
556,1695920134912,-0.5078125,-0.29785156,0.28710938,-10.03125,-38.53125,22.1875,0.0,0.0,0.0,587
557,1695920134952,-0.21386719,-0.34472656,0.21679688,-5.6875,-57.03125,-21.375,0.0,0.0,0.0,588
558,1695920134992,-0.23144531,-0.068359375,-0.025390625,20.0625,-83.5625,-40.375,0.0,0.0,0.0,589
559,1695920135032,-2.0,-0.33789062,-0.56933594,117.34375,-99.5,-76.5,0.0,0.0,0.0,590
560,1695920135072,-2.0,1.2890625,0.6464844,-94.625,-129.34375,-57.6875,0.0,0.0,0.0,591
561,1695920135112,-1.8017578,0.27929688,0.24707031,-120.0625,-56.34375,-58.84375,0.0,0.0,0.0,592
562,1695920135152,-1.5361328,-0.5859375,-0.19433594,17.5,-13.875,-94.1875,0.0,0.0,0.0,593
563,1695920135192,-0.6533203,0.22558594,-0.26464844,173.1875,-96.75,-40.25,0.0,0.0,0.0,594
564,1695920135232,0.2861328,0.36816406,0.049804688,127.65625,14.3125,-6.0,0.0,0.0,0.0,595
565,1695920135272,0.19824219,0.3359375,-0.22753906,-68.75,134.875,10.375,0.0,0.0,0.0,596
566,1695920135312,-0.2265625,0.048828125,0.34960938,-116.09375,85.625,33.375,0.0,0.0,0.0,597
567,1695920135352,-1.2919922,-0.8544922,0.18457031,-126.59375,-41.46875,-16.96875,0.0,0.0,0.0,598
568,1695920135392,-1.7197266,0.39941406,0.16503906,-123.5,21.03125,-53.65625,-32.5625,17.3125,-113.0,599
569,1695920135432,-0.45410156,0.80859375,-0.9482422,-99.375,107.96875,129.8125,0.0,0.0,0.0,600
570,1695920135472,-1.8740234,-0.98046875,0.27441406,-13.375,49.90625,108.375,0.0,0.0,0.0,601
571,1695920135512,-1.7402344,-0.0234375,-0.16503906,113.15625,125.96875,52.53125,0.0,0.0,0.0,602
572,1695920135552,-1.1767578,0.15722656,0.32714844,-60.6875,101.5,65.84375,0.0,0.0,0.0,603
573,1695920135592,-0.8408203,-0.28515625,0.1875,-56.21875,32.40625,64.5,0.0,0.0,0.0,604
574,1695920135632,-0.5546875,-0.40820312,0.33984375,-0.8125,-27.46875,35.625,0.0,0.0,0.0,605
575,1695920135672,-0.2998047,-0.55566406,0.25390625,0.78125,-52.8125,-13.1875,0.0,0.0,0.0,606
576,1695920135712,-0.28808594,-0.15136719,-0.09472656,36.59375,-86.8125,-40.0625,0.0,0.0,0.0,607
577,1695920135752,-1.9082031,-0.051757812,-0.5859375,195.125,-98.96875,-76.0,0.0,0.0,0.0,608
578,1695920135792,-1.6894531,1.5576172,0.50390625,-154.0625,-139.1875,-77.34375,0.0,0.0,0.0,609
579,1695920135832,-1.8632812,0.6123047,0.31933594,-188.84375,-45.65625,-61.34375,0.0,0.0,0.0,610
580,1695920135872,-1.7158203,-0.68847656,-0.25683594,-17.59375,-34.25,-99.125,-34.625,16.5625,-109.5625,611
581,1695920135912,-0.63378906,-0.033203125,-0.15429688,140.84375,-78.8125,-47.0,0.0,0.0,0.0,612
582,1695920135952,0.5390625,0.13867188,-0.33691406,191.9375,20.6875,7.125,0.0,0.0,0.0,613
583,1695920135992,0.3173828,0.5175781,0.23828125,-75.09375,147.4375,10.1875,0.0,0.0,0.0,614
584,1695920136032,-0.15722656,0.26464844,0.41601562,-128.0,99.53125,31.53125,0.0,0.0,0.0,615
585,1695920136072,-1.0615234,-0.625,-0.27734375,-88.03125,-52.625,19.21875,0.0,0.0,0.0,616
586,1695920136112,-2.0,0.38867188,-0.3359375,-41.8125,-63.5625,-69.84375,0.0,0.0,0.0,617
587,1695920136152,0.390625,0.8613281,-1.0527344,-116.53125,36.84375,46.1875,0.0,0.0,0.0,618
588,1695920136192,-2.0,-0.85839844,0.044921875,95.03125,70.25,138.96875,0.0,0.0,0.0,619
589,1695920136232,-1.5439453,0.022460938,-0.15527344,75.1875,138.59375,45.9375,0.0,0.0,0.0,620
590,1695920136272,-1.2363281,0.7519531,0.45996094,-63.90625,104.59375,58.03125,0.0,0.0,0.0,621
591,1695920136312,-1.0498047,-0.3779297,0.24902344,-24.3125,30.625,62.90625,0.0,0.0,0.0,622
592,1695920136352,-0.49414062,-0.40820312,0.24707031,-14.84375,-42.6875,33.8125,0.0,0.0,0.0,623
593,1695920136392,-0.27441406,-0.3828125,0.1484375,18.96875,-64.90625,-1.25,-38.5625,24.3125,-122.3125,624
594,1695920136432,-0.39257812,-0.047851562,0.14453125,28.0625,-69.59375,-39.03125,0.0,0.0,0.0,625
595,1695920136472,-1.6474609,-0.17089844,-0.37597656,130.90625,-97.84375,-66.96875,0.0,0.0,0.0,626
596,1695920136512,-1.7714844,1.3291016,0.4013672,-64.78125,-125.4375,-58.4375,0.0,0.0,0.0,627
597,1695920136552,-2.0,0.5283203,0.36914062,-126.71875,-78.3125,-68.3125,0.0,0.0,0.0,628
598,1695920136592,-1.3398438,-0.5996094,-0.044921875,-8.625,-30.28125,-96.375,0.0,0.0,0.0,629
599,1695920136632,-0.76464844,0.16503906,0.009765625,117.125,-62.6875,-59.9375,0.0,0.0,0.0,630
600,1695920136672,0.2421875,0.35546875,-0.14453125,202.25,4.0625,-1.40625,0.0,0.0,0.0,631
601,1695920136712,0.40722656,0.39160156,-0.20703125,-45.84375,154.65625,22.625,0.0,0.0,0.0,632
602,1695920136752,-0.13183594,0.4267578,0.49414062,-105.84375,92.8125,32.40625,0.0,0.0,0.0,633
603,1695920136792,-0.9951172,-0.7138672,-0.16015625,-121.15625,-10.34375,-5.5625,0.0,0.0,0.0,634
604,1695920136832,-2.0,0.36035156,-0.58203125,-140.21875,-42.0,-77.09375,0.0,0.0,0.0,635
605,1695920136872,0.24023438,0.9716797,-1.2060547,-78.1875,63.34375,94.40625,-35.375,16.5625,-114.0625,636
606,1695920136912,-2.0,-1.2314453,0.49414062,6.34375,42.90625,111.5625,0.0,0.0,0.0,637
607,1695920136952,-1.5292969,0.20019531,-0.2705078,124.0,111.1875,50.46875,0.0,0.0,0.0,638
608,1695920136992,-1.1923828,0.42285156,0.31152344,-63.1875,90.375,64.5,0.0,0.0,0.0,639
609,1695920137032,-1.0996094,-0.4423828,0.32910156,-35.65625,46.96875,60.21875,0.0,0.0,0.0,640
610,1695920137072,-0.6152344,-0.36132812,0.14160156,-2.46875,-25.90625,31.53125,0.0,0.0,0.0,641
611,1695920137112,-0.39453125,-0.25878906,0.36328125,23.90625,-61.71875,-11.0625,0.0,0.0,0.0,642
612,1695920137152,-0.20605469,-0.055664062,0.061523438,13.78125,-81.4375,-49.46875,0.0,0.0,0.0,643
613,1695920137192,-1.7021484,-0.14550781,-0.15917969,90.1875,-112.25,-66.3125,0.0,0.0,0.0,644
614,1695920137232,-2.0,1.5185547,0.56347656,-51.21875,-122.34375,-79.71875,0.0,0.0,0.0,645
615,1695920137272,-1.9873047,0.6464844,0.11425781,-101.46875,-89.25,-54.875,0.0,0.0,0.0,646
616,1695920137312,-1.4121094,-0.7294922,0.09667969,-17.96875,-61.46875,-56.90625,0.0,0.0,0.0,647
617,1695920137352,-0.6464844,0.09375,-0.18652344,161.78125,-92.78125,-40.53125,0.0,0.0,0.0,648
618,1695920137392,0.08203125,0.29882812,-0.1484375,224.09375,-22.96875,-4.90625,-29.125,18.5,-103.5625,649
619,1695920137432,0.3828125,0.26757812,-0.16113281,-31.15625,171.3125,5.46875,0.0,0.0,0.0,650
620,1695920137472,-0.23046875,0.49023438,0.5078125,-109.375,108.1875,22.1875,0.0,0.0,0.0,651
621,1695920137512,-0.75097656,-0.5253906,-0.2109375,-114.03125,-3.0,9.9375,0.0,0.0,0.0,652
622,1695920137552,-2.0,1.09375,0.087890625,-104.875,-31.4375,-53.78125,0.0,0.0,0.0,653
623,1695920137592,0.38183594,0.8232422,-1.1923828,-100.53125,31.0625,22.03125,0.0,0.0,0.0,654
624,1695920137632,-2.0,-0.84765625,-0.39648438,35.5625,79.4375,113.5,0.0,0.0,0.0,655
625,1695920137672,-1.2861328,0.04296875,-0.5214844,108.03125,105.34375,55.53125,0.0,0.0,0.0,656
626,1695920137712,-1.3183594,0.6503906,0.3828125,-45.1875,137.375,46.375,0.0,0.0,0.0,657
627,1695920137752,-1.1708984,-0.3017578,0.3359375,-9.28125,63.9375,65.84375,0.0,0.0,0.0,658
628,1695920137792,-0.69921875,-0.3232422,0.09472656,4.0,-21.375,37.59375,0.0,0.0,0.0,659
629,1695920137832,-0.2705078,-0.19433594,0.24121094,5.84375,-33.53125,-13.5,0.0,0.0,0.0,660
630,1695920137872,-0.19628906,-0.20898438,0.04296875,37.21875,-45.3125,-26.1875,-39.125,25.6875,-122.625,661
631,1695920137912,-1.7177734,-0.024414062,-0.17382812,67.90625,-77.71875,-54.6875,0.0,0.0,0.0,662
632,1695920137952,-1.9013672,1.546875,0.51464844,8.40625,-124.34375,-61.34375,0.0,0.0,0.0,663
633,1695920137992,-2.0,0.5390625,0.14453125,-90.59375,-109.34375,-65.03125,0.0,0.0,0.0,664
634,1695920138032,-1.1962891,-0.30078125,0.005859375,-116.34375,-71.84375,-70.09375,0.0,0.0,0.0,665
635,1695920138072,-1.1552734,-0.22753906,-0.26171875,114.96875,-87.59375,-70.6875,0.0,0.0,0.0,666
636,1695920138112,-0.42578125,-0.09277344,-0.15429688,222.8125,-92.375,-31.03125,0.0,0.0,0.0,667
637,1695920138152,0.64453125,0.24316406,-0.32714844,98.3125,91.71875,-10.6875,0.0,0.0,0.0,668
638,1695920138192,0.19238281,0.5136719,0.2763672,-65.25,132.5625,18.78125,0.0,0.0,0.0,669
639,1695920138232,-0.48339844,0.078125,0.5527344,-111.46875,61.15625,33.0625,0.0,0.0,0.0,670
640,1695920138272,-2.0,0.23925781,0.2265625,-120.875,-102.8125,-46.71875,0.0,0.0,0.0,671
641,1695920138312,0.29101562,0.23242188,-0.50683594,-71.375,-4.71875,-15.75,0.0,0.0,0.0,672
642,1695920138352,-2.0,0.15039062,-0.61328125,-93.75,143.53125,119.78125,-34.8125,16.6875,-113.625,673
643,1695920138392,-1.6054688,-0.025390625,0.09472656,75.0625,98.875,57.96875,0.0,0.0,0.0,674
644,1695920138432,-1.2714844,0.70703125,0.11425781,50.59375,151.46875,48.4375,0.0,0.0,0.0,675
645,1695920138472,-1.1591797,-0.10839844,0.15039062,-29.1875,90.1875,62.84375,0.0,0.0,0.0,676
646,1695920138512,-0.79785156,-0.27246094,0.4111328,-15.21875,13.09375,54.3125,0.0,0.0,0.0,677
647,1695920138552,-0.49902344,-0.31445312,0.28710938,-29.1875,-32.1875,26.09375,0.0,0.0,0.0,678
648,1695920138592,-0.17089844,-0.41992188,0.005859375,7.1875,-57.9375,-27.40625,0.0,0.0,0.0,679
649,1695920138632,-0.36914062,0.0,-0.049804688,42.71875,-100.1875,-45.90625,0.0,0.0,0.0,680
650,1695920138672,-2.0,0.11621094,-0.22753906,99.53125,-147.28125,-65.125,0.0,0.0,0.0,681
651,1695920138712,-2.0,1.0195312,0.36328125,-113.53125,-194.90625,-58.25,0.0,0.0,0.0,682
652,1695920138752,-1.3320312,-0.013671875,0.1953125,-140.9375,-47.625,-48.90625,0.0,0.0,0.0,683
653,1695920138792,-1.4785156,-0.9501953,-0.14355469,89.46875,-37.96875,-96.34375,0.0,0.0,0.0,684
654,1695920138832,-0.44726562,0.091796875,-0.453125,217.4375,-25.59375,-50.5625,0.0,0.0,0.0,685
655,1695920138872,0.5214844,0.5214844,-0.16894531,106.375,112.84375,9.5,-27.75,16.375,-104.3125,686
656,1695920138912,0.25195312,0.66308594,0.36621094,-107.25,136.65625,10.375,0.0,0.0,0.0,687
657,1695920138952,-0.5498047,-0.19824219,0.3984375,-139.71875,53.625,17.375,0.0,0.0,0.0,688
658,1695920138992,-0.6845703,-0.39160156,-0.10058594,-187.28125,4.0,-37.375,0.0,0.0,0.0,689
659,1695920139032,-2.0,-0.5283203,-0.17773438,-41.46875,0.84375,-29.0625,0.0,0.0,0.0,690
660,1695920139072,-0.045898438,1.0917969,-0.6689453,-50.3125,91.0625,103.1875,0.0,0.0,0.0,691
661,1695920139112,-2.0,-0.890625,0.1015625,57.46875,52.96875,115.875,0.0,0.0,0.0,692
662,1695920139152,-1.6533203,0.109375,-0.11035156,84.40625,109.78125,58.625,0.0,0.0,0.0,693
663,1695920139192,-1.3984375,0.09375,0.26367188,-41.53125,86.65625,65.71875,0.0,0.0,0.0,694
664,1695920139232,-0.8730469,-0.4814453,0.20507812,-21.0625,4.875,46.96875,0.0,0.0,0.0,695
665,1695920139272,-0.23925781,-0.32617188,0.18066406,4.625,-57.21875,7.8125,0.0,0.0,0.0,696
666,1695920139312,-0.13964844,-0.16894531,0.22265625,0.78125,-75.21875,-32.0625,0.0,0.0,0.0,697
667,1695920139352,-0.28320312,0.12792969,-0.036132812,50.09375,-93.53125,-30.96875,0.0,0.0,0.0,698
668,1695920139392,-2.0,-0.049804688,-0.28320312,130.28125,-127.03125,-78.9375,-38.375,21.3125,-117.625,699
669,1695920139432,-2.0,1.1074219,0.421875,-153.875,-153.875,-61.78125,0.0,0.0,0.0,700
670,1695920139472,-1.5253906,-0.16210938,0.30664062,-154.0625,2.0,-51.40625,0.0,0.0,0.0,701
671,1695920139512,-1.3613281,-0.63964844,-0.024414062,97.9375,-46.21875,-84.71875,0.0,0.0,0.0,702
672,1695920139552,-0.30273438,0.3984375,-0.23242188,183.75,-59.15625,-13.875,0.0,0.0,0.0,703
673,1695920139592,0.56640625,0.3076172,-0.15136719,109.71875,100.375,19.53125,0.0,0.0,0.0,704
674,1695920139632,0.1015625,0.37597656,0.30859375,-110.96875,155.0625,19.53125,0.0,0.0,0.0,705
675,1695920139672,-0.703125,-0.08105469,0.19335938,-164.6875,75.0,15.1875,0.0,0.0,0.0,706
676,1695920139712,-2.0,0.4638672,0.6298828,-92.65625,-82.09375,-57.28125,0.0,0.0,0.0,707
677,1695920139752,-0.8076172,0.10546875,-0.39746094,-85.71875,-23.40625,4.4375,0.0,0.0,0.0,708
678,1695920139792,-1.8203125,0.35839844,-0.8251953,-69.28125,91.46875,137.875,0.0,0.0,0.0,709
679,1695920139832,-1.4228516,-0.6308594,0.23339844,4.0625,129.125,65.96875,0.0,0.0,0.0,710
680,1695920139872,-1.4570312,0.69628906,0.13476562,110.03125,133.09375,53.28125,-38.375,12.8125,-120.5,711
681,1695920139912,-1.2041016,-0.029296875,0.29003906,-5.625,68.84375,73.53125,0.0,0.0,0.0,712
682,1695920139952,-0.6269531,-0.22363281,0.20410156,-7.59375,-1.25,49.0625,0.0,0.0,0.0,713
683,1695920139992,-0.30566406,-0.3955078,0.26464844,4.875,-43.34375,31.0625,0.0,0.0,0.0,714
684,1695920140032,-0.27441406,-0.29003906,0.1484375,25.9375,-83.9375,-18.03125,0.0,0.0,0.0,715
685,1695920140072,-0.94628906,-0.059570312,-0.0703125,114.5,-111.40625,-55.375,0.0,0.0,0.0,716
686,1695920140112,-2.0,1.3095703,0.4091797,38.0,-151.9375,-81.4375,0.0,0.0,0.0,717
687,1695920140152,-2.0,0.39160156,-0.08691406,-152.71875,-156.8125,-54.03125,0.0,0.0,0.0,718
688,1695920140192,-1.0634766,-0.056640625,0.43945312,-105.84375,-72.71875,-82.21875,0.0,0.0,0.0,719
689,1695920140232,-1.0732422,-0.26171875,-0.0009765625,108.875,-68.0625,-68.9375,0.0,0.0,0.0,720
690,1695920140272,-0.25585938,0.14746094,-0.296875,187.0,-51.65625,-47.6875,0.0,0.0,0.0,721
691,1695920140312,0.5625,0.26171875,-0.3017578,91.78125,105.34375,-1.46875,0.0,0.0,0.0,722
692,1695920140352,-0.15332031,0.4560547,0.546875,-87.0625,110.46875,33.0,0.0,0.0,0.0,723
693,1695920140392,-0.8496094,0.0390625,0.013671875,-128.625,-2.75,29.53125,-31.9375,14.875,-111.5,724
694,1695920140432,-2.0,0.68359375,0.79003906,-65.6875,-111.78125,-31.09375,0.0,0.0,0.0,725
695,1695920140472,-0.06640625,-0.01171875,-0.7138672,-141.8125,29.15625,21.96875,0.0,0.0,0.0,726
696,1695920140512,-2.0,-0.5058594,-0.5410156,10.25,112.71875,83.59375,0.0,0.0,0.0,727
697,1695920140552,-1.3642578,0.17675781,0.11621094,105.09375,128.21875,25.8125,0.0,0.0,0.0,728
698,1695920140592,-1.2714844,0.7626953,0.26367188,5.78125,147.375,66.4375,0.0,0.0,0.0,729
699,1695920140632,-1.2138672,-0.22070312,0.30371094,4.6875,76.53125,68.46875,0.0,0.0,0.0,730
700,1695920140672,-0.5859375,-0.34277344,0.28125,-3.75,-10.9375,37.8125,0.0,0.0,0.0,731
701,1695920140712,-0.30664062,-0.43164062,0.35839844,16.59375,-42.125,2.5625,0.0,0.0,0.0,732
702,1695920140752,-0.24804688,-0.15136719,0.1328125,31.46875,-89.8125,-19.375,0.0,0.0,0.0,733
703,1695920140792,-1.5644531,-0.15625,-0.21386719,120.90625,-128.0,-43.03125,0.0,0.0,0.0,734
704,1695920140832,-2.0,1.6171875,0.6796875,-27.84375,-125.0625,-81.4375,0.0,0.0,0.0,735
705,1695920140872,-2.0,0.546875,-0.05078125,-80.09375,-102.0625,-49.28125,-33.875,20.4375,-108.9375,736
706,1695920140912,-1.3369141,-0.3544922,0.015625,-47.875,-63.25,-62.09375,0.0,0.0,0.0,737
707,1695920140952,-1.0185547,-0.20019531,-0.06933594,116.625,-47.1875,-81.5625,0.0,0.0,0.0,738
708,1695920140992,-0.15332031,0.24804688,-0.33984375,227.53125,-29.9375,-41.15625,0.0,0.0,0.0,739
709,1695920141032,0.6035156,0.43847656,-0.10449219,66.5625,123.15625,14.875,0.0,0.0,0.0,740
710,1695920141072,-0.26757812,0.54296875,0.62597656,-121.09375,118.5625,24.28125,0.0,0.0,0.0,741
711,1695920141112,-1.4208984,-0.55859375,0.05078125,-96.03125,2.84375,13.65625,0.0,0.0,0.0,742
712,1695920141152,-2.0,-0.033203125,-0.5908203,-104.25,-42.5625,-49.46875,0.0,0.0,0.0,743
713,1695920141192,0.55371094,1.0556641,-0.96191406,-111.34375,80.3125,50.28125,0.0,0.0,0.0,744
714,1695920141232,-2.0,-1.0888672,-0.4892578,57.71875,47.53125,85.8125,0.0,0.0,0.0,745
715,1695920141272,-1.6757812,0.25390625,-0.27246094,101.0625,113.09375,49.53125,0.0,0.0,0.0,746
716,1695920141312,-1.0917969,0.49023438,0.49804688,-58.90625,100.8125,57.59375,0.0,0.0,0.0,747
717,1695920141352,-1.1220703,-0.3310547,0.37304688,-28.9375,40.5,60.84375,0.0,0.0,0.0,748
718,1695920141392,-0.65625,-0.45410156,0.23632812,-13.3125,-29.625,31.34375,-39.125,24.1875,-118.125,749
719,1695920141432,-0.203125,-0.5263672,0.2607422,6.09375,-47.1875,-14.0,0.0,0.0,0.0,750
720,1695920141472,-0.37890625,-0.16015625,0.171875,-4.09375,-70.03125,-58.3125,0.0,0.0,0.0,751
721,1695920141512,-1.6953125,-0.0703125,-0.51953125,174.0625,-119.65625,-61.0,0.0,0.0,0.0,752
722,1695920141552,-1.65625,1.2841797,0.4345703,-84.5,-133.4375,-72.53125,0.0,0.0,0.0,753
723,1695920141592,-1.8623047,0.4638672,0.11230469,-99.375,-120.9375,-19.53125,0.0,0.0,0.0,754
724,1695920141632,-1.5595703,-0.4638672,0.22265625,53.21875,-72.53125,-72.09375,0.0,0.0,0.0,755
725,1695920141672,-0.52441406,-0.040039062,-0.0078125,132.4375,-43.46875,-54.15625,0.0,0.0,0.0,756
726,1695920141712,0.21777344,0.15039062,-0.2919922,166.90625,60.96875,-12.59375,0.0,0.0,0.0,757
727,1695920141752,0.5371094,0.57910156,-0.045898438,-23.75,169.59375,20.375,0.0,0.0,0.0,758
728,1695920141792,-0.328125,0.4033203,0.7158203,-125.5625,123.09375,32.53125,0.0,0.0,0.0,759
729,1695920141832,-1.359375,-0.87402344,-0.25,-106.59375,-17.90625,-4.59375,0.0,0.0,0.0,760
730,1695920141872,-2.0,0.47265625,0.021484375,-57.15625,-44.875,-16.375,-30.625,23.4375,-108.375,761
731,1695920141912,0.3798828,0.87597656,-0.9980469,-94.125,79.875,53.8125,0.0,0.0,0.0,762
732,1695920141952,-2.0,-0.8701172,0.19042969,28.71875,58.9375,97.75,0.0,0.0,0.0,763
733,1695920141992,-1.5898438,-0.26660156,-0.11035156,107.90625,112.96875,57.0,0.0,0.0,0.0,764
734,1695920142032,-1.1533203,0.32226562,0.2734375,-23.875,91.90625,67.25,0.0,0.0,0.0,765
735,1695920142072,-1.1113281,-0.19238281,0.4501953,-18.09375,22.03125,38.4375,0.0,0.0,0.0,766
736,1695920142112,-0.39453125,-0.28710938,0.29589844,-4.46875,-48.0,14.75,0.0,0.0,0.0,767
737,1695920142152,-0.203125,-0.23339844,0.34765625,-1.65625,-59.28125,-10.28125,0.0,0.0,0.0,768
738,1695920142192,-0.49804688,-0.18359375,-0.25878906,41.5,-76.5625,-26.375,0.0,0.0,0.0,769
739,1695920142232,-2.0,-0.18554688,-0.18457031,164.53125,-132.9375,-93.46875,0.0,0.0,0.0,770
740,1695920142272,-2.0,0.7890625,0.265625,-52.4375,-156.3125,-51.84375,0.0,0.0,0.0,771
741,1695920142312,-1.5429688,0.36914062,0.13378906,-53.1875,-68.0625,-65.03125,0.0,0.0,0.0,772
742,1695920142352,-1.1835938,-0.35742188,-0.08203125,19.34375,-83.15625,-48.34375,0.0,0.0,0.0,773
743,1695920142392,-0.6435547,-0.02734375,-0.23339844,171.3125,-63.25,-24.0625,-28.8125,22.375,-106.375,774
744,1695920142432,0.24121094,0.3486328,-0.25683594,127.0,58.59375,-1.125,0.0,0.0,0.0,775
745,1695920142472,0.34570312,0.44628906,-0.08496094,-36.75,173.09375,12.5,0.0,0.0,0.0,776
746,1695920142512,-0.671875,0.06542969,0.8046875,-117.4375,103.125,35.5,0.0,0.0,0.0,777
747,1695920142552,-0.6201172,-0.36621094,-0.0009765625,-36.5,-73.9375,-35.125,0.0,0.0,0.0,778
748,1695920142592,-2.0,0.77734375,-0.13085938,-1.65625,-68.6875,-84.25,0.0,0.0,0.0,779
749,1695920142632,0.10253906,0.5996094,-0.7597656,-140.75,101.65625,41.0625,0.0,0.0,0.0,780
750,1695920142672,-2.0,-0.5761719,-0.15136719,110.40625,46.0,109.71875,0.0,0.0,0.0,781
751,1695920142712,-1.3369141,0.4609375,-0.095703125,20.5625,159.90625,39.78125,0.0,0.0,0.0,782
752,1695920142752,-1.1972656,0.2109375,0.38476562,-109.34375,105.5,29.03125,0.0,0.0,0.0,783
753,1695920142792,-0.8779297,-0.4140625,0.16308594,-37.84375,48.375,52.28125,0.0,0.0,0.0,784
754,1695920142832,-0.53222656,-0.39160156,0.19042969,-8.625,-28.03125,30.375,0.0,0.0,0.0,785
755,1695920142872,-0.31445312,-0.2890625,0.32714844,15.4375,-63.125,-7.03125,-38.125,28.5625,-123.9375,786
756,1695920142912,-0.24609375,-0.12109375,0.045898438,9.09375,-101.15625,-30.21875,0.0,0.0,0.0,787
757,1695920142952,-1.8427734,-0.5566406,-0.4892578,143.84375,-83.15625,-71.78125,0.0,0.0,0.0,788
758,1695920142992,-1.8496094,1.3945312,0.57421875,-84.125,-114.46875,-70.375,0.0,0.0,0.0,789
759,1695920143032,-1.8173828,0.21191406,0.30566406,-88.9375,-88.15625,-39.03125,0.0,0.0,0.0,790
