timestamp,accel_x,accel_y,accel_z,gyro_x,gyro_y,gyro_z,mag_x,mag_y,mag_z,ind
1695648222968,-0.93359375,-0.13671875,0.0107421875,-50.21875,17.125,-10.5,0.0,0.0,0.0,21
1695648223008,-0.92285156,-0.020507812,-0.16894531,32.65625,16.40625,-8.78125,0.0,0.0,0.0,22
1695648223048,-0.8935547,0.034179688,-0.20214844,27.53125,30.0,-15.3125,0.0,0.0,0.0,23
1695648223088,-1.0039062,0.11425781,-0.20898438,-51.75,16.9375,-9.03125,0.0,0.0,0.0,24
1695648223128,-0.9951172,0.037109375,-0.091796875,-82.53125,27.9375,0.0,0.0,0.0,0.0,25
1695648223168,-0.9580078,-0.109375,-0.111328125,-38.21875,24.5625,14.15625,0.0,0.0,0.0,26
1695648223208,-1.0302734,-0.0859375,-0.053710938,-9.6875,40.8125,12.03125,0.0,0.0,0.0,27
1695648223248,-0.98535156,0.0078125,0.032226562,-3.78125,33.84375,9.875,0.0,0.0,0.0,28
1695648223288,-1.0332031,-0.14648438,-0.052734375,-9.28125,16.875,10.1875,-114.75,2.0,-79.875,29
1695648223328,-0.95996094,0.029296875,-0.107421875,-28.5625,12.1875,2.5625,0.0,0.0,0.0,30
1695648223368,-0.99902344,0.0078125,-0.20410156,-42.34375,4.125,3.90625,0.0,0.0,0.0,31
1695648223408,-1.0351562,0.08496094,-0.030273438,-53.28125,4.5625,1.09375,0.0,0.0,0.0,32
1695648223448,-1.1542969,-0.15136719,0.038085938,-20.4375,-10.9375,6.03125,0.0,0.0,0.0,33
1695648223488,-1.3759766,-0.41210938,0.061523438,10.6875,-53.96875,-14.96875,0.0,0.0,0.0,34
1695648223528,-1.1787109,0.14160156,0.083984375,67.09375,-93.21875,-31.125,0.0,0.0,0.0,35
1695648223568,-0.9355469,0.42089844,-0.09863281,13.90625,-130.59375,-16.59375,0.0,0.0,0.0,36
1695648223608,-1.0732422,-0.07519531,-0.1640625,-62.4375,-128.375,-3.125,0.0,0.0,0.0,37
1695648223648,-1.1005859,-0.072265625,-0.13671875,-99.25,-89.125,-31.8125,0.0,0.0,0.0,38
1695648223688,-1.0527344,-0.026367188,0.06738281,-32.03125,-57.34375,-49.875,0.0,0.0,0.0,39
1695648223728,-1.0869141,-0.072265625,0.08203125,6.71875,-43.59375,-57.5,0.0,0.0,0.0,40
1695648223768,-1.0625,-0.01953125,-0.055664062,40.21875,-30.65625,-63.46875,-115.1875,-5.8125,-60.375,41
1695648223808,-1.0,-0.11035156,0.018554688,125.4375,-60.875,-67.3125,0.0,0.0,0.0,42
1695648223848,-0.81347656,0.10449219,0.1484375,132.25,-55.625,-34.375,0.0,0.0,0.0,43
1695648223888,-0.77734375,0.20996094,0.15136719,113.09375,-32.625,-21.375,0.0,0.0,0.0,44
1695648223928,-0.7050781,0.19433594,0.20507812,65.25,-6.125,-18.6875,0.0,0.0,0.0,45
1695648223968,-0.6269531,0.07324219,0.28515625,31.1875,24.4375,0.5,0.0,0.0,0.0,46
1695648224008,-0.9003906,-0.22460938,0.43945312,15.3125,50.21875,17.21875,0.0,0.0,0.0,47
1695648224048,-0.8876953,0.03125,0.546875,5.8125,35.125,23.125,0.0,0.0,0.0,48
1695648224088,-0.8886719,-0.29101562,0.4453125,21.5625,42.75,5.3125,0.0,0.0,0.0,49
1695648224128,-1.1220703,-0.3955078,0.5214844,0.0,48.875,-8.78125,0.0,0.0,0.0,50
1695648224168,-0.9736328,-0.047851562,0.46191406,20.25,38.96875,-15.4375,0.0,0.0,0.0,51
1695648224208,-1.09375,0.25,0.10839844,-29.90625,65.21875,-3.1875,0.0,0.0,0.0,52
1695648224248,-1.5302734,0.35253906,0.63671875,69.40625,10.03125,8.1875,0.0,0.0,0.0,53
1695648224288,-0.72558594,0.24023438,-0.12207031,-81.0,34.03125,1.03125,-116.25,-2.9375,-67.5625,54
1695648224328,-0.84277344,0.049804688,-0.48046875,-65.375,54.0,13.4375,0.0,0.0,0.0,55
1695648224368,-0.9550781,-0.29882812,-0.025390625,-85.4375,43.75,15.125,0.0,0.0,0.0,56
1695648224408,-1.0693359,-0.20605469,-0.22363281,-25.5625,59.125,65.25,0.0,0.0,0.0,57
1695648224448,-1.1464844,-0.20214844,-0.0126953125,-81.84375,39.21875,30.9375,0.0,0.0,0.0,58
1695648224488,-0.96484375,-0.034179688,0.034179688,15.3125,18.65625,-8.5,0.0,0.0,0.0,59
1695648224528,-0.9765625,-0.11035156,-0.16015625,-32.90625,51.5625,-16.40625,0.0,0.0,0.0,60
1695648224568,-0.9433594,0.057617188,-0.047851562,-72.375,46.90625,-3.59375,0.0,0.0,0.0,61
1695648224608,-0.9160156,0.045898438,-0.0859375,-58.96875,43.3125,1.78125,0.0,0.0,0.0,62
1695648224648,-0.8935547,-0.013671875,-0.087890625,-13.71875,45.125,15.375,0.0,0.0,0.0,63
1695648224688,-0.9560547,-0.11621094,-0.107421875,5.96875,47.28125,34.25,0.0,0.0,0.0,64
1695648224728,-1.0068359,-0.11621094,0.0146484375,19.90625,49.90625,29.0625,0.0,0.0,0.0,65
1695648224768,-1.0654297,-0.18457031,-0.10644531,0.25,21.59375,20.9375,-113.125,0.625,-78.625,66
1695648224808,-1.0820312,-0.03125,0.0009765625,-23.125,18.15625,0.90625,0.0,0.0,0.0,67
1695648224848,-1.1552734,0.044921875,0.060546875,-17.03125,-6.3125,-2.375,0.0,0.0,0.0,68
1695648224888,-1.2568359,-0.12597656,0.08203125,-49.25,-32.4375,-2.9375,0.0,0.0,0.0,69
1695648224928,-1.3691406,-0.33984375,0.20898438,50.0,-86.28125,-20.375,0.0,0.0,0.0,70
1695648224968,-1.046875,-0.013671875,-0.083984375,117.3125,-121.375,-26.4375,0.0,0.0,0.0,71
1695648225008,-1.2304688,0.4580078,-0.21484375,37.71875,-145.90625,-19.03125,0.0,0.0,0.0,72
1695648225048,-1.2626953,0.3017578,-0.14453125,-78.0625,-130.28125,-11.53125,0.0,0.0,0.0,73
1695648225088,-1.0859375,0.26953125,0.015625,-168.625,-87.5,-24.28125,0.0,0.0,0.0,74
1695648225128,-1.0410156,0.049804688,0.047851562,-77.09375,-78.8125,-39.5,0.0,0.0,0.0,75
1695648225168,-0.9560547,-0.10546875,-0.0234375,-21.84375,-57.9375,-48.90625,0.0,0.0,0.0,76
1695648225208,-0.9580078,-0.2109375,-0.045898438,31.4375,-64.3125,-52.6875,0.0,0.0,0.0,77
1695648225248,-0.6621094,0.049804688,0.06933594,154.90625,-77.3125,-34.65625,0.0,0.0,0.0,78
1695648225288,-0.56640625,0.18164062,0.19824219,94.375,-21.9375,-23.25,-112.9375,-4.4375,-53.9375,79
1695648225328,-0.5410156,-0.0703125,0.28710938,54.6875,15.0625,-10.875,0.0,0.0,0.0,80
1695648225368,-0.5917969,-0.051757812,0.41210938,32.09375,58.8125,5.25,0.0,0.0,0.0,81
1695648225408,-0.9501953,-0.09863281,0.6044922,61.40625,53.75,13.0625,0.0,0.0,0.0,82
1695648225448,-1.0195312,-0.11035156,0.6171875,46.09375,44.84375,4.03125,0.0,0.0,0.0,83
1695648225488,-1.1230469,-0.0859375,0.7050781,-7.3125,21.8125,-4.6875,0.0,0.0,0.0,84
1695648225528,-0.9013672,-0.01953125,0.49804688,32.90625,25.4375,-12.46875,0.0,0.0,0.0,85
1695648225568,-1.0566406,0.3486328,-0.032226562,-38.4375,74.6875,-3.1875,0.0,0.0,0.0,86
1695648225608,-1.5634766,0.29589844,0.32128906,13.3125,20.90625,22.75,0.0,0.0,0.0,87
1695648225648,-0.8984375,0.09765625,0.13476562,-83.0,64.78125,-5.5625,0.0,0.0,0.0,88
1695648225688,-0.68066406,0.09667969,-0.43164062,-91.1875,61.5,29.125,0.0,0.0,0.0,89
1695648225728,-1.0458984,-0.16699219,-0.23828125,3.40625,76.09375,47.71875,0.0,0.0,0.0,90
1695648225768,-1.2734375,-0.4248047,-0.07519531,7.21875,19.375,4.03125,-115.375,2.0,-68.875,91
1695648225808,-0.9423828,-0.0068359375,0.14648438,-96.375,49.53125,14.03125,0.0,0.0,0.0,92
1695648225848,-0.8955078,0.06933594,-0.07714844,-18.96875,32.0625,-12.8125,0.0,0.0,0.0,93
1695648225888,-0.93359375,-0.0390625,-0.22851562,-14.09375,48.6875,-5.625,0.0,0.0,0.0,94
1695648225928,-0.9921875,-0.0078125,0.06738281,-99.0,29.34375,4.875,0.0,0.0,0.0,95
1695648225968,-0.91796875,-0.01171875,-0.11621094,-31.3125,33.1875,5.25,0.0,0.0,0.0,96
1695648226008,-0.9140625,0.051757812,-0.13964844,2.75,41.59375,16.90625,0.0,0.0,0.0,97
1695648226048,-0.9638672,-0.07128906,-0.12109375,23.0625,47.28125,33.5,0.0,0.0,0.0,98
1695648226088,-1.0087891,-0.078125,-0.045898438,17.75,51.0625,32.28125,0.0,0.0,0.0,99
1695648226128,-1.0410156,-0.032226562,0.00390625,3.84375,35.3125,26.125,0.0,0.0,0.0,100
1695648226168,-1.0185547,-0.025390625,-0.09082031,-39.3125,20.78125,9.875,0.0,0.0,0.0,101
1695648226208,-1.0898438,0.034179688,-0.013671875,-40.59375,10.90625,-0.375,0.0,0.0,0.0,102
1695648226248,-1.1660156,-0.08984375,0.10058594,-31.90625,-11.0,1.15625,0.0,0.0,0.0,103
1695648226288,-1.2900391,-0.3720703,0.17480469,3.59375,-51.0625,-10.5625,-115.0625,5.125,-75.0625,104
1695648226328,-1.2646484,-0.16113281,0.109375,100.96875,-113.96875,-23.4375,0.0,0.0,0.0,105
1695648226368,-1.0683594,0.28808594,-0.17871094,95.21875,-144.125,-21.5625,0.0,0.0,0.0,106
1695648226408,-1.3027344,0.3076172,-0.29296875,-49.625,-133.21875,-2.125,0.0,0.0,0.0,107
1695648226448,-1.0615234,-0.034179688,0.037109375,-144.71875,-102.1875,-30.53125,0.0,0.0,0.0,108
1695648226488,-1.0517578,0.095703125,0.030273438,-28.8125,-51.71875,-43.71875,0.0,0.0,0.0,109
1695648226528,-1.0498047,0.02734375,0.009765625,-56.625,-53.5625,-66.46875,0.0,0.0,0.0,110
1695648226568,-1.0117188,-0.14550781,-0.060546875,58.90625,-62.46875,-59.15625,0.0,0.0,0.0,111
1695648226608,-0.8886719,-0.05078125,0.032226562,131.53125,-68.5625,-56.09375,0.0,0.0,0.0,112
1695648226648,-0.67578125,0.21386719,0.036132812,122.1875,-32.8125,-32.28125,0.0,0.0,0.0,113
1695648226688,-0.5751953,0.26171875,0.07128906,87.84375,6.5,-19.65625,0.0,0.0,0.0,114
1695648226728,-0.6347656,0.15625,0.16894531,45.28125,47.75,4.75,0.0,0.0,0.0,115
1695648226768,-0.90625,0.033203125,0.35742188,6.21875,71.625,25.5,-115.0625,-1.0,-57.375,116
1695648226808,-1.0576172,0.07910156,0.67871094,40.40625,38.65625,32.03125,0.0,0.0,0.0,117
1695648226848,-0.9609375,-0.4169922,0.5498047,54.125,34.15625,-9.59375,0.0,0.0,0.0,118
1695648226888,-1.2011719,-0.35351562,0.74121094,-37.90625,2.40625,-16.90625,0.0,0.0,0.0,119
1695648226928,-0.7285156,0.0029296875,0.34960938,32.78125,21.21875,-20.28125,0.0,0.0,0.0,120
1695648226968,-1.2138672,0.56347656,-0.14941406,-41.5,58.625,-9.65625,0.0,0.0,0.0,121
1695648227008,-1.6591797,0.30664062,0.79589844,36.5625,12.4375,5.625,0.0,0.0,0.0,122
1695648227048,-0.60839844,0.20019531,-0.41992188,-106.5,44.03125,16.125,0.0,0.0,0.0,123
1695648227088,-0.91015625,-0.15917969,-0.27929688,-79.15625,66.6875,16.21875,0.0,0.0,0.0,124
1695648227128,-1.0175781,-0.3388672,-0.20214844,-0.375,79.1875,39.65625,0.0,0.0,0.0,125
1695648227168,-1.2246094,-0.15332031,0.14941406,-53.46875,20.0625,19.84375,0.0,0.0,0.0,126
1695648227208,-1.0058594,-0.016601562,-0.18652344,-23.1875,59.25,14.9375,0.0,0.0,0.0,127
1695648227248,-0.90234375,0.140625,-0.13867188,59.03125,39.09375,4.09375,0.0,0.0,0.0,128
1695648227288,-1.0097656,-0.046875,-0.12011719,-66.78125,53.8125,5.625,-117.125,0.8125,-72.375,129
1695648227328,-1.0488281,-0.03125,0.07910156,-81.59375,43.375,4.5625,0.0,0.0,0.0,130
1695648227368,-0.9482422,-0.07519531,-0.16308594,-65.0625,33.96875,2.5625,0.0,0.0,0.0,131
1695648227408,-0.9501953,-0.080078125,-0.12597656,0.3125,30.75,14.03125,0.0,0.0,0.0,132
1695648227448,-0.9277344,-0.057617188,-0.016601562,17.40625,44.96875,25.75,0.0,0.0,0.0,133
1695648227488,-1.0175781,-0.078125,-0.06542969,17.59375,42.09375,25.09375,0.0,0.0,0.0,134
1695648227528,-1.0507812,-0.09667969,-0.10253906,-2.0625,23.71875,21.1875,0.0,0.0,0.0,135
1695648227568,-1.0341797,0.072265625,-0.08886719,-28.9375,19.3125,3.53125,0.0,0.0,0.0,136
1695648227608,-1.0585938,0.036132812,-0.0068359375,-38.5625,3.8125,-0.96875,0.0,0.0,0.0,137
1695648227648,-1.0947266,-0.13867188,0.103515625,-30.46875,-15.96875,4.9375,0.0,0.0,0.0,138
1695648227688,-1.2119141,-0.2890625,0.29882812,5.5,-45.25,-0.4375,0.0,0.0,0.0,139
1695648227728,-1.359375,-0.2763672,-0.022460938,95.9375,-117.03125,-18.9375,0.0,0.0,0.0,140
1695648227768,-1.1445312,0.025390625,-0.16503906,104.4375,-145.46875,-28.1875,-115.8125,3.0625,-74.75,141
1695648227808,-1.2695312,0.37304688,-0.2841797,-45.28125,-131.1875,-13.4375,0.0,0.0,0.0,142
1695648227848,-1.0488281,-0.0009765625,0.0087890625,-165.40625,-97.0625,-34.5,0.0,0.0,0.0,143
1695648227888,-1.0673828,0.017578125,-0.16210938,-41.6875,-45.5625,-29.25,0.0,0.0,0.0,144
1695648227928,-1.0878906,-0.0048828125,0.07128906,-17.8125,-58.875,-58.03125,0.0,0.0,0.0,145
1695648227968,-1.0400391,-0.0703125,-0.115234375,73.90625,-54.53125,-53.34375,0.0,0.0,0.0,146
1695648228008,-0.8652344,0.053710938,-0.01171875,123.0625,-59.0,-55.90625,0.0,0.0,0.0,147
1695648228048,-0.7841797,0.19628906,0.13671875,103.15625,-29.375,-34.65625,0.0,0.0,0.0,148
1695648228088,-0.7294922,0.15917969,0.19824219,71.84375,2.46875,-23.125,0.0,0.0,0.0,149
1695648228128,-0.60253906,0.15722656,0.2529297,48.53125,21.46875,-4.75,0.0,0.0,0.0,150
1695648228168,-0.68847656,0.0625,0.28222656,22.34375,45.5,21.65625,0.0,0.0,0.0,151
1695648228208,-1.0068359,-0.109375,0.4970703,23.375,45.0625,27.53125,0.0,0.0,0.0,152
1695648228248,-1.0605469,-0.3017578,0.51660156,66.28125,38.5,6.09375,0.0,0.0,0.0,153
1695648228288,-1.1142578,-0.38085938,0.5546875,17.65625,27.125,-12.03125,-118.0625,-3.5625,-61.125,154
1695648228328,-0.9316406,-0.07421875,0.49023438,49.25,15.78125,-9.65625,0.0,0.0,0.0,155
1695648228368,-0.96191406,0.28808594,0.21191406,-1.53125,47.03125,-3.78125,0.0,0.0,0.0,156
1695648228408,-1.2529297,0.3671875,0.1171875,-4.875,62.65625,11.40625,0.0,0.0,0.0,157
1695648228448,-1.2724609,0.16992188,0.45507812,-73.65625,31.96875,-1.09375,0.0,0.0,0.0,158
1695648228488,-0.8720703,0.12890625,-0.2939453,-74.78125,37.5,11.40625,0.0,0.0,0.0,159
1695648228528,-0.9326172,-0.18359375,-0.27148438,-39.71875,55.875,19.65625,0.0,0.0,0.0,160
1695648228568,-1.0791016,-0.40722656,-0.12695312,-27.34375,52.875,15.5625,0.0,0.0,0.0,161
1695648228608,-0.98339844,-0.103515625,0.072265625,-86.65625,35.0,12.5,0.0,0.0,0.0,162
1695648228648,-0.96484375,-0.024414062,-0.064453125,-51.8125,28.90625,-10.5,0.0,0.0,0.0,163
1695648228688,-0.94140625,0.017578125,-0.16601562,40.78125,37.8125,-3.3125,0.0,0.0,0.0,164
1695648228728,-1.0214844,-0.1640625,-0.06933594,-68.125,53.8125,-9.59375,0.0,0.0,0.0,165
1695648228768,-0.9941406,-0.018554688,-0.0087890625,-31.90625,40.625,-5.125,-118.1875,-2.375,-71.3125,166
1695648228808,-0.859375,0.05078125,-0.26464844,-55.71875,39.59375,10.4375,0.0,0.0,0.0,167
1695648228848,-0.93652344,0.09765625,-0.064453125,-18.75,63.375,22.40625,0.0,0.0,0.0,168
1695648228888,-0.9716797,-0.0390625,-0.028320312,20.4375,52.40625,44.6875,0.0,0.0,0.0,169
1695648228928,-1.0244141,-0.17871094,-0.06640625,9.09375,37.5625,32.59375,0.0,0.0,0.0,170
1695648228968,-1.1015625,-0.07714844,-0.10644531,3.34375,20.0625,16.34375,0.0,0.0,0.0,171
1695648229008,-1.0625,0.044921875,-0.049804688,-16.90625,8.09375,2.8125,0.0,0.0,0.0,172
1695648229048,-1.046875,0.03125,0.1328125,-28.125,-4.96875,-1.65625,0.0,0.0,0.0,173
1695648229088,-1.2167969,-0.14160156,0.08984375,-45.03125,-32.25,-1.71875,0.0,0.0,0.0,174
1695648229128,-1.3164062,-0.28515625,0.21679688,37.125,-78.40625,-14.09375,0.0,0.0,0.0,175
1695648229168,-1.2138672,-0.22949219,-0.01953125,117.3125,-145.0,-23.9375,0.0,0.0,0.0,176
1695648229208,-1.2871094,0.4736328,-0.3310547,17.34375,-153.46875,-13.84375,0.0,0.0,0.0,177
1695648229248,-1.2617188,0.2421875,-0.09375,-94.46875,-123.0,-10.375,0.0,0.0,0.0,178
1695648229288,-1.1005859,0.11035156,-0.045898438,-118.03125,-83.875,-23.5625,-118.625,-0.5625,-60.1875,179
1695648229328,-0.95996094,-0.05078125,0.015625,-77.8125,-68.9375,-44.75,0.0,0.0,0.0,180
1695648229368,-0.8798828,-0.07519531,-0.12890625,15.3125,-43.46875,-54.375,0.0,0.0,0.0,181
1695648229408,-0.9404297,0.040039062,-0.05078125,89.53125,-69.1875,-56.875,0.0,0.0,0.0,182
1695648229448,-0.7138672,0.041015625,0.103515625,115.25,-42.03125,-35.84375,0.0,0.0,0.0,183
1695648229488,-0.7138672,0.12695312,0.16699219,104.4375,-7.96875,-25.5,0.0,0.0,0.0,184
1695648229528,-0.64746094,0.0859375,0.21679688,78.4375,15.0,-10.1875,0.0,0.0,0.0,185
1695648229568,-0.7705078,0.036132812,0.42578125,38.5625,38.96875,-6.65625,0.0,0.0,0.0,186
1695648229608,-0.8876953,-0.047851562,0.49609375,53.71875,36.84375,7.375,0.0,0.0,0.0,187
1695648229648,-0.90527344,-0.12988281,0.5175781,30.875,36.15625,0.125,0.0,0.0,0.0,188
1695648229688,-0.9814453,-0.24414062,0.4970703,29.0625,37.8125,-13.4375,0.0,0.0,0.0,189
1695648229728,-0.9404297,-0.2578125,0.51171875,19.40625,38.65625,-11.46875,0.0,0.0,0.0,190
1695648229768,-1.0214844,0.17675781,0.2939453,-8.0625,50.625,-12.28125,-118.625,-3.4375,-58.4375,191
1695648229808,-1.5058594,0.38183594,0.07128906,-63.84375,46.65625,1.84375,0.0,0.0,0.0,192
1695648229848,-1.1582031,0.34960938,0.40820312,-26.1875,25.90625,4.75,0.0,0.0,0.0,193
1695648229888,-0.6513672,0.10644531,-0.44921875,-123.53125,48.0625,20.125,0.0,0.0,0.0,194
1695648229928,-1.0712891,-0.28710938,-0.2529297,-35.03125,85.53125,32.09375,0.0,0.0,0.0,195
1695648229968,-1.0654297,-0.4873047,-0.0859375,-11.71875,11.9375,0.71875,0.0,0.0,0.0,196
1695648230008,-1.0205078,0.10839844,0.10839844,-96.25,36.21875,41.6875,0.0,0.0,0.0,197
1695648230048,-1.0214844,0.0107421875,-0.29003906,42.40625,43.75,-15.9375,0.0,0.0,0.0,198
1695648230088,-1.0136719,0.10644531,-0.103515625,-0.5,34.46875,1.9375,0.0,0.0,0.0,199
1695648230128,-0.8828125,-0.016601562,-0.04296875,-86.5,60.15625,4.9375,0.0,0.0,0.0,200
1695648230168,-0.9501953,-0.049804688,-0.17285156,-63.46875,40.875,7.75,0.0,0.0,0.0,201
1695648230208,-0.890625,0.03515625,-0.055664062,-29.71875,52.9375,20.09375,0.0,0.0,0.0,202
1695648230248,-0.984375,-0.10839844,-0.08105469,10.5625,45.125,32.40625,0.0,0.0,0.0,203
1695648230288,-0.98828125,-0.12402344,-0.020507812,14.34375,39.53125,25.75,-121.375,1.0625,-73.5625,204
1695648230328,-1.0429688,-0.1328125,-0.21386719,1.59375,15.28125,12.75,0.0,0.0,0.0,205
1695648230368,-1.0419922,0.20800781,0.020507812,-30.34375,23.84375,-12.875,0.0,0.0,0.0,206
1695648230408,-1.0039062,0.09082031,-0.12011719,-44.3125,2.59375,0.71875,0.0,0.0,0.0,207
1695648230448,-1.1982422,-0.20410156,0.11425781,-26.96875,-11.5625,1.9375,0.0,0.0,0.0,208
1695648230488,-1.2626953,-0.3330078,0.2548828,0.625,-39.5625,-12.5,0.0,0.0,0.0,209
1695648230528,-1.3027344,-0.12207031,0.28710938,66.96875,-107.8125,-27.65625,0.0,0.0,0.0,210
1695648230568,-1.1328125,0.061523438,0.013671875,40.09375,-176.1875,-27.34375,0.0,0.0,0.0,211
1695648230608,-1.2470703,0.17675781,-0.4169922,17.03125,-155.46875,-2.03125,0.0,0.0,0.0,212
1695648230648,-1.2060547,0.034179688,-0.072265625,-152.09375,-117.875,-33.6875,0.0,0.0,0.0,213
1695648230688,-1.0800781,-0.024414062,0.109375,-29.96875,-77.46875,-65.5625,0.0,0.0,0.0,214
1695648230728,-0.9404297,-0.16113281,0.038085938,-8.0,-57.8125,-68.84375,0.0,0.0,0.0,215
1695648230768,-0.8691406,-0.13085938,-0.020507812,82.8125,-64.34375,-61.71875,-118.0625,-7.1875,-50.3125,216
1695648230808,-0.7470703,0.05859375,0.12011719,122.75,-53.6875,-47.625,0.0,0.0,0.0,217
1695648230848,-0.6279297,0.1328125,0.14160156,110.40625,-17.4375,-27.71875,0.0,0.0,0.0,218
1695648230888,-0.58984375,0.15039062,0.22167969,104.0,2.90625,-13.5625,0.0,0.0,0.0,219
1695648230928,-0.47265625,0.18359375,0.36328125,54.5625,35.8125,6.78125,0.0,0.0,0.0,220
1695648230968,-0.89746094,-0.0625,0.40625,3.84375,78.65625,19.78125,0.0,0.0,0.0,221
1695648231008,-1.0507812,-0.036132812,0.6591797,15.03125,58.375,19.03125,0.0,0.0,0.0,222
1695648231048,-1.1699219,-0.6152344,0.71972656,-20.625,56.0625,-17.875,0.0,0.0,0.0,223
1695648231088,-1.2314453,-0.31933594,0.6640625,18.4375,19.25,-22.78125,0.0,0.0,0.0,224
1695648231128,-1.0380859,0.3466797,-0.072265625,-46.8125,57.03125,-3.90625,0.0,0.0,0.0,225
1695648231168,-1.6523438,0.8066406,0.7001953,28.6875,2.46875,32.65625,0.0,0.0,0.0,226
1695648231208,-0.5878906,0.27441406,-0.19335938,-110.40625,19.375,25.21875,0.0,0.0,0.0,227
1695648231248,-0.85546875,-0.107421875,-0.5361328,-59.625,66.1875,36.125,0.0,0.0,0.0,228
1695648231288,-1.1445312,-0.7392578,-0.032226562,-59.375,64.59375,8.46875,-121.8125,0.1875,-60.8125,229
1695648231328,-0.90722656,-0.037109375,0.0146484375,-62.0625,94.34375,72.8125,0.0,0.0,0.0,230
1695648231368,-1.0849609,0.18359375,0.0,-16.125,-6.3125,11.15625,0.0,0.0,0.0,231
1695648231408,-0.81347656,-0.013671875,-0.16601562,7.25,68.75,3.84375,0.0,0.0,0.0,232
1695648231448,-0.93066406,-0.13769531,-0.0078125,-137.28125,61.75,-10.625,0.0,0.0,0.0,233
1695648231488,-0.93847656,0.016601562,0.041992188,-42.59375,50.09375,10.0,0.0,0.0,0.0,234
1695648231528,-0.9296875,0.0068359375,-0.13964844,-38.5,40.4375,15.9375,0.0,0.0,0.0,235
1695648231568,-0.95214844,-0.12207031,-0.09765625,1.90625,45.1875,30.21875,0.0,0.0,0.0,236
1695648231608,-1.0058594,-0.09082031,-0.057617188,13.0625,41.90625,27.65625,0.0,0.0,0.0,237
1695648231648,-1.0507812,-0.025390625,-0.09765625,-1.09375,28.78125,17.75,0.0,0.0,0.0,238
1695648231688,-0.99316406,0.08691406,-0.09667969,-50.59375,20.46875,6.21875,0.0,0.0,0.0,239
1695648231728,-1.0654297,0.15527344,-0.0390625,-43.03125,3.75,2.0625,0.0,0.0,0.0,240
1695648231768,-1.21875,-0.15917969,0.20214844,-40.28125,-19.125,1.71875,-119.6875,2.5625,-75.0625,241
1695648231808,-1.2324219,-0.28320312,0.020507812,-19.78125,-63.3125,0.5,0.0,0.0,0.0,242
1695648231848,-1.2939453,-0.28027344,0.036132812,119.8125,-101.96875,-16.125,0.0,0.0,0.0,243
1695648231888,-1.0058594,0.20898438,-0.31152344,64.40625,-111.78125,-20.15625,0.0,0.0,0.0,244
1695648231928,-1.1591797,0.29882812,-0.140625,5.5625,-122.53125,-32.78125,0.0,0.0,0.0,245
1695648231968,-1.1005859,-0.0087890625,-0.0859375,-103.03125,-92.8125,-46.03125,0.0,0.0,0.0,246
1695648232008,-1.046875,0.17089844,-0.072265625,-70.8125,-61.625,-47.0,0.0,0.0,0.0,247
1695648232048,-1.0888672,-0.015625,0.09765625,-5.0625,-56.5,-60.4375,0.0,0.0,0.0,248
1695648232088,-1.0449219,-0.12011719,-0.15625,86.78125,-44.8125,-63.71875,0.0,0.0,0.0,249
1695648232128,-1.0361328,0.025390625,-0.17285156,134.71875,-84.8125,-55.1875,0.0,0.0,0.0,250
1695648232168,-0.8544922,0.18554688,0.07128906,146.5625,-65.875,-42.375,0.0,0.0,0.0,251
1695648232208,-0.6933594,0.15429688,0.07519531,141.59375,-30.1875,-27.15625,0.0,0.0,0.0,252
1695648232248,-0.6435547,0.21386719,0.09375,118.96875,0.65625,-16.40625,0.0,0.0,0.0,253
1695648232288,-0.53027344,0.2685547,0.31445312,37.96875,43.125,10.8125,-116.6875,-2.9375,-49.6875,254
1695648232328,-1.0058594,-0.111328125,0.5654297,15.8125,56.125,33.9375,0.0,0.0,0.0,255
1695648232368,-1.0117188,-0.064453125,0.7402344,-5.0625,57.53125,13.3125,0.0,0.0,0.0,256
1695648232408,-1.1904297,-0.44433594,0.66503906,-31.6875,36.46875,-10.8125,0.0,0.0,0.0,257
1695648232448,-0.8544922,-0.15527344,0.44140625,28.875,12.4375,-18.75,0.0,0.0,0.0,258
1695648232488,-1.0410156,0.3701172,-0.0546875,-82.53125,82.625,-7.875,0.0,0.0,0.0,259
1695648232528,-1.5322266,0.45410156,0.46777344,17.15625,3.15625,22.53125,0.0,0.0,0.0,260
1695648232568,-0.70214844,0.20605469,-0.10449219,-83.8125,38.1875,9.53125,0.0,0.0,0.0,261
1695648232608,-0.80078125,0.013671875,-0.41796875,-59.3125,49.53125,25.375,0.0,0.0,0.0,262
1695648232648,-1.1298828,-0.3359375,-0.14355469,-36.4375,40.9375,59.03125,0.0,0.0,0.0,263
1695648232688,-1.1015625,-0.20605469,-0.13574219,-24.0,75.0,19.96875,0.0,0.0,0.0,264
1695648232728,-0.9423828,-0.038085938,0.15332031,-73.25,3.875,-1.90625,0.0,0.0,0.0,265
1695648232768,-0.91015625,-0.05859375,-0.0625,-1.71875,57.28125,-8.84375,-118.5,-3.25,-64.5625,266
1695648232808,-0.9589844,-0.030273438,0.076171875,-93.625,40.375,-10.9375,0.0,0.0,0.0,267
1695648232848,-0.88671875,0.028320312,-0.0625,-40.28125,40.5625,0.78125,0.0,0.0,0.0,268
1695648232888,-0.94140625,0.09667969,0.00390625,-13.1875,40.25,9.875,0.0,0.0,0.0,269
1695648232928,-0.9746094,-0.171875,-0.17382812,8.90625,44.03125,29.34375,0.0,0.0,0.0,270
1695648232968,-0.97753906,-0.17675781,0.09375,42.375,65.65625,27.59375,0.0,0.0,0.0,271
1695648233008,-1.0742188,-0.021484375,0.0009765625,-3.96875,34.09375,8.0625,0.0,0.0,0.0,272
1695648233048,-0.95410156,-0.052734375,-0.15722656,-34.0625,15.40625,-0.84375,0.0,0.0,0.0,273
1695648233088,-1.0498047,0.0390625,-0.25878906,-18.5625,8.53125,-0.6875,0.0,0.0,0.0,274
1695648233128,-1.2294922,-0.047851562,0.076171875,-13.59375,-2.53125,2.5625,0.0,0.0,0.0,275
1695648233168,-1.2353516,-0.27929688,0.22167969,14.90625,-41.34375,-4.6875,0.0,0.0,0.0,276
1695648233208,-1.1259766,-0.19433594,0.1875,105.15625,-98.65625,-21.71875,0.0,0.0,0.0,277
1695648233248,-1.0576172,0.22949219,-0.049804688,58.03125,-144.9375,-9.28125,0.0,0.0,0.0,278
1695648233288,-1.1914062,0.34472656,-0.22167969,-21.125,-155.3125,2.0,-118.0625,-0.125,-65.625,279
1695648233328,-1.2089844,0.07128906,-0.076171875,-90.03125,-122.34375,-17.65625,0.0,0.0,0.0,280
1695648233368,-1.0615234,0.072265625,0.09765625,-77.34375,-70.71875,-33.3125,0.0,0.0,0.0,281
1695648233408,-1.0039062,-0.051757812,0.09375,-33.6875,-66.1875,-52.125,0.0,0.0,0.0,282
1695648233448,-0.95410156,-0.09667969,0.0048828125,24.28125,-50.1875,-48.59375,0.0,0.0,0.0,283
1695648233488,-0.86035156,0.005859375,0.076171875,81.46875,-58.125,-52.84375,0.0,0.0,0.0,284
1695648233528,-0.7138672,0.16699219,0.17578125,109.3125,-47.6875,-37.46875,0.0,0.0,0.0,285
1695648233568,-0.6845703,0.20605469,0.24804688,74.34375,-7.28125,-17.65625,0.0,0.0,0.0,286
1695648233608,-0.57714844,0.08496094,0.2919922,38.9375,18.34375,10.8125,0.0,0.0,0.0,287
1695648233648,-0.62890625,0.080078125,0.375,-16.125,64.25,27.84375,0.0,0.0,0.0,288
1695648233688,-1.0742188,-0.2734375,0.5908203,37.53125,67.0625,31.5,0.0,0.0,0.0,289
1695648233728,-1.1318359,-0.13378906,0.7675781,-0.84375,38.71875,4.625,0.0,0.0,0.0,290
1695648233768,-1.1347656,-0.16894531,0.71191406,-38.8125,9.1875,-5.0625,-116.25,-0.6875,-54.5,291
1695648233808,-0.71484375,0.05078125,0.24121094,-10.0625,30.625,-12.03125,0.0,0.0,0.0,292
1695648233848,-1.0449219,0.3857422,-0.29785156,-60.1875,72.53125,9.09375,0.0,0.0,0.0,293
1695648233888,-1.6005859,0.14550781,0.8457031,0.625,21.9375,17.625,0.0,0.0,0.0,294
1695648233928,-0.79296875,0.21289062,-0.25585938,-77.09375,38.5625,26.71875,0.0,0.0,0.0,295
1695648233968,-0.7089844,-0.11035156,-0.2421875,-37.21875,45.25,42.65625,0.0,0.0,0.0,296
1695648234008,-1.3046875,-0.26171875,-0.23925781,48.34375,79.5,44.8125,0.0,0.0,0.0,297
1695648234048,-0.8935547,-0.25683594,0.14355469,-81.3125,20.40625,-0.75,0.0,0.0,0.0,298
1695648234088,-0.9609375,0.119140625,-0.009765625,13.78125,49.53125,-9.875,0.0,0.0,0.0,299
1695648234128,-0.9746094,-0.080078125,-0.1484375,-20.5,61.25,-11.65625,0.0,0.0,0.0,300
1695648234168,-0.9902344,0.032226562,0.111328125,-77.9375,48.96875,-0.625,0.0,0.0,0.0,301
1695648234208,-0.9189453,-0.0126953125,-0.09375,-20.3125,41.84375,10.5,0.0,0.0,0.0,302
1695648234248,-0.9277344,-0.025390625,-0.14941406,-0.59375,45.3125,19.59375,0.0,0.0,0.0,303
1695648234288,-1.0048828,-0.009765625,-0.061523438,-6.03125,54.28125,31.25,-118.1875,-0.5625,-69.5,304
1695648234328,-0.9824219,-0.028320312,0.0009765625,-0.25,47.03125,24.90625,0.0,0.0,0.0,305
1695648234368,-1.0419922,-0.083984375,-0.034179688,-12.28125,28.0,22.59375,0.0,0.0,0.0,306
1695648234408,-1.0009766,-0.041992188,-0.06347656,-25.03125,22.9375,5.84375,0.0,0.0,0.0,307
1695648234448,-1.0097656,0.030273438,-0.044921875,-39.5,6.9375,1.46875,0.0,0.0,0.0,308
1695648234488,-1.2558594,-0.16699219,0.10546875,-6.59375,-7.03125,2.875,0.0,0.0,0.0,309
1695648234528,-1.3496094,-0.25097656,0.20117188,26.90625,-51.28125,-9.21875,0.0,0.0,0.0,310
1695648234568,-1.1669922,-0.1640625,0.12011719,122.625,-116.78125,-16.59375,0.0,0.0,0.0,311
1695648234608,-1.0048828,0.24902344,-0.09082031,59.5625,-150.78125,-12.75,0.0,0.0,0.0,312
1695648234648,-1.1367188,0.087890625,-0.38671875,1.84375,-142.71875,-2.875,0.0,0.0,0.0,313
1695648234688,-1.1337891,0.103515625,-0.037109375,-139.65625,-106.84375,-36.25,0.0,0.0,0.0,314
1695648234728,-1.1103516,0.052734375,0.22265625,-27.03125,-67.59375,-51.40625,0.0,0.0,0.0,315
1695648234768,-0.9189453,-0.109375,0.06542969,0.375,-59.65625,-59.75,-116.25,-4.3125,-53.75,316
1695648234808,-0.9160156,-0.11425781,-0.0546875,96.25,-56.1875,-53.65625,0.0,0.0,0.0,317
1695648234848,-0.8388672,0.12207031,0.047851562,130.9375,-43.0625,-52.375,0.0,0.0,0.0,318
1695648234888,-0.7236328,0.18847656,0.06738281,122.0,-9.65625,-32.03125,0.0,0.0,0.0,319
1695648234928,-0.7011719,0.22851562,0.18359375,87.53125,14.5625,-18.1875,0.0,0.0,0.0,320
1695648234968,-0.5488281,0.21386719,0.30273438,25.21875,42.75,2.375,0.0,0.0,0.0,321
1695648235008,-0.9140625,-0.076171875,0.41210938,8.3125,70.96875,26.90625,0.0,0.0,0.0,322
1695648235048,-0.9140625,-0.16601562,0.62597656,22.03125,46.0625,15.625,0.0,0.0,0.0,323
1695648235088,-1.2998047,-0.6455078,0.67578125,19.34375,43.1875,-20.9375,0.0,0.0,0.0,324
1695648235128,-0.89746094,-0.35253906,0.5957031,59.5,-15.28125,-26.4375,0.0,0.0,0.0,325
1695648235168,-0.91796875,0.4140625,-0.005859375,-0.3125,54.71875,-10.625,0.0,0.0,0.0,326
1695648235208,-1.7109375,0.4658203,0.22265625,23.6875,37.3125,8.0625,0.0,0.0,0.0,327
1695648235248,-0.77734375,0.34277344,0.15527344,-89.28125,9.3125,-0.625,0.0,0.0,0.0,328
1695648235288,-0.5126953,0.20019531,-0.57910156,-70.1875,63.4375,19.84375,-118.1875,-2.0625,-62.3125,329
1695648235328,-1.1132812,-0.3251953,-0.27148438,-20.5625,75.40625,46.03125,0.0,0.0,0.0,330
1695648235368,-1.1445312,-0.3984375,0.34765625,-112.125,18.40625,-10.0,0.0,0.0,0.0,331
1695648235408,-1.0341797,0.0,-0.09667969,-90.75,56.0625,-1.65625,0.0,0.0,0.0,332
1695648235448,-1.0810547,-0.017578125,-0.060546875,94.4375,33.1875,-0.5,0.0,0.0,0.0,333
1695648235488,-0.83691406,-0.111328125,-0.08203125,-43.34375,65.40625,-9.46875,0.0,0.0,0.0,334
1695648235528,-1.0039062,0.041015625,-0.032226562,-65.90625,40.25,-7.5625,0.0,0.0,0.0,335
1695648235568,-0.83984375,0.08496094,-0.08496094,-7.3125,33.78125,0.90625,0.0,0.0,0.0,336
1695648235608,-0.96875,0.0048828125,-0.22851562,8.3125,31.53125,23.1875,0.0,0.0,0.0,337
1695648235648,-1.0361328,-0.068359375,-0.08203125,2.1875,51.0625,30.5,0.0,0.0,0.0,338
1695648235688,-0.9667969,0.0087890625,-0.046875,-22.8125,41.78125,35.40625,0.0,0.0,0.0,339
1695648235728,-1.015625,-0.099609375,-0.14941406,-52.71875,21.75,21.90625,0.0,0.0,0.0,340
1695648235768,-1.0625,-0.06738281,-0.0029296875,-62.875,12.53125,4.9375,-118.8125,1.375,-73.875,341
1695648235808,-1.3857422,-0.0546875,0.1875,-53.28125,-5.40625,-6.65625,0.0,0.0,0.0,342
1695648235848,-1.3369141,-0.3173828,0.27148438,-23.3125,-72.65625,-20.28125,0.0,0.0,0.0,343
1695648235888,-1.0986328,-0.24023438,0.07910156,93.4375,-125.5,-26.1875,0.0,0.0,0.0,344
1695648235928,-1.0576172,0.26660156,-0.31347656,90.28125,-137.53125,-26.90625,0.0,0.0,0.0,345
1695648235968,-1.1445312,0.21875,-0.16015625,-15.5,-127.71875,-30.21875,0.0,0.0,0.0,346
1695648236008,-0.9980469,0.20996094,-0.047851562,-151.84375,-78.21875,-46.4375,0.0,0.0,0.0,347
1695648236048,-1.1103516,0.07714844,0.08300781,-80.0,-61.1875,-57.125,0.0,0.0,0.0,348
1695648236088,-1.0351562,-0.24707031,-0.091796875,-45.46875,-33.65625,-78.0,0.0,0.0,0.0,349
1695648236128,-0.92089844,-0.0703125,0.0048828125,59.625,-54.78125,-71.96875,0.0,0.0,0.0,350
1695648236168,-0.67285156,0.12207031,0.13378906,121.09375,-47.625,-24.34375,0.0,0.0,0.0,351
1695648236208,-0.6044922,0.20800781,0.18652344,93.625,-19.0,-0.5625,0.0,0.0,0.0,352
1695648236248,-0.52734375,0.203125,0.27734375,58.0,8.59375,20.6875,0.0,0.0,0.0,353
1695648236288,-0.7783203,-0.061523438,0.3779297,23.25,30.0625,35.28125,-114.4375,-6.875,-51.0625,354
1695648236328,-0.9121094,-0.1796875,0.5419922,59.09375,28.21875,35.9375,0.0,0.0,0.0,355
1695648236368,-0.9736328,-0.46679688,0.50878906,41.375,32.0625,5.96875,0.0,0.0,0.0,356
1695648236408,-1.1982422,-0.10253906,0.68652344,-33.1875,26.59375,1.9375,0.0,0.0,0.0,357
1695648236448,-1.0996094,0.091796875,0.2705078,33.5625,26.34375,-10.75,0.0,0.0,0.0,358
1695648236488,-1.2851562,0.49023438,-0.02734375,-66.71875,35.9375,15.125,0.0,0.0,0.0,359
1695648236528,-1.1904297,0.09277344,0.4248047,-41.5625,46.375,1.875,0.0,0.0,0.0,360
1695648236568,-0.55859375,0.08886719,-0.3984375,-102.46875,49.15625,21.40625,0.0,0.0,0.0,361
1695648236608,-0.95214844,-0.27246094,-0.08691406,-40.34375,49.65625,29.59375,0.0,0.0,0.0,362
1695648236648,-1.0957031,-0.24902344,-0.19335938,16.3125,28.28125,54.9375,0.0,0.0,0.0,363
1695648236688,-1.0234375,0.045898438,0.17675781,-61.8125,64.375,13.65625,0.0,0.0,0.0,364
1695648236728,-0.9248047,-0.1484375,-0.28222656,22.21875,63.5,-10.5,0.0,0.0,0.0,365
1695648236768,-0.9902344,0.17480469,0.024414062,2.3125,35.6875,-3.0,-119.125,-0.6875,-62.125,366
1695648236808,-0.890625,0.036132812,-0.0126953125,-53.59375,57.03125,-1.78125,0.0,0.0,0.0,367
1695648236848,-0.9326172,-0.009765625,-0.06347656,-43.21875,50.21875,4.34375,0.0,0.0,0.0,368
1695648236888,-0.9316406,0.1015625,0.017578125,-26.71875,54.53125,10.875,0.0,0.0,0.0,369
1695648236928,-0.97753906,-0.123046875,-0.18945312,-9.15625,44.78125,36.0625,0.0,0.0,0.0,370
1695648236968,-1.0019531,-0.17773438,0.022460938,-4.5625,55.6875,30.5,0.0,0.0,0.0,371
1695648237008,-1.046875,-0.040039062,0.045898438,6.53125,38.1875,21.96875,0.0,0.0,0.0,372
1695648237048,-1.0722656,-0.09375,-0.13671875,-20.875,23.59375,10.5625,0.0,0.0,0.0,373
1695648237088,-1.0986328,-0.028320312,-0.078125,-21.0625,11.4375,-1.84375,0.0,0.0,0.0,374
1695648237128,-1.1621094,-0.037109375,0.12890625,-32.84375,-4.375,-2.8125,0.0,0.0,0.0,375
1695648237168,-1.234375,-0.2685547,0.171875,-24.46875,-50.5,-5.375,0.0,0.0,0.0,376
1695648237208,-1.3076172,-0.19238281,0.20410156,55.125,-118.75,-22.28125,0.0,0.0,0.0,377
1695648237248,-1.1005859,-0.072265625,-0.15527344,134.71875,-161.53125,-29.96875,0.0,0.0,0.0,378
1695648237288,-1.2490234,0.3203125,-0.29101562,-17.21875,-128.375,-21.0,-116.5625,0.1875,-63.9375,379
1695648237328,-1.1494141,0.07910156,0.037109375,-185.4375,-105.5,-48.28125,0.0,0.0,0.0,380
1695648237368,-1.0039062,0.030273438,0.19238281,-3.34375,-38.25,-51.875,0.0,0.0,0.0,381
1695648237408,-1.0107422,-0.044921875,-0.00390625,-31.625,-42.25,-75.75,0.0,0.0,0.0,382
1695648237448,-0.9951172,-0.10644531,-0.04296875,56.40625,-51.1875,-61.78125,0.0,0.0,0.0,383
1695648237488,-0.89160156,0.0546875,-0.051757812,145.5,-64.96875,-52.0,0.0,0.0,0.0,384
1695648237528,-0.6064453,0.16308594,0.109375,149.90625,-37.5625,-20.09375,0.0,0.0,0.0,385
1695648237568,-0.6113281,0.24804688,0.15039062,116.75,-4.125,-4.65625,0.0,0.0,0.0,386
1695648237608,-0.45410156,0.13964844,0.28808594,52.5625,28.65625,12.09375,0.0,0.0,0.0,387
1695648237648,-0.96875,-0.16015625,0.4189453,10.0,64.65625,29.125,0.0,0.0,0.0,388
1695648237688,-1.0664062,-0.047851562,0.65234375,37.59375,28.28125,22.53125,0.0,0.0,0.0,389
1695648237728,-1.0693359,-0.39160156,0.7207031,-17.75,38.375,-13.1875,0.0,0.0,0.0,390
1695648237768,-1.0302734,-0.359375,0.5644531,9.875,23.71875,-22.65625,-113.375,-0.4375,-56.625,391
1695648237808,-0.921875,0.32617188,0.015625,-29.0,50.5,-12.34375,0.0,0.0,0.0,392
1695648237848,-1.5625,0.4404297,0.578125,4.34375,37.25,10.25,0.0,0.0,0.0,393
1695648237888,-0.9394531,0.22363281,0.15625,-58.96875,-1.375,7.1875,0.0,0.0,0.0,394
1695648237928,-0.6455078,0.17871094,-0.33398438,-104.0625,21.40625,43.5625,0.0,0.0,0.0,395
1695648237968,-1.0292969,-0.2890625,-0.46679688,-14.09375,51.0,55.28125,0.0,0.0,0.0,396
1695648238008,-1.0410156,-0.6357422,0.21777344,-92.65625,8.6875,-19.34375,0.0,0.0,0.0,397
1695648238048,-0.9863281,0.20117188,0.0078125,-118.96875,73.15625,3.84375,0.0,0.0,0.0,398
1695648238088,-0.97753906,-0.05078125,-0.015625,45.15625,33.40625,10.1875,0.0,0.0,0.0,399
1695648238128,-0.96777344,-0.14941406,-0.021484375,-26.375,54.0625,-0.5625,0.0,0.0,0.0,400
1695648238168,-0.9121094,0.057617188,0.05078125,-25.5625,44.40625,1.40625,0.0,0.0,0.0,401
1695648238208,-0.9472656,0.00390625,-0.17578125,-6.53125,35.25,10.9375,0.0,0.0,0.0,402
1695648238248,-0.953125,-0.09765625,-0.15039062,7.875,43.6875,27.40625,0.0,0.0,0.0,403
1695648238288,-0.98046875,-0.06347656,-0.10253906,23.0625,49.03125,30.21875,-118.1875,-0.5625,-67.375,404
1695648238328,-0.96875,0.015625,-0.078125,5.5625,47.46875,31.5625,0.0,0.0,0.0,405
1695648238368,-1.0302734,-0.06640625,-0.111328125,-20.4375,38.78125,30.625,0.0,0.0,0.0,406
1695648238408,-1.0292969,-0.078125,-0.0625,-7.6875,28.59375,21.71875,0.0,0.0,0.0,407
1695648238448,-1.0722656,-0.052734375,-0.021484375,-23.6875,18.34375,9.40625,0.0,0.0,0.0,408
1695648238488,-1.0986328,0.0068359375,0.19824219,-41.0,5.03125,5.0625,0.0,0.0,0.0,409
1695648238528,-1.1982422,-0.23339844,0.25,-2.9375,-28.03125,5.0,0.0,0.0,0.0,410
1695648238568,-1.2304688,-0.1640625,0.31347656,38.8125,-101.15625,-8.71875,0.0,0.0,0.0,411
1695648238608,-1.1220703,-0.12890625,-0.29589844,125.5,-151.34375,-29.96875,0.0,0.0,0.0,412
1695648238648,-1.2890625,0.390625,-0.48828125,-5.78125,-118.5,-31.0,0.0,0.0,0.0,413
1695648238688,-1.0869141,0.21386719,-0.0390625,-84.96875,-91.09375,-35.90625,0.0,0.0,0.0,414
1695648238728,-0.9970703,0.34277344,-0.119140625,-93.03125,-69.90625,-24.65625,0.0,0.0,0.0,415
1695648238768,-1.0019531,-0.06738281,0.08300781,-61.8125,-47.21875,-50.90625,-114.125,0.3125,-56.9375,416
1695648238808,-1.0136719,-0.0029296875,-0.022460938,19.21875,-43.375,-47.0,0.0,0.0,0.0,417
1695648238848,-0.9042969,-0.021484375,-0.016601562,86.96875,-63.0,-46.4375,0.0,0.0,0.0,418
1695648238888,-0.75683594,0.13964844,0.1015625,97.21875,-43.96875,-32.96875,0.0,0.0,0.0,419
1695648238928,-0.65234375,0.068359375,0.11425781,102.90625,-22.4375,-12.40625,0.0,0.0,0.0,420
1695648238968,-0.68652344,0.171875,0.24316406,43.59375,9.875,4.09375,0.0,0.0,0.0,421
1695648239008,-0.87109375,-0.111328125,0.41992188,36.6875,15.40625,22.28125,0.0,0.0,0.0,422
1695648239048,-0.9033203,-0.053710938,0.5888672,18.3125,21.59375,13.78125,0.0,0.0,0.0,423
1695648239088,-0.9404297,-0.16503906,0.51660156,6.46875,28.40625,-1.21875,0.0,0.0,0.0,424
1695648239128,-0.9638672,-0.3203125,0.5449219,21.25,27.375,-2.875,0.0,0.0,0.0,425
1695648239168,-0.890625,-0.032226562,0.421875,11.84375,35.125,-12.34375,0.0,0.0,0.0,426
1695648239208,-1.2998047,0.4609375,0.12695312,-81.3125,80.53125,-9.65625,0.0,0.0,0.0,427
1695648239248,-1.8701172,0.4482422,0.6982422,30.40625,7.3125,11.59375,0.0,0.0,0.0,428
1695648239288,-0.22167969,0.23046875,-0.33691406,-179.25,6.625,24.15625,-115.8125,-1.3125,-59.4375,429
1695648239328,-1.0947266,-0.06738281,-0.3876953,-101.4375,68.34375,33.3125,0.0,0.0,0.0,430
1695648239368,-1.0029297,-0.22753906,-0.16796875,37.53125,95.8125,80.125,0.0,0.0,0.0,431
1695648239408,-1.3251953,-0.37597656,0.13671875,-62.5625,20.3125,28.5,0.0,0.0,0.0,432
1695648239448,-0.8964844,-0.10058594,-0.076171875,-2.5625,60.40625,1.28125,0.0,0.0,0.0,433
1695648239488,-0.93359375,-0.060546875,-0.03125,51.6875,34.6875,2.5625,0.0,0.0,0.0,434
1695648239528,-1.0263672,-0.095703125,0.0029296875,-35.09375,43.0,-9.09375,0.0,0.0,0.0,435
1695648239568,-0.9404297,0.04296875,-0.013671875,-46.375,46.90625,-13.0,0.0,0.0,0.0,436
1695648239608,-0.90722656,0.064453125,-0.12988281,-36.3125,39.875,3.0625,0.0,0.0,0.0,437
1695648239648,-1.0009766,-0.01953125,-0.15234375,11.65625,51.25,26.84375,0.0,0.0,0.0,438
1695648239688,-0.92871094,0.038085938,0.048828125,7.21875,64.25,31.6875,0.0,0.0,0.0,439
1695648239728,-0.99609375,-0.0234375,-0.07714844,-5.5,38.84375,29.59375,0.0,0.0,0.0,440
1695648239768,-1.0996094,-0.18066406,-0.2626953,-17.625,15.84375,17.8125,-116.875,2.0,-72.375,441
1695648239808,-1.0947266,0.06542969,-0.01171875,-19.34375,9.8125,1.15625,0.0,0.0,0.0,442
1695648239848,-1.0488281,0.029296875,0.18945312,-51.6875,-7.34375,0.4375,0.0,0.0,0.0,443
1695648239888,-1.2070312,-0.29003906,0.24511719,-39.375,-49.90625,-3.25,0.0,0.0,0.0,444
1695648239928,-1.2451172,-0.3984375,0.140625,80.625,-121.4375,-23.6875,0.0,0.0,0.0,445
1695648239968,-1.1728516,-0.06347656,-0.26953125,139.78125,-156.46875,-40.59375,0.0,0.0,0.0,446
1695648240008,-1.390625,0.5888672,-0.4580078,-12.625,-137.1875,-23.375,0.0,0.0,0.0,447
1695648240048,-1.1347656,0.15234375,-0.034179688,-141.90625,-103.40625,-39.96875,0.0,0.0,0.0,448
1695648240088,-1.0742188,0.18457031,0.08203125,-87.9375,-73.03125,-31.1875,0.0,0.0,0.0,449
1695648240128,-0.9394531,-0.041992188,0.15136719,-72.3125,-43.53125,-57.75,0.0,0.0,0.0,450
1695648240168,-0.9394531,-0.06542969,-0.08203125,33.6875,-47.9375,-51.15625,0.0,0.0,0.0,451
1695648240208,-0.8857422,-0.028320312,-0.051757812,141.96875,-72.46875,-53.90625,0.0,0.0,0.0,452
1695648240248,-0.73535156,0.17578125,0.091796875,122.625,-35.5625,-40.09375,0.0,0.0,0.0,453
1695648240288,-0.7216797,0.23730469,0.19238281,84.53125,7.59375,-25.34375,-114.75,-5.9375,-50.4375,454
1695648240328,-0.5,0.10449219,0.23828125,54.375,31.09375,1.875,0.0,0.0,0.0,455
1695648240368,-0.9121094,-0.14257812,0.41796875,12.75,59.0,26.25,0.0,0.0,0.0,456
1695648240408,-1.0253906,-0.025390625,0.6533203,35.875,32.6875,24.53125,0.0,0.0,0.0,457
1695648240448,-1.0634766,-0.34375,0.6035156,12.5625,30.90625,-4.21875,0.0,0.0,0.0,458
1695648240488,-1.0,-0.3173828,0.4892578,15.8125,10.28125,-14.65625,0.0,0.0,0.0,459
1695648240528,-0.74316406,0.13183594,0.21582031,7.875,35.875,-16.59375,0.0,0.0,0.0,460
1695648240568,-1.1035156,0.44726562,-0.02734375,-58.96875,80.71875,5.6875,0.0,0.0,0.0,461
1695648240608,-1.4248047,0.10839844,0.67285156,28.25,20.78125,6.59375,0.0,0.0,0.0,462
1695648240648,-0.8417969,0.0859375,-0.22070312,-97.09375,21.53125,8.25,0.0,0.0,0.0,463
1695648240688,-0.91308594,-0.025390625,-0.115234375,-81.78125,20.0,16.90625,0.0,0.0,0.0,464
1695648240728,-0.93652344,-0.18847656,-0.21484375,-14.65625,65.90625,15.125,0.0,0.0,0.0,465
1695648240768,-1.171875,-0.234375,-0.032226562,-50.34375,20.84375,26.375,-118.9375,-3.875,-63.9375,466
1695648240808,-1.0117188,-0.030273438,-0.13574219,-30.53125,29.8125,17.21875,0.0,0.0,0.0,467
1695648240848,-1.0253906,0.028320312,-0.043945312,39.3125,37.25,6.53125,0.0,0.0,0.0,468
1695648240888,-0.9189453,-0.068359375,-0.1484375,-1.46875,61.5625,2.5625,0.0,0.0,0.0,469
1695648240928,-0.9472656,0.016601562,-0.0068359375,-81.3125,47.03125,2.3125,0.0,0.0,0.0,470
1695648240968,-0.9453125,-0.09375,-0.14453125,-35.03125,37.21875,11.46875,0.0,0.0,0.0,471
1695648241008,-0.99121094,-0.08691406,-0.10839844,11.84375,47.46875,19.84375,0.0,0.0,0.0,472
1695648241048,-1.0,0.06933594,0.056640625,41.03125,50.875,23.4375,0.0,0.0,0.0,473
1695648241088,-0.9863281,-0.07324219,-0.09863281,1.21875,34.8125,21.25,0.0,0.0,0.0,474
1695648241128,-1.0244141,-0.053710938,-0.095703125,2.1875,25.53125,11.96875,0.0,0.0,0.0,475
1695648241168,-1.0234375,0.056640625,-0.20019531,-49.4375,7.125,3.0625,0.0,0.0,0.0,476
1695648241208,-1.0888672,-0.0029296875,0.07421875,-25.9375,9.25,5.0,0.0,0.0,0.0,477
1695648241248,-1.1113281,-0.13769531,0.049804688,-32.21875,-3.375,12.9375,-115.1875,2.4375,-74.625,478
1695648241288,-1.1083984,-0.2548828,0.15722656,2.375,-31.03125,10.875,0.0,0.0,0.0,479
1695648241328,-1.2597656,-0.25585938,0.12011719,77.625,-94.75,-5.9375,0.0,0.0,0.0,480
1695648241368,-1.0849609,0.0,0.017578125,82.15625,-137.84375,-17.75,0.0,0.0,0.0,481
1695648241408,-1.2998047,0.16992188,-0.38378906,28.1875,-137.40625,-20.375,0.0,0.0,0.0,482
1695648241448,-1.1660156,0.19433594,-0.13574219,-95.59375,-92.75,-38.09375,0.0,0.0,0.0,483
1695648241488,-1.015625,0.23535156,0.044921875,-195.4375,-51.25,-45.59375,0.0,0.0,0.0,484
1695648241528,-1.0097656,0.1484375,0.1328125,-113.84375,-36.40625,-60.1875,0.0,0.0,0.0,485
1695648241568,-1.0097656,-0.119140625,-0.038085938,-28.8125,-36.40625,-61.9375,0.0,0.0,0.0,486
1695648241608,-1.0117188,-0.15527344,-0.03515625,93.1875,-81.15625,-45.96875,0.0,0.0,0.0,487
1695648241648,-0.79296875,0.18554688,0.015625,108.59375,-65.03125,-23.375,0.0,0.0,0.0,488
1695648241688,-0.6894531,0.19921875,0.13476562,94.0625,-22.125,-10.0,0.0,0.0,0.0,489
1695648241728,-0.5205078,0.12792969,0.15332031,51.34375,15.84375,4.875,0.0,0.0,0.0,490
1695648241768,-0.6201172,0.091796875,0.18066406,23.6875,51.5625,35.8125,-114.3125,-6.6875,-53.3125,491
1695648241808,-1.0820312,-0.123046875,0.49902344,35.53125,51.4375,44.0625,0.0,0.0,0.0,492
1695648241848,-1.0664062,-0.119140625,0.609375,-0.0625,34.21875,7.0625,0.0,0.0,0.0,493
1695648241888,-1.3447266,-0.6035156,0.5253906,-15.9375,15.71875,-14.59375,0.0,0.0,0.0,494
1695648241928,-0.72265625,-0.125,0.37304688,-7.6875,19.375,-20.15625,0.0,0.0,0.0,495
1695648241968,-0.9873047,0.42578125,-0.10644531,-64.28125,63.375,-0.78125,0.0,0.0,0.0,496
1695648242008,-1.4707031,0.39453125,0.66308594,45.21875,2.0,39.78125,0.0,0.0,0.0,497
1695648242048,-0.92871094,0.021484375,0.08984375,-99.59375,54.96875,1.875,0.0,0.0,0.0,498
1695648242088,-0.7519531,0.061523438,-0.4970703,-60.46875,51.59375,30.09375,0.0,0.0,0.0,499
1695648242128,-0.9863281,-0.21679688,-0.234375,-2.3125,41.65625,45.53125,0.0,0.0,0.0,500
1695648242168,-1.1767578,-0.3388672,-0.034179688,70.5625,45.03125,4.09375,0.0,0.0,0.0,501
1695648242208,-0.9189453,0.13476562,0.25390625,-83.125,20.25,12.625,0.0,0.0,0.0,502
1695648242248,-0.95214844,0.029296875,-0.265625,9.9375,40.625,-13.3125,-118.625,-2.0625,-65.75,503
1695648242288,-0.9316406,-0.15234375,0.048828125,-104.75,28.96875,-12.6875,0.0,0.0,0.0,504
1695648242328,-0.9658203,-0.02734375,0.0,-21.0625,36.65625,-3.84375,0.0,0.0,0.0,505
1695648242368,-0.8984375,0.009765625,-0.09863281,-20.125,36.53125,1.875,0.0,0.0,0.0,506
1695648242408,-0.9326172,-0.041015625,-0.23632812,17.40625,40.5,19.78125,0.0,0.0,0.0,507
1695648242448,-0.98828125,-0.09472656,-0.068359375,3.90625,59.0,29.71875,0.0,0.0,0.0,508
1695648242488,-0.96484375,0.08496094,0.017578125,18.3125,47.9375,21.0625,0.0,0.0,0.0,509
1695648242528,-1.0839844,-0.12597656,-0.12695312,-5.90625,16.8125,15.875,0.0,0.0,0.0,510
1695648242568,-1.0058594,0.033203125,-0.13769531,-26.84375,16.03125,-0.0625,0.0,0.0,0.0,511
1695648242608,-1.0214844,0.059570312,-0.12109375,-34.90625,9.6875,0.25,0.0,0.0,0.0,512
1695648242648,-1.1767578,-0.0390625,0.0859375,-23.25,-2.40625,4.03125,0.0,0.0,0.0,513
1695648242688,-1.0917969,-0.2841797,0.1328125,-17.9375,-34.09375,-1.96875,0.0,0.0,0.0,514
1695648242728,-1.2441406,-0.12988281,0.30371094,66.90625,-67.40625,-21.375,0.0,0.0,0.0,515
1695648242768,-1.1201172,-0.025390625,-0.001953125,37.78125,-135.09375,-16.0,-116.875,-0.25,-69.5,516
1695648242808,-1.1845703,0.18457031,-0.24316406,42.0,-143.65625,-21.78125,0.0,0.0,0.0,517
1695648242848,-1.2402344,0.16308594,-0.20605469,-140.5625,-106.84375,-39.96875,0.0,0.0,0.0,518
1695648242888,-1.0771484,0.13378906,0.016601562,-201.71875,-65.59375,-51.34375,0.0,0.0,0.0,519
1695648242928,-1.0400391,0.08691406,0.099609375,-43.03125,-65.59375,-52.25,0.0,0.0,0.0,520
1695648242968,-1.0205078,0.015625,0.038085938,0.0625,-62.15625,-53.09375,0.0,0.0,0.0,521
1695648243008,-1.0078125,-0.10839844,-0.046875,93.09375,-85.71875,-44.375,0.0,0.0,0.0,522
1695648243048,-0.8261719,0.09765625,0.06347656,137.75,-76.625,-10.875,0.0,0.0,0.0,523
1695648243088,-0.68066406,0.25390625,0.12402344,111.09375,-39.46875,-2.875,0.0,0.0,0.0,524
1695648243128,-0.5517578,0.23242188,0.16992188,48.9375,20.0625,5.4375,0.0,0.0,0.0,525
1695648243168,-0.5234375,0.13671875,0.16601562,-2.3125,55.75,31.8125,0.0,0.0,0.0,526
1695648243208,-0.93359375,-0.12792969,0.34179688,-14.78125,91.9375,43.34375,0.0,0.0,0.0,527
1695648243248,-1.1845703,-0.13671875,0.7216797,7.375,53.25,28.375,-113.5625,-5.9375,-51.5,528
1695648243288,-1.2705078,-0.4765625,0.79003906,-17.46875,32.375,-14.59375,0.0,0.0,0.0,529
1695648243328,-0.81152344,-0.28222656,0.5996094,5.96875,-5.40625,-25.34375,0.0,0.0,0.0,530
1695648243368,-0.8925781,0.53125,-0.21386719,-46.09375,70.46875,-8.59375,0.0,0.0,0.0,531
1695648243408,-1.4189453,0.45996094,0.3671875,33.8125,24.25,27.21875,0.0,0.0,0.0,532
1695648243448,-1.2197266,-0.0625,0.28710938,-94.0625,64.78125,-3.46875,0.0,0.0,0.0,533
1695648243488,-0.58691406,0.18066406,-0.48632812,-116.21875,41.15625,33.25,0.0,0.0,0.0,534
1695648243528,-1.0390625,-0.25195312,-0.26171875,-73.0,44.71875,26.59375,0.0,0.0,0.0,535
1695648243568,-1.15625,-0.3330078,-0.03515625,64.03125,40.6875,8.96875,0.0,0.0,0.0,536
1695648243608,-1.0673828,0.15234375,0.052734375,-75.6875,69.375,-8.5,0.0,0.0,0.0,537
1695648243648,-0.921875,-0.009765625,-0.21972656,-0.84375,46.1875,-2.125,0.0,0.0,0.0,538
1695648243688,-1.0175781,-0.109375,0.061523438,-11.65625,23.90625,6.90625,0.0,0.0,0.0,539
1695648243728,-0.99316406,-0.059570312,-0.026367188,-52.5,29.625,-3.96875,0.0,0.0,0.0,540
1695648243768,-0.9394531,-0.0234375,-0.08203125,-10.75,31.34375,-3.125,-118.8125,-7.625,-63.5,541
1695648243808,-0.9042969,0.0390625,-0.125,-21.46875,29.21875,8.25,0.0,0.0,0.0,542
1695648243848,-0.9638672,-0.08496094,-0.14257812,11.0,34.53125,19.46875,0.0,0.0,0.0,543
1695648243888,-1.0039062,-0.07519531,-0.018554688,14.34375,43.625,15.5,0.0,0.0,0.0,544
1695648243928,-1.0263672,-0.05078125,-0.040039062,-3.1875,28.65625,10.875,0.0,0.0,0.0,545
1695648243968,-0.9785156,-0.11035156,-0.13378906,1.84375,12.0625,8.65625,0.0,0.0,0.0,546
1695648244008,-1.0107422,-0.020507812,-0.17480469,-22.46875,10.40625,-3.65625,0.0,0.0,0.0,547
1695648244048,-1.0478516,0.13085938,0.028320312,-16.40625,18.09375,-5.0625,0.0,0.0,0.0,548
1695648244088,-1.0683594,-0.0859375,-0.022460938,-23.25,0.40625,8.25,0.0,0.0,0.0,549
1695648244128,-1.2021484,-0.38476562,0.1015625,-7.875,-19.25,4.6875,0.0,0.0,0.0,550
1695648244168,-1.3476562,-0.21582031,0.34570312,68.90625,-62.28125,-9.65625,0.0,0.0,0.0,551
1695648244208,-1.1601562,0.04296875,-0.1328125,52.125,-130.03125,-10.5,0.0,0.0,0.0,552
1695648244248,-1.1132812,0.091796875,-0.27539062,55.1875,-154.5625,-10.125,-117.125,-5.1875,-63.9375,553
1695648244288,-1.3183594,0.15722656,-0.24707031,-185.4375,-115.375,-36.0625,0.0,0.0,0.0,554
1695648244328,-1.0527344,0.19140625,-0.0146484375,-194.9375,-62.90625,-43.28125,0.0,0.0,0.0,555
1695648244368,-1.1806641,-0.005859375,0.12695312,-73.125,-46.90625,-53.53125,0.0,0.0,0.0,556
1695648244408,-0.98828125,-0.24316406,-0.09472656,19.15625,-61.78125,-58.65625,0.0,0.0,0.0,557
1695648244448,-0.93359375,-0.0625,-0.033203125,67.03125,-80.59375,-39.6875,0.0,0.0,0.0,558
1695648244488,-0.75097656,0.09472656,0.041992188,150.34375,-68.375,-21.3125,0.0,0.0,0.0,559
1695648244528,-0.62890625,0.26953125,0.14941406,104.8125,-22.0625,-10.625,0.0,0.0,0.0,560
1695648244568,-0.5283203,0.13476562,0.19921875,53.46875,27.0625,1.15625,0.0,0.0,0.0,561
1695648244608,-0.6933594,-0.00390625,0.24804688,4.21875,59.96875,31.5625,0.0,0.0,0.0,562
1695648244648,-1.1699219,-0.12011719,0.6533203,71.46875,34.03125,53.78125,0.0,0.0,0.0,563
1695648244688,-0.9785156,-0.22363281,0.7138672,5.75,31.21875,5.625,0.0,0.0,0.0,564
1695648244728,-1.34375,-0.31933594,0.6699219,-11.15625,14.4375,-5.96875,0.0,0.0,0.0,565
1695648244768,-0.7451172,0.028320312,0.14648438,24.0,25.4375,-21.4375,-112.625,-6.4375,-51.375,566
1695648244808,-1.1132812,0.5957031,-0.005859375,-79.03125,59.65625,11.84375,0.0,0.0,0.0,567
1695648244848,-1.5224609,0.18847656,0.8232422,0.0,41.34375,14.15625,0.0,0.0,0.0,568
1695648244888,-0.6953125,-0.078125,-0.39648438,-76.40625,28.53125,5.625,0.0,0.0,0.0,569
1695648244928,-0.94628906,-0.125,0.0029296875,-45.65625,28.46875,13.90625,0.0,0.0,0.0,570
1695648244968,-0.97265625,-0.123046875,-0.2109375,55.0625,33.125,31.4375,0.0,0.0,0.0,571
1695648245008,-1.1083984,0.064453125,0.20605469,-91.0625,53.0625,-0.25,0.0,0.0,0.0,572
1695648245048,-1.0273438,-0.05078125,-0.171875,-31.125,53.625,-1.34375,0.0,0.0,0.0,573
1695648245088,-1.0009766,-0.09863281,-0.068359375,19.59375,40.8125,2.5,0.0,0.0,0.0,574
1695648245128,-0.92578125,0.01953125,-0.029296875,1.59375,46.46875,5.0,0.0,0.0,0.0,575
1695648245168,-1.0068359,-0.01171875,-0.020507812,-11.46875,50.6875,5.0625,0.0,0.0,0.0,576
1695648245208,-0.94140625,0.0087890625,-0.041015625,-37.34375,51.5625,4.21875,0.0,0.0,0.0,577
1695648245248,-0.9423828,-0.083984375,-0.09375,-18.1875,48.375,15.8125,-120.3125,-5.375,-64.875,578
1695648245288,-0.96191406,-0.07421875,-0.00390625,6.53125,53.875,24.28125,0.0,0.0,0.0,579
1695648245328,-1.0068359,-0.033203125,0.032226562,2.9375,44.90625,20.09375,0.0,0.0,0.0,580
1695648245368,-1.0341797,-0.10058594,-0.06640625,-16.0,25.25,13.5,0.0,0.0,0.0,581
1695648245408,-1.0175781,0.0029296875,-0.1171875,-35.21875,17.90625,-1.34375,0.0,0.0,0.0,582
1695648245448,-1.03125,0.0,-0.18554688,-26.4375,17.6875,2.0625,0.0,0.0,0.0,583
1695648245488,-1.0664062,0.07128906,0.087890625,-24.03125,16.03125,2.375,0.0,0.0,0.0,584
1695648245528,-1.1513672,-0.1953125,-0.041015625,-26.84375,-5.34375,9.53125,0.0,0.0,0.0,585
1695648245568,-1.2822266,-0.2919922,0.140625,12.40625,-32.6875,2.4375,0.0,0.0,0.0,586
1695648245608,-1.2910156,-0.09082031,0.16113281,71.90625,-100.96875,-12.09375,0.0,0.0,0.0,587
1695648245648,-0.9921875,0.12109375,-0.0087890625,16.96875,-141.03125,-9.15625,0.0,0.0,0.0,588
1695648245688,-1.0947266,-0.009765625,-0.35253906,34.5625,-129.0,-8.90625,0.0,0.0,0.0,589
1695648245728,-1.1416016,0.12695312,-0.083984375,-99.1875,-95.1875,-33.6875,0.0,0.0,0.0,590
1695648245768,-1.0351562,0.095703125,-0.072265625,-110.15625,-58.5625,-38.15625,-115.1875,-5.0625,-53.4375,591
1695648245808,-0.9628906,-0.0234375,-0.005859375,-41.6875,-31.28125,-49.75,0.0,0.0,0.0,592
1695648245848,-0.99902344,-0.13867188,-0.06347656,37.34375,-40.25,-52.4375,0.0,0.0,0.0,593
1695648245888,-0.9003906,-0.021484375,-0.0126953125,89.0625,-51.59375,-50.21875,0.0,0.0,0.0,594
1695648245928,-0.8076172,0.21972656,0.08691406,81.65625,-32.75,-36.3125,0.0,0.0,0.0,595
1695648245968,-0.74121094,0.12792969,0.20117188,89.125,-8.09375,-18.3125,0.0,0.0,0.0,596
1695648246008,-0.67871094,0.234375,0.24902344,46.15625,14.875,3.78125,0.0,0.0,0.0,597
1695648246048,-0.80859375,0.07519531,0.27246094,23.9375,18.21875,32.90625,0.0,0.0,0.0,598
1695648246088,-0.8798828,0.10253906,0.3564453,10.6875,20.59375,27.40625,0.0,0.0,0.0,599
1695648246128,-0.94921875,-0.4248047,0.34472656,34.96875,28.90625,-2.6875,0.0,0.0,0.0,600
1695648246168,-1.0498047,-0.5419922,0.4033203,-6.09375,42.9375,-5.6875,0.0,0.0,0.0,601
1695648246208,-1.0273438,-0.0068359375,0.43847656,-3.0,37.3125,-10.0,0.0,0.0,0.0,602
1695648246248,-1.1875,0.15136719,0.3232422,-2.8125,39.875,-18.1875,-114.4375,-6.4375,-52.125,603
1695648246288,-1.2724609,0.15039062,0.3876953,10.875,13.46875,2.25,0.0,0.0,0.0,604
1695648246328,-0.9082031,0.119140625,-0.072265625,-61.15625,6.5625,-7.15625,0.0,0.0,0.0,605
1695648246368,-0.8388672,0.16796875,-0.28027344,-25.3125,52.65625,8.25,0.0,0.0,0.0,606
1695648246408,-0.9980469,-0.1953125,-0.1328125,-24.21875,40.3125,35.59375,0.0,0.0,0.0,607
1695648246448,-1.0527344,-0.13183594,0.08691406,-17.8125,9.0,23.0,0.0,0.0,0.0,608
1695648246488,-1.0820312,-0.125,-0.15722656,-88.75,63.375,12.15625,0.0,0.0,0.0,609
1695648246528,-1.0283203,-0.15332031,0.08984375,26.90625,39.03125,4.75,0.0,0.0,0.0,610
1695648246568,-0.9511719,-0.125,-0.15527344,38.28125,32.8125,4.09375,0.0,0.0,0.0,611
1695648246608,-0.98339844,-0.045898438,-0.0107421875,-38.625,39.65625,-3.90625,0.0,0.0,0.0,612
1695648246648,-0.93066406,0.08300781,-0.10546875,-38.09375,43.78125,7.125,0.0,0.0,0.0,613
1695648246688,-0.91503906,-0.10449219,-0.09863281,-23.4375,44.84375,21.40625,0.0,0.0,0.0,614
1695648246728,-0.9921875,-0.13769531,0.029296875,23.5,55.875,31.375,0.0,0.0,0.0,615
1695648246768,-1.0097656,-0.09472656,-0.0107421875,29.375,40.4375,21.78125,-120.4375,-3.875,-66.0625,616
1695648246808,-0.9814453,-0.047851562,-0.19335938,-1.28125,27.5,16.96875,0.0,0.0,0.0,617
1695648246848,-0.9980469,0.125,-0.19726562,-16.0625,28.40625,10.4375,0.0,0.0,0.0,618
1695648246888,-1.0439453,0.11230469,-0.15625,-33.6875,17.4375,13.84375,0.0,0.0,0.0,619
1695648246928,-1.1035156,-0.009765625,-0.032226562,-21.40625,10.15625,16.65625,0.0,0.0,0.0,620
1695648246968,-1.2128906,-0.2109375,0.033203125,-30.46875,-9.71875,21.90625,0.0,0.0,0.0,621
1695648247008,-1.3496094,-0.3720703,0.09082031,74.28125,-47.03125,3.125,0.0,0.0,0.0,622
1695648247048,-1.1240234,-0.00390625,0.078125,44.5625,-105.0,-11.96875,0.0,0.0,0.0,623
1695648247088,-0.8984375,0.27148438,0.032226562,50.65625,-126.0,-13.125,0.0,0.0,0.0,624
1695648247128,-1.1220703,-0.08300781,-0.265625,21.5,-131.0,-17.59375,0.0,0.0,0.0,625
1695648247168,-1.1240234,0.046875,-0.08203125,-74.28125,-103.375,-28.09375,0.0,0.0,0.0,626
1695648247208,-1.1230469,0.15722656,-0.068359375,-90.8125,-71.8125,-36.0,0.0,0.0,0.0,627
1695648247248,-1.09375,-0.032226562,0.11621094,-13.0,-58.125,-50.28125,-114.75,-5.5,-52.875,628
1695648247288,-0.921875,-0.072265625,-0.0234375,20.875,-45.5,-55.84375,0.0,0.0,0.0,629
1695648247328,-0.9580078,-0.10644531,-0.0146484375,127.25,-71.125,-57.0,0.0,0.0,0.0,630
1695648247368,-0.83984375,0.1875,0.08300781,113.15625,-41.09375,-38.5,0.0,0.0,0.0,631
1695648247408,-0.77734375,0.09375,0.17871094,110.0,-12.125,-17.6875,0.0,0.0,0.0,632
1695648247448,-0.6044922,0.23730469,0.28125,62.4375,18.46875,-8.5625,0.0,0.0,0.0,633
1695648247488,-0.8232422,0.048828125,0.33398438,21.0,40.1875,17.46875,0.0,0.0,0.0,634
1695648247528,-0.96484375,-0.009765625,0.546875,22.53125,20.65625,33.25,0.0,0.0,0.0,635
1695648247568,-0.86035156,-0.17382812,0.4658203,29.1875,20.65625,4.875,0.0,0.0,0.0,636
1695648247608,-1.1230469,-0.6425781,0.43847656,-5.375,25.90625,-18.5,0.0,0.0,0.0,637
1695648247648,-0.9238281,-0.11035156,0.36132812,22.71875,28.40625,-23.5625,0.0,0.0,0.0,638
1695648247688,-0.9355469,0.18457031,0.29492188,-9.8125,43.625,-15.4375,0.0,0.0,0.0,639
1695648247728,-1.2890625,0.25683594,0.25,-5.5,63.3125,9.09375,0.0,0.0,0.0,640
1695648247768,-1.1220703,0.10644531,0.359375,-33.09375,25.96875,12.9375,-118.1875,-3.125,-57.0625,641
1695648247808,-0.7910156,0.0107421875,-0.22167969,-45.28125,36.84375,19.71875,0.0,0.0,0.0,642
1695648247848,-0.98046875,-0.28027344,-0.20214844,-14.09375,35.75,23.5,0.0,0.0,0.0,643
1695648247888,-1.0576172,-0.30566406,-0.12695312,-22.09375,36.40625,4.21875,0.0,0.0,0.0,644
1695648247928,-1.0019531,0.11816406,0.08984375,-80.6875,39.78125,40.28125,0.0,0.0,0.0,645
1695648247968,-1.0,0.0,-0.12988281,14.65625,-0.03125,-15.6875,0.0,0.0,0.0,646
1695648248008,-0.9921875,-0.026367188,0.032226562,64.9375,1.625,1.15625,0.0,0.0,0.0,647
1695648248048,-0.98339844,-0.07128906,-0.16308594,-13.5,40.1875,-6.28125,0.0,0.0,0.0,648
1695648248088,-0.9824219,0.12402344,0.055664062,-26.84375,54.53125,1.28125,0.0,0.0,0.0,649
1695648248128,-0.93066406,-0.041992188,-0.15429688,-14.65625,50.8125,11.15625,0.0,0.0,0.0,650
1695648248168,-0.9511719,0.001953125,-0.11230469,7.375,55.625,25.625,0.0,0.0,0.0,651
1695648248208,-0.9746094,-0.028320312,0.076171875,0.3125,56.25,39.0625,0.0,0.0,0.0,652
1695648248248,-1.046875,-0.11816406,-0.034179688,-8.96875,31.46875,24.90625,-118.9375,0.8125,-68.4375,653
1695648248288,-1.0146484,-0.08203125,-0.025390625,-23.5625,14.0625,5.78125,0.0,0.0,0.0,654
1695648248328,-0.9941406,-0.03125,-0.076171875,-46.15625,-4.1875,-2.5,0.0,0.0,0.0,655
1695648248368,-1.0078125,0.026367188,-0.064453125,-41.3125,0.15625,4.34375,0.0,0.0,0.0,656
1695648248408,-1.1201172,-0.21386719,0.044921875,0.125,-9.4375,15.9375,0.0,0.0,0.0,657
1695648248448,-1.3076172,-0.40625,0.16601562,91.96875,-32.1875,5.625,0.0,0.0,0.0,658
1695648248488,-1.2939453,-0.24511719,0.0625,103.28125,-86.5,-19.40625,0.0,0.0,0.0,659
1695648248528,-1.0410156,0.3388672,0.0087890625,47.0,-133.03125,-16.59375,0.0,0.0,0.0,660
1695648248568,-1.1660156,0.28710938,-0.2998047,34.90625,-149.25,-10.9375,0.0,0.0,0.0,661
1695648248608,-1.1640625,0.051757812,-0.10449219,-73.25,-112.5,-19.90625,0.0,0.0,0.0,662
1695648248648,-0.9765625,-0.04296875,-0.0009765625,-81.59375,-63.9375,-33.8125,0.0,0.0,0.0,663
1695648248688,-1.078125,-0.034179688,0.09375,-27.15625,-54.21875,-46.8125,0.0,0.0,0.0,664
1695648248728,-0.89746094,-0.13671875,-0.09667969,45.34375,-33.46875,-58.21875,0.0,0.0,0.0,665
1695648248768,-0.9902344,-0.095703125,0.032226562,114.6875,-43.375,-51.9375,-115.625,-0.6875,-47.625,666
1695648248808,-0.7792969,0.10253906,0.06542969,116.8125,-21.6875,-33.8125,0.0,0.0,0.0,667
1695648248848,-0.78027344,0.2265625,0.12109375,109.125,5.65625,-16.84375,0.0,0.0,0.0,668
1695648248888,-0.6738281,0.28027344,0.3251953,83.125,23.21875,-6.59375,0.0,0.0,0.0,669
1695648248928,-0.8359375,0.13378906,0.38085938,15.625,37.875,14.21875,0.0,0.0,0.0,670
1695648248968,-0.84765625,0.038085938,0.51660156,1.84375,31.40625,19.40625,0.0,0.0,0.0,671
1695648249008,-0.87890625,-0.35742188,0.4716797,21.3125,43.3125,2.125,0.0,0.0,0.0,672
1695648249048,-1.0625,-0.578125,0.3876953,-14.65625,37.6875,-17.40625,0.0,0.0,0.0,673
1695648249088,-0.8232422,-0.016601562,0.453125,18.75,21.46875,-19.21875,0.0,0.0,0.0,674
1695648249128,-1.21875,0.48828125,0.21386719,-69.34375,63.6875,-15.6875,0.0,0.0,0.0,675
1695648249168,-1.9111328,0.4814453,0.7363281,52.5625,6.5625,32.78125,0.0,0.0,0.0,676
1695648249208,-0.6435547,-0.072265625,-0.26367188,-114.0625,30.5,16.71875,0.0,0.0,0.0,677
1695648249248,-0.79589844,-0.009765625,-0.5078125,-79.65625,70.71875,10.5625,-121.1875,0.5,-59.9375,678
1695648249288,-1.0273438,-0.18847656,-0.123046875,50.90625,38.0,41.0,0.0,0.0,0.0,679
1695648249328,-1.1904297,-0.21484375,0.1171875,-16.21875,20.1875,5.84375,0.0,0.0,0.0,680
1695648249368,-0.8798828,-0.1484375,-0.21289062,8.1875,43.375,-15.3125,0.0,0.0,0.0,681
1695648249408,-1.0166016,0.171875,0.025390625,10.5,25.90625,-8.25,0.0,0.0,0.0,682
1695648249448,-0.9189453,-0.040039062,0.016601562,-47.1875,30.96875,-0.0625,0.0,0.0,0.0,683
1695648249488,-1.0683594,-0.055664062,-0.06542969,-65.25,36.40625,-1.15625,0.0,0.0,0.0,684
1695648249528,-0.95214844,-0.005859375,-0.12695312,-27.15625,33.96875,2.3125,0.0,0.0,0.0,685
1695648249568,-0.92871094,0.032226562,-0.115234375,-6.34375,39.65625,14.78125,0.0,0.0,0.0,686
1695648249608,-1.0029297,-0.057617188,-0.036132812,19.28125,45.0625,28.1875,0.0,0.0,0.0,687
1695648249648,-0.9902344,-0.1328125,-0.06542969,0.6875,38.59375,23.4375,0.0,0.0,0.0,688
1695648249688,-1.0703125,-0.043945312,0.028320312,8.71875,31.96875,16.78125,0.0,0.0,0.0,689
1695648249728,-1.0429688,-0.05859375,-0.06542969,-31.8125,4.5,5.5,0.0,0.0,0.0,690
1695648249768,-0.98535156,-0.059570312,-0.16894531,-39.78125,-4.90625,1.15625,-122.125,5.75,-70.6875,691
1695648249808,-1.0146484,0.021484375,0.048828125,-17.5,8.46875,0.4375,0.0,0.0,0.0,692
1695648249848,-1.09375,-0.064453125,0.026367188,-18.4375,-17.78125,6.78125,0.0,0.0,0.0,693
1695648249888,-1.2705078,-0.27929688,0.20800781,53.78125,-45.0,-5.625,0.0,0.0,0.0,694
1695648249928,-1.1728516,-0.040039062,0.06347656,60.25,-101.71875,-13.5,0.0,0.0,0.0,695
1695648249968,-1.0439453,0.33789062,-0.034179688,24.0,-131.3125,-10.75,0.0,0.0,0.0,696
1695648250008,-1.1230469,0.20019531,-0.26757812,-20.75,-130.28125,-8.78125,0.0,0.0,0.0,697
1695648250048,-1.0546875,0.046875,-0.06933594,-99.4375,-86.15625,-18.75,0.0,0.0,0.0,698
1695648250088,-1.0,0.19140625,-0.07421875,-96.875,-62.78125,-26.5625,0.0,0.0,0.0,699
1695648250128,-1.0371094,0.037109375,0.11328125,-32.96875,-56.1875,-30.46875,0.0,0.0,0.0,700
1695648250168,-0.8798828,0.00390625,-0.11425781,26.90625,-38.25,-39.625,0.0,0.0,0.0,701
1695648250208,-1.0058594,-0.0107421875,0.0,63.40625,-39.625,-36.4375,0.0,0.0,0.0,702
1695648250248,-0.7832031,0.09472656,0.14453125,73.96875,-22.25,-32.65625,-116.5625,-3.125,-47.75,703
1695648250288,-0.7939453,0.16210938,0.19628906,72.8125,-5.59375,-12.21875,0.0,0.0,0.0,704
1695648250328,-0.6904297,0.07128906,0.2841797,48.84375,16.875,0.375,0.0,0.0,0.0,705
1695648250368,-0.8642578,0.036132812,0.35253906,12.9375,36.09375,16.84375,0.0,0.0,0.0,706
1695648250408,-0.9326172,-0.04296875,0.4375,9.03125,24.9375,20.75,0.0,0.0,0.0,707
1695648250448,-0.9042969,-0.15332031,0.42285156,-7.03125,44.28125,4.15625,0.0,0.0,0.0,708
1695648250488,-1.0205078,-0.48242188,0.4482422,-15.6875,44.03125,-9.65625,0.0,0.0,0.0,709
1695648250528,-1.0185547,-0.13378906,0.3857422,2.9375,32.375,-17.65625,0.0,0.0,0.0,710
1695648250568,-0.9609375,0.2109375,0.29492188,-23.9375,37.9375,-9.875,0.0,0.0,0.0,711
1695648250608,-1.4033203,0.40039062,0.3701172,-9.34375,27.0625,17.5,0.0,0.0,0.0,712
1695648250648,-1.0322266,0.06640625,0.296875,-16.90625,25.125,0.25,0.0,0.0,0.0,713
1695648250688,-0.7626953,0.057617188,-0.4345703,-91.25,52.03125,12.5,0.0,0.0,0.0,714
1695648250728,-1.0283203,-0.20800781,-0.18652344,-39.125,51.125,21.1875,0.0,0.0,0.0,715
1695648250768,-1.0517578,-0.22558594,-0.14257812,32.96875,36.53125,26.78125,-120.625,-2.9375,-58.6875,716
1695648250808,-1.0537109,-0.095703125,0.09277344,-33.03125,11.6875,16.46875,0.0,0.0,0.0,717
1695648250848,-1.0351562,-0.115234375,-0.14453125,23.1875,21.8125,-14.78125,0.0,0.0,0.0,718
1695648250888,-0.96777344,0.0859375,-0.14453125,23.625,23.65625,-7.625,0.0,0.0,0.0,719
1695648250928,-0.9267578,-0.0546875,-0.13671875,-25.03125,43.0,1.03125,0.0,0.0,0.0,720
1695648250968,-0.96875,0.11035156,-0.0107421875,-58.34375,50.375,-0.3125,0.0,0.0,0.0,721
1695648251008,-0.9404297,-0.022460938,-0.18945312,-37.21875,46.125,12.75,0.0,0.0,0.0,722
1695648251048,-0.9785156,0.0078125,-0.020507812,4.34375,42.34375,25.75,0.0,0.0,0.0,723
1695648251088,-0.96972656,-0.15039062,-0.09863281,-12.6875,32.375,23.0,0.0,0.0,0.0,724
1695648251128,-1.0527344,-0.043945312,0.020507812,11.34375,34.46875,14.09375,0.0,0.0,0.0,725
1695648251168,-1.0,-0.06738281,-0.19335938,-27.65625,15.28125,7.75,0.0,0.0,0.0,726
1695648251208,-0.98828125,0.0234375,-0.14453125,-29.53125,15.0625,7.5,0.0,0.0,0.0,727
1695648251248,-1.0332031,0.0078125,-0.14355469,-42.40625,14.5,10.4375,-120.75,0.8125,-70.5625,728
1695648251288,-1.0947266,-0.13574219,-0.06542969,-31.84375,7.78125,15.5625,0.0,0.0,0.0,729
1695648251328,-1.2011719,-0.21386719,-0.080078125,-15.5,-3.25,11.09375,0.0,0.0,0.0,730
1695648251368,-1.3085938,-0.31640625,0.068359375,54.5625,-36.71875,-9.03125,0.0,0.0,0.0,731
1695648251408,-1.0771484,0.32714844,0.20996094,34.90625,-76.875,-21.3125,0.0,0.0,0.0,732
1695648251448,-0.9111328,0.11328125,0.036132812,30.65625,-132.90625,-18.625,0.0,0.0,0.0,733
1695648251488,-1.1904297,0.056640625,-0.18652344,44.9375,-136.875,-26.0,0.0,0.0,0.0,734
1695648251528,-1.1777344,0.2265625,-0.12890625,-76.09375,-106.53125,-29.1875,0.0,0.0,0.0,735
1695648251568,-1.1083984,0.09863281,0.029296875,-113.65625,-71.3125,-43.03125,0.0,0.0,0.0,736
1695648251608,-1.1386719,0.05078125,0.08203125,-43.9375,-61.0,-50.65625,0.0,0.0,0.0,737
1695648251648,-1.0449219,-0.0234375,-0.0107421875,-11.28125,-69.0,-58.0,0.0,0.0,0.0,738
1695648251688,-0.98046875,-0.017578125,0.0234375,50.21875,-76.4375,-53.40625,0.0,0.0,0.0,739
1695648251728,-0.76171875,0.04296875,0.10839844,119.03125,-57.09375,-19.15625,0.0,0.0,0.0,740
1695648251768,-0.6464844,0.22167969,0.15820312,86.96875,-26.6875,0.90625,-111.3125,-7.1875,-44.4375,741
1695648251808,-0.54003906,0.23730469,0.29101562,42.84375,9.5625,21.40625,0.0,0.0,0.0,742
1695648251848,-0.8457031,-0.068359375,0.33984375,-1.34375,51.3125,35.53125,0.0,0.0,0.0,743
1695648251888,-0.8466797,-0.036132812,0.5498047,-11.21875,54.53125,31.4375,0.0,0.0,0.0,744
1695648251928,-1.0332031,-0.3076172,0.4658203,-26.96875,76.5,-2.4375,0.0,0.0,0.0,745
1695648251968,-1.0527344,-0.234375,0.42089844,-40.03125,50.5,-4.53125,0.0,0.0,0.0,746
1695648252008,-1.0244141,0.13574219,0.4609375,-14.71875,38.90625,-11.46875,0.0,0.0,0.0,747
1695648252048,-1.0761719,0.32226562,0.040039062,-96.3125,52.21875,13.0625,0.0,0.0,0.0,748
1695648252088,-1.515625,0.19433594,0.5908203,10.5,29.15625,13.5625,0.0,0.0,0.0,749
1695648252128,-0.8203125,-0.02734375,-0.18554688,-73.90625,49.53125,10.75,0.0,0.0,0.0,750
1695648252168,-0.89941406,0.080078125,-0.296875,-68.28125,51.4375,17.46875,0.0,0.0,0.0,751
1695648252208,-0.92871094,-0.20996094,-0.080078125,-30.15625,12.0625,15.9375,0.0,0.0,0.0,752
1695648252248,-1.1445312,-0.13574219,-0.14160156,5.6875,34.15625,14.71875,-120.0,-5.1875,-56.4375,753
1695648252288,-1.0898438,0.020507812,-0.021484375,-82.59375,43.375,3.84375,0.0,0.0,0.0,754
1695648252328,-0.9316406,-0.024414062,-0.10839844,7.6875,37.4375,-10.0,0.0,0.0,0.0,755
1695648252368,-0.9970703,0.07714844,-0.052734375,-23.75,15.53125,-0.84375,0.0,0.0,0.0,756
1695648252408,-1.0117188,-0.13769531,-0.09375,-58.34375,39.28125,2.125,0.0,0.0,0.0,757
1695648252448,-1.0058594,0.0,-0.048828125,-42.46875,30.5625,-4.34375,0.0,0.0,0.0,758
1695648252488,-0.9560547,0.037109375,-0.10644531,-63.28125,36.78125,-0.6875,0.0,0.0,0.0,759
1695648252528,-0.9863281,-0.08691406,-0.10058594,-33.25,35.0625,17.21875,0.0,0.0,0.0,760
1695648252568,-0.984375,-0.0546875,0.06347656,-6.03125,45.1875,19.03125,0.0,0.0,0.0,761
1695648252608,-0.9863281,0.083984375,-0.017578125,-6.46875,37.5,17.6875,0.0,0.0,0.0,762
1695648252648,-0.9560547,-0.11816406,-0.15527344,-51.375,14.3125,19.09375,0.0,0.0,0.0,763
1695648252688,-1.125,-0.14257812,-0.27734375,-53.09375,1.375,6.71875,0.0,0.0,0.0,764
1695648252728,-1.1005859,0.0029296875,0.08203125,-43.03125,18.65625,-9.03125,0.0,0.0,0.0,765
1695648252768,-1.0351562,0.12207031,-0.072265625,-82.46875,-9.625,-8.84375,-120.625,-7.9375,-65.625,766
1695648252808,-1.2304688,-0.2421875,-0.04296875,-26.5,-33.09375,-12.9375,0.0,0.0,0.0,767
1695648252848,-1.140625,-0.0107421875,0.04296875,4.9375,-52.46875,-22.84375,0.0,0.0,0.0,768
1695648252888,-0.9121094,0.23730469,0.07910156,-14.46875,-87.0,-17.46875,0.0,0.0,0.0,769
1695648252928,-1.0605469,0.06640625,0.04296875,-41.625,-110.5,-18.5,0.0,0.0,0.0,770
1695648252968,-1.1113281,0.080078125,-0.2607422,-29.84375,-95.59375,-22.53125,0.0,0.0,0.0,771
1695648253008,-1.1230469,0.2529297,-0.16503906,-153.9375,-71.875,-22.28125,0.0,0.0,0.0,772
1695648253048,-1.0927734,0.22558594,0.06347656,-66.34375,-55.1875,-18.375,0.0,0.0,0.0,773
1695648253088,-1.0009766,0.0703125,0.053710938,-48.28125,-47.21875,-20.5,0.0,0.0,0.0,774
1695648253128,-0.9746094,-0.08203125,0.0068359375,-37.34375,-48.84375,-25.21875,0.0,0.0,0.0,775
1695648253168,-0.8330078,-0.01171875,0.15332031,10.125,-51.65625,-16.0,0.0,0.0,0.0,776
1695648253208,-0.7402344,0.103515625,0.21972656,33.8125,-30.125,-0.375,0.0,0.0,0.0,777
1695648253248,-0.71972656,-0.08105469,0.22851562,46.375,-6.0625,15.0,-110.125,-16.625,-45.6875,778
1695648253288,-0.76953125,-0.21191406,0.23339844,47.84375,21.46875,25.4375,0.0,0.0,0.0,779
1695648253328,-0.8730469,-0.15234375,0.42871094,43.03125,29.15625,12.75,0.0,0.0,0.0,780
