,timestamp,accel_x,accel_y,accel_z,gyro_x,gyro_y,gyro_z
0,1697605965,-0.72558594,0.27148438,0.63964844,-118.25,-66.65625,-41.09375
1,1697606005,-0.19628906,0.15722656,0.6923828,-63.625,39.34375,-49.6875
2,1697606045,-0.5683594,-0.13085938,0.005859375,34.84375,6.875,7.8125
3,1697606085,-0.56347656,-0.4638672,0.0234375,27.4375,81.59375,-0.1875
4,1697606125,-0.2783203,-0.5576172,0.28808594,-91.375,84.09375,-29.875
5,1697606165,-1.1494141,-0.55078125,0.9091797,-2.09375,29.84375,-14.0
6,1697606205,-1.5800781,-0.45898438,-0.64453125,-144.65625,291.625,-98.28125
7,1697606245,-1.4453125,0.16796875,0.7128906,137.6875,-76.5625,33.75
8,1697606285,-0.8300781,-0.15917969,-0.60253906,81.03125,51.8125,26.46875
9,1697606325,-0.80371094,-0.5917969,-0.05859375,52.84375,-27.25,52.65625
10,1697606365,-0.8251953,-0.9785156,-0.0625,127.3125,92.875,55.96875
11,1697606405,-0.8066406,-0.21972656,-0.0068359375,-103.71875,110.9375,4.0
12,1697606445,-0.7373047,-0.46484375,0.6660156,-21.375,35.3125,-7.71875
13,1697606485,-0.99902344,-0.21386719,0.3251953,-80.53125,22.25,-9.59375
14,1697606525,-1.1113281,0.19140625,-0.25683594,35.3125,-19.375,14.625
15,1697606565,-1.3525391,-0.5449219,0.5390625,176.375,-119.8125,35.03125
16,1697606605,-1.2802734,0.03515625,0.22167969,-91.1875,-167.5,-30.40625
17,1697606645,-1.2060547,0.5761719,0.57128906,-294.4375,-166.34375,39.96875
18,1697606685,-0.16894531,0.4814453,0.75683594,69.625,3.03125,-72.40625
19,1697606725,-0.52441406,-0.11035156,0.15332031,9.9375,18.0,-5.8125
20,1697606765,-0.44628906,-0.28027344,0.0107421875,7.5,58.28125,-14.0
21,1697606805,-0.44628906,-0.48535156,0.1328125,-114.28125,64.8125,8.71875
22,1697606845,-0.45410156,-0.4091797,0.30664062,-72.09375,33.5,14.75
23,1697606885,-2.0,-0.78808594,-1.0537109,-2.75,163.1875,-64.34375
24,1697606925,-1.7949219,-0.28125,0.4423828,46.1875,19.46875,14.21875
25,1697606965,-1.09375,-0.24511719,-0.23925781,166.0,-23.28125,37.65625
26,1697607005,-0.7529297,-0.8144531,-0.30273438,68.53125,-10.09375,74.5625
27,1697607045,-0.5957031,-0.82910156,0.14550781,125.03125,84.15625,36.71875
28,1697607085,-0.6699219,-0.13671875,-0.37402344,17.1875,147.625,-5.3125
29,1697607125,-1.09375,0.15136719,0.46484375,-38.84375,105.8125,11.28125
30,1697607165,-0.79003906,-0.609375,0.8378906,-64.46875,-4.28125,-6.4375
31,1697607205,-1.4003906,0.26953125,-0.33789062,-66.0,19.625,1.6875
32,1697607245,-1.4375,-0.068359375,0.07910156,180.96875,-107.5625,38.9375
33,1697607285,-1.4189453,-0.053710938,0.22070312,-10.6875,-136.5625,-33.28125
34,1697607325,-0.8261719,-1.1083984,-0.1171875,-140.40625,-265.09375,35.375
35,1697607365,-0.7558594,0.28222656,0.5,5.28125,-3.0625,-91.6875
36,1697607405,-0.30273438,0.23632812,0.37402344,-47.375,100.4375,-31.5625
37,1697607445,-0.54589844,-0.08300781,0.013671875,4.25,33.0625,-0.1875
38,1697607485,-0.49023438,-0.59472656,0.15429688,-103.71875,70.3125,12.9375
39,1697607525,-0.61035156,-0.73046875,0.45996094,-102.0625,51.1875,-7.78125
40,1697607565,-1.6699219,-1.3212891,1.3173828,108.125,4.25,-48.34375
41,1697607605,-1.7431641,-0.26953125,0.41210938,30.9375,65.71875,-101.9375
42,1697607645,-1.4013672,0.3251953,-0.40527344,91.28125,28.25,40.03125
43,1697607685,-0.8671875,-0.09472656,-0.5546875,-13.4375,-50.375,46.3125
44,1697607725,-0.9091797,-0.9355469,0.06640625,222.8125,10.90625,91.96875
45,1697607765,-0.5917969,-0.53222656,0.064453125,75.3125,21.53125,47.40625
46,1697607805,-0.734375,-0.4248047,-0.4326172,-10.40625,110.34375,15.96875
47,1697607845,-1.2314453,-0.2626953,0.45507812,77.3125,148.46875,27.75
48,1697607885,-0.92089844,-0.5126953,0.6611328,-49.34375,-2.46875,-23.34375
49,1697607925,-1.3818359,0.060546875,-0.2783203,-53.25,16.9375,0.78125
50,1697607965,-1.2255859,-0.4111328,0.25683594,152.75,-84.0625,14.875
51,1697608005,-1.2509766,-0.20898438,0.24707031,-18.75,-147.34375,-16.5
52,1697608045,-1.2041016,-0.07421875,0.29003906,-36.875,-154.375,-11.71875
53,1697608085,-0.6767578,0.5390625,0.31640625,-293.34375,-71.3125,30.625
54,1697608125,-0.38378906,0.31640625,0.31445312,58.53125,52.46875,-64.34375
55,1697608165,-0.61621094,-0.11816406,0.3251953,89.34375,65.09375,-8.625
56,1697608205,-0.4580078,-0.4580078,0.11816406,-110.625,60.46875,-12.46875
57,1697608245,-0.47460938,-0.67089844,0.3076172,-106.9375,25.125,-20.71875
58,1697608285,-1.8154297,-1.1162109,1.7578125,70.3125,15.71875,-22.78125
59,1697608325,-1.4150391,-0.23632812,-0.041992188,-51.15625,127.71875,-76.5
60,1697608365,-1.5429688,0.31933594,0.3701172,135.25,-54.8125,35.15625
61,1697608405,-0.85839844,0.02734375,-0.47753906,15.125,-14.59375,46.8125
62,1697608445,-0.7890625,-0.609375,0.047851562,36.0,-50.4375,72.5
63,1697608485,-0.60839844,-0.9296875,-0.33496094,156.90625,97.6875,30.125
64,1697608525,-0.68847656,-0.3408203,0.20996094,-88.625,143.84375,8.46875
65,1697608565,-0.88378906,-0.48339844,0.9941406,-135.5,14.5625,-33.59375
66,1697608605,-1.2783203,0.13671875,-0.26953125,-38.84375,10.3125,1.3125
67,1697608645,-1.0830078,-0.43359375,-0.12988281,116.375,12.5,34.09375
68,1697608685,-1.3779297,-0.72265625,0.4921875,47.46875,-81.875,6.03125
69,1697608725,-1.3740234,-0.19140625,0.41796875,-4.40625,-171.59375,-43.03125
70,1697608765,-1.1787109,0.31347656,0.20410156,7.5,-114.03125,-7.03125
71,1697608805,-0.80371094,0.5986328,0.25390625,-326.84375,-146.25,18.125
72,1697608845,-0.5449219,0.10449219,0.013671875,94.34375,113.21875,-75.21875
73,1697608885,-0.57128906,-0.18554688,0.39160156,98.75,52.40625,14.75
74,1697608925,-0.57421875,-0.47558594,0.18847656,-85.78125,30.5625,2.90625
75,1697608965,-0.59765625,-0.4794922,0.3486328,-122.28125,9.1875,-15.40625
76,1697609005,-1.7109375,-1.0478516,0.33691406,20.8125,108.75,-31.875
77,1697609045,-1.3232422,-0.24511719,0.10839844,11.59375,45.5625,-4.53125
78,1697609085,-1.3212891,-0.055664062,0.05859375,169.78125,-26.25,-10.6875
79,1697609125,-0.8984375,-0.24804688,-0.29785156,94.53125,-36.28125,39.21875
80,1697609165,-0.6855469,-0.6611328,0.17578125,63.8125,19.21875,67.625
81,1697609205,-0.7392578,-0.72558594,-0.5703125,107.21875,124.875,19.21875
82,1697609245,-0.6542969,-0.20898438,0.30664062,-35.28125,142.25,-7.28125
83,1697609285,-0.953125,-0.4580078,0.8339844,-61.0625,2.84375,-17.53125
84,1697609325,-1.5078125,0.16894531,-0.12207031,-38.90625,10.125,8.71875
85,1697609365,-1.2246094,-0.43847656,0.3154297,165.15625,-55.3125,30.1875
86,1697609405,-1.5068359,-0.46875,0.3388672,-29.625,-153.40625,-11.3125
87,1697609445,-0.9892578,-0.49316406,-0.033203125,-107.375,-262.96875,39.71875
88,1697609485,-0.29296875,0.6699219,0.46875,-241.03125,-75.40625,-45.125
89,1697609525,-0.359375,-0.013671875,0.2939453,108.5625,28.4375,-45.4375
90,1697609565,-0.78222656,-0.22851562,0.20800781,201.09375,17.1875,39.21875
91,1697609605,-0.66796875,-0.375,0.27246094,-102.0,65.15625,-7.59375
92,1697609645,-0.24316406,-0.8203125,0.24414062,-161.5,62.59375,-75.28125
93,1697609685,-1.0371094,-0.9296875,1.2070312,69.875,80.625,-63.5625
94,1697609725,-1.671875,-0.14257812,-0.4873047,-159.625,291.3125,-80.9375
95,1697609765,-1.5722656,0.6933594,0.11035156,163.125,-22.65625,61.09375
96,1697609805,-0.62597656,-0.08300781,-0.37402344,106.3125,10.1875,57.28125
97,1697609845,-1.0869141,-0.63964844,0.1328125,71.53125,-91.4375,83.53125
98,1697609885,-0.7128906,-1.0869141,-0.31640625,96.34375,127.78125,52.28125
99,1697609925,-0.65234375,-0.1171875,0.4453125,-183.0,120.15625,13.40625
100,1697609965,-0.77441406,-0.56933594,0.6074219,-64.84375,19.625,-13.5
101,1697610005,-1.0429688,-0.0107421875,0.24121094,-39.125,33.96875,-5.21875
102,1697610045,-1.1445312,-0.1640625,-0.13378906,32.625,-28.8125,10.46875
103,1697610085,-1.6337891,-0.6582031,0.36523438,130.125,-69.40625,24.8125
104,1697610125,-1.109375,-0.6220703,0.23242188,-95.71875,-248.625,4.5625
105,1697610165,-1.0556641,0.50390625,0.59375,-145.21875,-30.53125,-17.90625
106,1697610205,-0.47070312,0.36816406,0.234375,56.5,-9.84375,-70.375
107,1697610245,-0.64746094,-0.08984375,0.20507812,135.46875,49.4375,20.6875
108,1697610285,-0.6191406,-0.4111328,0.16308594,-80.34375,43.125,-11.71875
109,1697610325,-0.48242188,-0.3876953,0.13378906,-121.78125,34.34375,-6.96875
110,1697610365,-0.47753906,-0.56152344,0.52734375,-69.09375,23.0,-16.8125
111,1697610405,-1.9306641,-0.70996094,-0.7285156,-44.5625,212.4375,-2.53125
112,1697610445,-1.2451172,-0.25195312,0.24609375,50.03125,20.3125,11.03125
113,1697610485,-1.1523438,-0.12988281,-0.24511719,77.625,9.375,32.15625
114,1697610525,-0.81152344,-0.4921875,0.048828125,198.34375,-26.03125,59.4375
115,1697610565,-0.56933594,-0.7128906,0.21484375,73.09375,39.15625,46.375
116,1697610605,-0.671875,-0.5214844,-0.6455078,18.0625,74.6875,18.0625
117,1697610645,-0.7910156,-0.2578125,0.08105469,-97.84375,127.125,-8.375
118,1697610685,-1.2177734,-0.36035156,1.1777344,-20.59375,77.625,-2.6875
119,1697610725,-1.4326172,0.27734375,-0.27148438,-26.9375,-13.6875,2.0
120,1697610765,-1.4521484,-0.34472656,0.024414062,176.75,-114.09375,23.53125
121,1697610805,-1.3007812,-0.14453125,0.07324219,44.125,-135.9375,-3.1875
122,1697610845,-1.1542969,0.055664062,0.55566406,-63.5625,-132.65625,-15.15625
123,1697610885,-0.7216797,0.6123047,-0.015625,-236.03125,-92.0,-41.59375
124,1697610925,-0.5185547,0.0146484375,-0.055664062,14.625,21.71875,-3.90625
125,1697610965,-0.28320312,-0.34960938,0.1171875,63.03125,-15.8125,-6.1875
126,1697611005,-0.3173828,-0.45996094,0.2861328,-102.25,52.0625,1.875
127,1697611045,-0.4892578,-0.7890625,0.4873047,-56.21875,37.09375,3.59375
128,1697611085,-1.6445312,-2.0,0.3251953,-22.90625,-79.84375,-146.0
129,1697611125,-2.0,-0.22070312,0.828125,-42.25,-104.9375,-73.9375
130,1697611165,-1.2001953,0.45214844,-0.56152344,78.34375,62.84375,7.5625
131,1697611205,-0.39648438,-0.06542969,-0.57128906,126.4375,16.15625,71.15625
132,1697611245,-0.66503906,-0.6933594,0.20605469,229.71875,-103.65625,81.78125
133,1697611285,-0.61621094,-0.6640625,-0.001953125,15.625,166.5625,34.09375
134,1697611325,-0.5449219,-0.28808594,0.3935547,-115.375,63.65625,1.875
135,1697611365,-1.0517578,-0.6123047,0.6748047,-178.90625,57.40625,-10.28125
136,1697611405,-1.4326172,0.16699219,-0.061523438,41.78125,30.75,9.6875
137,1697611445,-1.2832031,-0.54296875,0.109375,147.125,-78.6875,19.53125
138,1697611485,-1.3574219,-0.3359375,0.24414062,42.15625,-108.34375,-8.8125
139,1697611525,-1.2080078,0.19628906,0.40234375,-12.28125,-160.96875,-32.96875
140,1697611565,-1.1123047,0.4892578,0.52246094,-150.65625,-100.0625,15.4375
141,1697611605,-0.4716797,0.140625,-0.17675781,-122.875,0.59375,-27.3125
142,1697611645,-0.66015625,-0.21484375,0.20410156,52.65625,2.65625,14.9375
143,1697611685,-0.5605469,-0.5595703,0.26757812,-59.59375,23.59375,20.375
144,1697611725,-0.37304688,-0.578125,0.28222656,-169.9375,28.25,-32.84375
145,1697611765,-1.0380859,-0.859375,0.765625,20.0625,21.59375,-4.40625
146,1697611805,-1.6132812,-1.1650391,-0.4189453,-12.40625,216.0,-60.4375
147,1697611845,-1.2373047,0.33984375,0.18652344,86.21875,-43.90625,-5.4375
148,1697611885,-0.7109375,0.30859375,-0.36816406,34.09375,23.4375,37.71875
149,1697611925,-0.9873047,-0.33203125,-0.42578125,37.9375,-78.5,73.40625
150,1697611965,-0.92871094,-1.4970703,-0.049804688,158.5,169.46875,84.9375
151,1697612005,-0.7314453,-0.2734375,0.0087890625,-17.78125,122.40625,12.1875
152,1697612045,-0.5673828,-0.28808594,0.8408203,-90.28125,19.03125,-22.21875
153,1697612085,-1.1699219,0.265625,0.2783203,3.71875,39.84375,-3.75
154,1697612125,-1.1425781,-0.09375,-0.20410156,40.5,-13.625,41.25
155,1697612165,-1.5595703,-0.4423828,0.19726562,72.4375,-66.78125,54.0625
156,1697612205,-1.3115234,-0.14648438,0.24707031,-20.875,-148.28125,-18.8125
157,1697612245,-1.3349609,0.421875,0.33789062,-44.625,-131.1875,8.46875
158,1697612285,-0.7236328,0.51171875,-0.06347656,-86.25,0.34375,-12.46875
159,1697612325,-0.43847656,-0.11230469,0.08203125,-45.5625,-106.21875,-35.46875
160,1697612365,-0.125,-0.93847656,0.16308594,16.90625,-43.59375,9.9375
161,1697612405,-0.3330078,-0.3173828,0.41015625,-141.96875,62.125,11.71875
162,1697612445,-1.1181641,-1.1660156,0.76464844,51.5,1.4375,1.875
163,1697612485,-1.3310547,-1.0859375,-0.21777344,17.5,195.1875,-121.15625
164,1697612525,-1.3916016,0.7421875,0.30664062,100.625,-31.5625,-22.125
165,1697612565,-0.74316406,0.6220703,-0.30078125,53.28125,32.625,12.625
166,1697612605,-1.0673828,-0.22558594,-0.54296875,-36.8125,-5.15625,61.625
167,1697612645,-0.9863281,-1.1953125,0.5292969,280.0625,-12.09375,82.1875
168,1697612685,-0.8613281,-0.6464844,0.41210938,62.25,164.90625,2.0
169,1697612725,-0.58496094,-0.36328125,0.3310547,-78.75,10.96875,3.90625
170,1697612765,-0.9326172,-0.3466797,0.5986328,-55.6875,34.71875,-10.8125
171,1697612805,-1.2958984,0.08105469,-0.052734375,43.4375,6.09375,8.03125
172,1697612845,-1.2578125,-0.4482422,0.22363281,77.25,-45.5625,16.40625
173,1697612885,-1.8076172,0.22949219,0.12207031,57.1875,-167.9375,-28.34375
174,1697612925,-1.1455078,0.34472656,0.234375,-22.0625,-135.03125,1.3125
175,1697612965,-0.6123047,1.0410156,0.17578125,-281.15625,1.03125,-48.1875
176,1697613005,-0.4736328,-0.23925781,0.12109375,-20.59375,-32.0625,12.5
177,1697613045,-0.5253906,-0.2890625,0.029296875,-40.53125,-30.21875,13.03125
178,1697613085,-0.46972656,-0.57128906,0.21972656,-98.84375,42.78125,10.59375
179,1697613125,-0.56933594,-0.6064453,0.46484375,-80.53125,43.0,-6.3125
180,1697613165,-1.0527344,-1.2138672,1.2431641,56.5,-8.1875,-61.125
181,1697613205,-2.0,-0.5048828,-0.119140625,-53.25,132.375,-74.65625
182,1697613245,-0.96875,0.6376953,-0.25390625,71.8125,71.875,9.8125
183,1697613285,-0.75097656,0.0146484375,-0.43847656,-42.9375,31.0625,58.40625
184,1697613325,-0.99902344,-0.57128906,-0.095703125,166.1875,-107.625,79.5
185,1697613365,-1.2568359,-1.0263672,-0.051757812,153.125,156.0,38.875
186,1697613405,-0.5644531,-0.38085938,0.3173828,-50.3125,87.21875,24.15625
187,1697613445,-0.5908203,-0.4970703,0.3076172,-62.8125,-6.0625,-3.96875
188,1697613485,-1.0664062,-0.2841797,0.22949219,-67.15625,101.5,8.15625
189,1697613525,-1.3378906,-0.087890625,-0.041015625,27.9375,11.15625,14.8125
190,1697613565,-1.5322266,-0.48046875,0.3486328,128.65625,-126.84375,5.0625
191,1697613605,-1.1728516,0.22460938,0.17675781,17.125,-152.65625,-47.0
192,1697613645,-1.2382812,0.4453125,0.23925781,-18.5625,-128.125,-13.625
193,1697613685,-0.875,-0.13964844,0.08300781,-292.8125,-54.65625,-10.21875
194,1697613725,-0.5371094,-0.068359375,0.115234375,-18.09375,40.5,-34.5625
195,1697613765,-0.38183594,-0.375,0.1484375,29.46875,-5.21875,1.03125
196,1697613805,-0.45898438,-0.484375,0.23730469,-47.6875,38.4375,15.4375
197,1697613845,-0.4970703,-0.6484375,0.32910156,-31.21875,37.59375,-1.34375
198,1697613885,-1.6162109,-1.2802734,1.2666016,181.0,-22.71875,-23.6875
199,1697613925,-2.0,-0.11621094,0.11230469,-41.15625,44.0625,-66.46875
200,1697613965,-1.0371094,0.3642578,-0.25878906,66.5625,56.8125,19.34375
201,1697614005,-0.8535156,-0.21679688,-0.41601562,-40.53125,-64.21875,64.625
202,1697614045,-0.8222656,-0.8388672,0.09375,262.0,-75.03125,70.78125
203,1697614085,-1.0703125,-0.45898438,0.08105469,37.65625,180.59375,10.0625
204,1697614125,-0.60546875,-0.35546875,0.33203125,8.71875,54.0625,16.53125
205,1697614165,-0.6640625,-0.56347656,0.4501953,-94.8125,-5.4375,-9.34375
206,1697614205,-1.3574219,0.12402344,0.09277344,-76.0,89.34375,18.40625
207,1697614245,-1.3730469,-0.49316406,0.018554688,67.6875,-23.28125,29.09375
208,1697614285,-1.1005859,-0.6201172,0.47558594,97.6875,-100.125,-2.46875
209,1697614325,-1.0224609,0.08984375,0.26757812,72.0,-147.96875,-41.03125
210,1697614365,-1.3710938,0.4345703,0.2841797,-37.3125,-74.71875,6.34375
211,1697614405,-0.90234375,0.20019531,-0.051757812,-100.59375,-21.5,-32.84375
212,1697614445,-0.53515625,-0.05859375,0.0146484375,-23.03125,4.0,-35.71875
213,1697614485,-0.32617188,-0.2734375,0.13085938,-75.53125,-3.875,-6.90625
214,1697614525,-0.47558594,-0.5761719,0.28808594,-75.40625,36.96875,-1.3125
215,1697614565,-0.66796875,-0.98339844,0.859375,-27.78125,-7.34375,-29.9375
216,1697614605,-0.8330078,-1.0537109,-0.0234375,42.46875,121.625,-22.96875
217,1697614645,-1.9228516,0.20996094,-0.15039062,12.5625,-0.75,13.84375
218,1697614685,-1.2070312,0.14648438,-0.35839844,48.375,69.5625,28.4375
219,1697614725,-0.76464844,-0.3232422,-0.28125,138.0,-8.4375,61.5625
220,1697614765,-0.8515625,-0.8466797,0.484375,55.90625,-13.3125,65.34375
221,1697614805,-0.79296875,-0.19335938,0.2919922,12.0625,165.6875,23.65625
222,1697614845,-0.44335938,-0.56933594,0.45214844,-15.6875,12.0,13.40625
223,1697614885,-0.8642578,-0.453125,0.57714844,-89.0,-8.125,8.28125
224,1697614925,-1.5166016,0.05078125,-0.23828125,-17.09375,97.75,12.25
225,1697614965,-1.5351562,-0.42089844,0.19140625,125.03125,-97.84375,26.34375
226,1697615005,-1.1552734,0.03125,0.23339844,22.625,-148.40625,-54.03125
227,1697615045,-1.1708984,0.39453125,0.36328125,33.8125,-108.46875,-26.125
228,1697615085,-0.80566406,0.22949219,0.10644531,-117.8125,-38.59375,-23.28125
229,1697615125,-0.5410156,0.001953125,0.0859375,-107.875,-15.46875,-25.84375
230,1697615165,-0.5175781,-0.30859375,-0.0087890625,-97.125,1.4375,-30.84375
231,1697615205,-0.41992188,-0.5214844,0.20214844,-55.3125,41.625,-19.125
232,1697615245,-0.54785156,-0.6347656,0.4814453,-26.6875,37.28125,-26.375
233,1697615285,-0.58496094,-0.7734375,0.6875,87.09375,33.6875,-14.0
234,1697615325,-2.0,-0.9003906,-0.3564453,-56.84375,90.0,-66.125
235,1697615365,-1.8222656,0.27441406,-0.06640625,-39.5625,-0.5,14.5
236,1697615405,-0.6347656,0.15332031,-0.45898438,73.28125,-16.96875,45.5625
237,1697615445,-0.77246094,-0.45996094,-0.40820312,106.4375,-112.1875,73.03125
238,1697615485,-0.87597656,-1.3027344,0.11035156,48.15625,170.03125,63.21875
239,1697615525,-0.6640625,-0.20800781,0.7138672,-54.65625,152.4375,-6.71875
240,1697615565,-0.5283203,-0.609375,0.55566406,-150.09375,-19.96875,0.21875
241,1697615605,-1.3164062,0.057617188,-0.047851562,-11.375,91.53125,24.875
242,1697615645,-1.2265625,-0.24511719,0.107421875,122.53125,-7.875,33.75
243,1697615685,-1.5078125,-0.5986328,0.19726562,80.5,-79.4375,15.71875
244,1697615725,-1.1240234,-0.16015625,0.4580078,41.5,-182.09375,-70.03125
245,1697615765,-1.4638672,0.4345703,0.48535156,-34.25,-149.75,-27.25
246,1697615805,-0.63183594,0.3408203,-0.115234375,-114.34375,-15.09375,-35.0625
247,1697615845,-0.39257812,-0.25683594,0.072265625,59.96875,4.0625,9.125
248,1697615885,-0.22949219,-0.5175781,0.22949219,19.09375,-31.03125,-8.875
249,1697615925,-0.52246094,-0.2783203,0.44433594,-120.5625,56.3125,5.90625
250,1697615965,-0.5810547,-0.55371094,0.484375,-39.3125,67.4375,-11.625
251,1697616005,-1.8027344,-1.7636719,0.42578125,148.59375,-71.375,-138.9375
252,1697616045,-1.9648438,0.041015625,0.5644531,-12.71875,-49.46875,-77.09375
253,1697616085,-0.9951172,0.58691406,-0.06738281,4.6875,42.46875,5.59375
254,1697616125,-0.9199219,-0.099609375,-0.5175781,-112.6875,-32.5625,79.5
255,1697616165,-0.8359375,-0.8642578,0.5761719,86.21875,-80.65625,90.25
256,1697616205,-0.6513672,-1.0996094,-0.15625,202.5,122.125,32.40625
257,1697616245,-0.5546875,-0.58984375,0.13671875,-7.03125,85.5,40.6875
258,1697616285,-0.5498047,-0.92871094,0.5175781,-164.375,15.4375,-8.625
259,1697616325,-1.1132812,-0.23730469,0.32714844,41.90625,34.03125,-28.03125
260,1697616365,-1.1308594,-0.28808594,-0.23046875,49.84375,71.28125,8.84375
261,1697616405,-1.4189453,-0.4765625,0.47460938,146.34375,-20.21875,20.0625
262,1697616445,-1.3154297,-0.11035156,0.5605469,35.15625,-102.375,-40.375
263,1697616485,-1.0849609,0.5097656,0.06933594,90.125,-134.0625,-37.0625
264,1697616525,-0.9902344,0.28125,0.19140625,-65.375,-96.15625,-1.59375
265,1697616565,-0.49121094,0.08300781,-0.01171875,-134.28125,-31.9375,-19.1875
266,1697616605,-0.45703125,-0.31445312,0.044921875,11.71875,31.59375,-13.25
267,1697616645,-0.3701172,-0.26367188,0.3232422,-102.6875,32.6875,6.15625
268,1697616685,-0.5566406,-0.52441406,0.6826172,-70.375,32.8125,12.375
269,1697616725,-1.3789062,-2.0,1.1289062,130.71875,-40.53125,-37.75
270,1697616765,-1.9179688,-0.44433594,0.2626953,-133.625,-9.59375,-69.84375
271,1697616805,-1.6220703,0.12402344,-0.28515625,223.3125,75.96875,-8.5
272,1697616845,-0.90527344,-0.31835938,-0.5107422,78.34375,-19.59375,58.03125
273,1697616885,-0.68359375,-0.6542969,0.099609375,151.84375,27.21875,71.9375
274,1697616925,-0.45214844,-0.33789062,-0.39257812,68.09375,166.5625,-1.84375
275,1697616965,-0.8515625,-0.123046875,0.48828125,-23.9375,63.78125,3.90625
276,1697617005,-0.86816406,-0.5800781,0.6074219,-109.21875,-31.03125,-10.8125
277,1697617045,-1.2695312,-0.11425781,-0.13378906,-29.3125,32.9375,20.5625
278,1697617085,-1.0439453,-0.3720703,0.18652344,176.125,-60.8125,26.34375
279,1697617125,-1.4003906,-0.23632812,0.40527344,-21.625,-146.0625,-29.3125
280,1697617165,-1.3662109,0.3388672,0.0859375,33.0,-130.25,-16.125
281,1697617205,-1.0195312,0.2861328,0.41210938,-64.15625,-83.8125,-19.53125
282,1697617245,-0.55078125,0.064453125,0.107421875,-110.0,-24.1875,-25.78125
283,1697617285,-0.48046875,-0.3486328,0.111328125,-79.53125,-9.78125,-9.59375
284,1697617325,-0.2861328,-0.44335938,0.15234375,-78.375,26.21875,-4.21875
285,1697617365,-0.35546875,-0.51660156,0.6113281,-58.1875,51.9375,3.40625
286,1697617405,-1.2929688,-0.98535156,1.2832031,55.21875,5.40625,18.40625
287,1697617445,-1.4775391,-0.33984375,-0.85253906,-49.625,218.84375,-71.5625
288,1697617485,-1.9970703,0.5683594,-0.14746094,166.5625,18.71875,86.90625
289,1697617525,-0.4423828,-0.07421875,-0.73828125,8.15625,3.71875,62.4375
290,1697617565,-0.81347656,-0.4921875,0.02734375,98.3125,-132.78125,98.8125
291,1697617605,-1.0458984,-0.8613281,-0.35351562,104.71875,171.6875,32.53125
292,1697617645,-0.6015625,-0.22070312,0.35058594,1.875,121.1875,16.90625
293,1697617685,-0.7988281,-0.7675781,0.48242188,-122.8125,14.4375,-9.0
294,1697617725,-1.2197266,0.1015625,0.18652344,-19.5,87.6875,-9.0625
295,1697617765,-1.2001953,-0.34765625,-0.10839844,97.15625,4.1875,17.4375
296,1697617805,-1.3789062,-0.62890625,0.43554688,157.15625,-71.96875,6.6875
297,1697617845,-1.3916016,0.22167969,0.08300781,51.0,-131.4375,-49.5625
298,1697617885,-1.2226562,0.56933594,0.3125,-7.09375,-101.46875,-25.34375
299,1697617925,-0.76171875,0.49609375,0.09472656,-115.75,-59.40625,-12.40625
300,1697617965,-0.40429688,0.001953125,0.001953125,-77.59375,-38.21875,0.46875
301,1697618005,-0.5019531,-0.43359375,0.053710938,-53.25,-13.875,10.1875
302,1697618045,-0.4609375,-0.55566406,0.359375,-128.90625,34.96875,17.625
303,1697618085,-0.6376953,-0.86035156,1.0175781,-51.71875,35.9375,8.84375
304,1697618125,-1.2353516,-1.3046875,-0.78808594,-53.375,75.71875,-143.5625
305,1697618165,-1.7597656,0.203125,0.19824219,128.40625,-93.65625,-15.46875
306,1697618205,-1.3193359,0.2861328,-0.39746094,23.90625,81.03125,10.71875
307,1697618245,-0.9355469,-0.48339844,-0.6484375,43.875,-42.125,83.84375
308,1697618285,-0.77246094,-1.3339844,0.6123047,68.65625,39.78125,84.15625
309,1697618325,-0.453125,-0.42871094,-0.2734375,90.875,153.78125,12.25
310,1697618365,-0.6513672,-0.30566406,0.059570312,-65.125,40.09375,10.46875
311,1697618405,-0.8378906,-0.66796875,0.7265625,-132.71875,76.46875,1.625
312,1697618445,-1.5722656,0.038085938,0.060546875,35.25,34.46875,13.40625
313,1697618485,-1.1337891,-0.81640625,0.19335938,175.71875,-47.3125,29.09375
314,1697618525,-1.375,-0.48828125,0.3330078,38.125,-115.625,-20.21875
315,1697618565,-1.4453125,0.4375,0.1015625,3.53125,-137.96875,-41.8125
316,1697618605,-1.0810547,0.41503906,0.36523438,24.875,-79.46875,-18.15625
317,1697618645,-0.69921875,0.20019531,0.12597656,-94.75,-39.03125,-14.125
318,1697618685,-0.44628906,-0.17578125,-0.0078125,-80.71875,-32.90625,27.875
319,1697618725,-0.39941406,-0.47070312,0.055664062,-92.96875,12.0,-1.46875
320,1697618765,-0.44335938,-0.47753906,0.3798828,-117.5625,50.03125,-3.25
321,1697618805,-0.6425781,-0.90527344,0.5410156,6.03125,67.6875,-10.625
322,1697618845,-0.88378906,-1.5703125,0.5371094,45.15625,12.25,-113.53125
323,1697618885,-1.7099609,0.03125,0.3935547,97.15625,28.84375,-103.78125
324,1697618925,-1.9707031,0.3017578,-0.49609375,32.21875,45.40625,31.65625
325,1697618965,-0.7685547,-0.119140625,-0.7080078,63.8125,-27.53125,88.0
326,1697619005,-0.953125,-1.2490234,-0.07910156,228.8125,4.0,92.4375
327,1697619045,-0.6621094,-0.6152344,-0.06542969,-2.875,181.6875,-15.53125
328,1697619085,-0.5996094,0.3359375,0.06542969,-7.8125,75.0,13.28125
329,1697619125,-0.8769531,-0.6464844,0.53125,-60.6875,50.53125,6.9375
330,1697619165,-1.4033203,0.15625,0.19238281,-75.5625,56.125,29.65625
331,1697619205,-1.2314453,-0.6582031,-0.14550781,73.40625,-36.625,28.90625
332,1697619245,-1.3681641,-0.74121094,0.080078125,79.09375,-68.0,0.46875
333,1697619285,-1.1367188,-0.016601562,0.25390625,36.96875,-143.4375,-52.03125
334,1697619325,-1.3271484,0.3466797,0.3173828,11.21875,-127.59375,-29.375
335,1697619365,-0.93066406,0.7265625,0.14648438,-44.6875,-55.3125,22.125
336,1697619405,-0.5566406,0.078125,0.14941406,-88.9375,-43.84375,-15.09375
337,1697619445,-0.32226562,-0.25585938,0.037109375,-118.5,-33.71875,-5.75
338,1697619485,-0.38964844,-0.5029297,0.29589844,-103.03125,19.15625,20.1875
339,1697619525,-0.46875,-0.75878906,0.4765625,-136.6875,64.375,-14.90625
340,1697619565,-1.1464844,-0.9863281,0.99902344,79.625,20.5625,-55.6875
341,1697619605,-1.6513672,-0.45214844,0.0029296875,-28.6875,185.90625,-99.5625
342,1697619645,-2.0,0.6484375,-0.0546875,74.03125,26.96875,55.09375
343,1697619685,-0.47460938,0.25390625,-0.38183594,112.28125,-1.90625,51.6875
344,1697619725,-0.65722656,-0.3720703,-0.025390625,-49.21875,-93.09375,93.3125
345,1697619765,-0.8925781,-1.2060547,-0.40820312,140.125,123.15625,88.90625
346,1697619805,-0.7314453,-0.4501953,0.17578125,-38.28125,129.0,21.90625
347,1697619845,-0.8671875,-0.47265625,0.73046875,-125.125,14.3125,-18.21875
348,1697619885,-1.0791016,-0.22265625,-0.033203125,-12.96875,18.59375,-8.25
349,1697619925,-1.1201172,-0.28808594,-0.02734375,72.625,26.15625,32.875
350,1697619965,-1.125,-0.796875,0.390625,81.84375,0.65625,33.8125
351,1697620005,-1.4658203,-0.47558594,0.34179688,6.625,-99.0625,-19.125
352,1697620045,-1.1191406,0.2763672,0.15429688,109.0,-161.5,-51.34375
353,1697620085,-1.2919922,0.5761719,0.3828125,-17.90625,-120.1875,7.8125
354,1697620125,-0.66503906,0.15429688,0.025390625,-131.71875,-32.25,-27.96875
355,1697620165,-0.43066406,-0.15820312,0.0009765625,-54.28125,35.375,-24.90625
356,1697620205,-0.296875,-0.32128906,0.23535156,-63.1875,-26.8125,-0.5
357,1697620245,-0.54296875,-0.49414062,0.3388672,-106.65625,25.3125,15.1875
358,1697620285,-0.6982422,-0.9902344,0.7607422,-30.71875,39.15625,18.53125
359,1697620325,-1.1025391,-1.7060547,-0.57128906,-9.90625,125.84375,-155.53125
360,1697620365,-1.5566406,-0.18945312,0.7714844,92.4375,-38.40625,-63.625
361,1697620405,-1.3291016,0.6142578,-0.3486328,81.90625,98.96875,9.25
362,1697620445,-0.9160156,-0.16113281,-0.51660156,-49.40625,-60.8125,58.28125
363,1697620485,-0.7402344,-1.015625,0.49609375,190.28125,25.0,114.5625
364,1697620525,-0.6347656,-0.8232422,-0.19140625,159.46875,108.25,12.25
365,1697620565,-0.7294922,-0.27441406,0.12402344,-119.59375,89.40625,9.03125
366,1697620605,-0.8310547,-0.6767578,0.61621094,-88.15625,50.71875,-11.84375
367,1697620645,-1.3632812,0.099609375,0.10449219,-16.9375,26.84375,6.03125
368,1697620685,-0.95410156,-0.45410156,-0.0078125,117.53125,-24.3125,24.21875
369,1697620725,-1.2871094,-0.6542969,0.44921875,113.375,-78.1875,15.96875
370,1697620765,-1.3222656,0.095703125,0.22363281,-24.25,-140.53125,-23.5625
371,1697620805,-1.2197266,0.5175781,0.24121094,11.875,-108.15625,-24.0
372,1697620845,-0.7607422,0.0068359375,0.1796875,-139.65625,-56.71875,-17.65625
373,1697620885,-0.4580078,-0.00390625,-0.203125,-46.84375,31.1875,-5.8125
374,1697620925,-0.41796875,-0.27929688,0.36035156,-12.90625,-46.09375,5.78125
375,1697620965,-0.546875,-0.5029297,0.2607422,-120.0,19.8125,5.90625
376,1697621005,-0.5996094,-0.59472656,0.4736328,-48.84375,-2.46875,7.6875
377,1697621045,-1.078125,-1.1005859,0.11328125,6.6875,40.28125,-33.59375
378,1697621085,-1.5185547,-0.63183594,0.14355469,-59.53125,47.34375,-49.34375
379,1697621125,-1.6777344,0.29003906,-0.61035156,66.03125,90.3125,34.28125
380,1697621165,-0.8847656,-0.18359375,-0.55078125,101.0,-12.46875,52.0
381,1697621205,-0.73828125,-0.6816406,0.34179688,74.03125,-19.90625,74.875
382,1697621245,-0.9482422,-0.41308594,-0.18066406,27.375,147.1875,9.125
383,1697621285,-0.5058594,-0.5126953,0.3955078,28.375,68.96875,0.09375
384,1697621325,-0.69921875,-0.5029297,0.54296875,-125.0,23.3125,6.8125
385,1697621365,-1.4277344,0.30859375,-0.11621094,-89.0,89.40625,26.84375
386,1697621405,-1.4755859,-0.41210938,0.29296875,143.65625,-39.5,41.0
387,1697621445,-1.4941406,-0.49023438,0.0029296875,78.71875,-135.9375,-10.625
388,1697621485,-1.0908203,0.15917969,0.27929688,-8.25,-162.5,-26.5
389,1697621525,-1.1630859,0.7167969,0.111328125,-152.71875,-84.25,-0.5
390,1697621565,-0.57910156,0.24902344,0.0087890625,-91.6875,-7.28125,-10.875
391,1697621605,-0.47558594,-0.24707031,0.044921875,-60.0,-38.78125,11.40625
392,1697621645,-0.46484375,-0.59277344,0.0146484375,-90.78125,-25.15625,14.375
393,1697621685,-0.45996094,-0.8310547,0.4560547,-130.8125,18.96875,-13.6875
394,1697621725,-0.7841797,-1.0537109,0.74316406,29.15625,1.625,-34.6875
395,1697621765,-1.3144531,-1.0605469,-0.3251953,-9.53125,187.90625,-75.875
396,1697621805,-1.890625,0.7558594,-0.21582031,68.90625,8.34375,12.375
397,1697621845,-0.8486328,0.23242188,-0.41210938,21.34375,-4.53125,25.4375
398,1697621885,-0.96484375,-0.25195312,-0.39648438,71.46875,-69.78125,87.09375
399,1697621925,-0.8769531,-0.99609375,0.13769531,204.03125,223.1875,66.5
400,1697621965,-0.67871094,-0.4638672,0.44628906,16.40625,89.46875,18.53125
401,1697622005,-0.6123047,-0.5800781,0.26660156,-34.0625,-21.3125,17.3125
402,1697622045,-1.0722656,-0.14257812,0.2421875,-97.3125,59.0625,3.34375
403,1697622085,-1.3232422,-0.024414062,0.07910156,57.125,37.40625,24.46875
404,1697622125,-1.5380859,-0.54003906,0.33691406,111.6875,-98.21875,22.375
405,1697622165,-1.4238281,0.051757812,-0.043945312,24.03125,-169.625,-21.25
406,1697622205,-1.0166016,0.6660156,0.3623047,-28.75,-116.46875,-13.9375
407,1697622245,-0.45898438,0.26464844,0.28515625,-297.625,-3.6875,-24.96875
408,1697622285,-0.79003906,0.017578125,0.26464844,38.875,-39.625,34.15625
409,1697622325,-0.47460938,-0.4404297,-0.029296875,-6.84375,-54.46875,21.28125
410,1697622365,-0.50683594,-0.3798828,0.1171875,-131.4375,40.625,-12.34375
411,1697622405,-0.42382812,-0.5703125,0.4814453,-82.71875,36.84375,-18.25
412,1697622445,-1.5390625,-1.0429688,1.1230469,83.1875,26.0,-50.3125
413,1697622485,-1.3193359,-0.42871094,-0.15429688,-55.25,132.5,-86.0
414,1697622525,-1.5722656,0.8339844,-0.0126953125,69.1875,15.4375,91.90625
415,1697622565,-0.7949219,-0.0029296875,-0.47558594,-76.6875,-28.15625,74.8125
416,1697622605,-0.7578125,-0.68066406,-0.0546875,218.0,-137.65625,74.21875
417,1697622645,-1.0048828,-0.98339844,-0.16015625,120.65625,130.34375,36.1875
418,1697622685,-0.56152344,-0.3564453,0.296875,-44.3125,115.09375,27.6875
419,1697622725,-0.6464844,-0.74609375,0.58984375,-80.46875,24.65625,-10.21875
420,1697622765,-1.1132812,0.056640625,0.36816406,-59.65625,51.625,-13.5625
421,1697622805,-1.3095703,0.11621094,-0.19140625,38.3125,8.84375,21.34375
422,1697622845,-1.4970703,-0.5107422,0.31152344,158.6875,-101.46875,27.21875
423,1697622885,-1.2070312,-0.013671875,0.2109375,19.28125,-132.65625,-39.03125
424,1697622925,-1.1484375,0.6113281,0.31640625,-69.90625,-94.25,-16.625
425,1697622965,-0.68847656,0.35351562,0.16503906,-102.875,-24.75,-23.75
426,1697623005,-0.38867188,-0.044921875,-0.0390625,-73.4375,-41.46875,21.34375
427,1697623045,-0.5878906,-0.34960938,0.14257812,-41.09375,-49.46875,3.40625
428,1697623085,-0.5605469,-0.5410156,0.29589844,-124.40625,19.875,-16.1875
429,1697623125,-0.5498047,-0.49902344,0.5371094,-58.78125,30.5625,-7.28125
430,1697623165,-1.8505859,-1.2978516,0.9082031,104.0625,-11.125,-52.3125
431,1697623205,-1.5693359,-0.33007812,0.032226562,-2.6875,45.34375,-54.9375
432,1697623245,-1.2070312,0.6123047,-0.12402344,48.5625,33.90625,40.4375
433,1697623285,-0.92089844,-0.07324219,-0.45996094,-79.25,-21.6875,68.34375
434,1697623325,-0.5878906,-0.6279297,0.4033203,196.03125,-51.65625,75.1875
435,1697623365,-0.7939453,-0.85253906,-0.19628906,179.1875,71.40625,38.4375
436,1697623405,-0.7050781,-0.4326172,0.08984375,-48.125,116.25,19.6875
437,1697623445,-0.7373047,-0.8486328,0.8251953,-140.9375,41.4375,-21.25
438,1697623485,-1.3037109,0.17285156,0.27929688,-24.6875,46.5,-15.8125
439,1697623525,-1.3447266,0.123046875,-0.15234375,54.96875,-3.5,2.4375
440,1697623565,-1.3339844,-0.38378906,0.30273438,165.28125,-88.625,24.53125
441,1697623605,-1.1640625,0.029296875,0.2548828,-26.03125,-115.8125,-31.625
442,1697623645,-1.0615234,0.48535156,0.32226562,-46.78125,-96.34375,-21.4375
443,1697623685,-0.75878906,0.22167969,0.18945312,-129.34375,-4.53125,-21.5
444,1697623725,-0.5283203,0.0234375,0.09765625,-46.65625,-36.15625,14.09375
445,1697623765,-0.57910156,-0.36035156,0.21191406,-13.5625,-21.625,9.9375
446,1697623805,-0.5205078,-0.41601562,0.22363281,-106.46875,28.3125,-17.59375
447,1697623845,-0.5332031,-0.35546875,0.5517578,-39.5625,26.28125,-4.65625
448,1697623885,-1.6171875,-0.8935547,0.8378906,23.25,44.1875,-51.59375
449,1697623925,-1.4970703,-0.37695312,-0.021484375,-20.65625,45.15625,-51.96875
450,1697623965,-1.3857422,0.14746094,-0.20605469,101.5,21.15625,37.53125
451,1697624005,-0.90234375,-0.3779297,-0.30078125,83.125,-32.84375,51.8125
452,1697624045,-0.78808594,-0.6767578,0.26757812,65.96875,15.96875,62.0625
453,1697624085,-0.9189453,-0.55078125,-0.16015625,80.71875,64.5625,32.34375
454,1697624125,-0.6845703,-0.19140625,0.03125,-82.09375,75.71875,16.34375
455,1697624165,-0.75097656,-0.75097656,0.4814453,-16.3125,45.21875,-1.65625
456,1697624205,-1.1416016,0.07421875,0.16015625,-85.34375,15.625,-7.9375
457,1697624245,-1.2421875,-0.033203125,0.11621094,85.96875,-1.71875,20.25
458,1697624285,-1.40625,-0.36328125,0.25585938,72.5625,-74.0,15.65625
459,1697624325,-1.3955078,0.0234375,0.13867188,-3.5,-112.4375,-21.5625
460,1697624365,-1.0849609,0.44140625,0.42773438,1.5625,-84.0,-15.9375
461,1697624405,-0.69628906,0.2705078,0.17675781,-67.875,-12.96875,-24.0625
462,1697624445,-0.4765625,-0.10253906,0.13964844,-78.1875,-46.09375,14.375
463,1697624485,-0.5,-0.4892578,0.1328125,-81.25,-36.75,7.5
464,1697624525,-0.4921875,-0.24414062,0.26660156,-84.25,30.8125,-3.1875
465,1697624565,-0.6347656,-0.5908203,0.6621094,-23.875,36.125,-16.6875
466,1697624605,-1.6279297,-0.7128906,0.11328125,114.90625,73.78125,-32.5625
467,1697624645,-1.5175781,-0.3701172,0.34277344,7.3125,-24.90625,-37.75
468,1697624685,-1.1259766,0.015625,-0.3173828,-62.75,20.625,1.875
469,1697624725,-0.81152344,-0.5830078,-0.057617188,116.75,-39.875,56.1875
470,1697624765,-0.56347656,-0.72753906,0.27441406,100.25,76.53125,44.1875
471,1697624805,-0.6816406,-0.2705078,-0.17675781,-24.625,89.65625,32.03125
472,1697624845,-0.87402344,-0.43945312,0.19140625,25.5625,47.46875,-1.53125
473,1697624885,-0.88671875,-0.40820312,0.33789062,-102.8125,35.1875,-19.78125
474,1697624925,-1.3378906,-0.0703125,0.140625,-19.71875,16.34375,9.9375
475,1697624965,-1.1279297,-0.44335938,0.07324219,130.0625,-61.78125,15.5625
476,1697625005,-1.4238281,-0.4345703,0.35253906,53.625,-113.59375,-20.71875
477,1697625045,-1.2109375,0.5625,0.10644531,25.1875,-105.3125,-47.875
478,1697625085,-0.80371094,0.2529297,0.3671875,-18.875,-54.53125,-17.84375
479,1697625125,-0.6191406,0.0703125,0.13085938,-127.15625,-8.0,-12.53125
480,1697625165,-0.7050781,-0.2890625,-0.044921875,-34.75,-5.09375,13.84375
481,1697625205,-0.5205078,-0.3701172,0.2763672,-80.28125,16.15625,-9.46875
482,1697625245,-0.59472656,-0.42089844,0.4873047,-86.0,24.09375,-16.9375
483,1697625285,-1.3896484,-0.9003906,1.1865234,129.0625,28.78125,-20.15625
484,1697625325,-1.3779297,-0.42382812,0.16503906,-74.96875,58.59375,-29.375
485,1697625365,-1.6162109,0.13378906,-0.11621094,95.8125,17.375,49.59375
486,1697625405,-0.85058594,-0.3779297,-0.43945312,15.0625,29.78125,30.5625
487,1697625445,-0.68066406,-0.48535156,0.37402344,133.84375,-13.03125,61.03125
488,1697625485,-0.7529297,-0.76171875,-0.3388672,164.28125,116.875,27.8125
489,1697625525,-0.7128906,-0.18164062,0.1796875,-125.125,67.6875,13.28125
490,1697625565,-0.89746094,-0.6347656,0.7451172,-67.03125,42.65625,-10.40625
491,1697625605,-1.2392578,-0.018554688,0.12792969,-49.5,0.65625,0.46875
492,1697625645,-1.0732422,-0.5605469,0.0009765625,89.40625,-12.59375,17.875
493,1697625685,-1.3369141,-0.44433594,0.29492188,136.09375,-100.28125,22.09375
494,1697625725,-1.7255859,0.2578125,0.19433594,-30.59375,-93.09375,-53.65625
495,1697625765,-0.8544922,0.5341797,0.33496094,7.625,-89.625,-40.65625
496,1697625805,-0.6328125,-0.045898438,0.16699219,-77.28125,-26.375,-20.9375
497,1697625845,-0.4716797,-0.19433594,-0.08105469,-65.375,-1.0625,8.90625
498,1697625885,-0.42285156,-0.23339844,0.13574219,-71.0,9.75,13.53125
499,1697625925,-0.46875,-0.34472656,0.32128906,-35.125,48.625,1.15625
500,1697625965,-0.9609375,-0.359375,0.5234375,6.9375,58.9375,-6.84375
501,1697626005,-1.3173828,-0.59765625,-0.6152344,-64.59375,195.0,-76.75
502,1697626045,-1.8662109,-0.18847656,0.83203125,77.5625,-146.3125,0.53125
503,1697626085,-0.71972656,0.030273438,-0.5292969,-28.34375,-0.0625,35.3125
504,1697626125,-0.8173828,-0.69433594,-0.28808594,92.03125,-90.09375,45.21875
505,1697626165,-0.6503906,-0.8955078,0.19433594,49.25,107.34375,64.4375
506,1697626205,-0.6503906,-0.33984375,-0.091796875,-73.5625,94.96875,18.40625
507,1697626245,-0.68359375,-0.6064453,0.60839844,-56.21875,57.0,3.59375
508,1697626285,-1.1337891,-0.3173828,0.23242188,-90.90625,49.1875,0.84375
509,1697626325,-1.1455078,-0.12109375,-0.10253906,98.125,-30.96875,10.84375
510,1697626365,-1.0585938,-0.7246094,0.11328125,124.25,9.9375,24.53125
511,1697626405,-1.3476562,-0.4326172,0.5332031,17.5625,-99.125,-11.375
512,1697626445,-1.5712891,0.16113281,0.24511719,-9.15625,-130.25,-79.59375
513,1697626485,-0.8613281,0.7236328,0.08300781,26.46875,-61.65625,-21.0
514,1697626525,-0.5,0.13085938,0.19824219,27.03125,-17.03125,-5.15625
515,1697626565,-0.5625,-0.20605469,0.17871094,-70.15625,-15.15625,0.09375
516,1697626605,-0.55371094,-0.52246094,0.14550781,-81.625,24.21875,0.0
517,1697626645,-0.43164062,-0.36328125,0.1640625,-60.5625,61.375,-6.96875
518,1697626685,-1.1230469,-0.60058594,1.1992188,-1.78125,1.3125,-36.34375
519,1697626725,-1.5693359,-0.06640625,-0.5498047,-90.84375,132.1875,5.65625
520,1697626765,-1.5712891,-0.15332031,0.3203125,92.75,-19.4375,14.21875
521,1697626805,-1.0761719,-0.30273438,-0.53222656,-25.46875,9.4375,28.96875
522,1697626845,-0.5830078,-0.78222656,0.14160156,189.625,-0.125,51.8125
523,1697626885,-0.54296875,-0.6201172,-0.083984375,113.03125,81.28125,18.40625
524,1697626925,-0.7109375,-0.013671875,0.13867188,-193.75,93.6875,18.28125
525,1697626965,-0.828125,-0.6455078,0.6816406,-0.3125,51.9375,11.59375
526,1697627005,-1.0039062,-0.39257812,0.22070312,-93.75,21.28125,-1.59375
527,1697627045,-1.1728516,-0.30371094,-0.1640625,35.75,-24.5625,7.90625
528,1697627085,-1.0488281,-0.52246094,-0.030273438,184.1875,-16.625,21.09375
529,1697627125,-1.5097656,-0.5644531,0.6542969,62.25,-88.34375,-12.40625
530,1697627165,-1.3115234,0.57421875,0.2421875,-40.46875,-89.96875,-85.15625
531,1697627205,-0.8857422,0.6308594,0.08691406,57.78125,-57.5625,-23.625
532,1697627245,-0.5839844,0.17773438,0.19335938,-88.46875,-32.96875,-12.65625
533,1697627285,-0.5917969,-0.11230469,-0.083984375,-101.40625,-26.3125,20.84375
534,1697627325,-0.6035156,-0.50097656,0.18359375,-95.84375,1.5625,6.6875
535,1697627365,-0.65722656,-0.30273438,0.30371094,-54.75,11.21875,13.59375
536,1697627405,-0.8183594,-0.115234375,1.4609375,14.8125,-2.8125,14.28125
537,1697627445,-1.1660156,-0.30273438,-0.087890625,-48.0625,53.28125,-14.25
538,1697627485,-1.9511719,-0.8544922,-0.10546875,-107.5625,4.0625,-32.71875
539,1697627525,-0.9189453,-0.32421875,-0.123046875,55.59375,34.90625,1.875
540,1697627565,-0.8261719,-0.64746094,-0.029296875,85.1875,-27.96875,16.84375
541,1697627605,-0.5576172,-0.6142578,0.020507812,94.96875,51.375,18.1875
542,1697627645,-0.4873047,-0.24023438,-0.21679688,-95.90625,85.6875,11.28125
543,1697627685,-0.91015625,-0.27246094,0.4716797,85.875,81.65625,15.65625
544,1697627725,-0.9238281,-0.6074219,0.13574219,-56.59375,31.40625,5.0
545,1697627765,-0.97265625,-0.46875,-0.10449219,-8.5,5.1875,8.03125
546,1697627805,-1.1533203,-0.49121094,0.10644531,62.0,44.71875,17.875
547,1697627845,-1.3945312,-0.27148438,0.41503906,85.96875,-52.4375,15.1875
548,1697627885,-1.3261719,0.0146484375,0.080078125,44.96875,-114.09375,-39.3125
549,1697627925,-1.0664062,0.6230469,0.13867188,79.6875,-115.375,-5.9375
550,1697627965,-0.8857422,0.30566406,0.41601562,-68.1875,-79.125,2.90625
551,1697628005,-0.5683594,0.09472656,0.09765625,-152.25,-46.84375,-3.625
552,1697628045,-0.80078125,-0.40234375,0.07910156,-71.3125,-31.625,18.71875
553,1697628085,-0.4765625,-0.48828125,0.24316406,-113.40625,12.3125,-22.84375
554,1697628125,-0.53125,-0.59472656,0.38671875,-73.5,40.28125,-6.96875
555,1697628165,-1.1601562,-1.0859375,1.0537109,27.34375,-1.0625,-34.875
556,1697628205,-1.3056641,-0.19628906,-0.55859375,-55.0,161.46875,-36.15625
557,1697628245,-1.3271484,0.39941406,0.10253906,18.125,21.96875,51.9375
558,1697628285,-1.15625,-0.119140625,-0.38964844,-23.9375,25.9375,50.8125
559,1697628325,-0.7265625,-0.82421875,0.10253906,164.0,-27.90625,67.71875
560,1697628365,-0.6503906,-1.1005859,0.052734375,109.1875,54.90625,32.09375
561,1697628405,-0.5888672,-0.375,-0.28710938,39.78125,131.34375,11.71875
562,1697628445,-0.8417969,-0.4609375,0.4658203,-63.125,74.25,-18.21875
563,1697628485,-0.99316406,-0.16992188,0.45214844,-56.90625,30.6875,-8.625
564,1697628525,-1.4101562,0.10253906,-0.043945312,-0.4375,26.21875,13.28125
565,1697628565,-1.4570312,-0.4638672,0.21582031,156.0625,-76.375,27.34375
566,1697628605,-1.2900391,-0.31347656,0.4169922,-29.25,-137.96875,-19.71875
567,1697628645,-1.2255859,0.65527344,0.19726562,-28.15625,-120.75,-40.125
568,1697628685,-0.9560547,-0.051757812,0.3623047,-110.6875,-78.375,2.5
569,1697628725,-0.5410156,0.018554688,-0.078125,-49.34375,3.46875,-9.78125
570,1697628765,-0.5341797,-0.33007812,0.2109375,4.625,-47.625,12.0625
571,1697628805,-0.49023438,-0.45996094,0.24023438,-56.59375,11.75,-9.125
572,1697628845,-0.47753906,-0.33691406,0.17675781,-87.40625,29.21875,-4.65625
573,1697628885,-0.7890625,-0.6279297,0.9892578,-41.28125,43.3125,-15.28125
574,1697628925,-1.3935547,-0.6123047,-0.8125,-16.9375,256.34375,-66.78125
575,1697628965,-1.5673828,-0.47558594,0.5410156,8.09375,-25.40625,-20.875
576,1697629005,-0.9951172,-0.01171875,-0.4296875,94.34375,46.3125,15.84375
577,1697629045,-0.7109375,-0.46289062,-0.14257812,55.03125,-10.6875,42.59375
578,1697629085,-0.8798828,-0.6015625,0.3408203,51.4375,9.375,51.9375
579,1697629125,-0.7050781,-0.7216797,-0.51464844,-29.75,94.34375,32.5625
580,1697629165,-0.7558594,-0.44921875,0.083984375,46.875,74.625,8.46875
581,1697629205,-0.7451172,-0.80566406,0.6328125,-55.375,41.96875,-14.96875
582,1697629245,-1.4667969,0.11425781,0.24023438,-51.28125,14.09375,1.21875
583,1697629285,-1.1357422,-0.421875,0.15429688,145.5,-16.5,24.53125
584,1697629325,-1.4228516,-0.46777344,0.24511719,84.34375,-86.5625,7.8125
585,1697629365,-1.1845703,0.20507812,0.23144531,-13.0625,-145.34375,-53.53125
586,1697629405,-1.0791016,0.4267578,0.35253906,-1.71875,-92.25,-23.09375
587,1697629445,-0.70214844,0.040039062,0.14648438,-112.0,-54.34375,-5.9375
588,1697629485,-0.51953125,-0.25097656,-0.06640625,-51.84375,-9.40625,8.34375
589,1697629525,-0.5136719,-0.4248047,0.33398438,-50.90625,-29.4375,-10.5625
590,1697629565,-0.49804688,-0.37890625,0.34570312,-68.4375,24.03125,1.03125
591,1697629605,-0.4736328,-0.5527344,0.41601562,-20.53125,50.9375,5.34375
592,1697629645,-0.9482422,-0.7392578,0.8066406,50.15625,77.625,-7.8125
593,1697629685,-1.5839844,-0.3798828,-0.69921875,-60.375,246.625,-81.25
594,1697629725,-1.9296875,0.28710938,0.30078125,113.5,-50.5625,42.15625
595,1697629765,-0.6015625,-0.08496094,-0.5595703,103.1875,4.5625,42.03125
596,1697629805,-0.7636719,-0.5527344,-0.15527344,20.3125,-122.8125,75.90625
597,1697629845,-0.79589844,-1.0009766,0.051757812,77.0625,203.96875,52.34375
598,1697629885,-0.8183594,-0.18359375,0.14550781,-124.96875,97.875,6.9375
599,1697629925,-0.7167969,-0.6298828,0.59277344,-86.625,37.8125,-3.4375
600,1697629965,-1.0947266,-0.119140625,0.15234375,-64.78125,18.34375,-10.03125
601,1697630005,-1.1542969,-0.33007812,-0.36816406,48.5625,-2.03125,23.125
602,1697630045,-1.0595703,-0.6972656,0.21386719,170.75,40.6875,30.9375
603,1697630085,-1.4746094,-0.44433594,0.4189453,-46.78125,-45.4375,-26.0625
604,1697630125,-1.0976562,0.018554688,0.3046875,29.15625,-134.0,-74.84375
605,1697630165,-0.9560547,0.44726562,0.080078125,95.1875,-102.375,-29.375
606,1697630205,-0.8574219,0.1484375,0.1875,-62.8125,-71.125,6.46875
607,1697630245,-0.67871094,-0.024414062,0.052734375,-114.59375,-42.5,15.0
608,1697630285,-0.6269531,-0.421875,0.22558594,-69.03125,-13.4375,-16.96875
609,1697630325,-0.48046875,-0.29003906,0.24414062,-65.3125,-6.4375,7.375
610,1697630365,-0.5361328,-0.41015625,0.47851562,-34.9375,34.46875,8.21875
611,1697630405,-1.3984375,-0.5859375,1.265625,29.9375,43.0,1.3125
612,1697630445,-1.0605469,-0.5908203,-0.5029297,-42.625,182.53125,-57.28125
613,1697630485,-1.5,-0.2578125,0.7373047,78.71875,-63.125,-1.84375
614,1697630525,-0.9638672,-0.13671875,-0.6767578,-13.0625,44.40625,37.03125
615,1697630565,-0.6220703,-0.5332031,-0.14453125,97.40625,-47.1875,63.71875
616,1697630605,-0.61035156,-0.859375,-0.01171875,158.75,78.96875,47.53125
617,1697630645,-0.70410156,-0.3798828,-0.27441406,-29.8125,83.25,11.9375
618,1697630685,-1.0498047,-0.5390625,0.8798828,-155.15625,79.40625,-19.78125
619,1697630725,-1.1767578,-0.07519531,0.03515625,-26.6875,11.09375,-0.25
620,1697630765,-1.2626953,-0.27734375,-0.15039062,85.8125,-3.25,32.40625
621,1697630805,-0.86621094,-0.5048828,0.6201172,113.03125,-18.25,30.625
622,1697630845,-1.5390625,-0.38671875,0.38671875,-31.4375,-130.4375,-7.15625
623,1697630885,-1.375,0.3642578,0.18164062,7.84375,-129.78125,-43.65625
624,1697630925,-0.8222656,0.5136719,0.203125,-34.875,-93.65625,-4.65625
625,1697630965,-0.37695312,0.026367188,-0.07421875,-110.90625,-0.375,-11.84375
626,1697631005,-0.41601562,-0.30273438,0.07519531,-74.21875,-11.90625,6.34375
627,1697631045,-0.5625,-0.4091797,0.30273438,-76.3125,-14.78125,22.25
628,1697631085,-0.62890625,-0.5878906,0.5605469,-104.375,56.25,-3.75
629,1697631125,-1.3125,-1.1796875,0.4580078,73.59375,9.5,-51.40625
630,1697631165,-1.3916016,-0.6425781,-0.0068359375,43.625,160.03125,-116.28125
631,1697631205,-1.3945312,0.8720703,0.115234375,66.40625,3.46875,86.34375
632,1697631245,-0.78125,0.4482422,-0.5214844,-88.09375,-2.875,38.8125
633,1697631285,-0.953125,-0.4658203,-0.47265625,31.0625,-123.78125,69.6875
634,1697631325,-0.89941406,-1.2558594,0.095703125,102.21875,208.34375,103.9375
635,1697631365,-0.39160156,-0.61816406,0.16113281,114.90625,111.8125,25.1875
636,1697631405,-0.7763672,-0.56640625,0.037109375,-84.78125,47.84375,9.6875
637,1697631445,-1.078125,-0.4404297,0.49023438,-64.15625,54.0,-21.375
638,1697631485,-1.3886719,0.12792969,-0.17871094,50.03125,31.0625,1.03125
639,1697631525,-1.1171875,-0.5214844,0.2734375,79.875,11.28125,16.15625
640,1697631565,-1.4599609,-0.4033203,0.35742188,2.59375,-51.46875,18.125
641,1697631605,-1.0996094,-0.095703125,0.10058594,60.59375,-145.84375,-38.71875
642,1697631645,-1.3212891,0.58496094,0.13574219,26.03125,-120.1875,-15.53125
643,1697631685,-0.84765625,0.2685547,0.17382812,-59.40625,-62.09375,-5.5625
644,1697631725,-0.48535156,0.06933594,0.13378906,-86.8125,-32.1875,-9.90625
645,1697631765,-0.5058594,-0.3857422,0.12402344,-93.21875,-35.78125,-18.375
646,1697631805,-0.5029297,-0.48046875,0.26464844,-99.75,21.59375,-13.6875
647,1697631845,-0.41992188,-0.5292969,0.43554688,-43.15625,40.28125,-18.03125
648,1697631885,-0.68359375,-0.78222656,0.51953125,31.59375,60.78125,-18.15625
649,1697631925,-1.7539062,-1.2978516,-0.7050781,0.03125,131.5625,-139.125
650,1697631965,-1.7382812,0.4560547,0.10839844,81.28125,-23.09375,-6.90625
651,1697632005,-0.7265625,0.38671875,-0.3701172,5.90625,9.5,23.3125
652,1697632045,-0.7128906,-0.171875,-0.4951172,-30.21875,-59.59375,76.9375
653,1697632085,-1.1523438,-1.0732422,0.39648438,114.59375,125.28125,98.75
654,1697632125,-0.6894531,-0.4140625,-0.055664062,89.09375,91.0,25.0625
655,1697632165,-0.6464844,-0.7314453,0.20410156,-94.3125,49.71875,13.03125
656,1697632205,-0.98535156,-0.4765625,0.43847656,-145.34375,51.9375,-17.96875
657,1697632245,-1.1923828,-0.0068359375,-0.10839844,36.0625,-3.6875,13.15625
658,1697632285,-1.1005859,-0.66308594,-0.041992188,126.625,36.90625,32.09375
659,1697632325,-1.4638672,-0.52246094,0.4033203,-19.65625,-49.9375,0.90625
660,1697632365,-1.1083984,-0.056640625,0.31933594,24.8125,-161.5625,-58.25
661,1697632405,-1.171875,0.39648438,0.31054688,42.40625,-146.5,-37.5625
662,1697632445,-0.9267578,0.3232422,0.2265625,-92.125,-104.03125,-4.46875
663,1697632485,-0.51171875,-0.22949219,-0.23828125,-90.90625,-17.46875,-10.03125
664,1697632525,-0.38183594,-0.3408203,0.27539062,-58.84375,-26.8125,-19.84375
665,1697632565,-0.3798828,-0.17089844,0.3046875,-74.40625,21.96875,9.6875
666,1697632605,-0.43164062,-0.35253906,0.39648438,-51.21875,34.65625,21.59375
667,1697632645,-0.81152344,-0.78808594,0.7207031,-18.8125,28.375,-0.125
668,1697632685,-1.8916016,-0.484375,-0.9707031,-17.28125,193.53125,-66.46875
669,1697632725,-1.6816406,0.31152344,0.23046875,132.96875,10.71875,48.9375
670,1697632765,-0.67578125,-0.04296875,-0.6767578,-24.96875,37.65625,65.59375
671,1697632805,-0.8515625,-0.46972656,-0.15625,34.15625,-65.125,94.09375
672,1697632845,-0.7324219,-0.95214844,0.2890625,-7.65625,91.28125,76.21875
673,1697632885,-0.55371094,-0.48339844,0.14160156,81.21875,133.03125,29.53125
674,1697632925,-0.67285156,-0.59472656,0.041992188,-80.65625,43.0625,18.40625
675,1697632965,-0.89160156,-0.5917969,0.77246094,-116.90625,32.875,-31.4375
676,1697633005,-1.4980469,0.15429688,-0.39941406,3.21875,55.40625,-5.6875
677,1697633045,-1.4248047,-0.49414062,0.3173828,142.25,-33.78125,22.6875
678,1697633085,-1.3652344,-0.18261719,0.40820312,2.0625,-91.375,-20.46875
679,1697633125,-0.8876953,0.11425781,0.21875,56.9375,-157.5625,-25.71875
680,1697633165,-1.1113281,0.20019531,0.2548828,-54.34375,-91.5,-16.375
681,1697633205,-0.64160156,0.19335938,-0.13867188,-158.40625,-2.34375,-16.3125
682,1697633245,-0.5751953,-0.20996094,0.0107421875,44.0,4.9375,-14.46875
683,1697633285,-0.38183594,-0.23632812,0.30566406,-64.34375,-28.03125,-11.375
684,1697633325,-0.45117188,-0.43945312,0.28222656,-109.875,23.90625,2.375
685,1697633365,-0.7998047,-0.82421875,0.67871094,-24.75,27.15625,12.25
686,1697633405,-1.0332031,-0.97753906,-1.0292969,-56.65625,268.90625,-101.40625
687,1697633445,-1.9628906,-0.16308594,0.6972656,70.59375,-58.78125,-2.875
688,1697633485,-0.83203125,0.23535156,-0.390625,76.21875,23.1875,29.90625
689,1697633525,-0.9589844,-0.43359375,-0.3935547,39.21875,-51.03125,62.3125
690,1697633565,-0.7246094,-1.2529297,0.08691406,46.4375,38.4375,94.28125
691,1697633605,-0.70703125,-0.5214844,-0.3359375,120.53125,162.9375,15.0625
692,1697633645,-0.6923828,-0.37695312,0.43164062,-51.46875,69.0,-9.40625
693,1697633685,-0.93652344,-0.390625,0.7050781,-115.96875,20.25,-11.3125
694,1697633725,-1.5644531,0.16210938,-0.22070312,20.96875,28.5625,13.0
695,1697633765,-1.4316406,-0.5390625,0.28808594,152.4375,-88.21875,28.375
696,1697633805,-1.2441406,-0.34179688,0.3310547,1.75,-115.3125,-34.875
697,1697633845,-1.3310547,0.71777344,0.21875,-8.3125,-118.25,-21.1875
698,1697633885,-0.78125,0.22167969,0.18847656,-56.34375,-45.1875,-12.34375
699,1697633925,-0.546875,0.01171875,0.021484375,-72.65625,-11.375,-10.03125
700,1697633965,-0.45996094,-0.32226562,0.11621094,-31.09375,-39.8125,-13.0625
701,1697634005,-0.35351562,-0.5332031,0.16601562,-95.0,14.8125,-8.125
702,1697634045,-0.42773438,-0.31152344,0.49316406,-87.71875,38.4375,-14.59375
703,1697634085,-0.78808594,-0.87597656,0.7548828,46.3125,44.78125,-18.15625
704,1697634125,-1.6943359,-0.74902344,-0.5683594,-29.4375,261.28125,-125.25
705,1697634165,-2.0,0.6455078,-0.08300781,101.375,-2.6875,58.21875
706,1697634205,-0.67285156,0.36328125,-0.6269531,10.3125,-14.84375,47.21875
707,1697634245,-0.8300781,-0.38964844,-0.4013672,81.40625,-66.78125,94.84375
708,1697634285,-0.90722656,-1.4316406,0.06347656,-21.5,168.5,72.4375
709,1697634325,-0.5214844,-0.4736328,0.060546875,85.4375,103.75,19.6875
710,1697634365,-0.734375,-0.5488281,0.055664062,-92.125,14.5625,-3.4375
711,1697634405,-1.0908203,-0.27148438,0.4560547,-120.3125,111.1875,-13.625
712,1697634445,-1.3339844,0.034179688,-0.021484375,93.625,3.71875,21.34375
713,1697634485,-1.2392578,-0.6845703,0.3125,150.9375,-44.875,35.09375
714,1697634525,-1.2617188,-0.4453125,0.26660156,-8.9375,-123.78125,-16.5625
715,1697634565,-1.1796875,0.20605469,0.26367188,-11.1875,-161.40625,-55.375
716,1697634605,-1.0087891,0.5517578,0.33691406,-62.21875,-91.625,-8.0
717,1697634645,-0.62402344,0.052734375,-0.07128906,-56.65625,-11.625,-6.59375
718,1697634685,-0.5644531,-0.34375,0.107421875,-9.71875,-18.9375,6.8125
719,1697634725,-0.5107422,-0.48242188,0.22851562,-83.875,3.46875,3.46875
720,1697634765,-0.4580078,-0.32421875,0.36816406,-114.03125,31.96875,-3.3125
721,1697634805,-0.5751953,-0.5253906,0.57421875,7.0,61.4375,9.375
722,1697634845,-1.8105469,-1.578125,-0.18359375,10.84375,70.0,-97.4375
723,1697634885,-1.7626953,-0.26660156,0.61621094,-42.75,-24.0625,-45.125
724,1697634925,-1.0654297,0.3515625,-0.48535156,133.59375,39.28125,23.90625
725,1697634965,-0.9423828,-0.14550781,-0.67871094,-60.3125,-38.46875,75.4375
726,1697635005,-0.66503906,-1.0126953,0.64746094,70.40625,41.625,109.25
727,1697635045,-0.6035156,-0.7734375,-0.25976562,180.15625,126.5625,14.9375
728,1697635085,-0.734375,-0.10546875,-0.015625,-152.34375,66.21875,9.03125
729,1697635125,-0.765625,-0.7128906,0.7236328,-50.25,40.8125,-11.90625
730,1697635165,-1.4433594,0.078125,-0.043945312,-82.71875,25.5,5.90625
731,1697635205,-1.2958984,-0.41015625,-0.12890625,150.625,18.65625,39.53125
732,1697635245,-1.3818359,-0.5908203,0.49121094,51.6875,-61.0625,10.71875
733,1697635285,-1.1044922,-0.123046875,0.30664062,2.3125,-170.125,-64.21875
734,1697635325,-1.2636719,0.5410156,0.25097656,-6.53125,-123.90625,-26.5
735,1697635365,-0.7685547,0.15917969,0.08984375,-95.78125,-38.21875,5.0
736,1697635405,-0.44433594,-0.17578125,-0.13183594,-40.3125,-11.1875,0.09375
737,1697635445,-0.4140625,-0.3720703,0.31152344,-54.40625,-29.9375,-11.5
738,1697635485,-0.41503906,-0.2783203,0.2763672,-79.125,21.15625,-5.09375
739,1697635525,-0.62402344,-0.4404297,0.5205078,-50.5,38.0625,-5.3125
740,1697635565,-1.3857422,-1.4853516,-0.19824219,42.71875,88.53125,-117.75
741,1697635605,-1.6054688,-0.3466797,0.57421875,-43.34375,-46.46875,-27.34375
742,1697635645,-1.3066406,0.4111328,-0.36523438,150.625,34.03125,36.125
743,1697635685,-1.0498047,-0.22949219,-0.5410156,-67.46875,-26.75,82.875
744,1697635725,-0.6689453,-0.8964844,0.18359375,74.8125,-10.6875,86.40625
745,1697635765,-0.53515625,-0.7734375,-0.1953125,209.53125,134.09375,20.25
746,1697635805,-0.77734375,-0.31445312,0.07421875,-68.25,123.875,4.0
747,1697635845,-0.8828125,-0.5253906,0.93066406,-191.53125,39.46875,-22.53125
748,1697635885,-1.4863281,0.19921875,-0.059570312,24.21875,4.0,-2.03125
749,1697635925,-1.0878906,-0.38183594,0.06542969,149.03125,6.46875,37.15625
750,1697635965,-1.4199219,-0.69433594,0.37890625,-0.6875,-76.3125,23.375
751,1697636005,-1.1416016,0.125,0.23632812,-17.09375,-175.125,-49.46875
752,1697636045,-1.1914062,0.5908203,0.2763672,-12.90625,-89.0,-14.84375
753,1697636085,-0.5888672,0.16113281,0.044921875,-100.28125,-24.3125,-17.09375
754,1697636125,-0.47070312,-0.11035156,-0.11816406,-40.125,-2.34375,6.46875
755,1697636165,-0.43652344,-0.39746094,0.2265625,-77.65625,-25.53125,-16.5
756,1697636205,-0.44335938,-0.484375,0.30664062,-100.78125,37.9375,-4.90625
757,1697636245,-0.6464844,-0.72265625,0.43652344,-27.1875,49.65625,-9.65625
758,1697636285,-1.1484375,-1.0800781,1.1894531,67.78125,29.53125,-51.84375
759,1697636325,-1.9472656,-0.27929688,-0.0048828125,-48.71875,86.84375,-115.375
