# Sensor type: Respeck
# Activity type: Standing
# Activity subtype: Hyperventilating
# Subject id: s2090495
# Notes: 
timestamp,accel_x,accel_y,accel_z,gyro_x,gyro_y,gyro_z
1695832094173,-0.19335938,-0.93878174,0.04510498,-4.0,-0.53125,-0.5625
1695832094203,-0.203125,-0.9702759,0.07244873,-4.34375,-1.15625,-1.625
1695832094248,-0.20751953,-0.99468994,0.07220459,-5.15625,-1.453125,-1.984375
1695832094293,-0.20947266,-0.9920044,0.070007324,-8.09375,-2.703125,-3.140625
1695832094325,-0.20703125,-0.97076416,0.097595215,-4.578125,-2.9375,-3.953125
1695832094369,-0.23583984,-1.003479,0.066833496,-8.15625,-2.203125,-2.734375
1695832094414,-0.21728516,-0.96539307,0.13421631,0.5625,1.25,-1.21875
1695832094443,-0.2475586,-0.9505005,0.09173584,-1.703125,0.25,-0.625
1695832094488,-0.25,-0.9680786,0.0680542,-7.125,-3.640625,-2.59375
1695832094519,-0.2109375,-0.94659424,0.082458496,-7.359375,-2.234375,-3.859375
1695832094564,-0.2421875,-1.006897,0.14105225,-0.9375,0.546875,-0.671875
1695832094639,-0.23510742,-0.9668579,0.12322998,-3.75,-0.6875,-0.953125
1695832094640,-0.23583984,-0.96466064,0.11639404,0.171875,0.90625,-0.046875
1695832094683,-0.2421875,-1.0015259,0.12420654,3.9375,0.859375,2.5
1695832094744,-0.234375,-1.0171509,0.14691162,8.40625,1.84375,2.390625
1695832094759,-0.22314453,-0.9729614,0.08392334,6.90625,4.296875,4.484375
1695832094806,-0.2006836,-0.92193604,0.074157715,8.609375,2.0625,4.46875
1695832094848,-0.22290039,-0.9595337,0.08709717,2.84375,0.71875,2.484375
1695832094878,-0.24023438,-0.99957275,0.09320068,5.015625,0.796875,2.65625
1695832094924,-0.1965332,-0.9505005,0.09075928,5.09375,0.125,1.78125
1695832094967,-0.18798828,-0.9429321,0.058044434,1.171875,1.34375,0.71875
1695832094998,-0.20727539,-0.94659424,0.059265137,-1.9375,-0.0625,-0.078125
1695832095044,-0.20800781,-0.95977783,0.06561279,-2.484375,-1.5625,-1.8125
1695832095089,-0.21411133,-0.9536743,0.101501465,-2.9375,0.125,-2.421875
1695832095118,-0.22802734,-1.0066528,0.07757568,-3.40625,-1.734375,-1.359375
1695832095163,-0.18774414,-0.9780884,0.0758667,-4.015625,-1.0625,-2.1875
1695832095238,-0.21313477,-0.9751587,0.031433105,-8.265625,-3.296875,-4.3125
1695832095240,-0.22631836,-0.9998169,0.13665771,1.875,1.140625,-1.21875
1695832095313,-0.2253418,-0.9614868,0.08050537,-3.703125,0.9375,-0.484375
1695832095328,-0.22705078,-0.94073486,0.055114746,-6.078125,-3.8125,-1.390625
1695832095359,-0.22241211,-0.96221924,0.0914917,-4.953125,-3.34375,-3.203125
1695832095404,-0.22729492,-0.9949341,0.10076904,-5.25,-2.671875,-2.109375
1695832095433,-0.2487793,-0.98516846,0.10736084,-5.0,-0.640625,0.703125
1695832095478,-0.2409668,-0.97735596,0.10638428,-0.34375,-1.53125,1.78125
1695832095524,-0.21875,-1.0176392,0.097351074,4.359375,0.046875,1.875
1695832095554,-0.21191406,-0.9780884,0.13079834,10.84375,1.78125,4.15625
1695832095599,-0.2241211,-0.9492798,0.07659912,6.28125,0.484375,4.203125
1695832095643,-0.23144531,-0.95928955,0.06585693,4.96875,0.28125,2.984375
1695832095675,-0.21142578,-0.9800415,0.08416748,6.28125,-0.90625,2.765625
1695832095721,-0.21875,-0.9849243,0.07733154,5.6875,1.359375,3.0625
1695832095765,-0.1940918,-0.9434204,0.06048584,4.53125,-0.28125,1.546875
1695832095795,-0.1928711,-0.94854736,0.062683105,-0.40625,-1.140625,-0.6875
1695832095839,-0.19506836,-0.9351196,0.03289795,-4.890625,-0.4375,-2.265625
1695832095899,-0.21875,-0.9631958,0.06048584,-6.296875,0.140625,-2.6875
1695832095914,-0.1940918,-0.99102783,0.10736084,-4.6875,-0.21875,-4.15625
1695832095990,-0.21386719,-1.0098267,0.029724121,-10.71875,-0.515625,-2.875
1695832096005,-0.19384766,-0.9612427,0.10076904,-4.765625,-1.359375,-3.796875
1695832096035,-0.23486328,-0.9614868,0.08441162,-5.40625,-2.515625,-3.359375
1695832096080,-0.22827148,-0.9805298,0.113464355,-1.5,-1.203125,-2.265625
1695832096127,-0.20239258,-0.9627075,0.09490967,-0.921875,1.71875,-0.953125
1695832096155,-0.23950195,-0.9692993,0.07562256,-5.484375,-2.171875,-1.390625
1695832096198,-0.22875977,-0.96881104,0.09246826,-7.34375,-1.78125,-2.9375
1695832096229,-0.22998047,-0.96954346,0.15057373,1.328125,-2.15625,-1.046875
1695832096274,-0.23339844,-0.93951416,0.09539795,-3.875,-3.234375,-1.34375
1695832096319,-0.24169922,-0.99298096,0.117126465,-1.5625,0.9375,-0.390625
1695832096395,-0.22753906,-1.0203247,0.12713623,3.875,2.828125,3.328125
1695832096398,-0.2211914,-0.9951782,0.12054443,8.515625,4.0,4.796875
1695832096439,-0.21362305,-0.956604,0.070495605,6.875,1.09375,3.421875
1695832096469,-0.19897461,-0.9573364,0.078308105,5.25,0.03125,2.546875
1695832096515,-0.22070312,-0.973938,0.081726074,6.21875,1.828125,4.65625
1695832096590,-0.2175293,-0.9854126,0.07293701,3.59375,1.0625,2.15625
1695832096593,-0.19360352,-0.9680786,0.07562256,3.546875,2.359375,1.15625
1695832096649,-0.20263672,-0.92559814,0.05218506,3.625,1.0625,1.984375
1695832096680,-0.20678711,-0.94976807,0.05682373,-2.796875,-0.046875,-0.125
1695832096709,-0.19873047,-0.95196533,0.07318115,-5.390625,0.78125,-1.71875
1695832096754,-0.21704102,-1.0095825,0.09515381,-4.921875,2.640625,-1.03125
1695832096799,-0.17993164,-1.0037231,0.074645996,-5.03125,-1.84375,-1.75
1695832096829,-0.16870117,-0.9793091,0.04437256,-7.15625,-1.515625,-3.765625
1695832096874,-0.20410156,-0.9678345,0.105407715,-3.96875,-2.578125,-3.734375
1695832096919,-0.24145508,-0.99713135,0.11224365,-3.921875,-1.6875,-2.484375
1695832096949,-0.22094727,-0.96881104,0.11273193,1.015625,-1.53125,-1.078125
1695832096994,-0.22631836,-0.9685669,0.09051514,-4.0,-2.328125,-1.515625
1695832097023,-0.23535156,-0.9590454,0.097595215,-7.625,-3.0625,-2.296875
1695832097068,-0.2446289,-0.94976807,0.10784912,-4.265625,-2.09375,-1.71875
1695832097114,-0.23535156,-0.99224854,0.12371826,-2.21875,-2.078125,-2.375
1695832097144,-0.20776367,-0.9614868,0.101989746,-4.359375,-0.953125,-1.765625
1695832097218,-0.2705078,-1.0005493,0.15570068,1.90625,4.171875,1.640625
1695832097234,-0.26391602,-1.0054321,0.1317749,6.6875,1.9375,2.484375
1695832097264,-0.21313477,-0.95318604,0.06707764,7.15625,0.765625,0.65625
1695832097309,-0.2043457,-0.9417114,0.070739746,6.75,1.4375,0.984375
1695832097354,-0.22460938,-1.0020142,0.10858154,5.53125,1.125,2.671875
1695832097384,-0.21850586,-0.99713135,0.10687256,7.734375,1.78125,5.21875
1695832097428,-0.20263672,-0.94000244,0.046081543,0.90625,-0.203125,2.109375
1695832097473,-0.22094727,-0.9216919,0.09832764,2.765625,-0.890625,-0.4375
1695832097504,-0.20874023,-0.9348755,0.057556152,0.578125,1.328125,0.28125
1695832097548,-0.19677734,-0.9595337,0.058044434,-4.828125,-2.078125,-0.75
1695832097594,-0.21386719,-0.9829712,0.09222412,-2.875,1.15625,-1.03125
1695832097624,-0.23925781,-0.96099854,0.07171631,-2.515625,0.28125,-0.15625
1695832097668,-0.20361328,-0.98443604,0.06365967,-5.453125,-3.921875,-1.953125
1695832097714,-0.17578125,-0.9807739,0.094177246,-4.578125,-3.59375,-3.09375
1695832097744,-0.2434082,-0.97076416,0.08660889,-3.296875,-2.984375,-1.703125
1695832097788,-0.22631836,-0.9924927,0.10491943,-5.0625,-2.15625,-3.109375
1695832097818,-0.22021484,-0.9656372,0.08734131,-2.765625,-0.171875,-1.546875
1695832097895,-0.23217773,-0.97052,0.10101318,-2.8125,-1.078125,-0.5625
1695832097908,-0.22265625,-0.9505005,0.11956787,-3.515625,-1.578125,-1.828125
1695832097940,-0.22802734,-0.94122314,0.11468506,-1.453125,0.3125,-1.6875
1695832097984,-0.23754883,-0.96588135,0.10418701,-2.796875,-1.1875,-1.734375
1695832098028,-0.21972656,-0.9751587,0.10858154,-3.140625,-1.578125,-2.40625
1695832098060,-0.26049805,-0.9890747,0.12762451,0.390625,1.3125,1.046875
1695832098104,-0.25268555,-1.0027466,0.14178467,3.125,3.6875,2.203125
1695832098147,-0.23632812,-0.9800415,0.10614014,3.75,1.328125,1.96875
1695832098180,-0.23486328,-0.9680786,0.105895996,5.78125,1.859375,2.75
1695832098224,-0.19628906,-0.96221924,0.11029053,4.21875,1.609375,2.15625
1695832098269,-0.23242188,-0.97442627,0.098083496,3.84375,0.75,2.75
1695832098299,-0.24707031,-0.9685669,0.09515381,4.21875,0.234375,3.171875
1695832098345,-0.19970703,-0.9480591,0.07293701,1.8125,-0.390625,0.984375
1695832098390,-0.2043457,-0.9800415,0.077819824,3.5,-0.28125,1.015625
1695832098421,-0.20605469,-0.9651489,0.07611084,2.015625,0.25,1.5625
1695832098498,-0.21679688,-0.93927,0.06732178,-1.875,-0.875,-0.265625
1695832098510,-0.2290039,-0.9356079,0.078063965,-3.546875,-1.703125,-0.6875
1695832098539,-0.2043457,-0.9837036,0.11029053,-2.828125,1.234375,-1.875
1695832098585,-0.20678711,-0.9871216,0.08905029,-2.90625,0.671875,-1.515625
1695832098618,-0.20800781,-0.9624634,0.030456543,-7.625,-4.984375,-2.53125
1695832098661,-0.17016602,-0.98150635,0.10614014,-4.0625,-5.40625,-6.4375
1695832098705,-0.2331543,-1.0071411,0.13568115,-0.5625,0.09375,-1.046875
1695832098734,-0.23657227,-0.9451294,0.09442139,-2.1875,-2.84375,0.359375
1695832098779,-0.2211914,-0.9451294,0.090026855,-3.578125,-1.25,-1.765625
1695832098826,-0.24023438,-0.98516846,0.113464355,-3.0625,0.828125,-1.6875
1695832098855,-0.24975586,-0.98272705,0.1317749,-3.734375,0.109375,-1.140625
1695832098898,-0.21801758,-0.960022,0.077819824,-3.5625,-0.265625,-0.9375
1695832098945,-0.22680664,-0.9470825,0.12640381,-3.40625,-0.796875,-1.875
1695832098975,-0.2529297,-0.9812622,0.14788818,-1.234375,-0.640625,-0.859375
1695832099020,-0.24145508,-1.0132446,0.12445068,-1.46875,1.9375,-0.3125
1695832099065,-0.25048828,-0.96881104,0.10394287,3.1875,-1.34375,2.046875
1695832099095,-0.22094727,-0.9614868,0.09197998,2.828125,-1.625,0.65625
1695832099172,-0.22875977,-0.9763794,0.10638428,10.171875,-4.1875,3.5625
1695832099184,-0.23022461,-0.94781494,0.07928467,11.03125,-3.0625,5.359375
1695832099215,-0.19750977,-0.96832275,0.07244873,14.4375,0.390625,4.671875
1695832099261,-0.19335938,-0.9507446,0.11932373,12.765625,5.171875,7.953125
1695832099305,-0.29541016,-1.100647,0.08538818,13.5625,3.671875,8.703125
1695832099334,-0.15966797,-0.8484497,-0.021057129,3.953125,-4.640625,-0.53125
1695832099380,-0.2109375,-0.9204712,0.029968262,-2.796875,-2.296875,-3.984375
1695832099409,-0.17138672,-0.99420166,0.030456543,-0.90625,-1.28125,0.875
1695832099455,-0.18530273,-0.96417236,0.021911621,-6.875,-1.484375,-1.546875
1695832099501,-0.21264648,-1.0317993,0.032409668,-2.96875,1.46875,-1.703125
1695832099530,-0.18115234,-0.9793091,0.034606934,-2.859375,-0.921875,-1.171875
1695832099574,-0.21899414,-0.94000244,0.06048584,-9.609375,-2.296875,-2.375
1695832099619,-0.20581055,-0.954895,0.051696777,-6.953125,-3.0625,-4.234375
1695832099650,-0.19604492,-1.0149536,0.074645996,-5.796875,-3.21875,-5.453125
1695832099696,-0.22631836,-0.9993286,0.08685303,-6.34375,-2.578125,-3.53125
1695832099771,-0.24536133,-0.95880127,0.08709717,-2.46875,-1.796875,-2.015625
1695832099774,-0.21875,-0.95318604,0.07171631,-5.546875,0.59375,-2.921875
1695832099846,-0.20751953,-0.9690552,0.06561279,-5.21875,1.75,-2.765625
1695832099860,-0.24194336,-0.97491455,0.08758545,-2.671875,2.65625,-0.71875
1695832099890,-0.25097656,-1.0010376,0.086364746,1.515625,3.796875,-0.921875
1695832099936,-0.2253418,-1.0320435,0.113708496,1.5,3.734375,-0.359375
1695832099980,-0.23291016,-0.9380493,0.05316162,-5.15625,1.640625,0.828125
1695832100010,-0.2524414,-0.93707275,0.06097412,2.953125,-2.203125,-0.546875
1695832100055,-0.22949219,-1.0071411,0.09661865,5.90625,-2.46875,1.609375
1695832100101,-0.2163086,-1.0032349,0.1293335,10.140625,2.34375,5.4375
1695832100131,-0.22045898,-0.94610596,0.06463623,7.9375,1.9375,6.40625
1695832100174,-0.21508789,-0.9714966,0.047302246,9.65625,0.171875,3.328125
1695832100205,-0.21459961,-1.0457153,0.08074951,10.171875,2.125,4.671875
1695832100248,-0.19018555,-0.8887329,-0.014953613,-0.484375,-5.375,1.484375
1695832100296,-0.21728516,-0.9089966,0.066589355,-0.5,0.140625,-0.96875
1695832100324,-0.2006836,-0.9060669,0.012634277,-7.15625,-1.046875,-2.140625
1695832100372,-0.19897461,-1.0300903,0.0770874,-7.84375,-0.078125,-2.203125
1695832100445,-0.21679688,-0.9849243,0.08294678,-7.375,-0.25,-0.3125
1695832100459,-0.21435547,-0.94000244,0.040222168,-6.984375,-4.875,-3.171875
1695832100490,-0.19799805,-0.9678345,0.034118652,-8.875,-6.734375,-5.65625
1695832100536,-0.18896484,-0.9898071,0.06903076,-7.265625,-5.84375,-3.90625
1695832100566,-0.24951172,-1.019104,0.13934326,-1.25,0.53125,-0.46875
1695832100609,-0.25512695,-0.9404907,0.07977295,-1.421875,-1.65625,-0.703125
1695832100654,-0.2368164,-0.9468384,0.11444092,-0.546875,-1.515625,-1.421875
1695832100685,-0.21435547,-0.98101807,0.062438965,-3.421875,-1.1875,-1.390625
1695832100729,-0.21728516,-0.9741821,0.09124756,-5.109375,-0.234375,-3.421875
1695832100775,-0.2722168,-1.0405884,0.13543701,1.9375,2.25,1.59375
1695832100806,-0.24658203,-0.97442627,0.07977295,2.9375,-1.390625,2.296875
1695832100866,-0.20214844,-0.9314575,0.0692749,3.375,-0.859375,1.015625
1695832100895,-0.23876953,-0.9602661,0.09661865,6.28125,-1.734375,1.15625
1695832100924,-0.22045898,-0.9837036,0.10076904,4.375,1.6875,2.546875
1695832100969,-0.23632812,-0.9746704,0.054382324,1.078125,-2.359375,-0.203125
1695832100999,-0.25048828,-0.9807739,0.08831787,5.671875,-0.3125,-0.828125
1695832101076,-0.23950195,-0.95562744,0.036071777,2.625,1.59375,2.390625
1695832101091,-0.19433594,-0.92755127,0.05706787,0.84375,-0.46875,1.75
1695832101118,-0.19067383,-0.9541626,0.04095459,-2.9375,-1.1875,-0.78125
1695832101166,-0.2019043,-0.9500122,0.06512451,-2.765625,-0.625,-0.84375
1695832101210,-0.2006836,-0.9480591,0.074157715,-5.703125,-0.96875,-2.03125
1695832101239,-0.22875977,-0.9871216,0.07293701,-3.015625,0.765625,-0.328125
1695832101284,-0.2331543,-1.0012817,0.05633545,-8.515625,-2.875,-1.109375
1695832101330,-0.23754883,-0.9990845,0.12542725,-1.640625,-0.203125,0.203125
1695832101360,-0.21386719,-0.95025635,0.09832764,0.40625,0.984375,1.90625
1695832101405,-0.22290039,-0.92266846,0.0680542,-6.03125,-1.21875,-0.40625
1695832101450,-0.2175293,-0.9573364,0.06121826,-9.796875,-4.375,-4.359375
1695832101481,-0.24609375,-1.0310669,0.14691162,-5.1875,-1.5625,-3.140625
1695832101525,-0.2265625,-0.97369385,0.11248779,-7.203125,1.546875,-2.015625
1695832101571,-0.21191406,-0.93585205,0.121520996,-6.3125,1.75,-2.28125
1695832101600,-0.25463867,-0.93707275,0.137146,-6.609375,-0.015625,-1.921875
1695832101677,-0.25634766,-0.986145,0.16082764,-4.296875,1.390625,-1.90625
1695832101691,-0.27026367,-1.0349731,0.137146,-4.765625,2.78125,0.34375
1695832101719,-0.23754883,-0.96832275,0.13201904,3.484375,-0.09375,0.0
1695832101765,-0.20288086,-0.95440674,0.09564209,9.34375,-2.609375,1.25
1695832101796,-0.22924805,-0.9807739,0.15618896,7.0625,-1.34375,2.515625
1695832101839,-0.2409668,-0.9404907,0.14935303,8.328125,2.4375,3.078125
1695832101886,-0.26879883,-0.9258423,0.093688965,4.921875,0.140625,2.828125
1695832101915,-0.22509766,-0.97979736,0.085632324,1.34375,-0.046875,0.96875
1695832101961,-0.20629883,-0.99053955,0.105407715,2.90625,-0.65625,2.640625
1695832102005,-0.203125,-0.95562744,0.077819824,1.65625,-2.421875,1.796875
1695832102036,-0.21899414,-0.9402466,0.09295654,3.484375,-0.671875,2.15625
1695832102081,-0.20898438,-0.9065552,0.090270996,-2.84375,-0.59375,1.71875
1695832102125,-0.2019043,-0.97979736,0.10736084,-4.03125,0.8125,-0.390625
1695832102155,-0.20239258,-0.98638916,0.082458496,-14.109375,-1.71875,-1.65625
1695832102200,-0.25390625,-0.9819946,0.13153076,-5.921875,-2.0,-2.921875
1695832102245,-0.21020508,-0.9776001,0.14202881,-3.765625,-0.21875,-1.90625
1695832102275,-0.18725586,-0.9483032,0.10443115,-5.96875,-1.859375,-3.296875
1695832102320,-0.2121582,-0.9470825,0.11810303,-8.328125,-3.140625,-3.328125
1695832102396,-0.26293945,-0.98321533,0.18084717,-3.421875,-1.03125,-2.5
1695832102398,-0.26391602,-0.9819946,0.15325928,-0.234375,-0.21875,-0.265625
1695832102454,-0.21728516,-0.9368286,0.113220215,-3.828125,0.375,0.5
1695832102516,-0.2368164,-0.95318604,0.17474365,-1.375,1.703125,0.34375
1695832102519,-0.2722168,-1.0012817,0.1918335,3.640625,2.078125,1.984375
1695832102559,-0.2368164,-0.9771118,0.11199951,0.5,0.03125,0.765625
1695832102589,-0.21557617,-0.9194946,0.09906006,1.25,-4.375,-3.140625
1695832102635,-0.25805664,-0.99835205,0.1227417,8.1875,-4.078125,-0.375
1695832102680,-0.19921875,-0.99542236,0.16644287,14.890625,1.375,3.625
1695832102725,-0.22583008,-0.92974854,0.04168701,4.515625,0.890625,2.5625
1695832102755,-0.22875977,-0.98150635,0.08929443,8.609375,3.796875,3.09375
1695832102799,-0.25708008,-0.9976196,0.14447021,17.75,9.78125,9.15625
1695832102831,-0.22802734,-0.93707275,0.029724121,7.75,2.09375,7.890625
1695832102876,-0.1665039,-0.97979736,0.04119873,12.0,4.359375,4.125
1695832102921,-0.15576172,-0.9602661,0.058044434,13.0625,5.171875,6.125
1695832102949,-0.15478516,-0.9307251,0.026062012,-2.234375,1.109375,2.328125
1695832103025,-0.16796875,-0.95513916,0.021911621,-9.5625,-2.21875,-3.375
1695832103039,-0.18652344,-1.0205688,0.105407715,-7.8125,-1.59375,-4.640625
1695832103070,-0.18725586,-1.0029907,0.053894043,-9.796875,-3.015625,-3.78125
1695832103115,-0.19384766,-0.9595337,0.0021362305,-10.21875,-4.96875,-3.453125
1695832103159,-0.19140625,-1.0064087,0.10638428,2.03125,0.9375,-1.1875
1695832103189,-0.18920898,-0.9834595,0.08416748,-5.140625,-2.546875,-0.296875
1695832103236,-0.18017578,-0.9495239,0.081726074,-8.96875,-7.3125,-2.015625
1695832103281,-0.2084961,-0.986145,0.093933105,-8.015625,-1.703125,-3.65625
1695832103311,-0.21533203,-0.9944458,0.11639404,-6.28125,-1.578125,-2.9375
1695832103355,-0.23779297,-0.95928955,0.1071167,-4.421875,-3.734375,-2.484375
1695832103385,-0.22070312,-0.95513916,0.1005249,-5.125,-3.9375,-4.78125
1695832103430,-0.19970703,-1.0078735,0.13006592,-3.703125,0.140625,-3.0625
1695832103475,-0.2626953,-1.0164185,0.11663818,1.0625,2.5,2.03125
1695832103505,-0.24780273,-0.96417236,0.117614746,2.578125,0.015625,1.390625
1695832103549,-0.2097168,-0.9595337,0.11224365,4.0,-0.6875,-1.265625
1695832103597,-0.19995117,-0.95880127,0.10321045,4.640625,1.578125,0.0
1695832103626,-0.22998047,-0.9776001,0.10491943,4.75,2.203125,1.28125
1695832103701,-0.23950195,-0.95977783,0.10272217,4.828125,-0.46875,0.875
1695832103715,-0.22387695,-0.9470825,0.07562256,3.9375,-1.734375,-0.109375
1695832103744,-0.2109375,-0.9451294,0.08660889,2.625,-0.953125,0.375
1695832103790,-0.21875,-0.9397583,0.070739746,-1.078125,-0.265625,0.109375
1695832103835,-0.2211914,-0.9512329,0.06903076,-3.984375,-1.609375,-1.3125
1695832103865,-0.2109375,-0.9578247,0.08148193,-1.59375,-3.15625,-2.25
1695832103909,-0.2265625,-1.015686,0.10662842,0.3125,-0.46875,-0.6875
1695832103956,-0.23535156,-0.9800415,0.07977295,-3.0,0.5625,-0.5
1695832103986,-0.2319336,-0.9434204,0.07684326,-3.671875,-4.015625,-2.296875
1695832104030,-0.2290039,-0.9795532,0.105163574,-4.984375,-2.359375,-2.9375
1695832104075,-0.22924805,-0.9729614,0.10614014,-4.09375,-0.265625,-2.15625
1695832104104,-0.24536133,-0.9627075,0.08758545,-5.1875,-1.59375,-1.484375
1695832104149,-0.24316406,-0.9783325,0.12322998,-2.90625,-0.71875,-1.421875
1695832104180,-0.23071289,-0.95562744,0.116882324,-5.1875,0.453125,-1.546875
1695832104255,-0.26708984,-0.940979,0.1251831,-2.78125,-0.59375,-0.1875
1695832104270,-0.25048828,-0.95025635,0.11932373,-4.015625,-0.9375,-1.46875
1695832104300,-0.24365234,-0.9795532,0.12713623,-2.859375,0.03125,-1.796875
1695832104345,-0.25683594,-1.0061646,0.14935303,0.453125,0.640625,0.375
1695832104390,-0.24438477,-0.9678345,0.13739014,3.859375,1.65625,2.015625
1695832104421,-0.24023438,-0.95513916,0.11907959,3.921875,1.828125,1.765625
1695832104465,-0.24023438,-0.95806885,0.11273193,4.859375,-0.65625,2.125
1695832104510,-0.22460938,-0.97076416,0.105163574,4.15625,1.640625,1.671875
1695832104540,-0.24291992,-0.98272705,0.1227417,6.0625,1.765625,2.328125
1695832104585,-0.24658203,-0.94732666,0.10662842,5.953125,-0.890625,1.9375
1695832104629,-0.22753906,-0.9175415,0.074401855,1.203125,-0.78125,0.90625
1695832104660,-0.22680664,-0.93292236,0.1005249,-0.640625,0.78125,0.90625
1695832104706,-0.22143555,-0.92559814,0.085632324,-5.390625,-0.125,0.3125
1695832104750,-0.23168945,-0.9963989,0.1149292,-3.78125,-0.734375,-0.1875
1695832104780,-0.22998047,-0.9993286,0.101745605,-4.828125,-0.796875,1.203125
1695832104856,-0.21069336,-0.97491455,0.09832764,-4.390625,-0.21875,-1.5
1695832104870,-0.21386719,-0.9685669,0.11517334,-5.59375,-0.21875,-2.546875
1695832104900,-0.22314453,-0.95196533,0.10809326,-6.640625,-1.375,-1.828125
1695832104946,-0.21655273,-0.9336548,0.10809326,-5.046875,-4.296875,-2.265625
1695832104975,-0.2590332,-1.0061646,0.14910889,6.53125,-1.921875,-0.0625
1695832105019,-0.2084961,-0.9968872,0.13104248,7.953125,1.34375,2.140625
1695832105066,-0.2097168,-0.9434204,0.08270264,5.265625,-0.078125,1.296875
1695832105095,-0.21826172,-0.9365845,0.06878662,7.34375,-0.234375,-0.328125
1695832105140,-0.22583008,-1.0144653,0.090026855,12.625,4.03125,2.421875
1695832105185,-0.23657227,-0.9837036,0.07318115,7.0625,1.8125,5.125
1695832105215,-0.2409668,-0.9702759,0.062438965,4.6875,2.03125,1.15625
1695832105261,-0.20947266,-1.0025024,0.06585693,4.5625,1.296875,1.484375
1695832105305,-0.21069336,-0.9507446,0.066345215,0.8125,-0.65625,1.4375
1695832105349,-0.21606445,-0.97491455,0.066345215,1.515625,-0.171875,1.34375
1695832105382,-0.21972656,-0.987854,0.078063965,3.640625,-1.640625,0.390625
1695832105425,-0.2290039,-0.9624634,0.06707764,0.203125,-3.046875,-2.15625
1695832105454,-0.22705078,-0.956604,0.029968262,1.484375,-2.515625,-2.984375
1695832105529,-0.20214844,-0.975647,0.038024902,7.796875,-1.203125,0.109375
1695832105546,-0.22314453,-0.9800415,0.0026245117,7.609375,0.203125,2.0
1695832105576,-0.2006836,-0.97003174,0.010681152,6.078125,-1.046875,0.671875
1695832105620,-0.19848633,-0.9402466,0.010192871,-1.9375,-0.78125,-0.921875
1695832105666,-0.21435547,-0.94317627,0.007507324,-4.625,-1.734375,-1.359375
1695832105695,-0.22363281,-0.96051025,0.043884277,-6.125,-2.09375,-2.484375
1695832105740,-0.23217773,-0.9729614,0.02166748,-8.1875,-3.171875,-3.90625
1695832105769,-0.23413086,-0.9927368,0.030944824,-6.671875,-1.734375,-4.171875
1695832105815,-0.20727539,-0.9902954,0.04046631,-6.984375,-0.703125,-3.453125
1695832105860,-0.23901367,-0.98565674,0.047546387,-5.8125,0.5625,-0.71875
1695832105890,-0.22167969,-0.96710205,0.025817871,-3.46875,0.84375,0.5625
1695832105935,-0.20654297,-0.9495239,0.054626465,-0.765625,1.484375,2.40625
1695832105980,-0.24780273,-0.9854126,0.09588623,-3.203125,0.59375,1.015625
1695832106009,-0.25048828,-0.9859009,0.08270264,-7.28125,-0.8125,-2.140625
1695832106055,-0.2355957,-0.9751587,0.07611084,-5.90625,-2.109375,-4.15625
1695832106130,-0.2241211,-0.9866333,0.073913574,-4.296875,2.21875,-2.21875
1695832106132,-0.22631836,-0.96661377,0.08514404,-3.34375,0.828125,-1.828125
1695832106204,-0.2109375,-0.9702759,0.09686279,-4.140625,1.40625,-2.28125
1695832106220,-0.265625,-0.99664307,0.1161499,2.328125,1.09375,0.984375
1695832106249,-0.23291016,-0.9451294,0.093933105,4.125,1.953125,2.140625
1695832106295,-0.25097656,-0.972229,0.078552246,10.21875,1.65625,4.046875
1695832106339,-0.20361328,-0.9451294,0.0836792,11.40625,0.625,2.90625
1695832106371,-0.3022461,-1.0523071,0.1671753,15.65625,4.34375,5.75
1695832106416,-0.25317383,-0.89190674,-0.009338379,3.9375,-2.359375,6.765625
1695832106460,-0.14379883,-0.89019775,-0.07305908,2.375,-2.984375,-7.171875
1695832106490,-0.17358398,-1.0305786,0.062438965,4.71875,0.5625,3.78125
1695832106535,-0.2109375,-0.97198486,0.018493652,2.53125,0.265625,5.296875
1695832106565,-0.18261719,-0.9180298,-0.030334473,-4.203125,-2.359375,0.34375
1695832106609,-0.17700195,-0.95147705,0.02532959,-4.109375,-2.546875,-1.71875
1695832106655,-0.2163086,-1.0159302,0.054870605,-6.921875,-1.3125,0.40625
1695832106684,-0.203125,-1.0027466,0.04168701,-7.328125,-4.234375,-0.234375
1695832106745,-0.19702148,-0.9685669,0.06072998,-9.03125,-2.9375,-0.6875
1695832106775,-0.22314453,-0.9849243,0.08001709,-8.578125,-0.484375,-1.515625
1695832106804,-0.21459961,-0.98394775,0.070739746,-9.734375,-2.109375,-2.875
1695832106881,-0.19116211,-0.9717407,0.08294678,-11.90625,-1.59375,-3.859375
1695832106896,-0.21801758,-0.97076416,0.101257324,-7.84375,-0.4375,-1.71875
1695832106925,-0.24829102,-0.99664307,0.10760498,-5.703125,-0.09375,-0.40625
1695832106969,-0.22167969,-1.0042114,0.105651855,-3.40625,-1.375,-2.5
1695832107015,-0.22241211,-0.96759033,0.08660889,0.203125,-2.046875,-1.734375
1695832107043,-0.20532227,-0.9561157,0.09661865,7.96875,0.453125,1.25
1695832107091,-0.21948242,-0.987854,0.09564209,13.109375,-0.375,2.4375
1695832107135,-0.22583008,-0.9902954,0.11004639,15.71875,3.140625,3.625
1695832107165,-0.21948242,-0.95196533,0.053649902,11.171875,4.03125,6.1875
1695832107210,-0.2253418,-0.9324341,0.03704834,7.390625,1.78125,3.1875
1695832107286,-0.20043945,-0.9595337,0.031921387,5.71875,-1.03125,1.703125
1695832107288,-0.18530273,-0.9834595,0.04168701,6.4375,0.328125,1.4375
1695832107330,-0.20117188,-0.9331665,0.011657715,-0.84375,1.015625,2.046875
1695832107359,-0.1977539,-0.92852783,-0.010803223,-6.140625,-2.28125,-0.65625
1695832107437,-0.18701172,-1.0217896,0.06414795,-2.390625,0.5,-1.5
1695832107450,-0.21508789,-1.0025024,0.05291748,-4.796875,-1.359375,0.375
1695832107479,-0.20922852,-0.97003174,0.016052246,-8.84375,-2.25,-4.046875
1695832107525,-0.18115234,-0.9680786,0.038513184,-5.671875,-3.359375,-4.84375
1695832107570,-0.2175293,-0.9998169,0.0680542,-3.296875,-2.75,-1.484375
1695832107599,-0.22460938,-0.9768677,0.05340576,-3.375,-0.84375,-1.6875
1695832107646,-0.20629883,-0.9663696,0.06707764,-2.21875,-2.703125,-1.859375
1695832107691,-0.21850586,-0.9590454,0.04071045,-7.796875,-0.390625,-3.03125
1695832107722,-0.21191406,-0.9636841,0.074157715,-5.328125,-0.25,-1.390625
1695832107765,-0.2331543,-1.0056763,0.09588623,-5.59375,2.40625,1.09375
1695832107812,-0.2487793,-0.95806885,0.055358887,-3.921875,-1.90625,-2.1875
1695832107841,-0.2006836,-0.958313,0.08465576,-3.78125,1.875,-2.609375
1695832107885,-0.25195312,-1.0269165,0.101745605,1.0625,2.15625,1.5625
1695832107929,-0.21069336,-0.9680786,0.07147217,4.484375,-2.84375,-1.234375
1695832107961,-0.21508789,-0.9714966,0.07757568,7.578125,-0.03125,1.296875
1695832108006,-0.23071289,-0.98687744,0.09075928,9.90625,1.359375,4.546875
1695832108080,-0.20629883,-0.9763794,0.04925537,7.78125,3.5625,4.375
1695832108082,-0.1977539,-0.95513916,0.06707764,10.671875,2.796875,2.75
1695832108158,-0.2097168,-0.9837036,0.02532959,6.6875,1.734375,3.234375
1695832108160,-0.18237305,-0.9915161,0.03338623,9.421875,-0.65625,1.671875
1695832108199,-0.17700195,-0.972229,0.010192871,7.046875,1.4375,2.390625
1695832108245,-0.21313477,-0.9365845,0.00579834,3.078125,-1.25,3.140625
1695832108275,-0.18945312,-0.923645,-0.014953613,-0.546875,-2.96875,-0.171875
1695832108319,-0.16967773,-0.97052,-0.0056762695,-4.390625,0.015625,-0.984375
1695832108364,-0.20776367,-1.0020142,0.0446167,-4.8125,-0.953125,-0.109375
1695832108396,-0.19189453,-1.0112915,0.003112793,-9.3125,-3.984375,-1.78125
1695832108439,-0.16040039,-0.9170532,0.0016479492,-9.734375,-6.515625,-6.109375
1695832108486,-0.20776367,-1.0393677,0.06854248,-5.546875,-1.640625,-3.328125
1695832108514,-0.23608398,-0.98516846,0.058776855,-6.34375,-3.484375,-2.609375
1695832108559,-0.21044922,-0.9639282,0.045837402,-8.21875,-1.890625,-1.671875
1695832108605,-0.20703125,-0.9692993,0.05218506,-10.578125,-0.171875,-2.578125
1695832108635,-0.22045898,-0.9631958,0.08807373,-9.09375,-0.34375,-3.46875
1695832108710,-0.21484375,-0.98809814,0.082458496,-9.140625,-0.1875,-3.296875
1695832108726,-0.22607422,-0.96881104,0.09246826,-3.53125,0.0625,-1.953125
1695832108756,-0.26049805,-0.9776001,0.0927124,-2.09375,2.375,-0.046875
1695832108816,-0.25683594,-0.9915161,0.09100342,3.1875,-0.84375,0.65625
1695832108845,-0.21850586,-0.9837036,0.08123779,5.40625,2.1875,2.296875
1695832108875,-0.21142578,-0.9585571,0.08685303,7.75,0.140625,3.546875
1695832108920,-0.21435547,-0.9837036,0.08319092,6.265625,1.859375,3.09375
1695832108950,-0.20361328,-0.9558716,0.07635498,8.140625,1.296875,3.078125
1695832108996,-0.22387695,-1.006897,0.062927246,9.4375,3.53125,3.8125
1695832109040,-0.20776367,-0.9505005,0.053894043,7.421875,-0.734375,2.921875
1695832109071,-0.20532227,-0.9522095,0.050720215,6.171875,0.359375,0.484375
1695832109115,-0.17871094,-0.9524536,0.024597168,3.84375,-1.0625,0.859375
1695832109160,-0.19018555,-0.9402466,0.005065918,-6.125,-1.921875,-0.984375
1695832109189,-0.20410156,-0.975647,0.06976318,-3.40625,0.375,-1.140625
1695832109235,-0.23486328,-0.973938,0.05218506,-9.015625,-2.921875,1.046875
1695832109279,-0.18115234,-0.954895,0.001159668,-13.484375,-5.5,-2.546875
1695832109310,-0.1538086,-0.96343994,0.07684326,-7.0625,-5.34375,-6.296875
1695832109388,-0.17797852,-1.02594,0.070495605,-8.09375,-3.640625,-6.625
1695832109400,-0.2331543,-0.99835205,0.10491943,-4.78125,-3.859375,-4.5
1695832109429,-0.25805664,-0.96417236,0.09686279,-1.640625,-3.421875,-4.140625
1695832109476,-0.23608398,-0.9475708,0.078308105,-1.53125,-0.9375,-1.625
1695832109521,-0.2512207,-0.989563,0.121520996,-0.96875,2.078125,-1.203125
1695832109550,-0.24804688,-0.9729614,0.07977295,-3.375,1.515625,-0.75
1695832109596,-0.21923828,-0.9475708,0.06732178,-3.546875,-0.28125,-0.84375
1695832109639,-0.23706055,-0.9795532,0.11566162,-3.390625,0.40625,-0.671875
1695832109671,-0.26293945,-0.98687744,0.10076904,0.25,-0.203125,1.5
1695832109715,-0.2512207,-0.98028564,0.11395264,4.03125,-0.21875,1.828125
1695832109744,-0.24291992,-0.954895,0.070739746,2.4375,-1.296875,1.625
1695832109789,-0.23242188,-0.9678345,0.11639404,8.03125,-1.71875,0.171875
1695832109835,-0.22753906,-1.0025024,0.09100342,7.34375,0.0625,3.25
1695832109865,-0.20019531,-0.960022,0.050231934,10.921875,-3.203125,3.015625
1695832109910,-0.22216797,-0.9378052,0.055603027,7.59375,1.125,4.796875
1695832109955,-0.25805664,-0.97198486,0.02923584,4.09375,-0.9375,4.5625
1695832109985,-0.2241211,-0.9949341,0.046569824,3.484375,0.359375,2.8125
1695832110060,-0.19189453,-0.9651489,0.016784668,6.515625,1.0625,2.5625
1695832110075,-0.1665039,-0.9451294,0.0060424805,2.4375,2.390625,3.234375
1695832110105,-0.19091797,-0.93463135,0.008728027,-3.546875,1.15625,1.890625
1695832110151,-0.21484375,-0.95880127,0.04168701,-4.34375,-1.625,-1.296875
1695832110198,-0.19702148,-1.0303345,0.04510498,-4.140625,0.96875,-2.359375
1695832110228,-0.20361328,-1.0122681,0.023864746,-4.921875,1.453125,-0.765625
1695832110271,-0.18066406,-0.9639282,0.03704834,-6.59375,-0.328125,-2.1875
1695832110316,-0.18432617,-0.9612427,0.035583496,-8.375,-2.359375,-4.421875
1695832110346,-0.20458984,-0.99835205,0.08441162,-5.640625,-1.25,-3.828125
1695832110391,-0.22045898,-0.98809814,0.070739746,-6.328125,2.1875,-0.875
1695832110435,-0.22485352,-0.96881104,0.07684326,-4.84375,2.421875,-1.078125
1695832110465,-0.22241211,-0.9717407,0.06072998,-8.359375,0.1875,-2.75
1695832110510,-0.1899414,-0.96954346,0.093933105,-5.984375,-1.15625,-3.9375
1695832110539,-0.23388672,-0.973938,0.10418701,-3.859375,-0.234375,-0.859375
1695832110584,-0.25024414,-0.9924927,0.09539795,-1.390625,-1.859375,-1.4375
1695832110659,-0.22753906,-0.991272,0.08319092,-0.796875,-2.296875,-2.640625
1695832110662,-0.21972656,-0.94610596,0.098083496,-2.40625,-2.15625,-1.34375
1695832110736,-0.23144531,-0.9627075,0.1149292,-0.75,-1.6875,-0.609375
1695832110750,-0.2355957,-0.96954346,0.117126465,1.078125,-0.09375,0.5
1695832110779,-0.21972656,-0.9458618,0.11077881,4.375,-0.4375,2.21875
1695832110824,-0.23803711,-0.9451294,0.08123779,-0.671875,-2.296875,4.15625
1695832110870,-0.23730469,-0.9714966,0.10003662,5.71875,-0.421875,5.640625
1695832110900,-0.25170898,-0.95391846,0.109558105,11.015625,-0.46875,6.828125
1695832110944,-0.20947266,-0.94659424,0.066101074,7.265625,-2.6875,1.4375
1695832110991,-0.20898438,-0.97735596,0.0692749,7.015625,-0.28125,2.59375
1695832111020,-0.2475586,-1.0298462,0.06121826,8.96875,2.6875,5.203125
1695832111066,-0.19482422,-0.98638916,0.030212402,6.8125,2.40625,3.125
1695832111111,-0.15893555,-0.98516846,0.02508545,4.578125,1.078125,0.65625
1695832111141,-0.18041992,-0.989563,0.030212402,-1.609375,-0.5,0.671875
1695832111185,-0.19238281,-0.9692993,0.047058105,1.515625,1.03125,-0.953125
1695832111233,-0.19042969,-1.0977173,0.051208496,5.859375,9.609375,0.890625
1695832111259,-0.17041016,-0.9973755,0.04559326,-9.328125,-0.40625,-0.546875
1695832111334,-0.20019531,-0.8772583,0.0079956055,-25.828125,-4.484375,-11.46875
1695832111336,-0.2084961,-1.0159302,0.05609131,-7.21875,-7.96875,-9.328125
1695832111415,-0.18334961,-0.9800415,0.07171631,-11.6875,-3.046875,-4.46875
1695832111425,-0.21899414,-0.96588135,0.051696777,-0.6875,-4.390625,-0.796875
1695832111456,-0.18139648,-0.9351196,0.070495605,-6.859375,2.25,-0.96875
1695832111499,-0.25073242,-0.93707275,0.11273193,-7.046875,-1.765625,0.9375
1695832111545,-0.23022461,-0.9846802,0.12005615,-3.875,-2.71875,0.484375
1695832111576,-0.2277832,-0.97857666,0.101501465,-5.53125,-2.921875,-0.078125
1695832111619,-0.21679688,-0.975647,0.11077881,-5.03125,-1.203125,-0.71875
1695832111665,-0.23657227,-0.96759033,0.11834717,-1.421875,-1.734375,-0.125
1695832111695,-0.23510742,-0.99224854,0.12713623,-1.03125,1.109375,0.546875
1695832111739,-0.22680664,-0.99346924,0.12005615,5.03125,0.3125,3.109375
1695832111785,-0.21704102,-0.9927368,0.124694824,8.546875,1.71875,2.765625
1695832111815,-0.19848633,-0.96099854,0.0836792,4.6875,0.328125,1.546875
1695832111859,-0.20532227,-0.9558716,0.09075928,5.6875,-0.671875,0.921875
1695832111935,-0.20043945,-0.9846802,0.07562256,1.84375,1.125,0.109375
1695832111939,-0.2097168,-0.9841919,0.07147217,4.546875,-0.296875,0.71875
1695832112009,-0.18823242,-0.9492798,0.055358887,0.59375,-2.0,-1.53125
1695832112026,-0.18579102,-0.9417114,0.06097412,-0.171875,-1.84375,-1.265625
1695832112055,-0.21020508,-0.9480591,0.055847168,-4.953125,-1.65625,-1.546875
1695832112100,-0.20507812,-0.96343994,0.07659912,-6.859375,-3.0,-3.015625
1695832112128,-0.21728516,-0.97857666,0.13153076,-4.03125,-0.546875,-2.765625
1695832112176,-0.24072266,-0.9734497,0.08709717,-5.1875,-4.078125,-2.328125
1695832112218,-0.20507812,-0.9470825,0.06536865,-8.953125,-3.953125,-3.65625
1695832112251,-0.22338867,-0.99053955,0.1161499,-3.796875,-1.53125,-1.5
1695832112296,-0.25878906,-1.0151978,0.15863037,2.6875,0.5625,1.8125
1695832112340,-0.2475586,-0.9920044,0.101745605,3.53125,2.125,2.90625
1695832112385,-0.21899414,-0.94317627,0.090270996,4.3125,-0.96875,1.75
1695832112415,-0.20458984,-0.95880127,0.08270264,0.9375,1.0,2.1875
1695832112459,-0.2331543,-0.99420166,0.10247803,5.09375,-1.5625,3.078125
1695832112491,-0.20800781,-0.96295166,0.06854248,3.515625,-0.703125,2.875
1695832112535,-0.22045898,-0.9746704,0.07684326,5.453125,0.515625,2.390625
1695832112610,-0.21850586,-0.9824829,0.085876465,5.703125,1.359375,2.921875
1695832112614,-0.1862793,-0.9522095,0.054382324,2.0625,0.296875,1.234375
1695832112687,-0.18652344,-0.9680786,0.059020996,1.6875,0.984375,0.5
1695832112700,-0.19067383,-0.9368286,0.06414795,-2.390625,0.34375,-0.84375
1695832112729,-0.19702148,-0.97198486,0.06121826,-6.375,-0.078125,-2.25
1695832112775,-0.20581055,-0.9771118,0.10028076,-2.046875,-0.9375,-2.234375
1695832112820,-0.20507812,-0.9763794,0.0914917,-3.09375,-0.671875,-1.40625
1695832112849,-0.20776367,-0.9475708,0.08319092,-4.21875,-1.296875,-2.03125
1695832112895,-0.21533203,-0.9512329,0.047302246,-8.1875,-5.453125,-4.75
1695832112924,-0.2097168,-0.99542236,0.11248779,-3.3125,-2.796875,-3.765625
1695832112969,-0.23706055,-0.98638916,0.11834717,-4.421875,-1.0625,-2.046875
1695832113031,-0.24414062,-0.9602661,0.09906006,-3.9375,-3.6875,-1.84375
1695832113059,-0.22460938,-0.9546509,0.07489014,-4.46875,-1.140625,-2.4375
1695832113092,-0.23291016,-0.9627075,0.105651855,-4.125,-1.1875,-0.796875
1695832113135,-0.24780273,-0.98443604,0.12615967,-4.234375,-0.875,0.734375
1695832113164,-0.23583984,-0.96417236,0.12640381,-2.4375,-0.96875,-0.578125
1695832113241,-0.23022461,-0.9795532,0.120788574,-1.515625,2.015625,-0.3125
1695832113255,-0.23754883,-0.99664307,0.1359253,4.453125,0.078125,1.5625
1695832113285,-0.2409668,-0.9780884,0.11004639,4.0625,-0.078125,1.765625
1695832113329,-0.21533203,-0.9746704,0.120788574,6.078125,1.890625,1.90625
1695832113375,-0.21166992,-0.95025635,0.0914917,4.921875,3.25,2.09375
1695832113405,-0.21533203,-0.9522095,0.07928467,2.171875,1.546875,1.296875
1695832113449,-0.20581055,-1.0022583,0.08514404,1.609375,1.984375,1.234375
1695832113495,-0.21191406,-0.9668579,0.09881592,4.0,0.84375,1.375
1695832113524,-0.20922852,-0.9619751,0.07489014,2.296875,0.578125,0.703125
1695832113568,-0.19799805,-0.9385376,0.07537842,0.09375,-0.359375,-0.5
1695832113614,-0.21557617,-0.94781494,0.054138184,-4.171875,-1.671875,-1.0625
1695832113645,-0.20214844,-0.989563,0.11151123,-2.171875,-2.796875,-1.6875
1695832113690,-0.21655273,-0.9993286,0.098083496,-2.34375,-0.3125,-0.59375
1695832113735,-0.22680664,-0.9714966,0.08123779,-2.703125,-2.609375,-0.609375
1695832113766,-0.2084961,-0.9483032,0.06854248,-5.09375,-3.5,-2.828125
1695832113844,-0.23632812,-0.99224854,0.09686279,-3.0,-3.484375,-2.46875
1695832113846,-0.2277832,-0.975647,0.11541748,-3.453125,-2.59375,-0.0625
1695832113917,-0.22314453,-0.9668579,0.09832764,-2.859375,-1.390625,0.21875
1695832113932,-0.22216797,-0.9439087,0.101257324,-3.484375,-0.375,-0.375
1695832113960,-0.23168945,-0.97198486,0.11053467,-3.609375,-0.3125,-0.765625
1695832114006,-0.23779297,-0.9710083,0.113464355,-5.78125,-1.046875,-2.140625
1695832114050,-0.234375,-0.9631958,0.13763428,-3.53125,-1.46875,-1.796875
1695832114080,-0.24902344,-0.99224854,0.13153076,-0.546875,2.0625,0.4375
1695832114125,-0.2409668,-0.9939575,0.13739014,5.890625,0.421875,2.359375
1695832114169,-0.2277832,-0.95269775,0.10736084,3.34375,0.59375,1.609375
1695832114200,-0.2319336,-0.9546509,0.10443115,5.078125,-0.625,1.71875
1695832114246,-0.23022461,-0.97784424,0.113220215,4.578125,0.78125,1.140625
1695832114289,-0.22558594,-0.9714966,0.109313965,4.53125,0.578125,1.546875
1695832114319,-0.23071289,-0.96588135,0.08905029,3.953125,1.046875,0.5625
1695832114366,-0.23242188,-0.9661255,0.09320068,5.40625,0.453125,0.8125
1695832114414,-0.21044922,-0.94610596,0.05657959,4.34375,-1.046875,1.0625
1695832114441,-0.20581055,-0.95147705,0.07733154,1.1875,-0.671875,0.328125
1695832114515,-0.21801758,-0.9612427,0.06781006,-0.921875,-0.171875,0.609375
1695832114531,-0.18945312,-0.9729614,0.09051514,-1.59375,-3.046875,-1.8125
1695832114559,-0.21508789,-0.9729614,0.08807373,-3.375,-2.140625,-2.65625
1695832114606,-0.22802734,-0.98687744,0.07562256,-3.546875,-2.515625,-2.796875
1695832114634,-0.21655273,-0.9673462,0.06732178,-4.65625,-2.75,-2.765625
1695832114680,-0.2331543,-0.9668579,0.09906006,-2.4375,-1.421875,-0.671875
1695832114726,-0.23950195,-0.97247314,0.10662842,-2.078125,-1.015625,-0.390625
1695832114799,-0.2368164,-0.97003174,0.09539795,-0.609375,0.625,0.578125
1695832114803,-0.2175293,-0.9495239,0.08905029,-4.109375,1.203125,-0.890625
1695832114845,-0.2536621,-0.9776001,0.086120605,-5.171875,-0.84375,-1.21875
1695832114876,-0.22924805,-0.972229,0.10247803,-4.53125,-2.125,-2.390625
1695832114920,-0.22973633,-0.9727173,0.11444092,-3.65625,-0.125,-2.03125
1695832114965,-0.25512695,-0.97979736,0.11981201,-0.515625,0.71875,0.515625
1695832114996,-0.25561523,-0.98760986,0.11639404,4.75,-0.375,1.984375
1695832115039,-0.22827148,-0.95440674,0.101989746,3.796875,0.234375,1.4375
1695832115118,-0.23144531,-0.9661255,0.11053467,6.5,1.609375,2.890625
1695832115123,-0.23291016,-0.9673462,0.082214355,4.75,1.796875,3.1875
1695832115190,-0.2277832,-0.97857666,0.078308105,5.3125,2.921875,2.34375
1695832115204,-0.21313477,-0.97369385,0.0848999,8.828125,2.515625,3.078125
1695832115235,-0.20922852,-0.99884033,0.051696777,5.953125,4.734375,3.875
1695832115279,-0.18945312,-0.9326782,0.035339355,6.046875,0.25,3.21875
1695832115326,-0.20336914,-0.928772,0.028259277,2.234375,-2.0625,0.75
1695832115354,-0.21923828,-0.96417236,0.043640137,3.53125,-3.125,-1.453125
1695832115400,-0.19580078,-0.9812622,0.050964355,1.75,-0.265625,0.296875
1695832115430,-0.17749023,-0.98809814,0.046813965,0.3125,0.078125,-0.640625
1695832115476,-0.19702148,-0.9710083,0.031677246,-1.90625,0.453125,-1.203125
1695832115526,-0.20898438,-0.9714966,0.035583496,-5.640625,-2.703125,-2.734375
1695832115550,-0.19238281,-0.9956665,0.05291748,-5.234375,-3.15625,-3.140625
1695832115596,-0.21533203,-0.98687744,0.07879639,-3.296875,-1.046875,-1.59375
1695832115639,-0.23242188,-0.9746704,0.06976318,-5.015625,-0.25,-1.828125
1695832115670,-0.22705078,-0.96417236,0.06878662,-4.890625,-0.34375,-2.390625
1695832115716,-0.21533203,-0.96173096,0.058776855,-6.875,-0.296875,-2.59375
1695832115791,-0.22094727,-0.96710205,0.074645996,-6.46875,-0.625,-3.015625
1695832115794,-0.234375,-0.9885864,0.08929443,-4.484375,-0.140625,-2.421875
1695832115865,-0.23217773,-0.9890747,0.10467529,-2.59375,0.96875,-2.046875
1695832115881,-0.23803711,-0.9866333,0.09661865,-2.03125,1.5625,-1.078125
1695832115910,-0.24951172,-0.9776001,0.08392334,1.28125,-1.21875,-0.734375
1695832115956,-0.21606445,-0.9573364,0.093688965,-1.8125,-1.328125,-0.171875
1695832116000,-0.24023438,-0.99664307,0.09686279,2.5625,0.640625,2.765625
1695832116030,-0.23046875,-0.9529419,0.086120605,6.546875,-1.9375,2.0
1695832116075,-0.20507812,-0.9585571,0.07489014,2.765625,0.65625,0.921875
1695832116120,-0.23266602,-0.99346924,0.09197998,10.625,-0.46875,1.96875
1695832116150,-0.22753906,-0.98101807,0.061706543,5.6875,1.25,3.578125
1695832116195,-0.23339844,-0.92755127,0.042419434,4.390625,-1.421875,2.265625
1695832116224,-0.20800781,-0.95318604,0.04144287,1.46875,-1.015625,-0.125
1695832116271,-0.1977539,-0.96051025,0.031433105,-1.671875,-0.140625,1.09375
1695832116316,-0.20751953,-0.9536743,0.039489746,-7.15625,-0.65625,-0.21875
1695832116345,-0.22631836,-1.0064087,0.07318115,-3.671875,-0.484375,-0.6875
1695832116419,-0.2175293,-1.0059204,0.066833496,-5.3125,-1.09375,-1.125
1695832116435,-0.2006836,-0.9607544,0.05218506,-10.109375,-2.28125,-2.75
1695832116465,-0.23583984,-0.9644165,0.098083496,-5.40625,-2.34375,-2.125
1695832116510,-0.22949219,-0.9783325,0.09442139,-6.734375,-1.34375,-2.46875
1695832116555,-0.21948242,-0.97052,0.0848999,-7.625,-1.34375,-2.28125
1695832116585,-0.23242188,-0.972229,0.10296631,-4.25,-0.390625,-1.5
1695832116631,-0.2475586,-0.97003174,0.109313965,-4.65625,0.03125,-1.703125
1695832116675,-0.22192383,-0.96588135,0.105407715,-4.59375,-0.328125,-1.4375
1695832116704,-0.23803711,-0.96099854,0.11785889,-4.25,-0.046875,-0.140625
1695832116751,-0.23803711,-0.94976807,0.13397217,1.03125,-0.78125,1.3125
1695832116796,-0.21289062,-0.93414307,0.1251831,2.03125,-2.234375,2.859375
1695832116825,-0.25,-0.9573364,0.12835693,4.734375,-2.984375,6.8125
1695832116871,-0.22973633,-0.97003174,0.1227417,7.1875,-3.671875,4.515625
1695832116917,-0.2397461,-1.0064087,0.109069824,6.65625,-0.5625,4.15625
1695832116946,-0.22265625,-1.0020142,0.08123779,4.921875,1.421875,1.78125
1695832116991,-0.21118164,-1.000061,0.06365967,8.4375,4.0625,-0.171875
1695832117021,-0.20605469,-1.0078735,0.06829834,5.703125,5.359375,-0.15625
1695832117095,-0.1940918,-0.97979736,0.04559326,2.453125,6.78125,-1.578125
1695832117110,-0.18237305,-0.95025635,0.055114746,0.359375,3.25,-2.953125
1695832117141,-0.20629883,-0.95684814,0.046325684,-6.21875,2.609375,-4.03125
1695832117184,-0.21411133,-0.96295166,0.055847168,-6.546875,0.3125,-4.078125
1695832117231,-0.20703125,-0.9727173,0.093688965,-3.984375,0.171875,-3.828125
1695832117261,-0.22802734,-0.96099854,0.09515381,-5.5,-0.984375,-3.59375
1695832117310,-0.24267578,-0.95880127,0.0927124,-3.65625,-1.40625,-2.203125
1695832117351,-0.22070312,-0.96881104,0.10784912,-5.21875,-1.265625,-1.296875
1695832117378,-0.2331543,-0.95318604,0.10467529,-6.40625,0.90625,-1.0
1695832117425,-0.23754883,-1.0464478,0.14227295,-3.59375,1.890625,1.671875
1695832117471,-0.24072266,-0.9534302,0.10760498,3.578125,-2.84375,0.84375
1695832117499,-0.24560547,-0.9314575,0.1083374,-1.140625,-3.703125,-1.390625
1695832117545,-0.23852539,-0.97247314,0.10467529,3.25,-1.90625,1.421875
1695832117591,-0.22998047,-0.98809814,0.11053467,7.8125,-1.671875,3.421875
1695832117619,-0.21606445,-0.9553833,0.07489014,3.796875,-1.265625,0.75
1695832117695,-0.22363281,-0.94488525,0.089538574,5.28125,-1.796875,1.25
1695832117710,-0.21826172,-0.9451294,0.0692749,0.875,-1.921875,1.21875
1695832117739,-0.21850586,-0.9546509,0.07196045,-2.703125,-2.203125,0.734375
1695832117800,-0.21704102,-0.9692993,0.08758545,-4.828125,-2.578125,-1.015625
1695832117814,-0.2211914,-1.0025024,0.11273193,-1.859375,-1.234375,-0.9375
1695832117860,-0.22705078,-0.98150635,0.08807373,-2.578125,-1.015625,0.25
1695832117904,-0.21777344,-0.9631958,0.081970215,-3.9375,-4.046875,-1.75
1695832117935,-0.20458984,-0.97320557,0.07635498,-5.6875,-4.484375,-3.109375
1695832117981,-0.22167969,-0.9602661,0.11859131,-3.78125,-3.46875,-0.40625
1695832118026,-0.23510742,-0.9607544,0.10784912,-4.28125,-2.0625,1.703125
1695832118055,-0.23754883,-0.9690552,0.10491943,-1.765625,-1.9375,1.171875
1695832118100,-0.2175293,-0.9456177,0.117370605,-1.53125,-1.578125,0.609375
1695832118144,-0.23706055,-0.9636841,0.11907959,-0.890625,-0.03125,1.578125
1695832118175,-0.24389648,-0.95928955,0.11248779,-1.734375,-1.0,0.578125
1695832118223,-0.24291992,-0.9800415,0.11053467,-1.34375,-0.5,-1.234375
1695832118266,-0.23022461,-1.0066528,0.12420654,1.515625,1.046875,0.296875
1695832118295,-0.22021484,-0.9976196,0.112976074,4.5625,1.0,1.734375
1695832118370,-0.21362305,-0.9541626,0.090270996,2.59375,0.28125,1.296875
1695832118384,-0.21411133,-0.96173096,0.09100342,5.125,-0.515625,0.609375
1695832118415,-0.21606445,-0.9817505,0.109558105,4.75,1.015625,0.765625
1695832118478,-0.23022461,-0.96466064,0.086364746,4.875,0.53125,1.40625
1695832118505,-0.22827148,-0.94854736,0.08074951,4.171875,0.640625,0.421875
1695832118535,-0.2055664,-0.97052,0.05682373,2.3125,1.125,0.0
1695832118579,-0.21166992,-0.9483032,0.06707764,-0.890625,0.421875,-0.125
1695832118610,-0.22851562,-0.9536743,0.08514404,-1.046875,-1.234375,-0.625
1695832118654,-0.20361328,-0.95269775,0.066345215,-4.46875,-1.859375,-2.546875
1695832118699,-0.21240234,-0.97198486,0.08294678,-2.40625,-3.15625,-2.5
1695832118730,-0.21728516,-0.9915161,0.09222412,-2.84375,-1.015625,-1.03125
1695832118774,-0.22387695,-0.96661377,0.08538818,-0.578125,-0.25,-0.78125
1695832118819,-0.23291016,-0.96661377,0.06365967,-2.25,-1.9375,-0.734375
1695832118849,-0.2253418,-0.97491455,0.09637451,-1.703125,-1.921875,-0.390625
1695832118926,-0.22705078,-0.9714966,0.09466553,-3.0,-0.359375,-1.125
1695832118940,-0.22875977,-0.97613525,0.08685303,-2.515625,-0.1875,-1.625
1695832118970,-0.23535156,-0.9668579,0.097839355,-2.984375,-0.015625,-1.28125
1695832119047,-0.23144531,-0.97003174,0.08660889,-2.828125,-0.46875,-1.5625
1695832119060,-0.22973633,-0.96221924,0.10614014,-2.953125,-0.21875,-1.4375
1695832119092,-0.2548828,-0.98101807,0.12005615,0.109375,0.484375,-0.96875
1695832119135,-0.25341797,-0.99884033,0.11444092,3.15625,1.484375,-0.234375
1695832119179,-0.24707031,-0.9619751,0.09564209,4.625,1.03125,1.734375
1695832119210,-0.22583008,-0.9573364,0.08416748,3.765625,0.15625,1.8125
1695832119255,-0.22485352,-0.9651489,0.09564209,4.296875,1.0625,1.875
1695832119299,-0.22973633,-0.9717407,0.073913574,3.4375,-0.140625,1.09375
1695832119331,-0.21582031,-0.97979736,0.07342529,3.859375,-0.5625,-0.640625
1695832119374,-0.23730469,-0.97613525,0.07489014,2.671875,0.90625,-0.140625
1695832119405,-0.2434082,-0.972229,0.059753418,2.453125,1.078125,-0.46875
1695832119448,-0.22802734,-0.95635986,0.07269287,1.984375,0.125,-1.09375
1695832119496,-0.2199707,-0.956604,0.046813965,-0.578125,0.3125,-1.875
1695832119524,-0.22851562,-0.9578247,0.053649902,-1.890625,0.15625,-1.28125
1695832119570,-0.22607422,-0.95513916,0.05267334,-5.015625,-0.828125,-1.953125
1695832119646,-0.22436523,-0.9697876,0.0758667,-3.734375,-0.296875,-2.46875
1695832119649,-0.25,-0.960022,0.08856201,-2.59375,-2.625,-1.265625
1695832119705,-0.24047852,-0.95758057,0.074157715,-4.203125,-3.15625,-1.8125
1695832119735,-0.24047852,-0.9685669,0.07635498,-3.96875,-0.890625,-1.9375
1695832119765,-0.25317383,-0.97540283,0.08831787,-2.671875,-1.734375,-0.453125
1695832119809,-0.24975586,-0.9714966,0.09124756,-2.953125,-1.015625,0.0625
1695832119855,-0.23828125,-0.96051025,0.074645996,-2.453125,-0.015625,0.34375
1695832119885,-0.24536133,-0.9692993,0.08782959,-1.421875,1.015625,0.984375
1695832119931,-0.25097656,-0.96173096,0.10272217,-1.609375,0.0625,0.625
1695832119974,-0.24316406,-0.9692993,0.093933105,-2.625,-0.59375,-0.421875
1695832120005,-0.234375,-0.9690552,0.09588623,-2.640625,-0.234375,-0.390625
1695832120049,-0.25585938,-0.99835205,0.11981201,3.484375,0.234375,0.40625
1695832120096,-0.24047852,-0.9873657,0.098083496,4.171875,1.90625,0.5625
1695832120125,-0.24560547,-0.9636841,0.09100342,4.1875,1.09375,0.328125
1695832120200,-0.2487793,-0.96221924,0.08270264,3.703125,0.765625,1.171875
1695832120203,-0.23730469,-0.9612427,0.085876465,3.90625,1.421875,1.40625
1695832120275,-0.24365234,-0.97613525,0.07342529,4.046875,2.0625,1.25
1695832120289,-0.22924805,-0.9656372,0.06439209,4.453125,0.28125,1.734375
1695832120320,-0.22509766,-0.97540283,0.06341553,7.640625,0.0,1.96875
1695832120366,-0.22094727,-0.960022,0.042419434,5.4375,0.609375,2.96875
1695832120410,-0.22363281,-0.92852783,0.054138184,-0.03125,-1.21875,1.96875
1695832120439,-0.21826172,-0.9492798,0.03729248,-3.171875,-3.296875,0.640625
1695832120485,-0.21459961,-0.9644165,0.06488037,-3.703125,-2.734375,0.59375
1695832120529,-0.24267578,-0.9924927,0.08026123,-0.96875,-2.296875,0.71875
1695832120561,-0.22753906,-0.9932251,0.06048584,-3.609375,-0.03125,0.71875
1695832120606,-0.2211914,-0.96881104,0.04437256,-2.796875,-0.6875,-0.078125
1695832120649,-0.22338867,-0.9746704,0.062683105,-4.34375,-1.90625,-1.125
1695832120680,-0.22216797,-0.9805298,0.061950684,-6.46875,-0.796875,-0.703125
1695832120725,-0.21875,-0.9656372,0.07684326,-5.09375,-1.671875,-0.359375
1695832120768,-0.21655273,-0.96759033,0.07318115,-5.953125,-2.0,-0.625
1695832120800,-0.21899414,-0.9702759,0.08270264,-3.5,-1.765625,-0.5625
1695832120875,-0.23901367,-0.98150635,0.1149292,-1.25,-1.453125,-0.390625
1695832120950,-0.24145508,-1.0149536,0.120788574,3.625,1.78125,0.515625
1695832120952,-0.2290039,-0.9741821,0.06439209,2.90625,0.921875,2.296875
1695832120964,-0.20825195,-0.96539307,0.07098389,2.890625,1.703125,1.71875
1695832120994,-0.20922852,-0.97076416,0.07147217,3.15625,2.125,2.90625
1695832121040,-0.19995117,-0.95440674,0.05999756,2.34375,1.09375,1.65625
1695832121088,-0.22241211,-0.98272705,0.08465576,3.96875,2.84375,2.859375
1695832121116,-0.2253418,-0.973938,0.0758667,4.3125,1.265625,2.796875
1695832121161,-0.19506836,-0.9463501,0.049743652,1.4375,-0.25,0.640625
1695832121204,-0.2019043,-0.94366455,0.057800293,0.265625,-1.25,0.109375
1695832121236,-0.19750977,-0.95562744,0.04827881,-4.140625,-2.703125,-0.953125
1695832121279,-0.2019043,-0.98443604,0.081970215,-2.9375,-3.21875,-1.5625
1695832121326,-0.21386719,-0.98321533,0.05999756,-4.5,-2.875,-1.578125
1695832121356,-0.21386719,-0.98394775,0.05316162,-4.015625,-1.359375,-2.171875
1695832121400,-0.19848633,-0.9841919,0.054382324,-4.109375,-2.890625,-3.375
1695832121446,-0.20483398,-0.98321533,0.062683105,-5.84375,-2.5,-2.828125
1695832121476,-0.22631836,-0.9812622,0.08660889,-4.4375,-1.3125,-1.0
1695832121551,-0.22143555,-0.97369385,0.086364746,-2.875,-0.359375,-0.890625
1695832121567,-0.21606445,-0.9651489,0.08148193,-2.453125,0.09375,-1.0625
1695832121594,-0.22021484,-0.9805298,0.08465576,-2.78125,0.203125,-1.328125
1695832121640,-0.22167969,-0.9841919,0.09613037,-1.234375,-0.078125,-0.75
1695832121686,-0.2319336,-0.9763794,0.101989746,-0.890625,0.28125,-0.8125
1695832121718,-0.22998047,-0.9902954,0.09320068,0.234375,0.171875,-0.34375
1695832121761,-0.22558594,-0.98638916,0.10101318,3.359375,0.65625,0.0625
1695832121788,-0.21313477,-0.97003174,0.093444824,5.75,2.546875,1.3125
1695832121836,-0.22045898,-0.9976196,0.07562256,8.484375,4.265625,2.96875
1695832121881,-0.21411133,-0.9541626,0.06561279,6.78125,3.015625,3.1875
1695832121910,-0.21850586,-0.95928955,0.048034668,7.46875,2.734375,2.171875
1695832121956,-0.19238281,-0.9841919,0.054382324,8.328125,4.078125,2.984375
1695832122001,-0.19360352,-0.97125244,0.028503418,5.6875,3.75,1.921875
1695832122030,-0.18823242,-0.9590454,0.018737793,3.359375,2.6875,0.8125
1695832122075,-0.19604492,-0.95684814,0.031921387,2.828125,1.109375,1.140625
1695832122151,-0.17895508,-0.94073486,0.02557373,-3.015625,0.484375,0.125
1695832122154,-0.19140625,-0.9612427,0.024108887,-4.21875,-0.625,-1.546875
1695832122226,-0.18896484,-0.99542236,0.05291748,-1.5625,1.65625,0.1875
1695832122240,-0.2019043,-0.9627075,0.039489746,-4.25,-0.984375,-0.703125
1695832122272,-0.19213867,-0.9590454,0.02947998,-6.296875,-3.421875,-3.578125
1695832122315,-0.18920898,-0.99053955,0.05682373,-4.3125,-3.59375,-2.921875
1695832122360,-0.22827148,-0.99420166,0.06878662,-3.765625,-2.828125,-0.578125
1695832122389,-0.2241211,-0.9763794,0.06072998,-5.25,-2.96875,-1.609375
1695832122435,-0.22558594,-0.9536743,0.06341553,-5.375,-2.6875,-2.296875
1695832122480,-0.23461914,-0.9710083,0.07952881,-1.671875,-1.65625,-1.484375
1695832122509,-0.22729492,-0.98931885,0.077819824,-3.203125,-1.71875,-2.015625
1695832122556,-0.2199707,-0.9636841,0.06756592,-3.3125,-3.015625,-3.25
1695832122585,-0.2265625,-0.9663696,0.07171631,-1.71875,-1.765625,-2.28125
1695832122630,-0.22241211,-0.97003174,0.07537842,-0.578125,-1.859375,-0.84375
1695832122676,-0.22387695,-0.960022,0.08465576,-0.5625,-1.40625,0.515625
1695832122704,-0.2536621,-0.98443604,0.08441162,-0.078125,-0.765625,1.796875
1695832122750,-0.22753906,-0.97857666,0.08685303,0.875,-0.5,1.125
1695832122795,-0.21240234,-0.96221924,0.09173584,1.53125,1.109375,0.65625
1695832122824,-0.22558594,-0.97906494,0.0692749,1.46875,1.59375,0.5
1695832122900,-0.2084961,-0.975647,0.059753418,1.0625,-0.40625,-1.0
1695832122915,-0.21362305,-0.97247314,0.059753418,0.140625,0.65625,-1.328125
1695832122945,-0.21923828,-0.9763794,0.073913574,0.640625,1.15625,-0.1875
1695832122991,-0.21240234,-0.97052,0.06561279,-2.109375,0.71875,-1.375
1695832123035,-0.20507812,-0.96417236,0.04827881,-2.171875,0.75,-1.546875
1695832123064,-0.22558594,-0.972229,0.07513428,-0.8125,-0.125,-0.828125
1695832123109,-0.2084961,-0.9602661,0.074645996,-0.984375,-0.5,-0.203125
1695832123154,-0.22143555,-0.9619751,0.081726074,-2.96875,-0.640625,0.296875
1695832123185,-0.24047852,-0.9631958,0.09881592,-1.1875,-3.109375,-0.609375
1695832123229,-0.24438477,-0.9680786,0.09295654,-2.859375,-1.65625,-0.015625
1695832123274,-0.24194336,-0.9612427,0.0758667,-3.890625,-1.9375,0.34375
1695832123304,-0.22631836,-0.9578247,0.08905029,-3.4375,-1.421875,-0.890625
1695832123351,-0.2331543,-0.99005127,0.10491943,-0.78125,1.203125,1.03125
1695832123395,-0.24536133,-1.0142212,0.11053467,4.9375,1.75,2.171875
1695832123425,-0.24365234,-0.99884033,0.105407715,5.453125,1.53125,1.5625
1695832123501,-0.20288086,-0.95391846,0.06561279,2.265625,-1.671875,-1.015625
1695832123504,-0.21313477,-0.9536743,0.05609131,1.515625,-2.0625,-1.640625
1695832123561,-0.24291992,-0.9846802,0.07537842,3.015625,-1.953125,-1.34375
1695832123590,-0.2253418,-0.9927368,0.08074951,3.234375,-2.546875,-2.359375
1695832123619,-0.2006836,-0.9385376,0.047546387,0.3125,0.5,0.0
1695832123664,-0.21533203,-0.9151001,0.054138184,2.609375,-1.78125,0.796875
1695832123709,-0.22045898,-0.9463501,0.05731201,-0.453125,-2.59375,0.296875
1695832123739,-0.22436523,-0.96221924,0.043395996,-3.296875,-2.640625,0.546875
1695832123784,-0.2133789,-0.9639282,0.049987793,-6.296875,-2.71875,-0.265625
1695832123829,-0.24511719,-0.97857666,0.089782715,-1.484375,-2.40625,0.140625
1695832123860,-0.22460938,-0.9834595,0.06097412,-1.875,-0.875,0.71875
1695832123905,-0.22192383,-0.9837036,0.0602417,-4.546875,-0.9375,0.328125
1695832123953,-0.23413086,-0.9793091,0.07977295,-1.953125,-1.296875,-0.0625
1695832123981,-0.2331543,-0.97857666,0.089782715,-4.0,-1.0,-0.765625
1695832124025,-0.22338867,-0.9656372,0.08392334,-3.34375,-1.59375,-1.0625
1695832124072,-0.22973633,-0.9697876,0.09075928,-2.359375,0.328125,0.03125
1695832124103,-0.23022461,-0.972229,0.08026123,-3.609375,0.6875,0.0
1695832124176,-0.22827148,-0.97906494,0.1005249,-2.15625,-0.734375,-0.5
1695832124178,-0.23925781,-0.98516846,0.097351074,-0.171875,1.203125,0.484375
1695832124219,-0.2434082,-1.0005493,0.10687256,4.953125,1.640625,1.859375
1695832124264,-0.23095703,-0.98028564,0.08831787,5.34375,1.109375,1.21875
1695832124295,-0.22363281,-0.9529419,0.06488037,5.171875,-0.203125,1.234375
1695832124340,-0.21435547,-0.9612427,0.05706787,3.78125,-0.34375,1.0
1695832124385,-0.22802734,-0.9624634,0.09832764,6.21875,-1.375,0.984375
1695832124415,-0.23779297,-0.97979736,0.070251465,5.34375,1.375,1.640625
1695832124459,-0.19604492,-0.954895,0.03656006,5.9375,1.3125,1.109375
1695832124505,-0.19360352,-0.95025635,0.026794434,3.03125,0.4375,0.53125
1695832124535,-0.20361328,-0.9627075,0.039489746,1.203125,-0.5625,-0.046875
1695832124581,-0.2121582,-0.9558716,0.026062012,-3.21875,-2.03125,-0.640625
1695832124625,-0.20898438,-0.95977783,0.04071045,-3.59375,-2.34375,-1.515625
1695832124656,-0.2121582,-0.97198486,0.04437256,-3.453125,-2.078125,-0.125
1695832124729,-0.21923828,-0.99957275,0.05706787,-3.015625,0.109375,0.0625
1695832124744,-0.22265625,-0.9812622,0.043395996,-5.125,0.046875,-0.71875
1695832124775,-0.21142578,-0.9631958,0.058776855,-3.1875,-1.28125,-0.734375
1695832124836,-0.20800781,-0.9668579,0.062438965,-4.0,-0.234375,-1.109375
1695832124864,-0.22460938,-0.98028564,0.074645996,-3.875,0.65625,0.296875
1695832124895,-0.23168945,-0.97320557,0.06585693,-2.75,0.4375,0.0
1695832124939,-0.21362305,-0.97540283,0.0758667,-3.359375,0.984375,-0.6875
1695832124969,-0.21264648,-0.9780884,0.08001709,-2.09375,1.21875,0.171875
1695832125016,-0.21459961,-0.9751587,0.08929443,-0.90625,0.1875,-0.328125
1695832125060,-0.21728516,-0.97906494,0.08807373,0.671875,1.15625,-0.1875
1695832125089,-0.23779297,-1.0105591,0.09075928,5.671875,1.046875,1.609375
1695832125136,-0.2253418,-0.973938,0.06488037,4.421875,1.546875,1.25
1695832125181,-0.20288086,-0.95562744,0.05657959,4.859375,1.484375,1.046875
1695832125209,-0.20166016,-0.96710205,0.047058105,6.15625,1.859375,1.3125
1695832125255,-0.20019531,-0.9871216,0.062438965,7.0625,0.96875,1.65625
1695832125300,-0.19799805,-0.9661255,0.016052246,7.40625,1.703125,0.75
1695832125329,-0.18823242,-1.0098267,0.043884277,14.328125,3.8125,2.25
1695832125406,-0.19458008,-0.9500122,0.0018920898,4.546875,1.578125,2.265625
1695832125420,-0.20507812,-0.93878174,-0.025939941,-1.203125,-1.703125,-0.953125
1695832125449,-0.19873047,-0.9619751,0.00579834,-2.1875,-2.984375,-2.53125
1695832125496,-0.19262695,-0.97979736,0.015808105,-3.671875,-0.703125,-0.1875
1695832125539,-0.19897461,-0.9885864,0.022155762,-4.109375,-1.46875,-0.390625
1695832125570,-0.19799805,-0.9793091,0.024353027,-2.40625,-0.609375,-0.171875
1695832125615,-0.19555664,-0.9636841,0.0038452148,-4.796875,-2.328125,-1.875
1695832125691,-0.19433594,-0.9800415,0.035095215,-3.390625,-3.609375,-2.734375
1695832125694,-0.21044922,-1.0073853,0.030700684,0.0,-3.390625,-1.796875
1695832125736,-0.21020508,-0.97442627,0.028747559,0.828125,-2.78125,1.828125
1695832125766,-0.19726562,-0.9470825,0.02532959,-0.265625,-1.015625,0.890625
1695832125808,-0.2241211,-0.9717407,0.0368042,-1.25,0.09375,1.3125
1695832125855,-0.21875,-1.0012817,0.04119873,-2.296875,-0.296875,0.625
1695832125887,-0.20874023,-0.97784424,0.026062012,-4.40625,-0.234375,-0.078125
1695832125930,-0.20507812,-0.9624634,0.042175293,-2.15625,-0.375,-0.734375
1695832126005,-0.21801758,-1.0083618,0.039978027,0.03125,0.28125,-0.84375
1695832126009,-0.20825195,-1.0046997,0.039733887,1.640625,0.5,0.015625
1695832126082,-0.20654297,-0.98272705,0.02947998,1.875,0.515625,-0.171875
1695832126095,-0.20947266,-0.9644165,0.024597168,1.84375,-0.484375,-0.625
1695832126126,-0.21411133,-0.98516846,0.022399902,4.203125,1.9375,0.78125
1695832126173,-0.19677734,-0.986145,0.010925293,4.96875,2.59375,0.3125
1695832126217,-0.18115234,-0.9898071,0.019714355,6.4375,2.515625,0.34375
1695832126245,-0.20239258,-0.9624634,-3.0517578E-4,3.828125,-0.171875,0.96875
1695832126290,-0.21777344,-0.94903564,-0.0029907227,-0.34375,-2.328125,-0.921875
1695832126335,-0.20532227,-0.98931885,0.011169434,0.59375,-2.0,0.046875
1695832126366,-0.19458008,-0.97491455,0.0048217773,-2.109375,-0.59375,0.84375
1695832126409,-0.20117188,-0.9590454,-0.0032348633,-3.421875,-1.53125,0.265625
1695832126485,-0.19555664,-0.9661255,0.015319824,-2.828125,-2.3125,-0.984375
1695832126489,-0.19995117,-0.9729614,0.006286621,-3.71875,-2.75,-1.453125
1695832126529,-0.20947266,-0.986145,0.0138549805,-2.5,-1.125,-1.53125
1695832126560,-0.20483398,-0.9829712,0.015319824,-2.265625,-0.828125,-2.015625
1695832126606,-0.22045898,-0.973938,0.012390137,-3.453125,-2.046875,-3.109375
1695832126680,-0.21728516,-0.96832275,0.03363037,-2.875,-2.296875,-2.765625
1695832126683,-0.22998047,-0.9727173,0.028503418,-3.046875,-1.546875,-1.78125
1695832126757,-0.22924805,-0.9829712,0.020446777,-2.4375,-1.0625,-1.25
1695832126769,-0.21948242,-0.97613525,0.024108887,-4.0625,0.171875,-0.9375
1695832126801,-0.22363281,-0.9656372,0.035827637,-2.453125,0.125,-0.296875
1695832126845,-0.22753906,-0.9771118,0.039001465,-2.5625,-0.265625,-0.546875
1695832126890,-0.21801758,-0.9734497,0.034118652,-3.078125,-0.640625,-1.84375
1695832126922,-0.23291016,-0.98760986,0.042907715,-1.390625,-0.15625,-0.90625
1695832126965,-0.23291016,-0.9939575,0.030944824,-1.734375,-0.203125,0.640625
1695832127009,-0.21435547,-0.97735596,0.03338623,-0.453125,-0.3125,0.78125
1695832127040,-0.21679688,-0.97662354,0.057800293,1.984375,0.859375,1.640625
1695832127085,-0.2199707,-0.972229,0.058532715,2.5,-0.328125,1.5625
1695832127129,-0.21972656,-0.972229,0.047302246,2.53125,-0.203125,1.171875
1695832127160,-0.22998047,-0.9800415,0.035827637,4.65625,1.328125,2.078125
1695832127238,-0.21508789,-0.9690552,0.03289795,5.25,1.4375,2.34375
1695832127309,-0.21972656,-0.97442627,0.015319824,2.765625,1.171875,1.5
1695832127311,-0.21264648,-0.9768677,0.02508545,3.296875,1.140625,1.828125
1695832127326,-0.20898438,-0.96881104,0.01776123,1.953125,-0.109375,1.109375
1695832127355,-0.20141602,-0.960022,0.0067749023,-0.046875,-1.671875,-0.328125
1695832127399,-0.20263672,-0.95880127,0.023864746,0.15625,-2.4375,-0.390625
1695832127445,-0.2043457,-0.96466064,0.01361084,-2.796875,-1.71875,-0.484375
1695832127475,-0.20678711,-0.96466064,0.019470215,-3.125,-1.34375,-0.875
1695832127521,-0.20996094,-0.9795532,0.024597168,-3.28125,-1.234375,-1.375
1695832127565,-0.21777344,-0.97442627,0.022644043,-3.234375,-0.25,-0.953125
1695832127595,-0.21533203,-0.97662354,0.025817871,-3.046875,-0.25,-1.296875
1695832127640,-0.21386719,-0.9741821,0.03338623,-2.765625,-1.328125,-1.34375
1695832127686,-0.22021484,-0.973938,0.03265381,-4.453125,-0.671875,-2.15625
1695832127715,-0.21777344,-0.98565674,0.038513184,-4.3125,0.546875,-2.078125
1695832127760,-0.2109375,-0.98150635,0.034851074,-5.984375,0.875,-1.25
1695832127806,-0.22509766,-0.9795532,0.047790527,-3.6875,-0.28125,-0.46875
1695832127835,-0.20922852,-0.97906494,0.055114746,-3.28125,-0.109375,-1.34375
1695832127910,-0.20507812,-0.9729614,0.049987793,-2.609375,0.34375,-1.046875
1695832127925,-0.22314453,-0.9795532,0.057800293,-1.40625,0.046875,-0.3125
1695832127955,-0.22094727,-0.9780884,0.061950684,-0.34375,-0.84375,-0.046875
1695832128015,-0.23242188,-0.98687744,0.0692749,3.21875,-1.171875,0.25
1695832128045,-0.21875,-0.98321533,0.05316162,4.03125,-0.25,1.234375
1695832128079,-0.21679688,-0.97198486,0.04510498,5.328125,0.828125,2.140625
1695832128120,-0.2211914,-0.98516846,0.040222168,5.25,0.875,1.8125
1695832128149,-0.22509766,-0.9834595,0.014587402,6.109375,0.53125,1.6875
1695832128194,-0.2043457,-0.97003174,0.03265381,7.40625,1.0625,2.03125
1695832128240,-0.21508789,-0.9602661,0.016296387,5.71875,1.40625,2.0625
1695832128269,-0.2055664,-0.97906494,0.0018920898,4.0,2.125,1.578125
1695832128314,-0.20361328,-0.9680786,-0.0022583008,0.9375,0.0625,0.734375
1695832128361,-0.19848633,-0.9590454,-0.0015258789,-1.296875,-1.203125,-0.578125
1695832128389,-0.20019531,-0.9558716,4.272461E-4,-3.421875,-1.5625,-0.453125
1695832128434,-0.19897461,-0.954895,0.015563965,-4.765625,-1.96875,-1.515625
1695832128480,-0.20288086,-0.987854,0.011657715,-5.671875,-1.3125,-1.328125
1695832128509,-0.21679688,-0.973938,0.01727295,-2.65625,-0.828125,-1.140625
1695832128556,-0.21313477,-0.96759033,0.016052246,-3.078125,-1.765625,-2.515625
1695832128600,-0.20703125,-0.9846802,0.014587402,-2.234375,-1.1875,-1.78125
1695832128631,-0.22485352,-0.9702759,0.036315918,-2.359375,-0.34375,-0.3125
1695832128677,-0.23266602,-0.9859009,0.02166748,-3.9375,0.328125,-0.53125
1695832128724,-0.22216797,-0.9746704,0.03387451,-3.359375,0.53125,0.625
1695832128750,-0.2163086,-0.9710083,0.04095459,-4.8125,0.921875,0.578125
1695832128799,-0.21264648,-0.97052,0.038024902,-3.546875,0.421875,0.25
1695832128840,-0.20800781,-0.97491455,0.043395996,-2.40625,-0.859375,-0.8125
1695832128875,-0.21191406,-0.99542236,0.049987793,-0.28125,1.015625,-0.515625
1695832128914,-0.23925781,-1.0317993,0.062194824,7.703125,1.953125,1.8125
1695832128945,-0.2331543,-0.99468994,0.051940918,7.75,1.125,2.265625
1695832128989,-0.20678711,-0.95758057,0.01776123,5.71875,1.046875,0.734375
1695832129034,-0.19946289,-0.9639282,0.0138549805,7.796875,-0.390625,0.359375
1695832129065,-0.21411133,-0.9668579,0.018737793,4.15625,-2.609375,-1.28125
1695832129111,-0.2163086,-0.9727173,0.008972168,3.078125,-2.234375,-1.0
1695832129155,-0.20532227,-0.96099854,-0.01763916,2.609375,-1.0,1.359375
1695832129185,-0.20629883,-0.94610596,9.1552734E-4,0.734375,-0.546875,2.90625
1695832129263,-0.20800781,-0.9480591,-0.01763916,-4.125,-1.640625,0.96875
1695832129278,-0.2019043,-0.95318604,-0.012512207,-6.296875,-1.953125,-0.453125
1695832129306,-0.2133789,-1.010315,0.036315918,-2.25,-0.90625,0.09375
1695832129349,-0.22167969,-1.0059204,0.026306152,-2.3125,-0.109375,0.671875
1695832129396,-0.2175293,-0.95758057,-0.0029907227,-5.328125,-1.59375,-1.09375
1695832129424,-0.21582031,-0.9734497,0.015319824,-3.671875,-2.1875,-2.1875
1695832129470,-0.203125,-0.98687744,0.029724121,-4.953125,-1.3125,-1.546875
1695832129515,-0.20874023,-0.9871216,0.03314209,-6.09375,-0.515625,-0.390625
1695832129545,-0.20385742,-0.96710205,0.028503418,-4.703125,-0.984375,-0.9375
1695832129588,-0.20214844,-0.96759033,0.03289795,-3.65625,-0.734375,-1.203125
1695832129635,-0.20922852,-0.98394775,0.051696777,-3.015625,-1.390625,-1.40625
1695832129665,-0.21362305,-0.9800415,0.045837402,-2.515625,-1.15625,-1.421875
1695832129712,-0.21289062,-0.98321533,0.05316162,1.390625,-0.15625,-0.046875
1695832129740,-0.21801758,-0.9998169,0.054138184,4.828125,0.984375,1.578125
1695832129785,-0.23120117,-0.97369385,0.032165527,1.515625,-0.609375,0.171875
1695832129861,-0.21655273,-0.97003174,0.028259277,2.84375,-1.53125,-0.8125
1695832129865,-0.2043457,-0.975647,0.032409668,1.453125,-0.03125,0.21875
1695832129936,-0.22314453,-0.9951782,0.06097412,3.78125,0.53125,1.015625
1695832129950,-0.2109375,-0.9649048,0.027038574,-0.25,-1.9375,-0.859375
1695832129981,-0.19897461,-0.95196533,0.0067749023,1.28125,-2.078125,-1.546875
1695832130024,-0.21557617,-0.9614868,0.023376465,1.125,-0.859375,-0.15625
1695832130070,-0.20825195,-0.96539307,0.0099487305,-0.921875,-1.25,-0.140625
1695832130100,-0.20043945,-0.96343994,0.0079956055,-1.40625,-1.421875,-0.3125
1695832130145,-0.19702148,-0.9495239,0.0079956055,-5.671875,-0.4375,-0.0625
1695832130192,-0.20263672,-0.9649048,0.016784668,-7.953125,-1.171875,-0.78125
1695832130219,-0.22094727,-0.9902954,0.062438965,-5.6875,-2.078125,-0.734375
1695832130267,-0.20483398,-0.9990845,0.051208496,-5.40625,-0.640625,-0.953125
1695832130310,-0.21728516,-0.956604,0.040222168,-6.640625,-2.296875,-1.109375
1695832130339,-0.22460938,-0.9727173,0.062683105,-2.359375,-3.203125,-1.875
1695832130386,-0.22460938,-0.9841919,0.07489014,-4.234375,-0.921875,-1.390625
1695832130431,-0.23510742,-0.9780884,0.062438965,-4.15625,-0.875,-0.796875
1695832130459,-0.23217773,-0.97857666,0.06121826,-3.546875,0.109375,-0.203125
1695832130536,-0.21801758,-0.97320557,0.07147217,-3.828125,0.25,-0.171875
1695832130540,-0.22729492,-0.9859009,0.073913574,-1.75,1.453125,-0.15625
1695832130609,-0.23852539,-0.99664307,0.094177246,4.0,1.390625,0.96875
1695832130625,-0.23950195,-0.9968872,0.07635498,6.40625,0.578125,1.25
1695832130655,-0.2121582,-0.97198486,0.054382324,4.75,0.671875,0.46875
1695832130702,-0.2121582,-0.94122314,0.043884277,5.75,1.8125,1.65625
1695832130744,-0.21948242,-0.96099854,0.022888184,4.0,2.09375,2.84375
1695832130776,-0.20532227,-0.97442627,0.042907715,4.0625,2.796875,2.1875
1695832130819,-0.20629883,-0.9795532,0.035339355,2.578125,4.75,4.296875
1695832130868,-0.2121582,-0.9668579,0.027282715,2.65625,3.6875,3.765625
1695832130896,-0.21850586,-1.0613403,0.05316162,8.375,5.296875,4.140625
1695832130940,-0.20361328,-0.97076416,0.030700684,5.484375,2.234375,3.609375
1695832130985,-0.18725586,-0.95147705,0.0016479492,3.15625,0.09375,-0.046875
1695832131016,-0.16748047,-0.9595337,0.00579834,0.53125,-1.875,-1.203125
1695832131092,-0.18066406,-0.96588135,0.010681152,-2.0625,-2.5,-1.3125
1695832131104,-0.17089844,-0.956604,-7.9345703E-4,-6.46875,-3.015625,-2.609375
1695832131135,-0.17871094,-0.9619751,0.010681152,-9.703125,-2.28125,-2.765625
1695832131195,-0.20336914,-0.9793091,0.0446167,-7.578125,-4.21875,-2.984375
1695832131226,-0.2019043,-0.9883423,0.054138184,-5.65625,-3.390625,-1.796875
1695832131255,-0.19213867,-0.97735596,0.048034668,-5.234375,-2.15625,-1.75
1695832131300,-0.19555664,-0.9793091,0.04168701,-4.859375,-2.0625,-2.671875
1695832131346,-0.21069336,-0.9924927,0.06097412,-3.390625,-1.890625,-2.296875
1695832131376,-0.21826172,-0.96759033,0.057800293,-6.015625,-2.515625,-2.53125
1695832131418,-0.22216797,-0.9614868,0.06390381,-4.84375,-2.96875,-1.71875
1695832131450,-0.22143555,-0.98101807,0.077819824,-4.796875,-2.046875,-1.421875
1695832131495,-0.21850586,-0.98760986,0.082214355,-3.546875,-1.734375,-1.421875
1695832131539,-0.22558594,-0.975647,0.08319092,-1.59375,-0.84375,-0.203125
1695832131572,-0.2265625,-1.0054321,0.08929443,4.34375,-0.171875,1.078125
1695832131615,-0.22998047,-0.9985962,0.08441162,4.8125,0.984375,2.4375
1695832131659,-0.22363281,-0.9663696,0.055114746,5.28125,0.21875,1.3125
1695832131690,-0.22021484,-0.95928955,0.050720215,5.328125,0.15625,1.265625
1695832131765,-0.20019531,-0.97076416,0.04559326,4.71875,0.203125,0.859375
1695832131779,-0.20751953,-0.97906494,0.050231934,4.625,0.921875,1.125
1695832131809,-0.20288086,-0.9590454,0.02923584,2.6875,-0.046875,0.640625
1695832131855,-0.20458984,-0.9483032,0.031677246,-0.359375,-0.578125,-0.1875
1695832131900,-0.1928711,-0.9512329,0.042419434,-1.96875,-2.15625,-1.078125
1695832131930,-0.2055664,-0.9602661,0.04486084,-4.8125,-1.8125,-1.765625
1695832131975,-0.22216797,-0.9783325,0.05609131,-4.0,-1.984375,-1.875
1695832132020,-0.22436523,-0.99005127,0.062927246,-2.734375,-0.703125,-1.40625
1695832132050,-0.20288086,-0.9573364,0.046081543,-4.515625,-1.609375,-3.484375
1695832132095,-0.21020508,-0.97052,0.043640137,-4.796875,-2.328125,-3.25
1695832132139,-0.21557617,-0.98883057,0.04901123,-4.28125,-2.203125,-1.4375
1695832132170,-0.21362305,-0.9717407,0.061706543,-4.046875,-1.375,-1.203125
1695832132215,-0.22973633,-0.96954346,0.06878662,-3.46875,-0.34375,-0.875
1695832132245,-0.23608398,-0.9763794,0.07318115,-2.4375,0.046875,-0.15625
1695832132290,-0.23144531,-0.973938,0.070251465,-2.171875,0.15625,-0.03125
1695832132335,-0.22558594,-0.97613525,0.07904053,-1.9375,0.0,-0.296875
1695832132442,-0.23632812,-0.9741821,0.07635498,-1.09375,0.078125,-0.5625
1695832132445,-0.23168945,-0.975647,0.082214355,0.0,0.0625,0.21875
1695832132456,-0.24365234,-1.0112915,0.08392334,3.234375,0.828125,1.203125
1695832132485,-0.23266602,-0.96051025,0.062927246,2.28125,-0.5,0.828125
1695832132529,-0.21508789,-0.9468384,0.070739746,-0.265625,-0.734375,-0.1875
1695832132577,-0.22583008,-0.96539307,0.08441162,-1.390625,-0.09375,-0.234375
1695832132605,-0.2253418,-0.9771118,0.053894043,-0.140625,-1.078125,-1.046875
1695832132650,-0.24047852,-1.0025024,0.07318115,4.53125,0.671875,0.21875
1695832132696,-0.24682617,-1.0054321,0.07733154,5.625,2.46875,2.6875
1695832132725,-0.21972656,-0.92681885,0.03656006,3.40625,0.078125,1.546875
1695832132770,-0.21118164,-0.95147705,0.034851074,2.953125,0.328125,0.390625
1695832132815,-0.22094727,-0.986145,0.04901123,4.75,0.171875,1.359375
1695832132845,-0.22558594,-0.9780884,0.055358887,3.28125,0.796875,1.3125
1695832132890,-0.22045898,-0.9644165,0.031433105,2.234375,0.359375,0.65625
1695832132937,-0.2043457,-0.9421997,0.028503418,-0.5,-0.21875,-0.0625
1695832132965,-0.20776367,-0.9385376,0.031188965,-4.078125,-0.953125,-0.21875
1695832133010,-0.21557617,-0.96881104,0.04486084,-5.78125,-1.109375,-0.90625
1695832133039,-0.23364258,-0.9968872,0.07147217,-3.5625,-2.109375,-0.96875
1695832133116,-0.22680664,-0.97052,0.055847168,-5.703125,-2.234375,-1.265625
1695832133131,-0.21923828,-0.9534302,0.04486084,-5.046875,-1.765625,-1.734375
1695832133160,-0.22729492,-0.9795532,0.06341553,-3.484375,-2.21875,-1.5
1695832133205,-0.21923828,-0.9949341,0.07122803,-4.15625,-0.5,-1.09375
1695832133249,-0.22924805,-0.975647,0.0692749,-3.296875,0.21875,-0.265625
1695832133279,-0.23144531,-0.95440674,0.066833496,-2.609375,-0.5625,-0.78125
1695832133326,-0.22558594,-0.98028564,0.086120605,-2.453125,-0.84375,-1.09375
1695832133371,-0.22827148,-0.99005127,0.07977295,-1.515625,0.046875,-0.625
1695832133400,-0.2355957,-1.0083618,0.09295654,4.046875,1.296875,1.0
1695832133445,-0.23706055,-0.9949341,0.0770874,6.109375,2.140625,2.046875
1695832133490,-0.22192383,-0.958313,0.059020996,5.53125,2.5625,1.625
1695832133519,-0.21362305,-0.94415283,0.04510498,3.859375,1.421875,0.828125
1695832133564,-0.21484375,-0.9651489,0.046813965,3.59375,-0.03125,0.625
1695832133639,-0.22338867,-0.9771118,0.047302246,1.40625,-0.296875,0.21875
1695832133644,-0.19995117,-0.9673462,0.036071777,-1.234375,-0.046875,-0.296875
1695832133715,-0.2175293,-0.95440674,0.046569824,-2.953125,-1.15625,-0.8125
1695832133730,-0.20874023,-0.96099854,0.05682373,-5.0625,-2.296875,-1.828125
1695832133762,-0.21899414,-0.9807739,0.054382324,-5.375,-2.953125,-2.40625
1695832133805,-0.23046875,-0.98101807,0.066589355,-4.125,-2.09375,-1.453125
1695832133835,-0.22631836,-0.96881104,0.06976318,-2.59375,-1.125,-0.90625
1695832133880,-0.22436523,-0.9673462,0.057556152,-1.859375,-1.78125,-1.21875
1695832133939,-0.2319336,-0.9697876,0.078308105,-1.515625,-1.328125,-1.015625
1695832133956,-0.23535156,-0.973938,0.08660889,0.140625,0.5,0.359375
1695832134002,-0.23022461,-0.97247314,0.070007324,-1.140625,0.78125,-0.09375
1695832134045,-0.23388672,-0.96954346,0.082458496,-1.96875,0.53125,-0.765625
1695832134075,-0.23608398,-0.96954346,0.07611084,-2.375,0.34375,-2.0
1695832134119,-0.23242188,-0.97125244,0.08294678,-1.328125,0.421875,-2.15625
1695832134166,-0.23095703,-0.97442627,0.070007324,-3.015625,0.25,-2.375
1695832134195,-0.2368164,-0.98028564,0.08050537,-1.65625,0.671875,-1.53125
1695832134238,-0.2536621,-0.972229,0.0758667,-1.53125,0.875,-0.359375
1695832134285,-0.25146484,-1.0010376,0.10101318,2.4375,0.484375,0.5625
1695832134315,-0.23657227,-0.98321533,0.086120605,2.25,0.78125,1.3125
1695832134390,-0.2331543,-0.9651489,0.07489014,4.5,0.375,1.859375
1695832134405,-0.23901367,-0.94366455,0.07342529,4.34375,-0.796875,2.203125
1695832134435,-0.21557617,-0.9507446,0.055114746,2.65625,-1.0625,0.84375
1695832134479,-0.22094727,-0.9819946,0.05609131,5.984375,-0.03125,1.578125
1695832134526,-0.21508789,-0.95880127,0.054626465,2.5,0.171875,2.125
1695832134555,-0.23388672,-0.9690552,0.058044434,1.84375,-0.609375,0.5
1695832134600,-0.22753906,-1.0005493,0.06121826,1.953125,1.15625,1.71875
1695832134629,-0.22387695,-0.94195557,0.04144287,-1.125,-0.453125,0.578125
1695832134675,-0.2211914,-0.9590454,0.03314209,-3.28125,-1.5,-0.828125
1695832134718,-0.21386719,-0.96539307,0.059753418,-2.546875,-0.96875,-0.71875
1695832134751,-0.21508789,-0.96661377,0.046569824,-5.625,-1.96875,-1.15625
1695832134795,-0.22705078,-0.96759033,0.053649902,-5.796875,-2.59375,-1.71875
1695832134838,-0.23535156,-0.9795532,0.07171631,-4.203125,-1.578125,-1.796875
