,timestamp,accel_x,accel_y,accel_z,gyro_x,gyro_y,gyro_z,ind
0,1695830333503,-0.27319336,-0.7229614,-0.028381348,8.609375,13.46875,11.453125,0
1,1695830333543,-0.22290039,-0.93218994,-0.13775635,-6.15625,12.71875,8.390625,1
2,1695830333583,-0.17675781,-1.1621704,-0.07989502,10.3125,3.265625,-5.046875,2
3,1695830333623,-0.14355469,-1.0574341,0.015319824,10.25,9.40625,2.953125,3
4,1695830333663,-0.19189453,-0.9199829,-0.011047363,1.765625,10.171875,9.03125,4
5,1695830333703,-0.26611328,-0.8833618,-0.012512207,1.703125,6.96875,5.640625,5
6,1695830333743,-0.24682617,-0.9038696,0.012878418,0.421875,5.421875,0.21875,6
7,1695830333783,-0.14257812,-0.923645,0.007507324,5.453125,4.203125,4.125,7
8,1695830333823,-0.14257812,-0.958313,0.04534912,3.984375,-1.140625,6.859375,8
9,1695830333863,-0.22583008,-0.99591064,0.08709717,-4.453125,-1.921875,6.875,9
10,1695830333903,-0.27416992,-0.90093994,0.020202637,-4.609375,-4.859375,0.34375,10
11,1695830333943,-0.27294922,-0.9187622,0.020446777,2.546875,-7.890625,-3.21875,11
12,1695830333983,-0.2775879,-1.003479,0.098083496,3.375,-4.125,-2.28125,12
13,1695830334023,-0.3076172,-1.0249634,0.06488037,-9.09375,-6.40625,-3.21875,13
14,1695830334063,-0.3334961,-1.0120239,0.042663574,-6.734375,-6.515625,-6.359375,14
15,1695830334103,-0.28808594,-1.0713501,-0.018859863,-0.484375,-7.71875,-12.59375,15
16,1695830334143,-0.18432617,-1.1397095,0.035827637,1.078125,-5.6875,-15.296875,16
17,1695830334183,-0.029541016,-1.0376587,0.042907715,-2.6875,-0.078125,-7.171875,17
18,1695830334223,0.009765625,-0.8623657,-0.035949707,-1.375,-7.171875,-1.234375,18
19,1695830334263,-0.080078125,-0.8201294,-0.026428223,1.421875,-7.78125,0.6875,19
20,1695830334303,-0.15771484,-1.0237427,0.03656006,-0.59375,-10.453125,1.0,20
21,1695830334343,-0.14794922,-1.1494751,0.10296631,2.75,-10.9375,-2.640625,21
22,1695830334383,-0.17675781,-1.0671997,0.06341553,-0.203125,-7.328125,0.859375,22
23,1695830334423,-0.15698242,-0.9458618,0.039245605,-3.59375,-12.296875,4.90625,23
24,1695830334463,-0.1862793,-0.90289307,0.0927124,-0.46875,-10.90625,7.28125,24
25,1695830334503,-0.25219727,-0.9014282,0.10272217,-0.9375,-5.5625,8.75,25
26,1695830334543,-0.27661133,-0.864563,0.08831787,3.578125,-2.15625,1.25,26
27,1695830334583,-0.27197266,-0.8623657,0.082458496,6.6875,1.96875,-5.25,27
28,1695830334623,-0.21850586,-0.95684814,0.13031006,5.0625,4.53125,-4.015625,28
29,1695830334663,-0.24780273,-1.0122681,0.16693115,-1.921875,10.125,-1.40625,29
30,1695830334703,-0.2536621,-0.97979736,0.12567139,-10.125,7.0625,-3.71875,30
31,1695830334743,-0.21972656,-0.9776001,0.14349365,-4.46875,8.015625,-6.328125,31
32,1695830334783,-0.29663086,-0.98931885,0.15423584,-3.703125,9.390625,-5.4375,32
33,1695830334823,-0.2668457,-1.1599731,0.09857178,-9.296875,4.3125,-5.265625,33
34,1695830334863,-0.16625977,-1.2056274,0.10321045,-4.5,8.453125,-0.203125,34
35,1695830334903,-0.17626953,-1.1116333,0.053649902,-3.3125,2.296875,0.640625,35
36,1695830334943,-0.19458008,-0.9336548,0.008728027,-6.546875,8.671875,0.28125,36
37,1695830334983,-0.1875,-0.7346802,-0.050354004,-1.796875,7.390625,2.21875,37
38,1695830335023,-0.13745117,-0.75445557,-0.07867432,1.0625,9.59375,3.109375,38
39,1695830335063,-0.19555664,-1.0420532,-0.089416504,-1.375,8.84375,7.984375,39
40,1695830335103,-0.23120117,-1.1953735,0.046081543,3.625,4.828125,6.890625,40
41,1695830335143,-0.20263672,-1.0376587,0.11126709,-1.515625,0.796875,2.671875,41
42,1695830335183,-0.22338867,-0.89312744,0.054138184,-3.265625,-1.53125,4.46875,42
43,1695830335223,-0.25976562,-0.85528564,0.039001465,5.859375,-0.46875,6.0625,43
44,1695830335263,-0.28198242,-0.88604736,0.059020996,10.359375,4.65625,3.8125,44
45,1695830335303,-0.21459961,-0.92926025,0.066589355,6.484375,1.71875,3.03125,45
46,1695830335343,-0.21166992,-0.97906494,0.105651855,2.375,-2.859375,5.40625,46
47,1695830335383,-0.25341797,-0.93536377,0.07513428,-7.0,-2.703125,4.3125,47
48,1695830335423,-0.24609375,-0.87164307,0.038757324,-6.609375,-4.078125,0.1875,48
49,1695830335463,-0.26708984,-0.9451294,0.061462402,1.65625,-4.9375,-1.859375,49
50,1695830335503,-0.2919922,-1.0408325,0.16864014,-1.15625,-4.359375,-2.8125,50
51,1695830335543,-0.3227539,-1.0271606,0.12738037,-7.265625,-2.828125,-3.625,51
52,1695830335583,-0.26586914,-1.019104,0.046325684,-6.15625,-5.640625,-5.109375,52
53,1695830335623,-0.19824219,-1.0906372,-0.023010254,-1.46875,-7.640625,-9.234375,53
54,1695830335663,-0.16772461,-1.2097778,0.050231934,1.8125,-7.640625,-9.6875,54
55,1695830335703,-0.114746094,-1.0552368,0.015808105,-2.546875,-1.765625,-7.140625,55
56,1695830335743,-0.051757812,-0.80426025,-0.035217285,2.828125,-4.921875,-6.953125,56
57,1695830335783,-0.022949219,-0.75250244,0.007507324,3.3125,-9.1875,-1.453125,57
58,1695830335823,-0.10229492,-0.9924927,0.070251465,0.59375,-12.0,4.859375,58
59,1695830335863,-0.24267578,-1.2713013,0.13104248,-1.484375,-11.71875,2.46875,59
60,1695830335903,-0.18188477,-1.0449829,0.11444092,-2.265625,-8.515625,-2.015625,60
61,1695830335943,-0.18701172,-0.88531494,0.08392334,2.34375,-6.640625,-1.484375,61
62,1695830335983,-0.22045898,-0.8401489,0.08392334,5.578125,-10.140625,4.28125,62
63,1695830336023,-0.23632812,-0.8743286,0.089538574,1.109375,-7.359375,6.328125,63
64,1695830336063,-0.25463867,-0.8867798,0.11029053,1.625,-2.953125,0.34375,64
65,1695830336103,-0.2475586,-0.93951416,0.11639404,5.34375,-0.171875,-5.59375,65
66,1695830336143,-0.23413086,-0.96539307,0.15985107,6.71875,2.953125,-2.640625,66
67,1695830336183,-0.21899414,-0.9788208,0.11663818,-3.578125,2.03125,0.34375,67
68,1695830336223,-0.2109375,-0.99224854,0.121520996,-4.625,1.375,0.140625,68
69,1695830336263,-0.2680664,-0.94537354,0.13201904,0.90625,5.4375,-2.859375,69
70,1695830336303,-0.35009766,-0.9492798,0.14276123,2.78125,7.4375,-5.8125,70
71,1695830336343,-0.26831055,-1.1211548,0.06829834,-6.203125,6.3125,-9.03125,71
72,1695830336383,-0.171875,-1.1897583,0.10418701,0.0625,9.15625,-2.921875,72
73,1695830336423,-0.16992188,-1.1362915,0.04852295,-6.140625,5.984375,2.671875,73
74,1695830336463,-0.14013672,-0.9561157,0.006286621,-8.0,7.03125,1.421875,74
75,1695830336503,-0.18237305,-0.79107666,-0.03741455,-2.703125,5.96875,2.484375,75
76,1695830336543,-0.19360352,-0.79229736,-0.08428955,2.359375,7.109375,4.84375,76
77,1695830336583,-0.17700195,-1.0310669,-0.11456299,-0.75,9.0,6.171875,77
78,1695830336623,-0.17114258,-1.1323853,-0.037902832,1.359375,6.1875,4.359375,78
79,1695830336663,-0.14135742,-1.02594,0.057800293,-2.6875,1.140625,4.21875,79
80,1695830336703,-0.17041016,-0.9241333,0.09466553,0.375,-2.0,7.546875,80
81,1695830336743,-0.23339844,-0.8789673,0.05291748,-1.75,-3.59375,8.15625,81
82,1695830336783,-0.25585938,-0.8804321,0.018005371,3.3125,0.03125,2.390625,82
83,1695830336823,-0.23657227,-0.9558716,0.019958496,9.5625,-0.4375,0.015625,83
84,1695830336863,-0.22143555,-1.0090942,0.0680542,5.5,-2.546875,1.6875,84
85,1695830336903,-0.23583984,-0.96173096,0.08465576,-2.4375,-4.390625,1.90625,85
86,1695830336943,-0.24145508,-0.87628174,0.04852295,-1.25,-1.59375,2.671875,86
87,1695830336983,-0.24804688,-0.8875122,0.0446167,4.890625,-2.28125,2.34375,87
88,1695830337023,-0.25756836,-0.98565674,0.043395996,0.015625,-4.46875,-0.21875,88
89,1695830337063,-0.24072266,-1.0427856,0.07733154,-3.78125,-4.1875,-1.6875,89
90,1695830337103,-0.24047852,-0.9837036,0.098083496,-4.265625,-0.796875,-0.34375,90
91,1695830337143,-0.2446289,-0.97735596,0.06072998,-7.71875,-5.75,-2.15625,91
92,1695830337183,-0.31860352,-1.0230103,0.077819824,-8.65625,-7.8125,-1.3125,92
93,1695830337223,-0.27905273,-1.1170044,-0.016906738,-6.953125,-10.625,-6.859375,93
94,1695830337263,-0.16796875,-1.1448364,0.028747559,1.765625,-2.984375,-8.6875,94
95,1695830337303,-0.09741211,-1.041565,0.054870605,-0.46875,2.84375,-3.890625,95
96,1695830337343,-0.092041016,-0.8755493,-0.026672363,-4.546875,-3.765625,-2.046875,96
97,1695830337383,-0.013916016,-0.76348877,-0.057434082,-1.515625,-12.46875,-3.234375,97
98,1695830337423,-0.028076172,-0.8616333,0.04827881,5.234375,-8.71875,-1.296875,98
99,1695830337463,-0.15649414,-1.1069946,0.11834717,3.28125,-8.171875,1.765625,99
100,1695830337503,-0.23876953,-1.140686,0.10491943,-1.28125,-4.21875,-2.921875,100
101,1695830337543,-0.20166016,-1.0422974,0.057556152,-2.125,-2.984375,-1.53125,101
102,1695830337583,-0.17211914,-0.91290283,0.0602417,2.375,-4.703125,2.1875,102
103,1695830337623,-0.2055664,-0.8904419,0.066833496,3.296875,-5.390625,5.140625,103
104,1695830337663,-0.25073242,-0.9146118,0.101257324,2.3125,0.734375,3.671875,104
105,1695830337703,-0.27490234,-0.92974854,0.11859131,1.25,4.421875,-2.109375,105
106,1695830337743,-0.28222656,-0.9529419,0.12713623,3.390625,4.046875,-3.609375,106
107,1695830337783,-0.23999023,-0.944397,0.13421631,2.0625,6.828125,-0.359375,107
108,1695830337823,-0.25805664,-0.9072876,0.121276855,0.765625,7.890625,-0.59375,108
109,1695830337863,-0.25219727,-0.9480591,0.1605835,-2.296875,10.328125,-4.140625,109
110,1695830337903,-0.20166016,-0.99298096,0.17303467,-2.875,10.328125,-6.328125,110
111,1695830337943,-0.22924805,-0.9898071,0.19525146,-1.078125,6.625,-5.21875,111
112,1695830337983,-0.28466797,-0.986145,0.14544678,-5.21875,7.359375,-2.0625,112
113,1695830338023,-0.2866211,-1.0813599,0.097595215,-4.796875,1.421875,-3.125,113
114,1695830338063,-0.16455078,-1.1216431,0.11273193,-7.53125,9.609375,0.015625,114
115,1695830338103,-0.16186523,-1.1148071,0.046081543,-9.90625,3.734375,4.34375,115
116,1695830338143,-0.13354492,-1.0127563,0.0692749,-7.953125,4.09375,5.578125,116
117,1695830338183,-0.15795898,-0.8882446,0.04119873,-1.1875,0.109375,1.265625,117
118,1695830338223,-0.17822266,-0.83843994,-0.00982666,5.140625,0.171875,1.40625,118
119,1695830338263,-0.1628418,-0.85479736,-0.066711426,5.828125,5.40625,4.5625,119
120,1695830338303,-0.17236328,-0.9512329,-0.062072754,4.96875,9.296875,7.390625,120
121,1695830338343,-0.22558594,-1.0913696,0.018249512,4.125,5.1875,5.203125,121
122,1695830338383,-0.22290039,-1.0984497,0.058776855,5.59375,-1.921875,2.90625,122
123,1695830338423,-0.19946289,-0.9993286,0.09515381,5.265625,-3.1875,1.875,123
124,1695830338463,-0.21069336,-0.8960571,0.06488037,9.140625,-0.046875,2.125,124
125,1695830338503,-0.24389648,-0.8623657,0.053894043,11.09375,2.828125,3.390625,125
126,1695830338543,-0.26171875,-0.93585205,0.034851074,7.421875,1.296875,4.4375,126
127,1695830338583,-0.23364258,-0.9866333,0.039978027,-0.109375,-3.15625,2.34375,127
128,1695830338623,-0.20751953,-0.9365845,0.06951904,-2.171875,-4.640625,3.109375,128
129,1695830338663,-0.21459961,-0.8960571,0.046325684,-3.40625,-5.4375,4.578125,129
130,1695830338703,-0.22851562,-0.9143677,0.04486084,-3.8125,-7.53125,-0.015625,130
131,1695830338743,-0.27197266,-1.0151978,0.058288574,-3.0,-8.984375,-4.546875,131
132,1695830338783,-0.3203125,-1.0491333,0.14129639,-0.9375,-2.1875,-2.109375,132
133,1695830338823,-0.28686523,-0.9561157,0.08001709,-8.328125,-4.71875,-0.84375,133
134,1695830338863,-0.26513672,-0.96954346,0.0770874,-6.46875,-8.9375,-3.734375,134
135,1695830338903,-0.19628906,-1.0447388,0.019470215,-0.90625,-9.296875,-6.4375,135
136,1695830338943,-0.234375,-1.1880493,0.024597168,2.21875,-8.671875,-8.125,136
137,1695830338983,-0.17456055,-1.0969849,-0.0012817383,0.859375,-6.296875,-8.15625,137
138,1695830339023,-0.099609375,-0.9522095,-0.027893066,0.390625,-3.828125,-7.203125,138
139,1695830339063,-0.076416016,-0.8406372,-0.03643799,3.9375,-6.046875,-3.0,139
140,1695830339103,-0.045654297,-0.7893677,-0.035705566,3.859375,-10.015625,-1.046875,140
141,1695830339143,-0.08959961,-0.9336548,-0.014465332,8.15625,-10.140625,0.609375,141
142,1695830339183,-0.19897461,-1.1567993,0.023864746,5.3125,-6.984375,3.390625,142
143,1695830339223,-0.25170898,-1.1399536,0.04144287,-0.671875,-4.28125,1.84375,143
144,1695830339263,-0.21020508,-1.0046997,0.015075684,-2.8125,-4.6875,1.421875,144
145,1695830339303,-0.19165039,-0.9089966,0.016052246,1.03125,-4.796875,4.390625,145
146,1695830339343,-0.21826172,-0.88238525,0.023376465,0.125,-1.046875,5.421875,146
147,1695830339383,-0.22314453,-0.9065552,0.055114746,-0.3125,2.859375,2.6875,147
148,1695830339423,-0.25268555,-0.9194946,0.08831787,2.875,4.78125,-1.078125,148
149,1695830339463,-0.2097168,-0.9373169,0.09466553,-0.203125,5.0,-1.125,149
150,1695830339503,-0.21240234,-0.9216919,0.113708496,-0.25,6.046875,2.078125,150
151,1695830339543,-0.20825195,-0.9505005,0.10003662,-3.921875,4.234375,2.375,151
152,1695830339583,-0.21679688,-1.0066528,0.10467529,-4.09375,3.21875,-1.78125,152
153,1695830339623,-0.26464844,-0.9976196,0.14447021,-2.8125,3.828125,-5.53125,153
154,1695830339663,-0.3269043,-0.9885864,0.14666748,-7.171875,5.953125,-6.921875,154
155,1695830339703,-0.32910156,-1.0684204,0.07611084,0.40625,0.09375,-7.421875,155
156,1695830339743,-0.1665039,-1.1968384,0.10687256,-4.890625,12.0,-2.59375,156
157,1695830339783,-0.14624023,-1.1653442,0.018249512,-4.796875,7.859375,0.78125,157
158,1695830339823,-0.13110352,-0.9990845,0.027038574,-9.34375,4.265625,0.96875,158
159,1695830339863,-0.18579102,-0.8364868,-0.0056762695,-1.9375,5.625,-1.5625,159
160,1695830339903,-0.20703125,-0.84088135,-0.061828613,4.796875,11.140625,0.578125,160
161,1695830339943,-0.13012695,-0.958313,-0.1260376,3.8125,14.296875,2.453125,161
162,1695830339983,-0.14697266,-0.9993286,-0.08306885,6.90625,12.5,3.625,162
163,1695830340023,-0.17675781,-0.9507446,-0.027160645,1.296875,9.34375,6.234375,163
164,1695830340063,-0.16601562,-0.987854,-0.049621582,-2.078125,6.265625,8.0,164
165,1695830340103,-0.122802734,-1.0322876,0.030212402,7.390625,3.296875,8.390625,165
166,1695830340143,-0.19433594,-1.0122681,0.07147217,10.0625,5.375,7.390625,166
167,1695830340183,-0.24487305,-0.9126587,0.010192871,5.515625,6.140625,4.96875,167
168,1695830340223,-0.19995117,-0.8772583,-0.015197754,4.390625,3.40625,0.625,168
169,1695830340263,-0.1274414,-0.9343872,-0.0032348633,1.21875,-2.484375,-0.140625,169
170,1695830340303,-0.1550293,-1.0291138,0.070739746,0.21875,-7.109375,4.390625,170
171,1695830340343,-0.15551758,-1.055481,0.09515381,-6.234375,-9.046875,7.03125,171
172,1695830340383,-0.23388672,-0.9458618,0.0524292,-10.484375,-13.125,4.53125,172
173,1695830340423,-0.27001953,-0.8574829,-0.0010375977,-7.3125,-12.6875,-2.703125,173
174,1695830340463,-0.3461914,-0.9163208,0.023132324,3.34375,-6.78125,-3.953125,174
175,1695830340503,-0.26708984,-1.0366821,0.085876465,-1.125,-1.640625,-4.421875,175
176,1695830340543,-0.21875,-1.0713501,0.16522217,-8.734375,-0.671875,-0.34375,176
177,1695830340583,-0.22265625,-1.0339966,0.08856201,-11.171875,-8.1875,1.671875,177
178,1695830340623,-0.2565918,-0.9819946,-0.0010375977,-9.3125,-9.9375,-4.28125,178
179,1695830340663,-0.20507812,-1.083313,-0.028625488,3.171875,-11.21875,-17.515625,179
180,1695830340703,-0.08935547,-1.1155396,0.04486084,6.75,-5.53125,-15.640625,180
181,1695830340743,-0.08984375,-0.92315674,0.054870605,2.875,-0.65625,-7.015625,181
182,1695830340783,-0.17285156,-0.8115845,-0.04840088,-1.171875,-2.46875,0.109375,182
183,1695830340823,-0.1003418,-0.86187744,-0.06842041,-1.25,-4.390625,-2.796875,183
184,1695830340863,0.009765625,-1.0759888,0.024597168,8.65625,-11.90625,-2.234375,184
185,1695830340903,-0.05444336,-1.1587524,0.09466553,4.78125,-9.9375,3.3125,185
186,1695830340943,-0.17919922,-1.0847778,0.02947998,-5.203125,-7.421875,6.859375,186
187,1695830340983,-0.21777344,-0.96710205,-0.016662598,-6.546875,-6.953125,-0.796875,187
188,1695830341023,-0.2019043,-0.8965454,0.024353027,3.875,-8.078125,-3.15625,188
189,1695830341063,-0.18823242,-0.909729,0.07733154,2.578125,-3.71875,1.8125,189
190,1695830341103,-0.21801758,-0.9338989,0.08685303,-4.6875,-0.578125,3.546875,190
191,1695830341143,-0.25048828,-0.93341064,0.093444824,-0.34375,0.140625,-0.96875,191
192,1695830341183,-0.22973633,-0.92022705,0.09075928,4.078125,2.375,-2.921875,192
193,1695830341223,-0.23461914,-0.9365845,0.11419678,3.6875,3.046875,-3.109375,193
194,1695830341263,-0.27075195,-0.95758057,0.13104248,-1.546875,5.015625,-3.09375,194
195,1695830341303,-0.25610352,-0.9602661,0.11224365,-2.78125,6.71875,-3.75,195
196,1695830341343,-0.2758789,-0.9817505,0.14007568,-0.609375,7.328125,-5.953125,196
197,1695830341383,-0.2980957,-0.9702759,0.17547607,-3.0625,8.390625,-8.890625,197
198,1695830341423,-0.33911133,-0.99224854,0.10223389,-3.390625,9.96875,-9.015625,198
199,1695830341463,-0.2565918,-1.1394653,0.08441162,-3.4375,10.34375,-5.359375,199
200,1695830341503,-0.18261719,-1.1680298,0.05316162,-5.625,12.125,2.546875,200
201,1695830341543,-0.1430664,-1.144104,0.06829834,-10.234375,3.875,7.9375,201
202,1695830341583,-0.15039062,-0.8899536,0.07928467,-6.96875,3.921875,6.015625,202
203,1695830341623,-0.22167969,-0.7246704,0.054870605,-2.28125,3.8125,6.875,203
204,1695830341663,-0.1965332,-0.7732544,-0.08453369,3.71875,6.015625,6.25,204
205,1695830341703,-0.16796875,-1.0613403,-0.16778564,5.859375,10.078125,4.578125,205
206,1695830341743,-0.20727539,-1.1511841,-0.04083252,9.453125,12.765625,7.046875,206
207,1695830341783,-0.24487305,-1.0164185,0.03656006,-4.484375,10.578125,4.59375,207
208,1695830341823,-0.21948242,-0.98565674,0.06512451,-0.171875,3.265625,4.234375,208
209,1695830341863,-0.18652344,-0.9092407,0.05999756,4.28125,3.90625,5.09375,209
210,1695830341903,-0.24145508,-0.9043579,0.036071777,2.265625,7.109375,5.671875,210
211,1695830341943,-0.21582031,-0.9326782,0.028259277,8.609375,5.984375,2.515625,211
212,1695830341983,-0.18676758,-0.97198486,0.070251465,8.109375,1.796875,1.453125,212
213,1695830342023,-0.21411133,-0.9631958,0.089782715,0.328125,-1.328125,3.140625,213
214,1695830342063,-0.2607422,-0.87286377,0.04095459,-0.546875,-1.453125,3.53125,214
215,1695830342103,-0.21655273,-0.8689575,-0.003967285,1.9375,-5.859375,-0.453125,215
216,1695830342143,-0.22680664,-1.005188,0.05291748,1.703125,-7.296875,-3.625,216
217,1695830342183,-0.2709961,-1.0718384,0.121520996,-7.046875,-8.15625,-2.421875,217
218,1695830342223,-0.3100586,-0.9053345,0.07269287,-9.421875,-6.65625,-3.9375,218
219,1695830342263,-0.3088379,-0.90948486,-0.024719238,-6.375,-11.71875,-10.0625,219
220,1695830342303,-0.23144531,-1.1099243,-0.037902832,6.484375,-9.78125,-16.96875,220
221,1695830342343,-0.1303711,-1.2876587,0.062438965,4.953125,-3.59375,-11.21875,221
222,1695830342383,-0.14160156,-1.1206665,0.023620605,-6.0625,1.28125,-1.0,222
223,1695830342423,-0.14575195,-0.862854,-0.07672119,-3.53125,0.40625,-1.328125,223
224,1695830342463,-0.045654297,-0.7686157,-0.07354736,2.140625,-6.1875,-3.453125,224
225,1695830342503,-0.0061035156,-0.9024048,0.041931152,6.515625,-7.015625,-1.0,225
226,1695830342543,-0.119384766,-1.1321411,0.098083496,-1.1875,-7.828125,3.828125,226
227,1695830342583,-0.24609375,-1.1096802,0.07684326,-4.28125,-4.0625,1.6875,227
228,1695830342623,-0.18139648,-0.98443604,0.029724121,-2.515625,-3.09375,-1.28125,228
229,1695830342663,-0.16113281,-0.93341064,0.06317139,0.921875,-3.96875,-0.765625,229
230,1695830342703,-0.16113281,-0.913147,0.089538574,-0.171875,-4.796875,6.09375,230
231,1695830342743,-0.1809082,-0.909729,0.10638428,-1.1875,-5.3125,8.390625,231
232,1695830342783,-0.2290039,-0.93536377,0.11273193,0.484375,-5.6875,3.390625,232
233,1695830342823,-0.25878906,-0.95098877,0.11151123,3.765625,-2.046875,1.203125,233
234,1695830342863,-0.24682617,-0.95440674,0.08416748,5.34375,2.453125,0.796875,234
235,1695830342903,-0.25585938,-0.95025635,0.12322998,2.859375,5.28125,0.546875,235
236,1695830342943,-0.28051758,-0.9710083,0.1305542,-2.078125,9.375,-1.53125,236
237,1695830342983,-0.22290039,-0.9819946,0.1227417,-4.1875,10.09375,-3.296875,237
238,1695830343023,-0.22216797,-0.9805298,0.15057373,-3.0625,8.4375,-2.90625,238
239,1695830343063,-0.24731445,-0.96759033,0.12860107,-4.484375,8.875,-2.71875,239
240,1695830343103,-0.19140625,-1.0637817,0.10028076,-5.890625,10.265625,-4.09375,240
241,1695830343143,-0.13867188,-1.1030884,0.13201904,-1.234375,10.375,-1.796875,241
242,1695830343183,-0.13330078,-1.123352,0.12322998,-6.1875,2.921875,3.203125,242
243,1695830343223,-0.16064453,-1.0305786,0.14105225,-6.875,-0.484375,2.453125,243
244,1695830343263,-0.20507812,-0.9116821,0.07977295,-5.203125,-2.765625,-2.421875,244
245,1695830343303,-0.24780273,-0.89434814,-0.0076293945,-1.90625,-0.640625,-3.734375,245
246,1695830343343,-0.21166992,-0.86016846,-0.0491333,1.390625,8.0625,-2.453125,246
247,1695830343383,-0.1796875,-0.9109497,-0.078430176,4.1875,10.734375,1.875,247
248,1695830343423,-0.17944336,-0.9619751,-0.04425049,5.28125,7.28125,5.6875,248
249,1695830343463,-0.18432617,-1.036438,0.026306152,4.25,1.46875,6.9375,249
250,1695830343503,-0.16748047,-1.0918579,0.049743652,1.234375,-3.15625,8.34375,250
251,1695830343543,-0.19067383,-0.9697876,0.07147217,3.640625,-4.921875,6.859375,251
252,1695830343583,-0.23657227,-0.83917236,0.016540527,10.59375,-0.359375,4.53125,252
253,1695830343623,-0.2631836,-0.8989868,0.022399902,11.640625,3.328125,2.953125,253
254,1695830343663,-0.25463867,-0.9595337,0.016296387,4.59375,-0.671875,0.375,254
255,1695830343703,-0.22094727,-0.97613525,0.04095459,-1.796875,-2.65625,0.796875,255
256,1695830343743,-0.16796875,-0.99346924,0.04071045,-4.984375,-4.046875,3.71875,256
257,1695830343783,-0.16381836,-0.9702759,0.035827637,-4.5625,-5.84375,3.375,257
258,1695830343823,-0.21435547,-0.9776001,0.04876709,-6.5625,-7.921875,-0.46875,258
259,1695830343863,-0.2919922,-0.9866333,0.09320068,-2.859375,-6.9375,-2.609375,259
260,1695830343903,-0.3100586,-0.9846802,0.05267334,-6.515625,-8.109375,-3.875,260
261,1695830343943,-0.23730469,-0.95391846,0.043884277,-7.4375,-10.625,-6.578125,261
262,1695830343983,-0.21044922,-1.0515747,-0.038391113,-1.875,-13.203125,-9.609375,262
263,1695830344023,-0.21191406,-1.1831665,0.03656006,2.484375,-10.140625,-11.796875,263
264,1695830344063,-0.107177734,-1.0967407,0.039978027,-4.78125,-3.53125,-7.03125,264
265,1695830344103,-0.072753906,-0.89141846,-0.03741455,-3.6875,-5.671875,-2.765625,265
266,1695830344143,-0.06201172,-0.7671509,-0.057678223,-0.578125,-13.203125,0.3125,266
267,1695830344183,-0.060302734,-0.8904419,0.0038452148,-0.8125,-14.8125,-1.796875,267
268,1695830344223,-0.14160156,-1.0859985,0.10443115,5.125,-12.9375,-1.078125,268
269,1695830344263,-0.23803711,-1.1316528,0.10662842,-0.3125,-5.640625,0.859375,269
270,1695830344303,-0.21240234,-1.0317993,0.04559326,-5.578125,-6.953125,1.625,270
271,1695830344343,-0.1862793,-0.93829346,0.05682373,-2.703125,-7.265625,2.625,271
272,1695830344383,-0.21289062,-0.8928833,0.07879639,-0.125,-4.90625,4.75,272
273,1695830344423,-0.21264648,-0.8887329,0.07928467,2.125,-4.421875,4.59375,273
274,1695830344463,-0.23217773,-0.9133911,0.116882324,1.203125,-1.90625,0.234375,274
275,1695830344503,-0.2619629,-0.9619751,0.11981201,2.8125,0.15625,-1.4375,275
276,1695830344543,-0.23242188,-0.95977783,0.11883545,3.8125,1.890625,1.359375,276
277,1695830344583,-0.23046875,-0.9365845,0.11468506,1.953125,2.921875,1.984375,277
278,1695830344623,-0.23828125,-0.95684814,0.11663818,-0.5,4.78125,-0.78125,278
279,1695830344663,-0.23803711,-0.9776001,0.1227417,0.6875,6.90625,-1.84375,279
280,1695830344703,-0.2368164,-0.9614868,0.12982178,-0.046875,5.90625,-2.078125,280
281,1695830344743,-0.2529297,-0.95562744,0.16619873,-1.1875,7.703125,-2.84375,281
282,1695830344783,-0.28588867,-0.98638916,0.1329956,-3.015625,10.640625,-4.984375,282
283,1695830344823,-0.2487793,-1.0999146,0.12054443,-7.328125,8.875,-6.078125,283
284,1695830344863,-0.15893555,-1.1311646,0.11077881,-5.515625,9.78125,-1.71875,284
285,1695830344903,-0.107421875,-1.1187134,0.055847168,-6.171875,2.578125,3.109375,285
286,1695830344943,-0.13476562,-0.9841919,0.047302246,-5.171875,2.0625,1.890625,286
287,1695830344983,-0.20996094,-0.8538208,0.026306152,-2.78125,3.78125,-0.625,287
288,1695830345023,-0.20166016,-0.8591919,-0.058654785,0.734375,5.5625,0.90625,288
289,1695830345063,-0.171875,-0.95684814,-0.1104126,3.21875,6.703125,3.671875,289
290,1695830345103,-0.16357422,-1.0159302,-0.04547119,5.96875,10.0,5.078125,290
291,1695830345143,-0.15527344,-1.0071411,0.013122559,3.453125,7.671875,5.703125,291
292,1695830345183,-0.14624023,-1.0108032,0.024597168,1.9375,3.171875,4.359375,292
293,1695830345223,-0.1538086,-0.9834595,0.039245605,2.390625,-1.59375,5.046875,293
294,1695830345263,-0.21484375,-0.9529419,0.042419434,2.0625,1.71875,4.546875,294
295,1695830345303,-0.24365234,-0.91534424,0.013366699,4.9375,1.546875,2.625,295
296,1695830345343,-0.23413086,-0.944397,0.04510498,6.578125,2.15625,-0.25,296
297,1695830345383,-0.21289062,-0.9937134,0.04168701,0.203125,-0.296875,-0.125,297
298,1695830345423,-0.1887207,-0.9717407,0.042419434,-4.765625,-3.3125,2.125,298
299,1695830345463,-0.17993164,-0.9282837,0.047058105,-3.859375,-5.046875,3.15625,299
300,1695830345503,-0.22827148,-0.93048096,0.05633545,-2.375,-8.3125,2.0625,300
301,1695830345543,-0.24047852,-0.9578247,0.038513184,-4.78125,-8.28125,-0.96875,301
302,1695830345583,-0.22363281,-1.0159302,0.08831787,-2.515625,-7.53125,-0.890625,302
303,1695830345623,-0.25097656,-1.0120239,0.11956787,-5.25,-5.546875,1.046875,303
304,1695830345663,-0.2421875,-0.9314575,0.10028076,-10.359375,-8.578125,1.375,304
305,1695830345703,-0.24926758,-0.9883423,0.10662842,-6.125,-11.15625,-2.140625,305
306,1695830345743,-0.29370117,-1.0681763,0.0680542,-2.15625,-11.828125,-7.234375,306
307,1695830345783,-0.24926758,-1.1079712,0.027282715,-0.296875,-8.78125,-12.5,307
308,1695830345823,-0.12597656,-1.0462036,0.036071777,2.640625,-6.59375,-9.40625,308
309,1695830345863,-0.1315918,-0.9434204,0.051940918,1.0625,-4.890625,-4.484375,309
310,1695830345903,-0.13793945,-0.87091064,-0.030578613,-3.6875,-6.375,-1.65625,310
311,1695830345943,-0.045898438,-0.88653564,-0.022033691,-0.859375,-11.734375,-4.109375,311
312,1695830345983,-0.06640625,-1.024231,0.07098389,3.9375,-14.359375,-1.921875,312
313,1695830346023,-0.1430664,-1.1177368,0.113708496,1.703125,-12.265625,0.046875,313
314,1695830346063,-0.22021484,-1.0574341,0.05609131,-1.765625,-5.734375,0.078125,314
315,1695830346103,-0.2253418,-1.0012817,0.026550293,-3.0625,-5.1875,-3.171875,315
316,1695830346143,-0.20996094,-0.93829346,0.07513428,1.375,-4.5625,0.765625,316
317,1695830346183,-0.23828125,-0.89678955,0.105163574,1.703125,-1.375,5.359375,317
318,1695830346223,-0.24902344,-0.8989868,0.10687256,-2.09375,1.640625,5.171875,318
319,1695830346263,-0.2434082,-0.92266846,0.105407715,1.359375,1.703125,0.234375,319
320,1695830346303,-0.2446289,-0.9624634,0.13006592,5.3125,1.859375,0.8125,320
321,1695830346343,-0.22802734,-0.9368286,0.12957764,2.53125,2.984375,2.484375,321
322,1695830346383,-0.2541504,-0.89971924,0.13201904,1.640625,4.171875,0.546875,322
323,1695830346423,-0.2475586,-0.93414307,0.13568115,0.953125,5.421875,-0.890625,323
324,1695830346463,-0.21142578,-1.0046997,0.14349365,1.875,5.6875,-2.28125,324
325,1695830346503,-0.2331543,-1.0108032,0.14910889,0.390625,4.125,-3.46875,325
326,1695830346543,-0.30444336,-0.94366455,0.17254639,-1.203125,7.0,-5.578125,326
327,1695830346583,-0.33764648,-0.95196533,0.11175537,-1.984375,8.53125,-7.875,327
328,1695830346623,-0.21801758,-1.1060181,0.12225342,-1.140625,5.5,-6.734375,328
329,1695830346663,-0.14648438,-1.171936,0.08294678,-8.109375,7.4375,-1.25,329
330,1695830346703,-0.1340332,-1.1101685,0.054870605,-12.296875,2.171875,4.046875,330
331,1695830346743,-0.16064453,-0.90948486,0.03338623,-5.921875,1.53125,3.234375,331
332,1695830346783,-0.2175293,-0.84625244,0.0028686523,-0.34375,2.5625,0.328125,332
333,1695830346823,-0.19897461,-0.8779907,-0.050598145,2.0,8.40625,0.125,333
334,1695830346863,-0.20019531,-0.987854,-0.09527588,2.515625,11.78125,0.90625,334
335,1695830346903,-0.21386719,-1.0603638,-0.021057129,-0.296875,10.578125,3.296875,335
336,1695830346943,-0.16796875,-1.0112915,0.046325684,-5.0625,4.75,4.0,336
337,1695830346983,-0.17138672,-0.9990845,0.08050537,-0.796875,-0.546875,5.0625,337
338,1695830347023,-0.1875,-0.91900635,0.07904053,1.984375,-0.859375,5.984375,338
339,1695830347063,-0.25146484,-0.85821533,0.054382324,9.1875,3.171875,3.453125,339
340,1695830347103,-0.2553711,-0.89630127,-0.00030517578,9.15625,1.375,2.375,340
341,1695830347143,-0.21166992,-0.99542236,0.054870605,5.890625,-1.28125,1.625,341
342,1695830347183,-0.21411133,-1.0127563,0.07684326,-0.078125,-2.953125,3.328125,342
343,1695830347223,-0.21484375,-0.96417236,0.061950684,-3.3125,-3.9375,3.84375,343
344,1695830347263,-0.2133789,-0.93218994,0.07098389,-2.09375,-4.5625,1.65625,344
345,1695830347303,-0.2631836,-0.93927,0.07293701,-1.3125,-5.59375,0.234375,345
346,1695830347343,-0.2631836,-0.98687744,0.06121826,-3.296875,-5.53125,-0.140625,346
347,1695830347383,-0.23022461,-1.0049438,0.08294678,-3.53125,-5.953125,1.53125,347
348,1695830347423,-0.20996094,-0.9746704,0.10784912,-3.015625,-5.171875,3.71875,348
349,1695830347463,-0.21972656,-0.9475708,0.050964355,-8.0625,-9.375,1.671875,349
350,1695830347503,-0.27246094,-1.003479,0.057556152,-2.421875,-10.140625,-4.0625,350
351,1695830347543,-0.27270508,-1.1089478,0.026062012,2.5625,-8.921875,-9.3125,351
352,1695830347583,-0.23413086,-1.1138306,0.058532715,4.4375,-5.328125,-9.109375,352
353,1695830347623,-0.18896484,-0.9846802,0.061706543,-0.84375,-2.046875,-6.953125,353
354,1695830347663,-0.20727539,-0.8501587,0.018493652,-4.140625,0.046875,-3.59375,354
355,1695830347703,-0.16625977,-0.8530884,-0.04449463,-3.453125,-1.265625,-5.671875,355
356,1695830347743,-0.043701172,-0.9495239,-0.0071411133,1.5625,-3.65625,-5.109375,356
357,1695830347783,-0.032226562,-1.0606079,0.08685303,4.1875,-5.828125,0.953125,357
358,1695830347823,-0.140625,-1.0759888,0.109313965,-4.390625,-7.125,6.6875,358
359,1695830347863,-0.20776367,-1.000061,0.06561279,-5.703125,-7.515625,1.609375,359
360,1695830347903,-0.26049805,-0.9907837,0.06341553,1.640625,-7.234375,-2.59375,360
361,1695830347943,-0.234375,-1.0083618,0.0848999,1.953125,-2.734375,-0.421875,361
362,1695830347983,-0.2055664,-0.95098877,0.062683105,0.921875,-1.1875,4.0,362
363,1695830348023,-0.20214844,-0.90753174,0.077819824,-2.015625,-3.015625,2.96875,363
364,1695830348063,-0.22631836,-0.940979,0.113464355,-1.046875,-0.1875,4.921875,364
365,1695830348103,-0.2241211,-0.9487915,0.105407715,-1.421875,0.78125,2.28125,365
366,1695830348143,-0.21801758,-0.9524536,0.117126465,0.171875,2.4375,1.078125,366
367,1695830348183,-0.21875,-0.96173096,0.15740967,2.140625,4.53125,2.03125,367
368,1695830348223,-0.24560547,-0.9343872,0.14056396,1.703125,4.3125,0.296875,368
369,1695830348263,-0.19433594,-0.944397,0.14788818,1.296875,6.796875,-1.046875,369
370,1695830348303,-0.19506836,-0.9480591,0.13372803,3.53125,6.046875,-1.25,370
371,1695830348343,-0.21484375,-0.95758057,0.15130615,3.46875,4.875,-0.765625,371
372,1695830348383,-0.23852539,-0.9536743,0.13519287,2.28125,6.921875,-2.4375,372
373,1695830348423,-0.25878906,-1.062561,0.1281128,-0.34375,6.203125,-1.4375,373
374,1695830348463,-0.17358398,-1.0994263,0.10247803,-0.65625,7.296875,0.046875,374
375,1695830348503,-0.119384766,-1.0881958,0.07196045,-2.46875,0.875,2.78125,375
376,1695830348543,-0.12890625,-1.0535278,0.11004639,-2.296875,-2.296875,4.15625,376
377,1695830348583,-0.16503906,-0.97442627,0.10296631,-1.484375,-1.5625,0.171875,377
378,1695830348623,-0.19702148,-0.928772,0.06903076,-2.359375,-0.9375,-2.53125,378
379,1695830348663,-0.19995117,-0.92388916,-0.02960205,-2.21875,1.171875,-3.875,379
380,1695830348703,-0.16870117,-0.9507446,-0.042053223,1.21875,5.015625,-2.34375,380
381,1695830348743,-0.16430664,-0.92681885,-0.042541504,0.0,8.75,-0.734375,381
382,1695830348783,-0.16748047,-0.9402466,-0.066223145,-3.140625,8.1875,0.359375,382
383,1695830348823,-0.17553711,-1.0388794,-0.02911377,-3.703125,5.796875,3.1875,383
384,1695830348863,-0.18969727,-1.0645142,0.039733887,-3.65625,4.203125,4.28125,384
385,1695830348903,-0.17700195,-0.99053955,0.02532959,-1.609375,-0.046875,2.421875,385
386,1695830348943,-0.18261719,-0.92510986,0.07171631,6.828125,1.5,3.359375,386
387,1695830348983,-0.234375,-0.9224243,0.07269287,8.234375,3.96875,3.953125,387
388,1695830349023,-0.26367188,-0.9326782,0.039978027,3.984375,4.53125,1.640625,388
389,1695830349063,-0.21459961,-0.9536743,0.012634277,3.859375,1.703125,-0.640625,389
390,1695830349103,-0.17504883,-0.97906494,0.062194824,2.703125,-0.203125,0.09375,390
391,1695830349143,-0.20410156,-0.9968872,0.08782959,-2.3125,-1.546875,1.34375,391
392,1695830349183,-0.21606445,-0.92974854,0.07757568,-4.796875,-3.359375,1.109375,392
393,1695830349223,-0.22949219,-0.89556885,0.043640137,-3.109375,-4.46875,0.796875,393
394,1695830349263,-0.23828125,-0.9558716,0.05218506,-0.015625,-7.046875,0.671875,394
395,1695830349303,-0.17895508,-1.0142212,0.06341553,-0.5625,-7.46875,-3.484375,395
396,1695830349343,-0.23486328,-1.0298462,0.105163574,-2.609375,-7.46875,0.8125,396
397,1695830349383,-0.28466797,-0.96466064,0.14056396,-5.03125,-5.703125,3.734375,397
398,1695830349423,-0.32641602,-0.9006958,0.08026123,-8.0625,-7.40625,0.875,398
399,1695830349463,-0.33154297,-0.96343994,0.12030029,0.71875,-4.734375,-4.6875,399
400,1695830349503,-0.29418945,-1.050354,0.02947998,-0.96875,-4.515625,-9.96875,400
401,1695830349543,-0.2763672,-1.100647,0.034362793,-1.3125,-2.640625,-10.96875,401
402,1695830349583,-0.20043945,-1.0637817,0.054382324,-0.5625,1.3125,-6.90625,402
403,1695830349623,-0.20043945,-1.0007935,0.028503418,-0.75,5.90625,-2.625,403
404,1695830349663,-0.1550293,-0.90826416,-0.03253174,-2.375,1.515625,-3.40625,404
405,1695830349703,-0.0061035156,-0.8208618,-0.029846191,2.609375,-2.140625,-4.078125,405
406,1695830349743,-0.01171875,-0.8735962,0.031433105,4.140625,-5.640625,-2.015625,406
407,1695830349783,-0.13378906,-1.0562134,0.08123779,-2.53125,-7.890625,0.40625,407
408,1695830349823,-0.25048828,-1.1209106,0.12054443,-2.0625,-4.8125,-1.3125,408
409,1695830349863,-0.27514648,-1.0740356,0.10223389,-1.828125,0.28125,-3.875,409
410,1695830349903,-0.2055664,-0.9819946,0.089782715,-2.703125,-1.359375,-1.90625,410
411,1695830349943,-0.17114258,-0.8945923,0.07952881,-2.734375,-4.8125,1.03125,411
412,1695830349983,-0.18896484,-0.8657837,0.109558105,-2.359375,-3.890625,3.703125,412
413,1695830350023,-0.21875,-0.92681885,0.10760498,-0.796875,-4.296875,3.15625,413
414,1695830350063,-0.2626953,-0.9663696,0.13543701,1.65625,-3.09375,-0.375,414
415,1695830350103,-0.26293945,-0.94366455,0.1317749,2.453125,0.6875,-0.203125,415
416,1695830350143,-0.22583008,-0.9143677,0.1408081,3.265625,0.5625,3.328125,416
417,1695830350183,-0.24243164,-0.9434204,0.14788818,2.796875,2.59375,3.375,417
418,1695830350223,-0.2536621,-0.9607544,0.14935303,-0.046875,5.46875,0.28125,418
419,1695830350263,-0.24243164,-0.94854736,0.15228271,0.578125,6.125,-1.078125,419
420,1695830350303,-0.24682617,-0.9483032,0.15863037,2.59375,5.15625,-0.546875,420
421,1695830350343,-0.2890625,-0.9849243,0.17156982,0.578125,7.78125,-2.28125,421
422,1695830350383,-0.27954102,-1.1038208,0.14031982,-3.53125,9.5625,-4.25,422
423,1695830350423,-0.16845703,-1.1392212,0.11004639,-4.984375,9.640625,-0.84375,423
424,1695830350463,-0.12573242,-1.0740356,0.09832764,-6.890625,1.90625,3.46875,424
425,1695830350503,-0.13598633,-0.9729614,0.13226318,-4.96875,0.609375,5.90625,425
426,1695830350543,-0.17993164,-0.90289307,0.11126709,-1.875,-0.546875,2.8125,426
427,1695830350583,-0.22021484,-0.9038696,0.054382324,-1.0,3.90625,0.125,427
428,1695830350623,-0.17993164,-0.8982544,-0.032043457,0.5,4.609375,-0.15625,428
429,1695830350663,-0.14892578,-0.9456177,-0.04473877,3.375,5.78125,2.140625,429
430,1695830350703,-0.16552734,-1.0169067,-0.023986816,1.953125,9.234375,4.71875,430
431,1695830350743,-0.17944336,-1.0283813,-0.012023926,-0.015625,8.8125,5.578125,431
432,1695830350783,-0.1977539,-1.0076294,0.022155762,1.359375,4.453125,4.46875,432
433,1695830350823,-0.16040039,-1.0108032,0.026550293,1.203125,2.078125,3.828125,433
434,1695830350863,-0.16186523,-0.97076416,0.05999756,6.0,1.65625,4.953125,434
435,1695830350903,-0.24853516,-0.9336548,0.06732178,7.0625,3.96875,3.375,435
436,1695830350943,-0.26171875,-0.9155884,0.013366699,6.21875,7.890625,-0.296875,436
437,1695830350983,-0.18237305,-0.913147,0.010681152,7.328125,5.984375,-2.21875,437
438,1695830351023,-0.1484375,-0.96099854,0.049987793,5.453125,3.15625,0.59375,438
439,1695830351063,-0.15771484,-1.0161743,0.08148193,-1.8125,-3.34375,5.265625,439
440,1695830351103,-0.1899414,-0.958313,0.07977295,-3.5625,-7.625,3.265625,440
441,1695830351143,-0.21728516,-0.9170532,0.050231934,-2.578125,-11.09375,-1.390625,441
442,1695830351183,-0.26000977,-0.9651489,0.054138184,-1.0625,-11.0625,-3.40625,442
443,1695830351223,-0.2434082,-1.0335083,0.07611084,-5.296875,-10.796875,-3.4375,443
444,1695830351263,-0.26416016,-0.9871216,0.10296631,-6.34375,-10.828125,-2.15625,444
445,1695830351303,-0.27075195,-0.9631958,0.07562256,-8.0625,-12.9375,-2.609375,445
446,1695830351343,-0.24707031,-0.9614868,0.09295654,-2.34375,-11.734375,-3.34375,446
447,1695830351383,-0.27124023,-1.0349731,0.021911621,0.65625,-9.6875,-5.28125,447
448,1695830351423,-0.2775879,-1.116272,0.0036010742,-0.453125,-7.546875,-9.4375,448
449,1695830351463,-0.18139648,-1.0933228,0.028503418,-0.359375,-7.21875,-11.140625,449
450,1695830351503,-0.13378906,-0.9829712,0.058532715,-3.015625,-5.640625,-5.453125,450
451,1695830351543,-0.12084961,-0.85528564,-0.0049438477,-5.6875,-7.78125,-1.3125,451
452,1695830351583,-0.096191406,-0.8171997,0.0004272461,-1.1875,-9.671875,-2.765625,452
453,1695830351623,-0.114746094,-0.92926025,0.036071777,3.890625,-7.28125,-2.34375,453
454,1695830351663,-0.15942383,-1.0562134,0.07904053,3.625,-6.96875,-1.5625,454
455,1695830351703,-0.18188477,-1.0691528,0.08709717,1.828125,-4.4375,-0.78125,455
456,1695830351743,-0.22143555,-1.0603638,0.06341553,-2.796875,-2.6875,1.28125,456
457,1695830351783,-0.20458984,-1.0061646,0.050476074,-2.609375,-2.265625,3.0625,457
458,1695830351823,-0.18481445,-0.92315674,0.05682373,-1.859375,-5.296875,4.265625,458
459,1695830351863,-0.19824219,-0.9273071,0.08099365,-1.078125,-4.5625,4.640625,459
460,1695830351903,-0.21142578,-0.96099854,0.08123779,-0.546875,-5.390625,3.109375,460
461,1695830351943,-0.22290039,-0.942688,0.10223389,2.703125,-5.078125,0.625,461
462,1695830351983,-0.24975586,-0.9546509,0.11029053,2.234375,-0.90625,-0.125,462
463,1695830352023,-0.24414062,-0.92144775,0.116882324,2.640625,0.21875,0.640625,463
464,1695830352063,-0.25439453,-0.9170532,0.11981201,1.9375,1.9375,1.578125,464
465,1695830352103,-0.24902344,-0.9295044,0.12030029,1.453125,4.1875,1.171875,465
466,1695830352143,-0.23730469,-0.94732666,0.10638428,2.234375,5.546875,-0.453125,466
467,1695830352183,-0.24365234,-0.9727173,0.12371826,2.3125,6.75,-2.40625,467
468,1695830352223,-0.27246094,-0.9873657,0.14666748,-0.5,9.515625,-4.09375,468
469,1695830352263,-0.29467773,-0.98638916,0.121276855,-4.46875,10.25,-5.046875,469
470,1695830352303,-0.29516602,-1.0725708,0.12615967,-3.671875,9.4375,-5.53125,470
471,1695830352343,-0.19726562,-1.0889282,0.09661865,-5.046875,9.5625,-3.46875,471
472,1695830352383,-0.14550781,-1.0530396,0.08856201,-5.765625,5.90625,0.265625,472
473,1695830352423,-0.13769531,-1.015686,0.10687256,-4.640625,4.9375,3.953125,473
474,1695830352463,-0.17578125,-0.9421997,0.09613037,-1.9375,1.53125,0.5625,474
475,1695830352503,-0.20751953,-0.92559814,0.08123779,-0.296875,2.140625,-0.609375,475
476,1695830352543,-0.21508789,-0.9368286,-0.018615723,-1.234375,5.234375,-0.84375,476
477,1695830352583,-0.16870117,-0.90509033,-0.066711426,0.640625,5.671875,0.828125,477
478,1695830352623,-0.18310547,-0.9446411,-0.06549072,1.375,8.328125,2.6875,478
479,1695830352663,-0.19555664,-0.9819946,-0.033996582,1.015625,9.703125,3.703125,479
480,1695830352703,-0.17871094,-1.0320435,0.0033569336,-1.84375,6.015625,3.609375,480
481,1695830352743,-0.17944336,-1.0615845,0.03704834,-2.203125,0.984375,2.921875,481
482,1695830352783,-0.20776367,-1.0161743,0.07147217,-0.609375,1.0625,4.578125,482
483,1695830352823,-0.2331543,-0.9151001,0.054382324,1.15625,-0.140625,3.546875,483
484,1695830352863,-0.25683594,-0.8987427,0.031677246,4.875,1.328125,0.21875,484
485,1695830352903,-0.22924805,-0.92437744,0.046569824,6.484375,0.390625,0.171875,485
486,1695830352943,-0.20874023,-0.9534302,0.09246826,5.734375,0.671875,1.015625,486
487,1695830352983,-0.21508789,-0.9397583,0.08392334,1.5625,-2.578125,2.765625,487
488,1695830353023,-0.20996094,-0.9143677,0.06439209,-1.046875,-4.5625,3.859375,488
489,1695830353063,-0.2133789,-0.92559814,0.05316162,0.53125,-7.578125,2.875,489
490,1695830353103,-0.22802734,-1.0132446,0.054870605,-0.453125,-8.96875,0.90625,490
491,1695830353143,-0.25146484,-1.0757446,0.09613037,-4.671875,-9.421875,0.609375,491
492,1695830353183,-0.26538086,-0.9907837,0.121520996,-6.296875,-9.265625,1.0,492
493,1695830353223,-0.27075195,-0.9312134,0.06951904,-6.296875,-9.828125,0.453125,493
494,1695830353263,-0.23120117,-0.93170166,0.070007324,-1.96875,-9.859375,-1.328125,494
495,1695830353303,-0.23583984,-0.9714966,0.028015137,1.21875,-9.71875,-4.109375,495
496,1695830353343,-0.25268555,-1.0996704,0.027526855,3.0,-6.359375,-7.375,496
497,1695830353383,-0.21606445,-1.1096802,0.058288574,4.796875,-3.6875,-8.3125,497
498,1695830353423,-0.20898438,-0.9898071,0.023132324,-0.8125,-1.609375,-4.71875,498
499,1695830353463,-0.19311523,-0.87579346,-0.018127441,-4.28125,-3.96875,-0.640625,499
500,1695830353503,-0.14404297,-0.8579712,-0.012023926,-0.859375,-5.90625,-1.625,500
501,1695830353543,-0.12060547,-0.99786377,0.029968262,2.9375,-4.734375,-3.828125,501
502,1695830353583,-0.10546875,-1.0064087,0.03338623,-0.140625,-5.828125,-4.78125,502
503,1695830353623,-0.099853516,-0.944397,0.008972168,-1.78125,-8.375,-1.90625,503
504,1695830353663,-0.16333008,-0.95269775,0.043395996,3.953125,-8.375,3.0,504
505,1695830353703,-0.19799805,-1.0637817,0.08709717,3.015625,-6.359375,3.796875,505
506,1695830353743,-0.22680664,-1.1174927,0.08880615,-1.1875,-4.75,1.796875,506
507,1695830353783,-0.17578125,-1.0806274,0.04095459,-4.703125,-3.640625,1.5625,507
508,1695830353823,-0.12915039,-0.8826294,0.04876709,-0.3125,-3.6875,4.125,508
509,1695830353863,-0.17553711,-0.8233032,0.06878662,2.46875,-3.59375,5.515625,509
510,1695830353903,-0.20727539,-0.91241455,0.07537842,-1.875,1.296875,4.34375,510
511,1695830353943,-0.24609375,-1.0059204,0.11981201,1.65625,3.671875,-1.046875,511
512,1695830353983,-0.24951172,-0.98101807,0.12445068,4.53125,6.953125,-3.296875,512
513,1695830354023,-0.23364258,-0.91485596,0.11468506,3.828125,8.890625,-0.203125,513
514,1695830354063,-0.19799805,-0.93170166,0.09490967,1.96875,9.78125,2.5,514
515,1695830354103,-0.19848633,-1.0239868,0.117614746,0.546875,9.78125,-0.265625,515
516,1695830354143,-0.21459961,-0.99786377,0.1720581,-0.078125,10.375,-5.015625,516
517,1695830354183,-0.25317383,-0.9512329,0.15179443,-2.84375,10.78125,-7.15625,517
518,1695830354223,-0.25683594,-1.045227,0.09661865,-4.484375,9.5625,-5.703125,518
519,1695830354263,-0.1796875,-1.109436,0.06781006,-0.765625,12.65625,-2.203125,519
520,1695830354303,-0.16137695,-1.11969,0.034362793,-2.75,8.328125,0.375,520
521,1695830354343,-0.13696289,-1.0401001,0.01727295,-6.71875,7.1875,1.796875,521
522,1695830354383,-0.17529297,-0.9246216,0.031433105,-4.71875,5.65625,0.515625,522
523,1695830354423,-0.18701172,-0.9089966,0.050720215,0.203125,6.125,1.171875,523
524,1695830354463,-0.16967773,-0.90753174,-0.008850098,0.484375,4.9375,0.265625,524
525,1695830354503,-0.1706543,-0.88775635,-0.039367676,1.46875,6.171875,1.453125,525
526,1695830354543,-0.19458008,-0.9053345,-0.043029785,3.53125,7.828125,3.125,526
527,1695830354583,-0.22607422,-0.9859009,-0.04840088,4.28125,7.53125,3.96875,527
528,1695830354623,-0.20361328,-1.0632935,-0.013977051,2.703125,5.3125,3.53125,528
529,1695830354663,-0.1953125,-1.067688,0.016296387,0.078125,2.578125,1.359375,529
530,1695830354703,-0.21826172,-1.0044556,0.058532715,1.8125,2.671875,2.125,530
531,1695830354743,-0.23291016,-0.91778564,0.03753662,5.390625,3.09375,0.703125,531
532,1695830354783,-0.23388672,-0.91607666,0.011169434,3.28125,5.125,-0.890625,532
533,1695830354823,-0.20898438,-0.94195557,0.0036010742,3.90625,1.75,-1.625,533
534,1695830354863,-0.2019043,-0.9788208,0.03363037,2.390625,-1.078125,-1.234375,534
535,1695830354903,-0.21362305,-0.9976196,0.0368042,-1.5625,-2.203125,0.125,535
536,1695830354943,-0.21704102,-0.9204712,0.03656006,-1.015625,-4.203125,-1.203125,536
537,1695830354983,-0.22949219,-0.93414307,0.047302246,2.515625,-5.5,-0.625,537
538,1695830355023,-0.2446289,-0.9932251,0.049987793,1.4375,-6.125,1.234375,538
539,1695830355063,-0.28271484,-0.9590454,0.028747559,-2.109375,-4.5625,0.609375,539
540,1695830355103,-0.26635742,-0.9534302,0.034362793,-1.84375,-4.734375,-0.875,540
541,1695830355143,-0.24926758,-0.98809814,0.06365967,-0.9375,-3.453125,-0.234375,541
542,1695830355183,-0.27124023,-0.99835205,0.10443115,-3.75,-2.59375,1.515625,542
543,1695830355223,-0.28198242,-0.9627075,0.093444824,-7.765625,-2.40625,0.375,543
544,1695830355263,-0.29248047,-0.94073486,0.046081543,-3.96875,-4.46875,-1.75,544
545,1695830355303,-0.31933594,-0.96173096,0.07659912,0.546875,-1.359375,-3.25,545
546,1695830355343,-0.31347656,-1.0205688,0.020690918,-1.8125,-3.296875,-5.171875,546
547,1695830355383,-0.2253418,-1.0942993,0.015563965,-1.171875,-5.515625,-6.6875,547
548,1695830355423,-0.18603516,-1.0540161,0.066345215,-2.375,-4.109375,-2.40625,548
549,1695830355463,-0.18139648,-0.92974854,0.015808105,-4.484375,-4.0625,2.578125,549
550,1695830355503,-0.1586914,-0.8081665,-0.0635376,-4.421875,-8.28125,-0.859375,550
551,1695830355543,-0.079589844,-0.8440552,-0.04864502,2.25,-11.25,-4.1875,551
552,1695830355583,-0.068603516,-0.9902954,0.03363037,6.59375,-10.84375,-0.25,552
553,1695830355623,-0.15673828,-1.1033325,0.08538818,3.890625,-9.515625,4.78125,553
554,1695830355663,-0.21191406,-1.071106,0.043884277,0.015625,-8.8125,3.890625,554
555,1695830355703,-0.22827148,-1.052063,0.023132324,3.15625,-4.9375,-1.859375,555
556,1695830355743,-0.24658203,-1.0857544,0.055358887,0.921875,-1.453125,0.796875,556
557,1695830355783,-0.20703125,-0.9404907,0.038269043,-3.609375,-1.796875,1.8125,557
558,1695830355823,-0.17749023,-0.86187744,0.043640137,-5.015625,-1.359375,2.625,558
559,1695830355863,-0.1965332,-0.89727783,0.070495605,-0.609375,1.5625,3.875,559
560,1695830355903,-0.21728516,-0.94317627,0.093444824,3.640625,1.578125,2.125,560
561,1695830355943,-0.18310547,-0.944397,0.09881592,2.15625,-1.3125,1.6875,561
562,1695830355983,-0.2097168,-0.93218994,0.08685303,2.6875,2.59375,2.546875,562
563,1695830356023,-0.24560547,-0.9048462,0.086364746,1.734375,4.359375,0.71875,563
564,1695830356063,-0.22338867,-0.95562744,0.09881592,2.5,4.6875,-2.078125,564
565,1695830356103,-0.20043945,-1.0132446,0.10272217,1.484375,4.734375,-1.59375,565
566,1695830356143,-0.23144531,-1.0056763,0.11224365,-0.640625,4.78125,-2.828125,566
567,1695830356183,-0.30200195,-1.0098267,0.11395264,-2.578125,6.203125,-5.359375,567
568,1695830356223,-0.29956055,-1.1651001,0.09124756,-5.265625,11.703125,-5.21875,568
569,1695830356263,-0.19458008,-1.166565,0.07659912,-2.6875,12.40625,-4.640625,569
570,1695830356303,-0.11743164,-1.0708618,0.035339355,-5.703125,5.21875,0.046875,570
571,1695830356343,-0.08618164,-0.9590454,0.013366699,-4.765625,1.3125,3.015625,571
572,1695830356383,-0.1328125,-0.8911743,0.011657715,-2.25,-0.578125,-0.1875,572
573,1695830356423,-0.16479492,-0.866272,-0.02154541,1.25,1.359375,-1.53125,573
574,1695830356463,-0.15795898,-0.8765259,-0.10015869,-0.046875,0.203125,0.21875,574
575,1695830356503,-0.19091797,-0.9204712,-0.07940674,1.90625,3.015625,3.0625,575
576,1695830356543,-0.24291992,-1.0379028,-0.07476807,3.1875,7.4375,4.78125,576
577,1695830356583,-0.19384766,-1.0713501,-0.023742676,-0.328125,6.65625,3.5625,577
578,1695830356623,-0.15478516,-1.0286255,0.0211792,1.84375,0.5625,1.390625,578
579,1695830356663,-0.15356445,-0.9783325,0.070007324,1.96875,-0.71875,4.5,579
580,1695830356703,-0.21289062,-0.9265747,0.016784668,-2.234375,0.90625,6.609375,580
581,1695830356743,-0.24975586,-0.8740845,-0.013977051,2.28125,-0.109375,1.625,581
582,1695830356783,-0.23266602,-0.91778564,0.020446777,5.28125,0.21875,-2.875,582
583,1695830356823,-0.22387695,-0.9793091,0.058288574,0.859375,0.078125,-0.78125,583
584,1695830356863,-0.21704102,-0.9976196,0.06512451,-5.375,-3.75,0.765625,584
585,1695830356903,-0.20996094,-0.9378052,0.044128418,-5.28125,-5.546875,-1.796875,585
586,1695830356943,-0.23046875,-0.92388916,0.043151855,2.546875,-6.546875,-2.25,586
587,1695830356983,-0.2709961,-0.9907837,0.058044434,2.96875,-4.125,-2.1875,587
588,1695830357023,-0.26245117,-1.0022583,0.062683105,-1.84375,-3.09375,-0.796875,588
589,1695830357063,-0.23022461,-1.0010376,0.06463623,-4.46875,-1.890625,0.859375,589
590,1695830357103,-0.23510742,-0.956604,0.11029053,-3.75,-5.453125,2.390625,590
591,1695830357143,-0.26489258,-0.99298096,0.098083496,-4.546875,-7.84375,1.421875,591
592,1695830357183,-0.29516602,-1.0142212,0.070251465,-1.96875,-5.234375,-3.46875,592
593,1695830357223,-0.32250977,-1.0332642,-0.020324707,-0.390625,-4.5625,-10.0625,593
594,1695830357263,-0.26245117,-1.0291138,-0.018371582,3.328125,-1.984375,-13.765625,594
595,1695830357303,-0.18920898,-1.0320435,0.035339355,1.171875,-1.90625,-8.84375,595
596,1695830357343,-0.1303711,-0.95928955,-0.00982666,-6.671875,-5.3125,-3.75,596
597,1695830357383,-0.07324219,-0.833313,-0.08917236,-7.0625,-8.9375,-3.484375,597
598,1695830357423,-0.043945312,-0.8987427,-0.05255127,3.859375,-9.5625,-1.171875,598
599,1695830357463,-0.11279297,-1.0786743,0.058776855,11.09375,-8.1875,1.15625,599
600,1695830357503,-0.21508789,-1.0872192,0.062438965,1.421875,-4.96875,2.828125,600
601,1695830357543,-0.25195312,-1.0073853,-0.015686035,-3.890625,-5.46875,1.703125,601
602,1695830357583,-0.203125,-0.95928955,-0.010559082,-2.03125,-5.828125,3.125,602
603,1695830357623,-0.22729492,-0.97369385,0.06488037,1.4375,-4.375,4.96875,603
604,1695830357663,-0.25683594,-0.9639282,0.090026855,-2.546875,-1.015625,6.109375,604
605,1695830357703,-0.25024414,-0.91070557,0.06976318,-3.0,0.046875,2.5625,605
606,1695830357743,-0.25317383,-0.9053345,0.06561279,2.765625,0.328125,-0.796875,606
607,1695830357783,-0.2626953,-0.9356079,0.09539795,5.03125,3.640625,0.359375,607
608,1695830357823,-0.24243164,-0.93634033,0.10784912,1.875,3.890625,0.359375,608
609,1695830357863,-0.2368164,-0.93927,0.12030029,-1.625,5.96875,-2.609375,609
610,1695830357903,-0.23803711,-1.0144653,0.12640381,-1.25,7.609375,-3.625,610
611,1695830357943,-0.22167969,-1.0066528,0.12200928,-3.484375,7.359375,-6.15625,611
612,1695830357983,-0.26513672,-0.93634033,0.11956787,-1.171875,9.03125,-7.171875,612
613,1695830358023,-0.28710938,-0.9937134,0.06561279,0.734375,11.40625,-6.390625,613
614,1695830358063,-0.20898438,-1.0806274,0.053649902,-2.796875,12.96875,-4.421875,614
615,1695830358103,-0.19628906,-1.1826782,0.009216309,-8.875,6.09375,-0.46875,615
616,1695830358143,-0.16577148,-1.1235962,0.02557373,-11.53125,4.109375,5.609375,616
617,1695830358183,-0.1694336,-0.9053345,0.029724121,-5.140625,2.46875,3.765625,617
618,1695830358223,-0.19238281,-0.79644775,0.003112793,0.28125,3.546875,3.3125,618
619,1695830358263,-0.17041016,-0.82476807,-0.07305908,3.140625,6.359375,3.375,619
620,1695830358303,-0.20043945,-0.92437744,-0.09234619,6.734375,6.0625,3.8125,620
621,1695830358343,-0.22729492,-1.0352173,-0.02911377,7.046875,5.765625,5.203125,621
622,1695830358383,-0.21533203,-1.0484009,0.0038452148,2.890625,0.75,3.03125,622
623,1695830358423,-0.21826172,-1.0203247,0.051940918,3.46875,-0.21875,2.671875,623
624,1695830358463,-0.24267578,-0.9553833,0.044128418,3.296875,2.546875,3.59375,624
625,1695830358503,-0.24658203,-0.88067627,-0.0044555664,3.90625,3.265625,2.609375,625
626,1695830358543,-0.20117188,-0.92071533,0.0006713867,3.515625,0.09375,1.734375,626
627,1695830358583,-0.18920898,-1.0144653,0.04534912,-0.234375,-3.484375,2.90625,627
628,1695830358623,-0.22753906,-1.0261841,0.074157715,-4.34375,-4.625,3.5625,628
629,1695830358663,-0.2199707,-0.92681885,0.040222168,-4.5625,-5.0,1.734375,629
630,1695830358703,-0.22436523,-0.9212036,0.04119873,-3.09375,-7.625,-0.953125,630
631,1695830358743,-0.24145508,-0.9793091,0.0692749,-2.578125,-8.15625,-2.265625,631
632,1695830358783,-0.27490234,-0.9883423,0.062438965,-4.890625,-7.765625,-1.8125,632
633,1695830358823,-0.24316406,-0.9734497,0.049987793,-4.578125,-6.421875,-0.828125,633
634,1695830358863,-0.23632812,-0.97735596,0.0680542,-3.609375,-7.078125,0.9375,634
635,1695830358903,-0.2590332,-0.97442627,0.08001709,-6.015625,-10.09375,1.5625,635
636,1695830358943,-0.2932129,-0.9602661,0.09124756,-3.8125,-8.796875,-0.375,636
637,1695830358983,-0.30419922,-0.9702759,0.041931152,-1.9375,-10.3125,-3.578125,637
638,1695830359023,-0.2734375,-1.0151978,0.030700684,1.046875,-7.890625,-7.59375,638
639,1695830359063,-0.23388672,-1.0310669,0.03265381,-1.53125,-7.75,-6.671875,639
640,1695830359103,-0.21655273,-1.0288696,0.04095459,-0.84375,-6.25,-5.484375,640
641,1695830359143,-0.18164062,-0.97003174,0.020690918,-2.640625,-5.75,-3.9375,641
642,1695830359183,-0.1262207,-0.8897095,-0.03643799,-2.25,-8.265625,-3.15625,642
643,1695830359223,-0.064941406,-0.87872314,-0.034484863,2.109375,-9.8125,-2.140625,643
644,1695830359263,-0.095214844,-0.97857666,0.038757324,3.578125,-10.453125,1.375,644
645,1695830359303,-0.18847656,-1.0962524,0.07366943,-1.6875,-10.21875,2.703125,645
646,1695830359343,-0.27368164,-1.0779419,0.061462402,-2.71875,-6.5,-1.65625,646
647,1695830359383,-0.26635742,-0.99713135,0.039489746,-0.59375,-2.53125,-3.09375,647
648,1695830359423,-0.23339844,-0.9871216,0.055358887,-1.515625,-1.359375,0.09375,648
649,1695830359463,-0.234375,-0.9011841,0.06854248,-1.78125,0.09375,3.4375,649
650,1695830359503,-0.22290039,-0.8789673,0.07293701,-1.5625,-0.296875,4.703125,650
651,1695830359543,-0.24023438,-0.9390259,0.090270996,0.515625,1.375,4.84375,651
652,1695830359583,-0.25585938,-0.9651489,0.11175537,2.546875,1.734375,1.703125,652
653,1695830359623,-0.23999023,-0.9248657,0.12176514,1.71875,2.25,2.046875,653
654,1695830359663,-0.21826172,-0.88482666,0.12762451,2.34375,1.21875,3.984375,654
655,1695830359703,-0.24023438,-0.9151001,0.12786865,2.296875,-1.296875,2.34375,655
656,1695830359743,-0.24511719,-0.99224854,0.1239624,3.078125,-0.328125,-0.515625,656
657,1695830359783,-0.24584961,-1.0093384,0.11810303,2.9375,1.046875,-2.328125,657
658,1695830359823,-0.2878418,-0.9690552,0.120788574,0.828125,4.15625,-4.203125,658
659,1695830359863,-0.30322266,-0.94976807,0.13421631,-0.125,8.265625,-5.0,659
660,1695830359903,-0.30249023,-1.0696411,0.0927124,-3.828125,9.734375,-4.46875,660
661,1695830359943,-0.1640625,-1.1848755,0.08392334,-7.046875,6.78125,-1.6875,661
662,1695830359983,-0.13574219,-1.12677,0.058776855,-4.65625,2.203125,0.859375,662
663,1695830360023,-0.16113281,-1.003479,0.09075928,-5.203125,-1.453125,4.03125,663
664,1695830360063,-0.20678711,-0.88531494,0.043151855,-4.5625,-2.125,-1.3125,664
665,1695830360103,-0.23266602,-0.8635864,-0.012023926,-0.578125,-1.359375,-3.0,665
666,1695830360143,-0.17529297,-0.894104,-0.07940674,2.421875,2.0,-3.046875,666
667,1695830360183,-0.18139648,-0.9902954,-0.08111572,6.515625,4.34375,-0.109375,667
668,1695830360223,-0.19335938,-1.0232544,-0.04449463,2.765625,7.34375,2.671875,668
669,1695830360263,-0.15893555,-0.98931885,-0.025939941,-2.75,4.0,3.328125,669
670,1695830360303,-0.16625977,-0.9883423,0.0021362305,-1.25,-5.03125,4.609375,670
671,1695830360343,-0.24804688,-0.97125244,0.04071045,5.640625,-4.59375,6.5625,671
672,1695830360383,-0.2824707,-0.91485596,0.014099121,4.359375,0.9375,2.375,672
673,1695830360423,-0.27270508,-0.9170532,-0.034973145,4.75,4.234375,-3.0625,673
674,1695830360463,-0.22924805,-0.925354,-0.0037231445,6.8125,3.140625,-0.84375,674
675,1695830360503,-0.21948242,-0.9636841,0.0368042,2.390625,2.453125,3.515625,675
676,1695830360543,-0.24829102,-0.99713135,0.04827881,-2.796875,2.71875,4.25,676
677,1695830360583,-0.24316406,-0.9338989,0.011169434,-0.625,1.953125,2.140625,677
678,1695830360623,-0.22363281,-0.928772,-0.00030517578,2.0,-1.65625,1.734375,678
679,1695830360663,-0.21801758,-0.9783325,0.018249512,0.515625,-4.421875,3.03125,679
680,1695830360703,-0.25024414,-1.0083618,0.035339355,-3.796875,-4.578125,1.46875,680
681,1695830360743,-0.25341797,-0.99420166,0.051940918,-3.46875,-2.640625,0.796875,681
682,1695830360783,-0.24658203,-0.9714966,0.06439209,-5.09375,-2.78125,1.625,682
683,1695830360823,-0.24267578,-0.9680786,0.05316162,-7.921875,-7.453125,0.5625,683
684,1695830360863,-0.26782227,-0.96881104,0.06903076,-1.9375,-7.6875,-0.40625,684
685,1695830360903,-0.2919922,-1.003479,0.03704834,1.109375,-6.953125,-1.96875,685
686,1695830360943,-0.2956543,-1.0376587,-0.006652832,0.375,-4.53125,-5.140625,686
687,1695830360983,-0.24829102,-1.0505981,-0.0064086914,0.96875,-2.890625,-6.078125,687
688,1695830361023,-0.20166016,-0.99420166,0.0211792,0.03125,-0.484375,-4.4375,688
689,1695830361063,-0.17773438,-0.96173096,-0.0256958,-3.296875,-0.75,-4.359375,689
690,1695830361103,-0.1027832,-0.8821411,-0.049621582,-1.375,-1.96875,-4.515625,690
691,1695830361143,-0.051757812,-0.87579346,-0.022521973,5.1875,-2.65625,-2.0,691
692,1695830361183,-0.0793457,-0.9805298,0.010925293,6.203125,-3.65625,1.9375,692
693,1695830361223,-0.17333984,-1.0535278,0.028503418,4.1875,-4.40625,3.609375,693
694,1695830361263,-0.24169922,-1.053772,0.011413574,-1.359375,-0.25,0.234375,694
695,1695830361303,-0.20922852,-1.0254517,0.0033569336,-1.3125,-0.484375,-2.28125,695
696,1695830361343,-0.17480469,-1.0178833,0.0368042,-4.25,0.4375,1.40625,696
697,1695830361383,-0.1965332,-0.944397,0.06585693,-5.984375,-2.0625,2.953125,697
698,1695830361423,-0.2265625,-0.89923096,0.06707764,-5.65625,-2.375,2.171875,698
699,1695830361463,-0.24584961,-0.94415283,0.07757568,-0.390625,-0.890625,-0.21875,699
700,1695830361503,-0.23999023,-0.9668579,0.07904053,1.4375,0.140625,-2.171875,700
701,1695830361543,-0.2109375,-0.95196533,0.09661865,0.515625,1.75,0.15625,701
702,1695830361583,-0.21533203,-0.9390259,0.09588623,-0.328125,2.1875,1.390625,702
703,1695830361623,-0.24511719,-0.9661255,0.11004639,-0.34375,3.671875,-1.28125,703
704,1695830361663,-0.23413086,-0.991272,0.12689209,0.375,5.296875,-2.59375,704
705,1695830361703,-0.23266602,-0.93536377,0.105895996,0.359375,7.265625,-2.375,705
706,1695830361743,-0.24121094,-0.9338989,0.09881592,-2.9375,8.171875,-3.328125,706
707,1695830361783,-0.25512695,-1.0869751,0.07513428,-4.21875,5.9375,-3.453125,707
708,1695830361823,-0.1821289,-1.1172485,0.10443115,-5.421875,6.953125,-0.78125,708
709,1695830361863,-0.16308594,-1.0530396,0.070495605,-5.5625,3.09375,1.296875,709
710,1695830361903,-0.16210938,-0.9949341,0.06097412,-4.0625,1.984375,3.765625,710
711,1695830361943,-0.1743164,-0.94976807,0.054870605,-3.125,0.125,0.3125,711
712,1695830361983,-0.203125,-0.9456177,0.059020996,-3.484375,2.359375,-1.015625,712
713,1695830362023,-0.16601562,-0.91778564,0.011657715,-4.953125,2.796875,0.8125,713
714,1695830362063,-0.15405273,-0.8970337,-0.03302002,-2.84375,-0.265625,1.671875,714
715,1695830362103,-0.1821289,-0.9277954,-0.031799316,-0.203125,3.03125,2.734375,715
716,1695830362143,-0.23388672,-0.99957275,-0.028869629,2.796875,6.34375,4.703125,716
717,1695830362183,-0.22705078,-1.0437622,0.005554199,1.140625,7.25,5.03125,717
718,1695830362223,-0.2319336,-0.97613525,0.036315918,1.65625,3.0625,2.90625,718
719,1695830362263,-0.22192383,-0.989563,0.055847168,3.96875,2.34375,3.796875,719
720,1695830362303,-0.20605469,-0.9541626,0.089782715,8.421875,5.84375,5.640625,720
721,1695830362343,-0.22241211,-0.9314575,0.05316162,6.328125,6.015625,3.015625,721
722,1695830362383,-0.17138672,-0.9470825,0.01361084,7.84375,3.296875,2.890625,722
723,1695830362423,-0.16088867,-0.97052,0.049743652,7.5625,1.34375,4.453125,723
724,1695830362463,-0.20898438,-1.0215454,0.081726074,1.453125,-1.53125,4.25,724
725,1695830362503,-0.24633789,-0.9380493,0.058288574,-0.890625,-3.046875,1.03125,725
726,1695830362543,-0.21972656,-0.8826294,0.024841309,0.03125,-3.0,-0.015625,726
727,1695830362583,-0.22973633,-0.98028564,0.035827637,1.546875,-6.671875,0.125,727
728,1695830362623,-0.23291016,-1.06427,0.06976318,-1.75,-4.640625,-1.28125,728
729,1695830362663,-0.22631836,-0.99591064,0.066833496,-6.703125,-2.625,-0.21875,729
730,1695830362703,-0.21606445,-0.9492798,0.050964355,-7.484375,-4.609375,0.140625,730
731,1695830362743,-0.22167969,-0.9800415,0.093933105,-1.625,-5.78125,-0.3125,731
732,1695830362783,-0.234375,-0.99713135,0.061706543,-1.984375,-5.96875,-2.796875,732
733,1695830362823,-0.21850586,-0.960022,0.016540527,-2.234375,-5.46875,-7.046875,733
734,1695830362863,-0.20410156,-0.97076416,-0.009094238,-1.140625,-5.140625,-8.3125,734
735,1695830362903,-0.18945312,-1.0271606,-0.003479004,-1.09375,-3.5,-7.765625,735
736,1695830362943,-0.20385742,-1.1045532,0.012390137,-3.890625,-5.015625,-6.34375,736
737,1695830362983,-0.1352539,-1.0652466,0.008239746,-5.71875,-5.5625,-5.015625,737
738,1695830363023,-0.06762695,-0.9338989,-0.01739502,-3.359375,-8.515625,-3.125,738
739,1695830363063,-0.07763672,-0.8838501,0.013122559,0.34375,-10.171875,-1.4375,739
740,1695830363103,-0.15136719,-0.9463501,0.04901123,-3.890625,-10.890625,-1.671875,740
741,1695830363143,-0.24365234,-1.079895,0.12664795,-6.21875,-5.3125,-4.265625,741
742,1695830363183,-0.25830078,-1.1199341,0.11883545,-4.953125,-0.515625,-2.578125,742
743,1695830363223,-0.16235352,-0.9692993,0.07879639,-5.21875,0.25,2.671875,743
744,1695830363263,-0.13623047,-0.86798096,0.078063965,-2.28125,-0.359375,7.703125,744
745,1695830363303,-0.16699219,-0.8543091,0.10247803,-0.6875,1.3125,8.109375,745
746,1695830363343,-0.17138672,-0.92803955,0.094177246,2.046875,-0.046875,3.65625,746
747,1695830363383,-0.17675781,-1.0105591,0.13201904,1.625,-1.515625,0.328125,747
748,1695830363423,-0.21069336,-0.9873657,0.1630249,2.125,0.90625,1.234375,748
749,1695830363463,-0.21289062,-0.9104614,0.13079834,3.546875,1.078125,1.890625,749
750,1695830363503,-0.2199707,-0.89923096,0.113464355,2.765625,1.484375,1.21875,750
751,1695830363543,-0.19702148,-0.9636841,0.13201904,2.578125,4.03125,-0.5,751
752,1695830363583,-0.19677734,-1.0120239,0.14569092,0.5,2.0625,-1.40625,752
753,1695830363623,-0.21386719,-0.9812622,0.13763428,0.171875,1.1875,-1.203125,753
754,1695830363663,-0.25024414,-0.96173096,0.15423584,1.96875,1.265625,-2.9375,754
755,1695830363703,-0.29858398,-0.98638916,0.152771,1.828125,3.078125,-5.234375,755
756,1695830363743,-0.2434082,-1.0650024,0.1552124,-0.875,4.71875,-5.484375,756
757,1695830363783,-0.16992188,-1.0274048,0.13665771,-0.1875,5.203125,-0.828125,757
758,1695830363823,-0.14819336,-1.017395,0.10638428,-3.34375,0.25,4.484375,758
759,1695830363863,-0.17871094,-0.98394775,0.113464355,-3.6875,-0.171875,3.078125,759
