,timestamp,accel_x,accel_y,accel_z,gyro_x,gyro_y,gyro_z
0,1697605965,-0.14086914,-0.9902954,0.042419434,-3.765625,6.25,-2.484375
1,1697606005,-0.099609375,-0.99102783,0.036071777,-4.84375,4.9375,-2.140625
2,1697606045,-0.16357422,-1.0322876,0.022155762,-1.703125,1.984375,-3.859375
3,1697606085,-0.1472167999999999,-1.0115356,0.0617065429999999,2.046875,7.328125,-3.140625
4,1697606125,-0.17236328,-1.0391235,0.04119873,5.578125,13.078125,-1.21875
5,1697606165,-0.13793945,-1.0012816999999998,0.05706787,0.59375,-0.21875,-0.09375
6,1697606205,-0.16918945,-1.0440063,0.03363037,-3.5,0.53125,-1.125
7,1697606245,-0.16040039,-0.98565674,0.042907715,-4.609375,-0.375,-1.09375
8,1697606285,-0.11010742,-0.9741821,0.0680542,-5.890625,-6.9375,-1.890625
9,1697606325,-0.20703125,-1.0095825,0.059020996,-1.109375,-7.828125,-1.15625
10,1697606365,-0.14794922,-0.99346924,0.043640137,-0.59375,-3.8125,0.328125
11,1697606405,-0.18017578,-0.9927368,0.062683105,7.015625,-3.984375,1.671875
12,1697606445,-0.11669922,-0.9356079,-0.0225219729999999,2.109375,-10.5625,0.1875
13,1697606485,-0.12451172,-0.9248657,-0.0474243159999999,2.125,-9.359375,3.859375
14,1697606525,-0.15991211,-0.92755127,0.020690918,7.828125,-2.96875,5.828125
15,1697606565,-0.17504883,-1.097229,0.1071167,10.390625,-0.6875,4.890625
16,1697606605,-0.096191406,-1.0454712,0.028503418,10.484375,10.546875,0.1875
17,1697606645,-0.19677734,-1.1004028,0.06439209,9.90625,9.53125,2.625
18,1697606685,-0.12231445,-0.94781494,0.024597168,1.75,9.328125,1.078125
19,1697606725,-0.15991211,-0.9981079,0.03704834,1.171875,1.921875,-1.84375
20,1697606765,-0.12915039,-1.0308228000000002,0.043640137,-6.0,1.796875,-2.09375
21,1697606805,-0.15673828,-0.9985962,0.015563965,-3.296875,4.21875,-2.890625
22,1697606845,-0.1315917999999999,-1.0447388000000002,-0.0068969727,3.765625,11.28125,-2.1875
23,1697606885,-0.1574707,-0.99713135,0.06488037,5.625,1.078125,-1.28125
24,1697606925,-0.15771484,-1.0071411,0.022155762,0.78125,-0.078125,-1.046875
25,1697606965,-0.14916992,-1.005188,0.015808105,-4.109375,-2.78125,-0.921875
26,1697607005,-0.1665039,-0.9663696,0.00018310547,-6.390625,-4.140625,-1.828125
27,1697607045,-0.15234375,-1.0462036,0.07879639,-4.3125,-0.3125,-0.171875
28,1697607085,-0.15649414,-0.973938,0.018493652,-7.78125,-8.578125,0.3125
29,1697607125,-0.11279297,-0.98394775,0.020935059,-7.984375,-12.15625,-1.34375
30,1697607165,-0.18115234,-0.9717407,0.050720215,-5.78125,-8.421875,-0.015625
31,1697607205,-0.13745117,-0.9956665,0.002380371,7.046875,-10.46875,1.96875
32,1697607245,-0.10424805,-0.89801025,-0.023986816,0.0625,-14.453125,2.53125
33,1697607285,-0.110839844,-0.9116821,0.047302246,0.03125,-5.90625,5.0
34,1697607325,-0.22460938,-1.1030884,0.0538940429999999,4.09375,-3.921875,3.34375
35,1697607365,-0.103515625,-1.0108032,0.01751709,3.375,3.828125,1.609375
36,1697607405,-0.17480469,-1.0496216,0.0602416999999999,7.75,5.859375,1.796875
37,1697607445,-0.13696289,-1.0171509,0.028259277,7.0625,10.953125,0.84375
38,1697607485,-0.15307617,-0.986145,0.047790527,5.546875,8.75,0.71875
39,1697607525,-0.14941406,-1.0432739,0.047058105,-1.46875,6.796875,-1.40625
40,1697607565,-0.13012695,-0.99542236,0.009460449,-4.5,4.6875,-3.4375
41,1697607605,-0.12792969,-1.0205688,0.018737793,2.71875,8.671875,-3.15625
42,1697607645,-0.18310547,-1.0352173,0.049743652,2.1875,3.9375,-1.9375
43,1697607685,-0.09082031,-0.9990845,0.051208496,-5.390625,-1.828125,-3.15625
44,1697607725,-0.2211913999999999,-1.0310669,0.015563965,-3.0,-1.640625,-0.765625
45,1697607765,-0.17456055,-0.97662354,0.012634277,-1.234375,3.703125,0.6875
46,1697607805,-0.119140625,-0.95928955,0.05999756,-4.25,-6.171875,-1.1875
47,1697607845,-0.16796875,-0.99957275,0.03338623,-7.046875,-10.515625,-0.296875
48,1697607885,-0.14331055,-0.99884033,0.06781006,0.25,-5.765625,-0.578125
49,1697607925,-0.13378906,-0.95928955,0.015319824,-9.5,-9.890625,-1.671875
50,1697607965,-0.17578125,-1.0137329,0.028747559,7.359375,-10.53125,0.078125
51,1697608005,-0.1340332,-0.9446411,0.008239746,4.703125,-8.578125,2.84375
52,1697608045,-0.12133789,-0.9031372,-0.00592041,-2.625,-11.71875,3.296875
53,1697608085,-0.1850586,-1.0527954,0.0524291999999999,0.109375,-3.8125,1.828125
54,1697608125,-0.14477539,-1.0498657,0.045837402,-0.09375,1.28125,-0.125
55,1697608165,-0.16015625,-1.0403441999999998,0.07562256,0.578125,4.109375,0.328125
56,1697608205,-0.19189453,-0.9937134,0.09906006,0.15625,2.859375,1.625
57,1697608245,-0.14135742,-1.0256958,0.07196045,-1.234375,6.359375,-2.109375
58,1697608285,-0.16430664,-1.0388794,0.07147217,-2.265625,4.859375,-0.984375
59,1697608325,-0.13842773,-1.0003052,0.06341553,-0.59375,3.34375,-2.6875
60,1697608365,-0.14453125,-1.0300903,0.085632324,0.8125,10.03125,-1.046875
61,1697608405,-0.18652344,-1.0288696,0.08099365,2.875,7.078125,-2.203125
62,1697608445,-0.16064453,-0.9927368,0.10028076,0.515625,1.875,-0.265625
63,1697608485,-0.15429688,-0.9890747,0.07489014,0.03125,-1.328125,-0.390625
64,1697608525,-0.19238281,-1.0132446,0.06072998,-4.875,-1.921875,-1.125
65,1697608565,-0.16455078,-0.99224854,0.0836792,-0.921875,-0.5,1.28125
66,1697608605,-0.07519531,-0.9973755,0.09661865,-3.0,-5.265625,0.46875
67,1697608645,-0.20678711,-0.975647,0.03387451,1.828125,-8.09375,1.3125
68,1697608685,-0.12939453,-0.99102783,0.07269287,5.953125,-2.5625,1.609375
69,1697608725,-0.1484375,-0.94659424,0.022399902,0.8125,-11.546875,0.65625
70,1697608765,-0.13696289,-0.8855591,-0.01739502,-5.875,-19.359375,2.0625
71,1697608805,-0.16772461,-1.0288696,0.10614014,12.203125,-0.265625,5.5
72,1697608845,-0.08862305,-1.0903931,0.074401855,8.890625,5.015625,2.46875
73,1697608885,-0.19995117,-1.0025024,0.04852295,2.75,5.921875,0.921875
74,1697608925,-0.15136719,-1.0169066999999998,0.093688965,2.3125,7.203125,0.125
75,1697608965,-0.14550781,-1.0134888000000002,0.041931152,-0.828125,5.140625,-0.4375
76,1697609005,-0.13867188,-1.0007935,0.050231934,-1.09375,5.09375,-1.59375
77,1697609045,-0.11010742,-1.019104,0.04071045,-1.796875,3.828125,-3.65625
78,1697609085,-0.15551758,-1.0254517,0.039001465,-0.140625,7.40625,-2.390625
79,1697609125,-0.19750977,-1.0278931,0.08734131,0.734375,10.75,-1.625
80,1697609165,-0.123535156,-0.96221924,0.0597534179999999,-3.359375,-2.125,-1.375
81,1697609205,-0.16699219,-1.0127563,0.07293701,-0.09375,0.515625,-0.96875
82,1697609245,-0.1508789,-1.0134888000000002,0.08514404,-8.0,-1.21875,-2.9375
83,1697609285,-0.16699219,-0.9807739,0.09564209,-4.140625,1.515625,0.234375
84,1697609325,-0.17456055,-0.99957275,0.027038574,-4.375,-5.59375,-1.734375
85,1697609365,-0.12524414,-1.006897,0.10296631,-2.34375,-6.5625,-1.15625
86,1697609405,-0.21191406,-0.9734497,0.08807373,3.75,-7.28125,0.953125
87,1697609445,-0.13916016,-0.95269775,0.027038574,2.609375,-8.953125,1.65625
88,1697609485,-0.10668945,-0.8882445999999999,-0.037902832,9.109375,-10.03125,6.828125
89,1697609525,-0.1027831999999999,-1.0879517,0.054870605,19.265625,3.328125,4.734375
90,1697609565,-0.17236328,-1.0181274,0.06561279,5.125,4.78125,3.265625
91,1697609605,-0.18188477,-1.0183716,0.05657959,2.109375,7.15625,-0.34375
92,1697609645,-0.13378906,-1.034729,0.015563965,-2.03125,2.859375,0.328125
93,1697609685,-0.14746094,-0.99786377,0.018737793,-2.21875,4.15625,-0.375
94,1697609725,-0.10522461,-1.0449829,0.04876709,0.546875,5.25,-2.328125
95,1697609765,-0.12402344,-1.0059204,0.020446777,-3.234375,1.234375,-1.921875
96,1697609805,-0.16308594,-1.0015259,0.0119018555,-1.6875,4.328125,-4.15625
97,1697609845,-0.19262695,-1.0540161,0.10662842,6.09375,13.1875,-0.078125
98,1697609885,-0.16259766,-1.000061,0.051452637,1.6875,2.875,1.734375
99,1697609925,-0.11352539,-0.99224854,0.026306152,-1.34375,-1.78125,-1.296875
100,1697609965,-0.15112305,-0.9998169,0.0617065429999999,-5.296875,-1.515625,-1.859375
101,1697610005,-0.19799805,-0.9956665,0.07196045,-4.875,-1.875,0.796875
102,1697610045,-0.12768555,-1.015686,0.062683105,-6.28125,-4.53125,-1.0
103,1697610085,-0.14990234,-0.96051025,0.041931152,-6.828125,-6.109375,-0.59375
104,1697610125,-0.15722656,-0.98809814,0.051696777,3.265625,-7.671875,-0.125
105,1697610165,-0.1340332,-0.96881104,-0.0020141601999999,-1.25,-8.734375,1.546875
106,1697610205,-0.16064453,-0.8904419,0.04510498,7.40625,-9.90625,1.75
107,1697610245,-0.14135742,-0.9656372,-0.0015258789,8.28125,-7.40625,4.75
108,1697610285,-0.12792969,-1.0691528,0.05999756,6.390625,6.03125,2.515625
109,1697610325,-0.1484375,-1.003479,0.03656006,1.125,2.4375,1.828125
110,1697610365,-0.1586914,-1.0256958,0.029968262,-2.125,2.015625,-0.171875
111,1697610405,-0.13964844,-1.0164185,0.05706787,-1.203125,6.140625,-0.90625
112,1697610445,-0.115234375,-0.9937134,0.047302246,-1.671875,5.078125,-1.09375
113,1697610485,-0.1665039,-1.017395,0.06048584,-1.5625,4.421875,-3.046875
114,1697610525,-0.14453125,-1.0198364,0.0578002929999999,0.546875,6.421875,-2.75
115,1697610565,-0.1538086,-0.9976196,0.0597534179999999,5.671875,9.984375,-0.1875
116,1697610605,-0.1508789,-1.0293579,0.08050537,1.703125,4.171875,-2.046875
117,1697610645,-0.087890625,-1.0117798,0.01751709,-14.65625,-10.71875,-5.25
118,1697610685,-0.21435547,-1.013977,0.1137084959999999,-0.921875,-7.421875,-2.59375
119,1697610725,-0.16552734,-0.98443604,0.0617065429999999,-1.234375,-2.171875,-0.75
120,1697610765,-0.17456055,-0.95806885,0.06365967,-4.4375,-5.578125,-2.609375
121,1697610805,-0.16894531,-1.010315,0.07220459,-6.546875,-11.609375,-2.265625
122,1697610845,-0.16113281,-1.0122681,0.05657959,2.59375,-3.25,-1.09375
123,1697610885,-0.1784667999999999,-0.9717407,0.03387451,4.484375,-3.59375,1.421875
124,1697610925,-0.17260742,-0.942688,-0.0303344729999999,2.421875,-10.609375,0.296875
125,1697610965,-0.123046875,-0.91290283,0.024841309,11.140625,1.8125,7.0
126,1697611005,-0.18457031,-1.0706177,0.07928467,12.734375,6.109375,3.21875
127,1697611045,-0.16137695,-1.0144653,0.0421752929999999,4.15625,3.578125,1.96875
128,1697611085,-0.12451172,-1.0134888000000002,0.0324096679999999,-0.671875,5.09375,1.703125
129,1697611125,-0.15844727,-1.0090941999999998,0.022399902,0.375,6.03125,-0.828125
130,1697611165,-0.1496582,-0.9780884,0.05731201,-0.09375,3.5,0.734375
131,1697611205,-0.1472167999999999,-1.02594,0.05340576,-1.53125,3.484375,-1.1875
132,1697611245,-0.18432617,-1.0071411,0.039489746,-2.265625,2.921875,-2.609375
133,1697611285,-0.1706542999999999,-1.0061646,0.04827881,0.0625,6.328125,-4.171875
134,1697611325,-0.16821289,-1.0244751,0.023864746,-1.484375,4.984375,-3.140625
135,1697611365,-0.14990234,-1.0100708,0.0460815429999999,1.96875,0.078125,-3.75
136,1697611405,-0.15966797,-1.0054321,0.08514404,-5.515625,0.734375,-2.21875
137,1697611445,-0.21728516,-0.956604,0.08123779,-5.015625,-5.265625,-1.171875
138,1697611485,-0.17822266,-1.0061646,0.070495605,-0.046875,-6.21875,0.5
139,1697611525,-0.17675781,-1.0283813,0.07269287,-10.265625,-4.8125,-1.1875
140,1697611565,-0.19165039,-0.9146118,0.03338623,-11.078125,-9.703125,-1.0625
141,1697611605,-0.16992188,-1.0239868,0.09246826,1.140625,-4.109375,0.4375
142,1697611645,-0.18115234,-0.96099854,0.023376465,-1.390625,-7.046875,0.46875
143,1697611685,-0.16235352,-0.9678345,0.0289917,11.671875,-1.484375,1.28125
144,1697611725,-0.17333984,-0.91607666,0.026794434,1.4375,-3.34375,3.265625
145,1697611765,-0.19091797,-1.062561,0.073913574,11.75,3.15625,4.328125
146,1697611805,-0.20532227,-1.0383911,0.05609131,8.28125,4.484375,3.34375
147,1697611845,-0.14257812,-1.0007935,0.05218506,5.046875,7.625,-0.046875
148,1697611885,-0.2043457,-1.034729,0.059509277,1.9375,5.28125,0.640625
149,1697611925,-0.11425781,-0.9590454,0.054626465,0.25,4.546875,1.3125
150,1697611965,-0.18554688,-1.0310669,0.07879639,0.65625,1.671875,-0.03125
151,1697612005,-0.17553711,-1.0117798,0.042663574,-0.75,2.8125,-2.703125
152,1697612045,-0.14208984,-0.95684814,0.031677246,1.53125,6.78125,-2.09375
153,1697612085,-0.17114258,-1.0474243,0.039245605,2.34375,6.96875,-2.40625
154,1697612125,-0.19702148,-1.0215454,0.10614014,-4.796875,2.578125,-0.75
155,1697612165,-0.16772461,-1.0471802,0.016784668,-11.59375,-2.84375,-3.125
156,1697612205,-0.16210938,-0.92510986,0.020446777,1.625,4.65625,-1.484375
157,1697612245,-0.12988281,-1.0115356,0.055358887,-5.3125,-4.625,0.015625
158,1697612285,-0.22094727,-0.97784424,0.0902709959999999,-12.3125,-9.828125,0.6875
159,1697612325,-0.18408203,-1.0217896,0.09295654,-7.703125,-8.96875,-0.890625
160,1697612365,-0.10107422,-0.97247314,0.07977295,-2.328125,-5.140625,1.421875
161,1697612405,-0.22558594,-0.9793091,0.09613037,-5.46875,-3.8125,0.734375
162,1697612445,-0.23779297,-1.0454712,0.10076904,6.796875,-17.5,0.078125
163,1697612485,-0.11376953,-0.8740844999999999,0.001159668,6.046875,-14.78125,2.921875
164,1697612525,-0.171875,-0.95196533,0.12371826,8.78125,-6.609375,5.125
165,1697612565,-0.21459961,-1.0422974,0.0382690429999999,9.265625,3.8125,5.9375
166,1697612605,-0.15625,-1.0286255,0.13201904,2.4375,7.84375,-0.34375
167,1697612645,-0.17480469,-1.024231,0.09564209,3.78125,3.765625,2.15625
168,1697612685,-0.15991211,-0.9949341,0.058532715,2.921875,4.90625,1.53125
169,1697612725,-0.13061523,-0.9871216,0.06854248,1.140625,3.859375,-0.90625
170,1697612765,-0.18432617,-1.0159302,0.05609131,-0.203125,4.390625,-1.203125
171,1697612805,-0.1809082,-1.017395,0.04925537,3.046875,10.484375,-2.84375
172,1697612845,-0.15356445,-0.9758911,0.057556152,5.171875,8.890625,-0.671875
173,1697612885,-0.15136719,-1.0108032,0.073913574,0.046875,2.96875,-1.765625
174,1697612925,-0.20922852,-1.0613403,0.1215209959999999,-8.21875,7.75,-0.6875
175,1697612965,-0.16552734,-0.9319458,-0.0056762694999999,-7.796875,-3.390625,-2.578125
176,1697613005,-0.12695312,-0.96295166,0.101257324,-8.703125,-2.203125,-3.21875
177,1697613045,-0.18383789,-1.0234985,0.10736084,-10.890625,-5.078125,0.140625
178,1697613085,-0.1694336,-0.98443604,0.12030029,-11.53125,-12.828125,-1.453125
179,1697613125,-0.16967773,-1.0459595,0.13909912,-1.609375,-7.0,1.859375
180,1697613165,-0.22290039,-0.95758057,0.11468506,-2.90625,-6.75,0.875
181,1697613205,-0.17773438,-1.0105591,0.08416748,11.6875,-21.421875,2.015625
182,1697613245,-0.067871094,-0.8760376,-0.0230102539999999,17.09375,-12.4375,5.375
183,1697613285,-0.21386719,-1.0691528,0.018249512,26.796875,7.28125,8.46875
184,1697613325,-0.18408203,-1.0234985,0.12591553,9.578125,6.609375,3.640625
185,1697613365,-0.12915039,-1.0396118,0.05706787,4.203125,7.390625,2.09375
186,1697613405,-0.18725586,-1.0032349,0.015808105,0.0,1.984375,1.78125
187,1697613445,-0.12158203,-0.9841919,0.054382324,3.0625,5.171875,-0.453125
188,1697613485,-0.13061523,-1.0332642,0.05633545,1.328125,2.234375,-0.484375
189,1697613525,-0.14282227,-0.99420166,-0.012268066,-1.5625,2.40625,-3.0625
190,1697613565,-0.14819336,-1.0044556,0.022644043,3.59375,9.9375,-2.140625
191,1697613605,-0.19628906,-1.031311,0.06829834,5.640625,9.625,-1.828125
192,1697613645,-0.1616211,-1.0042114,0.07269287,-2.484375,1.171875,0.484375
193,1697613685,-0.1472167999999999,-0.9673462,0.0045776367,-6.375,-4.140625,-0.671875
194,1697613725,-0.12158203,-1.0142212,0.058044434,-11.078125,-1.234375,-3.859375
195,1697613765,-0.2644043,-1.0430298,0.07757568,-17.265625,-4.21875,0.078125
196,1697613805,-0.10961914,-0.9390259,0.12005615,-14.53125,-13.78125,-2.84375
197,1697613845,-0.10205078,-1.0567017,0.05340576,-4.25,-9.0,1.71875
198,1697613885,-0.22680664,-0.96343994,0.1083374,-10.0625,-5.9375,-0.359375
199,1697613925,-0.16430664,-0.9907837,0.10491943,-2.046875,-3.9375,0.921875
200,1697613965,-0.14038086,-1.0164185,0.042663574,15.78125,-19.125,1.859375
201,1697614005,-0.1081543,-0.8977661,-0.0076293944999999,13.515625,-8.375,4.71875
202,1697614045,-0.24121094,-1.0310669,0.14569092,9.03125,6.625,5.15625
203,1697614085,-0.1899414,-0.97125244,0.11859131,6.65625,3.3125,2.15625
204,1697614125,-0.1484375,-1.0359497,0.10076904,7.390625,8.125,1.359375
205,1697614165,-0.1352539,-1.0056763000000002,0.04071045,1.953125,6.03125,1.515625
206,1697614205,-0.17041016,-0.97442627,0.054138184,1.328125,3.578125,-0.46875
207,1697614245,-0.1232910159999999,-1.0046997,0.07684326,1.390625,2.8125,-2.234375
208,1697614285,-0.15258789,-1.0249634,0.08001709,1.03125,4.1875,-0.921875
209,1697614325,-0.1628417999999999,-0.9981079,0.05291748,0.65625,8.640625,-1.0
210,1697614365,-0.18579102,-1.0181274,0.081726074,4.90625,9.75,-0.234375
211,1697614405,-0.15258789,-0.9939575,0.06903076,-4.3125,-6.65625,-0.40625
212,1697614445,-0.118652344,-1.0193481,0.07879639,-1.328125,4.78125,-0.609375
213,1697614485,-0.21850586,-1.0005493,0.0824584959999999,-7.953125,1.03125,-1.59375
214,1697614525,-0.11694336,-0.98321533,0.042663574,-3.640625,-2.484375,1.4375
215,1697614565,-0.104003906,-1.0264282,0.10858154,-3.3125,-6.65625,-1.046875
216,1697614605,-0.21679688,-1.0147095,0.09979248,-12.875,-8.671875,0.125
217,1697614645,-0.122558594,-0.9649048,0.082214355,-4.0625,-14.71875,-1.171875
218,1697614685,-0.16601562,-1.0012816999999998,0.05609131,3.71875,-11.421875,1.75
219,1697614725,-0.14404297,-0.9402466,0.05267334,4.40625,-15.09375,2.03125
220,1697614765,-0.07446289,-0.90704346,0.0048217773,-0.296875,-12.078125,3.078125
221,1697614805,-0.17529297,-1.0010376,0.0680542,0.4375,-0.75,3.125
222,1697614845,-0.14453125,-1.0462036,0.07684326,5.1875,0.9375,3.0
223,1697614885,-0.1184081999999999,-1.0359497,0.1005248999999999,-0.078125,4.578125,0.125
224,1697614925,-0.21166992,-1.0073853000000002,0.1137084959999999,2.546875,6.46875,0.96875
225,1697614965,-0.13842773,-0.99884033,0.08392334,2.640625,4.78125,-0.96875
226,1697615005,-0.16479492,-1.0264282,0.10662842,4.484375,7.375,1.375
227,1697615045,-0.14624023,-1.02594,0.07366943,1.59375,6.4375,-1.6875
228,1697615085,-0.11669922,-0.98687744,0.058532715,1.859375,6.75,-3.109375
229,1697615125,-0.15283203,-1.0342407,0.09539795,6.21875,11.90625,-3.203125
230,1697615165,-0.22631836,-1.0484009,0.137146,7.390625,11.53125,0.59375
231,1697615205,-0.13110352,-0.9741821,0.0558471679999999,1.4375,4.078125,0.140625
232,1697615245,-0.15332031,-1.0112915,0.0460815429999999,2.09375,0.03125,-0.546875
233,1697615285,-0.12646484,-1.0108032,0.10614014,-3.546875,-5.625,-0.765625
234,1697615325,-0.2019042999999999,-1.0044556,0.10687256,-17.484375,-11.640625,-2.125
235,1697615365,-0.13012695,-0.9800415,0.07513428,0.28125,-16.84375,-0.765625
236,1697615405,-0.15673828,-0.97369385,0.0480346679999999,-9.078125,-8.78125,-0.796875
237,1697615445,-0.19750977,-0.95806885,0.11639404,-3.5625,-7.53125,0.546875
238,1697615485,-0.07910156,-0.9673462,-0.0171508789999999,-1.375,-10.1875,1.671875
239,1697615525,-0.11669922,-0.9307251,0.047790527,1.296875,-7.96875,3.75
240,1697615565,-0.14672852,-0.9229126,0.04901123,0.359375,-6.9375,2.953125
241,1697615605,-0.17480469,-1.117981,0.08782959,4.828125,2.6875,2.21875
242,1697615645,-0.15283203,-1.0325316999999998,0.08782959,6.046875,3.734375,2.328125
243,1697615685,-0.15136719,-1.0078735,0.11541748,1.859375,4.953125,-0.671875
244,1697615725,-0.14477539,-1.0032349,0.08880615,2.375,5.453125,1.0
245,1697615765,-0.14941406,-1.000061,0.10809326,3.03125,5.015625,0.921875
246,1697615805,-0.16479492,-1.0557251,0.08416748,0.28125,3.984375,-0.6875
247,1697615845,-0.123535156,-0.9993286,0.070495605,2.359375,5.53125,-0.984375
248,1697615885,-0.13793945,-1.0213013000000002,0.12347412,5.796875,6.796875,-1.5
249,1697615925,-0.22045898,-1.1018677,0.07220459,3.515625,-0.203125,0.125
250,1697615965,-0.059326172,-0.92681885,0.043640137,-0.90625,1.15625,-1.640625
251,1697616005,-0.1303711,-1.0413208,0.08905029,2.4375,-2.15625,-1.15625
252,1697616045,-0.20898438,-1.024231,0.12347412,1.359375,0.34375,-0.53125
253,1697616085,-0.13500977,-0.9590454,0.039245605,-1.640625,-1.90625,-0.390625
254,1697616125,-0.107910156,-0.98028564,0.05218506,-4.9375,-8.28125,-0.171875
255,1697616165,-0.17944336,-1.0154419,0.07611084,0.296875,-5.671875,-0.5
256,1697616205,-0.13110352,-0.95758057,0.08392334,-1.0,-7.1875,0.859375
257,1697616245,-0.1315917999999999,-0.99664307,0.04534912,-0.8125,-8.890625,0.140625
258,1697616285,-0.13232422,-0.94122314,0.012634277,0.953125,-8.09375,2.03125
259,1697616325,-0.10986328,-0.8897094999999999,0.054382324,-1.875,-8.65625,1.125
260,1697616365,-0.13647461,-1.0838013000000002,0.10418701,7.34375,-4.671875,3.046875
261,1697616405,-0.087890625,-1.0151978000000002,0.018493652,-1.140625,-2.609375,0.421875
262,1697616445,-0.23730469,-1.0203247,0.0680542,-2.21875,-2.03125,-0.1875
263,1697616485,-0.18481445,-1.0232544,0.13250732,1.078125,5.0,0.828125
264,1697616525,-0.072021484,-0.97491455,0.0460815429999999,-2.09375,2.953125,-0.78125
265,1697616565,-0.16723633,-1.0239868,0.09320068,-0.03125,2.828125,-1.984375
266,1697616605,-0.1430664,-1.0264282,0.085876465,-3.734375,3.734375,-2.125
267,1697616645,-0.14892578,-1.0442505,0.10223389,-2.15625,9.28125,-2.625
268,1697616685,-0.15820312,-1.0464478000000002,0.15057373,2.15625,6.015625,-2.03125
269,1697616725,-0.11401367,-0.9963989,0.07196045,-1.65625,-5.65625,-4.34375
270,1697616765,-0.20092773,-1.0222778,0.13909912,-3.40625,6.578125,-2.546875
271,1697616805,-0.15063477,-0.9807739,0.0770873999999999,-4.8125,3.078125,-1.65625
272,1697616845,-0.19116211,-1.0039673,0.10784912,0.859375,1.078125,-0.390625
273,1697616885,-0.091796875,-0.9751587,0.08807373,-6.359375,-0.96875,-1.4375
274,1697616925,-0.21191406,-0.9631958,0.14691162,-3.890625,-2.03125,-0.390625
275,1697616965,-0.14135742,-0.9656372,0.08074951,-1.484375,-9.15625,0.03125
276,1697617005,-0.1628417999999999,-0.9776001,0.109313965,5.703125,-4.25,2.25
277,1697617045,-0.11816406,-0.90948486,0.03656006,1.765625,-8.015625,3.015625
278,1697617085,-0.14331055,-0.9138794,0.061950684,7.125,-7.21875,5.859375
279,1697617125,-0.17626953,-1.0889282,0.13934326,12.890625,2.109375,6.3125
280,1697617165,-0.10131836,-0.98565674,0.04510498,1.328125,0.140625,0.515625
281,1697617205,-0.16577148,-1.0623169,0.18426514,3.84375,8.703125,0.4375
282,1697617245,-0.18115234,-0.9898071,0.0785522459999999,0.671875,6.953125,1.046875
283,1697617285,-0.13061523,-1.0147095,0.08831787,1.0,5.609375,-0.9375
284,1697617325,-0.15551758,-1.0357056,0.07122803,0.96875,4.875,-1.96875
285,1697617365,-0.10668945,-1.0147095,0.06878662,-0.328125,10.734375,-1.796875
286,1697617405,-0.13916016,-0.9907837,0.09466553,0.703125,3.953125,-1.265625
287,1697617445,-0.14428711,-1.0444946,0.11981201,3.546875,2.390625,-2.6875
288,1697617485,-0.21289062,-1.0291138000000002,0.10784912,4.09375,3.625,0.40625
289,1697617525,-0.12670898,-0.9883423,0.09588623,-2.734375,5.625,0.390625
290,1697617565,-0.10058594,-0.97540283,0.023132324,-16.078125,-8.953125,-2.578125
291,1697617605,-0.21289062,-0.98883057,0.15228271,-12.078125,-7.34375,-1.71875
292,1697617645,-0.18676758,-1.0352173,0.17474365,-8.828125,-2.40625,-0.234375
293,1697617685,-0.13476562,-0.9619751,0.09051514,-8.15625,-5.640625,0.015625
294,1697617725,-0.1027831999999999,-0.9624634,0.08880615,-5.5,-10.78125,-0.734375
295,1697617765,-0.14477539,-1.0059204,0.12054443,1.9375,-16.8125,0.15625
296,1697617805,-0.1496582,-0.93951416,0.07489014,5.703125,-21.6875,2.296875
297,1697617845,-0.114746094,-0.9331665,0.08416748,7.265625,-9.765625,3.90625
298,1697617885,-0.20581055,-1.0720825,0.11468506,18.796875,2.40625,3.296875
299,1697617925,-0.15942383,-0.972229,0.16009521,11.1875,8.5,3.703125
300,1697617965,-0.1430664,-0.9841919,0.08929443,3.0,7.734375,-0.203125
301,1697618005,-0.16894531,-1.0308228000000002,0.08856201,-0.5,6.953125,0.25
302,1697618045,-0.13183594,-0.9771118,0.08099365,-2.375,5.15625,-2.140625
303,1697618085,-0.13989258,-1.0447388000000002,0.07879639,-1.28125,6.46875,-3.0625
304,1697618125,-0.14404297,-1.017395,0.10296631,0.890625,12.203125,-0.546875
305,1697618165,-0.12915039,-1.0042114,0.11468506,3.0,13.5,-2.796875
306,1697618205,-0.17407227,-1.0244751,0.12542725,4.875,3.984375,0.109375
307,1697618245,-0.13647461,-0.98272705,0.1251831,-2.65625,1.53125,-0.015625
308,1697618285,-0.17797852,-0.99884033,0.089538574,-8.15625,-5.984375,-1.421875
309,1697618325,-0.17114258,-0.9956665,0.12445068,-9.78125,-2.65625,-1.078125
310,1697618365,-0.17651367,-0.98809814,0.14398193,-10.21875,-4.59375,-0.796875
311,1697618405,-0.10961914,-0.9678345,0.117126465,-9.421875,-8.90625,-2.125
312,1697618445,-0.26733398,-1.0403441999999998,0.1461792,-0.421875,-2.53125,1.890625
313,1697618485,-0.10546875,-0.9458618,0.12860107,-1.78125,-9.15625,0.09375
314,1697618525,-0.1193847659999999,-0.9939575,0.0324096679999999,2.0,-14.640625,0.203125
315,1697618565,-0.17626953,-0.88604736,0.06781006,7.578125,-13.0625,4.25
316,1697618605,-0.1352539,-0.92755127,0.18841553,3.5,-4.375,1.875
317,1697618645,-0.22460938,-1.1148071000000002,0.06707764,13.15625,-4.890625,3.625
318,1697618685,-0.12231445,-1.0081177,0.13616943,1.71875,3.75,1.390625
319,1697618725,-0.18286133,-1.0054321,0.14886475,3.90625,2.0,1.96875
320,1697618765,-0.15966797,-1.0454712,0.10003662,2.5625,7.4375,1.40625
321,1697618805,-0.1303711,-0.9651489,0.0863647459999999,1.125,6.203125,0.3125
322,1697618845,-0.13549805,-1.0442505,0.105407715,1.15625,4.28125,-0.328125
323,1697618885,-0.13110352,-1.0386353000000002,0.08514404,-1.84375,6.53125,-2.25
324,1697618925,-0.1850586,-1.0447388000000002,0.14300537,3.625,11.0625,-1.890625
325,1697618965,-0.14428711,-0.9729614,0.10614014,0.3125,1.59375,-1.234375
326,1697619005,-0.1159668,-1.0020142,0.1176147459999999,-2.453125,3.859375,-2.90625
327,1697619045,-0.19702148,-1.0203247,0.13250732,-14.0,4.796875,-3.578125
328,1697619085,-0.16210938,-0.99176025,0.15789795,-4.890625,-2.71875,0.109375
329,1697619125,-0.15917969,-0.99176025,0.12908936,-9.171875,-5.9375,-2.578125
330,1697619165,-0.14941406,-0.99713135,0.16009521,-3.1875,-1.59375,-0.875
331,1697619205,-0.1484375,-0.97003174,0.13275146,3.109375,-6.15625,1.859375
332,1697619245,-0.17553711,-0.98150635,0.13494873,9.328125,-12.890625,2.21875
333,1697619285,-0.10253906,-0.92803955,-0.01763916,12.75,-11.328125,4.875
334,1697619325,-0.12866211,-0.93756104,0.0324096679999999,24.484375,-1.078125,6.328125
335,1697619365,-0.17822266,-1.1072388000000002,0.09197998,19.515625,7.40625,2.734375
336,1697619405,-0.14501953,-1.0213013000000002,0.061950684,11.6875,11.296875,3.1875
337,1697619445,-0.10961914,-1.0247191999999998,0.04876709,1.296875,5.828125,-0.265625
338,1697619485,-0.14208984,-0.9668579,0.04046631,-4.4375,-1.328125,-1.734375
339,1697619525,-0.13549805,-1.0357056,0.04901123,-5.0,-1.25,-3.21875
340,1697619565,-0.16625977,-1.0501098999999998,0.09588623,-3.96875,1.09375,-1.796875
341,1697619605,-0.15332031,-1.013977,0.043640137,-4.71875,3.90625,-2.65625
342,1697619645,-0.1381836,-1.0154419,0.0848998999999999,-0.484375,7.640625,-2.5625
343,1697619685,-0.17700195,-1.0315552,0.08514404,-0.484375,3.25,0.21875
344,1697619725,-0.14892578,-1.0081177,0.120788574,-3.140625,7.421875,0.40625
345,1697619765,-0.1340332,-1.0081177,0.10272217,-9.34375,-3.921875,-1.96875
346,1697619805,-0.20239258,-0.9854126,0.10272217,-2.640625,-4.75,-2.21875
347,1697619845,-0.12890625,-0.9795532,0.10491943,-6.984375,-5.96875,-0.890625
348,1697619885,-0.17211914,-1.0012816999999998,0.10809326,-6.59375,-4.4375,-0.953125
349,1697619925,-0.17944336,-0.9961548,0.12371826,-0.796875,-6.875,-1.28125
350,1697619965,-0.14550781,-0.9968872,0.08148193,7.671875,-3.453125,2.84375
351,1697620005,-0.14648438,-0.93463135,0.050231934,3.125,-12.03125,-0.03125
352,1697620045,-0.08569336,-0.92144775,-0.019348145,14.34375,-5.765625,6.4375
353,1697620085,-0.0920410159999999,-1.0056763000000002,0.043395996,21.796875,8.453125,3.84375
354,1697620125,-0.22631836,-1.1072388000000002,0.22088623,12.328125,10.40625,0.640625
355,1697620165,-0.14013672,-1.0125122,0.0980834959999999,5.453125,8.5,3.46875
356,1697620205,-0.12890625,-0.9360962,0.016540527,-7.34375,-3.875,-2.21875
357,1697620245,-0.18237305,-1.0371704,0.07489014,-1.921875,0.59375,-1.5
358,1697620285,-0.14038086,-1.020813,0.06072998,-2.78125,2.390625,-1.65625
359,1697620325,-0.16577148,-1.0064087,0.04852295,-1.390625,5.421875,-0.375
360,1697620365,-0.11767578,-0.9981079,-0.005432129,-4.78125,2.921875,-1.984375
361,1697620405,-0.16894531,-1.0427856,0.116882324,2.890625,8.265625,-1.3125
362,1697620445,-0.16870117,-1.0183716,0.0941772459999999,-0.875,4.890625,1.234375
363,1697620485,-0.15136719,-0.98101807,0.06732178,-2.796875,2.375,-1.671875
364,1697620525,-0.16040039,-1.010315,0.08929443,-4.90625,-3.28125,-0.375
365,1697620565,-0.1394042999999999,-1.0081177,0.0941772459999999,-10.40625,-5.96875,-2.90625
366,1697620605,-0.17602539,-0.98687744,0.10784912,-8.28125,-4.125,-2.40625
367,1697620645,-0.1809082,-1.0027466,0.10736084,-4.015625,-5.796875,-0.515625
368,1697620685,-0.17749023,-0.9932251,0.11175537,3.171875,-5.15625,0.859375
369,1697620725,-0.1418457,-0.9561157,0.0441284179999999,5.875,-10.578125,0.328125
370,1697620765,-0.09301758,-0.90460205,-0.04547119,13.109375,-6.328125,5.71875
371,1697620805,-0.1550292999999999,-1.0022583,0.11273193,18.015625,14.0,4.390625
372,1697620845,-0.16015625,-1.0567017,0.1593628,9.765625,7.3125,1.546875
373,1697620885,-0.115234375,-0.99713135,0.04852295,4.5625,5.0,2.34375
374,1697620925,-0.14355469,-0.96881104,0.031921387,-6.015625,-0.3125,-2.359375
375,1697620965,-0.16235352,-1.0337524,0.08123779,-1.640625,4.328125,-2.171875
376,1697621005,-0.16894531,-1.0066528,0.06341553,-1.703125,4.03125,-1.21875
377,1697621045,-0.13012695,-0.99102783,0.04168701,-3.046875,1.859375,-2.625
378,1697621085,-0.15649414,-1.0127563,0.057556152,0.359375,2.9375,-1.625
379,1697621125,-0.16137695,-1.0222778,0.07659912,-0.734375,5.796875,-2.046875
380,1697621165,-0.15307617,-1.0071411,0.10003662,-3.921875,-0.09375,-1.21875
381,1697621205,-0.12451172,-1.0112915,0.09832764,-4.390625,-4.296875,-2.609375
382,1697621245,-0.20922852,-1.0237427,0.0863647459999999,-7.109375,-1.375,-1.953125
383,1697621285,-0.18115234,-1.0147095,0.10467529,-6.078125,-4.734375,-1.09375
384,1697621325,-0.18481445,-0.95440674,0.06561279,-11.265625,-7.046875,-4.390625
385,1697621365,-0.18603516,-1.0388794,0.11126709,2.3125,-0.328125,1.546875
386,1697621405,-0.16479492,-0.97735596,0.09588623,0.9375,-3.984375,-1.015625
387,1697621445,-0.15112305,-0.97491455,0.08074951,5.484375,-5.640625,0.625
388,1697621485,-0.13452148,-0.9026489,-0.012023926,7.8125,-7.96875,1.375
389,1697621525,-0.23706055,-0.9229126,0.0993042,7.53125,1.625,2.671875
390,1697621565,-0.15991211,-1.0652466,0.15350342,8.1875,7.859375,1.25
391,1697621605,-0.10107422,-0.98321533,0.0836792,5.3125,8.1875,2.5
392,1697621645,-0.21044922,-1.0169066999999998,0.10809326,-0.234375,3.203125,-1.09375
393,1697621685,-0.19458008,-0.9924927,0.07952881,-3.765625,2.78125,-1.59375
394,1697621725,-0.14208984,-0.97442627,0.06390381,-3.328125,0.625,-3.28125
395,1697621765,-0.16918945,-1.0115356,0.054870605,-3.78125,-1.390625,-1.859375
396,1697621805,-0.20727539,-1.0020142,0.105651855,-0.4375,3.28125,-1.21875
397,1697621845,-0.15478516,-1.0491333,0.11566162,-3.484375,3.578125,-0.484375
398,1697621885,-0.18408203,-1.0166626,0.0993042,-0.390625,-0.890625,-0.03125
399,1697621925,-0.19165039,-0.989563,0.09490967,-1.53125,0.171875,0.546875
400,1697621965,-0.15258789,-1.0315552,0.11395264,-2.90625,1.3125,-1.390625
401,1697622005,-0.19946289,-1.0032349,0.08001709,-2.609375,-2.390625,-0.03125
402,1697622045,-0.17504883,-0.9585571,0.10809326,-4.46875,0.421875,0.328125
403,1697622085,-0.16870117,-0.97857666,0.10662842,-4.0625,-5.359375,0.421875
404,1697622125,-0.17797852,-0.9883423,0.085876465,8.046875,-5.25,2.28125
405,1697622165,-0.18798828,-0.97052,0.101745605,4.703125,-6.828125,1.859375
406,1697622205,-0.23168945,-0.9194946,0.13031006,2.96875,-6.421875,4.125
407,1697622245,-0.12866211,-0.9795532,0.039733887,13.78125,-2.421875,2.640625
408,1697622285,-0.19921875,-1.0684204,0.12860107,14.921875,15.015625,7.03125
409,1697622325,-0.13989258,-0.95318604,0.105407715,7.015625,11.203125,5.09375
410,1697622365,-0.1154785159999999,-1.0147095,0.0914917,0.078125,6.65625,-1.953125
411,1697622405,-0.16381836,-0.9937134,0.10809326,-5.875,-0.046875,-1.640625
412,1697622445,-0.18188477,-0.9932251,0.07733154,-4.015625,0.125,-2.6875
413,1697622485,-0.13891602,-0.99664307,0.07220459,-1.546875,2.171875,-2.90625
414,1697622525,-0.15209961,-0.9927368,0.07513428,-0.0625,2.015625,-2.71875
415,1697622565,-0.17407227,-1.0523071000000002,0.10272217,4.96875,3.75,0.078125
416,1697622605,-0.16455078,-1.0154419,0.090026855,1.828125,-0.4375,0.234375
417,1697622645,-0.19848633,-1.0271606,0.08514404,2.21875,3.421875,0.546875
418,1697622685,-0.17211914,-1.0064087,0.08685303,5.375,2.734375,-0.28125
419,1697622725,-0.10498047,-0.991272,0.029968262,0.234375,-0.125,0.140625
420,1697622765,-0.15429688,-0.9751587,0.07952881,4.515625,0.921875,1.359375
421,1697622805,-0.10913086,-0.9885864,0.0446166999999999,-5.28125,-4.578125,-1.515625
422,1697622845,-0.19628906,-0.9710083,0.034118652,2.703125,-8.171875,0.859375
423,1697622885,-0.1550292999999999,-0.99346924,0.04437256,0.078125,-10.703125,0.515625
424,1697622925,-0.12036133,-0.94000244,0.01776123,-4.234375,-14.203125,-0.171875
425,1697622965,-0.12963867,-0.9380493,0.02532959,-5.65625,-11.234375,1.015625
426,1697623005,-0.15942383,-1.0974731000000002,0.028503418,12.828125,1.359375,3.125
427,1697623045,-0.15820312,-1.0046997,0.13348389,8.65625,6.546875,-2.40625
428,1697623085,-0.24047852,-1.0032349,0.13104248,4.0,1.0,2.046875
429,1697623125,-0.15649414,-0.96954346,0.030212402,0.65625,-1.9375,-0.6875
430,1697623165,-0.18334961,-1.020813,0.06048584,0.0625,1.21875,-2.625
431,1697623205,-0.13061523,-0.99884033,0.08050537,1.546875,1.359375,-2.453125
432,1697623245,-0.17260742,-1.0108032,0.054382324,3.171875,0.765625,0.1875
433,1697623285,-0.17919922,-1.0147095,0.028747559,-0.671875,-0.234375,-1.59375
434,1697623325,-0.22436523,-1.0689087,0.07977295,3.90625,9.46875,1.546875
435,1697623365,-0.16577148,-1.0025024,0.06097412,-6.9375,0.90625,0.828125
436,1697623405,-0.11376953,-0.9812622,0.030456543,1.421875,-2.25,-1.234375
437,1697623445,-0.20751953,-1.0386353000000002,0.06341553,-3.046875,-0.5,0.875
438,1697623485,-0.22509766,-0.9873657,0.0629272459999999,-7.515625,-1.703125,1.25
439,1697623525,-0.16967773,-0.96221924,0.101501465,-9.546875,-1.0,-0.90625
440,1697623565,-0.12451172,-0.99542236,0.01361084,-4.265625,-6.03125,-0.109375
441,1697623605,-0.17578125,-0.9805298,0.0902709959999999,-6.953125,-2.796875,-0.640625
442,1697623645,-0.20605469,-1.0090941999999998,0.109069824,-0.390625,-2.421875,1.859375
443,1697623685,-0.1076660159999999,-0.96099854,0.059509277,6.546875,-13.390625,0.875
444,1697623725,-0.109375,-0.9524536,-0.007873535,6.46875,-14.484375,4.28125
445,1697623765,-0.15917969,-0.9746704,-0.008850098,11.125,-0.734375,3.796875
446,1697623805,-0.14453125,-1.0181274,0.09906006,11.796875,7.8125,2.28125
447,1697623845,-0.16845703,-1.0325316999999998,0.05999756,4.5,4.28125,0.828125
448,1697623885,-0.14477539,-1.0066528,0.08319092,1.5625,6.578125,0.5
449,1697623925,-0.16455078,-1.0039673,0.059265137,-0.21875,4.359375,0.65625
450,1697623965,-0.14819336,-1.0254517,0.055603027,-3.125,3.15625,-2.6875
451,1697624005,-0.14501953,-1.0044556,0.042663574,-1.390625,8.34375,-2.125
452,1697624045,-0.18066406,-1.0247191999999998,0.07098389,3.453125,10.625,-1.296875
453,1697624085,-0.16674805,-1.0147095,0.061950684,2.953125,6.640625,0.796875
454,1697624125,-0.11816406,-0.9939575,0.055603027,0.71875,0.09375,-0.71875
455,1697624165,-0.13720703,-0.98028564,0.109313965,-1.828125,0.890625,-1.078125
456,1697624205,-0.19824219,-1.0498657,0.08270264,-9.40625,-7.25,-2.265625
457,1697624245,-0.16210938,-0.9729614,0.06072998,-18.125,-9.6875,-3.109375
458,1697624285,-0.1496582,-1.0076294,0.07342529,-9.96875,-0.828125,-1.15625
459,1697624325,-0.22094727,-0.96221924,0.12689209,-12.890625,3.4375,0.84375
460,1697624365,-0.16723633,-1.0264282,0.1176147459999999,-3.65625,-0.90625,0.5
461,1697624405,-0.15454102,-0.9807739,0.15814209,-5.15625,-2.953125,0.40625
462,1697624445,-0.13378906,-1.0193481,0.09515381,10.203125,-9.3125,1.015625
463,1697624485,-0.11450195,-0.8975219999999999,-0.0022583008,10.59375,-21.140625,2.671875
464,1697624525,-0.1821289,-0.9470825,0.18377686,7.234375,-7.890625,5.453125
465,1697624565,-0.10253906,-1.0374146,0.07879639,6.546875,2.796875,-0.640625
466,1697624605,-0.17749023,-1.0322876,0.051208496,4.03125,1.328125,-0.546875
467,1697624645,-0.16186523,-1.0193481,0.06536865,2.703125,6.53125,1.140625
468,1697624685,-0.14428711,-0.9512329,0.1083374,2.203125,5.34375,-0.09375
469,1697624725,-0.15527344,-1.0401001,0.0914917,1.21875,4.640625,-0.390625
470,1697624765,-0.20361328,-1.0256958,0.12420654,-1.140625,6.09375,-1.953125
471,1697624805,-0.14160156,-0.9907837,0.07147217,0.359375,11.625,-1.90625
472,1697624845,-0.10424805,-0.9920044,0.05999756,2.828125,3.21875,-1.046875
473,1697624885,-0.13671875,-1.0169066999999998,0.10614014,0.671875,-3.359375,-1.0
474,1697624925,-0.17993164,-1.0386353000000002,0.09637451,-3.390625,7.90625,-1.921875
475,1697624965,-0.22973633,-0.9795532,0.1293335,-7.140625,4.890625,-0.09375
476,1697625005,-0.16723633,-0.9937134,0.09051514,-8.96875,-4.140625,-0.59375
477,1697625045,-0.1315917999999999,-0.95806885,0.112976074,-5.875,-9.390625,-1.421875
478,1697625085,-0.16259766,-0.9866333,0.093688965,-9.875,-8.5,-1.78125
479,1697625125,-0.16845703,-0.991272,0.14764404,-4.34375,-6.0625,-1.046875
480,1697625165,-0.16552734,-0.9612427,0.09075928,-4.421875,-5.171875,-0.265625
481,1697625205,-0.18701172,-1.0210571,0.14715576,5.46875,-10.25,0.328125
482,1697625245,-0.17138672,-1.0056763000000002,0.0363159179999999,13.765625,-12.4375,1.3125
483,1697625285,-0.1616211,-0.94610596,0.0785522459999999,21.546875,0.625,6.78125
484,1697625325,-0.1730957,-0.975647,0.16644287,13.359375,-2.515625,4.0
485,1697625365,-0.23657227,-1.0391235,0.1058959959999999,7.484375,5.1875,1.71875
486,1697625405,-0.14111328,-0.99957275,0.11419678,3.84375,7.609375,3.296875
487,1697625445,-0.16723633,-0.9692993,0.06536865,3.015625,3.546875,0.109375
488,1697625485,-0.17871094,-1.0234985,0.11395264,1.515625,5.515625,-1.640625
489,1697625525,-0.17944336,-1.0254517,0.06512451,-2.34375,6.0,-2.1875
490,1697625565,-0.13745117,-1.0027466,0.07366943,-1.359375,8.515625,-1.796875
491,1697625605,-0.14233398,-1.0261841,0.07562256,2.90625,7.8125,-0.625
492,1697625645,-0.1340332,-1.0200806,0.07220459,-3.015625,0.84375,-1.390625
493,1697625685,-0.14331055,-1.0171509,0.11224365,-0.171875,-0.15625,-0.171875
494,1697625725,-0.23754883,-1.008606,0.10809326,-10.53125,-0.703125,-1.8125
495,1697625765,-0.12841797,-1.000061,0.1239624,-9.5625,-1.546875,-0.25
496,1697625805,-0.16796875,-0.95562744,0.0785522459999999,-12.28125,-7.421875,0.03125
497,1697625845,-0.15234375,-1.0076294,0.12591553,-10.640625,-4.5,-0.859375
498,1697625885,-0.16235352,-0.9973755,0.16278076,-3.4375,-3.734375,1.734375
499,1697625925,-0.17236328,-0.98443604,0.13909912,-2.25,-7.828125,0.421875
500,1697625965,-0.1887207,-1.0164185,0.1251831,-0.09375,-14.984375,-1.375
501,1697626005,-0.09765625,-0.9053345,0.08929443,7.9375,-20.015625,2.328125
502,1697626045,-0.111328125,-0.95635986,0.116882324,10.53125,-4.59375,3.90625
503,1697626085,-0.15405273,-0.9668579,0.066101074,6.453125,4.046875,1.53125
504,1697626125,-0.1977539,-1.0222778,0.1005248999999999,10.546875,3.21875,0.265625
505,1697626165,-0.20263672,-1.0249634,0.14691162,6.875,5.828125,2.125
506,1697626205,-0.13916016,-0.9985962,0.08392334,7.09375,7.859375,0.984375
507,1697626245,-0.171875,-1.0252075,0.10736084,4.921875,6.921875,-0.671875
508,1697626285,-0.17382812,-1.020813,0.07220459,1.96875,6.28125,-0.484375
509,1697626325,-0.16772461,-1.0003052,0.082214355,0.0,7.71875,-1.359375
510,1697626365,-0.13793945,-1.0310669,0.078308105,-1.78125,8.515625,-0.75
511,1697626405,-0.17504883,-1.0029907,0.11053467,1.96875,2.5,-0.875
512,1697626445,-0.1394042999999999,-0.98931885,0.10662842,-0.84375,-0.96875,-1.15625
513,1697626485,-0.18359375,-0.98638916,0.08538818,-9.734375,-3.59375,-1.921875
514,1697626525,-0.2043457,-1.024231,0.124938965,-8.953125,-1.1875,-2.25
515,1697626565,-0.123535156,-0.9780884,0.07318115,-9.46875,-5.125,-0.953125
516,1697626605,-0.1784667999999999,-0.98883057,0.16253662,-8.265625,-5.515625,-1.71875
517,1697626645,-0.1586914,-0.9973755,0.12738037,-4.265625,-5.546875,-0.734375
518,1697626685,-0.17480469,-1.006897,0.12567139,-2.546875,-9.0,0.140625
519,1697626725,-0.18188477,-0.93634033,0.11053467,-1.078125,-18.890625,-2.609375
520,1697626765,-0.1652832,-0.9902954,0.0836792,8.859375,-15.015625,0.265625
521,1697626805,-0.17382812,-0.9417114,0.059020996,12.203125,-4.515625,2.265625
522,1697626845,-0.15673828,-0.99176025,0.047058105,13.34375,3.859375,1.96875
523,1697626885,-0.18798828,-1.0405884,0.09613037,9.828125,7.578125,2.21875
524,1697626925,-0.15307617,-1.0120239,0.07562256,3.03125,6.546875,3.828125
525,1697626965,-0.17260742,-1.0200806,0.07293701,3.90625,4.453125,1.0
526,1697627005,-0.1784667999999999,-1.0134888000000002,0.085876465,0.5625,5.4375,0.734375
527,1697627045,-0.16040039,-0.99224854,0.043884277,-0.296875,2.875,0.328125
528,1697627085,-0.17553711,-1.0391235,0.101257324,0.953125,4.40625,0.71875
529,1697627125,-0.16870117,-1.0137329,0.09124756,-0.265625,5.828125,0.625
530,1697627165,-0.19458008,-0.9932251,0.07489014,-1.78125,5.296875,-1.859375
531,1697627205,-0.1418457,-0.9927368,0.08782959,-1.921875,3.203125,-0.765625
532,1697627245,-0.16821289,-0.99102783,0.10614014,-9.703125,-4.171875,-2.125
533,1697627285,-0.20043945,-1.0222778,0.09832764,-10.453125,-5.03125,-1.171875
534,1697627325,-0.12768555,-0.9981079,0.101501465,-13.796875,-2.984375,-2.296875
535,1697627365,-0.19506836,-0.9710083,0.14935303,-12.046875,-3.984375,-1.4375
536,1697627405,-0.16357422,-0.9673462,0.14544678,-12.25,-9.078125,-1.609375
537,1697627445,-0.21166992,-1.0401001,0.17547607,0.90625,0.203125,-0.171875
538,1697627485,-0.1616211,-0.9729614,0.13201904,-3.8125,-3.6875,-2.75
539,1697627525,-0.18676758,-0.97906494,0.112976074,7.703125,-9.421875,-1.53125
540,1697627565,-0.15966797,-0.90802,0.017028809,10.921875,-9.859375,1.78125
541,1697627605,-0.17089844,-0.95269775,0.07537842,10.0,2.453125,2.234375
542,1697627645,-0.11401367,-1.0308228000000002,0.10809326,9.734375,0.5,1.84375
543,1697627685,-0.15356445,-0.9783325,0.14300537,7.359375,4.296875,4.734375
544,1697627725,-0.23901367,-1.0396118,0.13031006,4.125,5.78125,2.5625
545,1697627765,-0.1899414,-0.9902954,0.10638428,1.0625,4.15625,1.421875
546,1697627805,-0.12963867,-0.9812622,0.077819824,4.328125,6.0,2.171875
547,1697627845,-0.14331055,-1.0535278,0.06732178,0.78125,4.0625,-0.40625
548,1697627885,-0.20898438,-0.9968872,0.12786865,2.8125,8.0,-0.828125
549,1697627925,-0.18481445,-1.015686,0.10638428,0.015625,7.40625,-0.15625
550,1697627965,-0.123046875,-0.9763794,0.10003662,-6.125,-1.96875,-2.90625
551,1697628005,-0.20458984,-0.9927368,0.11468506,-3.109375,-4.953125,0.0625
552,1697628045,-0.18359375,-1.0471802,0.15301514,-12.796875,-5.546875,-1.921875
553,1697628085,-0.16040039,-0.9553833,0.1281128,-17.59375,-10.03125,-2.296875
554,1697628125,-0.21508789,-1.0027466,0.1408081,-12.34375,-10.234375,-2.484375
555,1697628165,-0.18310547,-1.0542603000000002,0.19012451,-2.203125,-2.46875,0.9375
556,1697628205,-0.17480469,-0.9282837,0.14544678,-3.046875,-5.046875,-1.3125
557,1697628245,-0.16625977,-1.0056763000000002,0.12860107,11.21875,-6.15625,-0.328125
558,1697628285,-0.15917969,-0.91607666,0.06439209,14.640625,-12.1875,1.71875
559,1697628325,-0.19482422,-0.8760376,0.16619873,20.296875,-2.953125,3.265625
560,1697628365,-0.20898438,-1.046936,0.055358887,12.359375,1.03125,2.40625
561,1697628405,-0.1159668,-1.00177,0.13470459,10.5,7.34375,2.546875
562,1697628445,-0.22607422,-1.0464478000000002,0.13568115,7.21875,8.03125,4.5625
563,1697628485,-0.2055663999999999,-0.98638916,0.049743652,1.0,6.125,1.53125
564,1697628525,-0.0959472659999999,-0.97076416,0.08319092,3.15625,3.671875,0.8125
565,1697628565,-0.16552734,-1.0422974,0.08905029,1.921875,2.8125,0.21875
566,1697628605,-0.18286133,-0.9949341,0.085876465,-1.90625,2.640625,-0.90625
567,1697628645,-0.17285156,-0.9990845,0.0770873999999999,0.15625,1.359375,0.53125
568,1697628685,-0.15917969,-1.0122681,0.10345459,-0.71875,-0.53125,-1.0625
569,1697628725,-0.17895508,-1.0239868,0.116882324,-2.640625,2.25,-0.859375
570,1697628765,-0.17675781,-1.0076294,0.07928467,-16.359375,-6.671875,-1.734375
571,1697628805,-0.12158203,-0.9768677,0.120788574,-4.109375,-7.5,-1.84375
572,1697628845,-0.15161133,-1.0271606,0.121276855,-12.421875,-4.15625,-1.0625
573,1697628885,-0.2475586,-1.0020142,0.1486206,-15.40625,-6.203125,-2.203125
574,1697628925,-0.123535156,-1.0344849,0.16009521,-8.296875,-5.609375,-1.09375
575,1697628965,-0.15673828,-0.98150635,0.13983154,-0.546875,-4.5,-0.09375
576,1697629005,-0.19628906,-0.94610596,0.13885498,1.234375,-8.734375,-1.6875
577,1697629045,-0.15429688,-1.0088501,0.0746459959999999,15.765625,-6.609375,2.359375
578,1697629085,-0.123046875,-0.91241455,-0.024230957,17.65625,-0.40625,4.125
579,1697629125,-0.22363281,-1.0217896,0.08441162,25.640625,14.6875,6.265625
580,1697629165,-0.072753906,-1.0776978000000002,0.14447021,16.625,15.234375,3.4375
581,1697629205,-0.15478516,-1.0130005,0.0597534179999999,2.015625,7.1875,4.84375
582,1697629245,-0.22705078,-0.98687744,0.08294678,-0.296875,4.125,-1.5625
583,1697629285,-0.1154785159999999,-1.003479,0.0746459959999999,-0.625,2.515625,-0.5625
584,1697629325,-0.14941406,-1.0256958,0.057556152,-2.59375,0.1875,-1.5625
585,1697629365,-0.17089844,-1.0181274,0.082214355,0.65625,5.75,-1.0
586,1697629405,-0.18164062,-0.9920044,0.066345215,-0.25,2.734375,-0.25
587,1697629445,-0.15112305,-1.0049438,0.0863647459999999,-0.171875,-0.078125,-0.921875
588,1697629485,-0.13232422,-1.022522,0.0836792,-8.109375,-4.109375,-2.4375
589,1697629525,-0.20751953,-0.9668579,0.10418701,-16.171875,-6.453125,-1.984375
590,1697629565,-0.19067383,-1.0252075,0.13031006,-15.78125,-8.0625,-2.40625
591,1697629605,-0.15600586,-1.0142212,0.13397217,-12.046875,-3.65625,-1.40625
592,1697629645,-0.18164062,-0.95684814,0.15545654,-12.375,-3.96875,-1.015625
593,1697629685,-0.20629883,-1.0100708,0.11224365,-2.34375,-8.796875,-0.828125
594,1697629725,-0.15673828,-0.95196533,0.15594482,4.203125,0.25,0.609375
595,1697629765,-0.13769531,-0.9976196,0.03753662,6.3125,-3.46875,-1.90625
596,1697629805,-0.1796875,-0.94854736,0.06781006,13.703125,-1.0625,1.140625
597,1697629845,-0.14672852,-0.9871216,0.11663818,19.53125,5.078125,1.703125
598,1697629885,-0.19433594,-1.0252075,0.17572021,18.46875,10.953125,4.53125
599,1697629925,-0.15917969,-0.9981079,0.10638428,9.1875,6.8125,3.59375
600,1697629965,-0.15795898,-0.9883423,0.10003662,1.640625,6.65625,0.40625
601,1697630005,-0.15209961,-0.9985962,0.07489014,0.828125,2.953125,-0.3125
602,1697630045,-0.14355469,-1.0059204,0.06903076,1.390625,2.1875,0.171875
603,1697630085,-0.15234375,-1.0054321,0.08709717,0.46875,2.921875,-0.234375
604,1697630125,-0.1616211,-0.986145,0.043395996,-3.703125,2.8125,-2.734375
605,1697630165,-0.17504883,-1.0357056,0.09320068,1.1875,5.78125,-0.53125
606,1697630205,-0.114990234,-0.97369385,0.06488037,-4.171875,-4.515625,-0.484375
607,1697630245,-0.19799805,-0.99786377,0.09539795,-10.328125,-5.578125,-2.34375
608,1697630285,-0.17553711,-1.0222778,0.14178467,-5.265625,-1.953125,1.25
609,1697630325,-0.20410156,-0.9993286,0.12420654,-15.625,-6.90625,-1.390625
610,1697630365,-0.14868164,-0.9717407,0.07684326,-15.859375,-7.359375,-2.0
611,1697630405,-0.15625,-1.0266724,0.17181396,-7.359375,-4.71875,-1.53125
612,1697630445,-0.20581055,-0.9993286,0.14642334,-2.84375,-6.15625,0.234375
613,1697630485,-0.20776367,-0.98443604,0.13763428,2.453125,-8.421875,-0.28125
614,1697630525,-0.12866211,-0.9343872,0.038513184,11.71875,-10.046875,1.78125
615,1697630565,-0.14453125,-0.88287354,0.0460815429999999,11.953125,-6.234375,2.859375
616,1697630605,-0.1772461,-1.0569458,0.11102295,23.546875,12.1875,3.328125
617,1697630645,-0.0803222659999999,-1.0408325,0.14984131,14.40625,13.921875,2.84375
618,1697630685,-0.20629883,-0.9993286,0.105407715,8.921875,8.5,4.578125
619,1697630725,-0.15991211,-0.9800415,0.09564209,2.09375,3.390625,1.203125
620,1697630765,-0.13720703,-1.0073853000000002,0.06439209,-0.546875,2.5,-0.515625
621,1697630805,-0.14526367,-1.0076294,0.054626465,-1.671875,0.890625,-1.765625
622,1697630845,-0.15820312,-1.0361938,0.04876709,-1.375,3.6875,-0.84375
623,1697630885,-0.17163086,-0.9939575,0.06951904,0.953125,5.09375,0.46875
624,1697630925,-0.14477539,-0.9668579,0.11004639,-1.234375,-3.484375,0.921875
625,1697630965,-0.17822266,-1.0471802,0.11639404,-9.140625,-7.109375,-1.328125
626,1697631005,-0.21557617,-1.0593872,0.073913574,-20.21875,-4.828125,-2.71875
627,1697631045,-0.07739258,-0.9319458,0.1083374,-13.78125,-9.8125,-3.0
628,1697631085,-0.18725586,-1.031311,0.09881592,-14.125,-9.921875,-0.828125
629,1697631125,-0.22998047,-0.9619751,0.14031982,-20.953125,-8.5625,-3.53125
630,1697631165,-0.10620117,-1.0134888000000002,0.17327881,-12.21875,-4.296875,-0.34375
631,1697631205,-0.18237305,-0.95880127,0.16522217,-7.25,-2.0625,0.546875
632,1697631245,-0.1977539,-1.0088501,0.21136475,-1.34375,-3.078125,1.96875
633,1697631285,-0.16772461,-0.99664307,0.17523193,13.09375,-12.671875,2.953125
634,1697631325,-0.1665039,-0.94195557,0.0324096679999999,23.125,-14.859375,5.203125
635,1697631365,-0.14526367,-0.92144775,0.184021,15.125,0.96875,5.015625
636,1697631405,-0.16137695,-1.0735473999999998,0.05682373,20.203125,2.390625,4.140625
637,1697631445,-0.12695312,-1.0032349,0.1149292,13.78125,10.78125,5.3125
638,1697631485,-0.1965332,-1.0149536,0.14569092,7.96875,10.78125,1.890625
639,1697631525,-0.0959472659999999,-1.0098267,0.07611084,4.328125,9.3125,1.796875
640,1697631565,-0.14086914,-0.9771118,0.07342529,2.875,4.375,-0.046875
641,1697631605,-0.171875,-1.0352173,0.109558105,-1.0,4.890625,-1.3125
642,1697631645,-0.12695312,-0.99420166,0.07171631,-3.421875,5.859375,-3.8125
643,1697631685,-0.12133789,-1.0071411,0.07220459,-2.375,5.390625,-4.390625
644,1697631725,-0.23828125,-0.9690552,0.13641357,-6.375,-0.6875,-1.84375
645,1697631765,-0.12597656,-1.0093384,0.14007568,-15.40625,-8.40625,-2.21875
646,1697631805,-0.12670898,-1.020813,0.101745605,-17.46875,-9.84375,-2.859375
647,1697631845,-0.20483398,-0.9661255,0.1083374,-17.09375,-5.46875,-3.65625
648,1697631885,-0.16577148,-1.0564575,0.19744873,-11.671875,-2.625,-1.84375
649,1697631925,-0.13183594,-1.0046997,0.1984253,-7.765625,-5.546875,-2.265625
650,1697631965,-0.20019531,-0.97247314,0.14935303,-3.21875,-5.1875,-1.046875
651,1697632005,-0.16601562,-0.99884033,0.15863037,3.03125,2.0,-0.75
652,1697632045,-0.18823242,-0.9963989,0.18011475,9.171875,-1.296875,1.375
653,1697632085,-0.15942383,-0.991272,0.07684326,15.71875,-6.0,2.46875
654,1697632125,-0.13867188,-0.9065552,0.073913574,26.765625,-2.34375,6.890625
655,1697632165,-0.17944336,-0.9990845,0.12225342,25.140625,5.875,6.125
656,1697632205,-0.16674805,-1.0205688,0.0848998999999999,20.296875,7.34375,6.1875
657,1697632245,-0.09887695,-0.9956665,0.0692748999999999,11.859375,7.8125,6.015625
658,1697632285,-0.17041016,-1.0271606,0.08441162,4.34375,4.25,2.828125
659,1697632325,-0.13330078,-0.99420166,0.008239746,-4.734375,1.09375,-0.390625
660,1697632365,-0.15185547,-1.0215454,0.061950684,-2.90625,2.328125,-2.890625
661,1697632405,-0.11303711,-0.9885864,0.06463623,-2.1875,1.125,-1.5
662,1697632445,-0.16186523,-0.991272,0.042419434,-1.875,1.046875,-2.328125
663,1697632485,-0.17382812,-0.9998169,0.08148193,-3.1875,-0.453125,-2.1875
664,1697632525,-0.118652344,-0.99346924,0.08074951,-12.046875,-8.078125,-2.5625
665,1697632565,-0.17211914,-1.0713501,0.10784912,-12.15625,-8.25,-4.25
666,1697632605,-0.16552734,-1.0481566999999998,0.10784912,-21.5,-5.96875,-4.546875
667,1697632645,-0.16577148,-0.973938,0.097839355,-12.625,-3.78125,-3.875
668,1697632685,-0.1743164,-1.0293579,0.15740967,-2.765625,3.03125,0.765625
669,1697632725,-0.15332031,-0.99468994,0.109069824,-1.25,-0.421875,-0.390625
670,1697632765,-0.11621094,-0.97735596,0.031921387,2.09375,-3.40625,-0.40625
671,1697632805,-0.18017578,-1.0039673,0.17156982,10.703125,2.921875,0.859375
672,1697632845,-0.16381836,-0.96466064,0.09613037,10.0625,-1.796875,3.75
673,1697632885,-0.16552734,-0.9307251,0.08782959,21.46875,-3.734375,5.140625
674,1697632925,-0.17797852,-1.0379028,0.051208496,30.65625,4.0625,9.03125
675,1697632965,-0.0803222659999999,-0.99664307,0.105163574,24.359375,14.359375,8.96875
676,1697633005,-0.16894531,-0.97247314,0.061950684,10.9375,2.984375,5.40625
677,1697633045,-0.11401367,-0.9907837,0.0460815429999999,-0.75,3.15625,-1.375
678,1697633085,-0.1538086,-1.0232544,0.050231934,-6.890625,-1.1875,-4.21875
679,1697633125,-0.14282227,-0.975647,0.0131225589999999,-4.484375,0.5625,-2.1875
680,1697633165,-0.12524414,-0.99298096,0.010925293,-4.734375,0.46875,-4.015625
681,1697633205,-0.122802734,-1.039856,0.0123901369999999,-8.109375,-0.796875,-4.4375
682,1697633245,-0.17480469,-1.0786743,0.08709717,-0.71875,6.8125,-2.09375
683,1697633285,-0.13964844,-0.9746704,0.07513428,-13.125,-2.5625,-0.40625
684,1697633325,-0.0532226559999999,-0.97247314,0.024353027,-5.640625,-8.90625,-4.09375
685,1697633365,-0.22949219,-1.0974731000000002,0.10809326,-1.21875,2.171875,0.453125
686,1697633405,-0.1772461,-0.9727173,0.085876465,-6.1875,-2.28125,0.484375
687,1697633445,-0.16845703,-1.0027466,0.06829834,1.921875,-1.859375,0.46875
688,1697633485,-0.09790039,-0.99591064,0.06536865,-3.0625,-1.546875,0.703125
689,1697633525,-0.17529297,-0.9800415,0.0980834959999999,-4.375,-5.59375,-0.78125
690,1697633565,-0.19482422,-0.98809814,0.097351074,2.1875,-6.21875,0.9375
691,1697633605,-0.1171875,-0.98321533,0.066345215,2.421875,-3.25,0.453125
692,1697633645,-0.115234375,-0.9209595,-0.018127441,-2.453125,-12.84375,-0.046875
693,1697633685,-0.13671875,-0.9390259,0.0668334959999999,16.046875,-4.625,3.203125
694,1697633725,-0.14941406,-1.0828247,0.12591553,15.734375,12.046875,3.359375
695,1697633765,-0.18676758,-0.989563,0.06536865,6.65625,3.4375,1.609375
696,1697633805,-0.16040039,-1.0213013000000002,0.0602416999999999,2.0,3.671875,0.15625
697,1697633845,-0.16357422,-1.019104,0.06365967,-1.984375,5.265625,-0.40625
698,1697633885,-0.11987305,-0.9854126,0.07220459,-3.546875,3.515625,-1.453125
699,1697633925,-0.1381836,-1.0076294,0.058532715,-2.625,2.015625,-2.15625
700,1697633965,-0.13696289,-1.0161743,0.043395996,-2.15625,4.4375,-4.265625
701,1697634005,-0.16552734,-1.0442505,0.093933105,1.203125,6.140625,-1.09375
702,1697634045,-0.13964844,-0.9849243,0.027038574,-1.03125,-3.71875,1.390625
703,1697634085,-0.15136719,-1.0447388000000002,0.062194824,-11.90625,-4.03125,-3.28125
704,1697634125,-0.14086914,-1.0095825,0.12713623,-8.296875,-1.46875,-1.703125
705,1697634165,-0.21606445,-0.9951782,0.08074951,-9.140625,-7.34375,-0.78125
706,1697634205,-0.12963867,-0.97613525,0.07611084,-8.59375,-4.15625,-2.0
707,1697634245,-0.15625,-0.98760986,0.12322998,-5.625,-6.609375,-0.28125
708,1697634285,-0.23925781,-1.0081177,0.12835693,-2.96875,-5.453125,0.46875
709,1697634325,-0.099365234,-0.9651489,0.066101074,5.65625,-6.015625,0.453125
710,1697634365,-0.19189453,-0.9985962,0.0770873999999999,7.625,-6.171875,1.078125
711,1697634405,-0.14038086,-0.89190674,0.058288574,17.90625,1.171875,5.34375
712,1697634445,-0.1640625,-1.0901489,-0.08111572,23.21875,15.296875,3.890625
713,1697634485,-0.12475586,-1.0288696,0.105163574,13.921875,10.609375,1.15625
714,1697634525,-0.10083008,-0.93463135,0.030456543,5.0625,3.0,3.75
715,1697634565,-0.16894531,-1.0352173,0.050720215,2.984375,0.15625,1.59375
716,1697634605,-0.16137695,-0.99102783,0.038024902,-4.453125,0.59375,-3.453125
717,1697634645,-0.13330078,-1.0200806,0.050231934,-1.875,3.6875,-2.453125
718,1697634685,-0.1496582,-1.0042114,0.029724121,-0.8125,3.265625,-0.34375
719,1697634725,-0.15820312,-1.0142212,0.0382690429999999,0.640625,5.25,-1.59375
720,1697634765,-0.13208008,-1.0393677,0.06976318,-2.75,2.71875,-1.53125
721,1697634805,-0.12890625,-0.97442627,0.06048584,-11.078125,-3.5625,-1.484375
722,1697634845,-0.20751953,-1.0049438,0.08343506,-13.125,-6.875,-3.140625
723,1697634885,-0.18334961,-1.0154419,0.11248779,-11.78125,-5.859375,-0.296875
724,1697634925,-0.15332031,-0.9985962,0.11029053,-13.765625,-10.078125,-2.09375
725,1697634965,-0.19116211,-1.034729,0.093688965,-12.421875,-7.78125,-1.15625
726,1697635005,-0.10083008,-0.9817505,0.0902709959999999,-2.046875,-2.109375,-0.546875
727,1697635045,-0.15112305,-1.0213013000000002,0.11273193,-4.40625,-10.46875,0.03125
728,1697635085,-0.1508789,-0.95269775,0.050720215,5.53125,-7.421875,-0.9375
729,1697635125,-0.14697266,-0.95025635,0.043884277,13.171875,-2.03125,3.0
730,1697635165,-0.19555664,-0.94537354,0.08734131,16.640625,3.421875,2.828125
731,1697635205,-0.1628417999999999,-1.0601196000000002,0.08001709,21.625,14.609375,4.296875
732,1697635245,-0.13330078,-0.9829712,0.07366943,8.0625,12.078125,1.0
733,1697635285,-0.15625,-1.0073853000000002,0.08026123,5.1875,4.515625,2.8125
734,1697635325,-0.1965332,-1.0266724,0.08905029,2.703125,4.703125,1.078125
735,1697635365,-0.1184081999999999,-0.973938,0.047546387,-2.640625,1.46875,-0.890625
736,1697635405,-0.12426758,-1.0261841,0.002380371,-1.8125,2.171875,-1.40625
737,1697635445,-0.16577148,-1.0449829,0.08538818,2.546875,9.453125,-0.171875
738,1697635485,-0.1965332,-1.005188,0.08026123,-4.328125,1.140625,0.171875
739,1697635525,-0.14355469,-0.95025635,0.028259277,-7.546875,-6.9375,-3.40625
740,1697635565,-0.1352539,-1.0396118,0.090026855,-13.515625,-3.734375,-3.265625
741,1697635605,-0.19873047,-0.9937134,0.12689209,-16.75,-6.78125,-2.65625
742,1697635645,-0.16796875,-0.9805298,0.101257324,-17.421875,-9.8125,-1.625
743,1697635685,-0.14233398,-0.9837036,0.117126465,-16.9375,-10.421875,-1.5625
744,1697635725,-0.18823242,-1.0098267,0.18426514,-11.78125,-10.46875,-1.65625
745,1697635765,-0.21777344,-1.0357056,0.16912842,-6.78125,-4.46875,-0.890625
746,1697635805,-0.14672852,-0.972229,0.11151123,4.546875,-4.484375,-1.046875
747,1697635845,-0.22021484,-1.0073853000000002,0.16522217,9.921875,-8.125,-1.296875
748,1697635885,-0.16308594,-0.93707275,0.06732178,13.828125,0.515625,-0.6875
749,1697635925,-0.17504883,-0.92266846,0.0519409179999999,14.390625,2.015625,2.546875
750,1697635965,-0.15429688,-1.0733032,0.1058959959999999,23.265625,16.046875,-0.28125
751,1697636005,-0.19628906,-0.99102783,0.14813232,12.65625,7.1875,5.15625
752,1697636045,-0.18139648,-1.0020142,0.09979248,8.390625,8.3125,2.53125
753,1697636085,-0.17651367,-1.0108032,0.0980834959999999,6.15625,3.84375,2.09375
754,1697636125,-0.13061523,-0.97076416,0.08392334,-0.328125,0.65625,0.59375
755,1697636165,-0.1875,-1.0115356,0.08856201,-2.140625,-1.21875,-1.703125
756,1697636205,-0.1706542999999999,-1.0054321,0.070251465,-1.71875,3.453125,0.734375
757,1697636245,-0.18139648,-0.9927368,0.09173584,-1.90625,0.390625,-0.015625
758,1697636285,-0.16918945,-0.98223877,0.14202881,-3.671875,-5.984375,-1.625
759,1697636325,-0.18115234,-1.0071411,0.1058959959999999,-11.75,-8.890625,-0.859375
