# Sensor type: Respeck
# Activity type: Sitting
# Activity subtype: Singing
# Subject id: s1920896
# Notes: 
timestamp,accel_x,accel_y,accel_z,gyro_x,gyro_y,gyro_z
1695505559484,-0.27246094,-0.8352661,0.5787964,-0.328125,0.640625,-0.015625
1695505559531,-0.25,-0.8411255,0.5753784,-0.53125,-0.96875,0.296875
1695505559561,-0.25927734,-0.84625244,0.5856323,-0.4375,-0.625,0.5625
1695505559606,-0.27929688,-0.8411255,0.57684326,-0.203125,-0.1875,0.46875
1695505559650,-0.26123047,-0.8526001,0.5751343,-0.3125,-0.796875,1.015625
1695505559681,-0.24291992,-0.8460083,0.5717163,-0.515625,-0.796875,1.15625
1695505559725,-0.25195312,-0.8411255,0.58807373,-1.375,-1.265625,1.234375
1695505559770,-0.26293945,-0.8418579,0.5770874,0.515625,0.125,1.265625
1695505559800,-0.2524414,-0.8406372,0.5812378,-3.375,-0.34375,0.5625
1695505559846,-0.27270508,-0.84039307,0.5866089,1.625,1.71875,0.515625
1695505559875,-0.26489258,-0.8345337,0.5734253,0.734375,1.265625,0.21875
1695505559920,-0.2536621,-0.82940674,0.5819702,0.84375,0.5625,0.828125
1695505559966,-0.2763672,-0.83599854,0.5968628,0.0,0.015625,0.625
1695505559996,-0.27319336,-0.8279419,0.58465576,1.296875,-0.25,0.421875
1695505560040,-0.2590332,-0.8428345,0.5787964,2.203125,-1.46875,1.109375
1695505560086,-0.26733398,-0.85235596,0.5819702,0.890625,-1.328125,0.703125
1695505560116,-0.2619629,-0.83551025,0.58343506,1.25,-0.734375,0.96875
1695505560161,-0.2512207,-0.835022,0.5687866,-0.046875,-0.953125,0.875
1695505560190,-0.23754883,-0.8501587,0.58343506,0.484375,-0.765625,1.40625
1695505560235,-0.24975586,-0.84552,0.58807373,-0.09375,-0.46875,1.640625
1695505560281,-0.26391602,-0.8335571,0.5765991,0.125,0.4375,1.375
1695505560310,-0.25317383,-0.84381104,0.5805054,0.375,0.28125,1.609375
1695505560356,-0.26611328,-0.8362427,0.5692749,1.5625,0.3125,1.046875
1695505560385,-0.25317383,-0.8440552,0.5704956,1.421875,0.59375,0.703125
1695505560431,-0.26879883,-0.8411255,0.5739136,1.859375,0.875,0.328125
1695505560475,-0.2770996,-0.8303833,0.5692749,0.84375,0.75,-0.171875
1695505560506,-0.25268555,-0.8452759,0.57147217,0.796875,0.53125,0.28125
1695505560551,-0.25195312,-0.84991455,0.5643921,-0.421875,-0.5,0.28125
1695505560596,-0.2614746,-0.8533325,0.57244873,0.265625,-0.03125,0.140625
1695505560625,-0.25317383,-0.82818604,0.58514404,-0.296875,-1.0,0.296875
1695505560670,-0.23901367,-0.8633423,0.56463623,1.53125,-1.421875,1.734375
1695505560701,-0.24047852,-0.8377075,0.5897827,-1.71875,-0.09375,0.734375
1695505560746,-0.2607422,-0.8311157,0.5873413,2.640625,1.375,1.390625
1695505560791,-0.24633789,-0.8440552,0.5648804,0.40625,0.21875,1.421875
1695505560835,-0.2565918,-0.84552,0.5692749,0.890625,0.546875,1.21875
1695505560865,-0.25805664,-0.8596802,0.57366943,1.640625,0.6875,0.90625
1695505560910,-0.27612305,-0.83135986,0.56414795,0.765625,0.6875,-0.125
1695505560941,-0.28344727,-0.83380127,0.57318115,-0.046875,0.5,-0.890625
1695505560986,-0.25512695,-0.8587036,0.5778198,1.359375,0.15625,0.578125
1695505561062,-0.25854492,-0.8423462,0.57733154,0.078125,-0.796875,-0.53125
1695505561076,-0.26660156,-0.8399048,0.56658936,-1.203125,-0.328125,0.21875
1695505561106,-0.24487305,-0.84698486,0.58026123,-1.015625,-0.734375,0.828125
1695505561136,-0.23486328,-0.8442993,0.58929443,0.234375,-0.859375,2.03125
1695505561181,-0.24902344,-0.8430786,0.58343506,-1.15625,-0.625,2.015625
1695505561225,-0.26000977,-0.8328247,0.58636475,-0.265625,0.4375,1.953125
1695505561255,-0.25268555,-0.8447876,0.57562256,0.609375,0.203125,1.484375
1695505561301,-0.2746582,-0.84210205,0.56365967,0.359375,0.375,0.25
1695505561331,-0.26879883,-0.8464966,0.5661011,0.4375,0.953125,-0.296875
1695505561377,-0.26391602,-0.8362427,0.5717163,0.21875,0.015625,-0.234375
1695505561421,-0.25878906,-0.8399048,0.5775757,0.046875,0.203125,0.328125
1695505561451,-0.24414062,-0.85772705,0.588562,-0.78125,-0.21875,0.984375
1695505561495,-0.25634766,-0.8435669,0.5805054,-1.03125,-0.140625,0.984375
1695505561526,-0.26098633,-0.83380127,0.5910034,-2.046875,-0.3125,0.6875
1695505561570,-0.24536133,-0.8442993,0.5795288,-1.09375,0.171875,0.9375
1695505561616,-0.25585938,-0.8345337,0.60491943,-4.1875,-0.609375,-0.4375
1695505561645,-0.27392578,-0.8308716,0.58880615,-2.453125,-0.8125,-0.6875
1695505561691,-0.26245117,-0.83477783,0.59246826,-3.578125,-1.625,-0.625
1695505561737,-0.22924805,-0.8352661,0.6029663,-2.921875,-1.03125,0.5
1695505561768,-0.24951172,-0.83721924,0.62054443,-3.515625,2.078125,-0.53125
1695505561811,-0.2849121,-0.80841064,0.6593628,4.59375,4.328125,-0.328125
1695505561840,-0.2626953,-0.81817627,0.60321045,3.53125,0.9375,1.96875
1695505561886,-0.2512207,-0.8257446,0.5968628,3.78125,2.40625,2.359375
1695505561931,-0.2788086,-0.8435669,0.59710693,9.578125,2.0,2.84375
1695505561961,-0.28344727,-0.8225708,0.57928467,6.359375,1.265625,1.8125
1695505562006,-0.25878906,-0.83062744,0.56048584,4.34375,-0.96875,2.0625
1695505562081,-0.234375,-0.85113525,0.5536499,1.359375,-2.796875,1.53125
1695505562095,-0.24707031,-0.8430786,0.559021,-1.109375,-3.203125,0.171875
1695505562127,-0.25610352,-0.84161377,0.5765991,0.78125,-6.65625,2.046875
1695505562155,-0.22558594,-0.86065674,0.5787964,0.703125,-7.46875,2.765625
1695505562201,-0.21850586,-0.864563,0.557312,-1.59375,-2.953125,1.125
1695505562246,-0.26342773,-0.83135986,0.5800171,-0.921875,0.0625,0.71875
1695505562276,-0.2734375,-0.84747314,0.5890503,1.765625,1.078125,1.71875
1695505562321,-0.25195312,-0.8296509,0.5770874,2.84375,0.53125,1.234375
1695505562351,-0.25830078,-0.84552,0.5578003,1.609375,1.015625,0.609375
1695505562395,-0.2619629,-0.84210205,0.5648804,2.3125,1.890625,-0.40625
1695505562456,-0.2590332,-0.8579712,0.5482788,-0.515625,0.328125,0.046875
1695505562471,-0.25854492,-0.85113525,0.5704956,-0.21875,-0.03125,0.015625
1695505562516,-0.25927734,-0.8479614,0.5675659,0.59375,0.09375,0.375
1695505562561,-0.25073242,-0.84625244,0.56658936,-0.140625,-0.234375,0.6875
1695505562590,-0.25073242,-0.847229,0.57440186,-0.8125,-0.421875,0.640625
1695505562636,-0.26245117,-0.8477173,0.5741577,0.6875,-0.1875,1.359375
1695505562666,-0.23901367,-0.8530884,0.5824585,0.703125,-0.234375,1.90625
1695505562711,-0.2578125,-0.8467407,0.57073975,0.421875,-0.53125,1.484375
1695505562756,-0.27416992,-0.8303833,0.5651245,0.5625,0.09375,1.046875
1695505562785,-0.25219727,-0.8386841,0.559021,0.78125,-0.1875,0.984375
1695505562830,-0.25390625,-0.8657837,0.56365967,0.453125,-0.1875,-0.3125
1695505562876,-0.2836914,-0.8501587,0.56463623,-0.421875,-0.21875,-1.09375
1695505562906,-0.2722168,-0.8394165,0.55389404,-0.25,-0.703125,-0.671875
1695505562951,-0.23242188,-0.8569946,0.57244873,0.0625,-1.125,0.6875
1695505563025,-0.24584961,-0.8477173,0.5824585,0.34375,-1.140625,1.234375
1695505563030,-0.2685547,-0.8320923,0.58392334,-0.46875,-0.578125,1.609375
1695505563070,-0.25146484,-0.8521118,0.5722046,0.296875,-0.921875,1.71875
1695505563101,-0.25585938,-0.8513794,0.5673218,0.828125,-0.125,1.515625
1695505563145,-0.2475586,-0.8530884,0.557312,1.046875,1.234375,1.5625
1695505563191,-0.2614746,-0.833313,0.58392334,2.703125,1.4375,0.6875
1695505563221,-0.28173828,-0.84747314,0.545105,-0.796875,-0.078125,0.1875
1695505563265,-0.27294922,-0.8374634,0.5614624,-0.296875,0.328125,-0.484375
1695505563295,-0.24560547,-0.8543091,0.56048584,2.234375,-0.125,0.546875
1695505563341,-0.27026367,-0.8508911,0.56463623,-0.140625,-1.453125,0.0
1695505563386,-0.26049805,-0.8538208,0.5675659,-1.53125,-1.9375,0.4375
1695505563416,-0.22460938,-0.8579712,0.57318115,-0.0625,-1.78125,1.34375
1695505563460,-0.25097656,-0.84503174,0.5795288,0.625,-1.453125,2.296875
1695505563491,-0.26245117,-0.8374634,0.58343506,-0.8125,-0.78125,2.015625
1695505563536,-0.25195312,-0.8518677,0.5709839,-0.078125,-0.671875,1.71875
1695505563581,-0.2626953,-0.84698486,0.5529175,0.75,0.171875,0.859375
1695505563610,-0.27246094,-0.8435669,0.55462646,1.015625,0.515625,0.359375
1695505563656,-0.26220703,-0.8591919,0.55511475,0.8125,0.71875,-0.359375
1695505563701,-0.26538086,-0.8521118,0.56536865,0.5,0.59375,-0.375
1695505563731,-0.25610352,-0.8428345,0.5663452,0.15625,-0.296875,0.328125
1695505563776,-0.2524414,-0.8538208,0.56951904,-0.546875,-0.796875,0.59375
1695505563806,-0.2548828,-0.84747314,0.5697632,-0.4375,-0.875,0.734375
1695505563851,-0.25390625,-0.8430786,0.5700073,0.4375,-0.859375,1.125
1695505563895,-0.25317383,-0.8484497,0.5700073,0.421875,-0.234375,1.078125
1695505563926,-0.2548828,-0.84576416,0.5704956,0.328125,-0.28125,0.78125
1695505563971,-0.26342773,-0.8452759,0.56048584,-0.421875,-0.390625,0.828125
1695505564046,-0.26733398,-0.83599854,0.5819702,1.84375,0.484375,0.609375
1695505564049,-0.25976562,-0.864563,0.54559326,-1.140625,-0.609375,0.875
1695505564090,-0.27026367,-0.8442993,0.5697632,-0.421875,0.359375,0.234375
1695505564121,-0.26098633,-0.84576416,0.5673218,0.84375,-0.078125,0.78125
1695505564166,-0.2614746,-0.84259033,0.57244873,-1.15625,-0.828125,0.84375
1695505564210,-0.25952148,-0.8394165,0.57025146,-0.625,-1.0,0.78125
1695505564241,-0.26513672,-0.83843994,0.574646,0.21875,-0.71875,0.84375
1695505564286,-0.2680664,-0.84747314,0.571228,-0.15625,-0.390625,1.078125
1695505564317,-0.2590332,-0.84454346,0.5778198,0.5625,-0.59375,0.75
1695505564361,-0.25878906,-0.847229,0.5734253,0.828125,0.359375,0.9375
1695505564407,-0.25952148,-0.8418579,0.571228,0.359375,0.078125,0.765625
1695505564436,-0.26464844,-0.8440552,0.5648804,0.5,-0.34375,0.859375
1695505564480,-0.26098633,-0.8501587,0.5668335,0.03125,-0.609375,0.90625
1695505564525,-0.26171875,-0.847229,0.57147217,0.453125,-0.109375,0.890625
1695505564554,-0.25756836,-0.8479614,0.56707764,0.390625,-0.5625,1.09375
1695505564599,-0.25927734,-0.8464966,0.5734253,0.234375,-0.265625,0.921875
1695505564630,-0.26000977,-0.8413696,0.56463623,0.203125,-0.328125,0.828125
1695505564675,-0.26245117,-0.8491821,0.56829834,0.1875,-0.234375,0.78125
1695505564721,-0.26635742,-0.8501587,0.57366943,0.1875,0.078125,0.671875
1695505564751,-0.26123047,-0.84503174,0.57073975,0.09375,-0.296875,0.609375
1695505564795,-0.26098633,-0.847229,0.56829834,-0.140625,-0.078125,0.65625
1695505564870,-0.25317383,-0.8440552,0.57196045,-0.5,-0.71875,0.46875
1695505564874,-0.2734375,-0.8521118,0.56903076,1.640625,-0.171875,0.984375
1695505564915,-0.26342773,-0.8442993,0.5663452,-2.046875,-0.578125,0.484375
1695505564946,-0.2602539,-0.8452759,0.5783081,2.03125,0.578125,1.046875
1695505564991,-0.26611328,-0.84991455,0.5619507,0.09375,0.015625,0.71875
1695505565036,-0.26782227,-0.84259033,0.5726929,-0.46875,0.375,0.53125
1695505565065,-0.26367188,-0.84991455,0.56536865,-0.78125,-0.65625,0.71875
1695505565109,-0.2644043,-0.848938,0.58026123,0.8125,0.03125,0.28125
1695505565156,-0.25708008,-0.84747314,0.58026123,0.96875,-0.1875,0.921875
1695505565185,-0.25585938,-0.8394165,0.5692749,-0.0625,-0.015625,0.515625
1695505565231,-0.26391602,-0.8413696,0.5783081,1.046875,0.171875,0.890625
1695505565261,-0.2619629,-0.84747314,0.5734253,0.875,0.78125,1.046875
1695505565306,-0.26098633,-0.83843994,0.5765991,1.046875,-0.1875,0.8125
1695505565350,-0.26782227,-0.84503174,0.57147217,1.125,-0.78125,1.125
1695505565381,-0.25146484,-0.8406372,0.55340576,-0.953125,-0.34375,0.3125
1695505565425,-0.2626953,-0.8550415,0.58880615,4.296875,0.5,1.21875
1695505565456,-0.2734375,-0.84869385,0.57318115,1.078125,-0.515625,1.234375
1695505565500,-0.25878906,-0.8428345,0.56292725,-0.25,-1.0,0.625
1695505565545,-0.27124023,-0.84869385,0.5680542,1.859375,0.234375,1.03125
1695505565576,-0.26171875,-0.8496704,0.5692749,0.890625,0.0625,0.625
1695505565621,-0.2565918,-0.84381104,0.55511475,0.609375,-0.71875,1.171875
1695505565666,-0.25683594,-0.85650635,0.55926514,1.59375,0.5,1.265625
1695505565696,-0.2553711,-0.8550415,0.57977295,1.0625,-0.109375,0.828125
1695505565741,-0.26171875,-0.8579712,0.54559326,0.15625,-0.828125,1.421875
1695505565770,-0.25927734,-0.84332275,0.5543823,-1.21875,-0.40625,0.71875
1695505565816,-0.26049805,-0.8557739,0.5582886,1.15625,0.28125,0.65625
1695505565861,-0.2565918,-0.83795166,0.56903076,0.140625,-0.125,0.484375
1695505565891,-0.26049805,-0.8513794,0.56170654,-0.296875,0.125,0.578125
1695505565936,-0.25463867,-0.8513794,0.5675659,-0.25,-0.203125,0.453125
1695505565981,-0.26464844,-0.85162354,0.5648804,0.53125,0.515625,0.65625
1695505566011,-0.25805664,-0.8467407,0.57244873,-0.375,-0.671875,0.8125
1695505566056,-0.2590332,-0.84039307,0.5668335,-0.90625,-0.125,0.75
1695505566086,-0.2565918,-0.8501587,0.572937,-1.390625,-0.265625,0.390625
1695505566131,-0.2434082,-0.85235596,0.5680542,-2.421875,-1.28125,0.765625
1695505566176,-0.2565918,-0.8479614,0.5787964,-2.703125,-2.265625,1.75
1695505566206,-0.29785156,-0.8491821,0.5831909,-2.890625,0.734375,0.03125
1695505566251,-0.27368164,-0.8467407,0.57244873,-5.265625,3.125,-1.875
1695505566280,-0.2692871,-0.8220825,0.5795288,-2.6875,0.78125,-1.78125
1695505566325,-0.2902832,-0.82818604,0.5988159,1.296875,0.765625,-0.421875
1695505566371,-0.2607422,-0.84088135,0.5988159,1.53125,0.609375,0.203125
1695505566401,-0.25048828,-0.82647705,0.5944214,2.59375,0.796875,2.078125
1695505566445,-0.2590332,-0.83673096,0.5907593,3.78125,-0.046875,3.046875
1695505566491,-0.2529297,-0.84161377,0.57366943,4.09375,0.09375,3.296875
1695505566521,-0.25048828,-0.8467407,0.57318115,3.75,0.265625,3.28125
1695505566565,-0.24633789,-0.84039307,0.56536865,4.59375,-0.875,2.4375
1695505566596,-0.24780273,-0.848938,0.5258179,2.609375,-0.578125,1.765625
1695505566641,-0.2368164,-0.85235596,0.58026123,3.25,-0.015625,1.40625
1695505566686,-0.25097656,-0.8477173,0.55511475,3.90625,-1.84375,1.796875
1695505566715,-0.2578125,-0.87164307,0.5446167,0.34375,-2.859375,0.859375
1695505566760,-0.25756836,-0.8604126,0.55633545,-2.484375,0.484375,-0.203125
1695505566835,-0.25878906,-0.8579712,0.555603,-0.4375,-0.03125,0.046875
1695505566837,-0.25463867,-0.8320923,0.5619507,2.40625,0.46875,0.46875
1695505566880,-0.26000977,-0.8550415,0.5722046,1.28125,0.78125,0.8125
1695505566910,-0.2541504,-0.8587036,0.56121826,0.171875,0.828125,0.421875
1695505566956,-0.26000977,-0.848938,0.56170654,0.875,0.109375,0.984375
1695505567000,-0.2487793,-0.86309814,0.5524292,0.171875,0.03125,0.90625
1695505567030,-0.24853516,-0.8574829,0.5507202,0.65625,0.265625,0.859375
1695505567075,-0.25170898,-0.85406494,0.5565796,0.15625,0.109375,0.90625
1695505567105,-0.25439453,-0.8501587,0.5673218,0.265625,0.21875,0.78125
1695505567150,-0.2487793,-0.85113525,0.5560913,0.078125,-0.78125,1.140625
1695505567196,-0.2487793,-0.8574829,0.5548706,-0.296875,-1.859375,1.625
1695505567225,-0.2746582,-0.8418579,0.5631714,0.328125,-0.984375,1.234375
1695505567270,-0.26464844,-0.8501587,0.5536499,-0.0625,-0.078125,0.640625
1695505567316,-0.24560547,-0.84820557,0.5429077,0.359375,-0.1875,0.453125
1695505567346,-0.26123047,-0.86138916,0.55926514,-0.71875,-0.34375,0.265625
1695505567390,-0.25146484,-0.8447876,0.5817261,1.9375,0.953125,0.5
1695505567422,-0.24584961,-0.8574829,0.5426636,-1.65625,-0.671875,1.125
1695505567465,-0.25805664,-0.848938,0.5800171,0.15625,0.484375,0.734375
1695505567512,-0.24633789,-0.8579712,0.5609741,1.359375,-0.03125,1.375
1695505567542,-0.2434082,-0.8584595,0.5656128,-0.265625,-0.765625,1.421875
1695505567585,-0.25683594,-0.85357666,0.5602417,-0.375,-1.53125,1.78125
1695505567630,-0.26831055,-0.8477173,0.55511475,0.328125,-1.125,1.0
1695505567661,-0.2548828,-0.8538208,0.54364014,0.09375,0.546875,0.3125
1695505567705,-0.2487793,-0.8591919,0.5560913,0.578125,0.15625,-0.234375
1695505567736,-0.26123047,-0.8533325,0.5582886,0.84375,0.390625,0.140625
1695505567796,-0.24169922,-0.850647,0.56536865,1.4375,-0.140625,1.421875
1695505567825,-0.24169922,-0.8479614,0.55682373,-0.265625,-0.953125,1.03125
1695505567855,-0.25317383,-0.8604126,0.5673218,0.65625,-1.78125,1.375
1695505567901,-0.24975586,-0.8567505,0.55877686,-0.40625,-0.96875,1.03125
1695505567946,-0.24536133,-0.8574829,0.56121826,0.625,-0.390625,1.328125
1695505567976,-0.25585938,-0.8635864,0.55804443,0.8125,-0.359375,1.34375
1695505568021,-0.25268555,-0.8557739,0.5553589,0.328125,-0.03125,0.921875
1695505568051,-0.2607422,-0.85040283,0.5494995,0.8125,0.265625,0.75
1695505568097,-0.2614746,-0.8648071,0.555603,0.640625,0.21875,0.53125
1695505568141,-0.24780273,-0.85113525,0.5548706,0.5,-0.046875,0.421875
1695505568171,-0.25,-0.862854,0.555603,-0.96875,-0.953125,0.578125
1695505568231,-0.25073242,-0.848938,0.5673218,1.796875,-0.0625,0.84375
1695505568246,-0.24536133,-0.86383057,0.54437256,-2.265625,-1.359375,0.84375
1695505568291,-0.25878906,-0.85040283,0.5614624,0.34375,0.296875,0.828125
1695505568337,-0.24316406,-0.8604126,0.5585327,0.65625,-0.390625,0.890625
1695505568366,-0.25585938,-0.8484497,0.55804443,-0.75,-0.046875,0.75
1695505568411,-0.2626953,-0.8567505,0.55389404,0.203125,-0.4375,0.703125
1695505568456,-0.2565918,-0.8508911,0.5634155,0.71875,0.046875,0.578125
1695505568501,-0.25146484,-0.8545532,0.55877686,0.9375,0.359375,0.796875
1695505568531,-0.25341797,-0.8513794,0.5631714,0.265625,-0.03125,0.421875
1695505568560,-0.2524414,-0.850647,0.55633545,0.453125,-0.0625,0.609375
1695505568606,-0.2614746,-0.8533325,0.5585327,0.46875,-0.125,0.84375
1695505568651,-0.25463867,-0.850647,0.55389404,0.046875,-0.671875,0.640625
1695505568681,-0.25,-0.85601807,0.55926514,0.140625,-0.46875,0.609375
1695505568726,-0.24804688,-0.8518677,0.56073,0.109375,-0.140625,0.71875
1695505568801,-0.25854492,-0.8562622,0.557312,0.21875,-0.15625,0.765625
1695505568815,-0.25708008,-0.85357666,0.56073,0.34375,-0.140625,0.546875
1695505568846,-0.25756836,-0.84991455,0.5585327,1.21875,-0.21875,0.671875
1695505568876,-0.25732422,-0.85357666,0.55389404,1.5625,0.265625,0.71875
1695505568920,-0.25805664,-0.87164307,0.53948975,-0.75,2.625,0.078125
1695505568967,-0.25439453,-0.850647,0.5685425,-1.6875,2.828125,-0.265625
1695505568996,-0.25634766,-0.84820557,0.58148193,1.046875,1.15625,0.640625
1695505569040,-0.24951172,-0.8491821,0.5477905,-1.203125,-0.171875,0.453125
1695505569071,-0.25805664,-0.8423462,0.5934448,1.765625,1.515625,0.3125
1695505569115,-0.24731445,-0.850647,0.53778076,-0.9375,-0.34375,0.71875
1695505569161,-0.25317383,-0.8477173,0.56707764,-0.453125,0.015625,0.234375
1695505569191,-0.2487793,-0.86187744,0.56048584,1.078125,0.546875,0.359375
1695505569235,-0.26000977,-0.8567505,0.57147217,-0.046875,-0.234375,0.65625
1695505569281,-0.25219727,-0.8418579,0.5565796,-0.4375,-0.359375,0.875
1695505569311,-0.25341797,-0.8557739,0.5817261,1.5625,-0.109375,0.5
1695505569357,-0.25317383,-0.84698486,0.5619507,0.9375,0.125,0.671875
1695505569386,-0.25268555,-0.8467407,0.55633545,0.078125,-0.5,0.5
1695505569430,-0.25854492,-0.85357666,0.55462646,0.765625,-0.140625,0.796875
1695505569477,-0.25048828,-0.8508911,0.5700073,1.21875,0.40625,0.765625
1695505569507,-0.25976562,-0.847229,0.5560913,0.375,-0.546875,0.890625
1695505569551,-0.2524414,-0.8574829,0.5668335,0.921875,-0.234375,0.6875
1695505569596,-0.25512695,-0.8567505,0.57196045,1.03125,-0.1875,0.828125
1695505569625,-0.2541504,-0.8521118,0.55877686,1.078125,-0.21875,0.8125
1695505569670,-0.25634766,-0.85284424,0.55511475,0.125,0.203125,0.9375
1695505569701,-0.25317383,-0.8574829,0.5639038,-0.28125,-0.390625,0.859375
1695505569746,-0.26049805,-0.8562622,0.5651245,-0.859375,-1.3125,0.6875
1695505569791,-0.2553711,-0.8530884,0.5570679,0.609375,-0.390625,0.96875
1695505569821,-0.25073242,-0.84991455,0.559021,0.3125,0.09375,1.0
1695505569866,-0.25341797,-0.8518677,0.5582886,0.390625,0.03125,0.90625
1695505569911,-0.2475586,-0.8501587,0.56585693,0.65625,0.0625,0.9375
1695505569956,-0.25683594,-0.8616333,0.56170654,-0.59375,-0.84375,0.6875
1695505569986,-0.25634766,-0.8467407,0.5704956,0.65625,0.15625,0.6875
1695505570015,-0.24829102,-0.85528564,0.5453491,-2.25,-0.921875,0.953125
1695505570062,-0.25878906,-0.8545532,0.57611084,-0.140625,0.0,0.625
1695505570106,-0.24487305,-0.85357666,0.55804443,-1.15625,-0.5,0.53125
1695505570136,-0.24853516,-0.84503174,0.5639038,-1.15625,-0.09375,0.5625
1695505570182,-0.2512207,-0.8435669,0.5663452,-0.015625,-0.234375,0.5625
1695505570210,-0.25317383,-0.848938,0.57025146,0.140625,0.109375,0.765625
1695505570256,-0.2529297,-0.84625244,0.5717163,-0.0625,-0.5625,0.96875
1695505570301,-0.26220703,-0.8477173,0.57366943,-0.265625,-0.546875,0.703125
1695505570331,-0.25830078,-0.8428345,0.57244873,-0.03125,-0.078125,0.59375
1695505570376,-0.25732422,-0.85040283,0.5673218,-0.8125,-0.59375,0.578125
1695505570421,-0.26293945,-0.8508911,0.5717163,0.59375,-0.421875,0.78125
1695505570452,-0.2529297,-0.85235596,0.572937,0.234375,-0.296875,0.640625
1695505570497,-0.2619629,-0.8479614,0.57733154,-0.328125,-0.453125,0.609375
1695505570526,-0.25219727,-0.8435669,0.571228,-0.3125,-0.78125,0.515625
1695505570571,-0.25927734,-0.8442993,0.5765991,-0.96875,-0.953125,0.421875
1695505570615,-0.25268555,-0.85235596,0.56170654,-3.6875,-0.171875,-0.015625
1695505570646,-0.25024414,-0.84820557,0.5939331,-1.578125,3.28125,-1.21875
1695505570690,-0.27978516,-0.83843994,0.61712646,1.921875,1.21875,-0.34375
1695505570766,-0.27270508,-0.83477783,0.5817261,-2.96875,-1.71875,-0.015625
1695505570769,-0.2775879,-0.8357544,0.59002686,0.1875,-2.34375,-0.03125
1695505570810,-0.2680664,-0.8543091,0.5543823,-3.078125,-1.796875,1.125
1695505570841,-0.24194336,-0.85162354,0.590271,-0.671875,3.265625,1.25
1695505570886,-0.2692871,-0.8057251,0.5985718,2.09375,3.78125,0.859375
1695505570931,-0.26367188,-0.8245239,0.5795288,1.421875,-0.296875,1.8125
1695505570961,-0.26049805,-0.8447876,0.59710693,2.6875,-0.4375,1.8125
1695505571006,-0.24243164,-0.83428955,0.57073975,3.671875,-0.8125,1.40625
1695505571036,-0.24926758,-0.83843994,0.56463623,2.46875,-1.953125,1.328125
1695505571081,-0.24584961,-0.85040283,0.5709839,2.421875,-1.109375,1.46875
1695505571126,-0.2548828,-0.8440552,0.5687866,2.0,-2.171875,1.5
1695505571156,-0.25878906,-0.84869385,0.5739136,1.015625,-1.875,1.15625
1695505571201,-0.26757812,-0.8460083,0.5726929,0.203125,-1.703125,0.53125
1695505571246,-0.26635742,-0.84698486,0.57562256,-0.34375,-1.6875,0.3125
1695505571276,-0.26391602,-0.8477173,0.56463623,1.0,-0.984375,0.828125
1695505571321,-0.25878906,-0.8501587,0.5663452,1.078125,-0.09375,1.015625
1695505571351,-0.2590332,-0.84625244,0.56243896,0.859375,-0.25,1.125
1695505571396,-0.26245117,-0.8584595,0.5619507,0.609375,0.421875,1.09375
1695505571440,-0.25805664,-0.84625244,0.5717163,0.609375,0.6875,1.046875
1695505571486,-0.2529297,-0.8460083,0.57025146,0.703125,0.65625,1.25
1695505571516,-0.25708008,-0.8543091,0.56829834,0.078125,-0.203125,0.71875
1695505571562,-0.25512695,-0.8477173,0.56781006,0.125,-0.03125,0.859375
1695505571591,-0.25634766,-0.84698486,0.5651245,0.46875,0.1875,0.59375
1695505571636,-0.25830078,-0.85357666,0.5668335,-0.640625,-0.671875,0.65625
1695505571666,-0.2626953,-0.8345337,0.5734253,1.46875,0.28125,0.5
1695505571711,-0.25439453,-0.85723877,0.5504761,-1.78125,-0.96875,0.90625
1695505571756,-0.2668457,-0.8389282,0.5819702,0.625,0.015625,0.609375
1695505571785,-0.2607422,-0.8501587,0.56658936,0.578125,-0.65625,0.875
1695505571830,-0.25463867,-0.84747314,0.56365967,-1.0625,-0.296875,0.765625
1695505571875,-0.2631836,-0.8518677,0.56951904,-0.28125,-0.109375,0.765625
1695505571905,-0.25512695,-0.833313,0.5734253,0.5,-0.421875,0.578125
1695505571950,-0.26220703,-0.84576416,0.57025146,0.140625,-0.03125,1.03125
1695505571982,-0.25341797,-0.8418579,0.57440186,0.140625,-0.390625,0.375
1695505572025,-0.26611328,-0.84576416,0.5741577,0.609375,-0.328125,0.6875
1695505572070,-0.25830078,-0.83966064,0.5734253,0.90625,-0.796875,1.125
1695505572102,-0.2602539,-0.8464966,0.55755615,0.09375,-1.078125,1.078125
1695505572146,-0.25463867,-0.8550415,0.5626831,0.34375,-0.375,1.015625
1695505572175,-0.25756836,-0.8538208,0.56585693,0.46875,-0.21875,0.984375
1695505572221,-0.2590332,-0.83917236,0.5668335,0.453125,-0.25,1.09375
1695505572266,-0.25830078,-0.8464966,0.56365967,0.640625,-0.703125,1.109375
1695505572296,-0.26635742,-0.850647,0.571228,-0.484375,-0.296875,1.046875
1695505572341,-0.27075195,-0.8411255,0.5734253,-0.125,-0.125,1.28125
1695505572386,-0.25952148,-0.84161377,0.56414795,-0.296875,-0.875,1.21875
1695505572416,-0.2536621,-0.85162354,0.5609741,-0.046875,-0.421875,1.015625
1695505572461,-0.25927734,-0.83551025,0.5856323,0.09375,0.296875,0.734375
1695505572492,-0.2590332,-0.8557739,0.55755615,0.640625,-0.28125,1.0625
1695505572536,-0.25732422,-0.84942627,0.57073975,-1.203125,-0.125,0.25
1695505572581,-0.26367188,-0.84088135,0.57855225,1.578125,0.984375,0.59375
1695505572611,-0.26220703,-0.84381104,0.56903076,-0.140625,-0.34375,0.75
1695505572655,-0.26123047,-0.8435669,0.5700073,-0.8125,-0.21875,0.71875
1695505572701,-0.26049805,-0.84088135,0.571228,-0.125,-0.6875,0.671875
1695505572732,-0.2590332,-0.8440552,0.5765991,0.640625,-0.171875,0.609375
1695505572775,-0.24951172,-0.848938,0.5726929,-0.171875,-0.734375,0.859375
1695505572807,-0.2614746,-0.8406372,0.57562256,0.21875,-0.015625,0.703125
1695505572851,-0.25708008,-0.8442993,0.5726929,0.3125,-0.015625,0.859375
1695505572896,-0.2565918,-0.8460083,0.5739136,0.1875,-0.140625,0.703125
1695505572926,-0.2614746,-0.84259033,0.5775757,0.078125,-0.40625,0.4375
1695505572971,-0.26293945,-0.84161377,0.5783081,0.140625,-0.515625,0.65625
1695505573001,-0.26123047,-0.84552,0.57684326,0.1875,-0.578125,0.71875
1695505573046,-0.265625,-0.8428345,0.57366943,0.140625,-0.5,0.90625
1695505573092,-0.2614746,-0.8442993,0.5692749,0.40625,-0.40625,0.6875
1695505573120,-0.26098633,-0.8518677,0.57025146,0.03125,-0.171875,0.71875
1695505573166,-0.26342773,-0.84747314,0.58270264,0.609375,0.0,0.8125
1695505573211,-0.25854492,-0.84039307,0.5673218,0.390625,-0.09375,0.6875
1695505573240,-0.2644043,-0.8477173,0.5675659,0.609375,0.21875,0.59375
1695505573285,-0.26342773,-0.8526001,0.57073975,-0.09375,-0.46875,0.75
1695505573316,-0.2619629,-0.8435669,0.5790405,2.453125,-0.234375,1.0
1695505573360,-0.25610352,-0.8526001,0.56365967,-1.90625,-0.828125,0.71875
1695505573405,-0.26660156,-0.83917236,0.57806396,1.78125,0.4375,1.09375
1695505573435,-0.2553711,-0.8399048,0.5656128,2.578125,-0.546875,1.171875
1695505573481,-0.2626953,-0.85528564,0.5697632,1.1875,-0.265625,1.078125
1695505573526,-0.25463867,-0.84454346,0.5643921,1.03125,-0.171875,0.65625
1695505573555,-0.2626953,-0.8369751,0.5602417,2.53125,0.34375,0.828125
1695505573601,-0.26171875,-0.8530884,0.56536865,2.109375,-0.265625,0.90625
1695505573631,-0.26538086,-0.8538208,0.5639038,1.0625,-0.046875,0.75
1695505573676,-0.26000977,-0.85284424,0.5565796,1.515625,-0.171875,0.8125
1695505573721,-0.25756836,-0.85723877,0.55340576,0.921875,0.28125,1.453125
1695505573751,-0.25170898,-0.8452759,0.5614624,1.84375,-0.46875,1.65625
1695505573796,-0.25805664,-0.8609009,0.56121826,1.40625,-0.5,1.1875
1695505573842,-0.25830078,-0.8508911,0.5516968,1.78125,0.265625,0.984375
1695505573870,-0.2548828,-0.8538208,0.5570679,1.6875,0.234375,0.78125
1695505573915,-0.2626953,-0.850647,0.55633545,2.21875,0.3125,0.453125
1695505573945,-0.25805664,-0.85943604,0.55023193,2.640625,0.46875,0.53125
1695505573990,-0.2644043,-0.8652954,0.5421753,1.0625,0.296875,0.40625
1695505574036,-0.25268555,-0.85821533,0.54681396,0.5,1.09375,-0.0625
1695505574066,-0.25561523,-0.866272,0.5507202,1.921875,0.109375,1.34375
1695505574112,-0.2644043,-0.8689575,0.55023193,1.0625,0.1875,0.84375
1695505574141,-0.2578125,-0.85040283,0.54730225,-0.484375,-0.0625,0.5
1695505574185,-0.26245117,-0.8609009,0.5507202,2.203125,0.171875,1.515625
1695505574231,-0.24536133,-0.8623657,0.5392456,-2.625,-0.515625,0.140625
1695505574261,-0.25830078,-0.8657837,0.5578003,2.078125,1.546875,1.046875
1695505574306,-0.25170898,-0.8538208,0.5470581,-0.515625,0.4375,0.625
1695505574349,-0.2536621,-0.8557739,0.54315186,0.109375,0.234375,0.75
1695505574381,-0.2553711,-0.85943604,0.5504761,0.3125,0.0,0.53125
1695505574426,-0.25756836,-0.8567505,0.55145264,0.90625,0.40625,0.671875
1695505574455,-0.2524414,-0.85894775,0.5392456,-0.796875,-0.4375,0.578125
1695505574500,-0.2536621,-0.85943604,0.5541382,-0.15625,0.203125,0.59375
1695505574548,-0.26220703,-0.8484497,0.55096436,0.125,-0.125,0.828125
1695505574576,-0.2607422,-0.8591919,0.5494995,-0.375,-0.484375,0.640625
1695505574621,-0.26220703,-0.85943604,0.55145264,0.546875,0.015625,0.828125
1695505574665,-0.25,-0.8484497,0.5438843,-0.046875,0.09375,0.671875
1695505574696,-0.25024414,-0.8587036,0.54681396,0.140625,0.40625,0.84375
1695505574741,-0.25170898,-0.85406494,0.54730225,0.1875,0.265625,1.0625
1695505574770,-0.25756836,-0.85772705,0.5492554,0.109375,-0.25,0.765625
1695505574816,-0.25195312,-0.8521118,0.55218506,0.015625,0.078125,0.65625
1695505574861,-0.2553711,-0.86065674,0.5536499,-0.203125,0.296875,0.6875
1695505574890,-0.25317383,-0.85943604,0.5553589,-0.078125,-0.171875,0.65625
1695505574936,-0.25732422,-0.8513794,0.5553589,-0.375,0.28125,0.609375
1695505574966,-0.25561523,-0.8521118,0.55682373,-0.625,-0.578125,0.5625
1695505575011,-0.2607422,-0.8452759,0.5685425,-0.09375,0.140625,0.75
1695505575055,-0.25976562,-0.8591919,0.5421753,-3.546875,-1.03125,0.625
1695505575086,-0.2536621,-0.8530884,0.5709839,-2.03125,0.328125,-0.125
1695505575131,-0.2548828,-0.85772705,0.56121826,-4.046875,0.171875,-0.234375
1695505575175,-0.24072266,-0.8584595,0.58587646,-6.65625,4.265625,-2.515625
1695505575205,-0.29882812,-0.81744385,0.61053467,-1.546875,4.21875,-1.453125
1695505575250,-0.28027344,-0.8130493,0.5775757,3.921875,-0.140625,1.078125
1695505575281,-0.26000977,-0.8399048,0.57147217,5.828125,-0.5,3.703125
1695505575326,-0.24584961,-0.8557739,0.54681396,6.265625,-1.75,4.359375
1695505575371,-0.23535156,-0.8530884,0.5321655,-1.4375,-1.84375,2.71875
1695505575401,-0.24975586,-0.862854,0.56658936,2.328125,-2.734375,2.890625
1695505575446,-0.25268555,-0.85943604,0.54071045,0.359375,-2.703125,1.96875
1695505575491,-0.25390625,-0.8718872,0.5648804,2.484375,-1.34375,2.03125
1695505575521,-0.24121094,-0.8533325,0.539978,-0.0625,0.453125,0.96875
1695505575567,-0.26513672,-0.8501587,0.55682373,0.203125,-0.203125,0.265625
1695505575596,-0.25463867,-0.86676025,0.56073,1.1875,-0.75,1.21875
1695505575641,-0.2434082,-0.850647,0.56048584,0.90625,-0.734375,1.578125
1695505575684,-0.24438477,-0.8550415,0.56414795,-1.015625,-1.203125,1.421875
1695505575715,-0.2541504,-0.85479736,0.56073,0.71875,-0.75,1.75
1695505575760,-0.24584961,-0.8513794,0.5536499,0.671875,0.703125,1.109375
1695505575805,-0.24926758,-0.85528564,0.55682373,0.828125,-0.3125,0.6875
1695505575836,-0.2541504,-0.85235596,0.5529175,2.046875,0.5625,0.015625
1695505575881,-0.24804688,-0.864563,0.5548706,-1.125,0.53125,-0.328125
1695505575912,-0.2644043,-0.8599243,0.55999756,1.328125,1.640625,-0.328125
1695505575957,-0.23583984,-0.8545532,0.55389404,1.171875,0.21875,0.234375
1695505576001,-0.24926758,-0.85650635,0.5499878,0.09375,-0.09375,0.703125
1695505576031,-0.2553711,-0.8616333,0.55145264,-0.4375,-0.46875,0.578125
1695505576076,-0.24267578,-0.84454346,0.55340576,-1.109375,-0.84375,0.59375
1695505576106,-0.24121094,-0.8609009,0.5609741,-0.21875,-0.640625,0.78125
1695505576152,-0.25170898,-0.85821533,0.555603,0.359375,-0.375,0.859375
1695505576197,-0.26293945,-0.8518677,0.5648804,1.875,-0.203125,0.3125
1695505576226,-0.2590332,-0.8640747,0.56243896,0.9375,0.15625,0.84375
1695505576271,-0.25683594,-0.85040283,0.5446167,0.859375,0.171875,0.4375
1695505576315,-0.2553711,-0.8530884,0.5475464,0.4375,0.125,0.640625
1695505576345,-0.2590332,-0.86553955,0.55804443,0.84375,0.25,0.78125
1695505576391,-0.2434082,-0.850647,0.5487671,0.015625,-0.1875,0.78125
1695505576422,-0.24804688,-0.8543091,0.55584717,-0.5,-0.703125,0.828125
1695505576466,-0.25170898,-0.8533325,0.55389404,-0.4375,-0.09375,0.640625
1695505576512,-0.24584961,-0.85357666,0.56170654,-0.1875,-0.703125,0.6875
1695505576540,-0.25,-0.8584595,0.5626831,-0.71875,-0.421875,0.53125
1695505576586,-0.2524414,-0.8555298,0.55999756,-1.5,-0.84375,0.40625
1695505576630,-0.26586914,-0.84332275,0.5663452,0.140625,0.03125,0.359375
1695505576662,-0.25268555,-0.85894775,0.5446167,-4.875,-1.609375,0.140625
1695505576706,-0.26538086,-0.85113525,0.56951904,-2.3125,-0.890625,0.140625
1695505576736,-0.26245117,-0.8513794,0.56048584,-2.828125,0.609375,-0.15625
1695505576780,-0.25048828,-0.84503174,0.5656128,-4.796875,2.265625,-1.6875
1695505576826,-0.2685547,-0.8423462,0.6039429,3.15625,2.828125,-0.5625
1695505576855,-0.26220703,-0.8479614,0.5890503,4.421875,3.421875,0.6875
1695505576900,-0.2644043,-0.83551025,0.58807373,3.21875,2.046875,1.671875
1695505576945,-0.25170898,-0.83477783,0.58343506,5.828125,1.265625,3.421875
1695505576976,-0.23779297,-0.8555298,0.5475464,5.671875,1.203125,4.046875
1695505577022,-0.23388672,-0.8508911,0.5477905,8.453125,0.1875,4.609375
1695505577050,-0.2475586,-0.85894775,0.54315186,7.03125,0.71875,3.765625
1695505577096,-0.24072266,-0.8609009,0.52020264,3.703125,-1.109375,2.21875
1695505577140,-0.22241211,-0.86798096,0.512146,2.078125,-1.046875,1.640625
1695505577170,-0.22045898,-0.86920166,0.494812,-0.359375,-1.421875,0.40625
1695505577217,-0.22338867,-0.8740845,0.5336304,0.65625,-0.34375,0.0
1695505577246,-0.2475586,-0.88946533,0.5565796,1.921875,-1.671875,0.9375
1695505577291,-0.23999023,-0.8833618,0.5248413,-1.625,-2.4375,0.34375
1695505577336,-0.22924805,-0.8599243,0.53900146,-1.921875,-1.921875,0.140625
1695505577365,-0.2553711,-0.8765259,0.5543823,0.5625,-0.40625,0.75
1695505577411,-0.2368164,-0.8701782,0.5258179,-1.984375,-1.796875,0.640625
1695505577455,-0.2536621,-0.85821533,0.5414429,0.375,-0.109375,0.984375
1695505577486,-0.24243164,-0.86798096,0.53533936,0.6875,0.546875,0.671875
1695505577531,-0.24951172,-0.866272,0.53045654,-0.78125,0.640625,0.1875
1695505577561,-0.24487305,-0.86016846,0.5265503,-1.171875,-0.640625,0.234375
1695505577605,-0.24169922,-0.8723755,0.54241943,0.796875,0.46875,0.171875
1695505577650,-0.24047852,-0.8591919,0.53656006,-1.296875,-0.640625,0.40625
1695505577681,-0.24560547,-0.8623657,0.5507202,-1.453125,-0.75,0.578125
1695505577725,-0.2524414,-0.86187744,0.54852295,-0.828125,-0.359375,0.828125
1695505577771,-0.25024414,-0.84869385,0.5429077,-0.234375,-0.796875,1.125
1695505577801,-0.24560547,-0.8635864,0.54193115,0.125,-0.875,1.21875
1695505577845,-0.2355957,-0.87091064,0.5470581,0.390625,0.0,1.015625
1695505577876,-0.23510742,-0.8584595,0.5307007,-0.53125,-0.265625,0.65625
1695505577921,-0.234375,-0.8579712,0.5477905,-0.328125,0.0625,0.78125
1695505577968,-0.25610352,-0.86968994,0.55267334,1.265625,0.03125,0.90625
1695505577995,-0.24414062,-0.86553955,0.5326538,-0.828125,-0.203125,0.4375
1695505578041,-0.24804688,-0.8701782,0.52948,-0.625,-0.09375,0.671875
1695505578071,-0.24829102,-0.8633423,0.5453491,-3.890625,3.859375,-0.375
1695505578117,-0.24438477,-0.8609009,0.56292725,3.375,1.65625,0.3125
1695505578161,-0.24365234,-0.85113525,0.5553589,-3.0625,-0.5625,0.03125
1695505578191,-0.24267578,-0.85284424,0.55926514,1.1875,2.046875,0.4375
1695505578237,-0.24267578,-0.85723877,0.5595093,0.6875,-0.203125,0.125
1695505578282,-0.2446289,-0.85162354,0.559021,-0.671875,-1.234375,0.515625
1695505578311,-0.2548828,-0.86065674,0.55633545,-0.796875,-1.828125,0.671875
1695505578356,-0.24584961,-0.86431885,0.5487671,-0.9375,-0.609375,0.34375
1695505578385,-0.24853516,-0.85235596,0.5614624,-1.546875,-0.953125,0.359375
1695505578431,-0.2541504,-0.8621216,0.56073,-0.296875,-1.03125,0.765625
1695505578477,-0.25341797,-0.848938,0.55462646,-0.359375,-0.359375,0.125
1695505578506,-0.25512695,-0.8557739,0.55755615,0.96875,-0.359375,0.8125
1695505578550,-0.25317383,-0.8479614,0.55218506,-0.46875,-0.1875,0.21875
1695505578595,-0.2536621,-0.85357666,0.5560913,0.0625,-0.078125,0.6875
1695505578626,-0.2512207,-0.85357666,0.5570679,-0.375,0.25,0.8125
1695505578671,-0.25317383,-0.85040283,0.5661011,0.125,-0.15625,0.96875
1695505578701,-0.25170898,-0.85772705,0.5656128,0.09375,-0.25,1.09375
1695505578746,-0.25268555,-0.8518677,0.5492554,0.140625,-0.015625,0.765625
1695505578791,-0.25195312,-0.8543091,0.5597534,-0.421875,-0.375,0.703125
1695505578821,-0.24975586,-0.8530884,0.55218506,-0.890625,-0.109375,0.625
1695505578866,-0.25341797,-0.84552,0.5739136,-1.625,-0.90625,0.46875
1695505578896,-0.25854492,-0.85357666,0.5704956,1.703125,-0.125,1.1875
1695505578941,-0.2487793,-0.8609009,0.5560913,-4.03125,-0.921875,0.53125
1695505578987,-0.2590332,-0.8479614,0.5717163,1.03125,1.234375,0.984375
1695505579016,-0.24169922,-0.8538208,0.5619507,-0.734375,0.21875,1.265625
1695505579061,-0.25073242,-0.84503174,0.57928467,-2.609375,-0.078125,0.625
1695505579106,-0.2680664,-0.8496704,0.5819702,-0.609375,0.078125,0.671875
1695505579136,-0.26513672,-0.8323364,0.576355,3.1875,0.15625,0.984375
1695505579181,-0.2331543,-0.85040283,0.55999756,2.203125,3.40625,0.421875
1695505579210,-0.26098633,-0.8513794,0.5848999,4.40625,2.625,0.734375
1695505579257,-0.25463867,-0.84161377,0.5704956,2.890625,1.15625,0.640625
1695505579301,-0.24389648,-0.8555298,0.55755615,3.265625,0.53125,1.1875
1695505579331,-0.2446289,-0.8599243,0.5585327,2.890625,-0.578125,1.609375
1695505579376,-0.23803711,-0.8562622,0.55511475,0.96875,-1.765625,1.65625
1695505579422,-0.23950195,-0.850647,0.5429077,-0.0625,-1.828125,1.625
1695505579450,-0.23754883,-0.84869385,0.54119873,0.203125,-1.328125,1.5
1695505579496,-0.23583984,-0.8701782,0.5414429,-1.375,-0.515625,0.921875
1695505579526,-0.23901367,-0.8501587,0.5602417,-0.234375,0.46875,-0.015625
1695505579572,-0.25878906,-0.8579712,0.5673218,0.5,-1.015625,0.671875
1695505579617,-0.25170898,-0.86553955,0.5387573,-1.9375,-1.4375,0.0
1695505579645,-0.24633789,-0.8413696,0.57806396,0.15625,-0.015625,-0.046875
1695505579691,-0.26635742,-0.8567505,0.5704956,1.375,-0.546875,1.0
1695505579735,-0.24584961,-0.8543091,0.5614624,-2.265625,-1.421875,0.328125
1695505579765,-0.25634766,-0.8530884,0.5619507,-0.28125,-0.875,1.125
1695505579812,-0.25610352,-0.85406494,0.5585327,1.96875,-0.8125,1.171875
1695505579841,-0.2421875,-0.86260986,0.5531616,-0.828125,-0.8125,1.28125
1695505579886,-0.24682617,-0.866272,0.55584717,0.03125,0.171875,-0.0625
1695505579931,-0.25756836,-0.85772705,0.56536865,2.34375,0.734375,0.234375
1695505579961,-0.2553711,-0.8442993,0.5626831,-0.03125,-0.640625,0.046875
1695505580006,-0.25170898,-0.84820557,0.55267334,-0.84375,-0.84375,0.09375
1695505580036,-0.26342773,-0.84747314,0.57196045,0.6875,0.0,0.109375
1695505580082,-0.26416016,-0.84820557,0.5560913,0.25,-0.625,0.890625
1695505580126,-0.25268555,-0.8604126,0.5512085,-1.234375,-0.84375,0.34375
1695505580156,-0.25952148,-0.85528564,0.572937,0.765625,-0.140625,0.875
1695505580202,-0.25048828,-0.85235596,0.5631714,0.0,-0.359375,0.9375
1695505580245,-0.25952148,-0.8460083,0.5582886,0.28125,-0.0625,0.890625
1695505580276,-0.25756836,-0.85235596,0.5656128,0.1875,0.15625,0.875
1695505580320,-0.25854492,-0.850647,0.56536865,0.046875,-0.703125,0.71875
1695505580351,-0.25756836,-0.8533325,0.5626831,0.03125,-0.515625,0.625
1695505580396,-0.2548828,-0.8440552,0.56121826,0.84375,-0.015625,0.75
1695505580441,-0.25854492,-0.85284424,0.5626831,0.21875,-0.03125,0.84375
1695505580471,-0.26782227,-0.8460083,0.5602417,-0.234375,-0.421875,0.609375
1695505580517,-0.26391602,-0.85162354,0.5626831,-0.59375,-2.09375,0.828125
1695505580561,-0.25512695,-0.86724854,0.54730225,-0.296875,-1.109375,1.0625
1695505580590,-0.25830078,-0.848938,0.5758667,-1.734375,-1.40625,0.65625
1695505580635,-0.27172852,-0.8569946,0.5578003,1.125,-1.0,1.328125
1695505580666,-0.25195312,-0.84747314,0.56707764,-2.171875,-0.375,0.59375
1695505580711,-0.26611328,-0.8452759,0.5656128,0.8125,0.5625,0.765625
1695505580756,-0.2668457,-0.84576416,0.5661011,0.171875,0.0625,0.9375
1695505580786,-0.25927734,-0.84210205,0.5709839,-0.671875,-0.09375,1.015625
1695505580831,-0.25756836,-0.85040283,0.5692749,-0.515625,-0.59375,0.734375
1695505580860,-0.25976562,-0.8413696,0.56536865,0.328125,0.046875,0.953125
1695505580921,-0.26000977,-0.8452759,0.56243896,0.203125,0.109375,0.875
1695505580951,-0.25756836,-0.84088135,0.5697632,-0.40625,-0.078125,0.65625
1695505580980,-0.25634766,-0.8484497,0.5680542,0.296875,-0.171875,0.640625
1695505581026,-0.25952148,-0.8526001,0.5790405,0.171875,-0.28125,0.671875
1695505581071,-0.26049805,-0.84332275,0.5668335,-0.15625,-0.296875,0.515625
1695505581100,-0.25927734,-0.8508911,0.5697632,-0.34375,-0.375,0.53125
1695505581146,-0.26782227,-0.84332275,0.5722046,-0.515625,-0.25,0.546875
1695505581177,-0.26513672,-0.85162354,0.5722046,-0.546875,-0.484375,0.703125
1695505581221,-0.2553711,-0.8496704,0.5631714,-1.6875,-0.3125,0.296875
1695505581266,-0.26171875,-0.8513794,0.58221436,-1.875,1.71875,-0.390625
1695505581296,-0.26635742,-0.8374634,0.588562,-1.765625,3.328125,-0.71875
1695505581341,-0.2590332,-0.82818604,0.5944214,2.859375,2.8125,0.09375
1695505581385,-0.2644043,-0.83428955,0.5775757,1.234375,0.921875,0.671875
1695505581415,-0.2685547,-0.8362427,0.59368896,2.53125,1.5,1.03125
1695505581461,-0.26733398,-0.8308716,0.5841675,2.25,0.296875,1.203125
1695505581490,-0.2697754,-0.84381104,0.5709839,4.78125,1.0625,2.328125
1695505581536,-0.25732422,-0.86016846,0.55804443,2.203125,-1.34375,2.734375
1695505581581,-0.25024414,-0.84454346,0.55096436,4.046875,0.71875,2.1875
1695505581611,-0.23828125,-0.84747314,0.54022217,-1.3125,-1.875,1.53125
1695505581655,-0.26098633,-0.8640747,0.5595093,0.71875,-1.359375,1.109375
1695505581701,-0.24853516,-0.8557739,0.5805054,1.90625,-0.4375,0.828125
1695505581731,-0.25610352,-0.8533325,0.56170654,-0.46875,-0.734375,0.765625
1695505581776,-0.25048828,-0.8555298,0.5529175,-2.296875,-0.890625,-0.03125
1695505581805,-0.25854492,-0.847229,0.5787964,0.78125,0.140625,0.53125
1695505581851,-0.2619629,-0.8508911,0.5697632,0.609375,-0.265625,1.078125
1695505581895,-0.25195312,-0.8501587,0.5673218,-0.40625,-0.171875,0.953125
1695505581926,-0.2631836,-0.8496704,0.5717163,1.421875,0.375,1.15625
1695505581971,-0.2512207,-0.8491821,0.5553589,0.875,0.3125,1.15625
1695505582000,-0.25341797,-0.8543091,0.559021,0.609375,0.171875,1.0625
1695505582045,-0.25341797,-0.8533325,0.55755615,0.375,0.109375,0.5
1695505582090,-0.2553711,-0.84820557,0.5602417,0.796875,0.09375,0.53125
1695505582121,-0.24804688,-0.8460083,0.5626831,0.609375,0.03125,0.328125
1695505582166,-0.25561523,-0.8550415,0.57366943,0.25,-0.484375,0.4375
1695505582210,-0.25585938,-0.84454346,0.55804443,-0.375,-0.4375,0.21875
1695505582242,-0.25927734,-0.85723877,0.5758667,0.5625,-0.328125,0.5
1695505582285,-0.25708008,-0.8550415,0.5619507,0.171875,-0.296875,0.765625
1695505582316,-0.24682617,-0.8477173,0.56121826,0.75,0.1875,0.890625
1695505582361,-0.25073242,-0.8562622,0.5651245,0.578125,-0.203125,0.875
1695505582405,-0.2536621,-0.84869385,0.5675659,0.421875,-0.6875,0.890625
1695505582436,-0.25805664,-0.85723877,0.555603,0.015625,-0.46875,0.703125
1695505582481,-0.24853516,-0.8508911,0.571228,-0.8125,-0.8125,0.40625
1695505582525,-0.26049805,-0.8555298,0.56292725,1.3125,-0.53125,0.65625
1695505582555,-0.25024414,-0.8545532,0.5656128,-2.046875,-0.390625,0.4375
1695505582601,-0.25708008,-0.84820557,0.56585693,0.890625,0.5,0.765625
1695505582632,-0.24804688,-0.84503174,0.56536865,0.65625,-0.078125,0.78125
1695505582677,-0.26098633,-0.847229,0.57147217,-0.6875,-0.15625,0.890625
1695505582722,-0.25732422,-0.8464966,0.5675659,-0.359375,-1.0,0.875
1695505582751,-0.25732422,-0.84576416,0.571228,-0.03125,-1.671875,1.015625
1695505582796,-0.2590332,-0.85113525,0.57977295,0.03125,-2.203125,1.25
1695505582827,-0.2590332,-0.84820557,0.5524292,-1.203125,-2.53125,0.953125
1695505582871,-0.2553711,-0.8562622,0.5656128,-0.546875,-0.640625,0.765625
1695505582916,-0.2565918,-0.847229,0.5700073,0.421875,-0.34375,0.90625
1695505582946,-0.2602539,-0.8435669,0.5648804,0.65625,-0.4375,1.046875
1695505582991,-0.25732422,-0.84576416,0.5739136,-0.046875,0.1875,0.828125
1695505583035,-0.26171875,-0.84552,0.5697632,0.03125,0.0,0.875
1695505583066,-0.25854492,-0.84503174,0.5685425,0.15625,-0.09375,1.03125
1695505583111,-0.2512207,-0.8460083,0.5685425,0.4375,-0.296875,1.03125
1695505583141,-0.26538086,-0.84503174,0.56707764,0.46875,-0.109375,0.875
1695505583186,-0.25610352,-0.8508911,0.56463623,0.078125,-0.046875,0.78125
1695505583231,-0.2578125,-0.85040283,0.57366943,-0.265625,-0.234375,0.78125
1695505583261,-0.2644043,-0.848938,0.56951904,-0.21875,-0.140625,0.765625
1695505583305,-0.26391602,-0.84454346,0.5634155,0.0625,0.140625,0.796875
1695505583351,-0.26171875,-0.847229,0.574646,0.046875,-0.109375,0.703125
1695505583382,-0.25854492,-0.8423462,0.5697632,0.34375,0.203125,0.515625
1695505583426,-0.2602539,-0.850647,0.5634155,-0.875,-0.75,0.765625
1695505583457,-0.26391602,-0.84381104,0.57562256,1.484375,0.25,0.734375
1695505583500,-0.24975586,-0.8508911,0.54852295,-2.21875,0.0,0.53125
1695505583546,-0.2614746,-0.8508911,0.5770874,-0.375,1.9375,-0.0625
1695505583575,-0.25268555,-0.84088135,0.58221436,0.921875,3.359375,-0.453125
1695505583620,-0.25512695,-0.84210205,0.5819702,-0.140625,2.453125,-0.296875
1695505583666,-0.2685547,-0.8245239,0.5895386,2.140625,1.515625,0.921875
1695505583696,-0.2644043,-0.83306885,0.5800171,1.921875,-0.40625,1.421875
1695505583742,-0.2553711,-0.84747314,0.5685425,3.109375,-0.578125,1.984375
1695505583771,-0.24511719,-0.84454346,0.5582886,2.265625,-1.65625,2.390625
1695505583816,-0.24194336,-0.85113525,0.5487671,0.890625,-1.65625,1.984375
1695505583861,-0.24291992,-0.8521118,0.5634155,-0.25,-1.09375,1.25
1695505583891,-0.26733398,-0.850647,0.5673218,2.03125,-2.0625,1.625
1695505583936,-0.24658203,-0.86138916,0.54730225,-2.1875,-1.234375,0.015625
1695505583965,-0.25683594,-0.85650635,0.57928467,-0.203125,-0.25,0.0
1695505584011,-0.2668457,-0.8484497,0.57562256,1.359375,-0.234375,0.375
1695505584057,-0.24829102,-0.831604,0.5726929,0.625,-0.21875,0.46875
1695505584086,-0.26000977,-0.8543091,0.5687866,0.609375,-0.234375,1.15625
1695505584131,-0.25878906,-0.8518677,0.56536865,0.46875,-0.171875,1.078125
1695505584176,-0.24951172,-0.85601807,0.5541382,-0.015625,-0.546875,1.234375
1695505584206,-0.25,-0.86383057,0.5631714,0.140625,-0.0625,0.828125
1695505584251,-0.25683594,-0.8538208,0.55218506,0.421875,0.078125,0.90625
1695505584281,-0.25170898,-0.84210205,0.5639038,-0.359375,0.109375,0.203125
1695505584326,-0.26049805,-0.8501587,0.56829834,-0.78125,-0.25,0.53125
1695505584371,-0.25952148,-0.82818604,0.5817261,0.90625,0.171875,0.046875
1695505584402,-0.25976562,-0.8538208,0.5465698,-1.296875,-1.375,0.890625
1695505584445,-0.25634766,-0.8460083,0.5829468,-0.296875,-0.265625,0.171875
1695505584490,-0.25610352,-0.84552,0.56658936,0.65625,-0.203125,0.703125
1695505584521,-0.25390625,-0.847229,0.56707764,0.25,0.3125,0.953125
1695505584566,-0.25317383,-0.8389282,0.56903076,0.234375,0.328125,1.03125
1695505584595,-0.26342773,-0.84991455,0.5680542,1.515625,-0.5,0.84375
1695505584641,-0.26513672,-0.8538208,0.5634155,0.984375,-0.515625,1.125
1695505584685,-0.2602539,-0.8550415,0.57147217,0.5,-1.25,1.078125
1695505584715,-0.25683594,-0.8521118,0.5595093,-0.015625,-0.59375,0.828125
1695505584761,-0.2590332,-0.85284424,0.5619507,0.734375,-0.109375,0.921875
1695505584791,-0.26000977,-0.84991455,0.5626831,0.359375,-0.109375,0.953125
1695505584836,-0.25610352,-0.8521118,0.5648804,0.546875,-0.359375,0.828125
1695505584881,-0.25976562,-0.8467407,0.5697632,0.15625,-0.59375,1.0625
1695505584911,-0.25830078,-0.8428345,0.55682373,-0.828125,-0.75,0.53125
1695505584957,-0.25732422,-0.8452759,0.5692749,-0.25,-0.375,0.65625
1695505585002,-0.25976562,-0.8550415,0.56585693,0.296875,-0.40625,0.84375
1695505585031,-0.25195312,-0.85650635,0.5692749,-0.34375,-0.359375,0.578125
1695505585076,-0.25805664,-0.8521118,0.5639038,-0.140625,-0.375,0.75
1695505585106,-0.25952148,-0.85040283,0.5687866,0.578125,-0.125,0.875
1695505585151,-0.25927734,-0.84381104,0.55877686,-0.140625,-0.34375,0.796875
1695505585196,-0.25927734,-0.84381104,0.5704956,0.109375,-0.140625,0.8125
1695505585226,-0.26342773,-0.8557739,0.56121826,0.46875,0.15625,0.8125
1695505585271,-0.2548828,-0.85357666,0.5685425,-0.75,-0.6875,0.828125
1695505585316,-0.26513672,-0.84698486,0.56121826,1.953125,0.453125,0.984375
1695505585346,-0.25756836,-0.84698486,0.5685425,-2.671875,-0.703125,0.390625
1695505585391,-0.26660156,-0.8460083,0.5734253,0.53125,0.609375,0.71875
1695505585421,-0.2590332,-0.8460083,0.5734253,-0.203125,-0.046875,0.515625
1695505585466,-0.2619629,-0.8386841,0.57366943,-1.234375,0.140625,0.71875
1695505585512,-0.25952148,-0.8477173,0.5775757,-0.6875,-0.796875,0.578125
1695505585541,-0.2644043,-0.8447876,0.5751343,-0.265625,-0.1875,0.546875
1695505585586,-0.25463867,-0.84039307,0.57073975,-0.390625,-0.421875,0.828125
1695505585631,-0.26098633,-0.8501587,0.574646,-1.015625,-0.203125,0.578125
1695505585661,-0.25878906,-0.84454346,0.57855225,-0.015625,0.4375,0.390625
1695505585706,-0.25048828,-0.8604126,0.58636475,-3.546875,3.828125,0.0
1695505585737,-0.25708008,-0.8357544,0.5968628,-0.421875,5.8125,-0.578125
1695505585782,-0.25732422,-0.8250122,0.5934448,3.359375,2.390625,0.34375
1695505585826,-0.26489258,-0.8411255,0.5824585,2.0,1.46875,1.625
1695505585856,-0.25708008,-0.83135986,0.57684326,3.625,1.125,2.203125
1695505585901,-0.24804688,-0.84503174,0.57855225,3.171875,0.390625,2.140625
1695505585931,-0.25048828,-0.85528564,0.5722046,2.078125,-0.40625,2.5625
1695505585975,-0.2409668,-0.84747314,0.56707764,2.84375,-0.046875,2.21875
1695505586024,-0.24023438,-0.8513794,0.55926514,2.921875,-0.578125,2.4375
1695505586051,-0.23266602,-0.848938,0.54852295,0.078125,-1.578125,1.59375
1695505586097,-0.23071289,-0.8491821,0.56121826,-0.328125,-1.8125,1.03125
1695505586141,-0.24194336,-0.86383057,0.56536865,0.75,-1.84375,1.3125
1695505586171,-0.24731445,-0.85894775,0.5734253,0.34375,-2.265625,0.75
1695505586216,-0.2536621,-0.8435669,0.56292725,1.078125,-0.75,0.421875
1695505586245,-0.24560547,-0.85284424,0.55340576,-1.15625,-1.578125,0.65625
1695505586291,-0.25024414,-0.8538208,0.56829834,0.578125,-0.21875,0.59375
1695505586337,-0.24194336,-0.85601807,0.55999756,0.671875,0.0,0.515625
1695505586365,-0.25317383,-0.8491821,0.56463623,-0.1875,0.265625,1.0625
1695505586410,-0.24804688,-0.85821533,0.5619507,-0.546875,-0.328125,0.5625
1695505586457,-0.2434082,-0.84259033,0.5758667,1.609375,0.109375,0.625
1695505586486,-0.25073242,-0.8538208,0.5631714,-0.109375,-0.21875,0.859375
1695505586532,-0.24829102,-0.85162354,0.56073,0.109375,-0.5,0.40625
1695505586560,-0.25146484,-0.84210205,0.57318115,0.78125,-0.265625,0.609375
1695505586607,-0.2529297,-0.85162354,0.55999756,0.40625,-0.40625,0.390625
1695505586651,-0.25,-0.85723877,0.56073,0.484375,-0.84375,0.515625
1695505586681,-0.24536133,-0.8587036,0.56536865,0.28125,-0.6875,0.671875
1695505586726,-0.25463867,-0.8530884,0.5656128,0.65625,-0.65625,0.75
1695505586757,-0.24536133,-0.8530884,0.56414795,0.28125,-0.734375,0.984375
1695505586801,-0.25073242,-0.85162354,0.55999756,0.0625,-0.625,0.640625
1695505586845,-0.25195312,-0.847229,0.5656128,0.125,-0.4375,0.625
1695505586876,-0.25756836,-0.8557739,0.56707764,0.0625,-0.296875,0.75
1695505586921,-0.2529297,-0.84991455,0.5619507,0.140625,-0.4375,0.59375
1695505586965,-0.25268555,-0.8557739,0.56073,0.109375,-0.78125,0.84375
1695505586996,-0.26220703,-0.86065674,0.5570679,-0.125,-0.40625,0.828125
1695505587041,-0.24658203,-0.85284424,0.56170654,-0.34375,-0.875,0.734375
1695505587070,-0.2565918,-0.8521118,0.56243896,1.296875,-0.515625,1.1875
1695505587116,-0.24682617,-0.8623657,0.55926514,-2.234375,-0.4375,0.328125
1695505587161,-0.25805664,-0.8513794,0.5619507,1.1875,0.8125,0.765625
1695505587191,-0.25878906,-0.8501587,0.5675659,0.25,-0.171875,0.4375
1695505587236,-0.25195312,-0.85040283,0.5651245,-0.78125,0.015625,0.71875
1695505587281,-0.25830078,-0.8526001,0.56658936,-0.59375,-0.484375,0.546875
1695505587311,-0.2602539,-0.83843994,0.5656128,-0.046875,-0.328125,0.46875
1695505587357,-0.25219727,-0.84991455,0.57025146,0.0,-0.515625,0.9375
1695505587386,-0.25585938,-0.85284424,0.5687866,-0.703125,-0.6875,0.5625
1695505587431,-0.2607422,-0.8543091,0.57196045,0.890625,0.53125,0.765625
1695505587476,-0.2524414,-0.84942627,0.5651245,0.359375,0.03125,0.703125
1695505587506,-0.2524414,-0.8423462,0.5651245,0.25,0.0625,0.484375
1695505587551,-0.25317383,-0.847229,0.5663452,0.59375,0.15625,0.765625
1695505587596,-0.2578125,-0.85040283,0.572937,0.109375,0.015625,0.984375
1695505587626,-0.24609375,-0.84161377,0.56781006,-0.109375,0.421875,0.71875
1695505587671,-0.26367188,-0.85113525,0.5680542,-0.109375,1.5625,1.03125
1695505587701,-0.26171875,-0.85284424,0.5775757,0.515625,0.4375,0.90625
1695505587746,-0.25585938,-0.8406372,0.5717163,0.03125,-0.203125,1.125
1695505587791,-0.25219727,-0.8545532,0.5687866,0.203125,-0.1875,1.078125
1695505587821,-0.24829102,-0.8460083,0.57366943,-0.203125,-0.234375,0.65625
1695505587867,-0.25048828,-0.84942627,0.56292725,-0.25,-0.515625,0.6875
1695505587896,-0.24389648,-0.83477783,0.5800171,-0.375,-0.109375,0.265625
1695505587942,-0.2553711,-0.8599243,0.55462646,-0.1875,0.75,0.4375
1695505587987,-0.24658203,-0.8557739,0.5841675,-4.0625,1.421875,-0.828125
1695505588017,-0.26611328,-0.83184814,0.6051636,1.671875,2.140625,0.078125
1695505588061,-0.25708008,-0.8464966,0.5570679,-1.828125,-0.703125,0.875
1695505588106,-0.2680664,-0.8399048,0.5873413,-1.703125,-1.0,1.015625
1695505588136,-0.26635742,-0.83673096,0.58514404,1.9375,-1.46875,2.25
1695505588181,-0.24560547,-0.8411255,0.58880615,1.4375,0.71875,1.75
1695505588211,-0.23852539,-0.8311157,0.57977295,2.46875,-0.015625,2.640625
1695505588259,-0.24853516,-0.84625244,0.56536865,2.703125,0.078125,2.34375
1695505588301,-0.2397461,-0.8508911,0.5663452,2.859375,-0.4375,2.015625
1695505588331,-0.2265625,-0.8411255,0.5597534,2.6875,-1.171875,1.671875
1695505588376,-0.23608398,-0.84820557,0.5541382,0.765625,-2.546875,1.25
1695505588421,-0.25634766,-0.8838501,0.5685425,1.015625,-1.75,0.859375
1695505588466,-0.25146484,-0.8545532,0.5626831,-0.90625,0.03125,-0.46875
1695505588496,-0.25610352,-0.84820557,0.5734253,0.921875,0.078125,0.234375
1695505588526,-0.2536621,-0.84552,0.5631714,1.125,-0.15625,0.65625
1695505588571,-0.24951172,-0.8413696,0.5621948,0.421875,0.390625,0.578125
1695505588616,-0.25561523,-0.85235596,0.5687866,0.703125,-0.1875,1.21875
1695505588647,-0.2512207,-0.85772705,0.5673218,0.875,-0.21875,1.1875
1695505588691,-0.24951172,-0.8604126,0.55804443,0.265625,-1.03125,1.328125
1695505588721,-0.24047852,-0.8440552,0.56463623,1.546875,0.515625,0.609375
1695505588767,-0.24023438,-0.85284424,0.55023193,-0.921875,-0.21875,0.625
1695505588811,-0.2578125,-0.8584595,0.5770874,-0.125,-0.421875,-0.15625
1695505588841,-0.24682617,-0.84576416,0.55755615,0.28125,-0.546875,0.15625
1695505588885,-0.2590332,-0.8496704,0.56365967,-0.171875,-0.6875,0.5
1695505588931,-0.25732422,-0.8533325,0.5726929,-0.75,-1.171875,0.421875
1695505588961,-0.2548828,-0.84869385,0.574646,0.6875,-0.828125,0.875
1695505589005,-0.24804688,-0.85479736,0.5482788,-1.96875,-0.171875,0.6875
1695505589036,-0.25512695,-0.86016846,0.5824585,1.90625,0.28125,1.15625
1695505589081,-0.25,-0.84698486,0.5609741,0.390625,-0.140625,0.453125
1695505589126,-0.2529297,-0.8484497,0.56707764,0.015625,0.015625,0.40625
1695505589156,-0.25463867,-0.8496704,0.5704956,0.390625,-0.25,0.671875
1695505589201,-0.25024414,-0.8555298,0.56365967,0.015625,-0.578125,0.390625
1695505589245,-0.25683594,-0.85113525,0.5656128,0.171875,-0.25,0.78125
1695505589275,-0.2548828,-0.84625244,0.56781006,0.578125,0.453125,0.875
1695505589320,-0.2565918,-0.85528564,0.56073,-0.09375,0.03125,0.875
1695505589352,-0.24853516,-0.8452759,0.56121826,-0.71875,-0.109375,0.640625
1695505589396,-0.25854492,-0.84698486,0.57147217,0.515625,-1.25,1.0
1695505589441,-0.2529297,-0.85235596,0.5692749,-0.765625,-1.984375,0.75
1695505589472,-0.24853516,-0.8518677,0.56903076,-0.71875,-1.359375,0.59375
1695505589516,-0.25854492,-0.8484497,0.559021,-0.5,-0.640625,0.46875
1695505589561,-0.26416016,-0.8362427,0.58221436,1.65625,0.28125,0.609375
1695505589591,-0.24926758,-0.850647,0.54559326,-1.1875,-0.96875,0.953125
1695505589636,-0.2644043,-0.84088135,0.576355,0.109375,0.703125,0.3125
1695505589666,-0.26293945,-0.84576416,0.5717163,1.03125,0.25,0.75
1695505589711,-0.25390625,-0.8538208,0.5651245,-0.453125,-0.0625,0.8125
1695505589756,-0.25219727,-0.8435669,0.5626831,-0.078125,-0.421875,0.8125
1695505589786,-0.25268555,-0.8452759,0.57196045,0.171875,-0.625,0.765625
1695505589830,-0.25585938,-0.8501587,0.574646,0.078125,0.0,0.484375
1695505589861,-0.2614746,-0.847229,0.57318115,0.203125,-0.40625,0.703125
1695505589905,-0.26489258,-0.8521118,0.5651245,0.234375,-0.125,0.59375
1695505589951,-0.25732422,-0.8442993,0.57366943,0.390625,0.203125,0.921875
1695505589981,-0.265625,-0.8467407,0.56781006,0.171875,0.234375,0.78125
1695505590025,-0.25927734,-0.8521118,0.5661011,-0.171875,-0.5625,0.828125
1695505590071,-0.25683594,-0.8430786,0.576355,0.125,-0.1875,0.90625
1695505590101,-0.2578125,-0.8452759,0.5704956,0.203125,-0.296875,0.625
1695505590145,-0.25268555,-0.8428345,0.56951904,0.03125,-0.421875,0.640625
1695505590175,-0.25805664,-0.8418579,0.5697632,-0.140625,0.0625,0.203125
1695505590221,-0.2590332,-0.8513794,0.56903076,-0.53125,1.015625,-0.578125
1695505590267,-0.2565918,-0.84576416,0.59173584,-0.90625,2.359375,-1.0625
1695505590296,-0.26538086,-0.83477783,0.58392334,1.0,1.515625,0.296875
1695505590340,-0.26489258,-0.84039307,0.56536865,1.890625,0.84375,1.15625
1695505590416,-0.26245117,-0.8496704,0.56951904,2.65625,0.78125,1.6875
1695505590419,-0.2578125,-0.82159424,0.58392334,4.515625,2.359375,1.625
1695505590461,-0.24633789,-0.8569946,0.5494995,2.921875,0.578125,2.828125
1695505590491,-0.2578125,-0.8508911,0.57440186,3.578125,1.0,1.875
1695505590538,-0.25146484,-0.8508911,0.54608154,3.0625,1.078125,2.609375
1695505590582,-0.23071289,-0.83917236,0.539978,2.109375,0.515625,2.015625
1695505590611,-0.23120117,-0.84503174,0.5507202,0.9375,-1.140625,1.140625
1695505590656,-0.2524414,-0.85723877,0.56585693,2.71875,-4.6875,2.703125
1695505590685,-0.24780273,-0.880188,0.54681396,1.671875,-3.453125,1.46875
1695505590731,-0.2241211,-0.8687134,0.5204468,-5.96875,-0.140625,-1.265625
1695505590776,-0.2626953,-0.8640747,0.57440186,-1.03125,0.25,-0.875
1695505590806,-0.2746582,-0.85528564,0.5704956,3.6875,-0.0625,1.140625
1695505590851,-0.24609375,-0.8484497,0.55023193,0.78125,-0.234375,0.921875
1695505590895,-0.24072266,-0.8521118,0.56365967,-0.03125,-0.578125,1.171875
1695505590926,-0.25146484,-0.85723877,0.55389404,0.5625,-0.796875,1.296875
1695505590972,-0.24047852,-0.86602783,0.54315186,0.015625,-0.84375,1.28125
1695505591001,-0.23925781,-0.8623657,0.55389404,0.125,0.203125,1.0625
1695505591046,-0.25219727,-0.8579712,0.5524292,1.03125,0.75,0.875
1695505591090,-0.24267578,-0.8496704,0.5609741,0.328125,-0.015625,0.40625
1695505591121,-0.25,-0.85284424,0.55804443,-0.140625,-0.015625,0.40625
1695505591166,-0.24975586,-0.8526001,0.55267334,-0.046875,-0.375,0.53125
1695505591212,-0.25170898,-0.8562622,0.54681396,-0.328125,-0.71875,0.59375
1695505591241,-0.25073242,-0.8430786,0.5722046,1.53125,0.0,0.640625
1695505591288,-0.24902344,-0.8640747,0.53900146,-0.578125,-0.796875,1.15625
1695505591361,-0.25170898,-0.84869385,0.5668335,-0.765625,-0.265625,0.34375
1695505591376,-0.24926758,-0.8596802,0.56048584,1.046875,-0.28125,0.875
1695505591406,-0.24902344,-0.85650635,0.5507202,-0.4375,-0.234375,0.671875
1695505591436,-0.24902344,-0.85357666,0.555603,-0.453125,-0.4375,0.609375
1695505591481,-0.25683594,-0.8545532,0.5570679,0.046875,-0.609375,0.578125
1695505591525,-0.24926758,-0.85723877,0.5643921,0.90625,0.46875,0.796875
1695505591557,-0.24926758,-0.85528564,0.55462646,0.03125,-0.328125,0.703125
1695505591600,-0.24829102,-0.84942627,0.56121826,0.375,0.15625,0.828125
1695505591632,-0.2602539,-0.85894775,0.55633545,0.640625,0.09375,0.84375
1695505591677,-0.25195312,-0.85284424,0.5531616,0.296875,-0.171875,0.828125
1695505591720,-0.24584961,-0.8584595,0.55023193,-0.046875,-0.5,0.703125
1695505591750,-0.25268555,-0.86309814,0.5602417,0.1875,-0.015625,0.765625
1695505591795,-0.25,-0.85894775,0.5582886,0.3125,-0.421875,0.578125
1695505591825,-0.2475586,-0.8538208,0.5548706,0.140625,-0.15625,0.65625
1695505591870,-0.2536621,-0.8530884,0.5529175,0.15625,-0.296875,0.640625
1695505591916,-0.25610352,-0.8587036,0.5597534,0.09375,-0.296875,0.71875
1695505591945,-0.2536621,-0.8567505,0.55804443,0.109375,-0.109375,0.625
1695505591990,-0.25024414,-0.8569946,0.559021,0.28125,-0.046875,0.71875
1695505592036,-0.2529297,-0.85284424,0.56170654,0.15625,-0.125,0.9375
1695505592065,-0.25390625,-0.85284424,0.55877686,0.3125,-0.078125,0.6875
1695505592111,-0.25268555,-0.85894775,0.55511475,-0.59375,-1.125,0.640625
1695505592140,-0.25756836,-0.84259033,0.5643921,1.515625,-0.1875,0.71875
1695505592186,-0.24926758,-0.8657837,0.54241943,-2.5625,-0.96875,0.703125
1695505592230,-0.25952148,-0.8484497,0.56781006,0.765625,0.296875,0.796875
1695505592259,-0.2529297,-0.85284424,0.5536499,0.34375,-0.046875,0.59375
1695505592306,-0.25195312,-0.850647,0.55877686,-1.546875,0.265625,0.765625
1695505592380,-0.24584961,-0.8467407,0.5548706,-1.09375,0.09375,0.328125
1695505592395,-0.25976562,-0.85040283,0.5648804,-0.6875,0.078125,0.5
1695505592426,-0.25170898,-0.8464966,0.5675659,-0.359375,0.15625,0.53125
1695505592456,-0.24536133,-0.8521118,0.5704956,-0.578125,-0.203125,0.375
1695505592500,-0.25878906,-0.850647,0.5722046,-0.890625,0.484375,0.265625
1695505592545,-0.25024414,-0.85357666,0.5717163,0.203125,0.6875,0.359375
1695505592577,-0.2548828,-0.8442993,0.57611084,-0.1875,0.234375,0.71875
1695505592620,-0.25073242,-0.8521118,0.5722046,-0.390625,0.09375,0.5
1695505592650,-0.26000977,-0.84698486,0.56951904,0.375,0.296875,1.03125
1695505592695,-0.25634766,-0.8430786,0.5787964,0.140625,0.53125,1.0
1695505592740,-0.2626953,-0.83917236,0.5787964,0.3125,0.25,1.109375
1695505592770,-0.2541504,-0.83551025,0.5661011,0.796875,0.40625,0.96875
1695505592815,-0.25683594,-0.8401489,0.5753784,1.015625,0.3125,1.109375
1695505592860,-0.2397461,-0.8484497,0.57489014,0.921875,0.171875,1.234375
1695505592890,-0.24291992,-0.84576416,0.5651245,0.890625,-0.109375,0.828125
1695505592935,-0.25,-0.84820557,0.57025146,1.234375,0.21875,1.0
1695505592965,-0.25195312,-0.8508911,0.57366943,1.15625,0.203125,1.0625
1695505593010,-0.25317383,-0.8447876,0.56903076,1.359375,0.046875,0.953125
1695505593055,-0.24975586,-0.8545532,0.5639038,1.40625,-0.453125,1.359375
1695505593087,-0.24902344,-0.8518677,0.5687866,0.4375,-0.125,0.71875
1695505593131,-0.25146484,-0.8545532,0.5519409,1.28125,-0.171875,0.875
1695505593205,-0.24780273,-0.86260986,0.5741577,-0.03125,-0.734375,0.640625
1695505593209,-0.25439453,-0.84942627,0.5700073,1.734375,-0.03125,1.0625
1695505593252,-0.24731445,-0.850647,0.56073,1.3125,-1.0,0.875
1695505593326,-0.24853516,-0.84942627,0.5512085,0.78125,-0.265625,0.140625
1695505593329,-0.25024414,-0.85040283,0.56292725,1.828125,0.453125,0.5625
1695505593371,-0.25463867,-0.8567505,0.5758667,3.90625,1.0,1.21875
1695505593400,-0.2524414,-0.8545532,0.56243896,2.671875,-0.09375,1.9375
1695505593446,-0.24365234,-0.8555298,0.5438843,2.25,-0.21875,1.46875
1695505593490,-0.24121094,-0.86724854,0.54437256,1.75,-0.015625,1.5
1695505593520,-0.24536133,-0.8569946,0.5421753,1.546875,-0.578125,1.90625
1695505593566,-0.23901367,-0.85528564,0.5307007,0.296875,-1.375,1.21875
1695505593595,-0.23828125,-0.86846924,0.5336304,-0.90625,-0.65625,0.4375
1695505593641,-0.25341797,-0.8633423,0.55389404,1.125,-0.125,0.796875
1695505593686,-0.25512695,-0.8711548,0.5631714,0.703125,-0.28125,0.734375
1695505593717,-0.23803711,-0.8460083,0.5421753,-0.203125,-0.859375,0.296875
1695505593761,-0.25268555,-0.8635864,0.54974365,0.46875,-1.203125,1.15625
1695505593791,-0.25341797,-0.87628174,0.5465698,-0.15625,-0.671875,1.046875
1695505593836,-0.2368164,-0.8591919,0.545105,0.140625,-0.453125,0.75
1695505593881,-0.24780273,-0.85772705,0.5512085,0.671875,-0.25,0.953125
1695505593911,-0.25341797,-0.86309814,0.55023193,0.296875,-0.125,1.03125
1695505593956,-0.24975586,-0.8584595,0.5392456,-0.203125,-0.6875,0.953125
1695505594001,-0.2446289,-0.8496704,0.55877686,0.890625,0.59375,0.4375
1695505594030,-0.24487305,-0.8718872,0.5231323,-1.15625,-0.546875,0.59375
1695505594076,-0.2529297,-0.85772705,0.5680542,0.109375,-0.234375,0.25
1695505594105,-0.24926758,-0.8609009,0.541687,0.203125,-0.515625,1.078125
1695505594150,-0.24536133,-0.86920166,0.5519409,-0.03125,-0.359375,0.984375
1695505594196,-0.25024414,-0.8562622,0.54974365,-0.84375,-0.125,0.484375
1695505594226,-0.2541504,-0.8621216,0.5426636,-0.640625,-0.53125,0.671875
1695505594272,-0.24243164,-0.86016846,0.5582886,1.109375,-0.015625,0.6875
1695505594316,-0.24365234,-0.8584595,0.55023193,-0.484375,-0.5625,0.734375
1695505594346,-0.25585938,-0.8587036,0.55999756,0.0625,-0.125,0.578125
1695505594390,-0.24902344,-0.8609009,0.54681396,0.125,-1.203125,1.109375
1695505594422,-0.24829102,-0.86260986,0.5453491,-0.109375,-1.28125,0.828125
1695505594465,-0.2487793,-0.8508911,0.5463257,-0.46875,-0.59375,0.5
1695505594511,-0.2578125,-0.8635864,0.55511475,0.09375,0.140625,0.625
1695505594541,-0.24682617,-0.8599243,0.5504761,0.25,-0.1875,0.671875
1695505594586,-0.25048828,-0.8584595,0.5453491,-0.578125,0.046875,0.390625
1695505594616,-0.2590332,-0.8557739,0.55682373,-0.25,0.375,0.84375
1695505594661,-0.2644043,-0.85601807,0.5619507,0.09375,-0.53125,0.90625
1695505594706,-0.25195312,-0.8633423,0.5621948,-0.390625,-1.0625,1.140625
1695505594736,-0.2512207,-0.85357666,0.5492554,0.03125,-0.8125,0.734375
1695505594781,-0.24902344,-0.8579712,0.5621948,0.0625,-0.03125,0.96875
1695505594825,-0.2553711,-0.84820557,0.5543823,0.4375,-0.4375,1.015625
1695505594855,-0.25219727,-0.8604126,0.5492554,-0.390625,-0.5,0.859375
1695505594901,-0.25439453,-0.85162354,0.5663452,0.375,-0.453125,0.453125
1695505594931,-0.25195312,-0.85650635,0.5421753,0.375,-1.109375,1.140625
1695505594976,-0.25073242,-0.85357666,0.56073,-1.53125,0.125,0.234375
1695505595022,-0.25976562,-0.8567505,0.5570679,1.046875,0.109375,0.765625
1695505595051,-0.25317383,-0.85406494,0.55462646,-0.5625,0.0,0.265625
1695505595096,-0.25073242,-0.85284424,0.5621948,-0.484375,0.203125,0.734375
1695505595172,-0.2590332,-0.8579712,0.5578003,0.0625,-0.484375,0.765625
1695505595176,-0.25512695,-0.8530884,0.5597534,0.25,-0.421875,0.796875
1695505595216,-0.25708008,-0.8545532,0.56243896,0.078125,-0.9375,0.859375
1695505595246,-0.2524414,-0.8521118,0.5631714,-0.109375,-0.703125,0.859375
1695505595291,-0.25073242,-0.8640747,0.55389404,0.3125,-0.171875,0.9375
1695505595336,-0.25,-0.85357666,0.55633545,0.25,0.46875,0.734375
1695505595366,-0.24902344,-0.85528564,0.5609741,0.421875,0.375,0.71875
1695505595411,-0.25708008,-0.8530884,0.55926514,-0.109375,-0.1875,0.75
1695505595440,-0.2536621,-0.8599243,0.5595093,0.03125,0.140625,0.71875
1695505595484,-0.25268555,-0.8530884,0.5631714,0.234375,-0.15625,0.6875
