,timestamp,accel_x,accel_y,accel_z,gyro_x,gyro_y,gyro_z
0,1697605965,-0.796875,0.11425781,-0.14257812,34.25,-71.65625,-52.0
1,1697606005,-1.1455078,0.26171875,0.20800781,38.65625,-73.875,-51.15625
2,1697606045,-1.3876953,0.14550781,0.20800781,-23.71875,-71.65625,-41.125
3,1697606085,-1.1318359,-0.07421875,0.1640625,22.46875,-94.75,-15.75
4,1697606125,-0.67871094,-0.11425781,0.2626953,53.71875,-84.34375,-2.8125
5,1697606165,-0.71777344,0.06542969,0.3486328,44.9375,-79.59375,-7.03125
6,1697606205,-0.55078125,0.09863281,0.27246094,25.03125,-73.5,-8.375
7,1697606245,-0.5019531,0.064453125,0.31835938,16.625,-20.15625,10.8125
8,1697606285,-0.6738281,0.056640625,0.49316406,-16.09375,49.0,18.3125
9,1697606325,-0.9824219,-0.09375,0.73828125,-25.0625,81.34375,15.125
10,1697606365,-1.2792969,-0.32617188,0.7207031,25.21875,11.21875,-8.84375
11,1697606405,-1.15625,0.0703125,0.6191406,-5.46875,-21.90625,-24.125
12,1697606445,-0.95410156,-0.001953125,0.8964844,16.1875,41.125,-15.875
13,1697606485,-0.8847656,0.3701172,0.07519531,-16.9375,-48.65625,15.4375
14,1697606525,-0.7705078,0.05859375,0.005859375,-43.5,18.375,32.59375
15,1697606565,-0.95703125,-0.1875,0.18066406,-17.4375,38.5625,3.96875
16,1697606605,-1.0292969,0.020507812,0.24804688,-7.1875,72.25,0.0625
17,1697606645,-0.78125,0.07421875,0.16601562,-38.6875,62.0,-3.40625
18,1697606685,-0.75878906,-0.08300781,0.09082031,-48.5,58.53125,3.0625
19,1697606725,-0.86035156,-0.13183594,0.15332031,-25.75,60.96875,10.625
20,1697606765,-0.90527344,-0.15527344,0.19335938,-16.34375,54.9375,19.59375
21,1697606805,-0.9404297,-0.26367188,0.22265625,3.0625,39.96875,30.875
22,1697606845,-1.0332031,-0.171875,0.20898438,20.21875,33.375,34.46875
23,1697606885,-1.1943359,-0.23535156,0.18945312,8.25,21.78125,32.28125
24,1697606925,-1.0849609,-0.22753906,0.16699219,-1.5,14.21875,13.96875
25,1697606965,-1.1572266,-0.20898438,0.21972656,-1.03125,-10.375,1.71875
26,1697607005,-1.0253906,-0.0029296875,-0.12402344,6.6875,-49.4375,-37.46875
27,1697607045,-0.9121094,0.29589844,0.13671875,69.84375,-61.65625,-83.4375
28,1697607085,-1.8417969,0.4423828,0.29101562,-9.5,-77.8125,-66.84375
29,1697607125,-1.2148438,-0.091796875,0.20703125,-41.375,-91.8125,-28.5
30,1697607165,-0.7626953,-0.26171875,0.12011719,41.65625,-85.6875,-14.78125
31,1697607205,-0.61621094,-0.041015625,0.25390625,86.09375,-81.375,-15.6875
32,1697607245,-0.6074219,0.10644531,0.28515625,73.4375,-68.71875,-14.46875
33,1697607285,-0.5283203,0.1328125,0.33203125,38.28125,-32.25,-7.375
34,1697607325,-0.56152344,0.09277344,0.37109375,-1.3125,20.5,10.0625
35,1697607365,-0.76464844,-0.04296875,0.50097656,-18.71875,80.0,26.84375
36,1697607405,-1.2177734,-0.16894531,0.9169922,12.84375,84.34375,6.09375
37,1697607445,-1.2919922,-0.16308594,0.47753906,-1.375,-32.40625,-9.78125
38,1697607485,-0.7470703,-0.23925781,0.6875,-17.5625,23.625,-12.21875
39,1697607525,-1.8330078,0.2685547,0.21484375,-2.375,-10.125,13.5625
40,1697607565,-0.70703125,0.19726562,-0.08691406,-47.15625,-41.21875,44.375
41,1697607605,-0.89453125,-0.14453125,0.23925781,-24.28125,28.8125,20.4375
42,1697607645,-0.9003906,-0.1015625,0.068359375,-6.3125,61.28125,-2.0625
43,1697607685,-0.9785156,0.17382812,0.234375,-40.625,58.90625,0.0625
44,1697607725,-0.7675781,0.0087890625,0.18261719,-72.78125,61.03125,9.9375
45,1697607765,-0.8183594,-0.19238281,0.10058594,-67.4375,57.59375,14.09375
46,1697607805,-0.8779297,-0.2109375,0.19921875,-44.90625,52.59375,19.84375
47,1697607845,-0.8203125,-0.35742188,0.23144531,-18.0,47.46875,26.84375
48,1697607885,-0.9746094,-0.24121094,0.18164062,23.09375,31.84375,32.34375
49,1697607925,-1.1201172,-0.11621094,0.23339844,33.09375,26.0625,31.1875
50,1697607965,-1.1025391,-0.17578125,0.18066406,16.1875,16.40625,25.9375
51,1697608005,-1.1699219,-0.16796875,0.22070312,-5.84375,4.15625,10.8125
52,1697608045,-1.4355469,-0.024414062,0.06933594,13.6875,-23.25,-17.46875
53,1697608085,-0.7578125,0.030273438,-0.087890625,22.84375,-80.4375,-63.25
54,1697608125,-1.2568359,0.24414062,0.19921875,52.09375,-71.84375,-58.78125
55,1697608165,-1.5273438,0.19140625,0.2685547,-11.8125,-66.21875,-40.65625
56,1697608205,-1.0458984,-0.13574219,0.18847656,9.0,-87.53125,-16.1875
57,1697608245,-0.6328125,-0.10546875,0.18359375,60.1875,-79.40625,-12.875
58,1697608285,-0.63183594,0.0029296875,0.29492188,77.15625,-66.0,-16.125
59,1697608325,-0.6435547,0.1640625,0.296875,38.84375,-66.96875,-18.5
60,1697608365,-0.49609375,0.1015625,0.2783203,21.8125,-25.75,1.21875
61,1697608405,-0.6064453,0.061523438,0.41503906,-7.96875,40.59375,16.40625
62,1697608445,-0.91796875,-0.08105469,0.5361328,-26.65625,84.9375,24.53125
63,1697608485,-1.3505859,-0.14550781,0.96875,23.46875,54.8125,6.59375
64,1697608525,-1.1972656,-0.13476562,0.5644531,-18.71875,-36.5625,-15.125
65,1697608565,-0.609375,-0.2705078,0.67089844,0.09375,30.375,-7.3125
66,1697608605,-1.7880859,0.2626953,0.044921875,3.8125,-12.46875,23.0625
67,1697608645,-0.85058594,0.076171875,-0.032226562,-61.375,-15.9375,31.125
68,1697608685,-0.83984375,-0.19726562,0.16699219,-25.4375,26.90625,18.375
69,1697608725,-1.0283203,0.024414062,0.1015625,-4.6875,76.21875,3.90625
70,1697608765,-0.9482422,0.123046875,0.19140625,-52.90625,49.75,-0.96875
71,1697608805,-0.7636719,-0.09375,0.12011719,-74.625,51.5,12.5
72,1697608845,-0.84277344,-0.21386719,0.140625,-51.6875,57.1875,20.375
73,1697608885,-0.82714844,-0.22265625,0.17089844,-30.0,56.21875,23.75
74,1697608925,-0.79589844,-0.22851562,0.13183594,0.625,39.375,25.75
75,1697608965,-1.0419922,-0.14257812,0.23339844,22.65625,35.28125,28.5
76,1697609005,-1.1552734,-0.2421875,0.20898438,23.03125,16.78125,30.15625
77,1697609045,-1.0566406,-0.12402344,0.1875,11.9375,12.4375,14.65625
78,1697609085,-1.1884766,-0.17675781,0.13867188,-0.59375,-5.3125,7.25
79,1697609125,-1.2832031,0.016601562,-0.038085938,4.21875,-42.78125,-40.34375
80,1697609165,-0.7265625,0.13769531,-0.0068359375,36.28125,-77.53125,-62.3125
81,1697609205,-1.5517578,0.2734375,0.2734375,29.8125,-74.46875,-46.21875
82,1697609245,-1.2900391,0.020507812,0.20507812,-37.28125,-78.3125,-34.125
83,1697609285,-0.90625,-0.22070312,0.21679688,35.125,-86.96875,-11.0625
84,1697609325,-0.6464844,-0.091796875,0.25878906,74.3125,-61.96875,-9.40625
85,1697609365,-0.67871094,0.12597656,0.33691406,63.875,-63.4375,-15.75
86,1697609405,-0.546875,0.13769531,0.23144531,34.125,-50.65625,-13.4375
87,1697609445,-0.53808594,0.076171875,0.28027344,9.40625,2.0625,7.375
88,1697609485,-0.6933594,-0.0126953125,0.5332031,-12.5625,66.75,20.8125
89,1697609525,-1.1308594,-0.051757812,0.83496094,-8.03125,92.21875,13.25
90,1697609565,-1.5693359,-0.32714844,0.45507812,22.78125,-24.53125,-0.75
91,1697609605,-0.81152344,-0.024414062,0.79003906,-20.65625,-26.375,-22.34375
92,1697609645,-1.5966797,-0.103515625,0.15136719,0.03125,-10.9375,-2.6875
93,1697609685,-0.82910156,0.45214844,0.078125,-12.3125,-9.90625,28.0625
94,1697609725,-0.82910156,-0.07910156,0.13964844,-37.6875,10.71875,27.9375
95,1697609765,-0.92578125,-0.18652344,-0.020507812,-18.28125,60.53125,2.6875
96,1697609805,-1.0820312,0.09082031,0.28515625,-23.1875,62.375,-7.25
97,1697609845,-0.640625,0.052734375,0.107421875,-55.34375,51.1875,-5.75
98,1697609885,-0.96484375,-0.17382812,0.13671875,-43.875,59.25,6.34375
99,1697609925,-0.8769531,-0.14550781,0.18261719,-22.5625,49.0,18.5
100,1697609965,-0.8613281,-0.18652344,0.17773438,-12.5625,45.28125,31.6875
101,1697610005,-0.9638672,-0.18261719,0.22851562,10.09375,34.84375,38.28125
102,1697610045,-1.0380859,-0.11328125,0.19824219,12.96875,24.65625,36.25
103,1697610085,-1.0009766,-0.20996094,0.23144531,2.40625,13.84375,23.6875
104,1697610125,-1.0458984,-0.24023438,0.22070312,-5.90625,7.8125,3.34375
105,1697610165,-1.5429688,-0.052734375,0.13769531,21.3125,-8.8125,-29.375
106,1697610205,-0.85839844,-0.076171875,-0.10644531,35.3125,-68.25,-62.375
107,1697610245,-1.4082031,0.34960938,0.30859375,64.03125,-71.90625,-54.1875
108,1697610285,-1.3730469,0.23242188,0.20410156,-22.4375,-70.625,-43.34375
109,1697610325,-0.98535156,-0.083984375,0.14941406,6.84375,-96.3125,-18.4375
110,1697610365,-0.6435547,-0.15234375,0.20214844,60.625,-78.8125,-12.625
111,1697610405,-0.7089844,0.029296875,0.36914062,70.46875,-64.59375,-16.3125
112,1697610445,-0.6455078,0.11230469,0.2783203,43.0625,-66.65625,-18.375
113,1697610485,-0.515625,0.08300781,0.30566406,29.875,-23.375,1.9375
114,1697610525,-0.57421875,0.11621094,0.4013672,-1.375,41.4375,15.4375
115,1697610565,-0.875,-0.12988281,0.57128906,-25.84375,82.03125,31.5625
116,1697610605,-1.0996094,-0.01953125,0.8173828,10.9375,72.5625,6.96875
117,1697610645,-1.4082031,-0.08203125,0.4794922,-2.84375,-32.53125,-7.8125
118,1697610685,-0.81347656,-0.26660156,0.8251953,-23.0625,10.625,-13.75
119,1697610725,-1.3105469,0.12207031,0.3017578,-8.71875,-2.8125,-0.5
120,1697610765,-0.9609375,0.31347656,-0.07910156,-19.8125,-17.59375,38.875
121,1697610805,-0.99316406,-0.20703125,0.17382812,-35.1875,29.28125,21.0625
122,1697610845,-0.7705078,-0.111328125,0.06347656,-2.59375,39.96875,-3.40625
123,1697610885,-1.0615234,0.24414062,0.203125,-20.78125,64.375,-1.90625
124,1697610925,-0.8222656,0.123046875,0.14257812,-74.0,50.28125,3.78125
125,1697610965,-0.79296875,-0.1953125,0.041992188,-78.96875,53.9375,11.46875
126,1697611005,-0.9140625,-0.20605469,0.18261719,-50.15625,51.625,19.40625
127,1697611045,-0.8857422,-0.25097656,0.22265625,-36.1875,46.3125,27.9375
128,1697611085,-0.86621094,-0.26367188,0.21484375,-1.25,36.375,37.09375
129,1697611125,-0.9902344,-0.18457031,0.20214844,25.28125,28.5625,30.875
130,1697611165,-1.2011719,-0.1640625,0.18261719,8.375,22.4375,24.03125
131,1697611205,-1.203125,-0.11035156,0.20996094,-3.59375,7.9375,11.09375
132,1697611245,-1.1435547,-0.20703125,-0.030273438,-5.78125,-28.34375,4.40625
133,1697611285,-0.9423828,0.07714844,-0.095703125,7.15625,-74.09375,-49.875
134,1697611325,-1.0273438,0.12597656,0.12011719,62.46875,-83.25,-67.15625
135,1697611365,-1.7353516,0.09863281,0.31933594,1.71875,-57.8125,-43.40625
136,1697611405,-1.1308594,-0.103515625,0.19335938,1.5,-90.65625,-24.71875
137,1697611445,-0.6796875,-0.018554688,0.18554688,50.625,-81.6875,-17.34375
138,1697611485,-0.6347656,-0.022460938,0.22363281,83.75,-55.625,-9.21875
139,1697611525,-0.6455078,0.11425781,0.27246094,53.78125,-57.9375,-11.21875
140,1697611565,-0.5175781,0.16113281,0.2421875,16.75,-30.46875,-6.40625
141,1697611605,-0.609375,0.07324219,0.390625,-8.40625,33.0625,17.21875
142,1697611645,-0.9267578,-0.14648438,0.55371094,-15.59375,73.53125,31.4375
143,1697611685,-1.1923828,-0.109375,0.9267578,6.125,62.0625,1.71875
144,1697611725,-1.2099609,-0.22460938,0.5175781,5.4375,-29.78125,-12.6875
145,1697611765,-0.84472656,-0.12109375,0.77441406,4.0625,28.125,-15.625
146,1697611805,-1.7744141,0.296875,0.10058594,-10.0625,-45.53125,16.65625
147,1697611845,-0.63671875,0.22949219,-0.043945312,-54.46875,-19.28125,33.3125
148,1697611885,-0.94140625,-0.3046875,0.09082031,-36.53125,35.625,13.4375
149,1697611925,-1.0634766,0.013671875,0.083984375,-1.75,69.8125,9.03125
150,1697611965,-0.9082031,0.17871094,0.18554688,-46.5625,49.90625,-1.65625
151,1697612005,-0.74609375,-0.009765625,0.13183594,-73.59375,48.75,3.53125
152,1697612045,-0.8798828,-0.20117188,0.115234375,-55.65625,52.96875,10.375
153,1697612085,-0.8691406,-0.17871094,0.21679688,-36.34375,48.21875,20.1875
154,1697612125,-0.7597656,-0.26367188,0.20996094,-14.4375,48.21875,29.21875
155,1697612165,-0.95996094,-0.26464844,0.20800781,16.25,43.21875,32.59375
156,1697612205,-1.1240234,-0.15332031,0.22753906,25.40625,33.1875,31.84375
157,1697612245,-1.0742188,-0.17480469,0.20605469,16.4375,18.71875,24.28125
158,1697612285,-1.1064453,-0.22460938,0.2841797,-1.875,7.0,1.59375
159,1697612325,-1.3710938,-0.14648438,0.11425781,8.875,-19.0,-19.90625
160,1697612365,-0.7910156,0.044921875,-0.10058594,24.5625,-68.6875,-56.65625
161,1697612405,-1.2236328,0.2705078,0.16113281,52.28125,-75.03125,-57.9375
162,1697612445,-1.6328125,0.25585938,0.3515625,-19.75,-70.9375,-44.375
163,1697612485,-1.0107422,-0.15429688,0.10449219,-7.96875,-92.40625,-20.8125
164,1697612525,-0.64453125,-0.11230469,0.17675781,50.125,-92.71875,-6.21875
165,1697612565,-0.6689453,0.072265625,0.30273438,68.5625,-68.125,-8.4375
166,1697612605,-0.5800781,0.14550781,0.31933594,34.25,-55.78125,-13.96875
167,1697612645,-0.53808594,-0.0029296875,0.31054688,16.75,-12.9375,12.625
168,1697612685,-0.6513672,-0.022460938,0.5,1.78125,53.875,24.65625
169,1697612725,-1.1044922,-0.06933594,0.6894531,-4.0625,91.65625,15.4375
170,1697612765,-1.2705078,-0.27246094,0.7714844,42.3125,3.46875,-2.3125
171,1697612805,-1.046875,0.08105469,0.5419922,-9.0625,-20.8125,-20.5625
172,1697612845,-1.0253906,-0.047851562,0.55371094,-1.1875,26.78125,-16.3125
173,1697612885,-1.1933594,0.4326172,0.009765625,5.09375,-39.0625,20.03125
174,1697612925,-0.9501953,-0.041992188,-0.064453125,-41.25,6.59375,31.90625
175,1697612965,-0.8095703,-0.12402344,0.09472656,-1.1875,43.8125,4.40625
176,1697613005,-1.0761719,0.16015625,0.22851562,-11.625,71.46875,-3.46875
177,1697613045,-0.7832031,0.13378906,0.103515625,-64.8125,49.25,0.0625
178,1697613085,-0.8496094,-0.11621094,0.068359375,-74.3125,54.75,9.65625
179,1697613125,-0.8515625,-0.19726562,0.17089844,-47.34375,50.53125,18.78125
180,1697613165,-0.83984375,-0.23046875,0.20898438,-33.375,48.40625,26.65625
181,1697613205,-0.8730469,-0.29296875,0.22265625,-5.90625,43.09375,33.25
182,1697613245,-1.0537109,-0.171875,0.23925781,22.0,33.6875,34.96875
183,1697613285,-1.1835938,-0.17675781,0.19238281,6.625,18.78125,33.75
184,1697613325,-1.0839844,-0.23046875,0.20214844,-0.65625,12.875,10.0625
185,1697613365,-1.1728516,-0.13964844,0.21386719,1.4375,-13.5625,2.375
186,1697613405,-1.0546875,0.109375,-0.22753906,0.375,-50.53125,-36.0625
187,1697613445,-1.0771484,0.19726562,0.08300781,57.8125,-74.34375,-74.21875
188,1697613485,-1.7080078,0.29101562,0.32910156,-5.96875,-73.90625,-59.15625
189,1697613525,-1.2099609,-0.115234375,0.23828125,-26.90625,-84.90625,-26.75
190,1697613565,-0.75878906,-0.1875,0.16308594,45.125,-85.15625,-19.03125
191,1697613605,-0.6269531,-0.05859375,0.19433594,96.34375,-62.15625,-12.03125
192,1697613645,-0.6435547,0.12207031,0.28515625,78.625,-58.84375,-12.8125
193,1697613685,-0.5546875,0.19628906,0.3310547,30.71875,-34.5625,-8.25
194,1697613725,-0.5722656,0.103515625,0.3310547,-5.78125,14.34375,13.4375
195,1697613765,-0.765625,-0.11035156,0.5332031,-4.4375,74.8125,26.78125
196,1697613805,-1.2304688,-0.11035156,1.0048828,8.03125,76.46875,4.8125
197,1697613845,-1.3613281,-0.27246094,0.52734375,-13.65625,-38.28125,-11.0
198,1697613885,-0.72558594,-0.30371094,0.5957031,-5.78125,9.5625,-24.59375
199,1697613925,-1.8808594,0.15234375,0.049804688,17.96875,-26.25,15.375
200,1697613965,-0.5839844,0.22949219,-0.12207031,-39.78125,-19.84375,27.15625
201,1697614005,-1.0869141,-0.13867188,0.16503906,-23.21875,38.6875,18.1875
202,1697614045,-0.99316406,0.07128906,0.17773438,-16.59375,72.5,7.03125
203,1697614085,-0.8652344,0.10546875,0.14746094,-64.4375,50.46875,-3.1875
204,1697614125,-0.75097656,-0.10839844,0.10058594,-71.4375,55.71875,2.25
205,1697614165,-0.8330078,-0.18359375,0.11425781,-42.875,56.4375,13.5625
206,1697614205,-0.8730469,-0.15527344,0.19921875,-27.8125,57.3125,26.1875
207,1697614245,-0.85058594,-0.25097656,0.20996094,-9.8125,47.125,36.25
208,1697614285,-0.98828125,-0.19628906,0.21191406,20.71875,35.625,42.0
209,1697614325,-1.1142578,-0.27734375,0.2109375,15.9375,22.9375,34.3125
210,1697614365,-1.0039062,-0.22851562,0.20507812,10.03125,12.6875,13.4375
211,1697614405,-1.1132812,-0.265625,0.24902344,6.90625,-0.125,1.78125
212,1697614445,-1.2666016,0.028320312,0.009765625,15.9375,-26.4375,-28.09375
213,1697614485,-0.7480469,0.061523438,-0.10253906,45.1875,-67.4375,-68.65625
214,1697614525,-1.6025391,0.42871094,0.2109375,51.53125,-77.78125,-62.5
215,1697614565,-1.5107422,0.20996094,0.25390625,-38.125,-76.5,-35.59375
216,1697614605,-0.9003906,-0.24707031,0.15234375,6.96875,-93.15625,-12.875
217,1697614645,-0.59472656,-0.13378906,0.19824219,65.8125,-76.0625,-10.75
218,1697614685,-0.68359375,0.048828125,0.31835938,76.75,-57.3125,-13.1875
219,1697614725,-0.6074219,0.1796875,0.27734375,37.75,-52.75,-15.375
220,1697614765,-0.5546875,0.10058594,0.32617188,9.46875,-10.4375,10.96875
221,1697614805,-0.60253906,0.021484375,0.4970703,-10.84375,58.78125,26.5625
222,1697614845,-1.0175781,-0.12597656,0.63378906,-14.375,100.28125,23.1875
223,1697614885,-1.4970703,-0.2734375,0.5126953,33.03125,-0.3125,-0.96875
224,1697614925,-0.9560547,-0.09765625,0.7519531,-27.09375,-40.59375,-29.0
225,1697614965,-1.0693359,-0.052734375,0.3876953,17.53125,12.03125,-16.125
226,1697615005,-1.1650391,0.63671875,0.06542969,21.75,-22.46875,27.53125
227,1697615045,-1.0615234,-0.095703125,-0.059570312,-51.5,-2.5625,17.28125
228,1697615085,-0.79003906,-0.19335938,0.08105469,-11.6875,27.9375,2.8125
229,1697615125,-1.0830078,0.14160156,0.25,-12.5,70.71875,-2.5
230,1697615165,-0.78027344,0.111328125,0.16308594,-66.6875,45.78125,1.53125
231,1697615205,-0.7578125,-0.20410156,0.09472656,-66.375,59.75,5.3125
232,1697615245,-0.83496094,-0.21484375,0.171875,-28.375,54.5,13.71875
233,1697615285,-0.8623047,-0.123046875,0.17089844,-20.5625,52.25,25.5
234,1697615325,-0.8964844,-0.27929688,0.23046875,-5.21875,44.375,34.71875
235,1697615365,-1.0283203,-0.14257812,0.20019531,13.09375,31.96875,36.625
236,1697615405,-1.1650391,-0.26171875,0.1875,2.15625,23.5625,29.1875
237,1697615445,-1.0371094,-0.18457031,0.23339844,-4.125,19.09375,11.09375
238,1697615485,-1.1064453,-0.41210938,0.16699219,-7.65625,2.90625,8.0625
239,1697615525,-1.2939453,0.0078125,-0.11328125,32.75,-17.40625,-41.09375
240,1697615565,-0.8691406,0.20507812,-0.076171875,52.375,-74.46875,-61.15625
241,1697615605,-1.4716797,0.4091797,0.19433594,35.46875,-77.28125,-43.09375
242,1697615645,-1.3847656,0.14160156,0.16992188,-55.21875,-85.53125,-31.0
243,1697615685,-0.8798828,-0.171875,0.23632812,6.5625,-95.78125,-9.28125
244,1697615725,-0.6113281,-0.14648438,0.23242188,51.03125,-75.6875,-8.65625
245,1697615765,-0.6777344,0.029296875,0.34277344,58.8125,-62.3125,-10.375
246,1697615805,-0.6152344,0.14941406,0.3017578,31.5,-57.875,-12.15625
247,1697615845,-0.52441406,0.080078125,0.33691406,17.28125,-2.3125,9.21875
248,1697615885,-0.67089844,0.0,0.5498047,-8.78125,64.3125,20.375
249,1697615925,-1.0527344,-0.072265625,0.69921875,-17.5,86.78125,8.46875
250,1697615965,-1.328125,-0.3232422,0.66796875,33.65625,-9.96875,-1.09375
251,1697616005,-0.95214844,-0.037109375,0.6777344,-18.96875,-13.75,-20.4375
252,1697616045,-1.9912109,0.13085938,0.13085938,-1.03125,-5.5,0.65625
253,1697616085,-0.4423828,0.30664062,-0.0009765625,-23.71875,-49.15625,26.0
254,1697616125,-0.81933594,-0.15722656,0.08105469,-22.5625,19.21875,28.8125
255,1697616165,-1.0507812,-0.068359375,0.09277344,-0.65625,69.9375,-0.5625
256,1697616205,-1.0292969,0.14550781,0.2421875,-48.5625,55.28125,-7.4375
257,1697616245,-0.64941406,0.0068359375,0.13476562,-70.15625,57.3125,-2.5625
258,1697616285,-0.8769531,-0.19628906,0.07519531,-55.75,56.4375,10.25
259,1697616325,-0.83496094,-0.18066406,0.16796875,-28.3125,51.03125,18.84375
260,1697616365,-0.8574219,-0.20898438,0.20605469,-14.1875,44.71875,32.96875
261,1697616405,-0.98828125,-0.23730469,0.24902344,11.1875,35.28125,40.59375
262,1697616445,-1.0615234,-0.072265625,0.2109375,20.28125,27.46875,37.40625
263,1697616485,-1.0351562,-0.20898438,0.23046875,4.96875,17.625,27.53125
264,1697616525,-1.0615234,-0.3310547,0.20410156,0.6875,14.53125,6.65625
265,1697616565,-1.3544922,-0.0546875,0.18652344,15.03125,-7.34375,-8.4375
266,1697616605,-1.0458984,-0.0703125,-0.171875,11.125,-49.9375,-53.34375
267,1697616645,-1.1318359,0.265625,0.22460938,62.65625,-72.875,-64.40625
268,1697616685,-1.5751953,0.33984375,0.2578125,-10.53125,-71.0,-39.5625
269,1697616725,-1.0810547,-0.055664062,0.08496094,-20.84375,-100.28125,-18.0625
270,1697616765,-0.74316406,-0.095703125,0.18066406,44.9375,-101.8125,-9.71875
271,1697616805,-0.68847656,-0.041992188,0.3173828,66.1875,-70.75,-7.09375
272,1697616845,-0.6904297,0.1015625,0.37597656,35.78125,-66.53125,-11.40625
273,1697616885,-0.49902344,0.07421875,0.28222656,16.0,-36.8125,-0.84375
274,1697616925,-0.56640625,0.041015625,0.39941406,0.625,31.90625,16.65625
275,1697616965,-0.796875,-0.0859375,0.4814453,-22.75,76.34375,24.0
276,1697617005,-1.1035156,-0.036132812,0.9404297,18.09375,65.84375,2.875
277,1697617045,-1.3496094,-0.24414062,0.45117188,-13.15625,-34.90625,-15.5625
278,1697617085,-0.6171875,-0.29492188,0.79785156,-4.75,40.46875,-21.375
279,1697617125,-1.8466797,0.21777344,0.19726562,20.65625,-11.1875,9.875
280,1697617165,-0.9296875,0.3203125,-0.08691406,-42.71875,-21.3125,31.84375
281,1697617205,-0.8359375,-0.08203125,0.24707031,-27.25,13.25,20.125
282,1697617245,-0.859375,-0.11035156,0.00390625,-6.6875,55.53125,-6.15625
283,1697617285,-1.1113281,0.16796875,0.2685547,-30.8125,62.4375,-3.34375
284,1697617325,-0.6933594,-0.018554688,0.14746094,-65.71875,53.15625,-0.0625
285,1697617365,-0.80566406,-0.19726562,0.13378906,-51.5625,59.25,7.0625
286,1697617405,-0.8671875,-0.19238281,0.19042969,-25.4375,50.78125,16.34375
287,1697617445,-0.9042969,-0.10644531,0.16015625,-7.5625,44.59375,31.96875
288,1697617485,-0.9267578,-0.21777344,0.20898438,14.78125,37.09375,43.53125
289,1697617525,-1.0800781,-0.099609375,0.23144531,18.09375,30.21875,39.125
290,1697617565,-1.0351562,-0.15625,0.19335938,10.21875,22.28125,25.875
291,1697617605,-1.0712891,-0.19921875,0.22265625,-4.5625,17.03125,8.3125
292,1697617645,-1.2392578,-0.1953125,0.10644531,-12.375,-8.6875,-0.75
293,1697617685,-0.99902344,-0.095703125,-0.10449219,-2.1875,-42.65625,-45.65625
294,1697617725,-1.0429688,0.24511719,0.18261719,60.6875,-74.09375,-70.6875
295,1697617765,-1.5908203,0.2529297,0.25585938,3.9375,-70.5625,-50.21875
296,1697617805,-1.1845703,-0.021484375,0.09082031,-9.25,-94.5,-23.4375
297,1697617845,-0.7988281,-0.038085938,0.19921875,44.6875,-102.5,-7.25
298,1697617885,-0.61816406,-0.037109375,0.2705078,62.9375,-74.46875,-0.1875
299,1697617925,-0.64746094,0.12597656,0.359375,30.90625,-64.53125,-9.28125
300,1697617965,-0.5029297,0.123046875,0.27929688,2.21875,-39.875,-4.875
301,1697618005,-0.5722656,0.01953125,0.41992188,-12.78125,25.25,19.46875
302,1697618045,-0.8261719,-0.11328125,0.46972656,-25.5,80.875,31.5
303,1697618085,-1.2451172,-0.14257812,1.0039062,13.625,70.5,0.375
304,1697618125,-1.2685547,-0.31347656,0.49414062,6.3125,-47.375,-20.09375
305,1697618165,-0.875,0.07421875,0.72753906,5.09375,27.28125,-20.3125
306,1697618205,-1.2861328,0.2421875,0.16796875,-21.9375,-19.34375,9.65625
307,1697618245,-0.5996094,0.2705078,0.0546875,-36.0625,-16.625,25.6875
308,1697618285,-1.046875,-0.2626953,0.047851562,-32.6875,39.96875,18.125
309,1697618325,-1.0039062,-0.087890625,0.119140625,-0.78125,69.75,6.90625
310,1697618365,-0.828125,0.111328125,0.18945312,-29.03125,54.1875,1.34375
311,1697618405,-0.8623047,-0.044921875,0.11328125,-58.5,59.75,8.46875
312,1697618445,-0.8564453,-0.17285156,0.059570312,-45.5,60.28125,12.15625
313,1697618485,-0.8720703,-0.17382812,0.18359375,-24.15625,55.53125,24.40625
314,1697618525,-0.8515625,-0.20996094,0.234375,-15.84375,39.65625,37.28125
315,1697618565,-0.96191406,-0.27246094,0.22265625,4.125,35.5625,39.5625
316,1697618605,-1.1279297,-0.31347656,0.17773438,17.46875,18.84375,32.96875
317,1697618645,-0.9980469,-0.20703125,0.14453125,12.53125,14.40625,13.3125
318,1697618685,-1.1767578,-0.125,0.24414062,10.8125,-0.875,3.34375
319,1697618725,-1.2363281,0.080078125,-0.049804688,2.71875,-34.0,-32.65625
320,1697618765,-0.8457031,0.08105469,-0.08203125,34.6875,-68.25,-74.59375
321,1697618805,-1.6601562,0.4111328,0.24023438,37.25,-83.3125,-63.0
322,1697618845,-1.4208984,0.17285156,0.24609375,-40.3125,-74.09375,-32.15625
323,1697618885,-0.9013672,-0.29882812,0.1953125,20.59375,-95.15625,-10.625
324,1697618925,-0.5361328,-0.12109375,0.20214844,78.03125,-76.0,-13.5625
325,1697618965,-0.64453125,0.057617188,0.31152344,86.4375,-57.1875,-16.96875
326,1697619005,-0.63378906,0.17285156,0.32226562,33.59375,-43.15625,-21.78125
327,1697619045,-0.5341797,0.0703125,0.32226562,7.46875,-8.5,1.71875
328,1697619085,-0.64160156,-0.046875,0.4814453,-1.75,57.96875,23.8125
329,1697619125,-1.0712891,-0.08300781,0.8017578,-8.59375,95.34375,12.6875
330,1697619165,-1.3847656,-0.33496094,0.58496094,32.5,-23.125,-0.78125
331,1697619205,-1.0322266,0.0859375,0.6035156,-25.6875,-17.40625,-21.4375
332,1697619245,-1.8769531,-0.022460938,0.31640625,-4.25,-3.0,8.90625
333,1697619285,-0.484375,0.3388672,0.0234375,-23.90625,-45.0625,20.8125
334,1697619325,-1.0849609,-0.19433594,0.013671875,-33.3125,33.25,23.8125
335,1697619365,-0.9638672,-0.028320312,0.09667969,10.21875,50.28125,12.03125
336,1697619405,-0.99902344,0.17285156,0.265625,-31.59375,60.90625,3.78125
337,1697619445,-0.72753906,0.048828125,0.15136719,-59.5,57.0625,-1.21875
338,1697619485,-0.85253906,-0.16503906,0.078125,-64.875,49.3125,6.09375
339,1697619525,-0.8076172,-0.22070312,0.16699219,-37.8125,52.84375,16.1875
340,1697619565,-0.82910156,-0.2705078,0.21777344,-15.40625,49.75,23.6875
341,1697619605,-0.9345703,-0.25585938,0.2109375,15.71875,35.5625,28.75
342,1697619645,-1.0957031,-0.13867188,0.203125,29.625,30.09375,31.5
343,1697619685,-1.1005859,-0.11230469,0.2109375,20.59375,23.375,28.0625
344,1697619725,-1.1367188,-0.23730469,0.20996094,-2.1875,22.5,15.5625
345,1697619765,-1.1445312,-0.18066406,0.14257812,2.03125,-2.03125,12.21875
346,1697619805,-1.1171875,0.020507812,-0.12988281,-1.375,-28.6875,-28.125
347,1697619845,-0.8808594,0.17480469,-0.059570312,29.5,-77.03125,-67.75
348,1697619885,-1.5302734,0.42089844,0.27148438,11.25,-83.5,-57.8125
349,1697619925,-1.28125,-0.00390625,0.11230469,-47.59375,-82.34375,-25.15625
350,1697619965,-0.96484375,-0.23925781,0.2548828,21.625,-97.65625,-5.6875
351,1697620005,-0.6894531,-0.0703125,0.20996094,54.9375,-75.8125,-6.65625
352,1697620045,-0.6513672,0.15429688,0.359375,52.5625,-58.1875,-14.65625
353,1697620085,-0.59765625,0.021484375,0.30273438,27.0625,-41.5,-5.25
354,1697620125,-0.6230469,0.0009765625,0.35058594,20.46875,10.125,8.53125
355,1697620165,-0.7441406,-0.046875,0.515625,12.09375,52.90625,18.90625
356,1697620205,-1.0625,-0.041992188,0.73339844,1.78125,68.71875,-2.03125
357,1697620245,-1.2431641,-0.29589844,0.58203125,33.90625,-25.53125,-7.875
358,1697620285,-0.75683594,-0.025390625,0.6464844,-6.8125,2.5,-29.0
359,1697620325,-0.82714844,0.053710938,0.4111328,-8.59375,20.875,-25.6875
360,1697620365,-1.5673828,0.45996094,-0.06738281,22.78125,4.6875,23.0625
361,1697620405,-1.0068359,-0.0546875,0.1328125,-31.65625,-14.21875,27.40625
362,1697620445,-0.71191406,-0.13476562,0.026367188,-8.09375,43.28125,-6.96875
363,1697620485,-1.2441406,0.140625,0.2578125,-28.25,76.46875,-12.46875
364,1697620525,-0.7519531,0.0625,0.080078125,-78.65625,50.90625,4.40625
365,1697620565,-0.77441406,-0.171875,0.10058594,-71.75,67.9375,21.90625
366,1697620605,-0.8408203,-0.16601562,0.20605469,-48.9375,54.0625,26.90625
367,1697620645,-0.8125,-0.2998047,0.21582031,-24.5,52.71875,30.5625
368,1697620685,-0.92578125,-0.29101562,0.21679688,13.09375,33.75,36.6875
369,1697620725,-1.0449219,-0.16015625,0.2685547,24.3125,27.09375,26.5625
370,1697620765,-1.0302734,-0.22070312,0.18652344,13.8125,19.15625,22.8125
371,1697620805,-1.1474609,-0.14648438,0.21875,2.15625,11.96875,10.4375
372,1697620845,-1.5068359,-0.030273438,0.020507812,8.4375,-11.59375,-16.84375
373,1697620885,-0.9980469,0.109375,-0.24609375,16.3125,-62.25,-62.9375
374,1697620925,-1.3046875,0.421875,0.2109375,27.25,-84.1875,-59.8125
375,1697620965,-1.5214844,0.1796875,0.23828125,-44.71875,-75.8125,-36.125
376,1697621005,-0.98046875,-0.23632812,0.15722656,0.9375,-92.78125,-11.84375
377,1697621045,-0.6816406,-0.09667969,0.23730469,65.9375,-88.25,-2.625
378,1697621085,-0.6308594,-0.028320312,0.32226562,77.78125,-61.09375,-5.375
379,1697621125,-0.7050781,0.14648438,0.32421875,42.25,-51.03125,-16.53125
380,1697621165,-0.5625,0.1328125,0.2421875,24.3125,-38.03125,-3.0625
381,1697621205,-0.5449219,0.09667969,0.3466797,-6.5,29.84375,14.09375
382,1697621245,-0.8105469,-0.07421875,0.50390625,-34.34375,86.53125,25.9375
383,1697621285,-1.1015625,-0.017578125,0.8886719,-11.34375,78.96875,4.6875
384,1697621325,-1.5439453,-0.3701172,0.47753906,13.8125,-42.78125,1.40625
385,1697621365,-0.8017578,-0.036132812,0.78515625,-25.0,-2.5,-16.40625
386,1697621405,-1.4521484,0.018554688,0.1484375,-14.6875,-11.59375,-2.03125
387,1697621445,-0.87890625,0.39648438,0.016601562,-9.3125,-19.0625,40.71875
388,1697621485,-0.9765625,-0.10644531,0.099609375,-40.75,0.78125,34.59375
389,1697621525,-0.8642578,-0.1953125,-0.015625,-17.875,40.28125,6.40625
390,1697621565,-1.1367188,0.18359375,0.29101562,-24.40625,60.65625,-9.09375
391,1697621605,-0.76464844,0.12207031,0.12695312,-74.875,37.90625,1.9375
392,1697621645,-0.8798828,-0.14550781,0.029296875,-83.96875,45.53125,18.5
393,1697621685,-0.8222656,-0.19433594,0.18164062,-55.40625,47.71875,30.5
394,1697621725,-0.8300781,-0.23730469,0.21386719,-31.78125,48.34375,36.3125
395,1697621765,-0.8154297,-0.21875,0.23339844,5.34375,37.96875,41.9375
396,1697621805,-0.984375,-0.2265625,0.19140625,24.4375,29.53125,34.125
397,1697621845,-1.1591797,-0.1875,0.15722656,19.1875,16.46875,39.65625
398,1697621885,-1.1630859,-0.05078125,0.28320312,5.5,11.96875,34.375
399,1697621925,-1.1757812,-0.49804688,0.7910156,24.375,10.125,-6.15625
400,1697621965,-0.8642578,-0.25878906,0.67285156,-12.1875,6.28125,-27.03125
401,1697622005,-0.5527344,-0.23339844,0.63183594,-0.21875,75.4375,-40.40625
402,1697622045,-1.8222656,0.5517578,0.23144531,33.03125,46.0625,17.8125
403,1697622085,-0.70703125,0.30371094,0.12402344,-46.78125,-10.03125,20.875
404,1697622125,-0.80566406,-0.10839844,0.08203125,-25.5,21.84375,13.0625
405,1697622165,-1.1308594,-0.0087890625,0.36621094,-13.15625,70.1875,-1.96875
406,1697622205,-0.828125,-0.056640625,0.17089844,-30.4375,54.75,-12.09375
407,1697622245,-0.8251953,-0.06542969,0.171875,-31.65625,61.15625,0.65625
408,1697622285,-0.8544922,-0.08300781,0.16796875,-24.6875,53.03125,10.3125
409,1697622325,-0.9267578,-0.13085938,0.1796875,-27.6875,43.75,16.28125
410,1697622365,-0.9082031,-0.29882812,0.18164062,-14.4375,33.5,20.9375
411,1697622405,-1.0107422,-0.15527344,0.19238281,23.6875,30.4375,23.375
412,1697622445,-1.0771484,-0.049804688,0.17578125,18.9375,23.3125,24.71875
413,1697622485,-1.1289062,-0.13867188,0.20410156,-5.03125,16.53125,26.65625
414,1697622525,-1.1162109,-0.35742188,0.18359375,-22.6875,5.96875,13.84375
415,1697622565,-1.3945312,-0.26171875,0.16503906,12.09375,-7.21875,-11.59375
416,1697622605,-0.98535156,-0.045898438,-0.025390625,29.125,-46.875,-41.9375
417,1697622645,-0.8251953,0.3935547,0.15234375,47.25,-75.6875,-48.28125
418,1697622685,-1.4521484,0.23925781,0.28320312,-3.8125,-66.90625,-47.84375
419,1697622725,-1.0869141,-0.09472656,0.12988281,-24.15625,-79.71875,-38.8125
420,1697622765,-0.82714844,-0.11230469,0.203125,40.71875,-80.625,-18.5
421,1697622805,-0.7363281,-0.0234375,0.28222656,67.15625,-60.5,-16.90625
422,1697622845,-0.8261719,0.06640625,0.3876953,45.8125,-64.8125,-13.125
423,1697622885,-0.57910156,0.09472656,0.3076172,29.0,-46.625,-5.25
424,1697622925,-0.7314453,0.044921875,0.33007812,9.46875,15.375,9.6875
425,1697622965,-0.83496094,-0.09765625,0.5058594,-6.03125,50.03125,21.96875
426,1697623005,-0.9765625,-0.08105469,0.71875,-4.5625,57.0,13.25
427,1697623045,-1.2568359,-0.20703125,0.47460938,3.6875,2.96875,-5.96875
428,1697623085,-1.0029297,-0.0859375,0.6298828,-7.375,-1.34375,-14.28125
429,1697623125,-0.5263672,-0.18847656,0.70214844,-7.78125,12.0625,-8.5
430,1697623165,-1.4150391,0.36523438,-0.016601562,6.90625,15.875,15.4375
431,1697623205,-1.2587891,-0.020507812,0.15527344,-30.125,-5.5,42.65625
432,1697623245,-0.7011719,-0.051757812,0.20898438,-15.96875,-3.5625,15.875
433,1697623285,-1.0126953,-0.052734375,0.29492188,-16.15625,69.21875,-17.59375
434,1697623325,-0.92578125,0.024414062,0.16992188,-44.03125,44.1875,-19.15625
435,1697623365,-0.78125,-0.14550781,0.15234375,-43.875,56.6875,5.6875
436,1697623405,-0.83496094,-0.15625,0.19726562,-23.78125,52.125,20.03125
437,1697623445,-0.8935547,-0.13671875,0.19921875,-15.375,44.78125,22.53125
438,1697623485,-0.89941406,-0.28320312,0.20214844,4.21875,37.59375,26.5625
439,1697623525,-1.0146484,-0.16992188,0.25195312,25.34375,32.65625,31.90625
440,1697623565,-1.1054688,-0.2109375,0.12011719,13.25,25.5,30.15625
441,1697623605,-1.0751953,-0.15234375,0.14453125,10.09375,23.25,13.59375
442,1697623645,-1.1611328,-0.07714844,0.2607422,-13.21875,4.3125,8.59375
443,1697623685,-1.3193359,-0.14453125,0.05859375,-16.09375,-17.53125,-13.75
444,1697623725,-0.9033203,-0.04296875,-0.103515625,28.46875,-68.5625,-56.71875
445,1697623765,-1.3710938,0.4501953,0.28125,48.40625,-74.28125,-59.34375
446,1697623805,-1.6298828,0.087890625,0.2783203,-47.09375,-69.59375,-30.6875
447,1697623845,-0.90722656,-0.22167969,0.16308594,4.78125,-97.34375,-11.28125
448,1697623885,-0.6064453,-0.060546875,0.16113281,54.21875,-81.90625,-9.65625
449,1697623925,-0.58691406,0.037109375,0.30859375,72.90625,-58.28125,-7.03125
450,1697623965,-0.6503906,0.13085938,0.29882812,33.09375,-51.46875,-11.53125
451,1697624005,-0.53125,0.1171875,0.3173828,7.84375,-16.25,3.71875
452,1697624045,-0.6748047,0.00390625,0.484375,-14.8125,49.0625,18.4375
453,1697624085,-1.0458984,-0.07324219,0.7392578,-24.6875,72.75,13.1875
454,1697624125,-1.2021484,-0.31835938,0.7421875,8.5625,-0.625,-4.34375
455,1697624165,-0.9785156,-0.068359375,0.5761719,-9.4375,-7.8125,-18.5625
456,1697624205,-1.4091797,0.0048828125,0.7558594,3.4375,41.4375,-16.125
457,1697624245,-0.78222656,0.50097656,0.015625,-28.0625,-21.125,9.40625
458,1697624285,-0.73046875,0.03125,0.15527344,-27.5625,5.375,35.40625
459,1697624325,-0.93359375,-0.20214844,0.025390625,-24.875,35.28125,7.375
460,1697624365,-1.0644531,0.0087890625,0.3232422,-7.5,76.40625,-5.625
461,1697624405,-0.6923828,0.08496094,0.19726562,-40.09375,47.90625,-6.59375
462,1697624445,-0.8310547,-0.11621094,0.06738281,-42.59375,56.75,6.40625
463,1697624485,-0.8779297,-0.13867188,0.19433594,-19.8125,52.78125,11.53125
464,1697624525,-0.85839844,-0.15917969,0.16796875,-17.375,49.3125,21.96875
465,1697624565,-0.93652344,-0.2607422,0.20410156,0.21875,44.5625,33.625
466,1697624605,-1.046875,-0.11328125,0.19921875,20.03125,35.5625,39.125
467,1697624645,-1.1123047,-0.29003906,0.10546875,3.25,23.4375,36.125
468,1697624685,-1.0537109,-0.10546875,0.14648438,1.0625,18.84375,15.625
469,1697624725,-1.1425781,-0.13183594,0.24023438,-22.0,-3.71875,9.65625
470,1697624765,-1.3623047,-0.111328125,-0.021484375,-17.0,-22.53125,-14.90625
471,1697624805,-0.8515625,0.14355469,-0.09472656,35.90625,-69.53125,-64.75
472,1697624845,-1.4667969,0.47070312,0.2734375,29.9375,-80.6875,-63.1875
473,1697624885,-1.4560547,-0.0048828125,0.23828125,-48.75,-68.5625,-30.46875
474,1697624925,-0.95703125,-0.30273438,0.20605469,18.09375,-92.0625,-12.625
475,1697624965,-0.6542969,-0.034179688,0.23339844,66.1875,-77.40625,-13.96875
476,1697625005,-0.6542969,0.03125,0.32226562,76.0625,-53.0,-12.21875
477,1697625045,-0.66015625,0.123046875,0.30566406,38.84375,-45.78125,-14.03125
478,1697625085,-0.5683594,0.12207031,0.30664062,16.1875,-14.90625,1.03125
479,1697625125,-0.6386719,0.0146484375,0.44433594,-2.3125,49.0625,17.34375
480,1697625165,-1.0214844,-0.14453125,0.66015625,-16.75,88.75,12.8125
481,1697625205,-1.1367188,-0.22460938,0.7519531,22.0625,18.90625,-0.5
482,1697625245,-1.015625,-0.06640625,0.4951172,-19.28125,-17.90625,-22.03125
483,1697625285,-1.1669922,-0.0068359375,0.6455078,-6.15625,22.40625,-13.375
484,1697625325,-1.0507812,0.52246094,0.0703125,4.15625,-28.375,21.71875
485,1697625365,-0.8564453,-0.038085938,0.06347656,-42.59375,-9.21875,31.96875
486,1697625405,-0.8808594,-0.19140625,0.07714844,-9.3125,42.96875,4.28125
487,1697625445,-1.1035156,0.14160156,0.30566406,-10.65625,73.90625,-2.5
488,1697625485,-0.7470703,0.09765625,0.14160156,-64.8125,50.84375,-1.09375
489,1697625525,-0.80078125,-0.19140625,0.046875,-66.9375,59.125,5.78125
490,1697625565,-0.88378906,-0.203125,0.1875,-31.28125,54.3125,12.3125
491,1697625605,-0.8847656,-0.19335938,0.20019531,-11.5625,50.53125,26.375
492,1697625645,-0.9453125,-0.21191406,0.20996094,11.5625,37.59375,37.09375
493,1697625685,-1.0498047,-0.1171875,0.20898438,22.25,29.90625,37.21875
494,1697625725,-1.2324219,-0.24121094,0.15039062,4.15625,13.0625,30.03125
495,1697625765,-1.0664062,-0.19335938,0.15917969,0.4375,3.34375,5.96875
496,1697625805,-1.1660156,-0.24121094,0.057617188,-5.71875,-20.75,-4.53125
497,1697625845,-1.1064453,0.11816406,-0.13867188,6.25,-56.78125,-55.125
498,1697625885,-1.0537109,0.25390625,0.18066406,45.5,-76.84375,-63.84375
499,1697625925,-1.6005859,0.20605469,0.26757812,-16.75,-61.40625,-38.5
500,1697625965,-1.0585938,-0.020507812,0.17382812,-24.5625,-96.875,-22.09375
501,1697626005,-0.7001953,-0.11621094,0.1796875,39.8125,-90.21875,-7.375
502,1697626045,-0.6035156,-0.01953125,0.29296875,69.46875,-68.4375,-1.34375
503,1697626085,-0.640625,0.15527344,0.3251953,43.53125,-63.96875,-4.875
504,1697626125,-0.4970703,0.1640625,0.3125,8.5625,-28.6875,0.71875
505,1697626165,-0.5566406,0.044921875,0.41601562,-27.375,37.34375,16.0625
506,1697626205,-0.93066406,-0.072265625,0.65625,-40.4375,87.625,24.96875
507,1697626245,-1.1796875,-0.26757812,0.88964844,-0.53125,52.96875,4.6875
508,1697626285,-1.2568359,-0.19238281,0.49316406,-9.4375,-16.3125,-11.53125
509,1697626325,-1.1074219,0.04296875,0.99609375,3.1875,27.21875,-14.65625
510,1697626365,-0.9785156,0.32910156,0.057617188,-49.25,-47.75,21.125
511,1697626405,-0.5595703,0.27148438,0.057617188,-47.90625,8.46875,41.125
512,1697626445,-1.0634766,-0.34375,0.14453125,-63.09375,37.28125,11.28125
513,1697626485,-1.0390625,-0.22167969,0.11425781,-6.9375,64.875,1.9375
514,1697626525,-0.875,0.11328125,0.20410156,-11.6875,59.1875,-4.6875
515,1697626565,-0.82421875,0.032226562,0.07324219,-43.5625,59.5,4.28125
516,1697626605,-0.921875,-0.11621094,0.111328125,-44.0,61.21875,7.3125
517,1697626645,-0.875,-0.1796875,0.17871094,-25.0,50.03125,25.75
518,1697626685,-0.84765625,-0.25195312,0.21191406,-4.4375,36.6875,34.25
519,1697626725,-1.0351562,-0.19726562,0.25097656,19.4375,30.21875,35.34375
520,1697626765,-1.0302734,-0.22949219,0.15234375,8.5,13.125,35.59375
521,1697626805,-0.92089844,-0.16601562,0.17871094,4.65625,15.875,16.0625
522,1697626845,-1.1181641,-0.18847656,0.16015625,-3.53125,5.71875,4.8125
523,1697626885,-1.5771484,0.06738281,-0.030273438,9.84375,-16.1875,-33.28125
524,1697626925,-0.8339844,0.12988281,-0.13964844,29.9375,-69.21875,-68.90625
525,1697626965,-1.6435547,0.33984375,0.21582031,15.78125,-86.0625,-51.46875
526,1697627005,-1.3544922,0.07421875,0.20898438,-50.46875,-84.34375,-29.0625
527,1697627045,-0.91503906,-0.18847656,0.21777344,13.3125,-105.40625,-7.5625
528,1697627085,-0.6064453,-0.07421875,0.24609375,55.0,-83.0625,-3.3125
529,1697627125,-0.61035156,0.046875,0.29492188,57.53125,-66.53125,-6.65625
530,1697627165,-0.61816406,0.12109375,0.28320312,32.75,-46.875,-11.40625
531,1697627205,-0.5078125,0.11230469,0.29882812,12.40625,-19.21875,7.03125
532,1697627245,-0.65625,0.04296875,0.47851562,-12.625,49.25,15.8125
533,1697627285,-1.0214844,-0.17871094,0.7949219,-13.65625,77.5625,5.90625
534,1697627325,-1.2509766,-0.36132812,0.66308594,16.25,2.96875,-5.3125
535,1697627365,-0.9824219,-0.01953125,0.6035156,3.3125,9.09375,-15.125
536,1697627405,-1.2011719,0.12109375,0.7470703,8.25,26.40625,-11.96875
537,1697627445,-0.9980469,0.5283203,-0.029296875,-8.71875,-37.96875,33.6875
538,1697627485,-0.8828125,0.022460938,0.13085938,-43.375,2.0625,49.625
539,1697627525,-0.8105469,-0.23046875,0.049804688,-26.21875,35.21875,0.25
540,1697627565,-1.0966797,-0.059570312,0.3310547,-1.75,69.8125,-11.40625
541,1697627605,-0.7246094,0.0390625,0.1796875,-31.78125,47.78125,-9.09375
542,1697627645,-0.796875,-0.13378906,0.10058594,-43.5625,53.21875,-0.5625
543,1697627685,-0.83984375,-0.23339844,0.17578125,-15.53125,56.9375,8.0
544,1697627725,-0.90234375,-0.1171875,0.19238281,4.0,53.28125,21.375
545,1697627765,-0.9169922,-0.16601562,0.2109375,14.5,44.0625,33.3125
546,1697627805,-1.0615234,-0.07910156,0.17773438,16.0625,32.03125,38.875
547,1697627845,-1.2089844,-0.21679688,0.13867188,-4.1875,19.15625,33.75
548,1697627885,-1.0771484,-0.32910156,0.14550781,1.96875,16.53125,10.4375
549,1697627925,-1.1542969,-0.18945312,0.2548828,11.3125,0.125,3.0625
550,1697627965,-1.2880859,-0.078125,-0.0703125,15.53125,-23.03125,-30.9375
551,1697628005,-0.8173828,0.12792969,-0.11328125,57.28125,-67.15625,-68.0625
552,1697628045,-1.4697266,0.43847656,0.234375,41.09375,-82.84375,-59.8125
553,1697628085,-1.453125,0.15136719,0.23828125,-35.75,-73.4375,-36.375
554,1697628125,-0.96484375,-0.22460938,0.21386719,13.4375,-88.375,-17.34375
555,1697628165,-0.61816406,-0.11035156,0.24511719,60.9375,-75.4375,-16.46875
556,1697628205,-0.6484375,-0.0029296875,0.32421875,78.375,-50.65625,-16.84375
557,1697628245,-0.63964844,0.16796875,0.29296875,47.25,-51.34375,-21.90625
558,1697628285,-0.5576172,0.125,0.3046875,25.71875,-19.0625,-1.03125
559,1697628325,-0.6767578,-0.001953125,0.41992188,-3.6875,49.5625,16.40625
560,1697628365,-0.94140625,-0.053710938,0.71972656,-26.28125,83.4375,9.875
561,1697628405,-1.2363281,-0.31347656,0.64746094,10.75,15.8125,0.59375
562,1697628445,-1.1796875,-0.001953125,0.58496094,-0.03125,-6.21875,-7.625
563,1697628485,-0.88671875,-0.16699219,0.79003906,-11.03125,25.625,-0.1875
564,1697628525,-1.4697266,0.32128906,0.009765625,-15.46875,-37.96875,23.5625
565,1697628565,-0.76464844,0.09472656,0.00390625,-61.375,-2.5,35.875
566,1697628605,-0.8486328,-0.2783203,0.16015625,-32.09375,21.78125,13.3125
567,1697628645,-1.0917969,-0.038085938,0.21484375,6.3125,68.90625,2.75
568,1697628685,-0.8613281,0.072265625,0.17773438,-38.84375,50.65625,-5.6875
569,1697628725,-0.8046875,-0.091796875,0.14257812,-49.34375,52.84375,-1.59375
570,1697628765,-0.8671875,-0.15722656,0.12988281,-36.1875,49.78125,10.125
571,1697628805,-0.8798828,-0.17480469,0.19824219,-22.4375,48.34375,20.125
572,1697628845,-0.84375,-0.28027344,0.21484375,-3.09375,41.25,29.40625
573,1697628885,-0.9560547,-0.24902344,0.17285156,27.5625,39.25,32.15625
574,1697628925,-1.1611328,-0.18359375,0.14941406,28.21875,26.65625,32.40625
575,1697628965,-1.0634766,-0.16796875,0.17089844,14.59375,13.34375,21.1875
576,1697629005,-1.1113281,-0.21582031,0.265625,0.6875,3.28125,1.28125
577,1697629045,-1.1865234,-0.27148438,0.09277344,-0.21875,-22.59375,-12.5
578,1697629085,-0.8769531,-0.10546875,-0.15332031,25.90625,-60.8125,-54.6875
579,1697629125,-1.0429688,0.3798828,0.22167969,69.71875,-81.6875,-69.9375
580,1697629165,-1.5859375,0.15722656,0.22460938,-7.59375,-68.125,-44.8125
581,1697629205,-1.1474609,-0.12109375,0.23632812,-5.46875,-88.375,-24.90625
582,1697629245,-0.7470703,-0.021484375,0.2685547,44.09375,-85.03125,-17.59375
583,1697629285,-0.6904297,-0.049804688,0.32226562,64.96875,-58.0,-8.96875
584,1697629325,-0.67285156,0.053710938,0.28710938,55.0625,-55.1875,-17.03125
585,1697629365,-0.5136719,0.123046875,0.3017578,31.03125,-30.03125,-4.75
586,1697629405,-0.5751953,0.0390625,0.359375,9.125,26.25,11.34375
587,1697629445,-0.8574219,-0.07714844,0.5390625,-10.28125,63.90625,21.25
588,1697629485,-1.1259766,-0.16113281,0.8408203,7.34375,62.75,1.59375
589,1697629525,-1.1533203,-0.22363281,0.46679688,9.0,-22.34375,-10.6875
590,1697629565,-0.8203125,-0.07910156,0.75683594,-3.46875,26.59375,-7.6875
591,1697629605,-1.7246094,0.15332031,0.2919922,-1.3125,-20.9375,19.53125
592,1697629645,-0.77734375,0.32714844,-0.00390625,-46.375,-16.84375,32.46875
593,1697629685,-0.8828125,-0.23242188,0.16601562,-41.71875,29.90625,20.875
594,1697629725,-0.9326172,-0.1171875,0.043945312,-6.6875,44.90625,9.28125
595,1697629765,-0.9951172,0.11425781,0.24414062,-28.84375,61.28125,1.34375
596,1697629805,-0.80371094,0.024414062,0.14453125,-63.28125,54.5625,0.78125
597,1697629845,-0.8486328,-0.16015625,0.095703125,-70.40625,55.53125,7.375
598,1697629885,-0.88964844,-0.22460938,0.16015625,-44.96875,51.9375,19.84375
599,1697629925,-0.87402344,-0.24609375,0.21972656,-22.4375,47.125,34.1875
600,1697629965,-0.8808594,-0.25195312,0.22558594,7.09375,36.4375,39.5
601,1697630005,-1.03125,-0.19140625,0.21777344,21.4375,25.6875,33.5625
602,1697630045,-1.0996094,-0.19335938,0.2421875,18.40625,14.6875,21.84375
603,1697630085,-1.1220703,-0.21972656,0.1953125,8.625,6.40625,5.96875
604,1697630125,-1.1875,-0.15136719,0.05859375,2.65625,-27.21875,1.65625
605,1697630165,-0.9355469,0.0107421875,-0.14257812,-2.53125,-63.78125,-45.96875
606,1697630205,-1.0126953,0.22167969,0.15429688,49.09375,-81.0625,-65.96875
607,1697630245,-1.6416016,0.19824219,0.2763672,-9.25,-66.65625,-41.25
608,1697630285,-1.1767578,-0.11425781,0.21191406,-18.53125,-89.125,-20.375
609,1697630325,-0.70996094,-0.13574219,0.2421875,44.6875,-88.75,-13.5
610,1697630365,-0.6855469,-0.07714844,0.2705078,79.5625,-60.0625,-10.125
611,1697630405,-0.6738281,0.13085938,0.30859375,53.78125,-58.0,-13.0
612,1697630445,-0.5332031,0.11816406,0.2548828,28.84375,-30.65625,-6.53125
613,1697630485,-0.60253906,0.08886719,0.3486328,1.0,24.46875,8.125
614,1697630525,-0.8613281,-0.09667969,0.49023438,-13.09375,69.4375,17.28125
615,1697630565,-1.1171875,-0.08203125,0.82910156,-3.03125,56.8125,1.34375
616,1697630605,-1.2138672,-0.30566406,0.453125,12.34375,-20.8125,-5.9375
617,1697630645,-0.7294922,-0.20800781,0.6347656,-9.0,18.0,-15.03125
618,1697630685,-1.6464844,0.13867188,0.3125,-2.84375,5.0625,-4.15625
619,1697630725,-0.9511719,0.48242188,0.05078125,-18.09375,-10.375,37.03125
620,1697630765,-0.8076172,-0.08105469,0.19433594,-38.5,3.15625,27.03125
621,1697630805,-0.8261719,-0.1875,-0.005859375,-14.6875,57.96875,-6.28125
622,1697630845,-1.1005859,0.08105469,0.2890625,-22.375,67.125,-9.65625
623,1697630885,-0.6855469,0.021484375,0.13769531,-53.625,57.5625,0.71875
624,1697630925,-0.8642578,-0.15136719,0.11328125,-47.46875,62.6875,12.75
625,1697630965,-0.8876953,-0.16308594,0.16796875,-30.75,52.25,19.15625
626,1697631005,-0.890625,-0.23242188,0.16894531,-16.65625,49.75,28.5
627,1697631045,-0.9667969,-0.2529297,0.23144531,6.25,35.09375,38.5625
628,1697631085,-1.0703125,-0.2109375,0.24414062,19.75,25.75,33.1875
629,1697631125,-1.0791016,-0.20996094,0.19335938,14.59375,16.65625,23.9375
630,1697631165,-1.0673828,-0.18261719,0.1875,4.34375,11.78125,7.4375
631,1697631205,-1.5205078,-0.01953125,0.057617188,12.84375,-13.25,-12.46875
632,1697631245,-0.89160156,-0.0068359375,-0.17578125,14.0625,-59.28125,-63.34375
633,1697631285,-1.2509766,0.2998047,0.2548828,40.5,-79.34375,-54.5625
634,1697631325,-1.515625,0.26464844,0.2685547,-33.375,-73.5,-31.125
635,1697631365,-1.0039062,-0.14453125,0.17675781,-14.25,-98.59375,-13.625
636,1697631405,-0.7109375,-0.12402344,0.23242188,44.09375,-92.15625,-3.125
637,1697631445,-0.7128906,-0.005859375,0.3046875,63.0,-61.15625,-7.15625
638,1697631485,-0.6923828,0.10546875,0.29003906,37.1875,-54.375,-15.4375
639,1697631525,-0.5341797,0.099609375,0.23339844,29.6875,-29.1875,-3.59375
640,1697631565,-0.6074219,0.11816406,0.33496094,2.53125,25.625,8.59375
641,1697631605,-0.8574219,-0.12109375,0.47753906,-20.125,67.625,18.3125
642,1697631645,-1.0585938,-0.13964844,0.8378906,-0.84375,64.5625,1.875
643,1697631685,-1.2607422,-0.29296875,0.45410156,14.96875,-23.375,-5.8125
644,1697631725,-0.8847656,0.01953125,0.7519531,-12.375,14.09375,-14.34375
645,1697631765,-1.9912109,-0.053710938,0.020507812,-19.03125,-72.53125,25.15625
646,1697631805,-0.515625,0.3720703,0.11230469,-36.78125,-17.9375,38.5625
647,1697631845,-0.72265625,-0.2685547,0.23535156,-49.84375,22.75,9.8125
648,1697631885,-1.28125,-0.3564453,0.14941406,5.6875,59.5625,-10.0625
649,1697631925,-0.99121094,0.04296875,0.25,8.6875,52.3125,-14.40625
650,1697631965,-0.69921875,0.171875,0.13476562,-14.09375,58.09375,-6.03125
651,1697632005,-0.9580078,-0.06640625,0.07324219,-36.21875,64.4375,4.8125
652,1697632045,-0.8417969,-0.10253906,0.10644531,-28.25,61.46875,19.03125
653,1697632085,-0.8486328,-0.14550781,0.15429688,-11.5,56.3125,32.46875
654,1697632125,-0.91503906,-0.23242188,0.17675781,7.59375,36.0625,35.28125
655,1697632165,-0.9814453,-0.19335938,0.24804688,20.03125,24.53125,32.40625
656,1697632205,-1.0078125,-0.13476562,0.19824219,19.0,16.59375,24.28125
657,1697632245,-1.0429688,-0.22558594,0.1875,10.75,14.75,7.8125
658,1697632285,-1.1259766,0.022460938,0.26953125,-5.15625,-8.90625,4.875
659,1697632325,-1.2412109,-0.099609375,-0.14160156,-24.34375,-33.5625,-23.8125
660,1697632365,-0.9589844,0.14355469,-0.059570312,44.75,-67.6875,-77.75
661,1697632405,-1.6708984,0.36816406,0.30078125,-5.96875,-79.46875,-49.125
662,1697632445,-1.2402344,-0.05859375,0.3076172,-58.75,-81.375,-20.5
663,1697632485,-0.8701172,-0.3017578,0.21386719,29.5,-86.125,-18.25
664,1697632525,-0.67285156,-0.06640625,0.22167969,87.84375,-73.96875,-17.34375
665,1697632565,-0.67285156,0.064453125,0.2734375,88.875,-58.84375,-12.8125
666,1697632605,-0.61035156,0.19433594,0.30859375,42.125,-46.09375,-13.5625
667,1697632645,-0.51660156,0.16210938,0.28515625,2.71875,-11.53125,1.03125
668,1697632685,-0.6533203,0.059570312,0.44921875,-20.84375,56.5,15.8125
669,1697632725,-0.9628906,-0.11621094,0.734375,-36.90625,85.375,17.03125
670,1697632765,-1.3076172,-0.3154297,0.6513672,5.40625,9.21875,2.8125
671,1697632805,-1.2021484,-0.0048828125,0.6582031,-17.5,-24.84375,-17.28125
672,1697632845,-0.9033203,-0.18554688,0.71777344,-5.65625,20.5625,-6.21875
673,1697632885,-1.2246094,0.4267578,0.08203125,-4.375,-22.53125,24.34375
674,1697632925,-0.88378906,0.043945312,0.041015625,-60.65625,-3.1875,37.09375
675,1697632965,-0.91015625,-0.2939453,0.1015625,-15.40625,23.4375,14.53125
676,1697633005,-1.0419922,0.0703125,0.22558594,6.0,71.46875,-4.40625
677,1697633045,-0.89941406,0.16113281,0.19238281,-47.40625,53.59375,-6.28125
678,1697633085,-0.82421875,-0.07519531,0.111328125,-82.5625,50.21875,4.15625
679,1697633125,-0.82714844,-0.21972656,0.10058594,-54.96875,57.0,20.3125
680,1697633165,-0.8798828,-0.22070312,0.18554688,-34.59375,57.125,27.71875
681,1697633205,-0.8388672,-0.24707031,0.19140625,-7.90625,47.46875,34.59375
682,1697633245,-0.97265625,-0.18652344,0.18554688,14.96875,36.6875,36.8125
683,1697633285,-1.0449219,-0.23046875,0.111328125,19.5625,22.03125,30.03125
684,1697633325,-1.1025391,-0.13574219,0.12988281,17.59375,21.46875,17.8125
685,1697633365,-1.2167969,-0.10058594,0.2734375,-2.1875,3.90625,14.03125
686,1697633405,-1.3554688,-0.15625,0.0107421875,0.5625,-17.40625,3.53125
687,1697633445,-0.96972656,0.038085938,-0.15917969,3.4375,-67.28125,-45.59375
688,1697633485,-1.0068359,0.265625,0.22558594,33.46875,-84.65625,-65.0
689,1697633525,-1.6181641,0.13085938,0.26953125,-17.125,-70.6875,-43.53125
690,1697633565,-1.0322266,-0.1640625,0.15429688,-3.65625,-88.6875,-18.9375
691,1697633605,-0.8017578,-0.08105469,0.28710938,52.28125,-88.75,-15.625
692,1697633645,-0.76171875,-0.0859375,0.2529297,70.46875,-57.4375,-18.125
693,1697633685,-0.71777344,0.0390625,0.2607422,51.65625,-60.3125,-20.75
694,1697633725,-0.5761719,0.0029296875,0.2734375,48.0625,-30.59375,-3.25
695,1697633765,-0.6074219,0.037109375,0.33789062,19.3125,20.625,10.96875
696,1697633805,-0.7998047,-0.05078125,0.48535156,1.25,57.71875,16.34375
697,1697633845,-1.0498047,-0.01953125,0.7910156,8.03125,55.59375,1.28125
698,1697633885,-1.1152344,-0.2548828,0.45996094,9.34375,-13.6875,2.3125
699,1697633925,-0.7421875,-0.18066406,0.67089844,-28.65625,24.46875,-15.5
700,1697633965,-1.9912109,-0.10546875,0.048828125,-11.5625,-6.125,-13.6875
701,1697634005,-0.90625,0.4560547,0.21972656,16.5,2.875,20.125
702,1697634045,-0.6035156,-0.001953125,0.23632812,-15.25,-5.4375,17.40625
703,1697634085,-1.2480469,-0.12597656,-0.041015625,-7.59375,69.625,-4.65625
704,1697634125,-1.0488281,0.13769531,0.24511719,-25.5625,47.1875,-5.25
705,1697634165,-0.71875,0.03515625,0.08691406,-49.34375,52.3125,0.90625
706,1697634205,-0.9501953,-0.12988281,0.125,-53.375,53.03125,14.46875
707,1697634245,-0.85839844,-0.1328125,0.17871094,-39.65625,45.21875,20.1875
708,1697634285,-0.8359375,-0.19238281,0.23242188,-24.625,43.75,30.34375
709,1697634325,-0.8222656,-0.22949219,0.1640625,1.96875,32.65625,38.15625
710,1697634365,-0.9296875,-0.11230469,0.18554688,18.75,27.46875,34.375
711,1697634405,-1.0673828,-0.119140625,0.19921875,6.96875,24.71875,28.625
712,1697634445,-1.1552734,-0.27539062,0.21582031,-5.84375,23.0,17.46875
713,1697634485,-1.1669922,-0.23730469,0.29101562,0.375,14.6875,9.75
714,1697634525,-1.3310547,-0.028320312,0.07128906,22.0,5.84375,-16.125
715,1697634565,-0.97753906,0.068359375,-0.21289062,20.40625,-53.84375,-51.8125
716,1697634605,-1.1162109,0.33203125,0.28222656,23.6875,-85.09375,-63.1875
717,1697634645,-1.4892578,0.23339844,0.29492188,-48.1875,-81.84375,-48.53125
718,1697634685,-1.0820312,-0.25,0.2529297,-18.34375,-91.125,-18.125
719,1697634725,-0.82421875,-0.20703125,0.3046875,49.9375,-88.9375,-6.84375
720,1697634765,-0.7636719,-0.00390625,0.3251953,78.8125,-58.65625,-15.4375
721,1697634805,-0.5830078,0.1171875,0.29785156,58.4375,-59.53125,-20.6875
722,1697634845,-0.48828125,0.051757812,0.25195312,53.96875,-29.5,-0.25
723,1697634885,-0.5859375,0.0546875,0.33007812,22.40625,30.4375,4.6875
724,1697634925,-0.8457031,-0.0703125,0.61621094,-14.5625,65.71875,0.71875
725,1697634965,-1.1621094,-0.3173828,0.85839844,18.8125,32.875,-9.71875
726,1697635005,-1.1103516,-0.2861328,0.47265625,20.40625,-23.5625,-19.21875
727,1697635045,-0.8027344,-0.22558594,0.64160156,10.9375,28.5,-17.875
728,1697635085,-1.9912109,0.27441406,0.07324219,7.15625,-18.1875,18.78125
729,1697635125,-0.6875,0.20117188,-0.021484375,-43.0625,-45.78125,37.96875
730,1697635165,-0.8652344,-0.12695312,0.14355469,-31.65625,28.25,11.21875
731,1697635205,-1.1640625,0.04296875,0.2734375,-4.8125,85.25,1.9375
732,1697635245,-0.87109375,0.14160156,0.16503906,-70.21875,51.625,-1.09375
733,1697635285,-0.76953125,-0.07421875,0.111328125,-78.59375,66.15625,12.8125
734,1697635325,-0.8339844,-0.13867188,0.15722656,-64.125,52.3125,24.34375
735,1697635365,-0.8359375,-0.17773438,0.22363281,-42.875,49.25,29.0625
736,1697635405,-0.7421875,-0.28125,0.234375,-21.28125,45.28125,32.84375
737,1697635445,-0.88671875,-0.26953125,0.203125,16.75,37.46875,31.5
738,1697635485,-1.2138672,-0.2421875,0.099609375,22.375,29.21875,34.3125
739,1697635525,-1.1757812,-0.18066406,0.13476562,14.59375,21.78125,26.0625
740,1697635565,-1.2109375,-0.19921875,0.29492188,-2.0,10.125,7.75
741,1697635605,-1.3320312,-0.1328125,0.06640625,3.75,-7.9375,-17.09375
742,1697635645,-0.84472656,0.040039062,-0.26464844,34.09375,-55.78125,-64.40625
743,1697635685,-1.3837891,0.38671875,0.17675781,57.15625,-84.0,-73.5
744,1697635725,-1.5390625,0.18554688,0.28027344,-16.59375,-79.84375,-44.0625
745,1697635765,-0.9501953,-0.20996094,0.15917969,4.21875,-86.1875,-15.25
746,1697635805,-0.6533203,-0.08496094,0.16113281,72.59375,-86.8125,-7.375
747,1697635845,-0.61621094,0.032226562,0.17871094,92.0625,-77.78125,-7.09375
748,1697635885,-0.6201172,0.20214844,0.36523438,52.9375,-64.53125,-9.46875
749,1697635925,-0.4970703,0.11230469,0.2998047,18.875,-25.09375,4.9375
750,1697635965,-0.58984375,0.032226562,0.5214844,-11.03125,60.1875,15.6875
751,1697636005,-1.0712891,-0.087890625,0.73535156,-27.6875,81.84375,7.5
752,1697636045,-1.3642578,-0.32714844,0.8027344,25.46875,-1.84375,-5.5625
753,1697636085,-1.0703125,0.22851562,0.6894531,-32.15625,-17.15625,-8.4375
754,1697636125,-1.9814453,0.01171875,0.056640625,-29.9375,-17.59375,17.46875
755,1697636165,-0.53515625,0.3388672,-0.044921875,-41.84375,-30.90625,17.8125
756,1697636205,-0.88183594,-0.24902344,0.09472656,-24.46875,18.3125,33.09375
757,1697636245,-1.0332031,-0.10449219,0.0625,0.3125,68.78125,-7.625
758,1697636285,-1.0546875,0.19238281,0.25683594,-35.6875,66.09375,-10.25
759,1697636325,-0.6386719,0.08203125,0.14648438,-72.96875,53.53125,1.34375
