,timestamp,accel_x,accel_y,accel_z,gyro_x,gyro_y,gyro_z
0,1697605965,-0.049804688,-0.99713135,0.101501465,-1.0625,0.734375,-0.890625
1,1697606005,-0.038330078,-0.99224854,0.09832764,-0.71875,0.78125,-1.046875
2,1697606045,-0.047851562,-0.99468994,0.10467529,-0.609375,0.15625,-1.609375
3,1697606085,-0.057373047,-0.9907837,0.097351074,-0.375,1.40625,-1.015625
4,1697606125,-0.047607422,-0.9990845,0.11663818,-0.890625,0.328125,-0.234375
5,1697606165,-0.041992188,-0.9907837,0.09588623,-2.171875,0.46875,-0.90625
6,1697606205,-0.046142578,-0.9993286,0.11883545,-0.328125,0.5625,-0.390625
7,1697606245,-0.041748047,-0.98883057,0.09832764,-0.53125,-0.96875,-0.46875
8,1697606285,-0.05078125,-0.9907837,0.101989746,0.421875,0.71875,0.015625
9,1697606325,-0.05078125,-0.9949341,0.11859131,0.296875,-0.296875,-0.59375
10,1697606365,-0.060058594,-0.9834595,0.10882568,-0.953125,-0.59375,-1.46875
11,1697606405,-0.04711914,-1.0010376,0.10858154,-0.09375,0.46875,-0.734375
12,1697606445,-0.034179688,-0.98638916,0.1161499,-0.8125,-1.40625,-1.0
13,1697606485,-0.041259766,-0.9973755,0.12591553,3.53125,0.40625,-1.375
14,1697606525,-0.07885742,-1.0134888,0.07977295,1.421875,-3.359375,-1.84375
15,1697606565,-0.060546875,-0.9981079,0.10003662,6.359375,1.109375,-1.359375
16,1697606605,-0.06591797,-0.98809814,0.09954834,3.453125,-2.671875,-1.203125
17,1697606645,-0.06201172,-1.0039673,0.0758667,1.921875,-1.3125,-1.859375
18,1697606685,-0.05859375,-0.9841919,0.082458496,2.859375,-2.21875,-0.984375
19,1697606725,-0.06567383,-0.97857666,0.062194824,0.484375,-2.65625,-1.421875
20,1697606765,-0.06689453,-0.975647,0.07318115,-0.53125,-1.53125,-0.046875
21,1697606805,-0.0703125,-0.99224854,0.078552246,-2.859375,-2.203125,-0.390625
22,1697606845,-0.061767578,-0.97784424,0.08343506,-4.890625,-2.03125,-0.171875
23,1697606885,-0.061279297,-0.991272,0.08880615,-3.234375,-1.59375,2.171875
24,1697606925,-0.071777344,-0.9937134,0.11785889,-1.34375,-0.390625,1.1875
25,1697606965,-0.064697266,-0.9956665,0.09906006,-1.875,-0.546875,0.578125
26,1697607005,-0.0715332,-0.98931885,0.10272217,-0.40625,1.359375,-0.65625
27,1697607045,-0.064941406,-0.9951782,0.10491943,-0.109375,1.6875,-1.09375
28,1697607085,-0.060546875,-0.9834595,0.09979248,-0.703125,-0.046875,-0.046875
29,1697607125,-0.072509766,-0.9963989,0.10345459,-0.078125,0.828125,-0.171875
30,1697607165,-0.06201172,-0.9890747,0.10223389,0.296875,0.046875,-0.203125
31,1697607205,-0.056884766,-0.98809814,0.093933105,-0.5,0.25,-0.265625
32,1697607245,-0.07006836,-0.991272,0.10028076,0.03125,1.171875,-0.140625
33,1697607285,-0.056640625,-0.9990845,0.1005249,-0.21875,0.03125,-0.3125
34,1697607325,-0.061035156,-0.9949341,0.09100342,-1.3125,-0.765625,-0.671875
35,1697607365,-0.06298828,-0.9837036,0.09490967,-0.75,0.734375,-1.703125
36,1697607405,-0.055664062,-1.0073853,0.10394287,1.1875,-0.046875,0.125
37,1697607445,-0.06591797,-0.9717407,0.093444824,-2.5,-0.609375,-1.375
38,1697607485,-0.04736328,-0.9973755,0.11444092,0.34375,1.140625,-0.484375
39,1697607525,-0.0637207,-0.99102783,0.10345459,-0.859375,-1.125,-0.21875
40,1697607565,-0.072265625,-1.0003052,0.10223389,-1.125,-0.15625,-0.5625
41,1697607605,-0.046875,-0.99420166,0.09686279,-0.546875,-0.21875,-0.703125
42,1697607645,-0.061523438,-0.98150635,0.09637451,0.046875,0.296875,0.03125
43,1697607685,-0.06567383,-0.9963989,0.09906006,0.0625,1.03125,-0.96875
44,1697607725,-0.06591797,-0.98760986,0.1083374,-1.265625,-0.078125,-0.171875
45,1697607765,-0.0715332,-0.9902954,0.09906006,0.25,0.984375,-0.359375
46,1697607805,-0.06665039,-0.9963989,0.10809326,0.265625,0.34375,0.0625
47,1697607845,-0.06738281,-0.9805298,0.10687256,0.28125,1.640625,0.40625
48,1697607885,-0.07324219,-0.9949341,0.113220215,-0.34375,1.3125,0.96875
49,1697607925,-0.06982422,-0.9990845,0.11419678,0.96875,1.6875,0.78125
50,1697607965,-0.06347656,-0.9866333,0.105895996,-0.125,0.484375,0.875
51,1697608005,-0.05810547,-0.9949341,0.09832764,1.09375,1.984375,0.40625
52,1697608045,-0.051513672,-0.9932251,0.101745605,0.828125,1.046875,0.65625
53,1697608085,-0.059570312,-0.99102783,0.10321045,0.6875,0.53125,0.71875
54,1697608125,-0.051757812,-1.0117798,0.09539795,-0.828125,-0.078125,0.65625
55,1697608165,-0.049560547,-0.97247314,0.09539795,0.046875,1.078125,-0.09375
56,1697608205,-0.057128906,-1.0205688,0.10247803,0.65625,-0.1875,0.546875
57,1697608245,-0.0546875,-0.9624634,0.086364746,-1.4375,0.09375,-1.265625
58,1697608285,-0.056640625,-1.0037231,0.101745605,-0.109375,1.09375,-0.265625
59,1697608325,-0.0637207,-0.99224854,0.0993042,0.265625,-0.09375,-1.25
60,1697608365,-0.04638672,-0.98687744,0.09564209,-0.953125,0.53125,-0.328125
61,1697608405,-0.049316406,-0.9968872,0.09881592,-0.296875,-0.40625,-0.734375
62,1697608445,-0.04248047,-0.99664307,0.094177246,1.5625,0.03125,-0.328125
63,1697608485,-0.0546875,-1.00177,0.09661865,1.546875,-0.8125,0.34375
64,1697608525,-0.05493164,-0.9834595,0.08831787,0.0,-1.90625,-0.984375
65,1697608565,-0.048339844,-0.9907837,0.08831787,0.875,-0.0625,-0.140625
66,1697608605,-0.061035156,-0.99176025,0.08758545,-0.0625,-1.546875,-0.578125
67,1697608645,-0.03930664,-0.9854126,0.09246826,-0.1875,-0.703125,-0.171875
68,1697608685,-0.063964844,-0.986145,0.08685303,-0.015625,-0.484375,0.265625
69,1697608725,-0.05517578,-0.9976196,0.09490967,0.328125,0.296875,-0.046875
70,1697608765,-0.060546875,-0.9898071,0.08416748,0.140625,-0.09375,0.3125
71,1697608805,-0.049316406,-0.991272,0.09295654,0.65625,0.28125,0.421875
72,1697608845,-0.056396484,-0.99468994,0.09124756,-0.59375,-0.25,-0.28125
73,1697608885,-0.04736328,-0.987854,0.09100342,0.171875,0.21875,-0.328125
74,1697608925,-0.06640625,-1.010315,0.09320068,-1.53125,-1.171875,-0.265625
75,1697608965,-0.040527344,-0.9871216,0.07733154,-1.390625,1.0625,-1.171875
76,1697609005,-0.06689453,-1.0022583,0.109802246,0.015625,0.0,0.46875
77,1697609045,-0.060546875,-0.98101807,0.09124756,-1.796875,-0.421875,-2.328125
78,1697609085,-0.05029297,-0.99591064,0.09661865,0.875,1.1875,-0.53125
79,1697609125,-0.064453125,-0.9920044,0.09979248,0.5,-0.40625,-0.953125
80,1697609165,-0.048339844,-0.989563,0.0927124,0.609375,-1.265625,-0.375
81,1697609205,-0.052490234,-1.0044556,0.085876465,0.09375,-0.15625,0.3125
82,1697609245,-0.049804688,-0.989563,0.11126709,3.0,1.9375,0.171875
83,1697609285,-0.061035156,-1.0278931,0.10858154,2.578125,-1.65625,-1.34375
84,1697609325,-0.075927734,-0.9956665,0.07196045,2.9375,-3.578125,-3.25
85,1697609365,-0.05859375,-0.97735596,0.05291748,4.796875,0.265625,-2.3125
86,1697609405,-0.060058594,-0.9741821,0.066345215,2.125,-1.5625,-0.78125
87,1697609445,-0.056152344,-0.9871216,0.035339355,0.0,-3.921875,-0.21875
88,1697609485,-0.078125,-0.9859009,0.05340576,-0.4375,-0.03125,-1.6875
89,1697609525,-0.05517578,-0.99005127,0.077819824,-3.40625,-1.46875,0.265625
90,1697609565,-0.061523438,-0.9714966,0.054626465,-3.484375,-0.875,0.375
91,1697609605,-0.060058594,-0.9859009,0.07635498,-5.703125,1.140625,0.53125
92,1697609645,-0.057373047,-0.99542236,0.10101318,-2.734375,2.828125,1.4375
93,1697609685,-0.061035156,-1.0027466,0.10687256,-0.15625,0.78125,2.984375
94,1697609725,-0.056152344,-0.99346924,0.09100342,-1.578125,-0.78125,0.890625
95,1697609765,-0.059814453,-0.9824829,0.090270996,-0.46875,0.828125,0.6875
96,1697609805,-0.051757812,-1.0249634,0.10638428,1.40625,0.796875,1.09375
97,1697609845,-0.064941406,-0.9639282,0.07269287,-2.59375,-0.9375,-1.703125
98,1697609885,-0.052978516,-0.99884033,0.10076904,-0.5,0.953125,-0.96875
99,1697609925,-0.059570312,-0.9873657,0.086364746,0.46875,0.046875,-0.984375
100,1697609965,-0.051757812,-0.9924927,0.082458496,-1.25,-0.53125,-0.953125
101,1697610005,-0.05419922,-0.99420166,0.09051514,-1.328125,-0.453125,-1.53125
102,1697610045,-0.059326172,-0.9949341,0.09124756,-1.171875,0.140625,-0.90625
103,1697610085,-0.052490234,-0.99102783,0.08416748,-1.296875,0.09375,-1.9375
104,1697610125,-0.061279297,-0.9944458,0.10736084,-0.34375,-0.640625,-0.28125
105,1697610165,-0.060058594,-0.98028564,0.09564209,-1.015625,-1.546875,-0.71875
106,1697610205,-0.05444336,-0.9951782,0.09442139,-0.140625,0.203125,-0.59375
107,1697610245,-0.06982422,-0.9976196,0.10272217,-0.5,-0.640625,-0.78125
108,1697610285,-0.06616211,-0.9898071,0.09661865,-0.875,-0.078125,-0.65625
109,1697610325,-0.05810547,-0.99005127,0.0927124,0.171875,-0.0625,-0.4375
110,1697610365,-0.068359375,-1.0007935,0.10491943,-0.453125,0.140625,0.046875
111,1697610405,-0.07128906,-1.0032349,0.10101318,-1.5,-0.171875,-1.171875
112,1697610445,-0.06518555,-0.98883057,0.10321045,0.015625,1.3125,-0.875
113,1697610485,-0.09838867,-0.99420166,0.101257324,0.421875,0.9375,-0.09375
114,1697610525,-0.072753906,-0.9817505,0.08660889,0.15625,3.546875,-1.96875
115,1697610565,-0.05078125,-0.972229,0.11029053,2.828125,4.3125,1.984375
116,1697610605,-0.061523438,-1.0039673,0.09320068,-1.9375,0.515625,-0.5
117,1697610645,-0.046142578,-0.97442627,0.08782959,0.765625,4.21875,1.328125
118,1697610685,-0.052001953,-1.0042114,0.109069824,0.78125,2.640625,0.875
119,1697610725,-0.07373047,-0.98687744,0.09100342,0.0,2.421875,0.265625
120,1697610765,-0.060546875,-0.9968872,0.101257324,0.0625,2.390625,-0.59375
121,1697610805,-0.04663086,-0.98565674,0.093444824,-0.875,1.25,-0.203125
122,1697610845,-0.049072266,-0.9951782,0.09442139,0.46875,0.84375,0.9375
123,1697610885,-0.047851562,-0.99468994,0.09588623,-0.421875,0.703125,-0.328125
124,1697610925,-0.056884766,-0.9968872,0.0914917,-0.59375,-0.046875,-1.03125
125,1697610965,-0.05493164,-0.98931885,0.09564209,0.828125,-0.59375,-0.046875
126,1697611005,-0.05883789,-0.9932251,0.093688965,0.40625,-0.90625,-0.328125
127,1697611045,-0.057617188,-0.99224854,0.08685303,-0.234375,-1.578125,-0.5625
128,1697611085,-0.061767578,-0.9883423,0.097351074,1.484375,-0.03125,0.578125
129,1697611125,-0.068603516,-0.99420166,0.093933105,0.015625,-1.0625,0.21875
130,1697611165,-0.072021484,-0.9976196,0.09466553,0.78125,0.421875,-0.234375
131,1697611205,-0.07104492,-0.9990845,0.08905029,-0.984375,0.84375,-0.71875
132,1697611245,-0.059326172,-0.99005127,0.08782959,0.453125,1.8125,-0.828125
133,1697611285,-0.05078125,-0.9993286,0.09515381,-1.265625,-0.171875,-0.5625
134,1697611325,-0.05102539,-0.97735596,0.09661865,-0.390625,0.578125,-1.03125
135,1697611365,-0.045166016,-1.0176392,0.07977295,0.0,-0.375,-0.515625
136,1697611405,-0.049072266,-0.97369385,0.07293701,-1.1875,1.3125,0.109375
137,1697611445,-0.060791016,-1.0073853,0.09490967,1.515625,1.53125,1.3125
138,1697611485,-0.056884766,-0.991272,0.10076904,0.890625,-0.015625,1.609375
139,1697611525,-0.06738281,-0.99713135,0.08880615,-0.03125,-0.171875,1.3125
140,1697611565,-0.072021484,-1.00177,0.10076904,0.40625,-0.25,0.3125
141,1697611605,-0.03881836,-1.0007935,0.09979248,-0.109375,-1.3125,-0.609375
142,1697611645,-0.052246094,-0.98687744,0.08880615,-0.53125,-1.390625,-1.34375
143,1697611685,-0.06616211,-0.99176025,0.09857178,-1.078125,-1.015625,-1.15625
144,1697611725,-0.053466797,-1.000061,0.08831787,-1.125,-0.390625,-1.203125
145,1697611765,-0.05834961,-0.9963989,0.09613037,-0.703125,-0.953125,-1.921875
146,1697611805,-0.064208984,-0.98883057,0.08734131,-2.6875,-1.265625,-1.171875
147,1697611845,-0.06567383,-0.98443604,0.10028076,-0.359375,0.015625,-0.90625
148,1697611885,-0.061035156,-0.9932251,0.09197998,-2.640625,-0.84375,-1.09375
149,1697611925,-0.064697266,-0.9998169,0.09979248,0.171875,0.671875,-0.53125
150,1697611965,-0.0690918,-0.98687744,0.0927124,-2.734375,-0.765625,-1.234375
151,1697612005,-0.0637207,-0.9961548,0.113464355,0.5625,1.859375,-0.609375
152,1697612045,-0.068359375,-0.9890747,0.10491943,-1.5,-1.734375,-0.53125
153,1697612085,-0.06323242,-0.99005127,0.10418701,-0.921875,-0.09375,-1.21875
154,1697612125,-0.06542969,-0.9829712,0.11932373,-0.078125,-0.140625,-0.1875
155,1697612165,-0.07739258,-1.0137329,0.105163574,-0.78125,-1.65625,-0.828125
156,1697612205,-0.060058594,-0.96832275,0.09100342,-2.125,-0.1875,-0.546875
157,1697612245,-0.06982422,-0.99664307,0.10784912,0.578125,0.453125,-0.40625
158,1697612285,-0.060546875,-0.9841919,0.109069824,0.765625,0.578125,0.5
159,1697612325,-0.0690918,-0.9951782,0.1083374,-0.625,0.109375,0.4375
160,1697612365,-0.07324219,-0.99224854,0.10662842,-0.53125,0.203125,-0.09375
161,1697612405,-0.05908203,-0.987854,0.11883545,-0.546875,0.34375,-0.40625
162,1697612445,-0.064941406,-0.9898071,0.10736084,-1.375,-0.109375,-1.078125
163,1697612485,-0.061523438,-0.98394775,0.10467529,-0.09375,1.921875,-0.640625
164,1697612525,-0.060058594,-0.99957275,0.11151123,-0.0625,1.015625,-0.21875
165,1697612565,-0.06323242,-0.99468994,0.09881592,-0.75,1.09375,-1.125
166,1697612605,-0.063964844,-0.9871216,0.105163574,-0.375,1.140625,-0.765625
167,1697612645,-0.064208984,-0.98931885,0.11029053,-1.265625,1.046875,-0.546875
168,1697612685,-0.052246094,-0.9902954,0.113708496,-1.640625,-0.578125,-0.390625
169,1697612725,-0.0625,-0.98638916,0.10003662,-1.5,0.328125,-0.328125
170,1697612765,-0.053955078,-0.9871216,0.12640381,-0.390625,0.1875,-0.1875
171,1697612805,-0.076416016,-0.98565674,0.11126709,-0.140625,0.484375,0.96875
172,1697612845,-0.06665039,-0.99713135,0.1305542,1.828125,0.875,0.5625
173,1697612885,-0.068359375,-0.99420166,0.10882568,-0.78125,-1.1875,0.234375
174,1697612925,-0.061767578,-0.975647,0.113220215,1.984375,0.9375,-0.015625
175,1697612965,-0.064697266,-1.010315,0.11077881,2.953125,0.609375,0.28125
176,1697613005,-0.05419922,-0.97320557,0.08026123,0.078125,-0.28125,-0.109375
177,1697613045,-0.04711914,-1.0005493,0.11151123,1.96875,1.4375,0.09375
178,1697613085,-0.0625,-0.99053955,0.10272217,-1.640625,-0.453125,-0.9375
179,1697613125,-0.067871094,-0.99542236,0.101989746,-1.421875,1.71875,-0.46875
180,1697613165,-0.057617188,-0.99957275,0.109558105,-3.125,0.125,-1.140625
181,1697613205,-0.052001953,-0.99053955,0.09906006,-2.484375,0.84375,-0.921875
182,1697613245,-0.036621094,-0.9849243,0.10736084,-1.1875,1.046875,-0.765625
183,1697613285,-0.05834961,-0.9924927,0.11956787,1.90625,1.203125,-0.046875
184,1697613325,-0.0793457,-0.9973755,0.121276855,0.515625,-1.203125,0.3125
185,1697613365,-0.083740234,-0.99786377,0.11004639,0.421875,-0.421875,-0.796875
186,1697613405,-0.072021484,-0.99420166,0.109313965,-0.515625,-1.71875,-1.265625
187,1697613445,-0.068603516,-0.98394775,0.098083496,-0.1875,-0.515625,-0.6875
188,1697613485,-0.053222656,-0.9907837,0.10467529,0.125,-0.078125,-0.515625
189,1697613525,-0.06567383,-0.98638916,0.11126709,0.015625,-0.5625,-0.65625
190,1697613565,-0.07324219,-0.9927368,0.10296631,-1.046875,-1.453125,-1.328125
191,1697613605,-0.06689453,-0.98931885,0.09954834,0.296875,0.390625,-0.84375
192,1697613645,-0.07763672,-0.98809814,0.11590576,-0.046875,0.109375,-0.125
193,1697613685,-0.06665039,-1.003479,0.109802246,-1.296875,-0.796875,0.296875
194,1697613725,-0.0625,-0.9793091,0.11419678,-0.4375,0.53125,0.4375
195,1697613765,-0.07885742,-1.0056763,0.105895996,-0.15625,-0.40625,0.9375
196,1697613805,-0.06982422,-0.97491455,0.10272217,0.4375,1.53125,0.46875
197,1697613845,-0.05908203,-0.9990845,0.117126465,1.25,2.40625,0.671875
198,1697613885,-0.075927734,-1.0054321,0.11419678,-1.140625,0.75,-0.578125
199,1697613925,-0.06201172,-0.9849243,0.1083374,-0.625,0.9375,-1.21875
200,1697613965,-0.06518555,-0.9859009,0.097351074,-1.203125,0.171875,-0.859375
201,1697614005,-0.053466797,-0.99346924,0.11175537,1.296875,2.421875,-0.140625
202,1697614045,-0.064941406,-0.99053955,0.113708496,-0.203125,-0.5625,0.21875
203,1697614085,-0.06689453,-0.9824829,0.101989746,0.828125,0.96875,0.765625
204,1697614125,-0.0625,-1.0059204,0.105651855,1.375,1.734375,0.65625
205,1697614165,-0.059570312,-0.9871216,0.105895996,1.71875,-0.015625,0.625
206,1697614205,-0.05810547,-0.98760986,0.09832764,0.0,-0.578125,0.359375
207,1697614245,-0.05444336,-0.99053955,0.09954834,1.0,0.984375,0.484375
208,1697614285,-0.049804688,-0.9915161,0.09466553,0.0,0.59375,-0.078125
209,1697614325,-0.046142578,-0.99591064,0.10418701,-1.59375,0.640625,-0.234375
210,1697614365,-0.05810547,-0.9981079,0.10247803,-1.953125,0.328125,-1.4375
211,1697614405,-0.051513672,-0.99102783,0.109802246,-3.578125,0.890625,-1.046875
212,1697614445,-0.047607422,-0.986145,0.09906006,-3.59375,-0.703125,-0.71875
213,1697614485,-0.06542969,-0.9927368,0.12347412,-0.390625,0.90625,0.46875
214,1697614525,-0.060546875,-0.9734497,0.12225342,-2.328125,-1.734375,-0.375
215,1697614565,-0.07299805,-1.0176392,0.12615967,0.4375,-0.28125,0.171875
216,1697614605,-0.061279297,-0.96759033,0.10638428,-0.59375,-1.1875,-0.578125
217,1697614645,-0.053466797,-0.9963989,0.1251831,0.234375,0.21875,0.71875
218,1697614685,-0.064453125,-0.9898071,0.1149292,-1.0,-1.53125,0.0
219,1697614725,-0.053466797,-0.98638916,0.1239624,-0.265625,-0.546875,-0.5625
220,1697614765,-0.071777344,-0.99102783,0.10614014,-1.3125,-1.34375,-0.46875
221,1697614805,-0.06274414,-1.0010376,0.12445068,-0.046875,0.390625,-0.734375
222,1697614845,-0.057617188,-0.991272,0.12762451,-1.328125,-0.5,-1.4375
223,1697614885,-0.059814453,-0.9873657,0.12249756,0.125,0.40625,-1.546875
224,1697614925,-0.071777344,-0.9927368,0.12689209,-0.859375,-1.28125,-0.765625
225,1697614965,-0.06689453,-0.98760986,0.1071167,-0.046875,0.671875,-1.625
226,1697615005,-0.06274414,-0.9956665,0.12982178,-2.484375,0.015625,-0.078125
227,1697615045,-0.0690918,-0.9981079,0.12738037,-2.0625,-0.203125,0.21875
228,1697615085,-0.052001953,-0.96588135,0.12005615,0.109375,0.296875,0.453125
229,1697615125,-0.07519531,-1.0005493,0.13421631,2.3125,0.859375,1.546875
230,1697615165,-0.06347656,-0.99298096,0.11785889,1.953125,-0.25,-0.109375
231,1697615205,-0.060058594,-0.9834595,0.11102295,2.796875,1.0625,0.59375
232,1697615245,-0.053222656,-1.0059204,0.117614746,2.078125,2.15625,-0.125
233,1697615285,-0.05834961,-0.9898071,0.12298584,1.421875,-0.015625,1.953125
234,1697615325,-0.068603516,-0.987854,0.109558105,-0.671875,-0.78125,-0.71875
235,1697615365,-0.052001953,-0.98443604,0.1149292,0.25,0.4375,0.78125
236,1697615405,-0.06225586,-0.9998169,0.12445068,-0.171875,-0.84375,0.0
237,1697615445,-0.053710938,-0.9805298,0.112976074,-0.046875,-0.375,-0.34375
238,1697615485,-0.061035156,-1.0012817,0.11785889,-0.09375,0.328125,-0.515625
239,1697615525,-0.056152344,-0.9849243,0.11199951,-0.296875,-0.046875,-1.140625
240,1697615565,-0.05859375,-0.9885864,0.11029053,-0.65625,0.5625,-1.453125
241,1697615605,-0.060546875,-0.986145,0.11395264,-0.546875,-0.109375,-1.265625
242,1697615645,-0.061767578,-0.9956665,0.11834717,-1.0,-0.484375,-1.0625
243,1697615685,-0.064208984,-0.9871216,0.109558105,-0.9375,-0.140625,-1.171875
244,1697615725,-0.056396484,-0.9920044,0.1071167,-1.40625,-0.296875,-0.515625
245,1697615765,-0.063964844,-0.99005127,0.11663818,-1.203125,0.71875,0.203125
246,1697615805,-0.06591797,-0.99420166,0.117614746,-1.828125,-0.53125,0.875
247,1697615845,-0.05883789,-0.99005127,0.121032715,0.734375,1.046875,0.984375
248,1697615885,-0.06762695,-0.9937134,0.12689209,-0.28125,-0.328125,1.171875
249,1697615925,-0.057128906,-0.986145,0.12371826,1.359375,0.828125,0.5625
250,1697615965,-0.056396484,-0.9907837,0.11541748,-0.140625,1.40625,0.6875
251,1697616005,-0.049804688,-0.9937134,0.1251831,1.203125,1.015625,0.609375
252,1697616045,-0.053955078,-0.97857666,0.11004639,-0.015625,0.015625,-0.078125
253,1697616085,-0.05908203,-0.9924927,0.11541748,0.328125,1.25,0.4375
254,1697616125,-0.044921875,-0.9883423,0.109558105,0.421875,0.9375,-0.25
255,1697616165,-0.047607422,-0.99053955,0.11883545,-0.46875,0.1875,0.609375
256,1697616205,-0.05859375,-0.98443604,0.1239624,-1.09375,-1.140625,-0.671875
257,1697616245,-0.055664062,-0.99542236,0.12567139,-0.359375,-1.140625,-0.5
258,1697616285,-0.061035156,-0.99224854,0.11907959,-0.421875,-0.109375,-1.40625
259,1697616325,-0.052001953,-0.99176025,0.11834717,-2.375,-1.28125,-1.6875
260,1697616365,-0.064941406,-0.99298096,0.12371826,-1.265625,0.84375,-1.890625
261,1697616405,-0.0625,-0.9927368,0.12225342,-2.765625,1.015625,-2.203125
262,1697616445,-0.053222656,-0.98394775,0.1329956,-2.953125,1.828125,-1.328125
263,1697616485,-0.064453125,-0.987854,0.13739014,-2.71875,0.171875,-0.8125
264,1697616525,-0.052734375,-0.98321533,0.13201904,-0.9375,1.359375,-0.1875
265,1697616565,-0.072021484,-0.9841919,0.13568115,-0.53125,1.046875,0.265625
266,1697616605,-0.061279297,-0.9944458,0.13812256,0.71875,1.421875,0.171875
267,1697616645,-0.05517578,-0.98150635,0.12884521,0.875,1.046875,0.59375
268,1697616685,-0.05883789,-1.0007935,0.13031006,0.921875,1.6875,-0.109375
269,1697616725,-0.060546875,-0.99591064,0.13494873,1.515625,0.03125,0.96875
270,1697616765,-0.068603516,-0.9859009,0.13128662,-0.140625,0.640625,0.03125
271,1697616805,-0.044921875,-0.9846802,0.12982178,0.15625,0.015625,-0.109375
272,1697616845,-0.051513672,-0.9849243,0.1408081,0.140625,-0.78125,0.25
273,1697616885,-0.056640625,-0.9807739,0.12762451,-0.484375,-1.75,-0.9375
274,1697616925,-0.05053711,-0.9885864,0.137146,1.765625,0.75,-1.265625
275,1697616965,-0.056884766,-0.98809814,0.16253662,4.796875,-1.609375,-1.484375
276,1697617005,-0.056152344,-1.0130005,0.12908936,5.84375,-3.453125,-2.53125
277,1697617045,-0.10913086,-1.005188,0.08074951,1.359375,-5.578125,-1.15625
278,1697617085,-0.043945312,-0.98443604,0.11126709,2.546875,-3.375,-1.453125
279,1697617125,-0.075683594,-0.99298096,0.10028076,2.09375,-3.21875,-0.28125
280,1697617165,-0.060546875,-0.9763794,0.085876465,5.328125,-1.140625,-0.640625
281,1697617205,-0.051513672,-0.9902954,0.08001709,4.0,-1.921875,0.984375
282,1697617245,-0.08959961,-0.99957275,0.089538574,3.6875,-2.984375,0.484375
283,1697617285,-0.055419922,-0.9812622,0.07244873,2.8125,-1.15625,-1.34375
284,1697617325,-0.049560547,-0.9795532,0.06585693,-0.203125,-1.71875,-1.328125
285,1697617365,-0.068115234,-0.99053955,0.066101074,-1.5,-1.890625,-1.109375
286,1697617405,-0.06665039,-0.9727173,0.081970215,0.140625,0.421875,-0.625
287,1697617445,-0.08227539,-1.0110474,0.08514404,-4.5625,-1.875,-0.5
288,1697617485,-0.06201172,-0.9690552,0.07635498,-2.75,2.03125,-1.15625
289,1697617525,-0.05883789,-1.0122681,0.11444092,-0.78125,1.640625,2.015625
290,1697617565,-0.07836914,-0.9981079,0.09124756,-0.640625,-0.53125,0.234375
291,1697617605,-0.059814453,-0.9898071,0.08538818,0.125,1.515625,0.421875
292,1697617645,-0.076416016,-0.9937134,0.08782959,-0.328125,1.515625,0.640625
293,1697617685,-0.055664062,-0.98516846,0.09515381,1.03125,1.25,1.15625
294,1697617725,-0.072021484,-0.9949341,0.0914917,1.03125,1.359375,1.125
295,1697617765,-0.064941406,-0.9949341,0.08758545,0.15625,0.234375,0.484375
296,1697617805,-0.05517578,-0.9990845,0.085632324,1.21875,0.515625,0.015625
297,1697617845,-0.06298828,-0.99420166,0.08074951,-0.09375,-0.046875,-0.1875
298,1697617885,-0.06542969,-0.9937134,0.08343506,-0.359375,1.265625,-1.25
299,1697617925,-0.05029297,-0.9890747,0.085632324,0.21875,0.984375,-0.265625
300,1697617965,-0.0715332,-0.99835205,0.08416748,-0.078125,0.921875,0.359375
301,1697618005,-0.052734375,-0.99468994,0.08905029,0.015625,0.859375,-0.34375
302,1697618045,-0.056152344,-1.0090942,0.081726074,-0.390625,-0.75,1.515625
303,1697618085,-0.053710938,-0.9846802,0.082214355,0.6875,0.578125,0.046875
304,1697618125,-0.056152344,-1.0161743,0.090026855,1.34375,0.171875,1.25
305,1697618165,-0.061279297,-0.9734497,0.070251465,-2.015625,-0.265625,-1.078125
306,1697618205,-0.059326172,-0.9973755,0.08319092,0.296875,2.109375,-0.53125
307,1697618245,-0.052978516,-0.9956665,0.08026123,-0.75,0.28125,-1.21875
308,1697618285,-0.055664062,-0.9927368,0.08294678,-0.46875,1.578125,-0.453125
309,1697618325,-0.05908203,-0.9932251,0.08001709,-1.21875,0.015625,-1.03125
310,1697618365,-0.049072266,-0.9871216,0.08465576,1.59375,2.34375,0.5
311,1697618405,-0.057861328,-0.99468994,0.08343506,0.21875,-0.8125,1.421875
312,1697618445,-0.052246094,-0.9883423,0.07928467,-0.25,0.984375,0.375
313,1697618485,-0.057373047,-0.9973755,0.09588623,0.625,1.1875,0.234375
314,1697618525,-0.045410156,-0.99468994,0.07611084,-0.0625,-1.046875,-0.578125
315,1697618565,-0.044189453,-0.9902954,0.07537842,-0.125,0.09375,-0.453125
316,1697618605,-0.048583984,-0.99346924,0.06976318,0.015625,0.171875,-0.546875
317,1697618645,-0.052978516,-0.99835205,0.08099365,-0.328125,-0.15625,-0.296875
318,1697618685,-0.056884766,-0.9963989,0.08123779,0.109375,0.296875,-0.859375
319,1697618725,-0.06298828,-0.987854,0.09100342,0.421875,0.046875,-0.421875
320,1697618765,-0.05078125,-0.99102783,0.07342529,-0.9375,0.21875,-1.484375
321,1697618805,-0.05810547,-0.9776001,0.08734131,1.609375,0.828125,0.828125
322,1697618845,-0.051757812,-0.9927368,0.07562256,-2.171875,-1.625,-1.390625
323,1697618885,-0.056152344,-0.9834595,0.08148193,0.328125,2.3125,0.15625
324,1697618925,-0.056884766,-1.0037231,0.10223389,-0.71875,0.875,-0.453125
325,1697618965,-0.06713867,-0.99542236,0.08856201,-1.234375,0.703125,-0.953125
326,1697619005,-0.04663086,-0.99786377,0.086364746,-0.96875,0.390625,-1.421875
327,1697619045,-0.051757812,-0.9780884,0.08392334,-0.734375,0.203125,-0.828125
328,1697619085,-0.052978516,-0.9981079,0.08538818,-0.328125,0.21875,-0.84375
329,1697619125,-0.051757812,-0.98760986,0.085632324,-0.75,0.0,-1.0
330,1697619165,-0.05810547,-0.99591064,0.08880615,-0.375,0.375,-0.671875
331,1697619205,-0.056396484,-0.9915161,0.09197998,0.4375,-0.703125,-0.203125
332,1697619245,-0.06665039,-0.9924927,0.08538818,-1.1875,-1.640625,0.515625
333,1697619285,-0.05029297,-0.99053955,0.078308105,-0.078125,0.234375,1.3125
334,1697619325,-0.059814453,-1.0003052,0.09588623,0.53125,0.65625,2.09375
335,1697619365,-0.059814453,-0.9937134,0.09466553,-0.765625,-1.078125,0.4375
336,1697619405,-0.04345703,-0.9961548,0.085876465,-0.140625,0.671875,-0.5
337,1697619445,-0.04736328,-0.9871216,0.08856201,-0.078125,-0.328125,0.0
338,1697619485,-0.06201172,-1.000061,0.09906006,0.5,0.265625,-0.625
339,1697619525,-0.040039062,-1.010315,0.11077881,0.875,0.71875,-2.25
340,1697619565,-0.041503906,-0.99102783,0.07122803,-3.8125,-4.6875,-6.890625
341,1697619605,-0.08544922,-0.99224854,0.058776855,-1.796875,-3.375,-4.390625
342,1697619645,-0.07470703,-0.9741821,0.1149292,2.8125,1.328125,-0.625
343,1697619685,-0.08935547,-1.0012817,0.09295654,0.53125,-2.078125,-0.59375
344,1697619725,-0.07788086,-0.9902954,0.07562256,0.34375,-0.390625,-0.859375
345,1697619765,-0.068603516,-0.9758911,0.0758667,0.921875,0.828125,-0.484375
346,1697619805,-0.060058594,-0.99053955,0.0758667,-0.703125,-1.390625,-0.234375
347,1697619845,-0.047851562,-0.973938,0.07366943,0.140625,0.328125,0.265625
348,1697619885,-0.059814453,-0.98516846,0.06317139,-2.3125,-2.4375,0.4375
349,1697619925,-0.05834961,-0.9898071,0.090026855,-0.296875,0.6875,0.609375
350,1697619965,-0.0703125,-0.9968872,0.1005249,-0.046875,-1.21875,1.15625
351,1697620005,-0.08618164,-1.0032349,0.0914917,0.328125,0.640625,0.25
352,1697620045,-0.057128906,-1.0056763,0.10076904,-1.640625,-0.484375,-0.578125
353,1697620085,-0.076171875,-0.98931885,0.08392334,-1.453125,0.625,-0.8125
354,1697620125,-0.060058594,-0.9885864,0.082458496,0.671875,1.046875,-0.4375
355,1697620165,-0.057617188,-0.9780884,0.08831787,0.4375,0.765625,0.890625
356,1697620205,-0.06933594,-1.0098267,0.09246826,-0.515625,-0.09375,0.15625
357,1697620245,-0.057128906,-0.9873657,0.09490967,0.0,0.328125,-0.921875
358,1697620285,-0.072021484,-0.99713135,0.09539795,-1.8125,-0.84375,-0.546875
359,1697620325,-0.05908203,-1.0073853,0.08465576,-1.234375,-0.375,-1.78125
360,1697620365,-0.05810547,-0.97320557,0.08050537,-0.953125,1.125,-2.171875
361,1697620405,-0.08520508,-1.0122681,0.109313965,0.859375,-0.09375,0.1875
362,1697620445,-0.068359375,-0.97003174,0.08416748,-1.921875,-0.484375,-2.140625
363,1697620485,-0.08081055,-1.0029907,0.10687256,-0.484375,1.21875,0.46875
364,1697620525,-0.07373047,-0.98638916,0.09661865,0.5625,0.53125,-0.46875
365,1697620565,-0.060546875,-0.9898071,0.09197998,0.125,0.65625,1.015625
366,1697620605,-0.072753906,-0.99835205,0.08660889,-0.09375,-0.375,-0.21875
367,1697620645,-0.059326172,-0.9854126,0.09515381,0.9375,0.515625,-0.125
368,1697620685,-0.07739258,-0.99957275,0.101745605,-1.234375,-1.421875,-0.515625
369,1697620725,-0.07739258,-0.99053955,0.098083496,-1.375,-1.25,-1.65625
370,1697620765,-0.07080078,-0.9890747,0.09564209,-1.15625,-0.609375,-1.34375
371,1697620805,-0.07543945,-0.991272,0.08782959,-0.5,-0.828125,-1.46875
372,1697620845,-0.06958008,-0.98394775,0.09954834,-0.265625,-0.09375,-0.875
373,1697620885,-0.09106445,-0.99664307,0.101989746,-0.828125,-0.078125,-0.59375
374,1697620925,-0.072509766,-0.9849243,0.101989746,0.390625,-0.09375,-0.59375
375,1697620965,-0.071777344,-0.9854126,0.0848999,0.40625,-0.078125,0.796875
376,1697621005,-0.08325195,-0.9973755,0.093688965,0.78125,0.9375,0.140625
377,1697621045,-0.06542969,-0.9885864,0.09588623,0.125,0.53125,0.625
378,1697621085,-0.07373047,-0.99346924,0.09173584,-0.546875,-0.203125,0.28125
379,1697621125,-0.07739258,-0.9937134,0.08929443,-0.546875,0.296875,-0.84375
380,1697621165,-0.06518555,-0.9859009,0.09661865,-1.03125,0.3125,-0.5625
381,1697621205,-0.06933594,-1.0095825,0.09075928,-2.078125,-1.015625,-0.609375
382,1697621245,-0.068115234,-0.97540283,0.09515381,-1.046875,1.171875,-1.8125
383,1697621285,-0.08105469,-1.0090942,0.11224365,0.75,0.65625,-0.265625
384,1697621325,-0.078125,-0.9710083,0.09295654,-1.75,0.140625,-1.421875
385,1697621365,-0.0793457,-1.0022583,0.10736084,1.25,1.203125,0.671875
386,1697621405,-0.07910156,-0.99176025,0.09246826,0.53125,0.171875,0.5
387,1697621445,-0.06347656,-0.98931885,0.08929443,0.578125,1.125,0.625
388,1697621485,-0.07861328,-1.0056763,0.09661865,-0.328125,-0.578125,0.171875
389,1697621525,-0.07080078,-0.9932251,0.097351074,0.359375,0.734375,-0.984375
390,1697621565,-0.06591797,-0.98443604,0.10345459,-0.921875,-0.359375,-0.703125
391,1697621605,-0.095947266,-0.99884033,0.10394287,-2.671875,-0.5,-1.5625
392,1697621645,-0.06591797,-0.99005127,0.10662842,-1.078125,0.015625,-1.5625
393,1697621685,-0.09033203,-0.987854,0.105651855,-1.765625,-1.140625,-0.890625
394,1697621725,-0.07470703,-0.99053955,0.1005249,-1.203125,0.3125,-1.59375
395,1697621765,-0.068359375,-0.9817505,0.10467529,0.328125,1.609375,-0.1875
396,1697621805,-0.09790039,-1.00177,0.12786865,-0.09375,0.5,0.453125
397,1697621845,-0.088378906,-0.98565674,0.11932373,0.28125,1.0,0.109375
398,1697621885,-0.07861328,-0.9937134,0.109069824,0.21875,0.890625,0.515625
399,1697621925,-0.072753906,-0.98516846,0.10467529,0.09375,0.375,0.578125
400,1697621965,-0.07763672,-0.9837036,0.10614014,0.265625,0.328125,0.375
401,1697622005,-0.080078125,-1.0027466,0.10736084,-0.453125,0.34375,-0.484375
402,1697622045,-0.06982422,-0.98760986,0.11932373,0.203125,1.1875,-0.984375
403,1697622085,-0.078125,-0.9924927,0.109069824,-1.125,-0.171875,-2.734375
404,1697622125,-0.0703125,-0.9890747,0.10784912,-2.765625,-1.3125,-4.453125
405,1697622165,-0.08203125,-0.97857666,0.11566162,2.765625,-0.96875,-1.625
406,1697622205,-0.08618164,-0.9898071,0.09320068,-0.578125,-1.671875,-2.671875
407,1697622245,-0.09057617,-0.9717407,0.10662842,2.140625,1.4375,1.3125
408,1697622285,-0.10864258,-1.0176392,0.121276855,3.234375,-1.09375,1.3125
409,1697622325,-0.08227539,-0.9885864,0.086364746,0.609375,-2.125,-0.296875
410,1697622365,-0.07763672,-0.987854,0.09588623,2.625,-0.375,1.765625
411,1697622405,-0.08911133,-0.9981079,0.093444824,-1.28125,-2.265625,0.578125
412,1697622445,-0.076416016,-0.9805298,0.09051514,1.375,-0.375,0.71875
413,1697622485,-0.07397461,-0.98931885,0.10028076,-1.28125,-2.25,-0.234375
414,1697622525,-0.07739258,-0.98101807,0.08270264,-0.65625,-0.984375,-0.765625
415,1697622565,-0.080078125,-0.9763794,0.09539795,-1.203125,-1.609375,0.546875
416,1697622605,-0.103027344,-0.9924927,0.10076904,-1.28125,-0.234375,0.328125
417,1697622645,-0.07055664,-0.9932251,0.117370605,0.359375,1.96875,0.03125
418,1697622685,-0.09692383,-0.99713135,0.10760498,-2.078125,-0.125,0.234375
419,1697622725,-0.07543945,-0.9985962,0.10736084,1.0625,2.765625,-0.78125
420,1697622765,-0.087646484,-0.98443604,0.093933105,-0.953125,0.640625,0.390625
421,1697622805,-0.08178711,-0.9985962,0.10272217,-0.4375,1.65625,0.1875
422,1697622845,-0.063964844,-0.98687744,0.09613037,-0.921875,0.515625,-0.5625
423,1697622885,-0.06958008,-0.9956665,0.105407715,-1.265625,0.328125,-0.078125
424,1697622925,-0.078125,-0.98931885,0.09295654,-1.90625,-0.171875,-0.703125
425,1697622965,-0.06665039,-0.99176025,0.10882568,-1.9375,0.359375,-0.140625
426,1697623005,-0.08178711,-0.98883057,0.113220215,-1.015625,1.375,-0.203125
427,1697623045,-0.0793457,-1.0181274,0.11956787,0.96875,0.25,0.796875
428,1697623085,-0.060546875,-0.9758911,0.0927124,-4.078125,-2.6875,-0.703125
429,1697623125,-0.0769043,-0.99884033,0.11590576,1.15625,1.71875,0.75
430,1697623165,-0.0703125,-0.9924927,0.11468506,-0.46875,-1.953125,0.015625
431,1697623205,-0.08178711,-0.98809814,0.1071167,-0.453125,-0.4375,0.390625
432,1697623245,-0.07495117,-1.0025024,0.10028076,-0.90625,0.0625,-0.890625
433,1697623285,-0.052734375,-0.9780884,0.10662842,1.40625,1.296875,0.28125
434,1697623325,-0.0871582,-0.9973755,0.10858154,-0.5,-0.9375,0.015625
435,1697623365,-0.07397461,-0.9846802,0.11102295,0.640625,1.046875,0.0625
436,1697623405,-0.07324219,-0.99176025,0.105651855,1.140625,0.1875,0.875
437,1697623445,-0.076171875,-0.99346924,0.09954834,0.96875,-0.140625,0.6875
438,1697623485,-0.061279297,-0.9915161,0.105163574,0.59375,0.4375,0.78125
439,1697623525,-0.076660156,-0.9932251,0.10345459,-0.453125,-0.09375,-0.078125
440,1697623565,-0.06347656,-0.99176025,0.09979248,0.109375,1.015625,-0.671875
441,1697623605,-0.05859375,-0.98809814,0.105651855,-0.15625,0.375,-0.03125
442,1697623645,-0.075927734,-0.99591064,0.10296631,-0.984375,0.109375,-0.21875
443,1697623685,-0.060791016,-0.9898071,0.105407715,-0.953125,0.59375,-0.859375
444,1697623725,-0.07714844,-0.99468994,0.09881592,-1.828125,0.359375,-1.609375
445,1697623765,-0.07299805,-0.9907837,0.11444092,-1.359375,0.15625,-2.5
446,1697623805,-0.07763672,-0.98150635,0.11004639,-1.171875,0.125,-2.109375
447,1697623845,-0.07739258,-1.0054321,0.105895996,-2.546875,-1.015625,-1.21875
448,1697623885,-0.060546875,-0.9685669,0.11444092,-0.75,0.015625,-1.296875
449,1697623925,-0.08911133,-1.017395,0.124938965,-1.03125,-2.125,-0.25
450,1697623965,-0.07421875,-0.96710205,0.09686279,-2.0,0.234375,-2.15625
451,1697624005,-0.0703125,-0.9963989,0.12615967,-0.296875,0.6875,-0.046875
452,1697624045,-0.08666992,-0.9873657,0.11077881,-1.109375,-0.921875,-0.59375
453,1697624085,-0.07324219,-0.9846802,0.1161499,-0.390625,0.984375,-0.28125
454,1697624125,-0.080566406,-0.9871216,0.12322998,-0.796875,-0.140625,-0.28125
455,1697624165,-0.07885742,-1.0020142,0.11517334,-0.171875,0.28125,-0.671875
456,1697624205,-0.0690918,-0.9817505,0.11541748,1.40625,0.796875,-0.453125
457,1697624245,-0.091308594,-0.9866333,0.113464355,-1.34375,0.140625,0.265625
458,1697624285,-0.07421875,-0.9866333,0.12420654,3.03125,2.75,0.296875
459,1697624325,-0.087646484,-0.9944458,0.12664795,0.65625,-0.265625,1.09375
460,1697624365,-0.09350586,-0.99468994,0.117126465,0.65625,0.515625,0.546875
461,1697624405,-0.06982422,-0.98809814,0.11077881,0.296875,0.59375,0.078125
462,1697624445,-0.06762695,-0.99786377,0.11956787,-0.15625,-0.078125,0.640625
463,1697624485,-0.08178711,-1.0015259,0.112976074,-0.859375,-0.5,-0.90625
464,1697624525,-0.07446289,-0.9898071,0.12054443,-1.0625,0.375,-0.828125
465,1697624565,-0.08325195,-0.9976196,0.109313965,-1.890625,-0.625,-0.84375
466,1697624605,-0.068603516,-0.99346924,0.109069824,-0.125,1.0625,-1.03125
467,1697624645,-0.080322266,-0.9859009,0.11468506,-0.796875,-0.828125,-0.53125
468,1697624685,-0.08276367,-0.9985962,0.121276855,-0.046875,0.578125,-0.65625
469,1697624725,-0.07714844,-0.97662354,0.10882568,0.1875,2.0,-2.078125
470,1697624765,-0.09790039,-1.0003052,0.12957764,1.15625,1.109375,0.484375
471,1697624805,-0.080078125,-0.9849243,0.11004639,-2.5,-0.421875,-2.71875
472,1697624845,-0.07080078,-0.98931885,0.12322998,-0.421875,2.15625,0.578125
473,1697624885,-0.0871582,-0.99005127,0.12176514,-0.234375,-0.046875,0.078125
474,1697624925,-0.07397461,-0.97906494,0.10662842,1.5625,1.921875,0.828125
475,1697624965,-0.07519531,-1.0020142,0.10076904,0.9375,0.375,1.359375
476,1697625005,-0.05883789,-0.972229,0.11541748,0.390625,3.171875,0.390625
477,1697625045,-0.06958008,-0.9805298,0.14007568,-0.53125,1.828125,0.359375
478,1697625085,-0.08959961,-0.99053955,0.12347412,-0.8125,-0.546875,-0.796875
479,1697625125,-0.08496094,-0.9795532,0.12615967,1.609375,1.765625,-1.359375
480,1697625165,-0.103271484,-1.0049438,0.1329956,-0.09375,0.421875,-1.390625
481,1697625205,-0.09008789,-0.991272,0.124938965,0.375,1.140625,-2.25
482,1697625245,-0.072265625,-0.97857666,0.113708496,0.046875,0.0625,-1.46875
483,1697625285,-0.072265625,-0.9963989,0.12420654,0.328125,0.1875,-0.484375
484,1697625325,-0.08642578,-0.9883423,0.12005615,0.640625,-0.609375,-0.828125
485,1697625365,-0.07324219,-0.98883057,0.12322998,0.265625,-0.84375,-0.09375
486,1697625405,-0.091796875,-0.9985962,0.12884521,1.0625,-1.265625,0.171875
487,1697625445,-0.057861328,-1.0003052,0.12176514,2.453125,-2.578125,-0.25
488,1697625485,-0.083984375,-0.9859009,0.08758545,0.203125,-6.125,-1.84375
489,1697625525,-0.09423828,-1.003479,0.08538818,2.84375,-1.484375,-1.09375
490,1697625565,-0.0715332,-0.9570923,0.0993042,1.5,-2.28125,0.03125
491,1697625605,-0.1171875,-0.9927368,0.08416748,-2.34375,-1.53125,-1.765625
492,1697625645,-0.087646484,-0.9824829,0.11199951,0.28125,2.65625,-1.03125
493,1697625685,-0.09667969,-0.99835205,0.1161499,-2.46875,-1.28125,-2.3125
494,1697625725,-0.09375,-0.9768677,0.09100342,-3.265625,-0.171875,-2.203125
495,1697625765,-0.080322266,-0.9819946,0.09613037,-3.34375,1.34375,-0.78125
496,1697625805,-0.09472656,-1.0003052,0.12030029,-2.46875,1.359375,-0.3125
497,1697625845,-0.092285156,-0.99102783,0.11859131,-1.234375,1.171875,0.390625
498,1697625885,-0.08935547,-0.99053955,0.12567139,-1.3125,1.265625,-0.75
499,1697625925,-0.09057617,-0.98223877,0.12225342,0.203125,0.5625,0.53125
500,1697625965,-0.104003906,-0.99664307,0.12371826,0.1875,-0.140625,1.421875
501,1697626005,-0.09692383,-0.98687744,0.11956787,0.421875,-0.375,-0.46875
502,1697626045,-0.1027832,-0.9949341,0.117614746,-0.703125,-1.140625,0.234375
503,1697626085,-0.08862305,-0.99542236,0.12200928,-0.125,-0.0625,-0.375
504,1697626125,-0.09033203,-0.9871216,0.1161499,-1.296875,-0.796875,-0.171875
505,1697626165,-0.091308594,-0.9885864,0.1239624,-0.890625,-0.71875,0.09375
506,1697626205,-0.09326172,-0.98565674,0.11004639,-1.734375,-0.390625,-0.515625
507,1697626245,-0.08691406,-1.000061,0.1239624,-1.140625,1.15625,0.265625
508,1697626285,-0.09106445,-0.98150635,0.13885498,-1.171875,-0.34375,0.546875
509,1697626325,-0.0925293,-1.0193481,0.12030029,-1.78125,-1.40625,0.96875
510,1697626365,-0.063964844,-0.9522095,0.10662842,-1.3125,0.59375,-0.921875
511,1697626405,-0.0925293,-0.9976196,0.12884521,-2.0625,-0.46875,0.546875
512,1697626445,-0.091796875,-0.986145,0.1281128,1.109375,2.9375,-1.171875
513,1697626485,-0.083740234,-0.9898071,0.1486206,0.859375,0.5,0.46875
514,1697626525,-0.1184082,-0.9963989,0.12542725,-0.53125,-0.328125,0.421875
515,1697626565,-0.06591797,-0.97979736,0.12445068,3.09375,2.21875,0.984375
516,1697626605,-0.07397461,-0.9829712,0.12445068,1.421875,-0.375,2.046875
517,1697626645,-0.092285156,-0.9927368,0.11981201,0.046875,-1.078125,0.3125
518,1697626685,-0.06542969,-0.98931885,0.1251831,-0.234375,0.390625,0.34375
519,1697626725,-0.08251953,-0.9927368,0.124694824,-0.765625,-0.859375,-0.484375
520,1697626765,-0.08496094,-0.9866333,0.12957764,-0.109375,-0.3125,-0.8125
521,1697626805,-0.076171875,-0.987854,0.13348389,-0.4375,-0.03125,-0.484375
522,1697626845,-0.07714844,-0.98394775,0.1293335,-1.4375,-1.53125,-0.8125
523,1697626885,-0.08325195,-0.98883057,0.12762451,-0.140625,0.0625,-0.34375
524,1697626925,-0.0859375,-0.9956665,0.13006592,-0.859375,-0.484375,-0.59375
525,1697626965,-0.0859375,-0.9902954,0.12249756,-1.046875,-0.828125,-0.328125
526,1697627005,-0.079589844,-0.9866333,0.12200928,0.859375,1.25,-0.765625
527,1697627045,-0.083740234,-1.0049438,0.14300537,0.9375,-1.359375,1.265625
528,1697627085,-0.084472656,-0.97320557,0.10760498,-2.1875,-1.9375,-1.03125
529,1697627125,-0.08227539,-0.9981079,0.13201904,0.5625,1.109375,0.34375
530,1697627165,-0.080566406,-0.9985962,0.12664795,-0.953125,-0.625,-1.296875
531,1697627205,-0.0859375,-0.9805298,0.121520996,-0.3125,0.34375,-0.65625
532,1697627245,-0.083496094,-0.9829712,0.11663818,0.640625,0.359375,-0.125
533,1697627285,-0.07763672,-0.973938,0.124694824,4.125,2.109375,1.65625
534,1697627325,-0.09790039,-1.005188,0.12200928,1.609375,0.421875,2.125
535,1697627365,-0.07495117,-0.98809814,0.11639404,1.4375,0.09375,1.375
536,1697627405,-0.07836914,-0.99005127,0.11175537,2.28125,1.25,0.859375
537,1697627445,-0.071777344,-0.99224854,0.10101318,0.28125,-0.796875,0.15625
538,1697627485,-0.072021484,-0.99005127,0.10882568,-0.25,-0.03125,-0.90625
539,1697627525,-0.07543945,-0.99468994,0.11566162,-1.328125,0.140625,-1.078125
540,1697627565,-0.067871094,-0.9819946,0.11151123,-0.515625,0.578125,-0.34375
541,1697627605,-0.06933594,-0.99298096,0.120788574,-0.046875,1.3125,-0.40625
542,1697627645,-0.063964844,-0.98028564,0.10662842,0.75,-0.03125,0.1875
543,1697627685,-0.08105469,-1.0032349,0.11590576,-0.03125,-0.046875,1.796875
544,1697627725,-0.08276367,-0.99664307,0.12030029,0.78125,0.828125,0.265625
545,1697627765,-0.067871094,-1.0066528,0.11273193,1.1875,0.1875,0.5625
546,1697627805,-0.08105469,-0.9651489,0.101745605,-1.265625,1.125,-0.375
547,1697627845,-0.06762695,-1.0183716,0.11663818,0.171875,1.921875,0.28125
548,1697627885,-0.061279297,-0.98394775,0.1149292,-0.25,0.96875,-0.625
549,1697627925,-0.06567383,-0.99298096,0.11175537,-2.5,-0.71875,-0.53125
550,1697627965,-0.068359375,-0.9859009,0.105163574,-0.71875,0.84375,-1.453125
551,1697628005,-0.07055664,-0.99884033,0.11834717,-0.515625,1.015625,-0.1875
552,1697628045,-0.080322266,-0.99176025,0.116882324,-0.59375,-0.265625,-0.5
553,1697628085,-0.076171875,-0.98101807,0.11175537,-0.921875,0.4375,-0.578125
554,1697628125,-0.0690918,-0.99298096,0.1305542,0.15625,0.90625,0.03125
555,1697628165,-0.08862305,-0.98931885,0.120788574,-0.046875,-0.015625,-1.390625
556,1697628205,-0.061523438,-0.99053955,0.11517334,-0.4375,0.34375,-0.515625
557,1697628245,-0.06591797,-0.9854126,0.109069824,-0.71875,0.09375,-0.328125
558,1697628285,-0.06518555,-0.9907837,0.12371826,-0.234375,0.109375,-0.671875
559,1697628325,-0.07373047,-0.99298096,0.12005615,-0.890625,-1.0,-0.890625
560,1697628365,-0.06933594,-0.9976196,0.14105225,0.03125,-0.296875,-2.125
561,1697628405,-0.08129883,-0.99224854,0.11590576,-2.046875,-3.453125,-4.0625
562,1697628445,-0.07836914,-0.9829712,0.12957764,1.328125,-4.265625,-2.84375
563,1697628485,-0.091308594,-0.98809814,0.11126709,-2.03125,-6.140625,-3.90625
564,1697628525,-0.10253906,-0.98028564,0.10882568,3.203125,0.484375,1.046875
565,1697628565,-0.10180664,-1.0093384,0.13104248,7.328125,-0.390625,2.140625
566,1697628605,-0.08935547,-0.9793091,0.09832764,1.875,-2.578125,2.09375
567,1697628645,-0.10888672,-0.98638916,0.08734131,1.375,-1.328125,-0.3125
568,1697628685,-0.10107422,-0.99053955,0.09490967,-1.125,-2.09375,-0.296875
569,1697628725,-0.07348633,-0.96710205,0.0848999,-0.515625,-0.625,0.359375
570,1697628765,-0.07006836,-0.97247314,0.08441162,-0.703125,0.234375,-0.46875
571,1697628805,-0.075927734,-0.9817505,0.085632324,-2.421875,-0.65625,-0.4375
572,1697628845,-0.08081055,-0.9898071,0.11785889,-1.484375,0.28125,1.0625
573,1697628885,-0.083740234,-1.0044556,0.121276855,-1.375,0.984375,0.515625
574,1697628925,-0.076416016,-0.9902954,0.1071167,-2.4375,0.421875,-0.828125
575,1697628965,-0.08691406,-0.9837036,0.11907959,-0.703125,2.890625,0.1875
576,1697629005,-0.07104492,-0.9871216,0.109558105,-2.125,0.84375,-0.75
577,1697629045,-0.09399414,-0.98394775,0.11224365,0.953125,1.765625,0.359375
578,1697629085,-0.08251953,-1.005188,0.1395874,-0.609375,0.5625,-0.421875
579,1697629125,-0.079833984,-0.97320557,0.10491943,-0.125,-0.609375,-0.734375
580,1697629165,-0.064941406,-0.9949341,0.105895996,-0.609375,0.40625,-0.9375
581,1697629205,-0.08569336,-0.96881104,0.1071167,-0.140625,1.09375,0.5625
582,1697629245,-0.07519531,-1.0061646,0.117126465,1.03125,0.921875,-0.4375
583,1697629285,-0.0793457,-0.9837036,0.11151123,0.53125,-0.578125,-0.4375
584,1697629325,-0.08081055,-1.0005493,0.109069824,0.234375,1.359375,-0.34375
585,1697629365,-0.07714844,-0.9859009,0.117126465,-0.328125,-0.359375,-0.5
586,1697629405,-0.08154297,-0.9993286,0.117370605,1.3125,0.5,0.125
587,1697629445,-0.0793457,-0.99346924,0.11175537,0.109375,0.265625,-0.140625
588,1697629485,-0.08691406,-0.9907837,0.097351074,1.484375,0.65625,0.25
589,1697629525,-0.075927734,-0.9907837,0.109558105,0.6875,0.1875,0.609375
590,1697629565,-0.0793457,-0.98443604,0.10467529,-0.390625,-0.375,-0.015625
591,1697629605,-0.0793457,-0.9944458,0.10443115,-0.484375,0.90625,-0.375
592,1697629645,-0.07373047,-0.9873657,0.11004639,-0.65625,-0.25,0.0625
593,1697629685,-0.07324219,-0.9890747,0.105163574,0.203125,1.328125,-0.46875
594,1697629725,-0.076171875,-0.98809814,0.11248779,-0.5,-1.03125,0.109375
595,1697629765,-0.08203125,-1.0005493,0.101501465,-2.078125,-1.546875,0.484375
596,1697629805,-0.06762695,-0.97198486,0.10784912,0.296875,0.203125,0.078125
597,1697629845,-0.07836914,-1.0178833,0.11102295,0.890625,-0.796875,0.78125
598,1697629885,-0.076171875,-0.9661255,0.086120605,0.609375,-1.765625,1.171875
599,1697629925,-0.05834961,-1.0037231,0.1161499,2.53125,1.515625,1.546875
600,1697629965,-0.075683594,-0.9939575,0.10662842,-0.375,-1.28125,0.671875
601,1697630005,-0.07519531,-1.0010376,0.10760498,-0.71875,0.15625,-0.140625
602,1697630045,-0.071777344,-0.98883057,0.098083496,-0.96875,-1.078125,-1.375
603,1697630085,-0.07055664,-0.99884033,0.101501465,0.1875,1.078125,-0.640625
604,1697630125,-0.06933594,-0.99224854,0.10687256,-1.03125,-0.359375,-1.578125
605,1697630165,-0.072753906,-0.98931885,0.10101318,-0.4375,0.46875,-0.578125
606,1697630205,-0.06225586,-0.98638916,0.09979248,0.28125,-0.5625,-0.28125
607,1697630245,-0.07714844,-0.98565674,0.09906006,0.65625,-0.640625,0.015625
608,1697630285,-0.0793457,-1.0010376,0.101501465,-0.125,-0.859375,-0.921875
609,1697630325,-0.07373047,-0.9924927,0.105895996,-0.625,-0.546875,-0.71875
610,1697630365,-0.08081055,-0.9932251,0.10028076,-1.609375,-0.84375,-0.890625
611,1697630405,-0.076416016,-0.98931885,0.10882568,-0.921875,-0.21875,-0.828125
612,1697630445,-0.087646484,-0.98223877,0.098083496,-1.046875,0.0625,-0.625
613,1697630485,-0.07885742,-0.97369385,0.09881592,-1.71875,0.015625,-0.46875
614,1697630525,-0.0769043,-0.98443604,0.11859131,1.640625,2.46875,1.421875
615,1697630565,-0.07470703,-1.0154419,0.117614746,-2.78125,-1.34375,-0.71875
616,1697630605,-0.084472656,-0.96954346,0.09539795,-2.84375,1.5,-0.421875
617,1697630645,-0.06542969,-1.0076294,0.11932373,-0.65625,0.984375,-0.609375
618,1697630685,-0.072753906,-0.9793091,0.097839355,-0.75,0.171875,-0.5
619,1697630725,-0.06982422,-0.9963989,0.11883545,-0.640625,1.390625,-0.15625
620,1697630765,-0.068115234,-0.98443604,0.117126465,-0.578125,1.3125,0.890625
621,1697630805,-0.071777344,-0.98931885,0.11785889,0.875,0.8125,0.453125
622,1697630845,-0.076416016,-0.9817505,0.11029053,0.4375,0.671875,-0.046875
623,1697630885,-0.068359375,-0.98760986,0.10443115,0.96875,0.9375,0.484375
624,1697630925,-0.057861328,-0.99835205,0.10784912,1.15625,0.359375,1.109375
625,1697630965,-0.072265625,-0.9849243,0.11199951,0.5625,0.203125,0.0
626,1697631005,-0.06689453,-0.99713135,0.10858154,-0.4375,-0.21875,-0.5625
627,1697631045,-0.068603516,-0.98150635,0.109558105,0.09375,0.109375,-0.578125
628,1697631085,-0.07885742,-0.9993286,0.10614014,-0.625,0.3125,-0.5625
629,1697631125,-0.059570312,-0.9859009,0.10662842,-0.21875,0.421875,-0.703125
630,1697631165,-0.07495117,-0.9841919,0.11541748,-0.09375,0.140625,-0.03125
631,1697631205,-0.068847656,-1.0005493,0.11199951,-0.328125,-0.09375,-0.578125
632,1697631245,-0.06762695,-0.9890747,0.11541748,1.1875,0.078125,-0.046875
633,1697631285,-0.056640625,-0.98101807,0.10028076,-0.90625,0.109375,-1.640625
634,1697631325,-0.08105469,-0.9902954,0.117126465,1.328125,0.453125,0.390625
635,1697631365,-0.068359375,-0.9993286,0.11102295,-8.375,-3.75,-2.671875
636,1697631405,-0.08300781,-0.9710083,0.11248779,-2.796875,1.40625,0.703125
637,1697631445,-0.067871094,-1.0115356,0.1473999,-1.421875,0.40625,-0.046875
638,1697631485,-0.06738281,-0.97369385,0.117370605,-1.46875,-1.265625,-0.03125
639,1697631525,-0.080566406,-0.99468994,0.13226318,0.046875,0.03125,0.375
640,1697631565,-0.07006836,-0.97906494,0.12249756,0.96875,-0.4375,0.421875
641,1697631605,-0.07128906,-0.9920044,0.12322998,0.859375,0.625,1.109375
642,1697631645,-0.0715332,-0.9841919,0.1317749,0.015625,-0.4375,1.46875
643,1697631685,-0.060058594,-0.9937134,0.112976074,1.828125,0.5625,1.875
644,1697631725,-0.061523438,-0.9846802,0.11541748,2.453125,2.28125,0.15625
645,1697631765,-0.07373047,-0.991272,0.13543701,0.421875,1.03125,-0.125
646,1697631805,-0.060791016,-0.9920044,0.10614014,0.359375,1.125,-1.109375
647,1697631845,-0.05493164,-0.9729614,0.121276855,0.953125,2.6875,-0.28125
648,1697631885,-0.06958008,-1.0022583,0.13153076,0.875,1.5625,-0.15625
649,1697631925,-0.06542969,-0.99005127,0.11395264,0.296875,-0.40625,-0.4375
650,1697631965,-0.0546875,-0.98760986,0.105895996,-0.328125,-0.015625,-0.234375
651,1697632005,-0.061279297,-0.99176025,0.121520996,0.484375,0.21875,-1.109375
652,1697632045,-0.055664062,-1.0022583,0.10809326,-0.953125,-0.3125,-1.46875
653,1697632085,-0.05419922,-0.97076416,0.11248779,0.71875,-0.1875,-1.46875
654,1697632125,-0.07006836,-0.99005127,0.11956787,-0.828125,-0.34375,-0.203125
655,1697632165,-0.059326172,-0.9678345,0.11785889,1.8125,-0.375,-0.4375
656,1697632205,-0.072021484,-1.0054321,0.1071167,-1.546875,-1.578125,-0.625
657,1697632245,-0.068847656,-0.9807739,0.11029053,-0.375,0.28125,-0.203125
658,1697632285,-0.06982422,-1.00177,0.112976074,0.03125,-0.21875,-0.484375
659,1697632325,-0.068603516,-0.99468994,0.11102295,-0.046875,-0.203125,-0.09375
660,1697632365,-0.06713867,-0.99713135,0.10809326,-0.5625,0.203125,0.015625
661,1697632405,-0.061767578,-0.9829712,0.11004639,-0.578125,-0.3125,-0.65625
662,1697632445,-0.07006836,-0.9854126,0.11444092,-0.5,-0.015625,0.234375
663,1697632485,-0.0637207,-0.9927368,0.117614746,-0.921875,-0.078125,-0.578125
664,1697632525,-0.07055664,-0.98883057,0.11053467,-0.4375,0.609375,-0.03125
665,1697632565,-0.056396484,-0.9937134,0.11566162,-0.109375,-0.359375,-0.28125
666,1697632605,-0.060791016,-0.987854,0.11126709,0.0,0.4375,-0.265625
667,1697632645,-0.06665039,-0.9924927,0.11956787,-0.546875,-0.421875,-0.640625
668,1697632685,-0.06982422,-0.9924927,0.109313965,-0.328125,1.09375,-0.34375
669,1697632725,-0.060791016,-0.99298096,0.116882324,-0.359375,0.828125,-1.15625
670,1697632765,-0.07055664,-0.987854,0.11151123,-1.296875,-0.625,-0.953125
671,1697632805,-0.068115234,-0.98101807,0.1251831,0.359375,1.96875,-0.515625
672,1697632845,-0.076660156,-1.0042114,0.12713623,-0.46875,0.6875,-0.1875
673,1697632885,-0.07763672,-0.9920044,0.12200928,0.15625,-0.0625,-0.203125
674,1697632925,-0.061767578,-0.99224854,0.117126465,0.265625,0.53125,0.21875
675,1697632965,-0.0637207,-1.0037231,0.11785889,0.671875,-0.125,0.375
676,1697633005,-0.053710938,-0.99102783,0.097595215,-0.875,0.671875,-0.828125
677,1697633045,-0.057861328,-1.0186157,0.12371826,1.671875,0.9375,1.3125
678,1697633085,-0.06640625,-0.9651489,0.11199951,-2.34375,-1.265625,-1.203125
679,1697633125,-0.07373047,-1.00177,0.12542725,-0.140625,1.84375,0.71875
680,1697633165,-0.056640625,-1.0027466,0.11273193,-0.21875,0.34375,-0.296875
681,1697633205,-0.0625,-0.98028564,0.1071167,0.15625,0.328125,0.71875
682,1697633245,-0.060058594,-1.0025024,0.11932373,-0.890625,0.234375,-0.484375
683,1697633285,-0.055664062,-0.991272,0.10369873,0.703125,1.5,-0.046875
684,1697633325,-0.06518555,-0.9973755,0.11859131,-0.484375,-0.0625,-0.15625
685,1697633365,-0.07373047,-0.9907837,0.11444092,-1.40625,-0.625,-0.078125
686,1697633405,-0.052246094,-0.98883057,0.11566162,-0.09375,0.953125,-0.15625
687,1697633445,-0.06713867,-0.98638916,0.11468506,-0.390625,-0.671875,-0.015625
688,1697633485,-0.07055664,-0.9976196,0.1227417,-0.203125,0.203125,-0.84375
689,1697633525,-0.053955078,-0.9800415,0.109313965,0.03125,0.1875,-0.921875
690,1697633565,-0.07324219,-0.99884033,0.1239624,-0.234375,-0.046875,-0.484375
691,1697633605,-0.06665039,-0.9920044,0.11004639,0.03125,0.078125,-0.765625
692,1697633645,-0.059814453,-0.98883057,0.109069824,-0.84375,-0.296875,-0.421875
693,1697633685,-0.07861328,-0.989563,0.10760498,-2.046875,-1.59375,-0.40625
694,1697633725,-0.064941406,-0.9961548,0.13983154,-1.265625,0.78125,-0.5625
695,1697633765,-0.06567383,-0.9837036,0.117614746,-0.875,-1.515625,-0.328125
696,1697633805,-0.06689453,-0.9885864,0.12567139,1.453125,1.359375,0.21875
697,1697633845,-0.072753906,-0.9961548,0.121520996,1.296875,0.921875,-0.84375
698,1697633885,-0.06323242,-0.9866333,0.12225342,2.53125,0.453125,0.9375
699,1697633925,-0.064208984,-0.987854,0.105163574,-1.3125,-1.203125,-1.046875
700,1697633965,-0.06542969,-0.99176025,0.11517334,0.4375,2.171875,0.46875
701,1697634005,-0.06323242,-0.9973755,0.11785889,-0.015625,-0.40625,-0.078125
702,1697634045,-0.06201172,-0.9885864,0.117614746,0.96875,0.890625,0.28125
703,1697634085,-0.060058594,-0.98883057,0.109558105,-0.1875,0.0625,0.140625
704,1697634125,-0.0546875,-0.98321533,0.11590576,0.453125,1.09375,-0.484375
705,1697634165,-0.07397461,-0.99835205,0.113708496,-0.09375,0.125,0.046875
706,1697634205,-0.0546875,-0.9859009,0.11053467,-1.453125,0.140625,-0.4375
707,1697634245,-0.06518555,-0.9854126,0.1227417,0.484375,0.53125,-0.171875
708,1697634285,-0.064941406,-0.99591064,0.11517334,-0.25,-0.78125,-0.296875
709,1697634325,-0.059814453,-0.9873657,0.10784912,0.25,0.265625,-0.15625
710,1697634365,-0.0625,-0.9859009,0.10858154,-0.0625,-1.0,-0.03125
711,1697634405,-0.052978516,-0.98638916,0.11859131,1.609375,-0.296875,0.9375
712,1697634445,-0.06933594,-0.99542236,0.10394287,-0.296875,-1.5625,0.734375
713,1697634485,-0.052978516,-0.991272,0.12445068,0.5625,-0.234375,0.5
714,1697634525,-0.063964844,-0.99053955,0.10321045,-1.171875,-0.90625,-0.078125
715,1697634565,-0.059570312,-0.9871216,0.11956787,-0.03125,-0.359375,0.109375
716,1697634605,-0.06591797,-0.98883057,0.117614746,0.46875,-0.59375,-0.21875
717,1697634645,-0.057373047,-1.0032349,0.13275146,2.921875,0.640625,-0.203125
718,1697634685,-0.052246094,-0.9885864,0.11151123,4.25,0.453125,-2.359375
719,1697634725,-0.06933594,-0.9951782,0.10882568,5.9375,-1.78125,-0.546875
720,1697634765,-0.06225586,-1.0059204,0.089538574,0.453125,-4.8125,-3.4375
721,1697634805,-0.078125,-0.98028564,0.08148193,1.0,-0.265625,-0.8125
722,1697634845,-0.05810547,-0.99176025,0.09490967,2.875,-1.90625,-1.8125
723,1697634885,-0.07128906,-0.987854,0.08050537,-0.609375,-2.546875,-0.75
724,1697634925,-0.06713867,-0.97735596,0.08294678,0.375,-0.890625,-0.5625
725,1697634965,-0.072753906,-0.9854126,0.07757568,-1.0625,-0.109375,0.25
726,1697635005,-0.0637207,-0.9841919,0.0836792,-1.734375,0.1875,0.75
727,1697635045,-0.063964844,-0.9873657,0.08538818,-2.234375,1.84375,0.296875
728,1697635085,-0.06201172,-0.9993286,0.10784912,-0.390625,2.28125,2.140625
729,1697635125,-0.0625,-0.9961548,0.1005249,-0.6875,0.6875,2.078125
730,1697635165,-0.057373047,-0.9920044,0.105651855,-0.34375,2.15625,0.90625
731,1697635205,-0.05908203,-0.98028564,0.10028076,0.53125,1.96875,-0.015625
732,1697635245,-0.061767578,-1.0181274,0.11029053,0.109375,0.703125,-0.671875
733,1697635285,-0.072021484,-0.9890747,0.097839355,0.171875,0.421875,-0.359375
734,1697635325,-0.0625,-0.9890747,0.10076904,-0.25,0.84375,0.0625
735,1697635365,-0.049072266,-0.9883423,0.07879639,-1.375,0.28125,-0.09375
736,1697635405,-0.056640625,-0.9963989,0.10076904,1.421875,0.71875,0.515625
737,1697635445,-0.05053711,-0.9805298,0.09442139,-0.859375,-0.9375,-0.921875
738,1697635485,-0.05517578,-0.991272,0.10760498,2.09375,-0.296875,1.421875
739,1697635525,-0.06323242,-0.9944458,0.0927124,-2.546875,-3.15625,-1.234375
740,1697635565,-0.06567383,-0.98101807,0.09124756,-0.296875,0.6875,-0.125
741,1697635605,-0.0769043,-0.9976196,0.1005249,-0.671875,-1.421875,-1.171875
742,1697635645,-0.06274414,-0.9788208,0.09197998,-0.140625,0.8125,-0.984375
743,1697635685,-0.056152344,-1.000061,0.105163574,-0.796875,0.25,-1.171875
744,1697635725,-0.06225586,-0.98638916,0.09857178,-0.390625,1.078125,-1.59375
745,1697635765,-0.06713867,-1.0020142,0.10491943,-0.296875,0.234375,-0.5625
746,1697635805,-0.06738281,-0.98931885,0.101745605,-0.75,0.40625,-0.890625
747,1697635845,-0.061279297,-0.9871216,0.0914917,0.5,0.578125,-0.640625
748,1697635885,-0.06274414,-0.9949341,0.09124756,1.125,1.609375,0.125
