timestamp,accel_x,accel_y,accel_z,gyro_x,gyro_y,gyro_z,mag_x,mag_y,mag_z
1696242232763,-0.9589844,-0.19824219,0.19824219,-25.65625,-17.71875,-25.09375,0.0,0.0,0.0
1696242232826,-0.8544922,-0.16601562,0.16992188,-18.1875,-16.625,-25.9375,0.0,0.0,0.0
1696242232840,-0.9140625,-0.24707031,0.18457031,-13.1875,-2.84375,-14.59375,0.0,0.0,0.0
1696242232875,-0.8798828,-0.2265625,0.1796875,-3.3125,4.1875,-8.3125,0.0,0.0,0.0
1696242232919,-0.8378906,-0.24023438,0.15429688,-9.96875,20.96875,10.4375,0.0,0.0,0.0
1696242232965,-0.8173828,-0.28710938,0.12792969,-4.28125,34.625,21.46875,0.0,0.0,0.0
1696242233011,-0.7451172,-0.19726562,0.27441406,5.0,46.78125,33.5,0.0,0.0,0.0
1696242233036,-0.50097656,0.17285156,-0.16894531,-49.40625,41.15625,39.0,0.0,0.0,0.0
1696242233077,-1.3017578,-0.36816406,1.4873047,29.59375,104.59375,51.1875,0.0,0.0,0.0
1696242233122,-1.0253906,-0.15136719,0.005859375,-83.875,6.0,36.1875,-93.3125,-29.6875,-135.625
1696242233155,-0.7753906,0.3798828,-0.3173828,71.8125,16.8125,22.40625,0.0,0.0,0.0
1696242233243,-1.6005859,0.08203125,-0.6308594,100.4375,75.84375,89.09375,0.0,0.0,0.0
1696242233262,-1.3261719,-0.11035156,-0.2705078,101.84375,84.0625,112.90625,0.0,0.0,0.0
1696242233279,-1.2753906,-0.059570312,-0.40527344,88.59375,70.40625,83.90625,0.0,0.0,0.0
1696242233325,-1.2763672,-0.12890625,-0.37109375,93.90625,79.9375,87.75,0.0,0.0,0.0
1696242233369,-1.1748047,-0.083984375,-0.25976562,97.59375,122.15625,65.90625,0.0,0.0,0.0
1696242233392,-1.0869141,0.55078125,0.40429688,-203.125,39.53125,31.96875,0.0,0.0,0.0
1696242233437,-0.9296875,-0.23925781,-0.0029296875,-602.0625,63.3125,-37.40625,0.0,0.0,0.0
1696242233483,-0.8027344,-0.8798828,0.13183594,-240.25,-26.8125,-33.5,0.0,0.0,0.0
1696242233516,-0.3310547,-0.30566406,-0.0068359375,151.0625,-148.78125,16.46875,0.0,0.0,0.0
1696242233569,-0.78222656,-0.25,-0.22851562,44.71875,-28.34375,-139.53125,0.0,0.0,0.0
1696242233595,-1.8466797,0.0107421875,0.013671875,80.125,-93.78125,-320.1875,0.0,0.0,0.0
1696242233640,-1.9912109,0.41015625,-0.33203125,-109.5,-112.09375,-279.96875,-96.0,-16.3125,-141.375
1696242233685,-1.1289062,0.74316406,0.14355469,-212.46875,-28.09375,-160.46875,0.0,0.0,0.0
1696242233730,-1.2246094,0.10058594,-0.015625,5.28125,18.84375,0.71875,0.0,0.0,0.0
1696242233753,-0.7158203,-0.013671875,0.087890625,45.875,49.21875,53.8125,0.0,0.0,0.0
1696242233797,-0.29589844,0.26953125,0.028320312,50.59375,4.96875,62.75,0.0,0.0,0.0
1696242233842,-0.33398438,0.27734375,-0.08105469,103.5,25.96875,123.40625,0.0,0.0,0.0
1696242233876,-0.58203125,-0.11425781,0.16992188,-56.65625,106.21875,122.6875,0.0,0.0,0.0
1696242233929,-0.8691406,-0.2998047,0.11035156,-262.71875,78.03125,44.125,0.0,0.0,0.0
1696242233956,-1.4033203,-0.18261719,-0.24121094,-178.34375,27.875,-15.3125,0.0,0.0,0.0
1696242234000,-1.5097656,-0.005859375,-0.25390625,205.625,34.40625,4.875,0.0,0.0,0.0
1696242234045,-1.1767578,0.3173828,-0.28125,219.46875,12.84375,30.625,0.0,0.0,0.0
1696242234090,-1.6025391,0.25976562,-0.55371094,239.65625,-21.21875,83.6875,0.0,0.0,0.0
1696242234135,-1.0927734,0.10058594,-0.43652344,131.03125,-26.75,94.15625,-93.125,-21.25,-143.875
1696242234157,-0.96777344,0.028320312,-0.3935547,153.375,-28.90625,103.5625,0.0,0.0,0.0
1696242234202,-1.1152344,-0.07421875,-0.29492188,181.25,148.59375,95.5,0.0,0.0,0.0
1696242234236,-1.1240234,-0.09082031,-0.16992188,64.125,221.96875,58.78125,0.0,0.0,0.0
1696242234281,-0.6699219,-0.39941406,-0.24902344,-1024.0,-25.3125,-153.375,0.0,0.0,0.0
1696242234314,-0.30371094,-0.359375,-0.001953125,272.25,-197.28125,129.28125,0.0,0.0,0.0
1696242234363,-0.5048828,-0.23632812,-0.21679688,164.90625,-82.90625,-49.875,0.0,0.0,0.0
1696242234405,-1.8388672,-0.08203125,-0.7080078,145.8125,-186.5625,-275.46875,0.0,0.0,0.0
1696242234450,-1.9912109,0.140625,-0.6308594,-268.4375,-81.03125,-251.59375,0.0,0.0,0.0
1696242234495,-1.2871094,1.0205078,1.0849609,-543.96875,249.71875,-184.625,0.0,0.0,0.0
1696242234517,-1.0595703,0.31445312,0.016601562,140.5,-60.40625,42.53125,0.0,0.0,0.0
1696242234562,-0.78515625,0.23925781,-0.030273438,97.8125,55.28125,67.0,0.0,0.0,0.0
1696242234596,-0.30273438,0.27539062,-0.0009765625,38.5625,80.21875,84.03125,0.0,0.0,0.0
1696242234642,-0.5732422,0.10839844,-0.1015625,90.0,27.375,130.71875,-93.0,-19.3125,-145.125
1696242234675,-0.9238281,-0.26660156,-0.16894531,44.34375,62.78125,112.46875,0.0,0.0,0.0
1696242234741,-0.671875,-0.123046875,1.5410156,-106.15625,84.875,78.71875,0.0,0.0,0.0
1696242234764,-1.4091797,-0.27246094,-0.30664062,10.59375,162.8125,-132.8125,0.0,0.0,0.0
1696242234810,-1.0302734,0.27539062,-0.21875,317.0625,-97.4375,-43.59375,0.0,0.0,0.0
1696242234832,-1.9912109,0.4345703,-0.7890625,348.375,27.625,-36.9375,0.0,0.0,0.0
1696242234877,-1.3271484,0.4248047,-0.6308594,127.0,-87.5625,114.375,0.0,0.0,0.0
1696242234923,-0.92285156,0.32617188,-0.6123047,198.46875,-10.53125,93.375,0.0,0.0,0.0
1696242234956,-0.9638672,0.047851562,-0.48339844,-43.34375,17.65625,100.75,0.0,0.0,0.0
1696242235002,-1.0576172,-0.14257812,-0.29296875,-11.78125,148.03125,116.5625,0.0,0.0,0.0
1696242235047,-0.8378906,-0.15527344,-0.16308594,8.28125,190.34375,101.6875,0.0,0.0,0.0
1696242235082,-0.8359375,-0.3466797,-0.41503906,-1024.0,-54.59375,-111.8125,0.0,0.0,0.0
1696242235124,-0.20703125,-0.29101562,-0.09765625,296.25,-189.1875,96.625,-91.1875,4.25,-146.75
1696242235170,-0.8105469,-0.22851562,-0.41308594,244.96875,-119.15625,-49.5625,0.0,0.0,0.0
1696242235192,-1.9912109,-0.22265625,-0.57910156,337.03125,-188.3125,-291.8125,0.0,0.0,0.0
1696242235260,-1.9912109,0.15234375,-0.5410156,-293.71875,-47.5625,-323.5,0.0,0.0,0.0
1696242235316,-1.3974609,0.4794922,-0.36132812,-381.0625,194.625,-349.4375,0.0,0.0,0.0
1696242235318,-1.0917969,1.0615234,0.34960938,137.4375,19.5,-28.03125,0.0,0.0,0.0
1696242235361,-0.48242188,0.3359375,-0.09082031,231.6875,54.90625,136.65625,0.0,0.0,0.0
1696242235395,-0.13476562,0.24023438,-0.13574219,130.25,59.78125,170.65625,0.0,0.0,0.0
1696242235466,-0.53125,-0.08886719,-0.14550781,36.375,-16.875,144.53125,0.0,0.0,0.0
1696242235494,-1.0126953,-0.45507812,-0.25585938,69.625,112.40625,139.03125,0.0,0.0,0.0
1696242235529,-0.79296875,-0.2421875,-0.43066406,-872.03125,162.75,38.1875,0.0,0.0,0.0
1696242235575,-1.9912109,-0.4033203,-0.1875,85.8125,-56.5625,-222.65625,0.0,0.0,0.0
1696242235597,-1.1855469,0.39257812,-0.2109375,25.6875,-37.4375,-118.78125,0.0,0.0,0.0
1696242235642,-1.9140625,0.8105469,-0.6875,159.90625,-19.25,-47.75,-89.6875,-17.1875,-148.875
1696242235676,-1.0654297,0.4375,-0.5546875,208.71875,-81.15625,142.375,0.0,0.0,0.0
1696242235722,-0.8613281,0.3515625,-0.6738281,425.53125,-17.65625,218.875,0.0,0.0,0.0
1696242235755,-0.98828125,-0.0126953125,-0.55078125,308.6875,100.75,196.34375,0.0,0.0,0.0
1696242235802,-1.2792969,-0.20996094,-0.4033203,151.59375,221.84375,134.75,0.0,0.0,0.0
1696242235869,-0.9296875,0.10839844,0.2998047,6.03125,287.375,37.09375,0.0,0.0,0.0
1696242235889,-0.5654297,-0.40625,-0.61621094,-1024.0,-11.25,-335.8125,0.0,0.0,0.0
1696242235934,-0.47265625,-0.71484375,0.08984375,270.0625,26.21875,165.71875,0.0,0.0,0.0
1696242235958,-0.7207031,-0.15332031,-0.1953125,472.15625,-121.375,-21.90625,0.0,0.0,0.0
1696242236002,-1.8945312,-0.095703125,-0.80566406,255.125,-377.90625,-267.21875,0.0,0.0,0.0
1696242236036,-1.9912109,0.013671875,-0.69140625,-269.0625,-169.21875,-439.28125,0.0,0.0,0.0
1696242236081,-1.5664062,0.4111328,-0.46289062,-397.84375,192.0625,-392.53125,0.0,0.0,0.0
1696242236126,-1.8623047,1.3085938,1.5732422,17.0625,-65.09375,-108.46875,-93.0,-22.625,-144.375
1696242236160,-0.29589844,0.8310547,-0.16113281,322.4375,83.78125,26.4375,0.0,0.0,0.0
1696242236205,-0.10644531,0.37695312,-0.16015625,-1.96875,52.65625,124.625,0.0,0.0,0.0
1696242236278,-0.51464844,0.013671875,0.021484375,-180.375,-20.46875,142.4375,0.0,0.0,0.0
1696242236294,-0.9482422,-0.2607422,-0.55566406,-103.84375,91.78125,218.0625,0.0,0.0,0.0
1696242236317,-1.4501953,-0.671875,-0.5205078,-587.96875,42.9375,52.0625,0.0,0.0,0.0
1696242236362,-1.515625,-0.16210938,-0.024414062,137.25,15.46875,-12.09375,0.0,0.0,0.0
1696242236396,-0.65234375,0.36816406,-0.2421875,94.96875,-136.375,-193.4375,0.0,0.0,0.0
1696242236440,-1.9912109,0.6923828,-0.7675781,25.6875,-48.25,-38.40625,0.0,0.0,0.0
1696242236475,-0.9160156,0.359375,-0.40234375,92.9375,-43.0625,103.15625,0.0,0.0,0.0
1696242236520,-0.8515625,0.2685547,-0.5185547,244.96875,-43.375,153.0,0.0,0.0,0.0
1696242236577,-1.1376953,0.060546875,-0.43945312,209.65625,61.625,172.84375,0.0,0.0,0.0
1696242236610,-1.2949219,-0.064453125,-0.41210938,98.4375,188.15625,159.65625,0.0,0.0,0.0
1696242236654,-0.81152344,-0.24121094,-0.13769531,53.09375,167.6875,115.84375,-95.125,-13.3125,-145.125
1696242236677,-0.35351562,-0.8232422,0.671875,-1024.0,57.03125,-159.75,0.0,0.0,0.0
1696242236722,-0.46679688,-0.32714844,-0.18554688,249.6875,-190.21875,111.5625,0.0,0.0,0.0
1696242236767,-0.72753906,-0.18652344,-0.25097656,364.5,-106.21875,-91.6875,0.0,0.0,0.0
1696242236802,-1.8251953,-0.06738281,-0.6796875,182.0625,-299.15625,-250.96875,0.0,0.0,0.0
1696242236836,-1.9912109,0.078125,-0.55371094,-317.40625,-40.1875,-357.625,0.0,0.0,0.0
1696242236880,-1.4648438,0.5673828,-0.38085938,-363.78125,193.09375,-324.21875,0.0,0.0,0.0
1696242236949,-1.5410156,1.2900391,1.6279297,215.375,-24.875,25.3125,0.0,0.0,0.0
1696242236979,-0.56152344,0.49121094,-0.25390625,252.90625,33.78125,121.625,0.0,0.0,0.0
1696242237014,-0.36328125,0.2939453,-0.2841797,28.78125,47.59375,118.53125,0.0,0.0,0.0
1696242237047,-0.703125,0.16113281,-0.14550781,-127.8125,60.75,177.0,0.0,0.0,0.0
1696242237082,-0.9716797,-0.4033203,-0.52734375,-21.0,5.21875,179.4375,0.0,0.0,0.0
1696242237118,-0.8701172,-0.2841797,0.46679688,-179.40625,241.3125,225.65625,-94.625,-10.625,-148.375
1696242237161,-1.8603516,-0.75097656,-0.28125,-104.75,2.09375,-142.53125,0.0,0.0,0.0
1696242237195,-0.4013672,0.21679688,-0.068359375,250.53125,-151.34375,-78.5,0.0,0.0,0.0
1696242237240,-1.9912109,0.3251953,-0.7636719,287.28125,-150.0625,-155.21875,0.0,0.0,0.0
1696242237284,-1.328125,0.6777344,-0.7167969,224.21875,-109.46875,71.71875,0.0,0.0,0.0
1696242237329,-0.49804688,0.8496094,-0.4013672,175.28125,-78.875,148.0625,0.0,0.0,0.0
1696242237374,-1.0957031,0.16601562,-0.6269531,-61.96875,91.09375,74.21875,0.0,0.0,0.0
1696242237409,-1.1748047,-0.16894531,-0.5810547,95.5,76.21875,166.625,0.0,0.0,0.0
1696242237442,-0.8613281,-0.21289062,-0.33691406,218.5,190.65625,170.15625,0.0,0.0,0.0
1696242237476,-0.5888672,1.1074219,1.9707031,123.34375,433.75,15.1875,0.0,0.0,0.0
1696242237520,-0.5390625,-0.53027344,-0.53515625,-1024.0,-56.0,-368.53125,0.0,0.0,0.0
1696242237555,-0.6923828,-0.2998047,-0.42773438,328.0625,80.78125,60.78125,0.0,0.0,0.0
1696242237600,-1.0429688,0.12890625,-0.36816406,563.65625,-219.15625,-195.5625,0.0,0.0,0.0
1696242237644,-1.9912109,-0.0029296875,-0.6269531,-7.28125,-397.5,-378.84375,-91.0625,-0.5625,-152.125
1696242237689,-1.9912109,0.3125,-0.48632812,-405.09375,126.0,-308.90625,0.0,0.0,0.0
1696242237775,-1.59375,0.47851562,-0.23046875,-268.1875,247.96875,-247.25,0.0,0.0,0.0
1696242237784,-0.71875,1.1396484,0.40722656,462.6875,-114.71875,141.65625,0.0,0.0,0.0
1696242237802,-0.1875,0.5234375,-0.3623047,86.59375,123.125,50.59375,0.0,0.0,0.0
1696242237837,-0.30371094,0.31054688,-0.2578125,-181.28125,41.46875,151.78125,0.0,0.0,0.0
1696242237880,-0.8925781,-0.20507812,-0.5058594,-74.84375,-86.75,204.59375,0.0,0.0,0.0
1696242237915,-1.1591797,-0.3798828,0.45703125,-144.84375,184.78125,199.09375,0.0,0.0,0.0
1696242237960,-1.3085938,-0.6660156,-0.2841797,47.65625,-65.21875,-27.03125,0.0,0.0,0.0
1696242238004,-0.39746094,0.3095703,-0.12695312,274.03125,-208.65625,-106.09375,0.0,0.0,0.0
1696242238050,-1.9912109,0.515625,-0.88183594,252.25,-173.90625,-99.875,0.0,0.0,0.0
1696242238094,-1.0595703,0.9345703,-0.59277344,183.75,-5.40625,163.3125,0.0,0.0,0.0
1696242238129,-0.9082031,0.2763672,-0.5078125,172.28125,22.625,155.21875,-100.375,-17.8125,-140.75
1696242238162,-1.2158203,0.08691406,-0.6455078,96.40625,101.15625,124.875,0.0,0.0,0.0
1696242238196,-1.3271484,-0.13964844,-0.4404297,-15.09375,142.4375,133.96875,0.0,0.0,0.0
1696242238241,-0.9638672,-0.23925781,-0.26953125,99.28125,228.25,105.40625,0.0,0.0,0.0
1696242238297,-1.1533203,-0.13964844,-0.26660156,-1024.0,436.5,-2.03125,0.0,0.0,0.0
1696242238320,-0.3779297,-1.2958984,0.42773438,-466.4375,383.5625,-34.78125,0.0,0.0,0.0
1696242238364,-0.7705078,-0.21484375,-0.2734375,365.84375,-307.09375,-4.46875,0.0,0.0,0.0
1696242238410,-0.9970703,0.29003906,-0.88964844,363.6875,-220.3125,-238.65625,0.0,0.0,0.0
1696242238483,-1.9912109,0.15429688,-0.63183594,-380.9375,-211.09375,-587.53125,0.0,0.0,0.0
1696242238485,-1.9912109,0.36328125,-0.421875,-188.625,193.21875,-294.125,0.0,0.0,0.0
1696242238522,-1.6533203,0.4326172,-0.19726562,-22.46875,401.875,-223.09375,0.0,0.0,0.0
1696242238557,-0.9423828,1.5126953,0.84765625,641.90625,-129.1875,134.03125,0.0,0.0,0.0
1696242238601,-0.20019531,0.4951172,-0.18359375,72.4375,51.96875,109.0625,0.0,0.0,0.0
1696242238646,-0.38671875,0.19628906,-0.27539062,-5.4375,81.40625,193.40625,-90.4375,-28.625,-147.1875
1696242238680,-0.8095703,-0.0703125,-0.4638672,-88.15625,-13.625,276.375,0.0,0.0,0.0
1696242238725,-0.9375,-0.2890625,-0.30566406,189.5,27.125,224.78125,0.0,0.0,0.0
1696242238770,-1.9091797,-0.4296875,-0.4404297,-134.96875,235.625,41.0,0.0,0.0,0.0
1696242238815,-0.46484375,0.13183594,-0.06640625,-140.03125,-86.28125,-84.96875,0.0,0.0,0.0
1696242238844,-1.9746094,0.45214844,-0.5253906,-51.46875,10.46875,-187.1875,0.0,0.0,0.0
1696242238882,-1.2841797,0.78222656,-0.4169922,3.53125,-82.3125,75.3125,0.0,0.0,0.0
1696242238916,-0.8408203,0.4736328,-0.26757812,20.5625,-71.9375,92.65625,0.0,0.0,0.0
1696242238961,-1.0556641,0.07324219,-0.3388672,41.71875,-103.53125,110.03125,0.0,0.0,0.0
1696242238994,-1.0800781,-0.16113281,-0.25683594,213.96875,8.40625,158.375,0.0,0.0,0.0
1696242239039,-0.5986328,-0.125,-0.13378906,218.90625,85.46875,172.25,0.0,0.0,0.0
1696242239085,-0.32910156,0.1953125,0.8779297,105.40625,177.71875,133.21875,0.0,0.0,0.0
1696242239130,-0.36816406,-0.2607422,-0.20507812,-612.5625,-65.6875,23.625,-92.125,2.0,-149.75
1696242239197,-0.5488281,-0.09472656,-0.29785156,14.6875,197.3125,-143.9375,0.0,0.0,0.0
1696242239198,-1.8037109,0.14453125,-0.7236328,398.65625,-117.78125,-440.1875,0.0,0.0,0.0
1696242239263,-1.9912109,0.0048828125,-0.3388672,-361.09375,13.09375,-508.375,0.0,0.0,0.0
1696242239295,-1.9208984,0.69140625,1.515625,-84.71875,358.84375,-267.46875,0.0,0.0,0.0
1696242239321,-1.1025391,0.59765625,-0.043945312,143.125,-13.03125,-42.84375,0.0,0.0,0.0
1696242239354,-0.30859375,0.37695312,-0.17773438,100.6875,39.53125,72.3125,0.0,0.0,0.0
1696242239399,-0.11816406,0.27539062,-0.20410156,12.5,6.0,175.09375,0.0,0.0,0.0
1696242239445,-0.35351562,-0.025390625,-0.21484375,93.96875,-53.8125,207.5625,0.0,0.0,0.0
1696242239490,-0.49121094,-0.12402344,-0.15722656,188.59375,-14.125,222.40625,0.0,0.0,0.0
1696242239535,-1.5439453,-0.1484375,-0.21875,28.1875,270.59375,-20.4375,0.0,0.0,0.0
1696242239557,-1.4238281,-0.048828125,-0.4404297,-119.28125,-100.25,-72.53125,0.0,0.0,0.0
1696242239602,-1.2695312,0.087890625,-0.3359375,-210.84375,6.6875,-203.4375,0.0,0.0,0.0
1696242239648,-1.9570312,0.18261719,-0.5,-14.53125,-119.28125,-89.71875,-95.25,-8.5,-150.0625
1696242239707,-0.96972656,0.29101562,-0.375,120.34375,-38.0625,38.8125,0.0,0.0,0.0
1696242239715,-0.78125,0.46972656,-0.41015625,302.71875,-50.9375,144.40625,0.0,0.0,0.0
1696242239760,-0.98339844,0.18261719,-0.375,226.125,-77.96875,144.40625,0.0,0.0,0.0
1696242239805,-0.71777344,-0.037109375,-0.27441406,158.1875,65.875,165.09375,0.0,0.0,0.0
1696242239850,-0.2890625,-0.13574219,-0.11816406,121.9375,98.84375,200.1875,0.0,0.0,0.0
1696242239895,-0.3466797,0.12402344,0.49316406,-466.4375,202.90625,100.875,0.0,0.0,0.0
1696242239917,-0.54589844,-0.2939453,-0.31445312,-509.84375,-55.75,-143.75,0.0,0.0,0.0
1696242239962,-1.6425781,-0.3232422,-0.30859375,14.28125,4.90625,-332.78125,0.0,0.0,0.0
1696242240018,-1.9912109,-0.13476562,-0.5654297,112.09375,139.875,-322.46875,0.0,0.0,0.0
1696242240050,-1.6904297,0.96875,0.055664062,-101.40625,106.96875,-219.0625,0.0,0.0,0.0
1696242240074,-1.3847656,0.9511719,1.0722656,-295.0,33.125,-181.21875,0.0,0.0,0.0
1696242240119,-0.49121094,0.39746094,-0.1328125,281.65625,32.5625,67.25,-95.25,-14.5,-148.375
1696242240164,0.025390625,0.39453125,-0.15625,180.71875,-20.90625,126.03125,0.0,0.0,0.0
1696242240209,-0.24023438,0.10058594,-0.17089844,94.71875,-64.0625,155.34375,0.0,0.0,0.0
1696242240255,-0.12988281,-0.14550781,-0.13476562,123.09375,28.09375,125.0,0.0,0.0,0.0
1696242240277,-0.67578125,-0.3076172,-0.21777344,-4.09375,27.0,67.25,0.0,0.0,0.0
1696242240322,-1.9912109,-0.35351562,-0.515625,-113.59375,-7.65625,-108.34375,0.0,0.0,0.0
1696242240387,-1.2734375,0.20019531,-0.2841797,-219.125,29.28125,-138.0625,0.0,0.0,0.0
1696242240400,-1.7880859,0.16503906,-0.4970703,-23.5625,-15.28125,-74.53125,0.0,0.0,0.0
1696242240434,-1.0654297,0.3671875,-0.45410156,206.34375,-77.59375,95.09375,0.0,0.0,0.0
1696242240480,-0.92285156,0.30859375,-0.4921875,305.40625,-62.15625,132.4375,0.0,0.0,0.0
1696242240525,-0.8964844,0.18164062,-0.48535156,140.625,3.875,138.0625,0.0,0.0,0.0
1696242240570,-1.0039062,-0.109375,-0.27734375,3.90625,96.90625,99.65625,0.0,0.0,0.0
1696242240615,-0.8154297,0.14453125,0.8847656,-44.8125,196.5,94.71875,0.0,0.0,0.0
1696242240637,-0.2998047,-1.7001953,1.4121094,-585.71875,328.34375,15.0,-99.75,-3.5625,-142.6875
1696242240682,-0.4013672,-0.21875,-0.17480469,131.9375,-196.625,46.625,0.0,0.0,0.0
1696242240716,-1.4824219,-0.21191406,-0.37695312,179.4375,-148.40625,-253.84375,0.0,0.0,0.0
1696242240761,-1.9912109,-0.057617188,-0.79589844,57.0,-67.84375,-262.625,0.0,0.0,0.0
1696242240794,-1.671875,0.55859375,-0.43945312,-165.59375,20.125,-243.59375,0.0,0.0,0.0
1696242240840,-1.5185547,1.7050781,1.2128906,-390.53125,395.59375,-197.875,0.0,0.0,0.0
1696242240884,-1.0263672,0.0703125,-0.03125,220.1875,-29.75,153.375,0.0,0.0,0.0
1696242240930,-0.2763672,0.09863281,-0.13769531,207.9375,24.5,174.75,0.0,0.0,0.0
1696242240975,-0.4189453,-0.026367188,-0.20996094,151.84375,-57.9375,202.8125,0.0,0.0,0.0
1696242241019,-0.5839844,-0.20214844,-0.16503906,121.15625,40.0625,153.125,0.0,0.0,0.0
1696242241042,-0.37890625,-0.24804688,-0.07324219,6.625,68.75,113.28125,0.0,0.0,0.0
1696242241075,-0.7138672,-0.032226562,-0.041992188,-81.5,167.28125,40.40625,0.0,0.0,0.0
1696242241134,-1.9912109,-0.32910156,-0.6738281,-122.8125,-40.0,-263.375,-97.375,-8.6875,-148.125
1696242241179,-1.5234375,0.23828125,-0.46875,-231.65625,26.21875,-179.875,0.0,0.0,0.0
1696242241199,-1.8310547,0.17578125,-0.52246094,10.46875,-122.53125,-37.3125,0.0,0.0,0.0
1696242241245,-0.85058594,0.1640625,-0.36621094,233.25,-98.53125,65.84375,0.0,0.0,0.0
1696242241290,-0.7451172,0.4345703,-0.46484375,270.5,-138.8125,76.53125,0.0,0.0,0.0
1696242241334,-0.8027344,0.35839844,-0.41992188,72.0,35.375,98.6875,0.0,0.0,0.0
1696242241357,-0.86621094,-0.119140625,-0.23828125,-63.5625,103.90625,122.84375,0.0,0.0,0.0
1696242241402,-0.4951172,-0.16992188,-0.029296875,-29.375,121.375,141.59375,0.0,0.0,0.0
1696242241436,-0.2841797,-1.7226562,1.3544922,-620.875,201.75,63.15625,0.0,0.0,0.0
1696242241481,-0.5175781,-0.22460938,-0.2265625,226.1875,-224.9375,16.71875,0.0,0.0,0.0
1696242241514,-1.7753906,-0.2607422,-0.5527344,382.5625,-183.9375,-213.09375,0.0,0.0,0.0
1696242241586,-1.9912109,-0.11621094,-0.9394531,-175.375,-67.28125,-355.96875,0.0,0.0,0.0
1696242241605,-1.515625,0.52734375,-0.3720703,-377.9375,154.15625,-255.625,0.0,0.0,0.0
1696242241650,-1.8603516,0.9472656,1.8828125,-240.5625,169.71875,-36.0625,-100.1875,-21.5625,-138.5
1696242241695,-0.7158203,0.13769531,-0.21582031,234.0625,-10.65625,115.34375,0.0,0.0,0.0
1696242241717,-0.13183594,0.18066406,-0.16210938,74.875,27.4375,98.5,0.0,0.0,0.0
1696242241762,-0.25683594,0.115234375,-0.12011719,62.1875,7.59375,98.3125,0.0,0.0,0.0
1696242241796,-0.27539062,-0.091796875,-0.17480469,39.59375,38.53125,148.625,0.0,0.0,0.0
1696242241841,-0.3564453,-0.15722656,-0.022460938,27.625,43.3125,120.125,0.0,0.0,0.0
1696242241890,-1.9912109,-0.52734375,-0.6748047,-135.8125,-5.53125,-23.5,0.0,0.0,0.0
1696242241926,-0.7216797,0.1953125,-0.21484375,-148.21875,-11.0625,-65.5625,0.0,0.0,0.0
1696242242010,-1.9912109,0.22558594,-0.58984375,-19.375,74.0,-92.28125,0.0,0.0,0.0
1696242242012,-1.3632812,0.12402344,-0.41601562,204.75,-102.03125,86.65625,0.0,0.0,0.0
1696242242054,-0.8173828,0.13378906,-0.41308594,267.5625,-49.65625,106.25,0.0,0.0,0.0
1696242242099,-0.8857422,0.13574219,-0.38671875,197.5,-33.21875,78.59375,0.0,0.0,0.0
1696242242123,-0.75878906,0.11621094,-0.28222656,75.96875,32.8125,76.21875,-99.625,-14.1875,-138.9375
1696242242156,-0.41601562,-0.06347656,-0.08691406,-22.40625,93.65625,77.9375,0.0,0.0,0.0
1696242242201,-0.36035156,-0.12792969,0.15429688,-756.25,-121.3125,18.5625,0.0,0.0,0.0
1696242242257,-0.41308594,-0.4873047,-0.013671875,2.90625,105.4375,9.15625,0.0,0.0,0.0
1696242242300,-1.0576172,-0.18359375,-0.24609375,301.5,-210.34375,-66.28125,0.0,0.0,0.0
1696242242349,-1.9912109,-0.21679688,-0.44726562,226.375,-55.8125,-335.625,0.0,0.0,0.0
1696242242369,-1.9912109,0.4873047,-0.53515625,-291.875,-41.78125,-288.8125,0.0,0.0,0.0
1696242242414,-1.3056641,1.1787109,0.29492188,-402.53125,176.5,-205.8125,0.0,0.0,0.0
1696242242437,-1.3642578,0.12695312,0.059570312,121.9375,-3.15625,118.78125,0.0,0.0,0.0
1696242242485,-0.57714844,-0.021484375,-0.07128906,130.1875,40.0625,158.9375,0.0,0.0,0.0
1696242242516,-0.37890625,-0.018554688,-0.19921875,84.75,23.03125,128.53125,0.0,0.0,0.0
1696242242561,-0.6464844,-0.20117188,-0.19238281,111.6875,15.09375,146.53125,0.0,0.0,0.0
1696242242606,-0.4482422,-0.31347656,-0.0234375,36.65625,87.0625,116.03125,0.0,0.0,0.0
1696242242659,-0.66503906,-0.24511719,-0.2890625,-523.4375,155.625,74.28125,-98.25,-10.9375,-145.25
1696242242711,-1.9912109,-0.19824219,-0.09765625,111.5625,118.1875,-223.875,0.0,0.0,0.0
1696242242739,-0.9638672,0.24023438,-0.13671875,162.34375,-134.375,-126.15625,0.0,0.0,0.0
1696242242776,-1.9912109,0.30273438,-0.66503906,169.71875,-64.90625,-38.75,0.0,0.0,0.0
1696242242798,-1.2167969,0.24023438,-0.58691406,152.34375,-170.1875,97.34375,0.0,0.0,0.0
1696242242843,-0.9082031,0.078125,-0.5019531,273.5,-68.75,121.625,0.0,0.0,0.0
1696242242876,-1.0371094,0.11035156,-0.47265625,191.21875,75.71875,101.5625,0.0,0.0,0.0
1696242242920,-0.9921875,-0.0068359375,-0.30371094,-16.4375,119.90625,73.59375,0.0,0.0,0.0
1696242242966,-0.60546875,-0.07128906,-0.111328125,-102.25,163.53125,40.8125,0.0,0.0,0.0
1696242243016,-0.57421875,-0.20117188,-0.15625,-1024.0,-200.34375,-72.09375,0.0,0.0,0.0
1696242243056,-0.6513672,-0.27929688,-0.3232422,223.75,-71.5625,-17.59375,0.0,0.0,0.0
1696242243090,-0.88671875,-0.20214844,-0.23535156,337.625,-106.71875,-92.0625,0.0,0.0,0.0
1696242243135,-1.9912109,-0.18261719,-0.77246094,211.21875,-223.28125,-207.15625,-100.1875,-6.875,-140.625
1696242243157,-1.5048828,0.28125,-0.4248047,-338.5,23.59375,-259.15625,0.0,0.0,0.0
1696242243202,-1.3515625,0.45410156,-0.28222656,-368.53125,242.21875,-241.15625,0.0,0.0,0.0
1696242243236,-0.86035156,0.6201172,0.6855469,-34.0625,-30.96875,53.28125,0.0,0.0,0.0
1696242243280,-0.50097656,0.091796875,-0.11816406,197.0,13.75,160.15625,0.0,0.0,0.0
1696242243326,-0.40820312,0.0068359375,-0.115234375,166.96875,-69.1875,201.65625,0.0,0.0,0.0
1696242243360,-0.4423828,-0.18164062,-0.14355469,159.15625,-44.65625,170.46875,0.0,0.0,0.0
1696242243405,-0.28710938,-0.15917969,-0.024414062,122.375,6.8125,161.6875,0.0,0.0,0.0
1696242243450,-1.375,-0.17285156,-0.30566406,-14.40625,178.875,22.21875,0.0,0.0,0.0
1696242243502,-1.8251953,-0.23046875,-0.31640625,-159.4375,-87.96875,-174.1875,0.0,0.0,0.0
1696242243516,-1.2832031,0.11425781,-0.34472656,-268.625,54.09375,-216.8125,0.0,0.0,0.0
1696242243562,-1.9912109,0.15429688,-0.5390625,-0.875,-90.1875,-119.6875,0.0,0.0,0.0
1696242243607,-0.8535156,0.3466797,-0.3330078,210.625,15.59375,21.90625,0.0,0.0,0.0
1696242243641,-0.64453125,0.35058594,-0.27929688,93.3125,-29.21875,45.46875,-97.625,-18.25,-145.125
1696242243686,-0.6982422,0.09082031,-0.27441406,32.53125,-23.59375,101.9375,0.0,0.0,0.0
1696242243720,-0.8955078,-0.0703125,-0.24707031,89.46875,-28.15625,148.125,0.0,0.0,0.0
1696242243778,-0.5390625,-0.12402344,-0.09667969,114.3125,70.96875,156.5,0.0,0.0,0.0
1696242243826,-0.44726562,-0.18652344,-0.046875,-965.71875,-174.78125,26.0,0.0,0.0,0.0
1696242243854,-0.63378906,-0.15820312,-0.4091797,-46.78125,150.71875,-58.0,0.0,0.0,0.0
1696242243878,-1.3027344,-0.19921875,-0.2578125,287.53125,-300.0625,-158.15625,0.0,0.0,0.0
1696242243922,-1.9912109,-0.15917969,-0.9199219,278.0625,-11.6875,-257.6875,0.0,0.0,0.0
1696242243956,-1.1767578,0.30859375,-0.27929688,-258.3125,47.75,-204.96875,0.0,0.0,0.0
1696242244001,-1.4501953,0.5048828,-0.123046875,-287.90625,410.375,-158.40625,0.0,0.0,0.0
1696242244046,-0.8105469,0.17675781,0.08496094,153.90625,-71.8125,83.625,0.0,0.0,0.0
1696242244080,-0.2548828,0.20605469,-0.2265625,158.625,-30.71875,98.5625,0.0,0.0,0.0
1696242244126,-0.734375,0.03515625,-0.3359375,1.21875,-8.15625,133.21875,-97.5,-17.8125,-144.9375
1696242244170,-0.94628906,-0.17871094,-0.29003906,29.09375,-18.34375,156.0,0.0,0.0,0.0
1696242244215,-0.4033203,-0.23144531,-0.04296875,66.9375,34.53125,158.5,0.0,0.0,0.0
1696242244247,-0.72753906,-0.10058594,-0.13574219,-146.75,284.21875,94.59375,0.0,0.0,0.0
1696242244282,-1.9912109,-0.35351562,-0.3203125,50.34375,-142.1875,-202.65625,0.0,0.0,0.0
1696242244316,-1.1435547,0.14453125,-0.296875,-159.375,6.625,-156.4375,0.0,0.0,0.0
1696242244361,-1.9912109,0.11328125,-0.5029297,92.40625,-152.1875,-95.46875,0.0,0.0,0.0
1696242244406,-1.0654297,0.26171875,-0.4033203,288.375,-109.21875,36.0625,0.0,0.0,0.0
1696242244439,-0.7685547,0.32226562,-0.41601562,168.5625,-194.78125,30.4375,0.0,0.0,0.0
1696242244485,-0.6640625,0.24316406,-0.3642578,55.59375,-10.03125,41.75,0.0,0.0,0.0
1696242244555,-1.0214844,0.013671875,-0.33203125,-96.3125,60.6875,65.71875,0.0,0.0,0.0
1696242244574,-0.81152344,-0.15039062,-0.16796875,-21.1875,90.125,138.71875,0.0,0.0,0.0
1696242244597,-0.38964844,-0.16210938,-0.038085938,67.75,163.65625,149.46875,0.0,0.0,0.0
1696242244642,-0.9033203,-1.3486328,0.70214844,-654.90625,285.25,3.34375,-98.5625,-4.1875,-144.9375
1696242244676,-0.86328125,-0.2705078,-0.20996094,353.0625,-284.21875,-118.71875,0.0,0.0,0.0
1696242244720,-1.9912109,-0.13378906,-0.7763672,442.0,-157.25,-220.09375,0.0,0.0,0.0
1696242244766,-1.7041016,0.4169922,-0.57910156,-327.46875,-12.78125,-228.8125,0.0,0.0,0.0
1696242244800,-1.3525391,0.46484375,-0.24511719,-415.90625,148.15625,-241.875,0.0,0.0,0.0
1696242244844,-1.1699219,0.1875,0.4716797,33.96875,-59.59375,35.15625,0.0,0.0,0.0
1696242244889,-0.4111328,0.1953125,-0.13476562,156.90625,-12.90625,87.75,0.0,0.0,0.0
1696242244996,-0.37695312,0.109375,-0.13671875,29.15625,3.875,105.84375,0.0,0.0,0.0
1696242245016,-0.74902344,-0.02734375,-0.23144531,16.34375,-16.5,134.5625,0.0,0.0,0.0
1696242245018,-0.62402344,-0.22558594,-0.18652344,58.15625,-19.6875,125.96875,0.0,0.0,0.0
1696242245047,-0.20996094,-0.21191406,-0.025390625,74.9375,42.21875,160.21875,0.0,0.0,0.0
1696242245092,-1.53125,-0.18554688,-0.3232422,13.90625,245.75,-0.375,0.0,0.0,0.0
1696242245126,-1.4824219,-0.13964844,-0.36914062,-575.6875,-84.75,-157.15625,-91.0625,-10.1875,-154.5625
1696242245160,-1.6777344,0.18261719,-0.26953125,-241.09375,-8.8125,-226.375,0.0,0.0,0.0
1696242245205,-1.6816406,0.23242188,-0.35742188,276.40625,-84.0,-14.90625,0.0,0.0,0.0
1696242245250,-1.0546875,0.5878906,-0.3173828,296.375,-125.75,23.3125,0.0,0.0,0.0
1696242245295,-0.8623047,0.38867188,-0.25585938,109.84375,-121.84375,37.59375,0.0,0.0,0.0
1696242245317,-0.6533203,0.22265625,-0.16113281,-36.34375,21.46875,74.9375,0.0,0.0,0.0
1696242245374,-1.0664062,-0.028320312,-0.17871094,-30.96875,61.25,130.3125,0.0,0.0,0.0
1696242245407,-0.89160156,-0.16699219,-0.18359375,44.65625,69.1875,178.9375,0.0,0.0,0.0
1696242245441,-0.59765625,-0.2685547,0.02734375,71.46875,183.0,208.0,0.0,0.0,0.0
1696242245486,-0.79003906,-0.7050781,-0.4404297,-40.0625,-15.03125,-45.46875,0.0,0.0,0.0
1696242245520,-1.0117188,-0.33203125,-0.17382812,431.3125,-77.78125,-76.78125,0.0,0.0,0.0
1696242245566,-1.9912109,0.11328125,-0.9707031,118.53125,-354.875,-197.625,0.0,0.0,0.0
1696242245610,-1.8369141,0.3486328,-0.66015625,-433.4375,-97.4375,-350.03125,0.0,0.0,0.0
1696242245655,-1.4853516,0.45996094,-0.14453125,-332.03125,244.28125,-181.90625,-96.75,-17.8125,-134.4375
1696242245707,-1.2167969,0.24707031,0.47070312,87.375,-107.75,50.71875,0.0,0.0,0.0
1696242245722,-0.4189453,0.31152344,-0.13574219,156.25,-47.5625,70.84375,0.0,0.0,0.0
1696242245767,-0.33984375,0.2763672,-0.048828125,56.3125,-11.125,88.75,0.0,0.0,0.0
1696242245801,-0.54003906,0.12597656,-0.10253906,17.8125,74.0625,146.71875,0.0,0.0,0.0
1696242245846,-0.9189453,-0.09082031,-0.21289062,34.28125,44.84375,194.5,0.0,0.0,0.0
1696242245883,-0.53222656,-0.20898438,-0.1015625,106.0625,13.875,169.0625,0.0,0.0,0.0
1696242245926,-0.8925781,-0.07519531,-0.09375,4.8125,152.1875,135.1875,0.0,0.0,0.0
1696242245970,-1.9912109,-0.38183594,0.421875,73.15625,-110.375,-248.53125,0.0,0.0,0.0
1696242246015,-0.77246094,0.27929688,-0.24121094,-388.0625,30.375,-234.1875,0.0,0.0,0.0
1696242246037,-1.9912109,0.24804688,-0.48242188,-29.1875,-206.875,-198.0625,0.0,0.0,0.0
1696242246083,-1.0341797,0.41503906,-0.36523438,272.15625,1.25,-7.28125,0.0,0.0,0.0
1696242246152,-0.74902344,0.3564453,-0.23046875,158.25,-92.125,56.875,-95.25,-14.1875,-144.9375
1696242246164,-0.7890625,0.19433594,-0.22460938,75.4375,28.46875,119.25,0.0,0.0,0.0
1696242246205,-1.0419922,-0.08105469,-0.28808594,82.875,-11.4375,128.53125,0.0,0.0,0.0
1696242246241,-0.64160156,-0.13964844,-0.13085938,115.15625,66.5625,173.09375,0.0,0.0,0.0
1696242246285,-0.7832031,-0.08105469,0.9746094,-197.53125,149.15625,107.90625,0.0,0.0,0.0
1696242246330,-0.6640625,-0.5126953,-0.033203125,-322.875,190.71875,-61.90625,0.0,0.0,0.0
1696242246375,-0.921875,-0.19335938,-0.20410156,241.3125,-205.84375,-117.25,0.0,0.0,0.0
1696242246397,-1.9912109,-0.24511719,-0.70410156,244.5,-176.59375,-218.875,0.0,0.0,0.0
1696242246451,-1.3398438,0.22265625,-0.265625,-219.375,113.0625,-221.0,0.0,0.0,0.0
1696242246512,-1.5263672,0.33984375,-0.12207031,-133.25,303.75,-139.21875,0.0,0.0,0.0
1696242246538,-0.78515625,0.54296875,0.24902344,85.5,-76.625,36.4375,0.0,0.0,0.0
1696242246566,-0.41796875,0.20996094,-0.10644531,142.0625,-23.71875,141.84375,0.0,0.0,0.0
1696242246600,-0.36621094,0.06347656,-0.16113281,124.875,-32.6875,193.46875,0.0,0.0,0.0
1696242246655,-0.75878906,-0.16699219,-0.25097656,140.1875,-31.53125,161.1875,-94.625,-13.1875,-147.375
1696242246690,-0.6796875,-0.2998047,-0.17578125,80.1875,30.78125,120.1875,0.0,0.0,0.0
1696242246735,-0.70996094,-0.10058594,-0.111328125,-43.46875,146.5625,-4.71875,0.0,0.0,0.0
1696242246802,-1.5830078,0.06933594,-0.36621094,27.5,-57.53125,-177.125,0.0,0.0,0.0
1696242246804,-1.5849609,0.33007812,-0.38476562,-308.5,-18.9375,-145.75,0.0,0.0,0.0
1696242246847,-1.3339844,0.38183594,-0.52246094,-95.53125,-26.53125,-69.34375,0.0,0.0,0.0
1696242246916,-1.2333984,0.22265625,-0.43066406,85.9375,-110.75,43.9375,0.0,0.0,0.0
1696242246925,-1.0722656,0.1796875,-0.4658203,275.8125,-95.0625,140.6875,0.0,0.0,0.0
1696242246959,-1.0761719,0.005859375,-0.41015625,288.4375,53.5,179.1875,0.0,0.0,0.0
1696242247005,-1.2919922,-0.11425781,-0.3125,185.15625,123.9375,136.03125,0.0,0.0,0.0
1696242247050,-0.8310547,0.20996094,0.92871094,-558.71875,55.03125,34.59375,0.0,0.0,0.0
1696242247095,-0.15234375,-1.4277344,0.7763672,-307.15625,330.59375,-67.75,0.0,0.0,0.0
1696242247139,-0.4482422,-0.29492188,-0.11816406,212.375,-212.375,83.84375,-96.625,3.1875,-146.4375
1696242247162,-1.3164062,-0.12792969,-0.53222656,231.84375,-89.6875,-246.40625,0.0,0.0,0.0
1696242247218,-1.9912109,0.13867188,-0.80859375,-240.625,-183.125,-385.25,0.0,0.0,0.0
1696242247278,-1.9570312,0.6201172,-0.24023438,-162.84375,187.65625,-235.53125,0.0,0.0,0.0
1696242247298,-1.4658203,0.8828125,1.1865234,-448.125,190.71875,-55.1875,0.0,0.0,0.0
1696242247319,-1.0957031,0.06542969,-0.017578125,187.0625,-42.625,126.53125,0.0,0.0,0.0
1696242247365,-0.35351562,0.12402344,-0.15234375,78.40625,-32.4375,119.125,0.0,0.0,0.0
1696242247409,-0.5371094,0.09082031,-0.18359375,75.96875,-7.34375,141.28125,0.0,0.0,0.0
1696242247454,-0.9326172,-0.06347656,-0.21386719,129.75,26.21875,167.96875,0.0,0.0,0.0
1696242247477,-0.7080078,-0.2421875,-0.15625,76.59375,60.34375,144.21875,0.0,0.0,0.0
1696242247523,-0.6767578,-0.23242188,-0.2607422,-245.9375,294.65625,108.9375,0.0,0.0,0.0
1696242247567,-1.4902344,-0.24414062,-0.15917969,80.0625,-160.0,-206.90625,0.0,0.0,0.0
1696242247617,-0.99902344,0.15429688,-0.22363281,-150.46875,64.96875,-134.96875,0.0,0.0,0.0
1696242247662,-1.9912109,0.27441406,-0.5810547,69.1875,-67.21875,-197.9375,-90.0,-10.625,-149.75
1696242247679,-1.2617188,0.5419922,-0.57421875,255.28125,-56.59375,51.875,0.0,0.0,0.0
1696242247725,-0.92578125,0.34375,-0.4921875,185.71875,-138.21875,89.96875,0.0,0.0,0.0
1696242247770,-0.6669922,0.123046875,-0.3828125,88.96875,-19.5,91.3125,0.0,0.0,0.0
1696242247814,-1.0703125,-0.07910156,-0.33789062,80.0625,39.34375,139.40625,0.0,0.0,0.0
1696242247838,-0.89160156,-0.107421875,-0.21191406,120.28125,114.84375,136.46875,0.0,0.0,0.0
1696242247882,-0.52246094,-0.11425781,-0.005859375,21.46875,216.65625,100.9375,0.0,0.0,0.0
1696242247927,-0.08300781,-1.9892578,1.3632812,-1024.0,-61.5625,-88.9375,0.0,0.0,0.0
1696242248009,-0.578125,-0.18457031,-0.2919922,298.21875,-206.28125,-80.5625,0.0,0.0,0.0
1696242248032,-1.9013672,-0.23339844,-0.31835938,426.4375,-90.59375,-198.75,0.0,0.0,0.0
1696242248063,-1.9912109,0.016601562,-0.61816406,-4.96875,-141.21875,-212.15625,0.0,0.0,0.0
1696242248085,-1.2050781,0.3232422,-0.3642578,-464.125,38.65625,-315.0,0.0,0.0,0.0
1696242248129,-1.6513672,0.5332031,0.15039062,-316.65625,373.6875,-132.6875,-94.8125,-20.0625,-140.875
1696242248175,-0.56347656,0.3095703,-0.08203125,188.71875,-69.59375,89.96875,0.0,0.0,0.0
1696242248197,-0.22167969,0.19140625,-0.21582031,109.0625,-22.5625,128.15625,0.0,0.0,0.0
1696242248242,-0.65625,0.051757812,-0.14257812,67.6875,25.46875,149.21875,0.0,0.0,0.0
1696242248287,-0.9394531,-0.1328125,-0.22167969,22.6875,40.0,183.15625,0.0,0.0,0.0
1696242248321,-0.44140625,-0.17578125,-0.08203125,6.46875,32.0625,158.3125,0.0,0.0,0.0
1696242248377,-0.83203125,-0.04296875,-0.16015625,-191.71875,213.65625,123.84375,0.0,0.0,0.0
1696242248408,-1.9912109,-0.43066406,-0.4169922,96.375,-173.78125,-243.0625,0.0,0.0,0.0
1696242248446,-0.74316406,0.21582031,-0.20996094,-123.78125,37.25,-48.78125,0.0,0.0,0.0
1696242248489,-1.9912109,0.10449219,-0.6152344,58.6875,-128.03125,-170.78125,0.0,0.0,0.0
1696242248534,-1.2460938,0.4248047,-0.38183594,111.875,-99.15625,-11.34375,0.0,0.0,0.0
1696242248579,-0.8154297,0.38085938,-0.4033203,-63.125,-174.34375,-7.15625,0.0,0.0,0.0
1696242248602,-0.60253906,0.27734375,-0.20507812,50.34375,27.625,49.25,0.0,0.0,0.0
1696242248647,-1.0273438,0.08496094,-0.2578125,0.40625,-3.75,84.84375,-97.625,-12.875,-136.375
1696242248681,-0.6591797,-0.13964844,-0.17382812,93.3125,16.21875,152.15625,0.0,0.0,0.0
1696242248744,-0.34472656,-0.11230469,-0.038085938,139.6875,111.46875,178.03125,0.0,0.0,0.0
1696242248760,-0.37890625,-0.6152344,1.4560547,-762.59375,-37.03125,88.75,0.0,0.0,0.0
1696242248804,-0.69433594,-0.15332031,-0.44921875,46.1875,-132.78125,-180.90625,0.0,0.0,0.0
1696242248849,-1.9912109,-0.29589844,-0.45996094,419.125,-228.96875,-310.125,0.0,0.0,0.0
1696242248894,-1.9912109,0.15917969,-0.83203125,162.28125,94.5,-215.8125,0.0,0.0,0.0
1696242248940,-1.1386719,0.515625,-0.25585938,-289.5,-31.78125,-228.8125,0.0,0.0,0.0
1696242248962,-1.6708984,1.0302734,1.9707031,-654.125,215.0,-96.375,0.0,0.0,0.0
1696242249007,-0.55859375,0.23242188,-0.21191406,296.0,-37.75,73.59375,0.0,0.0,0.0
1696242249041,-0.19628906,0.2607422,-0.1953125,92.6875,-37.4375,53.40625,0.0,0.0,0.0
1696242249098,-0.4970703,0.103515625,-0.140625,-8.875,63.4375,107.59375,0.0,0.0,0.0
1696242249142,-1.0185547,-0.07714844,-0.24804688,1.75,75.59375,178.71875,-94.625,-19.1875,-141.8125
1696242249164,-0.71777344,-0.25097656,-0.103515625,6.46875,13.71875,176.75,0.0,0.0,0.0
1696242249209,-1.2646484,-0.19335938,-0.08300781,-180.4375,206.875,7.3125,0.0,0.0,0.0
1696242249255,-0.70410156,-0.09765625,-0.02734375,-228.21875,-77.53125,-100.84375,0.0,0.0,0.0
1696242249299,-1.3359375,0.10644531,-0.33691406,14.875,34.53125,-156.75,0.0,0.0,0.0
1696242249321,-1.9912109,0.19238281,-0.5839844,246.5,-149.3125,26.25,0.0,0.0,0.0
1696242249367,-0.90234375,0.16210938,-0.3623047,199.375,-119.96875,105.53125,0.0,0.0,0.0
1696242249401,-0.92285156,0.10546875,-0.40722656,186.21875,-70.78125,68.0625,0.0,0.0,0.0
1696242249445,-0.84765625,0.13574219,-0.3203125,206.28125,-22.84375,95.5,0.0,0.0,0.0
1696242249491,-0.9453125,0.08300781,-0.25,-39.375,21.875,49.875,0.0,0.0,0.0
1696242249530,-0.72265625,-0.11328125,-0.18554688,-110.65625,120.28125,62.75,0.0,0.0,0.0
1696242249569,-0.359375,-0.10839844,-0.057617188,-105.90625,124.40625,88.25,0.0,0.0,0.0
1696242249614,-0.42089844,-0.37304688,0.4873047,-911.09375,-154.15625,-15.25,0.0,0.0,0.0
1696242249659,-0.8779297,-0.19921875,-0.34472656,133.34375,-119.0,-144.46875,-94.9375,3.3125,-140.4375
1696242249682,-1.9912109,-0.29101562,-0.296875,346.0,-147.78125,-242.4375,0.0,0.0,0.0
1696242249727,-1.9912109,0.2578125,-0.6689453,110.8125,-60.5625,-203.4375,0.0,0.0,0.0
1696242249761,-1.3076172,0.5078125,-0.33789062,-309.28125,-27.0625,-249.21875,0.0,0.0,0.0
1696242249817,-1.2490234,1.0234375,1.4208984,-314.15625,325.53125,-128.78125,0.0,0.0,0.0
1696242249854,-0.64746094,0.21484375,-0.038085938,195.59375,-29.5625,112.90625,0.0,0.0,0.0
1696242249884,-0.27539062,0.23046875,-0.123046875,120.65625,13.03125,117.25,0.0,0.0,0.0
1696242249933,-0.54785156,0.041015625,-0.18066406,45.21875,9.8125,156.625,0.0,0.0,0.0
1696242249974,-1.1748047,-0.19335938,-0.31152344,89.78125,14.4375,191.78125,0.0,0.0,0.0
1696242250019,-1.1269531,-0.40039062,-0.0625,87.9375,78.46875,158.875,0.0,0.0,0.0
1696242250064,-1.4628906,-0.43164062,-0.024414062,-492.1875,-6.75,-123.84375,0.0,0.0,0.0
1696242250087,-0.31835938,0.18554688,-0.10546875,84.15625,-37.03125,-143.75,0.0,0.0,0.0
1696242250121,-1.6386719,0.2705078,-0.42773438,158.875,-97.0625,-135.03125,-92.875,-6.6875,-148.375
1696242250165,-1.9912109,0.3701172,-0.7988281,255.65625,-89.1875,54.1875,0.0,0.0,0.0
1696242250199,-0.8183594,0.24121094,-0.38671875,216.84375,-56.59375,117.4375,0.0,0.0,0.0
1696242250268,-0.875,0.14257812,-0.4453125,113.09375,-49.90625,69.625,0.0,0.0,0.0
1696242250293,-0.8808594,0.09277344,-0.36328125,-12.46875,15.03125,67.6875,0.0,0.0,0.0
1696242250334,-0.9511719,-0.07421875,-0.32421875,-47.1875,80.84375,90.03125,0.0,0.0,0.0
1696242250379,-0.6171875,-0.10839844,-0.16308594,21.78125,113.1875,110.53125,0.0,0.0,0.0
1696242250402,-1.3164062,0.4501953,1.9707031,-44.03125,237.53125,109.90625,0.0,0.0,0.0
1696242250447,-0.50683594,-0.99609375,0.09667969,-165.59375,218.90625,-97.65625,0.0,0.0,0.0
1696242250480,-1.1123047,-0.22753906,-0.18359375,403.5,-188.09375,-75.375,0.0,0.0,0.0
1696242250525,-1.9912109,-0.08984375,-0.8330078,328.96875,-122.78125,-245.625,0.0,0.0,0.0
1696242250559,-1.9785156,0.36328125,-0.56933594,-335.15625,-141.09375,-287.3125,0.0,0.0,0.0
1696242250604,-1.2871094,0.61621094,-0.36035156,-438.78125,136.09375,-237.4375,0.0,0.0,0.0
1696242250649,-1.5498047,0.4453125,1.2646484,189.1875,208.03125,40.65625,-98.6875,-19.0,-140.875
1696242250710,-0.46484375,0.34765625,-0.12988281,182.125,-44.09375,109.25,0.0,0.0,0.0
1696242250739,-0.4091797,0.2734375,-0.16992188,97.21875,-8.5,126.6875,0.0,0.0,0.0
1696242250762,-0.8066406,0.109375,-0.19238281,48.75,61.8125,168.21875,0.0,0.0,0.0
1696242250806,-1.0976562,-0.19921875,-0.28808594,81.78125,63.3125,217.78125,0.0,0.0,0.0
1696242250840,-0.48828125,-0.14257812,0.8857422,14.03125,145.25,173.9375,0.0,0.0,0.0
1696242250886,-1.2490234,-0.43164062,-0.27539062,-286.4375,-104.03125,-178.84375,0.0,0.0,0.0
1696242250919,-0.27929688,0.06640625,-0.046875,-49.15625,-20.34375,-93.75,0.0,0.0,0.0
1696242250964,-1.9570312,0.140625,-0.390625,90.5,-95.4375,-246.34375,0.0,0.0,0.0
1696242251009,-1.9863281,0.39160156,-0.5966797,302.15625,-12.96875,34.28125,0.0,0.0,0.0
1696242251057,-0.84765625,0.2841797,-0.35742188,283.96875,-101.53125,51.5,0.0,0.0,0.0
1696242251099,-0.9394531,0.40625,-0.4580078,157.03125,-88.71875,56.8125,0.0,0.0,0.0
1696242251122,-0.8984375,0.17773438,-0.3828125,0.46875,-19.9375,83.625,-100.625,-16.0,-138.375
1696242251167,-0.9423828,-0.125,-0.2861328,-4.65625,89.21875,116.28125,0.0,0.0,0.0
1696242251200,-0.59277344,-0.15039062,-0.11425781,55.34375,122.71875,109.78125,0.0,0.0,0.0
1696242251246,-1.0732422,0.40527344,1.9707031,-4.34375,280.25,97.21875,0.0,0.0,0.0
1696242251280,-0.82910156,-1.1572266,0.22167969,-272.34375,323.15625,-11.0,0.0,0.0,0.0
1696242251324,-1.0507812,-0.22460938,-0.13378906,446.75,-162.125,-52.0,0.0,0.0,0.0
1696242251370,-1.9912109,-0.14257812,-0.7519531,247.125,-146.9375,-270.40625,0.0,0.0,0.0
1696242251414,-1.9912109,0.3388672,-0.5361328,-327.28125,-140.34375,-298.15625,0.0,0.0,0.0
1696242251482,-1.4365234,0.63378906,-0.43554688,-358.84375,74.5,-228.8125,0.0,0.0,0.0
1696242251484,-1.1494141,1.1572266,1.6191406,135.4375,386.625,-78.0,0.0,0.0,0.0
1696242251527,-0.5048828,0.3232422,-0.09082031,132.125,-51.125,95.40625,0.0,0.0,0.0
1696242251560,-0.35546875,0.21191406,-0.08105469,57.125,30.4375,132.3125,0.0,0.0,0.0
1696242251606,-0.63183594,0.056640625,-0.13085938,-18.3125,77.5,179.0625,0.0,0.0,0.0
1696242251650,-1.2285156,-0.2265625,-0.30859375,0.84375,-15.03125,220.34375,-96.875,-14.375,-145.125
1696242251684,-1.7285156,-0.40039062,-0.17773438,66.03125,26.59375,159.59375,0.0,0.0,0.0
1696242251729,-0.96484375,-0.4267578,-0.140625,-391.6875,99.46875,-12.21875,0.0,0.0,0.0
1696242251804,-0.021484375,0.19140625,-0.038085938,-235.0,14.0625,-89.59375,0.0,0.0,0.0
1696242251819,-1.9570312,0.24804688,-0.4501953,25.375,-26.75,-339.4375,0.0,0.0,0.0
1696242251842,-1.7001953,0.31933594,-0.37304688,337.9375,39.53125,124.8125,0.0,0.0,0.0
1696242251887,-0.62597656,0.36132812,-0.30371094,364.1875,-36.65625,70.5625,0.0,0.0,0.0
1696242251920,-0.9550781,0.39453125,-0.37890625,223.8125,-72.40625,75.90625,0.0,0.0,0.0
1696242251966,-0.82910156,0.14941406,-0.421875,32.09375,-49.84375,92.34375,0.0,0.0,0.0
1696242252000,-0.77441406,-0.13964844,-0.27246094,36.125,44.28125,146.1875,0.0,0.0,0.0
1696242252044,-0.56347656,-0.18164062,-0.17382812,60.21875,133.09375,146.90625,0.0,0.0,0.0
1696242252089,-0.9433594,-0.2529297,0.21875,-859.375,41.09375,37.21875,0.0,0.0,0.0
1696242252152,-0.61328125,-0.7529297,-0.0029296875,17.25,114.21875,-42.84375,-96.0,4.0625,-142.875
1696242252204,-1.7333984,-0.27734375,-0.29882812,529.90625,-210.90625,-168.46875,0.0,0.0,0.0
1696242252206,-1.9912109,0.072265625,-0.9970703,61.875,-129.0,-282.90625,0.0,0.0,0.0
1696242252251,-1.2333984,0.60058594,-0.42773438,-468.28125,-8.28125,-308.46875,0.0,0.0,0.0
1696242252281,-1.5029297,1.5195312,1.9707031,-442.8125,174.21875,-144.65625,0.0,0.0,0.0
1696242252326,-0.62109375,0.17480469,-0.13671875,240.09375,-40.8125,67.0625,0.0,0.0,0.0
1696242252359,0.0234375,0.25,-0.18457031,146.53125,-11.75,93.3125,0.0,0.0,0.0
1696242252404,-0.3486328,0.15039062,-0.19140625,48.9375,-49.28125,117.5,0.0,0.0,0.0
1696242252450,-1.15625,-0.16210938,-0.4267578,45.28125,138.53125,165.53125,0.0,0.0,0.0
1696242252495,-1.3583984,-0.3330078,-0.19140625,48.5,102.375,192.875,0.0,0.0,0.0
1696242252563,-0.5576172,-0.18164062,-0.33203125,-610.1875,167.5625,114.96875,0.0,0.0,0.0
1696242252565,-0.6855469,-0.018554688,-0.15234375,-107.0625,-97.375,-186.90625,0.0,0.0,0.0
1696242252607,-1.9912109,-0.32226562,-0.19140625,184.96875,82.375,-150.03125,0.0,0.0,0.0
1696242252652,-1.1972656,0.5488281,-0.1015625,1.34375,-110.75,119.9375,-93.875,-8.5,-147.625
1696242252685,-1.3388672,0.3642578,-0.5107422,258.65625,-63.125,15.625,0.0,0.0,0.0
1696242252731,-1.015625,0.15039062,-0.47558594,277.21875,-125.34375,95.75,0.0,0.0,0.0
1696242252764,-0.84375,0.048828125,-0.40820312,189.75,-48.5,84.96875,0.0,0.0,0.0
1696242252810,-0.9580078,-0.045898438,-0.30078125,73.21875,77.0,67.625,0.0,0.0,0.0
1696242252855,-0.79003906,-0.10058594,-0.15625,-18.375,125.15625,49.5,0.0,0.0,0.0
1696242252942,-0.9658203,0.27441406,1.3300781,-409.8125,143.34375,25.75,0.0,0.0,0.0
1696242252953,-0.12792969,-1.5390625,0.6484375,-504.34375,241.3125,-23.9375,0.0,0.0,0.0
1696242252966,-0.75097656,-0.14355469,-0.125,414.0,-142.71875,-28.5625,0.0,0.0,0.0
1696242253001,-1.9912109,-0.12890625,-0.83496094,164.21875,-234.90625,-252.8125,0.0,0.0,0.0
1696242253046,-1.9912109,0.14941406,-0.46972656,-302.6875,-67.21875,-336.75,0.0,0.0,0.0
1696242253079,-1.3583984,0.4892578,-0.25683594,-182.375,263.09375,-170.1875,0.0,0.0,0.0
1696242253124,-1.5869141,0.4111328,0.69140625,-37.5,14.8125,23.375,-93.875,-17.375,-142.125
1696242253170,-0.63671875,0.24609375,-0.15039062,210.5,-4.71875,115.09375,0.0,0.0,0.0
1696242253215,-0.37109375,0.19921875,-0.09765625,55.09375,-18.9375,114.75,0.0,0.0,0.0
1696242253259,-0.7685547,0.14550781,-0.12890625,33.625,48.6875,127.0,0.0,0.0,0.0
1696242253312,-1.1025391,-0.11035156,-0.23632812,39.84375,74.3125,159.65625,0.0,0.0,0.0
1696242253334,-0.44921875,-0.20996094,0.3720703,53.6875,82.1875,156.5,0.0,0.0,0.0
1696242253360,-1.0771484,-0.28710938,-0.36914062,-227.84375,-28.90625,-34.78125,0.0,0.0,0.0
1696242253406,-1.2285156,-0.21484375,-0.12109375,-40.78125,46.78125,-72.8125,0.0,0.0,0.0
1696242253439,-1.1279297,0.25195312,-0.2685547,53.40625,-44.09375,-162.65625,0.0,0.0,0.0
1696242253484,-1.9912109,0.23535156,-0.6171875,234.125,-80.71875,-7.625,0.0,0.0,0.0
1696242253530,-0.96972656,0.3359375,-0.4482422,214.28125,-72.71875,60.46875,0.0,0.0,0.0
1696242253575,-0.87402344,0.2734375,-0.3955078,50.53125,-89.5,40.28125,0.0,0.0,0.0
1696242253619,-0.8203125,0.15625,-0.44628906,94.96875,-58.3125,81.46875,0.0,0.0,0.0
1696242253642,-0.85253906,0.1484375,-0.33007812,16.21875,6.5625,82.09375,-97.375,-13.3125,-139.25
1696242253687,-0.9033203,-0.09472656,-0.22460938,-9.96875,86.46875,103.09375,0.0,0.0,0.0
1696242253739,-0.6230469,-0.13574219,-0.12597656,-18.3125,129.0,116.6875,0.0,0.0,0.0
1696242253765,-0.92285156,0.041992188,0.9453125,-510.625,147.84375,60.59375,0.0,0.0,0.0
1696242253800,-1.1826172,-0.46777344,-0.3388672,-14.0625,221.90625,-20.21875,0.0,0.0,0.0
1696242253844,-1.2070312,-0.20605469,-0.103515625,402.8125,-176.96875,-95.28125,0.0,0.0,0.0
1696242253890,-1.9912109,-0.12890625,-0.70703125,181.625,-120.03125,-275.15625,0.0,0.0,0.0
1696242253935,-1.7753906,0.19238281,-0.47558594,-192.59375,-76.75,-264.71875,0.0,0.0,0.0
1696242253979,-1.3935547,0.63964844,-0.45507812,-331.5,28.28125,-225.59375,0.0,0.0,0.0
1696242254003,-0.8935547,0.30371094,1.9707031,-57.8125,340.25,-73.625,0.0,0.0,0.0
1696242254047,-0.43945312,0.6533203,-0.024414062,303.21875,-68.03125,107.90625,0.0,0.0,0.0
1696242254081,-0.20410156,0.2939453,-0.10644531,15.90625,22.125,104.0625,0.0,0.0,0.0
1696242254126,-0.6660156,0.11230469,-0.0068359375,-109.9375,111.96875,160.75,-95.5625,-23.6875,-141.625
1696242254159,-1.0908203,-0.15234375,-0.375,-39.25,34.9375,190.71875,0.0,0.0,0.0
1696242254204,-1.5908203,-0.29785156,0.11425781,39.34375,9.75,144.09375,0.0,0.0,0.0
1696242254250,-1.1376953,-0.4736328,-0.09082031,-274.90625,-41.46875,1.8125,0.0,0.0,0.0
1696242254295,-0.7373047,0.099609375,-0.171875,-21.8125,41.46875,-91.8125,0.0,0.0,0.0
1696242254339,-1.9912109,0.07910156,-0.4716797,213.0,-89.25,-107.1875,0.0,0.0,0.0
1696242254363,-1.21875,0.2939453,-0.43652344,357.21875,-59.71875,95.6875,0.0,0.0,0.0
1696242254407,-0.9423828,0.25683594,-0.45117188,238.4375,-114.09375,88.96875,0.0,0.0,0.0
1696242254452,-0.95703125,0.2685547,-0.61816406,170.75,-43.4375,106.375,0.0,0.0,0.0
1696242254485,-0.8144531,0.099609375,-0.3076172,10.59375,55.6875,67.5625,0.0,0.0,0.0
1696242254519,-0.9628906,-0.13964844,-0.21484375,-90.15625,158.71875,98.4375,0.0,0.0,0.0
1696242254564,-0.48632812,-0.17285156,-0.06542969,-43.90625,178.8125,75.96875,0.0,0.0,0.0
1696242254609,-0.52246094,-0.33789062,-0.1640625,-1024.0,-88.90625,-85.625,0.0,0.0,0.0
1696242254655,-0.71484375,-0.2578125,-0.25976562,367.84375,-186.3125,-58.90625,-93.75,9.625,-141.1875
1696242254699,-1.8847656,-0.2265625,-0.40527344,389.625,-141.375,-185.84375,0.0,0.0,0.0
1696242254723,-1.9912109,0.11816406,-0.50390625,-191.71875,-134.625,-271.84375,0.0,0.0,0.0
1696242254767,-1.7509766,0.50390625,-0.56347656,-363.53125,-34.28125,-291.9375,0.0,0.0,0.0
1696242254801,-1.0087891,0.65722656,0.8027344,-219.125,353.96875,-103.65625,0.0,0.0,0.0
1696242254845,-0.84472656,0.2734375,0.125,187.25,-96.40625,96.84375,0.0,0.0,0.0
1696242254890,-0.23144531,0.3251953,-0.08496094,171.9375,3.15625,153.3125,0.0,0.0,0.0
1696242254924,-0.06640625,0.18652344,-0.08105469,100.4375,53.625,182.0625,0.0,0.0,0.0
1696242254974,-0.82421875,-0.08203125,-0.30371094,49.53125,55.4375,174.0625,0.0,0.0,0.0
1696242255014,-1.9912109,-0.3154297,-0.14648438,194.25,9.5,103.875,0.0,0.0,0.0
1696242255059,-0.5439453,-0.24316406,-0.29003906,-459.0625,-59.46875,-68.0,0.0,0.0,0.0
1696242255083,-0.42382812,0.18945312,-0.017578125,-206.8125,0.75,-87.53125,0.0,0.0,0.0
1696242255127,-1.9912109,0.12207031,-0.5839844,141.71875,70.21875,-222.0625,-96.125,-1.4375,-143.3125
1696242255161,-1.1972656,0.30859375,-0.41210938,408.8125,3.75,140.5,0.0,0.0,0.0
1696242255205,-1.0654297,0.32128906,-0.4013672,339.03125,-108.625,137.4375,0.0,0.0,0.0
1696242255250,-0.8935547,0.18652344,-0.48046875,149.46875,-55.375,107.21875,0.0,0.0,0.0
1696242255284,-0.921875,0.03125,-0.4189453,84.34375,5.03125,117.84375,0.0,0.0,0.0
1696242255329,-0.7753906,-0.16601562,-0.2685547,55.15625,111.96875,123.71875,0.0,0.0,0.0
1696242255374,-0.50878906,-0.23925781,-0.01953125,60.46875,225.9375,82.875,0.0,0.0,0.0
1696242255419,-0.44921875,-0.3720703,-0.4794922,-959.65625,26.59375,-163.03125,0.0,0.0,0.0
1696242255442,-0.75097656,-0.44433594,-0.15917969,50.875,288.84375,97.84375,0.0,0.0,0.0
1696242255486,-1.2392578,-0.15722656,-0.21289062,514.375,-162.9375,-155.46875,0.0,0.0,0.0
1696242255521,-1.9912109,-0.11328125,-0.61035156,81.71875,-210.28125,-294.6875,0.0,0.0,0.0
1696242255577,-1.9355469,0.3310547,-0.6113281,-237.75,-6.75,-304.6875,0.0,0.0,0.0
1696242255619,-1.4267578,0.56933594,-0.38964844,-192.53125,81.03125,-238.71875,0.0,0.0,0.0
1696242255644,-0.9121094,1.2792969,0.8808594,58.21875,59.59375,-15.625,-95.125,-20.375,-141.9375
1696242255689,-0.5029297,0.33789062,-0.10644531,126.03125,4.96875,123.03125,0.0,0.0,0.0
1696242255734,-0.6064453,0.17382812,-0.08886719,43.625,31.53125,213.96875,0.0,0.0,0.0
1696242255779,-1.3408203,-0.17675781,-0.3828125,13.65625,36.03125,264.09375,0.0,0.0,0.0
1696242255802,-0.6035156,-0.20996094,0.70703125,146.84375,61.5,216.96875,0.0,0.0,0.0
1696242255846,-0.9296875,-0.4267578,-0.13378906,-306.40625,40.75,-12.6875,0.0,0.0,0.0
1696242255880,-0.50878906,0.0107421875,-0.17578125,82.875,-90.46875,-79.96875,0.0,0.0,0.0
1696242255960,-1.7578125,0.09667969,-0.4423828,244.625,-90.4375,-160.28125,0.0,0.0,0.0
1696242255994,-1.796875,0.359375,-0.66308594,216.96875,-15.53125,3.21875,0.0,0.0,0.0
1696242256018,-0.9667969,0.3701172,-0.39746094,54.4375,-31.15625,5.5,0.0,0.0,0.0
1696242256049,-1.1152344,0.3544922,-0.5058594,-39.625,-99.625,-5.5,0.0,0.0,0.0
1696242256095,-0.7529297,0.2705078,-0.38085938,8.84375,-97.0,70.6875,0.0,0.0,0.0
1696242256139,-0.8623047,0.0703125,-0.27539062,50.40625,44.59375,102.71875,-100.9375,-11.8125,-138.8125
1696242256162,-0.6826172,-0.11816406,-0.14746094,37.78125,90.125,137.9375,0.0,0.0,0.0
1696242256207,-0.7861328,0.21777344,1.1689453,-10.5,202.375,109.96875,0.0,0.0,0.0
1696242256241,-1.0302734,-1.1835938,0.34277344,-322.09375,302.78125,73.0625,0.0,0.0,0.0
1696242256296,-0.9199219,-0.25195312,-0.17382812,360.59375,-153.65625,-85.21875,0.0,0.0,0.0
1696242256330,-1.9912109,-0.16894531,-0.62402344,343.75,-127.53125,-248.25,0.0,0.0,0.0
1696242256377,-1.9912109,0.2626953,-0.52441406,-372.21875,-131.875,-266.78125,0.0,0.0,0.0
1696242256409,-1.2958984,0.3955078,-0.34765625,-308.59375,106.34375,-212.21875,0.0,0.0,0.0
1696242256454,-0.58691406,0.64453125,1.9707031,-38.84375,329.9375,-48.03125,0.0,0.0,0.0
1696242256499,-0.55859375,0.4326172,-0.072265625,161.0625,-43.125,79.65625,0.0,0.0,0.0
1696242256522,-0.21191406,0.3125,-0.068359375,100.5,26.9375,116.9375,0.0,0.0,0.0
1696242256567,-0.40625,0.1171875,-0.03125,31.3125,30.84375,143.625,0.0,0.0,0.0
1696242256600,-1.0527344,-0.24902344,-0.328125,-7.71875,0.28125,162.15625,0.0,0.0,0.0
1696242256646,-1.7431641,-0.41503906,0.01171875,44.25,20.59375,52.84375,-98.25,-12.4375,-145.5625
1696242256707,-0.6738281,-0.17578125,-0.15234375,-158.78125,23.96875,-8.375,0.0,0.0,0.0
1696242256724,-0.80859375,0.08105469,-0.1171875,-22.09375,-15.71875,-156.25,0.0,0.0,0.0
1696242256778,-1.9912109,0.26660156,-0.5859375,169.1875,-23.34375,-76.71875,0.0,0.0,0.0
1696242256815,-1.0449219,0.42089844,-0.42382812,269.75,-36.78125,60.78125,0.0,0.0,0.0
1696242256860,-1.0029297,0.111328125,-0.5283203,187.3125,-131.1875,118.15625,0.0,0.0,0.0
1696242256882,-1.0302734,0.060546875,-0.5332031,219.40625,-20.0625,149.90625,0.0,0.0,0.0
1696242256926,-1.0615234,-0.0390625,-0.33007812,167.46875,120.75,88.5,0.0,0.0,0.0
1696242256960,-0.67089844,-0.11328125,-0.11621094,24.34375,186.375,66.34375,0.0,0.0,0.0
1696242257005,-0.48339844,-0.2685547,-0.46484375,-1024.0,54.40625,-63.0625,0.0,0.0,0.0
1696242257050,-0.41210938,-1.0244141,0.2265625,-208.625,295.5,20.75,0.0,0.0,0.0
1696242257084,-0.93066406,-0.1328125,-0.2607422,467.34375,-157.5625,-52.8125,0.0,0.0,0.0
1696242257129,-1.9912109,-0.29101562,-0.8925781,210.1875,-119.40625,-307.625,-97.625,-2.1875,-145.125
1696242257174,-1.6308594,0.1796875,-0.35253906,-351.875,5.46875,-335.21875,0.0,0.0,0.0
1696242257219,-1.4677734,0.24902344,-0.2705078,-263.5,231.53125,-163.21875,0.0,0.0,0.0
1696242257242,-1.0488281,0.6699219,0.15234375,128.65625,-73.40625,10.25,0.0,0.0,0.0
1696242257286,-0.50097656,0.31835938,-0.18457031,165.5,-51.59375,91.78125,0.0,0.0,0.0
1696242257320,-0.5136719,0.16992188,-0.1875,73.78125,-45.875,153.8125,0.0,0.0,0.0
1696242257365,-0.89746094,0.0068359375,-0.17871094,109.59375,-9.625,187.3125,0.0,0.0,0.0
1696242257410,-0.8046875,-0.26171875,-0.234375,83.78125,62.84375,145.0,0.0,0.0,0.0
1696242257444,-1.2158203,-0.25097656,0.18164062,-145.9375,180.6875,8.78125,0.0,0.0,0.0
1696242257489,-0.4482422,-0.078125,-0.103515625,-265.34375,-83.78125,-58.0625,0.0,0.0,0.0
1696242257535,-1.4775391,0.06933594,-0.26757812,-7.65625,33.59375,-200.25,0.0,0.0,0.0
1696242257579,-1.8720703,0.14355469,-0.4482422,201.28125,-75.53125,2.25,0.0,0.0,0.0
1696242257624,-1.0908203,0.20703125,-0.4140625,349.21875,-56.25,91.53125,-96.4375,-9.5625,-148.375
1696242257646,-1.0244141,0.3046875,-0.41601562,293.75,-101.90625,105.03125,0.0,0.0,0.0
1696242257680,-0.8652344,0.13671875,-0.41015625,84.59375,-104.9375,86.1875,0.0,0.0,0.0
1696242257725,-0.79296875,0.016601562,-0.35839844,20.6875,-28.53125,75.4375,0.0,0.0,0.0
1696242257770,-0.83203125,-0.08886719,-0.140625,-0.3125,141.625,93.6875,0.0,0.0,0.0
1696242257804,-0.5576172,-0.20117188,-0.07910156,-39.5625,139.9375,29.84375,0.0,0.0,0.0
1696242257864,-0.42578125,-0.09765625,-0.26367188,-1024.0,-60.6875,-101.6875,0.0,0.0,0.0
1696242257894,-0.8027344,-0.25878906,-0.6513672,-29.5625,240.8125,-70.75,0.0,0.0,0.0
1696242257939,-1.7626953,-0.22949219,-0.2265625,472.46875,-327.375,-130.8125,0.0,0.0,0.0
1696242257962,-1.9912109,-0.034179688,-0.8408203,240.71875,201.21875,-193.25,0.0,0.0,0.0
1696242258007,-1.2099609,0.37695312,-0.2919922,-183.3125,11.09375,-212.84375,0.0,0.0,0.0
1696242258052,-1.5712891,0.7597656,0.1953125,-555.4375,223.59375,-103.53125,0.0,0.0,0.0
1696242258085,-0.94628906,0.23632812,0.07324219,255.0625,-67.21875,52.0,0.0,0.0,0.0
1696242258130,-0.29003906,0.29785156,-0.21875,190.28125,-74.125,47.84375,-96.0,-15.5625,-146.875
1696242258164,-0.25585938,0.3017578,-0.15429688,-25.21875,-64.0,77.875,0.0,0.0,0.0
1696242258209,-0.9345703,0.01953125,-0.24414062,63.84375,158.0,155.5,0.0,0.0,0.0
1696242258254,-1.109375,-0.2939453,-0.296875,69.875,94.09375,175.78125,0.0,0.0,0.0
1696242258299,-0.5917969,-0.2685547,-0.061523438,-69.28125,73.21875,104.84375,0.0,0.0,0.0
1696242258322,-1.4404297,-0.36523438,-0.25390625,-91.5625,-23.46875,-98.15625,0.0,0.0,0.0
1696242258367,-1.0283203,0.17382812,-0.13964844,-131.78125,76.25,-117.375,0.0,0.0,0.0
1696242258412,-1.7695312,0.3310547,-0.4111328,22.5,-46.71875,-126.78125,0.0,0.0,0.0
1696242258445,-1.3857422,0.22460938,-0.42578125,231.75,-86.03125,36.90625,0.0,0.0,0.0
1696242258524,-1.0244141,0.2890625,-0.51464844,244.0,-198.09375,117.125,0.0,0.0,0.0
1696242258526,-0.83496094,0.087890625,-0.45507812,262.6875,-16.15625,168.9375,0.0,0.0,0.0
1696242258569,-0.953125,0.033203125,-0.31054688,210.9375,-1.25,112.25,0.0,0.0,0.0
1696242258615,-0.81152344,-0.107421875,-0.19238281,20.3125,122.53125,86.1875,-102.4375,-13.1875,-138.625
1696242258660,-0.36132812,-0.15039062,-0.0078125,-48.28125,176.5,37.28125,0.0,0.0,0.0
1696242258682,-0.3125,-0.22558594,-0.22265625,-1008.375,-169.65625,-43.28125,0.0,0.0,0.0
1696242258726,-0.87890625,-0.22460938,-0.44628906,189.9375,232.5,37.40625,0.0,0.0,0.0
1696242258772,-1.9072266,-0.359375,-0.32617188,578.46875,-194.96875,-201.59375,0.0,0.0,0.0
1696242258806,-1.9912109,0.1953125,-0.6669922,-122.5625,-130.53125,-164.4375,0.0,0.0,0.0
1696242258851,-1.3574219,0.32128906,-0.40625,-268.3125,15.09375,-300.78125,0.0,0.0,0.0
1696242258884,-1.703125,1.5634766,1.7910156,-182.5625,209.375,-186.96875,0.0,0.0,0.0
1696242258929,-0.7705078,0.39160156,-0.07128906,207.8125,-60.03125,50.84375,0.0,0.0,0.0
1696242258989,-0.4404297,0.5107422,-0.16015625,64.4375,23.59375,91.5,0.0,0.0,0.0
1696242259019,-0.23925781,0.33691406,-0.07714844,-81.75,105.6875,115.21875,0.0,0.0,0.0
1696242259051,-0.640625,-0.19335938,-0.43164062,-154.3125,44.03125,149.78125,0.0,0.0,0.0
1696242259087,-1.2255859,-0.53808594,-0.0009765625,370.46875,-30.4375,228.5625,0.0,0.0,0.0
1696242259132,-0.35351562,-0.2841797,-0.21777344,-417.75,174.21875,194.5,-97.8125,-10.1875,-148.375
1696242259166,-1.6767578,-0.28125,-0.3515625,317.84375,-212.6875,-297.4375,0.0,0.0,0.0
1696242259211,-1.6445312,0.33398438,-0.5605469,-540.78125,150.125,-169.75,0.0,0.0,0.0
1696242259244,-1.3837891,0.50683594,-0.2763672,48.25,36.84375,-206.5625,0.0,0.0,0.0
1696242259290,-1.3798828,0.83203125,-0.4296875,202.25,-207.4375,16.15625,0.0,0.0,0.0
1696242259334,-1.0273438,0.27246094,-0.6484375,198.15625,-252.40625,107.65625,0.0,0.0,0.0
1696242259384,-0.7451172,0.18261719,-0.5,356.125,75.59375,182.625,0.0,0.0,0.0
1696242259402,-0.94628906,0.040039062,-0.3876953,184.25,90.3125,167.28125,0.0,0.0,0.0
1696242259447,-1.2265625,-0.203125,-0.35351562,1.15625,134.1875,145.5625,0.0,0.0,0.0
1696242259492,-0.92871094,0.15722656,1.1484375,-52.4375,206.03125,98.75,0.0,0.0,0.0
1696242259526,-0.060546875,-1.9892578,1.3330078,-932.15625,22.90625,-76.25,0.0,0.0,0.0
1696242259571,-0.62402344,-0.53027344,-0.09082031,162.59375,-105.25,96.96875,0.0,0.0,0.0
1696242259604,-1.2460938,-0.22265625,-0.49121094,445.0,-226.40625,-295.84375,-91.8125,14.4375,-145.25
1696242259649,-1.9912109,0.0146484375,-0.8828125,-136.90625,-146.75,-328.125,0.0,0.0,0.0
1696242259695,-1.9912109,0.18945312,-0.3935547,-325.5625,57.09375,-375.75,0.0,0.0,0.0
1696242259739,-1.6630859,0.44921875,-0.15722656,-156.15625,375.34375,-170.1875,0.0,0.0,0.0
1696242259813,-0.8671875,0.4765625,0.0,167.90625,-110.5,65.25,0.0,0.0,0.0
1696242259814,-0.3173828,0.3779297,-0.23925781,155.375,-19.3125,97.09375,0.0,0.0,0.0
1696242259851,0.0078125,0.2841797,-0.11816406,33.0,-8.4375,93.9375,0.0,0.0,0.0
1696242259886,-0.44726562,0.03515625,-0.22949219,-24.84375,100.375,158.6875,0.0,0.0,0.0
1696242259930,-1.4580078,-0.19140625,-0.5292969,68.65625,49.40625,233.46875,0.0,0.0,0.0
1696242259964,-0.24707031,-0.119140625,0.29101562,-316.34375,183.875,247.5625,0.0,0.0,0.0
1696242260010,-1.9707031,-0.23535156,-0.6796875,59.6875,-58.4375,-265.5,0.0,0.0,0.0
1696242260054,-0.85058594,0.28320312,-0.14257812,-334.25,155.4375,59.5625,0.0,0.0,0.0
1696242260099,-1.2890625,0.3310547,-0.2861328,-200.875,51.84375,-245.5625,0.0,0.0,0.0
1696242260165,-1.9912109,0.3486328,-0.5341797,185.78125,-123.125,-10.8125,-94.5,-5.0625,-153.375
1696242260196,-0.86035156,0.40039062,-0.3466797,208.0625,-154.4375,59.8125,0.0,0.0,0.0
1696242260215,-0.890625,0.15917969,-0.53808594,169.78125,-53.25,131.59375,0.0,0.0,0.0
1696242260246,-1.0146484,0.12597656,-0.515625,290.34375,16.4375,193.28125,0.0,0.0,0.0
1696242260290,-1.2568359,0.0078125,-0.37597656,202.0,54.78125,143.4375,0.0,0.0,0.0
1696242260324,-0.85546875,-0.23730469,-0.2265625,0.53125,192.78125,143.375,0.0,0.0,0.0
1696242260369,-0.72753906,-0.25976562,-0.39453125,-1024.0,-34.5,-26.3125,0.0,0.0,0.0
1696242260414,-0.09082031,-0.56347656,0.026367188,93.25,99.875,31.4375,0.0,0.0,0.0
1696242260459,-0.6455078,-0.11035156,-0.11425781,318.59375,-189.25,76.03125,0.0,0.0,0.0
1696242260482,-1.5693359,-0.16308594,-0.73339844,455.125,-154.3125,-263.8125,0.0,0.0,0.0
1696242260528,-1.9912109,-0.024414062,-0.5625,-312.40625,-168.65625,-319.03125,0.0,0.0,0.0
1696242260572,-1.6152344,0.2734375,-0.4423828,-387.28125,128.09375,-323.90625,0.0,0.0,0.0
1696242260606,-1.7597656,0.4736328,-0.23535156,-213.40625,275.59375,-203.9375,-101.125,-17.375,-140.4375
1696242260650,-0.67089844,0.92578125,0.49023438,424.90625,-157.625,131.28125,0.0,0.0,0.0
1696242260684,-0.2109375,0.2763672,-0.20117188,108.75,-19.25,128.90625,0.0,0.0,0.0
1696242260729,-0.6894531,0.068359375,-0.13476562,101.5625,45.125,203.78125,0.0,0.0,0.0
1696242260774,-1.0830078,-0.12890625,-0.33203125,87.375,106.65625,221.6875,0.0,0.0,0.0
1696242260819,-0.65722656,-0.19433594,-0.06640625,79.875,96.28125,169.71875,0.0,0.0,0.0
1696242260842,-0.95703125,-0.115234375,-0.46972656,-418.40625,268.84375,81.65625,0.0,0.0,0.0
1696242260899,-1.9912109,-0.43652344,-0.26953125,81.59375,-329.75,-241.8125,0.0,0.0,0.0
1696242260931,-0.6279297,0.20898438,-0.111328125,-146.4375,124.53125,-78.4375,0.0,0.0,0.0
1696242260966,-1.9912109,0.22460938,-0.7607422,-17.46875,57.03125,-225.28125,0.0,0.0,0.0
1696242261010,-0.83691406,0.40429688,-0.3642578,73.40625,-78.75,26.0625,0.0,0.0,0.0
1696242261044,-0.66015625,0.359375,-0.40820312,250.0,-108.3125,92.84375,0.0,0.0,0.0
1696242261089,-0.734375,0.28808594,-0.40625,177.28125,-22.3125,106.1875,0.0,0.0,0.0
1696242261134,-1.1464844,0.049804688,-0.4453125,6.6875,2.90625,109.5,-99.125,-14.375,-140.875
1696242261179,-0.8808594,-0.12207031,-0.24511719,46.1875,91.59375,158.75,0.0,0.0,0.0
1696242261202,-0.44726562,-0.13085938,-0.09277344,34.59375,160.5625,149.15625,0.0,0.0,0.0
1696242261247,-0.5830078,-0.25390625,-0.26660156,-1024.0,-111.53125,-23.1875,0.0,0.0,0.0
1696242261292,-0.85253906,-0.30664062,-0.46777344,111.75,198.28125,62.75,0.0,0.0,0.0
1696242261327,-1.0507812,-0.1640625,-0.20507812,415.8125,-200.34375,-131.96875,0.0,0.0,0.0
1696242261370,-1.9912109,-0.2685547,-0.7421875,259.375,-147.3125,-390.5625,0.0,0.0,0.0
1696242261405,-1.9824219,0.2783203,-0.5751953,-412.5625,7.84375,-323.84375,0.0,0.0,0.0
1696242261449,-1.4101562,0.5107422,-0.26171875,-417.96875,222.03125,-251.53125,0.0,0.0,0.0
1696242261494,-0.8173828,0.7402344,0.26171875,375.78125,-129.5,101.625,0.0,0.0,0.0
1696242261539,-0.3046875,0.33789062,-0.19238281,141.28125,3.3125,112.96875,0.0,0.0,0.0
1696242261584,-0.25,0.23242188,-0.13964844,72.75,9.0,129.21875,0.0,0.0,0.0
1696242261606,-0.6660156,-0.0087890625,-0.21484375,28.625,64.1875,191.65625,-99.75,-19.0,-143.0
1696242261679,-0.9785156,-0.18652344,-0.28125,47.65625,66.5,193.96875,0.0,0.0,0.0
1696242261708,-1.5361328,-0.35058594,-0.0009765625,11.71875,70.65625,82.09375,0.0,0.0,0.0
1696242261730,-0.8203125,-0.11230469,-0.24511719,-451.0,-31.875,-155.78125,0.0,0.0,0.0
1696242261764,-0.8876953,0.2265625,-0.109375,-177.6875,117.90625,-214.96875,0.0,0.0,0.0
1696242261809,-1.9912109,0.19238281,-0.64160156,173.4375,-76.875,-54.5625,0.0,0.0,0.0
1696242261854,-0.8935547,0.37890625,-0.41992188,400.125,-81.5,133.0,0.0,0.0,0.0
1696242261899,-0.9921875,0.26464844,-0.3623047,363.5,-82.25,137.3125,0.0,0.0,0.0
1696242261944,-0.8720703,0.06640625,-0.4111328,170.03125,-45.9375,146.90625,0.0,0.0,0.0
1696242261966,-0.94433594,-0.09277344,-0.3857422,63.84375,17.90625,115.28125,0.0,0.0,0.0
1696242262012,-0.8652344,-0.13769531,-0.21777344,42.40625,127.15625,100.40625,0.0,0.0,0.0
1696242262045,-0.4169922,-0.087890625,-0.064453125,-21.0625,188.09375,88.875,0.0,0.0,0.0
1696242262098,-0.375,-0.11621094,-0.15625,-1024.0,-117.875,-37.84375,0.0,0.0,0.0
1696242262135,-0.8652344,-0.44628906,-0.2626953,-165.40625,365.3125,60.84375,-95.25,9.8125,-142.375
1696242262169,-1.1376953,-0.16015625,-0.26171875,451.15625,-319.65625,-173.53125,0.0,0.0,0.0
1696242262215,-1.9912109,-0.17382812,-0.8378906,402.21875,22.125,-394.96875,0.0,0.0,0.0
1696242262259,-1.6816406,0.35839844,-0.5439453,-192.65625,-43.1875,-291.15625,0.0,0.0,0.0
1696242262304,-1.3886719,0.46777344,-0.2861328,-370.0625,156.78125,-273.875,0.0,0.0,0.0
1696242262326,-0.890625,0.91015625,0.46972656,171.3125,-75.40625,45.84375,0.0,0.0,0.0
1696242262371,-0.3046875,0.31054688,-0.12890625,195.25,7.71875,109.96875,0.0,0.0,0.0
1696242262439,-0.25097656,0.1875,-0.11035156,54.125,18.71875,124.6875,0.0,0.0,0.0
1696242262452,-0.9013672,0.00390625,-0.23828125,-33.46875,43.90625,189.25,0.0,0.0,0.0
1696242262484,-0.9169922,-0.19921875,-0.26464844,-29.96875,4.90625,169.71875,0.0,0.0,0.0
1696242262540,-1.0126953,-0.2939453,-0.18652344,5.0625,54.40625,132.5625,0.0,0.0,0.0
1696242262574,-1.0830078,-0.13378906,-0.12792969,-34.0625,109.78125,-52.125,0.0,0.0,0.0
1696242262631,-1.3320312,0.10058594,-0.26464844,-14.0625,-20.0625,-164.125,-95.25,-7.0,-149.75
1696242262664,-1.9912109,0.19726562,-0.6064453,97.28125,-72.71875,-80.875,0.0,0.0,0.0
1696242262686,-1.1757812,0.41503906,-0.4794922,241.1875,-97.0,78.59375,0.0,0.0,0.0
1696242262732,-0.97265625,0.18945312,-0.43554688,206.21875,-80.59375,108.5,0.0,0.0,0.0
1696242262777,-0.91503906,0.07519531,-0.44726562,165.21875,-36.15625,126.8125,0.0,0.0,0.0
1696242262810,-0.953125,-0.119140625,-0.22460938,33.375,62.59375,104.71875,0.0,0.0,0.0
1696242262854,-0.6855469,-0.16699219,-0.18066406,-25.65625,125.71875,71.28125,0.0,0.0,0.0
1696242262889,-0.79589844,0.5878906,1.859375,-176.46875,185.75,62.125,0.0,0.0,0.0
1696242262934,-0.0009765625,-1.8662109,1.2460938,-808.375,183.125,-95.90625,0.0,0.0,0.0
1696242262979,-0.5205078,-0.17578125,-0.2607422,460.625,-251.625,3.65625,0.0,0.0,0.0
1696242263025,-1.9912109,-0.20507812,-0.32128906,416.375,-183.4375,-233.84375,0.0,0.0,0.0
1696242263046,-1.9912109,0.13378906,-0.6699219,-156.75,-106.84375,-237.875,0.0,0.0,0.0
1696242263092,-1.2148438,0.40625,-0.35351562,-502.625,93.40625,-326.59375,0.0,0.0,0.0
1696242263126,-1.9912109,1.2285156,1.5351562,-106.34375,198.46875,-3.125,-100.9375,-21.125,-140.625
1696242263181,-0.6699219,0.1484375,-0.22949219,248.28125,-66.0625,109.25,0.0,0.0,0.0
1696242263204,-0.40039062,0.16308594,-0.13769531,109.53125,-22.375,110.90625,0.0,0.0,0.0
1696242263249,-0.45898438,0.08886719,-0.15625,77.3125,49.28125,116.5625,0.0,0.0,0.0
1696242263294,-1.0126953,-0.057617188,-0.19824219,54.5,88.71875,168.75,0.0,0.0,0.0
1696242263339,-0.74316406,-0.203125,-0.103515625,-37.71875,82.375,164.53125,0.0,0.0,0.0
1696242263385,-0.20019531,-0.024414062,0.048828125,-129.28125,106.65625,144.78125,0.0,0.0,0.0
1696242263406,-1.375,-0.21386719,-0.36328125,-37.3125,48.96875,-209.25,0.0,0.0,0.0
1696242263474,-1.1484375,-0.052734375,-0.15527344,-95.09375,-74.125,-23.75,0.0,0.0,0.0
1696242263486,-1.9912109,-0.03125,-0.58203125,117.90625,-58.9375,-60.6875,0.0,0.0,0.0
1696242263530,-1.2666016,0.20703125,-0.4189453,276.78125,-62.28125,61.28125,0.0,0.0,0.0
1696242263564,-0.9902344,0.27246094,-0.39941406,313.53125,-82.125,71.40625,0.0,0.0,0.0
1696242263609,-0.9970703,0.25390625,-0.43359375,206.28125,-76.5625,78.71875,-99.625,-15.25,-141.0625
1696242263657,-0.7363281,0.021484375,-0.2265625,-46.875,-44.65625,39.4375,0.0,0.0,0.0
1696242263699,-0.5761719,-0.068359375,-0.13378906,-140.5625,98.96875,47.0,0.0,0.0,0.0
1696242263745,-0.24609375,-0.0859375,-0.06347656,-122.09375,98.125,57.375,0.0,0.0,0.0
1696242263767,-0.35546875,-0.13769531,-0.02734375,-154.0625,141.75,73.3125,0.0,0.0,0.0
1696242263812,-0.7910156,-0.2529297,-0.08984375,-621.65625,-45.0625,-214.53125,0.0,0.0,0.0
1696242263847,-1.9912109,-0.3359375,-0.50390625,-5.25,0.75,-270.40625,0.0,0.0,0.0
1696242263891,-1.9912109,0.09667969,-0.328125,248.21875,73.03125,-198.6875,0.0,0.0,0.0
1696242263931,-1.4970703,0.6035156,-0.3466797,-253.5,-20.46875,-225.40625,0.0,0.0,0.0
1696242263969,-1.0380859,0.8623047,0.5751953,-155.78125,163.25,-77.9375,0.0,0.0,0.0
1696242264014,-0.64160156,0.31347656,-0.06542969,111.4375,-31.40625,82.09375,0.0,0.0,0.0
1696242264059,-0.36132812,0.15820312,-0.09375,98.0,-7.09375,131.34375,0.0,0.0,0.0
1696242264127,-0.5439453,-0.046875,-0.20605469,76.65625,-47.21875,191.71875,0.0,0.0,0.0
1696242264129,-0.8857422,-0.24902344,-0.19335938,88.0625,-51.53125,167.84375,-96.875,-11.0625,-145.6875
1696242264172,-0.88671875,-0.29589844,-0.060546875,23.71875,93.125,111.5,0.0,0.0,0.0
1696242264206,-1.0859375,-0.23925781,-0.16601562,-238.1875,155.625,-72.8125,0.0,0.0,0.0
1696242264250,-0.8046875,0.16113281,-0.11425781,-199.0,21.75,-199.71875,0.0,0.0,0.0
1696242264284,-1.9912109,0.29492188,-0.5722656,91.40625,-3.4375,-135.875,0.0,0.0,0.0
1696242264330,-1.2587891,0.32617188,-0.5,315.0,-112.03125,119.5625,0.0,0.0,0.0
1696242264382,-1.0976562,0.14746094,-0.40527344,311.4375,-108.125,187.5,0.0,0.0,0.0
1696242264419,-1.0136719,-0.02734375,-0.40625,222.21875,13.09375,146.21875,0.0,0.0,0.0
1696242264464,-1.0458984,-0.1796875,-0.390625,138.59375,39.53125,117.1875,0.0,0.0,0.0
1696242264487,-0.8261719,-0.23046875,-0.20214844,84.34375,141.375,83.25,0.0,0.0,0.0
1696242264532,-0.8359375,1.1005859,1.5966797,-405.21875,79.125,31.25,0.0,0.0,0.0
1696242264565,0.4736328,-1.9892578,1.8964844,-1024.0,7.40625,-233.84375,0.0,0.0,0.0
1696242264610,-0.2763672,-0.20019531,-0.19628906,329.6875,-128.9375,3.46875,-97.0625,8.75,-140.0
1696242264644,-1.5507812,-0.265625,-0.32421875,379.125,-249.1875,-95.53125,0.0,0.0,0.0
1696242264689,-1.9912109,-0.203125,-0.7109375,132.1875,-86.75,-303.0,0.0,0.0,0.0
1696242264734,-1.8632812,0.52441406,-0.5517578,-465.09375,10.65625,-319.15625,0.0,0.0,0.0
1696242264791,-1.4541016,1.6865234,1.9707031,-407.71875,465.59375,-150.46875,0.0,0.0,0.0
1696242264824,-1.0693359,0.11816406,-0.07910156,188.78125,-82.84375,118.84375,0.0,0.0,0.0
1696242264847,-0.3310547,0.038085938,-0.11328125,149.71875,2.96875,154.59375,0.0,0.0,0.0
1696242264893,-0.2998047,0.068359375,-0.16015625,49.1875,-22.5,130.59375,0.0,0.0,0.0
1696242264925,-1.0585938,-0.057617188,-0.24414062,81.21875,-5.9375,135.75,0.0,0.0,0.0
1696242264970,-0.3564453,-0.13476562,-0.057617188,71.34375,42.9375,126.875,0.0,0.0,0.0
1696242265004,-0.43847656,-0.11621094,-0.034179688,-7.09375,124.96875,119.375,0.0,0.0,0.0
1696242265049,-1.8447266,-0.30078125,-0.26464844,-35.28125,55.09375,-106.4375,0.0,0.0,0.0
1696242265109,-1.2626953,0.14550781,-0.22851562,-190.03125,-4.5,-152.90625,0.0,0.0,0.0
1696242265139,-1.8916016,0.2763672,-0.4501953,24.09375,-95.96875,-100.34375,-94.5,-7.9375,-148.5625
1696242265184,-1.2177734,0.3232422,-0.39746094,191.8125,-93.90625,49.1875,0.0,0.0,0.0
1696242265229,-1.1240234,0.26464844,-0.4345703,208.25,-105.375,102.53125,0.0,0.0,0.0
1696242265253,-0.95214844,0.064453125,-0.36816406,205.78125,-19.0625,139.75,0.0,0.0,0.0
1696242265286,-1.3046875,-0.068359375,-0.36621094,187.0,19.6875,124.25,0.0,0.0,0.0
1696242265330,-0.8378906,-0.14160156,-0.12597656,20.3125,160.4375,88.6875,0.0,0.0,0.0
1696242265364,-0.45996094,-0.119140625,-0.12890625,-972.84375,75.40625,3.21875,0.0,0.0,0.0
1696242265409,-0.10644531,-1.0097656,-0.07910156,-291.09375,167.9375,14.75,0.0,0.0,0.0
1696242265454,-0.4560547,-0.11816406,-0.18066406,369.6875,-178.125,94.28125,0.0,0.0,0.0
1696242265499,-1.1533203,-0.07714844,-0.4482422,209.875,-61.3125,-296.34375,0.0,0.0,0.0
1696242265544,-1.9912109,0.0068359375,-0.5126953,-309.65625,-140.15625,-403.09375,0.0,0.0,0.0
1696242265566,-1.9912109,0.37695312,-0.265625,-312.625,342.0,-190.8125,0.0,0.0,0.0
1696242265613,-1.2519531,0.30273438,0.25390625,13.0625,-110.0,23.84375,-92.6875,-15.125,-145.6875
1696242265647,-0.7939453,0.103515625,-0.27148438,128.65625,-67.96875,77.03125,0.0,0.0,0.0
1696242265690,-0.66015625,0.06542969,-0.17285156,-3.3125,3.3125,99.96875,0.0,0.0,0.0
1696242265724,-0.7080078,-0.0390625,-0.16601562,48.4375,-8.03125,156.84375,0.0,0.0,0.0
1696242265769,-0.72265625,-0.16503906,-0.13574219,106.625,-20.125,166.9375,0.0,0.0,0.0
1696242265814,-0.48242188,-0.26171875,-0.095703125,36.3125,69.71875,125.40625,0.0,0.0,0.0
1696242265859,0.17675781,-0.10839844,0.3310547,-43.84375,67.40625,136.15625,0.0,0.0,0.0
1696242265906,-1.2714844,-0.037109375,-0.3857422,24.40625,-5.21875,-117.25,0.0,0.0,0.0
1696242265927,-1.0517578,0.041015625,-0.13574219,-83.625,-37.3125,-143.9375,0.0,0.0,0.0
1696242265972,-1.9912109,0.20800781,-0.59375,-10.625,27.4375,-181.40625,0.0,0.0,0.0
1696242266006,-1.2587891,0.33398438,-0.45703125,172.34375,-101.46875,-21.375,0.0,0.0,0.0
1696242266050,-1.2128906,0.6044922,-0.41210938,111.8125,-68.875,-41.3125,0.0,0.0,0.0
1696242266084,-1.0253906,0.35839844,-0.3466797,-44.4375,-34.9375,18.25,0.0,0.0,0.0
1696242266130,-0.8652344,0.08496094,-0.2607422,1.9375,-12.84375,90.75,-98.25,-18.125,-140.0
1696242266174,-0.8828125,-0.0703125,-0.27539062,84.8125,-97.4375,138.125,0.0,0.0,0.0
1696242266219,-0.73828125,-0.13085938,-0.18554688,164.46875,19.1875,167.53125,0.0,0.0,0.0
1696242266264,-0.56640625,-0.140625,-0.12402344,156.40625,106.46875,150.9375,0.0,0.0,0.0
1696242266288,-0.5546875,-0.13476562,-0.11425781,141.71875,175.09375,101.4375,0.0,0.0,0.0
1696242266334,-1.0,-0.07714844,-0.016601562,-694.40625,-100.5625,-114.4375,0.0,0.0,0.0
1696242266366,-1.1699219,-0.76953125,0.7558594,-577.59375,-53.5,-181.59375,0.0,0.0,0.0
1696242266411,-1.7792969,-0.020507812,0.18261719,370.28125,-111.0,-138.25,0.0,0.0,0.0
1696242266444,-1.8017578,0.16503906,-0.44726562,195.53125,-18.71875,-211.84375,0.0,0.0,0.0
1696242266489,-1.4775391,0.43945312,-0.48046875,25.5625,-40.3125,-207.21875,0.0,0.0,0.0
1696242266534,-1.0917969,0.7294922,-0.328125,-72.65625,9.3125,-144.0625,0.0,0.0,0.0
1696242266603,-0.515625,0.3408203,0.44140625,-122.03125,-46.15625,10.25,0.0,0.0,0.0
1696242266624,-0.66503906,0.39453125,-0.045898438,34.53125,9.5,36.84375,-98.375,-24.4375,-138.1875
1696242266647,-0.5283203,0.11035156,0.10644531,-35.0625,43.84375,97.65625,0.0,0.0,0.0
1696242266693,-0.99902344,-0.20507812,-0.25097656,-28.75,-13.875,142.15625,0.0,0.0,0.0
1696242266725,-1.6201172,-0.58203125,-0.12597656,92.28125,85.3125,140.625,0.0,0.0,0.0
1696242266770,-0.78808594,-0.39453125,0.045898438,-301.46875,42.9375,60.84375,0.0,0.0,0.0
1696242266804,-0.75097656,0.3544922,0.29101562,-54.59375,47.15625,-59.5625,0.0,0.0,0.0
1696242266849,-0.84765625,0.16601562,-0.13867188,76.53125,-25.78125,-70.25,0.0,0.0,0.0
1696242266894,-1.0742188,0.24902344,-0.32421875,183.21875,30.3125,8.78125,0.0,0.0,0.0
1696242266939,-1.6083984,0.08886719,-0.49902344,262.3125,-92.625,128.0,0.0,0.0,0.0
1696242266984,-1.0234375,0.028320312,-0.33007812,197.5625,39.09375,112.3125,0.0,0.0,0.0
1696242267006,-1.2021484,-0.005859375,-0.30273438,9.25,-0.15625,36.75,0.0,0.0,0.0
1696242267052,-0.9433594,-0.03125,-0.23632812,-38.96875,-6.875,6.71875,0.0,0.0,0.0
1696242267085,-0.8144531,-0.0048828125,-0.21386719,-28.28125,0.71875,9.8125,0.0,0.0,0.0
1696242267130,-0.71191406,-0.036132812,-0.18066406,-13.6875,19.75,29.15625,-99.3125,-12.4375,-139.6875
1696242267164,-0.78125,-0.07128906,-0.17773438,-15.34375,31.90625,31.25,0.0,0.0,0.0
1696242267209,-0.84472656,-0.095703125,-0.17382812,-33.9375,41.34375,35.6875,0.0,0.0,0.0
1696242267254,-1.1005859,0.19335938,0.84375,-95.0,80.0625,0.0625,0.0,0.0,0.0
1696242267299,-1.1455078,-1.0527344,0.70996094,-342.46875,125.15625,-53.21875,0.0,0.0,0.0
1696242267347,-1.3320312,-0.20996094,-0.203125,191.28125,-214.4375,-152.78125,0.0,0.0,0.0
