,timestamp,accel_x,accel_y,accel_z,gyro_x,gyro_y,gyro_z
0,1697605965,0.10058594,-1.0606079,0.36761475,1.515625,1.90625,8.046875
1,1697606005,0.01977539,-1.0361938,0.27020264,2.328125,1.515625,8.3125
2,1697606045,0.016113281,-0.9102173,0.18109131,12.90625,-0.796875,7.84375
3,1697606085,0.013183594,-0.880188,0.20697021,14.15625,3.609375,10.15625
4,1697606125,0.018554688,-0.94366455,0.22332764,2.484375,0.15625,10.390625
5,1697606165,0.040527344,-1.0427856,0.3053589,-9.671875,-0.921875,2.609375
6,1697606205,0.09033203,-1.0620728,0.37445068,-2.609375,4.96875,-9.125
7,1697606245,0.038085938,-0.88531494,0.2453003,-2.171875,5.4375,-17.125
8,1697606285,-0.064941406,-1.005188,0.020690918,-21.515625,-7.65625,-15.484375
9,1697606325,0.064208984,-1.2583618,0.1305542,-15.875,4.265625,-6.453125
10,1697606365,0.19628906,-1.0335083,0.18377686,20.5625,18.140625,0.9375
11,1697606405,0.13378906,-0.7756958,-0.09576416,4.0625,6.234375,-0.75
12,1697606445,0.21020508,-0.8394165,-0.082336426,0.265625,-17.21875,-0.046875
13,1697606485,-0.01977539,-1.2869263,0.1449585,-0.828125,-4.65625,-2.890625
14,1697606525,-0.10180664,-1.0437622,0.07904053,33.796875,-7.921875,5.03125
15,1697606565,-0.10546875,-0.88287354,-0.0032348633,10.671875,-3.0625,1.078125
16,1697606605,-0.056396484,-0.8814087,-0.0017700195,8.765625,1.4375,-3.671875
17,1697606645,0.013916016,-0.97003174,0.035827637,10.125,1.109375,-0.125
18,1697606685,0.10253906,-1.0872192,0.046325684,-6.28125,-7.296875,-1.921875
19,1697606725,0.036376953,-1.0969849,0.109069824,-10.5,-6.6875,-4.703125
20,1697606765,-0.20043945,-0.9907837,0.08319092,-13.875,-5.59375,-5.796875
21,1697606805,-0.2763672,-0.9505005,0.101989746,-14.6875,-2.859375,-8.421875
22,1697606845,-0.012451172,-0.9668579,0.08343506,-11.890625,1.765625,-11.34375
23,1697606885,0.25585938,-0.98101807,0.08880615,13.484375,7.359375,-5.953125
24,1697606925,0.25024414,-0.8291626,0.0138549805,12.703125,0.03125,2.953125
25,1697606965,0.053710938,-1.0930786,0.08465576,-20.875,-18.21875,1.875
26,1697607005,0.008300781,-1.2566528,0.41912842,8.578125,-15.21875,8.453125
27,1697607045,-0.068115234,-1.0508423,0.24969482,5.5,-2.96875,12.46875
28,1697607085,-0.12182617,-0.81915283,0.17034912,-8.328125,6.03125,0.96875
29,1697607125,-0.059326172,-0.76812744,0.116882324,8.296875,4.0625,-1.390625
30,1697607165,0.0546875,-0.8464966,0.16741943,9.375,5.765625,2.234375
31,1697607205,0.14575195,-1.1165161,0.13909912,-24.953125,-13.03125,-7.40625
32,1697607245,0.41064453,-1.2971802,0.32806396,2.1875,-14.4375,4.703125
33,1697607285,-0.13110352,-1.0388794,0.054870605,-5.171875,4.78125,15.109375
34,1697607325,-0.3112793,-0.8352661,-0.08721924,0.765625,-4.84375,5.4375
35,1697607365,-0.07006836,-0.85162354,-0.07696533,-3.421875,-4.296875,-1.53125
36,1697607405,0.12890625,-1.163147,0.14154053,16.015625,6.140625,-6.171875
37,1697607445,0.16577148,-1.1489868,0.15130615,6.25,-2.703125,1.265625
38,1697607485,-0.017089844,-0.88482666,0.04901123,-0.828125,-0.09375,6.6875
39,1697607525,-0.2602539,-0.88409424,-0.04156494,-0.421875,4.0,-2.09375
40,1697607565,-0.22314453,-0.8804321,0.023620605,-6.0625,0.828125,-5.859375
41,1697607605,0.03491211,-1.031311,0.14471436,-16.09375,3.828125,-5.953125
42,1697607645,0.20825195,-1.1834106,0.23626709,-6.34375,2.0,-7.046875
43,1697607685,0.1472168,-0.98516846,0.09832764,3.625,-6.359375,-2.390625
44,1697607725,0.038330078,-0.8074341,0.08099365,-4.90625,-5.234375,-0.9375
45,1697607765,-0.100097656,-1.0454712,0.15179443,-9.703125,-3.15625,-0.75
46,1697607805,0.025634766,-1.1963501,0.36566162,1.390625,-5.078125,-0.3125
47,1697607845,0.026123047,-1.1218872,0.32757568,-2.234375,8.40625,5.109375
48,1697607885,0.025634766,-0.90216064,0.215271,1.6875,6.140625,-1.09375
49,1697607925,-0.011962891,-0.8262329,0.19403076,10.28125,6.515625,-0.71875
50,1697607965,-0.010986328,-0.80841064,0.19012451,6.15625,13.25,3.0
51,1697608005,0.07080078,-0.87579346,0.08416748,-0.4375,5.40625,-2.390625
52,1697608045,0.22802734,-1.2234497,0.24554443,-9.921875,-1.375,-6.3125
53,1697608085,0.0036621094,-1.1983032,0.2584839,10.328125,11.5,5.84375
54,1697608125,-0.13964844,-0.8897095,0.061462402,15.703125,15.515625,5.265625
55,1697608165,0.001953125,-0.78985596,-0.09674072,-1.078125,0.75,2.21875
56,1697608205,0.12915039,-1.0442505,0.015319824,-3.875,3.859375,1.34375
57,1697608245,0.08886719,-1.1848755,0.18792725,6.703125,-5.328125,2.625
58,1697608285,0.037841797,-1.0027466,0.08709717,10.71875,-5.34375,4.34375
59,1697608325,-0.14526367,-0.8760376,0.0021362305,4.78125,1.1875,-0.984375
60,1697608365,-0.22851562,-0.87091064,0.024841309,0.546875,-0.71875,-2.53125
61,1697608405,-0.09399414,-0.9883423,0.070251465,-14.5625,0.203125,0.15625
62,1697608445,0.0703125,-1.1209106,0.16619873,-18.015625,1.125,-5.09375
63,1697608485,0.14233398,-1.1096802,0.21258545,-0.3125,-5.96875,-3.96875
64,1697608525,0.059326172,-0.9627075,0.085632324,2.890625,-9.171875,-1.453125
65,1697608565,-0.010498047,-0.7974243,0.053894043,5.328125,0.3125,-4.484375
66,1697608605,-0.03125,-0.92852783,0.036315918,-7.296875,-5.859375,-0.875
67,1697608645,0.13330078,-1.1934204,0.28582764,-12.546875,-6.515625,1.421875
68,1697608685,0.11352539,-1.1672974,0.38128662,7.234375,-3.703125,5.09375
69,1697608725,0.008056641,-0.9907837,0.2177124,-3.265625,-8.171875,0.109375
70,1697608765,-0.02709961,-0.91534424,0.20233154,8.28125,-0.109375,-2.71875
71,1697608805,0.021240234,-0.8723755,0.16912842,13.5,0.65625,5.265625
72,1697608845,0.13354492,-0.85479736,0.19158936,2.09375,-0.796875,5.71875
73,1697608885,0.14794922,-0.90826416,0.25653076,-5.9375,-4.53125,-1.5625
74,1697608925,-0.021240234,-1.0305786,0.20428467,-10.015625,-8.75,-7.640625
75,1697608965,-0.111572266,-1.0481567,0.08905029,-10.53125,3.65625,-7.84375
76,1697609005,-0.047607422,-1.0220337,0.038269043,5.375,10.328125,6.25
77,1697609045,0.07006836,-1.0640259,-0.02911377,-13.328125,6.296875,8.359375
78,1697609085,0.14916992,-1.142395,0.16693115,2.9375,-6.109375,-0.9375
79,1697609125,-0.053222656,-1.1375122,0.21136475,19.6875,-3.1875,2.421875
80,1697609165,-0.09423828,-0.92633057,0.10076904,18.171875,5.046875,0.40625
81,1697609205,-0.15625,-0.8152466,-0.012756348,10.796875,4.703125,-1.84375
82,1697609245,-0.11254883,-0.8101196,-0.09136963,5.15625,-0.203125,-1.875
83,1697609285,0.018066406,-0.96539307,0.035095215,0.484375,1.109375,1.421875
84,1697609325,0.051513672,-1.1101685,0.1954956,-6.5625,-1.125,1.265625
85,1697609365,-0.0048828125,-1.0293579,0.15179443,1.3125,-5.453125,3.484375
86,1697609405,0.01953125,-0.9429321,0.026794434,-1.015625,-9.171875,-1.59375
87,1697609445,0.17211914,-1.0335083,0.09515381,-4.234375,-11.71875,-8.90625
88,1697609485,0.11328125,-1.2854614,0.2062378,-10.703125,-9.78125,-8.515625
89,1697609525,0.091308594,-1.0977173,0.24407959,15.734375,-9.203125,3.40625
90,1697609565,-0.025634766,-0.93829346,0.12298584,-7.9375,-3.359375,1.828125
91,1697609605,-0.05810547,-0.8706665,0.10858154,-0.59375,-2.0,-1.5625
92,1697609645,0.06762695,-0.8882446,0.137146,-0.875,0.03125,0.625
93,1697609685,0.123046875,-0.9397583,0.18695068,1.734375,-2.421875,2.546875
94,1697609725,0.10058594,-0.9529419,0.20965576,-5.28125,-3.625,1.09375
95,1697609765,0.0034179688,-0.9421997,0.21282959,-9.828125,-2.96875,-4.78125
96,1697609805,-0.064208984,-0.9949341,0.12738037,-7.03125,2.015625,-7.953125
97,1697609845,-0.21435547,-1.0632935,0.07733154,-12.703125,11.28125,-4.734375
98,1697609885,0.0625,-1.0088501,-0.0005493164,-2.703125,11.40625,4.359375
99,1697609925,0.27172852,-1.086731,0.020935059,0.296875,8.109375,11.453125
100,1697609965,0.12426758,-1.1231079,0.19915771,11.1875,5.484375,6.203125
101,1697610005,-0.08862305,-1.0508423,0.14154053,9.65625,-6.90625,3.78125
102,1697610045,-0.16113281,-0.8772583,0.08294678,23.4375,8.515625,1.765625
103,1697610085,-0.15893555,-0.8093872,-0.066711426,12.515625,8.09375,-2.265625
104,1697610125,-0.013427734,-0.8496704,-0.061340332,-2.375,-6.0625,-5.21875
105,1697610165,0.091552734,-1.0457153,0.042419434,-9.1875,-9.0625,-1.25
106,1697610205,0.012451172,-1.1741333,0.246521,-15.34375,0.125,-0.390625
107,1697610245,-0.087646484,-1.0596313,0.22894287,-7.8125,-7.625,0.921875
108,1697610285,-0.16723633,-0.94903564,0.12371826,-15.328125,-3.8125,-4.6875
109,1697610325,-0.16796875,-0.987854,-0.009094238,-11.171875,0.296875,-12.984375
110,1697610365,0.19482422,-0.99786377,0.15350342,14.6875,2.1875,-12.0625
111,1697610405,0.30566406,-0.94903564,0.05316162,5.171875,-12.53125,0.703125
112,1697610445,0.13623047,-1.1194458,0.16107178,3.5625,-6.953125,0.03125
113,1697610485,-0.099365234,-1.0654907,0.19940186,23.0625,-12.65625,10.421875
114,1697610525,-0.13305664,-0.9937134,0.093933105,2.484375,-5.78125,7.546875
115,1697610565,-0.045410156,-0.89508057,0.08880615,4.3125,1.90625,-0.78125
116,1697610605,0.12182617,-0.99420166,0.078552246,8.4375,1.734375,1.25
117,1697610645,0.19213867,-1.0342407,0.15008545,4.734375,2.5625,10.828125
118,1697610685,0.10473633,-0.94537354,0.1383667,-2.828125,-3.8125,9.609375
119,1697610725,-0.029541016,-0.9651489,0.21136475,-7.5625,0.453125,1.703125
120,1697610765,-0.115478516,-0.9902954,0.2033081,-4.90625,0.046875,-5.734375
121,1697610805,-0.022949219,-0.9656372,0.13934326,-10.40625,3.703125,-13.234375
122,1697610845,0.0026855469,-1.0515747,0.029724121,-14.75,-1.921875,-11.5625
123,1697610885,0.0793457,-1.039856,0.13397217,-3.5,13.859375,-3.09375
124,1697610925,0.103759766,-0.83306885,0.0016479492,2.09375,5.5625,13.0
125,1697610965,0.04711914,-0.96295166,-0.054260254,-15.8125,-7.0,14.1875
126,1697611005,0.09765625,-1.2622681,0.24554443,-0.578125,-18.59375,4.234375
127,1697611045,-0.1262207,-1.0784302,0.25457764,23.578125,6.75,5.046875
128,1697611085,-0.13549805,-0.819397,0.0006713867,23.453125,11.796875,3.0625
129,1697611125,-0.052490234,-0.7781372,-0.045715332,2.078125,-2.265625,-2.765625
130,1697611165,-0.036621094,-1.0735474,0.07220459,-6.53125,-6.671875,-1.0625
131,1697611205,-0.095214844,-1.1311646,0.14984131,6.421875,0.84375,0.234375
132,1697611245,-0.020751953,-0.95269775,0.0680542,-7.0,4.296875,-1.328125
133,1697611285,0.041259766,-0.92193604,0.06097412,-9.875,7.15625,-5.125
134,1697611325,0.06347656,-0.98272705,-0.06085205,-9.6875,-12.1875,-6.3125
135,1697611365,0.16430664,-1.0830688,0.13104248,3.5625,-3.8125,-7.234375
136,1697611405,0.23461914,-1.1831665,0.17010498,0.0625,-0.875,-0.59375
137,1697611445,0.1274414,-1.0847778,0.24554443,-0.90625,-5.796875,5.765625
138,1697611485,-0.018798828,-0.98931885,0.18817139,-0.390625,-10.703125,8.484375
139,1697611525,-0.012207031,-0.9277954,0.18353271,2.515625,-0.03125,2.46875
140,1697611565,0.033691406,-0.8555298,0.15570068,5.421875,-0.5625,1.828125
141,1697611605,0.072509766,-0.8616333,0.14642334,3.09375,-1.953125,5.21875
142,1697611645,0.15307617,-0.9260864,0.17254639,0.328125,-2.21875,6.5625
143,1697611685,0.16235352,-1.0105591,0.2850952,-1.375,-5.4375,3.4375
144,1697611725,0.016845703,-0.9614868,0.24041748,-4.71875,-6.875,-5.859375
145,1697611765,-0.12670898,-0.9859009,-6.1035156e-05,-21.703125,-7.625,-12.859375
146,1697611805,-0.2878418,-1.1453247,-0.006652832,-25.953125,8.0,-5.453125
147,1697611845,0.27075195,-1.2195435,0.109558105,0.28125,13.3125,4.8125
148,1697611885,0.3330078,-1.0752563,0.20574951,3.890625,10.5625,-3.203125
149,1697611925,0.15332031,-0.88946533,0.04559326,20.265625,-13.765625,-3.453125
150,1697611965,-0.22143555,-0.9985962,0.089782715,-4.796875,2.53125,1.203125
151,1697612005,-0.21069336,-0.80548096,-0.0134887695,19.59375,2.734375,-2.3125
152,1697612045,-0.026367188,-0.7334595,-0.1182251,23.359375,-7.296875,-1.625
153,1697612085,0.056884766,-0.8796997,0.0036010742,-0.078125,-2.40625,8.859375
154,1697612125,0.040771484,-1.24469,0.18939209,-1.921875,-0.640625,14.03125
155,1697612165,0.05810547,-1.2571411,0.291687,6.640625,-10.15625,4.921875
156,1697612205,-0.08984375,-1.0730591,0.2074585,-1.546875,-5.515625,1.421875
157,1697612245,-0.19189453,-0.9170532,0.06121826,-9.53125,-1.140625,-7.328125
158,1697612285,-0.080078125,-0.83306885,-0.17120361,-18.375,-4.96875,-11.921875
159,1697612325,0.23168945,-1.0869751,0.09686279,-9.484375,-4.53125,-17.125
160,1697612365,0.22021484,-1.1904907,0.23675537,5.234375,-2.40625,-3.5
161,1697612405,0.21386719,-0.97613525,0.16668701,2.53125,1.453125,2.1875
162,1697612445,-0.013183594,-0.8381958,0.06732178,10.078125,-2.84375,6.625
163,1697612485,-0.09838867,-0.9187622,0.07171631,-5.625,-7.625,7.65625
164,1697612525,0.088134766,-0.9961548,0.20819092,-3.703125,0.390625,5.578125
165,1697612565,0.12231445,-1.0706177,0.24017334,10.09375,0.34375,4.4375
166,1697612605,0.099365234,-0.98516846,0.18572998,2.640625,2.4375,5.59375
167,1697612645,0.020751953,-0.88116455,0.22039795,-3.25,1.609375,1.234375
168,1697612685,0.037109375,-0.9036255,0.13861084,-1.65625,-2.015625,-8.71875
169,1697612725,0.05126953,-0.95440674,0.16156006,-14.328125,-3.796875,-14.0625
170,1697612765,-0.13696289,-1.1160278,0.121276855,-29.78125,0.671875,-5.21875
171,1697612805,0.034179688,-1.0249634,0.09979248,3.75,17.671875,4.125
172,1697612845,0.21289062,-0.9746704,-0.02178955,4.75,6.859375,6.34375
173,1697612885,0.25219727,-1.0488892,0.1383667,-9.515625,1.265625,1.96875
174,1697612925,0.017333984,-1.187561,0.23260498,7.4375,-12.171875,3.96875
175,1697612965,-0.21264648,-1.0076294,0.18621826,26.84375,4.515625,6.40625
176,1697613005,-0.2265625,-0.79888916,0.0119018555,21.828125,4.578125,-3.65625
177,1697613045,-0.12451172,-0.8062134,-0.02154541,-3.71875,-2.640625,-4.390625
178,1697613085,0.04345703,-0.9795532,0.059509277,1.71875,2.359375,1.078125
179,1697613125,0.11010742,-1.0901489,0.18817139,6.640625,1.984375,1.703125
180,1697613165,0.00048828125,-1.0708618,0.116882324,-15.5,-5.484375,-1.4375
181,1697613205,-0.16552734,-0.98687744,0.09466553,-13.59375,0.3125,-1.953125
182,1697613245,-0.060302734,-0.96221924,-0.039611816,-10.5625,0.109375,-8.890625
183,1697613285,0.18798828,-1.0796509,0.08441162,-2.09375,0.890625,-12.40625
184,1697613325,0.32641602,-1.1826782,0.27679443,10.046875,3.46875,-2.15625
185,1697613365,0.23632812,-1.0054321,0.21160889,-3.0625,-6.5,6.796875
186,1697613405,-0.03466797,-0.96661377,0.1539917,-15.0,-10.34375,6.328125
187,1697613445,-0.068359375,-0.97857666,0.23382568,4.09375,-0.453125,4.078125
188,1697613485,-0.016113281,-0.8999634,0.23822021,9.0,7.484375,2.0
189,1697613525,0.037841797,-0.8101196,0.16497803,6.671875,2.0625,0.1875
190,1697613565,0.13256836,-0.864563,0.20379639,-0.5,-0.015625,0.234375
191,1697613605,0.16625977,-0.9199829,0.2597046,-6.953125,0.703125,-4.109375
192,1697613645,0.036376953,-1.041565,0.121032715,-19.265625,-12.6875,-12.265625
193,1697613685,-0.07495117,-1.1477661,0.10101318,-23.015625,-2.78125,-3.9375
194,1697613725,-0.09790039,-1.2493286,0.1071167,-2.8125,14.734375,13.03125
195,1697613765,0.14941406,-1.0169067,0.10418701,13.40625,3.234375,1.625
196,1697613805,0.18457031,-0.8960571,0.10662842,28.9375,-4.796875,-5.4375
197,1697613845,-0.05444336,-1.0552368,0.09466553,5.25,7.25,-0.40625
198,1697613885,-0.16870117,-0.9534302,0.04949951,22.890625,3.78125,1.5625
199,1697613925,-0.0690918,-0.8284302,-0.035217285,17.25,-0.171875,1.390625
200,1697613965,-0.0021972656,-0.8579712,-0.019836426,8.3125,-1.953125,0.0625
201,1697614005,0.0043945312,-1.0286255,0.039001465,10.578125,-5.09375,1.203125
202,1697614045,0.049560547,-1.0466919,0.11126709,-2.890625,-1.578125,-1.046875
203,1697614085,-0.109375,-1.0811157,0.09466553,-3.9375,-4.8125,-4.390625
204,1697614125,-0.16088867,-1.0664673,-0.06915283,-17.109375,-9.828125,-10.96875
205,1697614165,0.18920898,-0.98687744,0.05657959,13.09375,2.84375,-13.46875
206,1697614205,0.19335938,-1.1265259,0.042175293,2.90625,-1.984375,-5.875
207,1697614245,0.10107422,-0.989563,0.07635498,3.390625,-12.1875,4.734375
208,1697614285,-0.0012207031,-0.9976196,0.07537842,-2.109375,-15.3125,10.046875
209,1697614325,-0.05078125,-0.9968872,0.16766357,0.109375,-6.203125,4.921875
210,1697614365,0.0041503906,-0.9949341,0.15350342,-3.03125,-4.25,4.484375
211,1697614405,-0.011474609,-0.8850708,0.10491943,0.9375,0.890625,3.5
212,1697614445,0.048095703,-0.8921509,0.09320068,-0.859375,2.5625,1.46875
213,1697614485,0.111083984,-0.9458618,0.20062256,-9.375,-2.765625,-2.421875
214,1697614525,0.03149414,-1.0122681,0.12982178,-11.953125,-1.921875,-4.515625
215,1697614565,-0.088378906,-1.0835571,0.0014038086,-18.078125,0.78125,-2.75
216,1697614605,-0.12207031,-1.0161743,0.0045776367,-10.9375,16.25,5.921875
217,1697614645,0.17089844,-1.107727,-0.010070801,-11.546875,5.84375,9.734375
218,1697614685,0.23901367,-1.0786743,0.19818115,2.4375,4.484375,-0.671875
219,1697614725,-0.0087890625,-1.0440063,0.17181396,9.65625,1.1875,0.0
220,1697614765,-0.14575195,-0.86016846,0.09857178,16.171875,10.484375,-0.734375
221,1697614805,-0.1730957,-0.7749634,-0.038146973,5.5625,2.328125,-4.75
222,1697614845,-0.12207031,-0.93634033,0.010437012,-12.859375,-4.3125,-3.875
223,1697614885,-0.030761719,-1.1587524,0.20550537,-3.71875,4.25,-1.703125
224,1697614925,0.03466797,-1.0149536,0.16815186,4.4375,8.28125,-2.90625
225,1697614965,0.047851562,-0.91070557,0.066833496,-16.6875,0.078125,-6.125
226,1697615005,0.068847656,-0.9780884,0.053894043,-14.1875,-12.96875,-6.53125
227,1697615045,0.12963867,-1.0071411,0.1071167,12.53125,-10.328125,-5.765625
228,1697615085,-0.043701172,-1.1533813,0.14349365,-3.0,-3.109375,-1.78125
229,1697615125,0.12060547,-1.109436,0.21502686,15.234375,-8.96875,3.109375
230,1697615165,0.107910156,-1.0679321,0.23431396,5.15625,-10.546875,6.546875
231,1697615205,-0.010986328,-0.96295166,0.2514038,6.03125,-8.328125,5.875
232,1697615245,-0.0546875,-0.8858032,0.14202881,-1.484375,-10.484375,4.828125
233,1697615285,-0.041259766,-0.77911377,0.047790527,-4.84375,-0.796875,2.359375
234,1697615325,0.10131836,-0.9495239,0.21820068,5.84375,-0.40625,0.234375
235,1697615365,0.13061523,-0.97662354,0.31292725,0.453125,-5.84375,-3.25
236,1697615405,-0.0078125,-0.9866333,0.11517334,-6.921875,-5.75,-8.53125
237,1697615445,-0.21875,-0.97076416,-0.037902832,-7.78125,4.328125,-3.859375
238,1697615485,-0.10595703,-0.9365845,-0.074279785,-2.4375,16.828125,9.921875
239,1697615525,0.26098633,-1.1721802,-0.08062744,-23.734375,0.796875,8.34375
240,1697615565,0.29760742,-1.2634888,0.4039917,33.125,-5.796875,-2.046875
241,1697615605,-0.021972656,-1.1531372,0.16107178,8.921875,-4.71875,4.828125
242,1697615645,-0.3305664,-0.9085083,0.08880615,11.546875,11.984375,4.59375
243,1697615685,-0.2890625,-0.6746216,-0.13604736,12.578125,4.171875,-4.75
244,1697615725,-0.05517578,-0.74224854,-0.11553955,-4.203125,-4.375,-4.75
245,1697615765,0.06298828,-1.1084595,0.15350342,-13.78125,-0.90625,-1.1875
246,1697615805,0.083496094,-1.1785278,0.2904663,-14.703125,1.875,-1.75
247,1697615845,0.015380859,-0.9663696,0.0211792,-10.734375,-10.6875,-5.0625
248,1697615885,0.09667969,-0.94000244,0.086364746,-5.625,-3.3125,-11.546875
249,1697615925,0.29174805,-0.95562744,0.08905029,14.125,-9.953125,-4.203125
250,1697615965,-0.06201172,-1.3015747,0.10394287,-12.65625,-11.1875,1.984375
251,1697616005,-0.02709961,-1.1340942,0.2567749,18.5,-10.171875,11.78125
252,1697616045,0.014160156,-0.987854,0.17694092,6.28125,2.09375,3.578125
253,1697616085,0.017089844,-0.91900635,0.20379639,8.390625,3.671875,2.578125
254,1697616125,-0.0087890625,-0.8491821,0.21697998,0.625,-0.671875,4.859375
255,1697616165,-0.0146484375,-0.7971802,0.12542725,-2.71875,2.21875,1.828125
256,1697616205,0.08569336,-0.8394165,0.1564331,-5.453125,5.734375,-4.140625
257,1697616245,0.06591797,-0.9524536,0.15618896,-19.984375,-2.09375,-6.59375
258,1697616285,-0.10986328,-1.1582642,0.06536865,-26.25,8.859375,-10.6875
259,1697616325,-0.10644531,-1.0779419,0.010437012,3.59375,13.34375,3.484375
260,1697616365,0.11767578,-1.1331177,0.07489014,-17.09375,4.1875,18.90625
261,1697616405,0.26953125,-1.145813,0.25653076,-5.375,-2.15625,2.484375
262,1697616445,0.07006836,-1.0630493,0.25628662,23.421875,-8.0,-3.453125
263,1697616485,-0.24951172,-0.90509033,0.11541748,9.21875,12.953125,-3.1875
264,1697616525,-0.24414062,-0.67559814,-0.06964111,12.109375,1.46875,-3.140625
265,1697616565,0.021484375,-0.7776489,-0.04449463,-0.671875,-11.46875,1.265625
266,1697616605,0.14355469,-1.1421509,0.20550537,-17.125,-5.953125,5.90625
267,1697616645,-0.032714844,-1.196106,0.34490967,-3.125,-6.734375,0.359375
268,1697616685,-0.18457031,-0.94073486,0.17547607,-7.9375,-8.171875,-3.09375
269,1697616725,-0.34350586,-0.93829346,0.15863037,-11.890625,1.25,-7.078125
270,1697616765,-0.0009765625,-0.94195557,0.12200928,-7.5625,2.078125,-10.9375
271,1697616805,0.27929688,-1.0789185,0.105651855,3.765625,-10.515625,-10.578125
272,1697616845,0.2602539,-1.1289673,0.16937256,20.4375,-14.515625,-1.1875
273,1697616885,0.14526367,-1.0750122,0.25823975,2.359375,-8.3125,12.890625
274,1697616925,-0.0107421875,-1.0195923,0.21234131,9.671875,-14.78125,16.5
275,1697616965,-0.17480469,-0.99005127,0.26116943,18.453125,-7.625,11.5625
276,1697617005,-0.09082031,-0.8850708,0.19525146,10.5625,8.453125,6.046875
277,1697617045,0.064697266,-0.8467407,0.117370605,17.21875,7.484375,2.171875
278,1697617085,0.16601562,-0.9072876,0.15911865,14.765625,-2.125,6.328125
279,1697617125,0.19873047,-0.94317627,0.28411865,-2.4375,-4.765625,3.609375
280,1697617165,-0.040283203,-0.9553833,0.15301514,-8.859375,-6.40625,-5.734375
281,1697617205,-0.22705078,-1.062561,-0.010803223,-13.421875,2.671875,-9.46875
282,1697617245,-0.15307617,-1.0911255,-0.0413208,-12.75,22.203125,-2.234375
283,1697617285,0.12402344,-1.0654907,-0.086242676,-1.328125,15.8125,4.1875
284,1697617325,0.4111328,-1.1218872,0.07537842,6.890625,7.421875,0.265625
285,1697617365,0.24609375,-1.0335083,0.09442139,15.65625,0.203125,1.75
286,1697617405,-0.10498047,-1.0339966,0.02166748,6.890625,-4.90625,4.546875
287,1697617445,-0.24731445,-0.8833618,-0.02935791,19.21875,1.828125,2.671875
288,1697617485,-0.1809082,-0.8220825,-0.09112549,8.3125,2.421875,-3.171875
289,1697617525,-0.049804688,-0.89971924,-0.034484863,2.515625,1.921875,-1.765625
290,1697617565,0.05908203,-1.0108032,0.058776855,-2.921875,6.203125,-0.1875
291,1697617605,0.056396484,-1.0847778,0.097839355,-17.40625,0.90625,-4.96875
292,1697617645,-0.033203125,-1.0488892,0.054382324,-12.03125,-3.65625,-8.546875
293,1697617685,0.07470703,-0.99542236,-0.035217285,-14.109375,-7.125,-8.984375
294,1697617725,0.3618164,-1.0808716,0.06561279,4.078125,-7.4375,-6.3125
295,1697617765,0.122558594,-1.2363892,0.1852417,-5.90625,-5.953125,2.4375
296,1697617805,0.00024414062,-1.0986938,0.1828003,9.875,-6.0,10.8125
297,1697617845,-0.022705078,-0.958313,0.12347412,4.75,0.5625,4.09375
298,1697617885,0.020751953,-0.87579346,0.12908936,14.15625,8.328125,2.765625
299,1697617925,0.06567383,-0.8257446,0.12054443,0.25,1.765625,6.828125
300,1697617965,0.07910156,-0.8543091,0.09124756,2.5,-0.234375,6.90625
301,1697618005,0.125,-0.9500122,0.15081787,-2.1875,-0.359375,7.046875
302,1697618045,0.15283203,-0.9714966,0.2675171,-5.71875,0.09375,3.140625
303,1697618085,0.0014648438,-0.91729736,0.11785889,-0.078125,3.78125,-11.09375
304,1697618125,-0.18579102,-1.0549927,-0.120910645,-39.53125,-5.9375,-15.203125
305,1697618165,-0.032470703,-1.1255493,0.02166748,-29.734375,22.578125,-1.078125
306,1697618205,0.30981445,-1.2271118,0.09832764,5.78125,6.578125,16.0
307,1697618245,0.36938477,-1.0305786,0.1708374,-10.75,0.078125,1.921875
308,1697618285,0.2109375,-0.9890747,0.097839355,25.625,-14.265625,-0.515625
309,1697618325,-0.25146484,-1.0132446,0.14691162,10.203125,15.4375,3.15625
310,1697618365,-0.27441406,-0.7046509,-0.05328369,31.984375,3.40625,-5.125
311,1697618405,-0.026611328,-0.71539307,-0.11920166,6.390625,-12.75,-5.921875
312,1697618445,0.08642578,-1.0745239,0.070739746,-23.734375,-6.90625,6.296875
313,1697618485,0.021972656,-1.3269653,0.35662842,-9.5,-0.546875,6.0
314,1697618525,-0.053222656,-0.9985962,0.2020874,14.71875,-0.296875,-8.171875
315,1697618565,-0.17138672,-0.92926025,0.058288574,-1.015625,-3.890625,-10.25
316,1697618605,-0.14477539,-0.9702759,-0.08795166,-24.953125,-11.1875,-6.765625
317,1697618645,0.25878906,-1.156311,0.03704834,-18.296875,-9.8125,-13.140625
318,1697618685,0.39916992,-1.1651001,0.22723389,45.15625,-7.6875,-7.984375
319,1697618725,0.1862793,-0.9578247,0.086364746,16.328125,-1.671875,7.421875
320,1697618765,-0.013427734,-0.85943604,0.0053100586,3.359375,-11.75,15.59375
321,1697618805,-0.048583984,-1.0132446,0.14056396,9.84375,-12.984375,7.296875
322,1697618845,0.030273438,-1.0230103,0.19622803,8.640625,-8.109375,3.53125
323,1697618885,0.05834961,-0.93634033,0.13787842,13.890625,1.453125,2.203125
324,1697618925,0.05908203,-0.8699341,0.011413574,10.015625,-4.40625,0.984375
325,1697618965,0.11401367,-0.96295166,0.1293335,6.0,-3.6875,6.28125
326,1697619005,0.08642578,-0.96051025,0.21429443,-1.140625,-2.28125,-0.15625
327,1697619045,-0.056152344,-0.91900635,-0.002746582,-11.828125,-11.796875,-15.5
328,1697619085,-0.15478516,-1.0125122,-0.17364502,-39.90625,-6.8125,-14.71875
329,1697619125,0.014160156,-1.1253052,0.009216309,-16.671875,18.171875,4.46875
330,1697619165,0.2607422,-1.2380981,0.018249512,-10.53125,8.46875,10.53125
331,1697619205,0.15429688,-0.96588135,0.117126465,15.484375,5.140625,0.875
332,1697619245,0.09277344,-1.036438,-0.0134887695,-11.15625,-12.4375,5.8125
333,1697619285,-0.14624023,-1.0237427,0.18621826,7.875,21.859375,-0.078125
334,1697619325,-0.17407227,-0.8369751,-0.046691895,28.34375,3.84375,-4.515625
335,1697619365,-0.09399414,-0.81378174,-0.08648682,0.6875,-3.40625,-1.484375
336,1697619405,-0.03125,-0.91363525,0.016540527,9.65625,8.484375,4.375
337,1697619445,-0.017822266,-1.008606,0.03704834,3.71875,4.046875,6.46875
338,1697619485,0.01171875,-1.0545044,0.11566162,-12.640625,0.3125,-1.65625
339,1697619525,0.0068359375,-1.079895,0.1281128,-22.15625,-2.0,-9.671875
340,1697619565,-0.122802734,-1.1096802,-0.07550049,-28.125,-8.109375,-9.46875
341,1697619605,0.23803711,-0.9937134,0.08050537,4.359375,3.296875,-14.0
342,1697619645,0.39404297,-1.1856079,0.032165527,2.21875,-14.09375,-10.0625
343,1697619685,0.15917969,-1.050354,0.1239624,12.796875,-5.140625,3.328125
344,1697619725,-0.045166016,-0.92193604,0.06439209,6.3125,-11.328125,14.375
345,1697619765,-0.025390625,-0.97662354,0.12225342,-3.375,-10.0,7.9375
346,1697619805,0.041015625,-0.9956665,0.22650146,4.953125,-7.78125,7.359375
347,1697619845,0.052978516,-0.94976807,0.20965576,1.796875,0.828125,8.46875
348,1697619885,0.036132812,-0.8230591,0.08538818,5.234375,2.21875,5.9375
349,1697619925,0.1003418,-0.9356079,0.09466553,-2.4375,-9.5625,4.515625
350,1697619965,0.13427734,-1.0391235,0.27557373,-4.8125,-6.828125,0.3125
351,1697620005,0.020751953,-0.9434204,0.24285889,0.296875,-5.46875,-13.328125
352,1697620045,-0.09326172,-0.9829712,0.011413574,-25.21875,-6.109375,-14.28125
353,1697620085,-0.1899414,-1.1287231,0.08001709,-26.171875,21.8125,-1.1875
354,1697620125,0.14819336,-1.218811,0.015075684,-7.109375,16.859375,1.3125
355,1697620165,0.3178711,-0.95440674,0.06317139,-3.234375,12.109375,-3.9375
356,1697620205,0.24633789,-0.95269775,0.05316162,12.4375,-6.796875,3.125
357,1697620245,-0.052001953,-0.98223877,0.12908936,-18.453125,-6.921875,4.90625
358,1697620285,-0.14916992,-0.9326782,0.12567139,21.203125,0.21875,-2.1875
359,1697620325,-0.13769531,-0.8591919,0.021911621,30.75,1.78125,-0.03125
360,1697620365,-0.07885742,-0.88848877,0.030944824,-5.25,0.375,4.71875
361,1697620405,-0.038085938,-1.0464478,0.14544678,-15.640625,0.015625,4.21875
362,1697620445,-0.092285156,-1.0820923,0.22772217,4.328125,3.21875,-2.859375
363,1697620485,-0.087890625,-1.0071411,0.21697998,2.0,1.03125,-1.984375
364,1697620525,-0.09765625,-0.94244385,0.18792725,-14.28125,-1.125,-1.578125
365,1697620565,-0.08081055,-1.0083618,0.046325684,-17.09375,-7.21875,-7.1875
366,1697620605,0.13671875,-1.1204224,0.074157715,-11.546875,-8.1875,-12.890625
367,1697620645,0.4194336,-1.2366333,0.21087646,22.0625,-9.4375,-8.703125
368,1697620685,0.24487305,-1.0029907,0.15985107,11.765625,-6.125,1.03125
369,1697620725,-0.026855469,-0.9414673,0.1239624,-3.25,-12.28125,9.46875
370,1697620765,-0.119628906,-1.003479,0.18621826,-4.484375,-9.734375,9.734375
371,1697620805,0.037841797,-0.9517212,0.2177124,4.75,-5.734375,5.109375
372,1697620845,0.1171875,-0.8596802,0.23602295,4.53125,1.140625,3.171875
373,1697620885,0.05883789,-0.8245239,0.1461792,3.78125,-0.390625,6.59375
374,1697620925,0.052734375,-0.9199829,0.19012451,-0.96875,-3.375,10.03125
375,1697620965,0.095214844,-1.0161743,0.3373413,-7.8125,-0.625,6.28125
376,1697621005,0.007080078,-0.87213135,0.34466553,4.421875,2.0625,-13.609375
377,1697621045,-0.16235352,-0.89068604,-0.105529785,-30.375,-6.703125,-18.46875
378,1697621085,-0.17211914,-1.2835083,0.023864746,-36.953125,18.984375,-4.46875
379,1697621125,0.47192383,-1.5447388,0.41351318,16.0625,6.28125,13.03125
380,1697621165,0.19262695,-0.878479,0.22137451,18.375,20.671875,-1.65625
381,1697621205,0.09399414,-0.77960205,-0.045959473,30.0,-23.234375,-2.96875
382,1697621245,-0.36010742,-1.0925903,0.16766357,-4.109375,18.265625,3.78125
383,1697621285,-0.2692871,-0.819397,0.012634277,20.765625,6.046875,-5.5
384,1697621325,0.068359375,-0.77130127,-0.0803833,26.625,-11.328125,-4.828125
385,1697621365,0.14770508,-1.0003052,0.059509277,8.40625,5.15625,1.15625
386,1697621405,-0.014404297,-1.1316528,0.17352295,1.5,-0.40625,2.125
387,1697621445,-0.10424805,-1.0264282,0.11029053,0.234375,-13.84375,-0.171875
388,1697621485,-0.14526367,-0.99591064,0.049987793,-17.09375,-6.046875,-9.875
389,1697621525,-0.084472656,-0.9998169,-0.013000488,-8.890625,-3.5625,-15.21875
390,1697621565,0.37451172,-1.117981,-0.012512207,8.75,-13.921875,-10.703125
391,1697621605,0.36865234,-1.1680298,0.17401123,19.96875,-4.4375,1.859375
392,1697621645,0.14111328,-1.0010376,0.08123779,-4.140625,-17.03125,14.171875
393,1697621685,-0.10180664,-1.0027466,0.14593506,1.6875,-19.78125,14.015625
394,1697621725,-0.11230469,-0.95806885,0.18939209,7.0,-4.296875,8.03125
395,1697621765,-0.03515625,-0.89727783,0.16448975,-0.390625,-1.015625,5.53125
396,1697621805,0.057373047,-0.8362427,0.12371826,0.65625,0.96875,-0.328125
397,1697621845,0.1694336,-0.895813,0.12689209,3.140625,-5.6875,-0.65625
398,1697621885,0.14672852,-0.96221924,0.27630615,-12.0,-1.265625,-2.09375
399,1697621925,-0.11816406,-1.0903931,0.019470215,-29.796875,-11.703125,-10.796875
400,1697621965,-0.2553711,-1.08844,0.047546387,-13.59375,11.546875,-9.9375
401,1697622005,0.024414062,-1.104065,-0.089660645,-12.390625,22.03125,6.984375
402,1697622045,0.25634766,-1.1011353,0.17938232,-0.75,10.53125,2.171875
403,1697622085,0.31030273,-0.9483032,0.07562256,26.5,-8.609375,-2.140625
404,1697622125,-0.099609375,-1.0032349,0.07928467,-6.21875,7.0625,1.703125
405,1697622165,-0.18359375,-0.91412354,0.066589355,10.375,6.0,2.578125
406,1697622205,-0.10473633,-0.8206177,-0.05621338,11.9375,-5.953125,-0.90625
407,1697622245,-0.08862305,-0.9956665,0.016540527,2.75,-3.546875,-1.65625
408,1697622285,-0.09448242,-1.0962524,0.17669678,3.359375,1.453125,-0.75
409,1697622325,-0.05908203,-0.9644165,0.121520996,-3.0,6.09375,-0.625
410,1697622365,0.0017089844,-0.97052,0.089538574,-19.125,6.46875,-4.953125
411,1697622405,-0.05908203,-1.0679321,0.027770996,-24.609375,-8.53125,-8.3125
412,1697622445,0.04736328,-1.0759888,0.081726074,-8.625,-8.390625,-11.3125
413,1697622485,0.3239746,-1.0845337,0.14178467,19.359375,0.046875,-7.015625
414,1697622525,0.119628906,-1.0095825,0.10760498,-1.515625,-4.75,0.421875
415,1697622565,0.018554688,-0.9546509,0.15472412,-0.46875,-8.859375,11.453125
416,1697622605,-0.025146484,-1.0025024,0.17645264,-3.703125,-6.046875,8.140625
417,1697622645,0.035888672,-1.0100708,0.2074585,2.921875,-6.96875,4.8125
418,1697622685,0.05419922,-0.9793091,0.25482178,3.46875,-1.75,5.578125
419,1697622725,0.036865234,-0.86187744,0.15472412,2.859375,-1.15625,5.875
420,1697622765,0.049072266,-0.9026489,0.15692139,0.8125,-2.171875,4.125
421,1697622805,0.059814453,-0.9805298,0.27093506,-10.203125,-3.703125,1.671875
422,1697622845,-0.0061035156,-0.9282837,0.2675171,-2.8125,-1.625,-9.96875
423,1697622885,-0.064941406,-0.91900635,0.10028076,-14.203125,-6.484375,-15.1875
424,1697622925,-0.20678711,-1.1443481,0.06976318,-39.6875,11.125,-12.21875
425,1697622965,0.08276367,-1.0935669,0.13812256,0.15625,24.546875,2.734375
426,1697623005,0.17919922,-1.0459595,0.08319092,-1.421875,5.734375,12.5
427,1697623045,0.34057617,-0.9902954,0.12298584,7.953125,-9.8125,2.28125
428,1697623085,0.08496094,-1.078186,0.2597046,1.984375,-10.046875,4.328125
429,1697623125,-0.31884766,-1.0427856,0.25091553,21.34375,15.234375,0.046875
430,1697623165,-0.36499023,-0.7752075,-0.022277832,40.546875,0.703125,-1.609375
431,1697623205,-0.107666016,-0.78253174,-0.038635254,7.53125,-2.90625,-1.890625
432,1697623245,0.1081543,-1.0261841,0.086120605,4.015625,2.53125,1.25
433,1697623285,0.115234375,-1.1397095,0.2526245,2.359375,-3.703125,0.1875
434,1697623325,-0.036865234,-1.052063,0.16986084,-8.296875,-10.46875,-3.453125
435,1697623365,-0.2006836,-1.005188,-0.0051879883,-17.4375,-14.25,-6.375
436,1697623405,0.052734375,-0.8518677,0.10614014,-2.703125,-3.703125,-16.421875
437,1697623445,0.21655273,-1.0969849,0.059753418,4.5,-15.328125,-14.3125
438,1697623485,0.17944336,-1.2175903,0.1449585,8.203125,-10.09375,2.765625
439,1697623525,0.07836914,-0.9915161,0.16473389,10.4375,-5.859375,19.53125
440,1697623565,-0.008300781,-0.97369385,0.12371826,-2.359375,-15.5,12.25
441,1697623605,-0.052734375,-0.99053955,0.23309326,8.671875,-8.953125,6.9375
442,1697623645,-0.049804688,-0.9175415,0.21942139,7.875,2.328125,8.09375
443,1697623685,-0.022460938,-0.81622314,0.12298584,5.71875,3.40625,9.046875
444,1697623725,0.067871094,-0.9026489,0.15716553,4.796875,-0.875,6.21875
445,1697623765,0.1262207,-1.010315,0.31170654,-5.015625,0.28125,-3.390625
446,1697623805,-0.076416016,-0.97662354,0.11834717,-14.6875,-1.171875,-15.375
447,1697623845,-0.25048828,-1.0684204,-0.08721924,-28.171875,-4.21875,-15.65625
448,1697623885,0.12402344,-1.1980591,0.017028809,-10.390625,22.203125,8.46875
449,1697623925,0.17358398,-1.1677856,0.14984131,-13.84375,22.6875,9.9375
450,1697623965,0.31933594,-0.9019165,0.01751709,27.328125,-4.390625,-4.359375
451,1697624005,0.09057617,-0.94488525,0.089538574,0.34375,3.0,5.421875
452,1697624045,-0.24487305,-1.0342407,0.1449585,-3.703125,24.203125,6.21875
453,1697624085,-0.09741211,-0.7913208,-0.07110596,23.828125,-8.734375,2.015625
454,1697624125,0.044677734,-0.81500244,-0.043029785,10.0,-0.421875,-0.765625
455,1697624165,0.022460938,-1.00177,0.08148193,6.03125,7.75,1.375
456,1697624205,-0.075683594,-1.1870728,0.23406982,-1.0,-0.125,0.75
457,1697624245,-0.111816406,-1.1394653,0.23797607,2.734375,0.921875,-3.71875
458,1697624285,-0.18017578,-1.083313,0.11126709,-2.203125,-0.375,-10.40625
459,1697624325,-0.12890625,-0.9776001,0.1083374,-8.40625,4.53125,-11.734375
460,1697624365,0.013427734,-1.0266724,0.0119018555,-11.9375,2.15625,-18.203125
461,1697624405,0.05493164,-1.1253052,0.0848999,-4.34375,-2.4375,-20.4375
462,1697624445,0.14550781,-1.0923462,-0.062561035,11.703125,-1.328125,-6.109375
463,1697624485,0.24609375,-0.88067627,0.026794434,17.921875,3.0,0.109375
464,1697624525,0.19360352,-0.7424927,-0.017150879,17.96875,-7.703125,9.109375
465,1697624565,0.10644531,-0.9500122,-0.035461426,5.140625,-29.4375,16.03125
466,1697624605,-0.05908203,-1.1533813,0.15985107,-2.453125,-27.96875,13.09375
467,1697624645,-0.12841797,-1.0596313,0.24993896,12.546875,-1.4375,18.5625
468,1697624685,-0.13256836,-0.93414307,0.11663818,2.84375,8.1875,12.234375
469,1697624725,0.026611328,-0.8518677,0.054382324,11.265625,4.375,3.03125
470,1697624765,0.2253418,-0.96710205,0.13983154,6.0625,-4.671875,-0.140625
471,1697624805,0.18408203,-0.9714966,0.29144287,-12.421875,-0.53125,-5.421875
472,1697624845,-0.06201172,-0.90411377,-0.02545166,-27.625,-10.578125,-12.984375
473,1697624885,-0.2619629,-0.9495239,-0.1506958,-12.578125,5.0,-13.375
474,1697624925,-0.08496094,-1.1065063,-0.16192627,-27.453125,20.359375,9.15625
475,1697624965,0.3527832,-1.3726196,0.20184326,-18.140625,7.609375,5.65625
476,1697625005,0.3803711,-1.0933228,0.13446045,26.171875,-6.03125,-6.71875
477,1697625045,-0.095703125,-1.1699829,0.066589355,-10.78125,13.203125,1.890625
478,1697625085,-0.29003906,-0.9434204,0.0524292,22.28125,14.390625,1.984375
479,1697625125,-0.22314453,-0.69073486,-0.18682861,29.15625,5.640625,-5.453125
480,1697625165,-0.04711914,-0.64678955,-0.21051025,23.546875,9.140625,-1.578125
481,1697625205,0.09716797,-0.8010864,-0.14923096,13.546875,9.4375,6.3125
482,1697625245,0.08178711,-1.2630005,0.07537842,-5.765625,-3.265625,5.984375
483,1697625285,0.023925781,-1.3269653,0.25506592,-9.0625,-9.453125,2.15625
484,1697625325,-0.21459961,-1.0689087,0.13909912,-5.09375,-2.203125,2.09375
485,1697625365,-0.24560547,-0.8748169,-0.101379395,-18.109375,8.859375,-10.53125
486,1697625405,0.08911133,-0.9109497,-0.1482544,-3.75,8.59375,-18.21875
487,1697625445,0.36499023,-1.2305298,0.070251465,14.296875,-4.09375,-7.03125
488,1697625485,0.31884766,-1.0369263,0.11956787,4.671875,-7.328125,6.640625
489,1697625525,0.0390625,-1.0066528,0.024108887,-10.484375,-14.34375,10.8125
490,1697625565,-0.1184082,-1.1008911,0.10272217,6.875,-14.734375,5.015625
491,1697625605,0.029541016,-1.0076294,0.1828003,1.09375,2.09375,7.4375
492,1697625645,0.0703125,-0.88946533,0.1251831,1.875,8.265625,3.53125
493,1697625685,0.05102539,-0.77838135,-0.026184082,14.390625,-4.53125,2.3125
494,1697625725,0.13378906,-0.815979,0.057556152,3.59375,-3.703125,6.203125
495,1697625765,0.1303711,-0.9038696,0.15301514,-15.5,-5.640625,1.578125
496,1697625805,-0.05859375,-1.006897,-0.033996582,-25.109375,-8.65625,-19.9375
497,1697625845,-0.26660156,-1.1133423,-0.09039307,-23.328125,3.34375,-11.921875
498,1697625885,0.14086914,-1.2542114,-0.23736572,-22.390625,10.90625,7.0625
499,1697625925,0.47070312,-1.1416626,0.1408081,-2.0625,11.0,0.03125
500,1697625965,0.24511719,-1.0615845,0.019714355,10.828125,-22.296875,-1.78125
501,1697626005,-0.32861328,-1.2224731,0.11590576,-6.296875,8.859375,6.59375
502,1697626045,-0.32006836,-0.9898071,-0.109680176,14.625,13.953125,4.671875
503,1697626085,-0.06958008,-0.69000244,-0.15631104,-7.71875,7.40625,-6.140625
504,1697626125,0.13891602,-0.7803345,-0.028381348,-3.375,1.078125,-12.421875
505,1697626165,-0.020751953,-1.06427,0.17767334,-10.59375,2.59375,-4.921875
506,1697626205,-0.09790039,-0.87579346,0.22894287,0.75,0.140625,1.28125
507,1697626245,-0.107666016,-0.73516846,-0.12579346,-20.0625,-4.0,-4.0625
508,1697626285,0.106933594,-0.9651489,-0.028381348,-19.4375,1.328125,-24.78125
509,1697626325,0.41333008,-1.5928345,0.4196167,1.171875,-36.046875,-16.4375
510,1697626365,0.10864258,-1.130188,0.31976318,9.25,-10.546875,18.1875
511,1697626405,-0.20825195,-0.9846802,0.14154053,-2.71875,-12.046875,20.25
512,1697626445,-0.26293945,-0.8826294,0.15838623,6.890625,1.75,1.4375
513,1697626485,0.10131836,-0.9602661,0.28851318,15.78125,1.921875,-3.65625
514,1697626525,0.19726562,-0.9631958,0.2819214,8.0625,-1.375,11.203125
515,1697626565,0.114746094,-0.7798462,0.116882324,-5.140625,3.171875,17.09375
516,1697626605,0.008056641,-0.8308716,0.11663818,-9.390625,-11.59375,7.6875
517,1697626645,-0.0012207031,-1.0391235,0.40325928,-4.75,-7.828125,-4.828125
518,1697626685,-0.047607422,-1.0447388,0.32122803,5.921875,-5.734375,-14.953125
519,1697626725,-0.107666016,-0.8916626,0.007751465,-20.390625,-3.078125,-12.59375
520,1697626765,-0.16577148,-1.0437622,-0.012023926,-21.71875,21.5,1.453125
521,1697626805,0.17260742,-1.2068481,0.034118652,-15.796875,12.03125,11.984375
522,1697626845,0.28344727,-1.1934204,0.2633667,11.625,5.296875,3.09375
523,1697626885,0.2199707,-0.97125244,0.11029053,15.734375,-16.3125,0.875
524,1697626925,-0.28027344,-1.0234985,0.124694824,-11.484375,4.796875,4.359375
525,1697626965,-0.33374023,-0.8526001,0.03656006,20.609375,7.40625,-3.6875
526,1697627005,-0.07446289,-0.7803345,-0.05230713,12.46875,-4.015625,-10.453125
527,1697627045,0.07006836,-0.9578247,0.09686279,2.015625,7.90625,-2.65625
528,1697627085,0.056640625,-1.0933228,0.17303467,3.21875,3.03125,9.109375
529,1697627125,-0.068603516,-1.0305786,0.1852417,-15.609375,-5.015625,3.53125
530,1697627165,-0.1809082,-1.0442505,0.24505615,-4.390625,-2.734375,-7.609375
531,1697627205,-0.16040039,-0.92315674,0.14642334,-3.6875,1.796875,-8.9375
532,1697627245,-0.099121094,-0.9859009,0.062683105,-13.265625,1.015625,-15.71875
533,1697627285,0.29003906,-1.0525513,0.06781006,18.375,-10.171875,-18.59375
534,1697627325,0.39770508,-1.2261353,0.2802124,25.546875,-20.28125,3.5625
535,1697627365,0.075927734,-1.0134888,0.1161499,0.96875,-7.4375,20.4375
536,1697627405,-0.1887207,-1.024231,0.15179443,6.84375,-19.515625,20.0
537,1697627445,-0.12915039,-0.9697876,0.2333374,4.90625,-4.578125,8.484375
538,1697627485,-0.0075683594,-0.9356079,0.22161865,11.71875,7.046875,-0.25
539,1697627525,0.033691406,-0.85040283,0.07684326,10.875,2.53125,-2.03125
540,1697627565,0.17919922,-0.82403564,0.09710693,8.921875,1.734375,7.609375
541,1697627605,0.15820312,-0.83966064,0.22015381,-1.546875,-1.15625,9.296875
542,1697627645,-0.09838867,-0.89727783,0.066345215,-14.828125,-7.953125,-9.71875
543,1697627685,-0.21899414,-1.0376587,-0.09918213,-27.921875,-5.390625,-17.59375
544,1697627725,0.27661133,-1.4121704,0.049743652,-11.71875,6.390625,6.546875
545,1697627765,0.28857422,-1.1773071,0.24041748,0.453125,20.515625,18.390625
546,1697627805,0.032470703,-0.8867798,-0.05255127,5.109375,-4.828125,1.859375
547,1697627845,-0.15966797,-1.0632935,0.0067749023,-8.875,-5.515625,-3.0
548,1697627885,-0.20263672,-1.0300903,0.16082764,18.96875,15.9375,-4.484375
549,1697627925,-0.015136719,-0.83135986,-0.062316895,15.96875,2.53125,-6.28125
550,1697627965,0.05908203,-0.77960205,-0.06842041,11.03125,0.921875,-2.796875
551,1697628005,-0.05493164,-0.9973755,-0.0154418945,3.75,7.640625,4.796875
552,1697628045,-0.12548828,-1.1450806,0.14056396,-13.3125,-2.40625,1.8125
553,1697628085,-0.07397461,-0.98321533,0.18182373,-4.984375,-0.9375,-4.0625
554,1697628125,-0.057128906,-0.9002075,-0.11016846,-15.34375,-2.5,-8.828125
555,1697628165,0.19824219,-0.87042236,0.058044434,-3.0,6.203125,-15.703125
556,1697628205,0.50268555,-1.2913208,0.09881592,0.78125,-22.4375,-3.390625
557,1697628245,0.103759766,-1.3035278,0.25946045,-3.28125,-15.609375,9.5
558,1697628285,-0.19238281,-1.0335083,0.20916748,11.328125,-11.1875,16.40625
559,1697628325,-0.1784668,-0.91241455,0.12567139,6.890625,5.15625,0.9375
560,1697628365,0.053955078,-0.8220825,0.09539795,0.71875,8.875,-4.015625
561,1697628405,0.2355957,-0.8323364,0.13446045,14.09375,-2.453125,4.421875
562,1697628445,0.25390625,-0.90045166,0.13616943,5.859375,-3.890625,16.15625
563,1697628485,0.14648438,-0.96759033,0.17474365,-16.90625,-5.796875,17.53125
564,1697628525,-0.059814453,-1.0432739,0.28729248,-5.453125,-12.765625,2.015625
565,1697628565,-0.1809082,-0.9314575,0.2670288,7.953125,1.421875,-19.109375
566,1697628605,-0.17944336,-0.9282837,0.03338623,-18.765625,8.96875,-21.140625
567,1697628645,-0.10546875,-1.1079712,0.034606934,-44.09375,15.53125,-13.28125
568,1697628685,0.44970703,-1.2788696,0.16864014,13.78125,14.046875,9.796875
569,1697628725,0.20385742,-1.0056763,0.13372803,1.703125,17.5625,10.90625
570,1697628765,0.123046875,-0.8987427,-0.0569458,5.4375,-13.890625,-0.671875
571,1697628805,-0.14526367,-1.1946411,0.12567139,-12.203125,-8.78125,-0.390625
572,1697628845,-0.2421875,-0.9019165,0.1720581,32.8125,15.6875,-6.0625
573,1697628885,-0.1328125,-0.76104736,-0.09259033,23.09375,-3.828125,-6.265625
574,1697628925,-0.028076172,-0.8272095,-0.058166504,-1.265625,1.140625,-0.8125
575,1697628965,0.040039062,-1.050354,0.07244873,12.875,7.8125,3.921875
576,1697629005,0.049804688,-1.1311646,0.15863037,3.34375,-11.375,1.171875
577,1697629045,-0.040039062,-1.0698853,0.19207764,-8.515625,-9.09375,-1.546875
578,1697629085,-0.19482422,-1.0098267,0.09246826,-11.46875,-8.375,-6.046875
579,1697629125,-0.14624023,-1.0183716,-0.05987549,-16.0625,-9.078125,-15.25
580,1697629165,0.17749023,-1.0054321,0.055358887,13.484375,-2.59375,-19.25
581,1697629205,0.39379883,-1.0828247,0.018005371,24.75,-8.84375,0.109375
582,1697629245,0.23168945,-0.9859009,0.07611084,4.421875,-13.09375,12.21875
583,1697629285,-0.067871094,-1.0662231,0.12445068,-1.25,-21.625,14.234375
584,1697629325,-0.14404297,-1.0457153,0.16937256,4.09375,-19.390625,8.703125
585,1697629365,-0.051513672,-0.97003174,0.22015381,9.859375,3.125,7.984375
586,1697629405,-0.060302734,-0.81915283,0.06585693,-3.5625,9.6875,0.8125
587,1697629445,0.08227539,-0.8357544,0.016784668,9.140625,-3.734375,1.875
588,1697629485,0.20483398,-1.0264282,0.26507568,3.078125,1.28125,3.96875
589,1697629525,0.06567383,-1.0237427,0.18084717,-9.15625,-4.453125,-5.859375
590,1697629565,-0.13208008,-0.8892212,-0.16973877,-16.28125,-10.21875,-14.34375
591,1697629605,-0.22753906,-1.0457153,-0.08306885,-13.78125,16.6875,-2.5
592,1697629645,0.19946289,-1.289856,-0.061340332,-23.953125,7.046875,9.25
593,1697629685,0.3178711,-1.1135864,0.2387085,13.59375,4.375,-1.625
594,1697629725,0.10961914,-1.0115356,0.039001465,5.125,-6.25,-0.140625
595,1697629765,-0.32421875,-0.9944458,0.014099121,-4.765625,23.1875,6.3125
596,1697629805,-0.21508789,-0.82818604,-0.14312744,14.0,18.09375,9.484375
597,1697629845,0.07348633,-0.5581665,-0.08380127,-1.859375,2.0625,-2.453125
598,1697629885,-0.020019531,-1.1487427,-0.028381348,-2.953125,1.140625,-8.390625
599,1697629925,-0.118896484,-1.1118774,0.32489014,16.453125,10.359375,6.921875
600,1697629965,-0.038085938,-1.1065063,0.1239624,-16.390625,2.984375,1.578125
601,1697630005,-0.05883789,-0.97076416,0.0446167,-11.71875,-0.46875,-10.421875
602,1697630045,-0.09716797,-0.9036255,0.1593628,-20.015625,11.484375,-7.859375
603,1697630085,-0.0390625,-1.0723267,-0.070129395,-32.328125,-7.453125,-13.546875
604,1697630125,0.15917969,-1.2307739,0.14569092,14.21875,-4.46875,-13.8125
605,1697630165,0.35498047,-1.0012817,0.13446045,9.71875,-2.328125,-6.546875
606,1697630205,0.17089844,-0.86553955,0.11785889,-6.203125,-16.8125,3.4375
607,1697630245,-0.13647461,-1.0786743,0.098083496,-11.578125,-24.203125,14.53125
608,1697630285,-0.10205078,-1.0786743,0.28167725,12.28125,-5.0,9.75
609,1697630325,0.029785156,-0.9260864,0.25750732,17.265625,1.71875,6.171875
610,1697630365,-0.017333984,-0.7908325,0.12225342,0.796875,9.671875,5.65625
611,1697630405,0.06616211,-0.800354,0.08343506,-4.484375,3.3125,1.671875
612,1697630445,0.23828125,-0.97198486,0.26800537,-3.0625,-3.75,2.34375
613,1697630485,0.17358398,-1.071106,0.37371826,-5.484375,-1.046875,1.609375
614,1697630525,-0.11010742,-0.833313,0.113464355,-16.4375,-8.5,-11.15625
615,1697630565,-0.23828125,-0.9348755,-0.03375244,-15.59375,0.5,-11.171875
616,1697630605,-0.16479492,-1.1116333,0.012390137,-26.046875,24.90625,1.234375
617,1697630645,0.32348633,-1.3347778,0.23431396,8.953125,5.65625,6.90625
618,1697630685,0.39794922,-1.0083618,0.14837646,13.09375,4.109375,0.28125
619,1697630725,0.11450195,-1.0032349,0.07659912,-1.40625,-11.796875,4.125
620,1697630765,-0.29125977,-1.0513306,0.16790771,-0.203125,-5.9375,1.21875
621,1697630805,-0.29296875,-0.862854,0.026306152,35.734375,-6.53125,-5.609375
622,1697630845,-0.12060547,-0.8179321,-0.0256958,13.40625,0.15625,-0.875
623,1697630885,0.014404297,-0.942688,0.05706787,7.375,8.34375,4.25
624,1697630925,0.042236328,-1.0300903,0.1239624,10.546875,2.109375,2.0
625,1697630965,-0.034179688,-1.0327759,0.13079834,-5.453125,-9.78125,1.5625
626,1697631005,-0.057861328,-1.0359497,0.17962646,-5.828125,-7.71875,3.359375
627,1697631045,-0.099853516,-0.94732666,0.1161499,-8.359375,-3.734375,1.03125
628,1697631085,-0.15698242,-1.078186,0.013122559,-23.625,-8.34375,-5.0
629,1697631125,0.15258789,-1.130188,0.1708374,8.4375,-12.421875,-12.375
630,1697631165,0.18164062,-1.0596313,0.09954834,10.03125,-9.125,-4.484375
631,1697631205,0.123291016,-0.92266846,0.098083496,3.34375,1.1875,1.890625
632,1697631245,0.0017089844,-0.99957275,0.11004639,-3.84375,-13.953125,6.53125
633,1697631285,0.024658203,-1.1033325,0.24383545,-6.015625,-15.078125,5.828125
634,1697631325,0.08886719,-1.0171509,0.28900146,7.421875,-1.859375,5.359375
635,1697631365,0.016845703,-0.9158325,0.18206787,17.921875,8.234375,5.3125
636,1697631405,-0.08886719,-0.80914307,0.038513184,24.625,4.34375,5.03125
637,1697631445,0.0,-0.8562622,0.066833496,11.9375,1.171875,6.5
638,1697631485,0.1887207,-0.97491455,0.21990967,1.171875,3.609375,3.5
639,1697631525,0.17089844,-1.0151978,0.25115967,-4.4375,-1.78125,-1.71875
640,1697631565,0.011962891,-0.9204712,0.1161499,-10.40625,-9.9375,-8.8125
641,1697631605,-0.17407227,-1.0713501,-0.0791626,-28.359375,-1.765625,-7.1875
642,1697631645,-0.01171875,-1.1536255,-0.00030517578,-9.0625,14.875,3.484375
643,1697631685,0.32202148,-1.159729,0.10638428,9.984375,15.78125,5.984375
644,1697631725,0.25341797,-0.8928833,0.026550293,7.59375,4.28125,-0.921875
645,1697631765,0.03564453,-1.0523071,-0.019348145,-0.875,-15.46875,2.0625
646,1697631805,-0.21240234,-0.9951782,0.14422607,-5.828125,-0.25,-0.328125
647,1697631845,-0.16503906,-0.9067993,-0.023986816,19.046875,-1.375,-8.109375
648,1697631885,-0.050048828,-0.8982544,-0.039367676,2.546875,-5.609375,-2.921875
649,1697631925,-0.05053711,-0.97662354,0.04486084,5.53125,7.203125,2.796875
650,1697631965,-0.02368164,-0.9812622,0.040222168,10.109375,3.21875,1.171875
651,1697632005,-0.0107421875,-1.0078735,0.0836792,-4.421875,-4.34375,-1.703125
652,1697632045,-0.038330078,-1.0359497,0.12542725,-10.296875,-4.734375,-0.703125
653,1697632085,-0.1105957,-1.0044556,0.10272217,-12.6875,-5.203125,-0.5
654,1697632125,-0.13061523,-1.0908813,-0.038635254,-27.890625,-8.40625,-8.3125
655,1697632165,0.125,-1.0701294,0.10784912,14.46875,-2.28125,-12.921875
656,1697632205,0.2290039,-1.0274048,0.024597168,10.84375,-7.640625,-1.703125
657,1697632245,0.18310547,-0.93585205,0.12445068,-0.71875,-4.265625,3.953125
658,1697632285,0.016845703,-0.98760986,0.11053467,-2.71875,-17.625,6.9375
659,1697632325,-0.07324219,-1.052063,0.18255615,-0.59375,-15.46875,2.90625
660,1697632365,0.017578125,-1.0183716,0.20233154,6.109375,-2.140625,5.890625
661,1697632405,0.0,-0.8960571,0.11273193,2.328125,5.25,5.171875
662,1697632445,0.03125,-0.84259033,0.061706543,11.171875,-2.296875,3.625
663,1697632485,0.11254883,-0.9793091,0.17596436,-1.984375,-2.0,5.234375
664,1697632525,0.15161133,-1.0425415,0.31903076,-2.390625,-0.15625,5.015625
665,1697632565,0.013671875,-0.9585571,0.1942749,-6.125,-1.6875,-1.265625
666,1697632605,-0.09399414,-0.8804321,0.04046631,-17.71875,-0.984375,-8.46875
667,1697632645,-0.20898438,-1.1218872,-0.026428223,-30.546875,12.75,-4.625
668,1697632685,0.051513672,-1.2249146,0.0836792,-6.15625,18.40625,-0.25
669,1697632725,0.42895508,-1.1260376,0.17401123,11.828125,12.671875,4.140625
670,1697632765,0.27172852,-0.8748169,0.005554199,10.140625,-2.90625,1.265625
671,1697632805,-0.12011719,-1.0195923,0.039245605,-7.484375,-10.03125,1.21875
672,1697632845,-0.30419922,-0.9553833,0.11883545,3.6875,0.234375,-2.828125
673,1697632885,-0.19018555,-0.819397,-0.065979004,21.546875,3.703125,-7.453125
674,1697632925,0.024169922,-0.9085083,-0.046691895,3.765625,1.140625,-2.171875
675,1697632965,0.08251953,-1.0210571,0.117614746,3.78125,4.96875,2.0625
676,1697633005,-0.017578125,-1.083313,0.13201904,-4.3125,-4.015625,-0.609375
677,1697633045,-0.15356445,-1.0100708,0.10345459,-20.15625,-8.71875,-5.453125
678,1697633085,-0.1315918,-1.0066528,-0.00030517578,-9.921875,-7.25,-5.21875
679,1697633125,0.28442383,-1.0178833,0.07269287,10.390625,2.671875,-6.875
680,1697633165,0.4025879,-1.0588989,0.1251831,6.359375,-8.515625,-2.421875
681,1697633205,0.13183594,-1.0811157,0.12884521,-2.234375,-23.1875,7.515625
682,1697633245,-0.16577148,-1.1001587,0.22821045,-2.140625,-13.171875,13.078125
683,1697633285,-0.16357422,-0.99298096,0.22772217,7.875,0.34375,3.921875
684,1697633325,0.0009765625,-0.89385986,0.15887451,0.796875,3.796875,-1.25
685,1697633365,0.15063477,-0.84820557,0.13104248,7.8125,2.484375,0.84375
686,1697633405,0.16113281,-0.9199829,0.16131592,3.984375,-1.53125,8.28125
687,1697633445,0.09326172,-0.9607544,0.28167725,-9.109375,0.046875,9.0625
688,1697633485,-0.009521484,-0.93536377,0.2526245,-4.734375,-6.09375,-3.671875
689,1697633525,-0.067871094,-0.9180298,0.11077881,-5.46875,-3.765625,-15.3125
690,1697633565,-0.0925293,-1.0813599,0.045837402,-18.765625,9.875,-11.28125
691,1697633605,-0.09692383,-1.0840454,0.10467529,-6.625,23.8125,7.421875
692,1697633645,0.22216797,-1.0942993,0.01776123,11.265625,10.796875,4.140625
693,1697633685,0.3876953,-0.98394775,0.06781006,11.984375,-0.1875,-1.6875
694,1697633725,0.040039062,-1.1497192,0.109558105,3.4375,-10.859375,3.0625
695,1697633765,-0.25048828,-1.0220337,0.14276123,6.046875,0.1875,5.359375
696,1697633805,-0.20678711,-0.8147583,-0.049865723,23.9375,3.78125,-3.84375
697,1697633845,-0.051757812,-0.84088135,-0.081848145,10.078125,-3.234375,-4.8125
698,1697633885,-0.0087890625,-1.0264282,0.06781006,5.046875,0.625,1.78125
699,1697633925,-0.020263672,-1.0186157,0.08050537,8.25,5.40625,1.28125
700,1697633965,-0.03564453,-0.97735596,0.027526855,-3.40625,-3.953125,-2.9375
701,1697634005,-0.016357422,-0.9651489,0.085876465,-12.1875,-4.078125,-3.0625
702,1697634045,-0.07299805,-1.0803833,-0.10479736,-23.15625,-13.65625,-2.90625
703,1697634085,0.05517578,-1.0371704,0.13153076,5.5,-5.046875,-12.484375
704,1697634125,0.2590332,-1.0772095,0.044128418,14.03125,-7.421875,-5.25
705,1697634165,0.20654297,-1.0564575,0.124938965,-6.71875,-7.875,0.96875
706,1697634205,-0.05444336,-1.0491333,0.12225342,1.53125,-13.125,9.90625
707,1697634245,-0.052734375,-1.034729,0.15252686,-2.515625,-9.25,5.453125
708,1697634285,0.072021484,-0.98809814,0.19281006,6.796875,0.125,4.125
709,1697634325,0.052001953,-0.8982544,0.1329956,7.265625,0.875,4.53125
710,1697634365,0.052978516,-0.84869385,0.08050537,5.75,-3.75,8.46875
711,1697634405,0.052490234,-0.9480591,0.14935303,-5.5625,-0.734375,7.46875
712,1697634445,0.067871094,-0.9990845,0.26190186,-2.03125,-1.5,0.453125
713,1697634485,-0.015625,-0.96759033,0.20501709,-7.296875,-1.484375,-10.546875
714,1697634525,-0.17163086,-1.0283813,-0.086242676,-36.71875,-2.34375,-14.09375
715,1697634565,-0.075927734,-1.1338501,0.02947998,-23.28125,20.359375,-4.109375
716,1697634605,0.32373047,-1.1985474,0.12884521,15.515625,19.640625,7.65625
717,1697634645,0.2734375,-0.81866455,0.06512451,6.671875,8.265625,3.875
718,1697634685,0.20263672,-0.80059814,-0.11114502,9.4375,-23.546875,1.53125
719,1697634725,-0.2121582,-1.1682739,0.15203857,-23.5625,-0.359375,2.5
720,1697634765,-0.2644043,-0.9714966,0.09466553,27.8125,-2.65625,-1.78125
721,1697634805,-0.115722656,-0.8389282,-0.050109863,14.484375,-5.484375,-6.046875
722,1697634845,-0.056396484,-0.98883057,0.03338623,-2.765625,4.96875,-2.046875
723,1697634885,-0.06567383,-1.1260376,0.16033936,8.109375,6.6875,1.0625
724,1697634925,0.004638672,-1.0733032,0.093933105,7.25,-0.46875,3.53125
725,1697634965,0.024169922,-0.9956665,0.070739746,-12.09375,2.015625,0.09375
726,1697635005,-0.055419922,-0.973938,0.117126465,-5.609375,1.3125,-1.71875
727,1697635045,-0.09277344,-0.9939575,0.044128418,-14.0,-5.703125,-2.28125
728,1697635085,-0.13012695,-1.0525513,0.0048217773,-10.21875,-6.015625,-14.34375
729,1697635125,0.20898438,-1.0305786,0.12542725,22.9375,4.703125,-10.1875
730,1697635165,0.3894043,-1.0532837,0.18914795,-5.265625,0.21875,1.265625
731,1697635205,0.09350586,-1.0278931,0.1437378,-12.515625,-13.15625,3.8125
732,1697635245,-0.09790039,-1.0696411,0.2074585,7.515625,-14.265625,9.8125
733,1697635285,-0.013183594,-0.9807739,0.22332764,7.140625,6.65625,8.203125
734,1697635325,-0.008544922,-0.8543091,0.13006592,13.5,3.3125,1.640625
735,1697635365,0.05126953,-0.82281494,0.11248779,14.9375,-6.65625,3.5625
736,1697635405,0.09643555,-0.9282837,0.21258545,-1.015625,7.90625,7.109375
737,1697635445,0.099609375,-0.956604,0.21624756,-6.46875,1.828125,-1.375
738,1697635485,0.021484375,-1.0044556,0.05657959,-9.3125,-11.75,-14.296875
739,1697635525,-0.10913086,-1.0567017,-0.008605957,-20.109375,9.15625,-3.5
740,1697635565,-0.13574219,-1.1343384,-0.097961426,-12.0625,19.796875,8.28125
741,1697635605,0.3305664,-1.1140747,0.059020996,5.578125,6.5625,2.671875
742,1697635645,0.24975586,-0.98638916,0.10443115,16.390625,-7.625,-2.453125
743,1697635685,-0.13598633,-1.1958618,0.055358887,-18.203125,-3.140625,-3.4375
744,1697635725,-0.23242188,-0.95928955,0.047546387,14.359375,2.03125,-1.59375
745,1697635765,-0.10229492,-0.8086548,-0.101379395,18.8125,2.671875,-4.25
746,1697635805,0.032958984,-0.8726196,-0.051574707,9.71875,-6.703125,-2.578125
747,1697635845,0.0029296875,-1.0029907,0.03704834,9.453125,-1.8125,3.296875
748,1697635885,-0.045898438,-0.99542236,0.020690918,3.390625,-4.40625,3.5625
749,1697635925,-0.07348633,-1.0003052,0.05731201,-5.078125,-8.703125,-4.015625
750,1697635965,-0.15649414,-0.96343994,0.054870605,-11.890625,-7.015625,-3.859375
751,1697636005,-0.040527344,-1.024231,-0.08453369,-17.015625,-9.484375,-9.96875
752,1697636045,0.2783203,-1.0930786,0.10760498,13.578125,-6.453125,-11.59375
753,1697636085,0.3046875,-1.1431274,0.09539795,-1.890625,-16.265625,-0.078125
754,1697636125,0.013183594,-1.0276489,0.11834717,-1.84375,-14.90625,7.390625
755,1697636165,-0.19140625,-0.9768677,0.08465576,2.234375,-14.46875,4.546875
756,1697636205,-0.012207031,-0.9590454,0.1005249,-1.46875,-3.234375,1.109375
757,1697636245,0.12939453,-0.9829712,0.17572021,1.375,0.140625,4.59375
758,1697636285,0.09033203,-0.9085083,0.08050537,9.640625,-5.84375,11.734375
759,1697636325,0.033447266,-0.90948486,0.1071167,-0.3125,-3.609375,11.59375
