,timestamp,accel_x,accel_y,accel_z,gyro_x,gyro_y,gyro_z,ind
0,1695742111139,-0.27148438,-0.93341064,0.3336792,5.390625,2.515625,1.421875,16
1,1695742111179,-0.2578125,-0.8916626,0.2855835,3.703125,-1.90625,1.421875,17
2,1695742111219,-0.28588867,-0.8245239,0.18572998,28.5625,-13.5625,-0.546875,18
3,1695742111259,-0.1953125,-0.9006958,0.2838745,24.96875,-6.1875,7.84375,19
4,1695742111299,-0.26220703,-1.0066528,0.276062,20.609375,-19.0,15.796875,20
5,1695742111339,-0.19482422,-1.0217896,0.23431396,5.796875,1.03125,9.0625,21
6,1695742111379,-0.22436523,-0.9561157,0.22039795,6.65625,-0.078125,2.59375,22
7,1695742111419,-0.24047852,-0.98150635,0.24481201,2.796875,1.78125,3.375,23
8,1695742111459,-0.20922852,-0.9783325,0.21063232,3.46875,1.671875,2.859375,24
9,1695742111499,-0.20947266,-0.9697876,0.21624756,8.71875,3.34375,4.875,25
10,1695742111539,-0.27246094,-0.99591064,0.16204834,17.5625,11.4375,10.453125,26
11,1695742111579,-0.041748047,-0.8206177,0.20281982,1.484375,6.03125,2.78125,27
12,1695742111619,-0.28564453,-1.1245728,0.34832764,-13.15625,-0.703125,-1.796875,28
13,1695742111659,-0.16333008,-0.85284424,0.12542725,-27.796875,-5.4375,-8.421875,29
14,1695742111699,-0.20605469,-0.9680786,0.29388428,-14.90625,-3.71875,-6.875,30
15,1695742111739,-0.21118164,-0.93585205,0.23309326,8.484375,4.734375,-2.375,31
16,1695742111779,-0.1772461,-1.0361938,0.21136475,1.40625,6.296875,2.984375,32
17,1695742111819,-0.18261719,-0.9216919,0.23480225,10.796875,8.671875,3.28125,33
18,1695742111859,-0.23461914,-0.97613525,0.24383545,11.046875,6.421875,7.09375,34
19,1695742111899,-0.16748047,-0.9656372,0.22039795,9.953125,4.421875,5.328125,35
20,1695742111939,-0.20532227,-0.98150635,0.18695068,6.703125,1.515625,6.84375,36
21,1695742111979,-0.018310547,-0.9048462,0.16937256,4.421875,22.40625,5.5,37
22,1695742112019,-0.32250977,-1.1282349,0.3793335,-6.40625,0.75,2.671875,38
23,1695742112059,-0.072021484,-0.9961548,0.33343506,-29.296875,-16.84375,-16.765625,39
24,1695742112099,-0.22363281,-0.79937744,0.14813232,-29.609375,-1.5625,-9.484375,40
25,1695742112139,-0.18139648,-0.9690552,0.33465576,-11.671875,5.921875,-6.828125,41
26,1695742112179,-0.24975586,-1.0288696,0.2909546,-16.640625,7.25,-4.46875,42
27,1695742112219,-0.15576172,-0.8933716,0.3053589,-3.53125,17.34375,-1.59375,43
28,1695742112259,-0.21240234,-0.91656494,0.3307495,-5.28125,15.234375,-3.046875,44
29,1695742112299,-0.30981445,-0.98272705,0.38983154,-0.15625,14.46875,-1.65625,45
30,1695742112339,-0.26904297,-0.92510986,0.293396,0.734375,15.75,-3.03125,46
31,1695742112379,-0.17797852,-0.91412354,0.3949585,-3.1875,14.171875,-3.921875,47
32,1695742112419,-0.22485352,-0.9194946,0.37127686,-4.765625,5.34375,-2.828125,48
33,1695742112459,-0.20605469,-0.8880005,0.31463623,-5.328125,-2.0,-3.046875,49
34,1695742112499,-0.23632812,-0.87384033,0.31732178,12.34375,0.328125,-3.21875,50
35,1695742112539,-0.25,-0.9302368,0.22650146,19.890625,1.234375,-2.1875,51
36,1695742112579,-0.1472168,-0.9031372,0.2929077,20.34375,4.796875,-1.578125,52
37,1695742112619,-0.20239258,-0.9795532,0.34368896,26.03125,-3.25,3.734375,53
38,1695742112659,-0.14453125,-0.95758057,0.24603271,11.78125,7.328125,4.78125,54
39,1695742112699,-0.2109375,-0.9290161,0.23138428,15.46875,0.515625,7.09375,55
40,1695742112739,-0.18139648,-0.99713135,0.22747803,12.625,-1.671875,4.734375,56
41,1695742112779,-0.20800781,-0.9805298,0.21160889,11.828125,-1.546875,3.09375,57
42,1695742112819,-0.1809082,-0.989563,0.19329834,7.546875,-1.796875,1.21875,58
43,1695742112859,-0.20507812,-0.9956665,0.18011475,3.484375,-2.40625,0.59375,59
44,1695742112899,-0.18261719,-0.9727173,0.16253662,3.8125,-1.984375,0.28125,60
45,1695742112939,-0.20288086,-0.9729614,0.17376709,3.296875,-1.0,1.75,61
46,1695742112979,-0.19458008,-0.9898071,0.18743896,4.625,-0.234375,3.34375,62
47,1695742113019,-0.2265625,-0.9854126,0.1149292,8.734375,9.078125,10.859375,63
48,1695742113059,-0.24902344,-0.8743286,0.17913818,-6.0625,-4.96875,2.78125,64
49,1695742113099,-0.20092773,-1.1367798,0.31463623,-6.984375,-8.765625,-2.71875,65
50,1695742113139,-0.17529297,-0.91900635,0.07757568,-49.59375,-15.75,-11.15625,66
51,1695742113179,-0.13256836,-0.92755127,0.2975464,-12.171875,-6.25,-8.96875,67
52,1695742113219,-0.17529297,-0.94415283,0.22406006,0.0625,-6.140625,-3.5,68
53,1695742113259,-0.15576172,-0.9885864,0.2597046,5.015625,2.84375,1.359375,69
54,1695742113299,-0.22729492,-0.96173096,0.2243042,9.796875,1.875,5.0,70
55,1695742113339,-0.21777344,-0.9854126,0.23577881,8.546875,1.5625,4.421875,71
56,1695742113379,-0.1694336,-0.9002075,0.16546631,-4.953125,-0.875,1.84375,72
57,1695742113419,-0.25048828,-1.0425415,0.32318115,-9.59375,-5.8125,-2.59375,73
58,1695742113459,-0.20996094,-0.9065552,0.2345581,-6.34375,0.328125,-3.265625,74
59,1695742113499,-0.22167969,-0.9644165,0.18084717,-2.59375,-3.703125,-2.515625,75
60,1695742113539,-0.21240234,-0.9668579,0.23773193,1.359375,2.46875,0.234375,76
61,1695742113579,-0.19824219,-0.87579346,0.23016357,8.203125,4.203125,3.984375,77
62,1695742113619,-0.21191406,-1.0474243,0.23626709,2.984375,0.28125,6.234375,78
63,1695742113659,-0.17382812,-0.9343872,0.20794678,-11.21875,-0.015625,-2.015625,79
64,1695742113699,-0.21044922,-0.9885864,0.23309326,-6.171875,-1.546875,-3.78125,80
65,1695742113739,-0.19702148,-0.9741821,0.28948975,-8.53125,-3.640625,-5.171875,81
66,1695742113779,-0.23657227,-0.97784424,0.2892456,-15.90625,-8.171875,-9.53125,82
67,1695742113819,-0.23071289,-0.90826416,0.2843628,-21.390625,-1.609375,-7.5625,83
68,1695742113859,-0.25317383,-0.9121704,0.33221436,-10.9375,2.1875,-4.046875,84
69,1695742113899,-0.27514648,-0.94000244,0.34906006,-4.375,9.4375,-0.90625,85
70,1695742113939,-0.25976562,-0.9505005,0.29559326,-9.453125,6.296875,-0.765625,86
71,1695742113979,-0.28271484,-0.92681885,0.33709717,-1.6875,9.5,-3.015625,87
72,1695742114019,-0.25024414,-0.90045166,0.30975342,3.90625,8.6875,-1.265625,88
73,1695742114059,-0.25439453,-0.9356079,0.32928467,4.328125,9.515625,-1.578125,89
74,1695742114099,-0.24072266,-0.9644165,0.3619995,6.6875,5.328125,1.03125,90
75,1695742114139,-0.20947266,-0.93414307,0.34295654,3.859375,10.03125,-0.078125,91
76,1695742114179,-0.203125,-0.89508057,0.3151245,6.03125,8.5,1.640625,92
77,1695742114219,-0.2199707,-0.99176025,0.30804443,9.765625,7.03125,2.28125,93
78,1695742114259,-0.30566406,-0.86846924,0.32269287,13.203125,2.25,1.046875,94
79,1695742114299,-0.25219727,-0.79766846,0.17156982,44.03125,-12.984375,3.515625,95
80,1695742114339,-0.115722656,-0.90338135,0.16546631,14.53125,-11.171875,19.34375,96
81,1695742114379,-0.20507812,-1.0864868,0.2711792,11.484375,-11.421875,3.390625,97
82,1695742114419,-0.20263672,-0.9729614,0.19598389,3.625,-9.265625,5.625,98
83,1695742114459,-0.13256836,-1.0435181,0.2243042,-2.4375,-4.875,-1.09375,99
84,1695742114499,-0.2055664,-0.96417236,0.19476318,2.953125,-0.546875,-1.03125,100
85,1695742114539,-0.20141602,-0.97052,0.20062256,3.734375,-3.96875,3.390625,101
86,1695742114579,-0.19726562,-0.93048096,0.12786865,-3.515625,1.25,0.234375,102
87,1695742114619,-0.19848633,-1.0095825,0.19696045,-2.15625,4.96875,-0.03125,103
88,1695742114659,-0.22070312,-1.022522,0.2538452,-4.046875,6.359375,-1.640625,104
89,1695742114699,-0.20141602,-0.9746704,0.23675537,-1.703125,-0.5,-0.03125,105
90,1695742114739,-0.23852539,-0.9121704,0.1749878,5.96875,3.09375,2.671875,106
91,1695742114779,-0.16210938,-0.99005127,0.13372803,4.140625,1.234375,1.828125,107
92,1695742114819,-0.20166016,-0.928772,0.24749756,4.375,1.0,2.78125,108
93,1695742114859,-0.19506836,-1.0020142,0.16888428,-3.78125,-3.1875,0.734375,109
94,1695742114899,-0.15527344,-0.9524536,0.1642456,-10.46875,3.609375,-2.078125,110
95,1695742114939,-0.19482422,-1.0064087,0.22064209,-7.90625,4.421875,-4.859375,111
96,1695742114979,-0.23168945,-1.0064087,0.2975464,1.140625,2.09375,-1.46875,112
97,1695742115019,-0.24926758,-0.9026489,0.11785889,0.28125,0.125,0.03125,113
98,1695742115059,-0.15234375,-1.0122681,0.17254639,3.859375,4.25,2.71875,114
99,1695742115099,-0.1706543,-0.9338989,0.23968506,10.90625,3.875,5.84375,115
100,1695742115139,-0.18896484,-1.0444946,0.16326904,-2.71875,-3.890625,2.125,116
101,1695742115179,-0.16552734,-0.96099854,0.17523193,-9.40625,4.625,-0.34375,117
102,1695742115219,-0.19897461,-1.0142212,0.2579956,-9.4375,5.546875,-6.203125,118
103,1695742115259,-0.20361328,-0.94610596,0.2789917,-5.59375,0.984375,-4.703125,119
104,1695742115299,-0.20800781,-1.0291138,0.30096436,-17.703125,-8.796875,-10.5,120
105,1695742115339,-0.21386719,-0.95196533,0.24578857,-29.359375,-6.328125,-12.765625,121
106,1695742115379,-0.23510742,-0.91412354,0.33880615,-12.1875,8.578125,-4.390625,122
107,1695742115419,-0.22314453,-0.9685669,0.32855225,-13.921875,8.0625,-0.25,123
108,1695742115459,-0.23168945,-0.91534424,0.35736084,-1.265625,6.359375,-3.796875,124
109,1695742115499,-0.24560547,-0.9158325,0.28411865,-1.0,7.53125,0.265625,125
110,1695742115539,-0.23364258,-0.9290161,0.32659912,4.09375,5.59375,0.578125,126
111,1695742115579,-0.24072266,-0.9319458,0.31658936,2.375,5.5625,0.546875,127
112,1695742115619,-0.24072266,-0.911438,0.3324585,0.203125,1.53125,0.515625,128
113,1695742115659,-0.22021484,-0.91729736,0.28948975,-0.890625,-3.359375,0.671875,129
114,1695742115699,-0.2319336,-0.91729736,0.2543335,8.671875,-3.90625,-1.140625,130
115,1695742115739,-0.23999023,-0.9204712,0.2741089,25.21875,-5.625,1.4375,131
116,1695742115779,-0.18652344,-0.84381104,0.25701904,20.25,-16.375,17.703125,132
117,1695742115819,-0.18408203,-1.1594849,0.2489624,24.078125,-5.734375,11.234375,133
118,1695742115859,-0.1652832,-0.9048462,0.16571045,-4.59375,3.546875,-0.546875,134
119,1695742115899,-0.21508789,-1.0098267,0.22723389,-4.78125,5.421875,-0.65625,135
120,1695742115939,-0.24536133,-1.0479126,0.31072998,-5.171875,8.90625,-1.3125,136
121,1695742115979,-0.17260742,-0.9624634,0.33587646,-1.546875,0.34375,-0.5625,137
122,1695742116019,-0.22558594,-0.88409424,0.14398193,-5.9375,-0.09375,0.6875,138
123,1695742116059,-0.23608398,-0.94415283,0.21990967,6.828125,2.796875,3.53125,139
124,1695742116099,-0.1538086,-0.93927,0.2020874,8.0,-2.15625,4.484375,140
125,1695742116139,-0.23413086,-1.0484009,0.2387085,-1.21875,3.546875,1.28125,141
126,1695742116179,-0.18554688,-0.96221924,0.25457764,-6.84375,3.875,-3.71875,142
127,1695742116219,-0.18969727,-0.98150635,0.2892456,-4.484375,4.546875,-3.609375,143
128,1695742116259,-0.21411133,-0.9951782,0.3168335,-4.296875,-3.578125,-2.03125,144
129,1695742116299,-0.21313477,-0.9002075,0.19818115,-13.34375,-1.265625,-1.140625,145
130,1695742116339,-0.21191406,-0.95758057,0.26385498,2.84375,4.640625,-1.546875,146
131,1695742116379,-0.2055664,-0.9163208,0.16107178,6.28125,0.140625,2.625,147
132,1695742116419,-0.17651367,-0.9607544,0.24066162,13.4375,3.046875,8.109375,148
133,1695742116459,-0.22631836,-0.96466064,0.1408081,-1.609375,9.109375,4.8125,149
134,1695742116499,-0.20214844,-0.9976196,0.28729248,-7.1875,-0.703125,-3.640625,150
135,1695742116539,-0.21020508,-0.95806885,0.26678467,-4.921875,-1.296875,-6.359375,151
136,1695742116579,-0.2043457,-0.9890747,0.31878662,-11.640625,-7.5625,-7.03125,152
137,1695742116619,-0.21704102,-0.9480591,0.26678467,-18.25,-6.375,-7.34375,153
138,1695742116659,-0.21313477,-0.9326782,0.29315186,-15.984375,-0.40625,-4.71875,154
139,1695742116699,-0.23876953,-0.9402466,0.32806396,-5.59375,4.953125,-3.203125,155
140,1695742116739,-0.24511719,-0.940979,0.31463623,1.203125,8.59375,-1.65625,156
141,1695742116779,-0.24536133,-0.9380493,0.35101318,6.28125,12.9375,-0.21875,157
142,1695742116819,-0.22851562,-0.9590454,0.28778076,0.1875,11.28125,1.21875,158
143,1695742116859,-0.22485352,-0.9356079,0.31536865,2.140625,11.734375,-1.671875,159
144,1695742116899,-0.21386719,-0.9221802,0.27752686,-2.3125,8.4375,0.375,160
145,1695742116939,-0.2241211,-0.9446411,0.3168335,4.421875,10.9375,0.9375,161
146,1695742116979,-0.21142578,-0.9421997,0.31072998,1.515625,5.859375,0.359375,162
147,1695742117019,-0.2241211,-0.94195557,0.31707764,4.03125,4.734375,0.234375,163
148,1695742117059,-0.21411133,-0.9439087,0.33392334,6.578125,7.765625,-0.703125,164
149,1695742117099,-0.20507812,-0.94537354,0.2975464,3.25,6.34375,0.921875,165
150,1695742117139,-0.21875,-0.9404907,0.30682373,4.125,4.859375,-0.203125,166
151,1695742117179,-0.20385742,-0.9483032,0.28094482,2.109375,5.375,0.234375,167
152,1695742117219,-0.20336914,-0.9417114,0.2736206,3.703125,6.09375,-0.03125,168
153,1695742117259,-0.19116211,-0.9458618,0.2694702,1.6875,5.640625,-0.515625,169
154,1695742117299,-0.1977539,-0.9331665,0.24285889,2.640625,4.984375,0.046875,170
155,1695742117339,-0.23388672,-0.9180298,0.25604248,5.890625,0.921875,-1.25,171
156,1695742117379,-0.21386719,-0.86431885,0.2140503,19.34375,-11.734375,-0.921875,172
157,1695742117419,-0.21166992,-0.8501587,0.2736206,25.6875,-45.40625,14.046875,173
158,1695742117459,-0.21289062,-1.1218872,0.1605835,3.5,-25.5625,13.953125,174
159,1695742117499,-0.13061523,-0.9680786,0.16741943,-1.9375,10.296875,1.359375,175
160,1695742117539,-0.20019531,-1.0337524,0.18499756,2.4375,10.015625,-1.796875,176
161,1695742117579,-0.21166992,-1.0276489,0.19744873,3.265625,16.0625,0.265625,177
162,1695742117619,-0.21899414,-0.99835205,0.25604248,4.421875,11.28125,1.609375,178
163,1695742117659,-0.17236328,-0.9155884,0.15301514,1.328125,4.828125,0.359375,179
164,1695742117699,-0.18334961,-0.9495239,0.18548584,5.734375,2.484375,1.203125,180
165,1695742117739,-0.20019531,-0.95562744,0.1671753,5.53125,-6.625,5.828125,181
166,1695742117779,-0.18676758,-0.97857666,0.1605835,3.53125,-14.4375,7.296875,182
167,1695742117819,-0.14233398,-1.0027466,0.18328857,-0.390625,-0.390625,1.40625,183
168,1695742117859,-0.125,-0.9627075,0.152771,-3.84375,5.984375,-0.46875,184
169,1695742117899,-0.14575195,-1.0122681,0.18450928,-4.671875,9.40625,-4.03125,185
170,1695742117939,-0.1616211,-1.0154419,0.23529053,-6.09375,3.703125,-3.515625,186
171,1695742117979,-0.19580078,-0.99591064,0.2074585,-7.65625,5.390625,-5.796875,187
172,1695742118019,-0.18652344,-0.94195557,0.17962646,-8.734375,9.625,-4.15625,188
173,1695742118059,-0.19165039,-0.9463501,0.17327881,-0.234375,8.375,-1.4375,189
174,1695742118099,-0.234375,-0.9043579,0.15716553,8.265625,-4.34375,6.046875,190
175,1695742118139,-0.1665039,-0.9961548,0.11444092,4.71875,-2.578125,6.53125,191
176,1695742118179,-0.14624023,-0.9480591,0.19378662,6.828125,-10.90625,3.453125,192
177,1695742118219,-0.15795898,-1.0005493,0.215271,-3.328125,4.90625,0.40625,193
178,1695742118259,-0.17651367,-1.006897,0.23480225,-6.234375,-2.84375,-1.859375,194
179,1695742118299,-0.17871094,-0.99420166,0.22064209,-5.640625,-0.671875,-2.1875,195
180,1695742118339,-0.17114258,-0.9793091,0.199646,-6.703125,-0.609375,-2.640625,196
181,1695742118379,-0.15356445,-0.90460205,0.17791748,-3.75,2.140625,-2.015625,197
182,1695742118419,-0.17578125,-0.97442627,0.21331787,-1.921875,4.953125,-1.609375,198
183,1695742118459,-0.17626953,-0.9898071,0.24505615,-2.90625,3.171875,-3.046875,199
184,1695742118499,-0.18359375,-0.9968872,0.2694702,-3.734375,5.34375,-4.75,200
185,1695742118539,-0.21801758,-0.9963989,0.2694702,-12.25,4.1875,-4.46875,201
186,1695742118579,-0.22338867,-0.95513916,0.23944092,-19.125,5.421875,-4.25,202
187,1695742118619,-0.21508789,-0.94000244,0.27166748,-7.21875,11.640625,-3.234375,203
188,1695742118659,-0.21508789,-0.940979,0.26849365,-2.109375,11.375,-0.984375,204
189,1695742118699,-0.19458008,-0.94610596,0.27825928,1.5,5.8125,-0.984375,205
190,1695742118739,-0.19335938,-0.93707275,0.28753662,0.234375,4.28125,-0.53125,206
191,1695742118779,-0.19458008,-0.9458618,0.29071045,-2.71875,2.3125,-0.171875,207
192,1695742118819,-0.21557617,-0.9373169,0.28485107,-2.390625,1.546875,-0.3125,208
193,1695742118859,-0.19970703,-0.9429321,0.27850342,-1.859375,-0.421875,-0.25,209
194,1695742118899,-0.21508789,-0.954895,0.28997803,1.65625,-2.15625,0.109375,210
195,1695742118939,-0.22314453,-0.9067993,0.26654053,10.90625,-8.53125,1.25,211
196,1695742118979,-0.18359375,-0.9019165,0.21575928,23.78125,-12.109375,2.71875,212
197,1695742119019,-0.17919922,-0.87628174,0.2999878,17.21875,-23.171875,13.109375,213
198,1695742119059,-0.2055664,-1.1101685,0.20477295,5.390625,-14.890625,7.078125,214
199,1695742119099,-0.18774414,-0.92388916,0.14715576,1.046875,-6.1875,4.640625,215
200,1695742119139,-0.14379883,-1.0012817,0.19110107,-3.28125,7.390625,0.28125,216
201,1695742119179,-0.19458008,-1.0178833,0.22454834,0.875,8.234375,-0.09375,217
202,1695742119219,-0.18457031,-1.0256958,0.30706787,0.109375,3.875,-0.234375,218
203,1695742119259,-0.20410156,-0.9817505,0.2086792,-3.5625,4.625,0.03125,219
204,1695742119299,-0.17529297,-0.89068604,0.1408081,1.5625,5.0,-0.625,220
205,1695742119339,-0.17626953,-0.9924927,0.20452881,2.953125,4.765625,-1.46875,221
206,1695742119379,-0.19140625,-0.944397,0.1954956,2.140625,0.09375,0.015625,222
207,1695742119419,-0.1899414,-0.9338989,0.14642334,2.203125,-11.671875,5.3125,223
208,1695742119459,-0.17358398,-1.0027466,0.2501831,0.8125,-8.8125,4.015625,224
209,1695742119499,-0.15649414,-0.9697876,0.16986084,-5.640625,5.140625,-0.390625,225
210,1695742119539,-0.16479492,-0.9998169,0.19329834,-3.359375,5.640625,-0.75,226
211,1695742119579,-0.21118164,-1.0134888,0.22406006,-3.953125,7.046875,-1.890625,227
212,1695742119619,-0.1652832,-1.0088501,0.277771,-4.25,7.109375,-2.125,228
213,1695742119659,-0.20898438,-0.9216919,0.18475342,-4.6875,4.03125,-2.25,229
214,1695742119699,-0.18310547,-0.95269775,0.23065186,2.109375,6.5,-0.859375,230
215,1695742119739,-0.1977539,-0.9429321,0.16326904,12.296875,-0.796875,4.1875,231
216,1695742119779,-0.16381836,-0.9487915,0.20477295,8.96875,-2.984375,5.25,232
217,1695742119819,-0.1418457,-1.0454712,0.2662964,5.828125,-0.5,4.25,233
218,1695742119859,-0.18237305,-0.9480591,0.17425537,-2.828125,3.96875,-0.1875,234
219,1695742119899,-0.16015625,-1.0108032,0.21502686,-4.5,3.578125,-2.921875,235
220,1695742119939,-0.17749023,-0.97906494,0.28338623,-2.84375,1.75,-3.03125,236
221,1695742119979,-0.19238281,-1.0120239,0.25042725,-10.453125,-3.78125,-3.609375,237
222,1695742120019,-0.15795898,-0.9307251,0.20452881,-8.921875,-0.28125,-3.421875,238
223,1695742120059,-0.1809082,-0.93829346,0.23480225,-6.375,2.453125,-2.984375,239
224,1695742120099,-0.1965332,-0.9741821,0.23699951,-1.328125,0.09375,-2.96875,240
225,1695742120139,-0.20385742,-0.98687744,0.25213623,-4.984375,3.875,-2.859375,241
226,1695742120179,-0.2121582,-0.9771118,0.277771,-8.71875,3.59375,-5.328125,242
227,1695742120219,-0.21777344,-0.94317627,0.260437,-13.46875,4.546875,-2.28125,243
228,1695742120259,-0.21606445,-0.9463501,0.30633545,-11.015625,1.75,-2.640625,244
229,1695742120299,-0.21264648,-0.9365845,0.31219482,-10.875,3.9375,-2.625,245
230,1695742120339,-0.23120117,-0.9326782,0.29388428,-5.078125,4.25,0.03125,246
231,1695742120379,-0.23999023,-0.9351196,0.3131714,-1.8125,0.578125,0.046875,247
232,1695742120419,-0.2277832,-0.94415283,0.32537842,-1.796875,-0.046875,0.171875,248
233,1695742120459,-0.2175293,-0.9089966,0.29193115,-2.3125,-2.359375,1.0,249
234,1695742120499,-0.20385742,-0.91778564,0.27166748,2.578125,-3.796875,0.5625,250
235,1695742120539,-0.2109375,-0.9312134,0.3053589,11.296875,-1.84375,-0.765625,251
236,1695742120579,-0.23510742,-0.942688,0.28094482,19.0625,-13.5625,3.671875,252
237,1695742120619,-0.19628906,-0.9241333,0.26531982,14.3125,-13.296875,8.796875,253
238,1695742120659,-0.2775879,-0.925354,0.15472412,22.953125,-10.53125,19.453125,254
239,1695742120699,-0.041503906,-1.0374146,0.24627686,5.203125,17.75,3.46875,255
240,1695742120739,-0.1796875,-0.97613525,0.26654053,4.09375,11.265625,0.859375,256
241,1695742120779,-0.22143555,-1.0393677,0.32781982,-3.953125,9.328125,-0.734375,257
242,1695742120819,-0.19311523,-1.0147095,0.34466553,-9.84375,-4.734375,-2.109375,258
243,1695742120859,-0.22607422,-0.90582275,0.1564331,-15.265625,-8.1875,-5.453125,259
244,1695742120899,-0.17089844,-0.9146118,0.13470459,13.46875,8.421875,4.609375,260
245,1695742120939,-0.1105957,-0.8899536,0.09466553,24.5625,7.78125,13.359375,261
246,1695742120979,-0.19213867,-1.1677856,0.27996826,2.390625,2.71875,6.828125,262
247,1695742121019,-0.12402344,-0.9295044,0.24822998,-6.859375,3.640625,-4.78125,263
248,1695742121059,-0.18920898,-0.9834595,0.2567749,-6.71875,-1.328125,-4.90625,264
249,1695742121099,-0.17163086,-0.987854,0.26971436,-8.96875,-4.03125,-5.21875,265
250,1695742121139,-0.19580078,-0.9561157,0.20428467,-15.765625,-5.5625,-3.890625,266
251,1695742121179,-0.16235352,-0.95269775,0.24261475,-9.203125,-0.71875,-2.859375,267
252,1695742121219,-0.16430664,-0.97442627,0.31072998,-0.65625,4.0625,-6.03125,268
253,1695742121259,-0.19750977,-0.9734497,0.2592163,-4.625,7.890625,-3.328125,269
254,1695742121299,-0.1965332,-0.9390259,0.27386475,2.921875,11.90625,-3.75,270
255,1695742121339,-0.22558594,-0.9741821,0.27069092,7.421875,15.390625,-0.015625,271
256,1695742121379,-0.18066406,-0.97076416,0.2616577,2.734375,12.15625,-1.6875,272
257,1695742121419,-0.18945312,-0.9373169,0.24749756,-4.90625,6.171875,-0.59375,273
258,1695742121459,-0.18481445,-0.9260864,0.26239014,-6.203125,-1.046875,-0.015625,274
259,1695742121499,-0.21582031,-0.93585205,0.28851318,-10.078125,-6.671875,-0.9375,275
260,1695742121539,-0.22021484,-0.9182739,0.22869873,-0.625,-14.53125,-0.0625,276
261,1695742121579,-0.15600586,-0.8491821,0.13494873,24.71875,-27.734375,10.5,277
262,1695742121619,-0.19848633,-1.050354,0.15789795,24.5625,-10.8125,15.296875,278
263,1695742121659,-0.21435547,-0.9651489,0.19891357,1.0625,7.15625,1.390625,279
264,1695742121699,-0.119384766,-0.99298096,0.2501831,-1.390625,9.21875,1.390625,280
265,1695742121739,-0.22363281,-1.0703735,0.3180542,0.09375,7.6875,-0.953125,281
266,1695742121779,-0.18115234,-0.99835205,0.31781006,1.296875,0.140625,-0.625,282
267,1695742121819,-0.13671875,-0.84454346,0.07513428,-1.8125,-1.515625,-1.453125,283
268,1695742121859,-0.14013672,-0.95758057,0.20037842,5.5,5.0625,0.71875,284
269,1695742121899,-0.13110352,-0.9273071,0.14276123,13.46875,2.625,5.375,285
270,1695742121939,-0.23828125,-1.0527954,0.2423706,4.1875,-8.09375,7.640625,286
271,1695742121979,-0.08154297,-0.97735596,0.21942139,0.796875,9.765625,-1.40625,287
272,1695742122019,-0.18969727,-1.0476685,0.2880249,-5.3125,0.5625,-3.71875,288
273,1695742122059,-0.17553711,-0.956604,0.22625732,-9.53125,-0.046875,-3.90625,289
274,1695742122099,-0.1809082,-0.9834595,0.24212646,-13.921875,-6.875,-4.828125,290
275,1695742122139,-0.17260742,-0.95440674,0.25482178,-4.71875,-1.3125,-4.0625,291
276,1695742122179,-0.18652344,-0.9619751,0.25408936,-4.59375,-0.328125,-5.8125,292
277,1695742122219,-0.1977539,-0.9780884,0.24334717,-6.46875,4.765625,-3.234375,293
278,1695742122259,-0.18896484,-0.96759033,0.25653076,-11.21875,1.890625,-3.546875,294
279,1695742122299,-0.21435547,-0.9414673,0.2658081,-10.59375,5.328125,-2.3125,295
280,1695742122339,-0.19238281,-0.94195557,0.3156128,-2.21875,7.140625,-2.0625,296
281,1695742122379,-0.20654297,-0.94781494,0.2592163,-8.046875,5.171875,-0.59375,297
282,1695742122419,-0.21166992,-0.9421997,0.293396,2.78125,7.140625,-1.234375,298
283,1695742122459,-0.21142578,-0.95635986,0.30706787,4.90625,9.78125,-0.75,299
284,1695742122499,-0.20776367,-0.9434204,0.2975464,1.515625,8.84375,1.3125,300
285,1695742122539,-0.18798828,-0.9402466,0.29486084,-1.1875,1.390625,0.515625,301
286,1695742122579,-0.1965332,-0.9546509,0.30682373,-0.640625,3.265625,-0.859375,302
287,1695742122619,-0.19042969,-0.9487915,0.2843628,-0.15625,3.0625,0.265625,303
288,1695742122659,-0.19995117,-0.96710205,0.29681396,2.265625,6.890625,-0.34375,304
289,1695742122699,-0.19824219,-0.94366455,0.2736206,1.671875,6.375,-0.828125,305
290,1695742122739,-0.18457031,-0.95513916,0.276062,4.015625,7.59375,-0.578125,306
291,1695742122779,-0.19262695,-0.9595337,0.293396,4.4375,10.609375,-0.578125,307
292,1695742122819,-0.18481445,-0.9414673,0.27044678,3.515625,8.140625,-0.625,308
293,1695742122859,-0.18774414,-0.9397583,0.27435303,3.515625,6.4375,-1.046875,309
294,1695742122899,-0.21582031,-0.88604736,0.3012085,5.265625,3.625,-0.265625,310
295,1695742122939,-0.16357422,-0.88482666,0.22332764,11.65625,-11.34375,-1.265625,311
296,1695742122979,-0.21655273,-0.8501587,0.31976318,32.125,-44.734375,9.890625,312
297,1695742123019,-0.21972656,-1.0532837,0.1395874,0.484375,-31.921875,20.5625,313
298,1695742123059,-0.056396484,-1.0300903,0.1942749,7.0,17.796875,0.25,314
299,1695742123099,-0.21826172,-1.0249634,0.17572021,3.296875,15.3125,-0.015625,315
300,1695742123139,-0.16455078,-1.0352173,0.22894287,5.828125,22.875,0.125,316
301,1695742123179,-0.18579102,-1.03302,0.3180542,6.734375,15.078125,-0.953125,317
302,1695742123219,-0.15478516,-0.913147,0.1642456,-2.859375,1.34375,-2.546875,318
303,1695742123259,-0.18041992,-0.91851807,0.15667725,1.65625,-3.3125,-0.078125,319
304,1695742123299,-0.18530273,-0.8960571,0.15374756,-0.515625,-14.421875,4.328125,320
305,1695742123339,-0.19335938,-1.0454712,0.13568115,-2.640625,-30.078125,11.65625,321
306,1695742123379,-0.0637207,-0.9973755,0.070739746,1.3125,12.84375,1.734375,322
307,1695742123419,-0.18676758,-1.0298462,0.17376709,5.796875,14.359375,1.015625,323
308,1695742123459,-0.16870117,-1.0298462,0.22845459,0.734375,16.484375,0.453125,324
309,1695742123499,-0.12084961,-1.0215454,0.22039795,-3.875,4.765625,-3.84375,325
310,1695742123539,-0.13549805,-0.97125244,0.19525146,-8.78125,9.953125,-6.96875,326
311,1695742123579,-0.14794922,-0.91485596,0.14837646,-7.109375,5.40625,-5.46875,327
312,1695742123619,-0.19433594,-0.9692993,0.19622803,-3.203125,5.09375,-4.328125,328
313,1695742123659,-0.18041992,-1.0044556,0.22357178,-5.453125,7.1875,-4.390625,329
314,1695742123699,-0.17089844,-0.9866333,0.26654053,-12.515625,3.578125,-2.90625,330
315,1695742123739,-0.18188477,-0.96173096,0.23968506,-17.890625,-1.375,-1.734375,331
316,1695742123779,-0.19824219,-0.9397583,0.23406982,-12.375,2.21875,-1.421875,332
317,1695742123819,-0.1796875,-0.9265747,0.24676514,-6.328125,0.5625,0.21875,333
318,1695742123859,-0.17675781,-0.9529419,0.26654053,-2.0,-1.0625,-0.28125,334
319,1695742123899,-0.18603516,-0.95269775,0.27703857,-2.234375,0.21875,0.625,335
320,1695742123939,-0.18066406,-0.9487915,0.27508545,-2.828125,-2.5,-0.03125,336
321,1695742123979,-0.18359375,-0.9319458,0.26678467,-5.46875,-2.828125,-0.3125,337
322,1695742124019,-0.23144531,-0.9451294,0.25897217,-4.75,-7.203125,0.484375,338
323,1695742124059,-0.15795898,-0.9072876,0.25091553,11.6875,-5.15625,-2.21875,339
324,1695742124099,-0.24853516,-0.8936157,0.2177124,22.84375,-30.3125,6.46875,340
325,1695742124139,-0.15112305,-0.89434814,0.28460693,18.59375,-24.171875,21.765625,341
326,1695742124179,-0.1538086,-1.0964966,0.18890381,11.3125,3.609375,8.28125,342
327,1695742124219,-0.16625977,-0.9673462,0.13763428,2.796875,10.25,3.125,343
328,1695742124259,-0.13452148,-1.0505981,0.2140503,-0.765625,14.296875,-0.15625,344
329,1695742124299,-0.16040039,-1.050354,0.31854248,-3.15625,0.5,-3.625,345
330,1695742124339,-0.16748047,-0.97003174,0.19598389,-8.09375,0.921875,-5.140625,346
331,1695742124379,-0.18188477,-0.8699341,0.12713623,1.828125,3.859375,-1.296875,347
332,1695742124419,-0.14746094,-0.98931885,0.19256592,0.890625,2.203125,-0.328125,348
333,1695742124459,-0.15551758,-0.9092407,0.17889404,2.921875,-4.65625,4.796875,349
334,1695742124499,-0.17138672,-1.0269165,0.21429443,7.0,-9.96875,7.546875,350
335,1695742124539,-0.1352539,-0.9680786,0.16351318,-4.453125,5.9375,-1.28125,351
336,1695742124579,-0.140625,-1.0213013,0.21429443,-4.34375,2.484375,-1.203125,352
337,1695742124619,-0.1862793,-1.0371704,0.2538452,-4.734375,5.609375,-3.328125,353
338,1695742124659,-0.17285156,-1.0037231,0.24969482,-4.265625,3.46875,-1.625,354
339,1695742124699,-0.15991211,-0.9302368,0.17596436,-12.21875,0.703125,-4.015625,355
340,1695742124739,-0.15405273,-0.9307251,0.21868896,-5.75,3.03125,-4.046875,356
341,1695742124779,-0.1850586,-0.98101807,0.25946045,-4.75,2.671875,-3.21875,357
342,1695742124819,-0.19726562,-1.003479,0.2741089,-14.703125,0.09375,-3.984375,358
343,1695742124859,-0.2006836,-0.9439087,0.27923584,-16.859375,1.359375,-4.9375,359
344,1695742124899,-0.19458008,-0.94122314,0.2819214,-13.375,3.5625,-3.015625,360
345,1695742124939,-0.21240234,-0.92193604,0.28485107,-2.59375,10.359375,-2.09375,361
346,1695742124979,-0.19824219,-0.9585571,0.3114624,5.6875,12.84375,-1.46875,362
347,1695742125019,-0.19628906,-0.96832275,0.30218506,6.015625,13.5625,-2.59375,363
348,1695742125059,-0.17773438,-0.95635986,0.29144287,2.46875,12.6875,-1.390625,364
349,1695742125099,-0.19970703,-0.95318604,0.30096436,4.828125,5.796875,-1.0,365
350,1695742125139,-0.18334961,-0.94366455,0.26556396,-3.71875,7.046875,-3.203125,366
351,1695742125179,-0.19067383,-0.96661377,0.32440186,5.046875,7.421875,-1.40625,367
352,1695742125219,-0.18457031,-0.9380493,0.2682495,0.46875,3.25,-0.71875,368
353,1695742125259,-0.18847656,-0.9199829,0.29437256,-0.640625,2.953125,-0.96875,369
354,1695742125299,-0.1743164,-0.90704346,0.22113037,2.015625,-5.421875,-0.296875,370
355,1695742125339,-0.21069336,-0.93170166,0.22796631,21.046875,-13.125,-0.265625,371
356,1695742125379,-0.14160156,-0.90045166,0.27386475,23.859375,-17.5,11.09375,372
357,1695742125419,-0.23876953,-1.0298462,0.21868896,13.046875,-17.875,11.828125,373
358,1695742125459,-0.14697266,-1.0122681,0.13909912,3.265625,-7.671875,7.28125,374
359,1695742125499,-0.15649414,-1.0037231,0.17132568,-1.25,8.46875,-0.015625,375
360,1695742125539,-0.15698242,-0.98638916,0.21160889,3.53125,18.625,-1.34375,376
361,1695742125579,-0.18920898,-1.0366821,0.2584839,2.28125,11.96875,1.5,377
362,1695742125619,-0.16015625,-1.0073853,0.2662964,-0.453125,10.515625,-3.875,378
363,1695742125659,-0.1628418,-0.9663696,0.18963623,-11.109375,7.96875,-5.140625,379
364,1695742125699,-0.1538086,-0.942688,0.24163818,-5.109375,13.203125,-3.53125,380
365,1695742125739,-0.18164062,-0.9885864,0.25579834,-3.703125,2.78125,-3.578125,381
366,1695742125779,-0.20141602,-0.95391846,0.24432373,-14.90625,1.9375,-2.125,382
367,1695742125819,-0.1887207,-0.9348755,0.24603271,-11.1875,0.421875,-1.125,383
368,1695742125859,-0.17626953,-0.9480591,0.25726318,-2.40625,1.0,0.40625,384
369,1695742125899,-0.17871094,-0.95928955,0.262146,-2.375,-2.734375,0.09375,385
370,1695742125939,-0.1899414,-0.92681885,0.2506714,-2.453125,-2.796875,0.71875,386
371,1695742125979,-0.18481445,-0.9573364,0.24285889,-0.34375,-8.609375,0.34375,387
372,1695742126019,-0.1899414,-0.92755127,0.19598389,13.375,-13.484375,0.390625,388
373,1695742126059,-0.17480469,-0.9492798,0.26190186,12.84375,-11.359375,4.03125,389
374,1695742126099,-0.19628906,-0.97125244,0.21673584,8.09375,-16.265625,7.140625,390
375,1695742126139,-0.18823242,-0.99224854,0.20062256,6.53125,-1.9375,5.671875,391
376,1695742126179,-0.16235352,-0.99786377,0.1618042,4.453125,0.265625,4.171875,392
377,1695742126219,-0.1772461,-1.0088501,0.21624756,4.90625,3.59375,1.640625,393
378,1695742126259,-0.17651367,-0.97247314,0.17645264,3.09375,2.578125,2.5,394
379,1695742126299,-0.16918945,-0.9468384,0.16815186,3.140625,5.3125,2.6875,395
380,1695742126339,-0.13720703,-1.0132446,0.12322998,0.015625,11.421875,0.0,396
381,1695742126379,-0.16601562,-1.0073853,0.22576904,5.0625,16.4375,0.578125,397
382,1695742126419,-0.15625,-1.0437622,0.25579834,2.046875,2.71875,-0.53125,398
383,1695742126459,-0.13598633,-0.9602661,0.19989014,-8.984375,-1.53125,-3.078125,399
384,1695742126499,-0.1586914,-0.9109497,0.18719482,-5.9375,-5.953125,-4.203125,400
385,1695742126539,-0.18310547,-0.9649048,0.20111084,-6.90625,-4.796875,-2.859375,401
386,1695742126579,-0.1862793,-0.9505005,0.15032959,-3.265625,-5.890625,1.0625,402
387,1695742126619,-0.19360352,-0.9248657,0.2321167,-2.171875,-8.03125,6.453125,403
388,1695742126659,-0.16455078,-1.0484009,0.17034912,2.78125,-4.765625,5.5625,404
389,1695742126699,-0.17260742,-0.93585205,0.18548584,0.6875,9.203125,2.296875,405
390,1695742126739,-0.16235352,-1.0154419,0.21478271,-1.203125,10.03125,-1.34375,406
391,1695742126779,-0.1538086,-1.0274048,0.3012085,-2.46875,7.59375,-1.609375,407
392,1695742126819,-0.15893555,-0.9324341,0.1828003,-0.484375,5.359375,-2.09375,408
393,1695742126859,-0.16210938,-0.9680786,0.20770264,-6.765625,6.53125,-2.9375,409
394,1695742126899,-0.15722656,-0.96343994,0.20501709,-5.4375,8.453125,-4.265625,410
395,1695742126939,-0.1743164,-0.9915161,0.2694702,-6.75,4.375,-2.5,411
396,1695742126979,-0.17700195,-0.98150635,0.2892456,-9.984375,2.515625,-3.890625,412
397,1695742127019,-0.19335938,-0.95758057,0.2597046,-14.90625,-0.03125,-1.921875,413
398,1695742127059,-0.18969727,-0.9343872,0.26141357,-13.625,-0.875,-3.171875,414
399,1695742127099,-0.18457031,-0.9439087,0.3024292,-5.109375,2.359375,-2.140625,415
400,1695742127139,-0.18164062,-0.9590454,0.29315186,-2.203125,1.265625,-0.4375,416
401,1695742127179,-0.21313477,-0.9470825,0.26922607,-3.703125,-0.125,-1.484375,417
402,1695742127219,-0.19213867,-0.9402466,0.31219482,2.703125,0.53125,-0.328125,418
403,1695742127259,-0.1887207,-0.93756104,0.28533936,-4.046875,-0.8125,-0.890625,419
404,1695742127299,-0.19384766,-0.96051025,0.34124756,0.6875,0.3125,-0.046875,420
405,1695742127339,-0.18041992,-0.9351196,0.29608154,-3.15625,-0.71875,-0.53125,421
406,1695742127379,-0.21240234,-0.9397583,0.31829834,-0.53125,2.0625,-0.40625,422
407,1695742127419,-0.1850586,-0.911438,0.29364014,-1.578125,-0.640625,0.578125,423
408,1695742127459,-0.2133789,-0.95806885,0.26678467,8.5625,-8.828125,-0.75,424
409,1695742127499,-0.22265625,-0.9175415,0.2741089,19.953125,-11.203125,1.28125,425
410,1695742127539,-0.1953125,-0.8291626,0.25408936,23.578125,-22.71875,12.75,426
411,1695742127579,-0.18261719,-1.1433716,0.20013428,7.640625,-5.53125,10.296875,427
412,1695742127619,-0.13989258,-0.95513916,0.16912842,3.734375,13.46875,1.890625,428
413,1695742127659,-0.15234375,-1.019104,0.23944092,3.0625,15.828125,-0.953125,429
414,1695742127699,-0.20605469,-1.0195923,0.30438232,2.953125,13.546875,0.703125,430
415,1695742127739,-0.18969727,-0.9673462,0.29974365,-4.265625,4.390625,-3.90625,431
416,1695742127779,-0.20019531,-0.9656372,0.2020874,-15.640625,1.25,-3.796875,432
417,1695742127819,-0.17749023,-0.8936157,0.1954956,2.46875,1.734375,-0.71875,433
418,1695742127859,-0.16772461,-0.9697876,0.17279053,9.609375,-1.140625,1.984375,434
419,1695742127899,-0.16894531,-0.92974854,0.28118896,15.28125,3.015625,10.1875,435
420,1695742127939,-0.18676758,-0.9697876,0.24090576,9.953125,-14.96875,10.84375,436
421,1695742127979,-0.07128906,-0.9854126,0.19915771,-1.40625,12.015625,0.546875,437
422,1695742128019,-0.18237305,-1.0266724,0.2111206,-2.265625,2.828125,-0.984375,438
423,1695742128059,-0.17480469,-1.0427856,0.293396,-4.25,3.09375,-2.9375,439
424,1695742128099,-0.1459961,-0.98883057,0.23431396,-13.265625,-0.515625,-5.015625,440
425,1695742128139,-0.15014648,-0.9002075,0.19525146,-15.109375,-1.875,-5.96875,441
426,1695742128179,-0.17822266,-0.95269775,0.2477417,-18.21875,-2.0,-5.546875,442
427,1695742128219,-0.21020508,-0.94195557,0.29144287,-17.59375,-3.046875,-4.3125,443
428,1695742128259,-0.20947266,-0.94903564,0.307312,-17.96875,-3.3125,-3.078125,444
429,1695742128299,-0.1796875,-0.95196533,0.32611084,-5.890625,-2.203125,-2.515625,445
430,1695742128339,-0.21801758,-0.9351196,0.3300171,-0.515625,1.75,-2.015625,446
431,1695742128379,-0.20385742,-0.93218994,0.31658936,1.3125,-0.578125,-1.359375,447
432,1695742128419,-0.21508789,-0.95025635,0.33221436,4.75,7.03125,-0.328125,448
433,1695742128459,-0.21459961,-0.94903564,0.29852295,1.984375,6.328125,0.21875,449
434,1695742128499,-0.21020508,-0.94610596,0.31414795,2.109375,6.328125,-0.59375,450
435,1695742128539,-0.20092773,-0.942688,0.29144287,3.921875,7.0,-0.21875,451
436,1695742128579,-0.19726562,-0.9487915,0.30413818,3.40625,6.359375,-0.84375,452
437,1695742128619,-0.1977539,-0.95806885,0.32269287,6.21875,11.375,-1.96875,453
438,1695742128659,-0.19677734,-0.95513916,0.29364014,4.671875,10.96875,-0.703125,454
439,1695742128699,-0.20581055,-0.9326782,0.29510498,5.390625,8.5,-0.046875,455
440,1695742128739,-0.21166992,-0.93951416,0.31121826,5.671875,6.0625,0.109375,456
441,1695742128779,-0.19750977,-0.895813,0.31195068,4.359375,2.78125,0.3125,457
442,1695742128819,-0.1821289,-0.90338135,0.230896,-3.046875,-0.890625,-0.65625,458
443,1695742128859,-0.21435547,-0.9463501,0.2645874,4.6875,-2.796875,-1.796875,459
444,1695742128899,-0.21044922,-0.9060669,0.30169678,15.171875,-26.78125,5.953125,460
445,1695742128939,-0.099853516,-0.9048462,0.18377686,16.046875,-33.40625,6.890625,461
446,1695742128979,-0.2121582,-1.1555786,0.2831421,1.859375,5.296875,4.796875,462
447,1695742129019,-0.1743164,-0.9673462,0.15301514,-2.4375,14.71875,-2.859375,463
448,1695742129059,-0.22509766,-1.0042114,0.31756592,7.03125,20.40625,0.484375,464
449,1695742129099,-0.19433594,-1.0613403,0.23675537,-10.453125,11.75,-1.203125,465
450,1695742129139,-0.18164062,-0.9199829,0.27801514,-11.0625,14.765625,-2.34375,466
451,1695742129179,-0.19238281,-0.89190674,0.2670288,-9.46875,-1.546875,-2.0625,467
452,1695742129219,-0.18188477,-0.87335205,0.2218628,8.359375,-7.46875,1.1875,468
453,1695742129259,-0.19604492,-0.8792114,0.34539795,14.609375,-19.5625,12.015625,469
454,1695742129299,-0.17089844,-1.0650024,0.12420654,-3.015625,-24.515625,7.421875,470
455,1695742129339,-0.13720703,-1.0022583,0.21234131,-6.265625,11.84375,-0.421875,471
456,1695742129379,-0.19042969,-0.9859009,0.2748413,1.125,12.421875,-2.796875,472
457,1695742129419,-0.17333984,-1.0335083,0.3085327,-1.65625,10.484375,-0.671875,473
458,1695742129459,-0.19384766,-0.96173096,0.2694702,-6.875,8.953125,-3.84375,474
459,1695742129499,-0.171875,-0.93218994,0.26654053,-9.515625,8.09375,-5.1875,475
460,1695742129539,-0.19482422,-0.9368286,0.27679443,-7.921875,7.046875,-5.203125,476
461,1695742129579,-0.2097168,-0.9553833,0.27947998,-8.828125,4.65625,-2.078125,477
462,1695742129619,-0.20776367,-0.9656372,0.30145264,-5.703125,3.0625,-1.484375,478
463,1695742129659,-0.19555664,-0.92388916,0.28948975,-5.84375,0.265625,-0.4375,479
464,1695742129699,-0.17871094,-0.93292236,0.307312,-5.625,-2.890625,-0.109375,480
465,1695742129739,-0.19335938,-0.9299927,0.30096436,-5.28125,-4.25,-0.078125,481
466,1695742129779,-0.19482422,-0.9390259,0.34490967,-0.578125,2.234375,0.96875,482
467,1695742129819,-0.19921875,-0.95758057,0.3300171,-3.578125,0.9375,0.78125,483
468,1695742129859,-0.20947266,-0.9495239,0.3156128,1.296875,-2.09375,0.109375,484
469,1695742129899,-0.21313477,-0.95318604,0.31829834,1.078125,4.015625,-0.421875,485
470,1695742129939,-0.19970703,-0.9241333,0.29022217,1.84375,0.765625,-0.40625,486
471,1695742129979,-0.21826172,-0.9187622,0.28851318,1.71875,6.296875,-0.625,487
472,1695742130019,-0.19873047,-0.92022705,0.26898193,4.859375,6.140625,-1.421875,488
473,1695742130059,-0.1887207,-0.88775635,0.30340576,22.125,-8.5,1.03125,489
474,1695742130099,-0.16723633,-0.83599854,0.3348999,27.859375,-25.90625,17.296875,490
475,1695742130139,-0.15795898,-1.1392212,0.19622803,16.3125,-12.84375,7.71875,491
476,1695742130179,-0.16748047,-0.96099854,0.13372803,-1.828125,12.703125,0.03125,492
477,1695742130219,-0.17333984,-1.0278931,0.23162842,1.609375,20.484375,-2.15625,493
478,1695742130259,-0.19873047,-1.0449829,0.30999756,1.34375,16.25,0.8125,494
479,1695742130299,-0.17797852,-0.97906494,0.2526245,-6.890625,9.5625,-3.59375,495
480,1695742130339,-0.16918945,-0.9241333,0.22747803,-12.984375,8.515625,-4.765625,496
481,1695742130379,-0.18701172,-0.90582275,0.21185303,-7.34375,3.265625,-3.046875,497
482,1695742130419,-0.17138672,-0.89923096,0.20794678,3.703125,-6.671875,-0.78125,498
483,1695742130459,-0.16210938,-0.9158325,0.25091553,11.375,-14.203125,10.015625,499
484,1695742130499,-0.19750977,-1.034729,0.34954834,14.15625,-25.734375,8.65625,500
485,1695742130539,-0.14013672,-0.96881104,0.1437378,-3.828125,-2.703125,2.796875,501
486,1695742130579,-0.15307617,-1.0071411,0.16644287,-5.203125,1.890625,-1.203125,502
487,1695742130619,-0.20776367,-1.0264282,0.2831421,-2.859375,8.859375,-1.171875,503
488,1695742130659,-0.14282227,-1.0046997,0.27069092,-3.9375,7.09375,-2.96875,504
489,1695742130699,-0.18066406,-0.9524536,0.24603271,-5.0,6.75,-3.453125,505
490,1695742130739,-0.1472168,-0.89141846,0.19891357,-3.546875,7.71875,-4.640625,506
491,1695742130779,-0.20092773,-0.9649048,0.27581787,-5.140625,6.046875,-3.546875,507
492,1695742130819,-0.19482422,-0.9614868,0.2868042,-9.109375,3.421875,-4.125,508
493,1695742130859,-0.19384766,-0.9710083,0.29486084,-13.875,3.578125,-3.78125,509
494,1695742130899,-0.20922852,-0.94976807,0.29779053,-11.234375,2.53125,-2.03125,510
495,1695742130939,-0.21411133,-0.928772,0.3209839,-9.90625,4.8125,-4.015625,511
496,1695742130979,-0.20385742,-0.95880127,0.33709717,-0.9375,7.640625,-1.34375,512
497,1695742131019,-0.20263672,-0.93951416,0.32513428,-3.75,8.984375,-1.515625,513
498,1695742131059,-0.20214844,-0.9451294,0.33392334,-0.75,8.359375,-1.859375,514
499,1695742131099,-0.19360352,-0.9299927,0.31121826,0.640625,9.109375,-1.40625,515
500,1695742131139,-0.20092773,-0.94073486,0.31707764,1.21875,7.296875,-2.0,516
501,1695742131179,-0.18432617,-0.9336548,0.30877686,1.65625,6.265625,-2.15625,517
502,1695742131219,-0.20385742,-0.93536377,0.28216553,3.765625,5.515625,-2.03125,518
503,1695742131259,-0.20751953,-0.93292236,0.28875732,16.4375,2.984375,-3.484375,519
504,1695742131299,-0.19799805,-0.8904419,0.19281006,37.65625,-5.84375,4.703125,520
505,1695742131339,-0.17529297,-0.9636841,0.36419678,28.953125,-4.359375,14.203125,521
506,1695742131379,-0.10498047,-1.0300903,0.18109131,7.109375,-4.609375,2.859375,522
507,1695742131419,-0.09887695,-0.90753174,0.12762451,-5.8125,9.03125,-2.375,523
508,1695742131459,-0.19677734,-1.0237427,0.25604248,-1.46875,17.28125,-3.03125,524
509,1695742131499,-0.18823242,-0.9898071,0.3036499,2.84375,2.84375,1.203125,525
510,1695742131539,-0.1977539,-1.0198364,0.2531128,-8.671875,-1.078125,-1.484375,526
511,1695742131579,-0.22631836,-0.92510986,0.17474365,-6.078125,-2.75,-1.96875,527
512,1695742131619,-0.1694336,-0.89141846,0.17523193,1.09375,-5.75,3.453125,528
513,1695742131659,-0.17993164,-0.9624634,0.21087646,3.109375,-8.203125,5.328125,529
514,1695742131699,-0.15478516,-1.0117798,0.23016357,3.09375,-9.34375,4.234375,530
515,1695742131739,-0.18017578,-0.95196533,0.20770264,-4.8125,2.5625,0.90625,531
516,1695742131779,-0.16040039,-0.97540283,0.23309326,-4.546875,1.484375,0.046875,532
517,1695742131819,-0.17089844,-0.9924927,0.27557373,-6.125,-0.5,-0.71875,533
518,1695742131859,-0.18408203,-0.98321533,0.2741089,-7.203125,0.609375,-0.78125,534
519,1695742131899,-0.15429688,-0.95684814,0.30633545,-17.515625,-5.28125,-4.140625,535
520,1695742131939,-0.19458008,-0.9541626,0.2765503,-26.265625,-8.765625,-5.234375,536
521,1695742131979,-0.19726562,-0.92633057,0.2994995,-16.625,-2.09375,-4.59375,537
522,1695742132019,-0.20605469,-0.9483032,0.35101318,-8.90625,-0.03125,-3.03125,538
523,1695742132059,-0.19238281,-0.9180298,0.35662842,-10.4375,-0.84375,-0.078125,539
524,1695742132099,-0.21606445,-0.9302368,0.36639404,-4.625,-0.4375,0.765625,540
525,1695742132139,-0.19506836,-0.895813,0.34100342,-3.21875,-1.828125,-0.671875,541
526,1695742132179,-0.2253418,-0.9234009,0.3768921,4.515625,2.421875,0.234375,542
527,1695742132219,-0.20825195,-0.9522095,0.369812,4.25,2.828125,1.140625,543
528,1695742132259,-0.21655273,-0.9319458,0.35516357,2.984375,2.78125,1.046875,544
529,1695742132299,-0.21899414,-0.92510986,0.34124756,4.203125,4.453125,0.578125,545
530,1695742132339,-0.20922852,-0.9104614,0.3143921,4.015625,1.546875,1.0625,546
531,1695742132379,-0.21044922,-0.91729736,0.2987671,3.125,0.140625,0.484375,547
532,1695742132419,-0.2084961,-0.9331665,0.32147217,8.59375,-1.59375,-1.328125,548
533,1695742132459,-0.20288086,-0.9331665,0.30877686,11.09375,-10.6875,0.96875,549
534,1695742132499,-0.20825195,-0.89727783,0.27703857,16.109375,-17.25,5.546875,550
535,1695742132539,-0.22607422,-0.97491455,0.29364014,10.53125,-9.390625,12.234375,551
536,1695742132579,-0.1821289,-1.0315552,0.31365967,11.890625,-7.296875,6.109375,552
537,1695742132619,-0.18603516,-0.9390259,0.22039795,2.015625,4.4375,0.390625,553
538,1695742132659,-0.13793945,-0.9849243,0.19232178,-4.8125,12.53125,-2.078125,554
539,1695742132699,-0.22827148,-0.97662354,0.35247803,3.296875,12.84375,-1.5,555
540,1695742132739,-0.15649414,-0.99591064,0.31219482,-0.65625,7.671875,-3.265625,556
541,1695742132779,-0.21655273,-0.9439087,0.26312256,-3.203125,4.078125,-2.203125,557
542,1695742132819,-0.16894531,-0.90875244,0.22918701,1.484375,5.828125,0.46875,558
543,1695742132859,-0.20458984,-0.94659424,0.24798584,3.609375,-0.703125,3.75,559
544,1695742132899,-0.1940918,-0.94537354,0.28533936,7.0625,-4.8125,5.125,560
545,1695742132939,-0.17553711,-1.0010376,0.26068115,0.375,-7.953125,5.28125,561
546,1695742132979,-0.13623047,-0.9475708,0.2189331,-7.734375,4.421875,-0.796875,562
547,1695742133019,-0.17578125,-0.9937134,0.25164795,-4.203125,2.8125,-1.25,563
548,1695742133059,-0.17504883,-0.9976196,0.3156128,-3.453125,7.140625,-2.90625,564
549,1695742133099,-0.15844727,-0.97003174,0.3180542,-3.546875,6.234375,-2.265625,565
550,1695742133139,-0.17871094,-0.9746704,0.2929077,-18.25,-0.578125,-6.359375,566
551,1695742133179,-0.20776367,-0.90289307,0.27386475,-12.046875,2.25,-4.703125,567
552,1695742133219,-0.20874023,-0.95269775,0.32781982,-5.734375,6.5625,-2.25,568
553,1695742133259,-0.21606445,-0.958313,0.3468628,-7.140625,5.859375,-1.859375,569
554,1695742133299,-0.19238281,-0.92071533,0.33343506,-7.25,1.21875,-1.046875,570
555,1695742133339,-0.21484375,-0.925354,0.34661865,0.90625,4.828125,-0.578125,571
556,1695742133379,-0.21264648,-0.9373169,0.3439331,3.109375,2.578125,1.03125,572
557,1695742133419,-0.19482422,-0.9475708,0.3222046,-2.03125,0.4375,0.625,573
558,1695742133459,-0.2121582,-0.9212036,0.36102295,3.609375,2.1875,0.9375,574
559,1695742133499,-0.18408203,-0.92193604,0.31756592,-2.40625,0.125,0.984375,575
560,1695742133539,-0.19677734,-0.9495239,0.35784912,4.78125,2.109375,0.5625,576
561,1695742133579,-0.17749023,-0.92974854,0.3048706,0.78125,2.671875,0.0625,577
562,1695742133619,-0.20288086,-0.9319458,0.33587646,2.9375,5.6875,-0.234375,578
563,1695742133659,-0.19067383,-0.9456177,0.31976318,1.65625,2.359375,-0.046875,579
564,1695742133699,-0.20019531,-0.9356079,0.32147217,2.453125,2.859375,-0.109375,580
565,1695742133739,-0.21972656,-0.9199829,0.29022217,3.46875,1.4375,-0.21875,581
566,1695742133779,-0.19433594,-0.90411377,0.28900146,22.265625,-7.828125,-1.578125,582
567,1695742133819,-0.18066406,-0.85723877,0.3456421,15.671875,-18.40625,16.0625,583
568,1695742133859,-0.1796875,-1.1331177,0.28411865,13.3125,-21.109375,9.546875,584
569,1695742133899,-0.15698242,-0.94854736,0.15252686,-1.640625,8.890625,0.359375,585
570,1695742133939,-0.17626953,-1.0076294,0.24310303,-1.828125,13.1875,-1.28125,586
571,1695742133979,-0.22387695,-1.0332642,0.29559326,1.65625,10.171875,0.96875,587
572,1695742134019,-0.17871094,-0.9614868,0.23602295,-3.71875,16.015625,-2.796875,588
573,1695742134059,-0.1821289,-0.9248657,0.23797607,-1.5625,12.828125,-2.875,589
574,1695742134099,-0.16259766,-0.92974854,0.2567749,1.40625,12.109375,-1.703125,590
575,1695742134139,-0.18310547,-0.90460205,0.25042725,5.765625,-7.9375,2.984375,591
576,1695742134179,-0.18847656,-0.97198486,0.28900146,6.234375,-12.15625,8.671875,592
577,1695742134219,-0.17602539,-1.0073853,0.26263428,4.3125,-19.765625,5.921875,593
578,1695742134259,-0.14379883,-0.97906494,0.2111206,-2.296875,5.3125,0.890625,594
579,1695742134299,-0.14111328,-0.9812622,0.23236084,2.375,15.140625,-1.140625,595
580,1695742134339,-0.18920898,-1.0349731,0.31756592,1.890625,12.09375,-0.828125,596
581,1695742134379,-0.15917969,-0.97784424,0.26409912,-0.53125,8.65625,-2.671875,597
582,1695742134419,-0.1574707,-0.92974854,0.22381592,-4.671875,3.6875,-3.078125,598
583,1695742134459,-0.13964844,-0.942688,0.21258545,-7.0,0.71875,-3.609375,599
584,1695742134499,-0.19702148,-0.98760986,0.2694702,-5.359375,-2.515625,-2.640625,600
585,1695742134539,-0.203125,-0.9985962,0.29803467,-12.5,-2.03125,-4.0,601
586,1695742134579,-0.21582031,-0.95440674,0.27947998,-9.5,-4.046875,0.265625,602
587,1695742134619,-0.19042969,-0.94610596,0.27459717,-8.25,1.671875,-0.078125,603
588,1695742134659,-0.19335938,-0.9421997,0.28289795,-5.3125,2.109375,-0.375,604
589,1695742134699,-0.19848633,-0.94415283,0.29437256,-3.078125,3.6875,1.171875,605
590,1695742134739,-0.17993164,-0.9573364,0.30218506,0.203125,1.015625,1.15625,606
591,1695742134779,-0.18969727,-0.9524536,0.2855835,0.703125,0.453125,1.21875,607
592,1695742134819,-0.18237305,-0.92071533,0.2543335,-0.078125,-1.90625,0.46875,608
593,1695742134859,-0.17163086,-0.93927,0.2850952,-0.703125,0.625,-0.0625,609
594,1695742134899,-0.19750977,-0.9636841,0.26019287,0.96875,-3.5,-1.203125,610
595,1695742134939,-0.20336914,-0.9319458,0.29071045,16.765625,-12.109375,-0.03125,611
596,1695742134979,-0.19824219,-0.87872314,0.2826538,15.9375,-32.5625,11.296875,612
597,1695742135019,-0.15698242,-1.072815,0.2033081,6.5,-3.90625,7.3125,613
598,1695742135059,-0.16748047,-0.94610596,0.16986084,-1.578125,7.765625,0.625,614
599,1695742135099,-0.1706543,-1.0369263,0.25872803,-0.796875,21.0625,-2.546875,615
600,1695742135139,-0.19506836,-0.97857666,0.31195068,1.8125,17.578125,-1.953125,616
601,1695742135179,-0.1772461,-0.98321533,0.29437256,-3.46875,11.078125,-1.84375,617
602,1695742135219,-0.17700195,-0.9072876,0.23602295,-3.703125,8.515625,-1.71875,618
603,1695742135259,-0.16894531,-0.92388916,0.24359131,1.890625,3.390625,-1.65625,619
604,1695742135299,-0.17016602,-0.956604,0.27581787,3.734375,-1.15625,0.15625,620
605,1695742135339,-0.15917969,-0.925354,0.2579956,6.203125,-10.6875,2.96875,621
606,1695742135379,-0.23217773,-0.9463501,0.27191162,6.015625,-27.296875,9.734375,622
607,1695742135419,-0.12109375,-1.0078735,0.22772217,-0.875,-0.96875,-0.109375,623
608,1695742135459,-0.1694336,-0.95977783,0.16888428,-4.796875,7.25,-2.671875,624
609,1695742135499,-0.1953125,-1.0122681,0.2670288,-0.078125,9.046875,-1.390625,625
610,1695742135539,-0.17089844,-0.97906494,0.2682495,-0.140625,10.53125,-0.09375,626
611,1695742135579,-0.17285156,-0.97369385,0.25897217,-0.078125,11.21875,0.390625,627
612,1695742135619,-0.15991211,-0.92193604,0.19207764,0.53125,7.984375,-1.734375,628
613,1695742135659,-0.17553711,-0.94415283,0.25750732,1.234375,4.953125,-1.28125,629
614,1695742135699,-0.15942383,-0.9627075,0.2267456,-1.25,-3.296875,-0.03125,630
615,1695742135739,-0.18359375,-0.9470825,0.20794678,2.0,-8.65625,2.765625,631
616,1695742135779,-0.2109375,-0.9324341,0.260437,4.625,-20.625,7.078125,632
617,1695742135819,-0.07763672,-0.986145,0.15863037,-3.34375,0.40625,-1.390625,633
618,1695742135859,-0.22192383,-0.9639282,0.23016357,-3.34375,-0.875,-0.796875,634
619,1695742135899,-0.14526367,-1.0054321,0.2682495,-2.8125,5.125,-2.375,635
620,1695742135939,-0.18115234,-0.9751587,0.29071045,-1.21875,7.328125,-1.78125,636
621,1695742135979,-0.16308594,-0.9678345,0.2633667,-6.21875,2.90625,-1.890625,637
622,1695742136019,-0.16601562,-0.9158325,0.22503662,-6.0,1.546875,-1.6875,638
623,1695742136059,-0.19067383,-0.95440674,0.26409912,-0.109375,0.28125,-2.234375,639
624,1695742136099,-0.17993164,-0.9837036,0.26556396,0.015625,1.21875,-1.953125,640
625,1695742136139,-0.18310547,-0.9492798,0.2597046,-4.859375,2.703125,-1.421875,641
626,1695742136179,-0.19433594,-0.97003174,0.2880249,-10.25,0.9375,-2.484375,642
627,1695742136219,-0.19091797,-0.9470825,0.31414795,-11.5625,3.5,-2.296875,643
628,1695742136259,-0.19873047,-0.9570923,0.30950928,-11.875,1.328125,-2.4375,644
629,1695742136299,-0.20776367,-0.94122314,0.3287964,-3.59375,4.375,-2.6875,645
630,1695742136339,-0.18603516,-0.94073486,0.3283081,-2.484375,4.78125,-0.703125,646
631,1695742136379,-0.19897461,-0.9414673,0.3270874,-0.359375,5.296875,0.109375,647
632,1695742136419,-0.18432617,-0.9314575,0.31243896,0.53125,3.46875,0.75,648
633,1695742136459,-0.19995117,-0.94244385,0.3204956,2.40625,3.765625,0.0,649
634,1695742136499,-0.19970703,-0.9302368,0.34539795,4.171875,3.578125,-0.421875,650
635,1695742136539,-0.1928711,-0.93829346,0.291687,-1.21875,3.203125,-1.109375,651
636,1695742136579,-0.20385742,-0.9805298,0.3554077,5.78125,5.921875,-2.578125,652
637,1695742136619,-0.17944336,-0.95318604,0.3078003,5.046875,7.375,-1.671875,653
638,1695742136659,-0.1965332,-0.9385376,0.2999878,2.578125,6.4375,-1.40625,654
639,1695742136699,-0.18652344,-0.9282837,0.2987671,4.046875,4.859375,-1.375,655
640,1695742136739,-0.19848633,-0.9458618,0.31243896,2.109375,4.125,0.4375,656
641,1695742136779,-0.1953125,-0.94073486,0.29925537,-0.28125,3.015625,0.5,657
642,1695742136819,-0.19799805,-0.9492798,0.31195068,0.21875,0.90625,0.796875,658
643,1695742136859,-0.19042969,-0.942688,0.30145264,-0.84375,1.4375,0.65625,659
644,1695742136899,-0.18774414,-0.9092407,0.2921753,-0.3125,-1.46875,0.34375,660
645,1695742136939,-0.18261719,-0.9356079,0.28338623,-1.765625,-1.90625,-0.53125,661
646,1695742136979,-0.18310547,-0.9414673,0.2819214,-2.34375,1.40625,-1.484375,662
647,1695742137019,-0.21484375,-0.9492798,0.31463623,4.21875,-4.65625,1.90625,663
648,1695742137059,-0.25732422,-0.86138916,0.32073975,7.4375,-30.71875,5.828125,664
649,1695742137099,-0.17138672,-0.90582275,0.23553467,19.53125,-43.890625,15.015625,665
650,1695742137139,-0.16259766,-1.0654907,0.17132568,-1.875,-2.9375,5.828125,666
651,1695742137179,-0.17211914,-1.0078735,0.2514038,-0.59375,27.140625,-4.265625,667
652,1695742137219,-0.22607422,-1.0154419,0.309021,3.515625,20.625,-2.8125,668
653,1695742137259,-0.18603516,-0.9668579,0.35247803,4.140625,15.484375,0.515625,669
654,1695742137299,-0.19213867,-0.9414673,0.26800537,-3.9375,8.421875,-3.546875,670
655,1695742137339,-0.17407227,-0.89312744,0.25872803,-1.65625,8.078125,-1.859375,671
656,1695742137379,-0.19213867,-0.9558716,0.2946167,0.796875,0.640625,0.046875,672
657,1695742137419,-0.1875,-0.9360962,0.24725342,2.625,-9.609375,2.328125,673
658,1695742137459,-0.22705078,-0.9126587,0.26263428,4.734375,-23.625,7.484375,674
659,1695742137499,-0.14624023,-0.98443604,0.17596436,-1.328125,-14.640625,1.640625,675
660,1695742137539,-0.20483398,-0.97784424,0.2086792,-3.03125,1.765625,0.984375,676
661,1695742137579,-0.18408203,-1.0188599,0.25994873,1.65625,12.96875,-2.0625,677
662,1695742137619,-0.1796875,-1.0420532,0.33416748,5.578125,17.390625,-3.25,678
663,1695742137659,-0.20581055,-0.9277954,0.230896,-0.09375,8.25,-1.28125,679
664,1695742137699,-0.18164062,-0.91729736,0.23065186,1.1875,7.140625,-0.765625,680
665,1695742137739,-0.18286133,-0.93292236,0.24676514,1.421875,-0.390625,0.4375,681
666,1695742137779,-0.19750977,-0.9368286,0.22283936,-2.21875,-12.328125,2.5,682
667,1695742137819,-0.21533203,-0.9356079,0.2218628,-3.421875,-26.46875,9.3125,683
668,1695742137859,-0.12158203,-0.9871216,0.24725342,-4.640625,-7.796875,0.453125,684
669,1695742137899,-0.22070312,-0.9824829,0.2111206,-2.796875,1.765625,0.421875,685
670,1695742137939,-0.19018555,-1.0205688,0.29388428,-1.4375,3.640625,0.203125,686
671,1695742137979,-0.17773438,-0.9702759,0.27313232,-1.765625,3.453125,-0.453125,687
672,1695742138019,-0.16210938,-0.9282837,0.24993896,0.5625,4.109375,-1.140625,688
673,1695742138059,-0.17163086,-0.958313,0.24578857,-1.203125,6.75,-0.6875,689
674,1695742138099,-0.1862793,-0.9685669,0.2592163,1.03125,4.625,-0.875,690
675,1695742138139,-0.18237305,-0.9636841,0.2518921,0.625,4.59375,0.015625,691
676,1695742138179,-0.16723633,-0.956604,0.25238037,3.53125,2.84375,0.6875,692
677,1695742138219,-0.21459961,-0.90997314,0.27142334,7.59375,-9.578125,7.40625,693
678,1695742138259,-0.13671875,-1.0454712,0.23504639,6.046875,-7.328125,6.28125,694
679,1695742138299,-0.1538086,-0.92681885,0.20501709,-3.296875,4.0,-1.3125,695
680,1695742138339,-0.16381836,-1.0510864,0.23309326,-5.09375,3.71875,-1.328125,696
681,1695742138379,-0.19042969,-0.99420166,0.31585693,-1.125,5.46875,-2.625,697
682,1695742138419,-0.18017578,-0.95880127,0.25775146,-3.03125,5.234375,-3.1875,698
683,1695742138459,-0.1899414,-0.9480591,0.24920654,-5.96875,6.25,-2.59375,699
684,1695742138499,-0.17114258,-0.9517212,0.24554443,-9.828125,7.15625,-2.484375,700
685,1695742138539,-0.18457031,-0.96661377,0.28631592,-3.921875,5.15625,-1.59375,701
686,1695742138579,-0.18969727,-0.97320557,0.27166748,-8.984375,4.28125,-5.203125,702
687,1695742138619,-0.18603516,-0.973938,0.3366089,-5.296875,9.765625,-2.71875,703
688,1695742138659,-0.1743164,-0.9421997,0.307312,-5.984375,3.71875,-3.6875,704
689,1695742138699,-0.21386719,-0.9246216,0.3007202,-5.84375,0.953125,-1.59375,705
690,1695742138739,-0.18359375,-0.9326782,0.31341553,-3.203125,0.140625,-1.234375,706
691,1695742138779,-0.19238281,-0.93756104,0.30584717,-3.65625,-1.421875,0.15625,707
692,1695742138819,-0.19311523,-0.9326782,0.30462646,-3.3125,-2.671875,-0.421875,708
693,1695742138859,-0.2175293,-0.9158325,0.3060913,-2.25,-2.390625,0.359375,709
694,1695742138899,-0.19873047,-0.954895,0.31097412,-3.390625,-3.078125,1.03125,710
695,1695742138939,-0.2211914,-0.9326782,0.2736206,16.734375,-13.328125,1.109375,711
696,1695742138979,-0.22753906,-0.817688,0.31854248,25.640625,-24.546875,13.796875,712
697,1695742139019,-0.15234375,-1.0913696,0.27166748,30.40625,-5.625,12.90625,713
698,1695742139059,-0.19189453,-0.9417114,0.24603271,8.765625,12.34375,0.65625,714
699,1695742139099,-0.1184082,-1.010315,0.22576904,-1.75,8.34375,0.609375,715
700,1695742139139,-0.20043945,-1.0169067,0.33270264,-4.4375,7.5,-2.125,716
701,1695742139179,-0.16821289,-0.9807739,0.28900146,-5.953125,-0.140625,-0.8125,717
702,1695742139219,-0.17578125,-0.90289307,0.1942749,-7.296875,-2.796875,-3.421875,718
703,1695742139259,-0.13916016,-0.94732666,0.13641357,2.71875,2.609375,2.53125,719
704,1695742139299,-0.1508789,-0.90509033,0.19525146,18.65625,8.140625,7.890625,720
705,1695742139339,-0.2368164,-1.1052856,0.24432373,3.90625,-2.796875,3.296875,721
706,1695742139379,-0.1472168,-0.96343994,0.23480225,-2.6875,9.78125,-2.078125,722
707,1695742139419,-0.17236328,-1.0022583,0.2609253,-7.765625,0.390625,-1.875,723
708,1695742139459,-0.17651367,-0.95147705,0.24041748,-10.390625,1.109375,-1.28125,724
709,1695742139499,-0.13500977,-0.93414307,0.21502686,-9.75,-3.625,-3.765625,725
710,1695742139539,-0.17944336,-0.9483032,0.2086792,3.25,4.375,1.078125,726
711,1695742139579,-0.13476562,-0.88360596,0.20574951,15.46875,2.390625,3.671875,727
712,1695742139619,-0.2019043,-1.0903931,0.34124756,15.015625,6.90625,6.6875,728
713,1695742139659,-0.10888672,-0.9343872,0.16741943,0.84375,1.6875,3.140625,729
714,1695742139699,-0.17651367,-1.0127563,0.3307495,-12.203125,-1.984375,-3.234375,730
715,1695742139739,-0.17163086,-0.9859009,0.25506592,-2.59375,0.59375,-2.671875,731
716,1695742139779,-0.15429688,-0.9944458,0.276062,-7.4375,-2.9375,-4.359375,732
717,1695742139819,-0.1796875,-0.9468384,0.23699951,-6.125,-0.71875,-3.140625,733
718,1695742139859,-0.15625,-0.95513916,0.25775146,-5.15625,1.421875,-2.71875,734
719,1695742139899,-0.17163086,-0.95880127,0.26385498,-11.3125,-0.171875,-4.171875,735
720,1695742139939,-0.20288086,-0.96710205,0.29510498,-8.5625,3.875,-4.28125,736
721,1695742139979,-0.1821289,-0.954895,0.29486084,-6.671875,3.1875,-3.390625,737
722,1695742140019,-0.18310547,-0.9468384,0.32635498,-2.765625,3.0625,-4.796875,738
723,1695742140059,-0.20141602,-0.92755127,0.2802124,-9.109375,2.046875,-1.28125,739
724,1695742140099,-0.20581055,-0.9258423,0.29974365,-4.171875,1.484375,-2.1875,740
725,1695742140139,-0.19750977,-0.9446411,0.32659912,-1.34375,0.296875,-1.140625,741
726,1695742140179,-0.20703125,-0.9404907,0.3143921,-6.15625,1.875,0.109375,742
727,1695742140219,-0.20800781,-0.9390259,0.31976318,-4.203125,1.140625,0.234375,743
728,1695742140259,-0.20605469,-0.93170166,0.32196045,-0.65625,1.5625,-0.125,744
729,1695742140299,-0.2019043,-0.944397,0.32611084,0.046875,0.859375,0.21875,745
730,1695742140339,-0.2084961,-0.93756104,0.33050537,0.125,0.46875,0.484375,746
731,1695742140379,-0.19042969,-0.9299927,0.3295288,-0.484375,1.53125,-0.265625,747
732,1695742140419,-0.1875,-0.9468384,0.34100342,1.5625,2.0,-0.390625,748
733,1695742140459,-0.19580078,-0.94488525,0.33465576,0.890625,3.140625,-0.171875,749
734,1695742140499,-0.20019531,-0.9570923,0.33270264,1.328125,3.765625,-0.0625,750
735,1695742140539,-0.21728516,-0.9312134,0.34490967,5.375,4.125,-0.375,751
736,1695742140579,-0.20092773,-0.928772,0.32196045,-0.453125,2.53125,-0.640625,752
737,1695742140619,-0.20507812,-0.93829346,0.31878662,2.84375,1.484375,-0.375,753
738,1695742140659,-0.19482422,-0.90289307,0.28631592,0.65625,1.828125,-1.0,754
739,1695742140699,-0.20922852,-0.9299927,0.2579956,9.296875,-3.28125,-2.171875,755
740,1695742140739,-0.2175293,-0.8897095,0.29022217,19.46875,-17.421875,3.53125,756
741,1695742140779,-0.1508789,-0.8567505,0.307312,20.1875,-28.53125,18.625,757
742,1695742140819,-0.25683594,-1.1558228,0.2987671,9.875,-11.640625,9.5625,758
743,1695742140859,-0.14013672,-0.923645,0.14007568,-1.8125,13.53125,0.890625,759
744,1695742140899,-0.17895508,-1.0166626,0.30096436,1.921875,18.421875,-0.46875,760
745,1695742140939,-0.21191406,-1.0064087,0.3065796,1.609375,10.21875,1.390625,761
746,1695742140979,-0.15625,-0.9529419,0.2892456,-2.25,5.75,-1.640625,762
747,1695742141019,-0.18701172,-0.9480591,0.23577881,-6.046875,5.140625,-1.5625,763
748,1695742141059,-0.1809082,-0.90948486,0.20770264,4.40625,-2.6875,0.15625,764
749,1695742141099,-0.16699219,-0.93341064,0.1930542,1.828125,-5.421875,2.984375,765
750,1695742141139,-0.21362305,-1.0188599,0.2772827,9.109375,-9.515625,4.09375,766
751,1695742141179,-0.1953125,-0.9619751,0.2579956,4.453125,-5.890625,3.546875,767
752,1695742141219,-0.12036133,-1.0154419,0.15447998,-6.5,6.734375,-1.34375,768
753,1695742141259,-0.2006836,-0.94415283,0.21600342,-1.203125,13.390625,-0.625,769
754,1695742141299,-0.14941406,-1.000061,0.28729248,-1.84375,15.546875,-0.546875,770
755,1695742141339,-0.18188477,-0.9859009,0.28216553,-0.3125,11.5625,0.734375,771
756,1695742141379,-0.15820312,-0.95928955,0.26531982,-5.640625,7.3125,-0.375,772
757,1695742141419,-0.14672852,-0.9343872,0.262146,-7.65625,4.0625,-2.1875,773
758,1695742141459,-0.1784668,-0.95318604,0.2616577,-8.09375,0.265625,-2.328125,774
759,1695742141499,-0.1796875,-0.9578247,0.25628662,-4.875,-1.921875,-2.6875,775
