timestamp,accel_x,accel_y,accel_z,gyro_x,gyro_y,gyro_z,ind
1695311478517,-0.25073242,-0.9143677,-0.0051879883,-0.359375,13.296875,0.046875,0
1695311478557,-0.2368164,-0.8530884,0.01776123,-0.34375,11.234375,0.34375,1
1695311478597,-0.22167969,-0.8479614,0.0211792,-4.65625,5.6875,0.390625,2
1695311478637,-0.21826172,-0.84454346,0.06488037,-3.140625,5.15625,2.34375,3
1695311478677,-0.26293945,-0.8201294,0.07366943,-5.3125,3.71875,3.78125,4
1695311478717,-0.27001953,-0.7803345,0.051208496,-5.09375,4.5,2.984375,5
1695311478757,-0.234375,-0.8579712,0.07318115,-4.09375,3.6875,3.671875,6
1695311478797,-0.31420898,-0.8970337,0.09490967,-4.453125,2.515625,4.46875,7
1695311478837,-0.34326172,-0.81451416,0.09222412,-4.46875,5.234375,2.375,8
1695311478877,-0.28051758,-0.99053955,0.008239746,-7.671875,0.515625,-3.8125,9
1695311478917,-0.22485352,-1.1890259,0.062438965,-1.140625,4.90625,-2.53125,10
1695311478957,-0.11694336,-1.3464966,-0.014709473,-4.03125,13.75,2.375,11
1695311478997,-0.24633789,-1.2891235,0.10394287,-4.46875,12.203125,2.40625,12
1695311479037,-0.08959961,-1.1494751,0.19354248,4.234375,15.8125,-0.875,13
1695311479077,-0.107177734,-1.1211548,0.19085693,2.71875,10.609375,1.484375,14
1695311479117,-0.171875,-1.0974731,0.03729248,3.109375,9.234375,1.0625,15
1695311479157,-0.07861328,-1.0442505,0.10491943,1.921875,14.296875,4.734375,16
1695311479197,-0.087890625,-0.94195557,0.13128662,-1.21875,9.5,6.765625,17
1695311479237,-0.12841797,-0.8711548,0.1293335,-4.875,0.46875,2.484375,18
1695311479277,-0.107177734,-0.89556885,0.17523193,-5.90625,-2.71875,-0.890625,19
1695311479317,-0.111083984,-0.8945923,0.16693115,-6.734375,-7.171875,-3.5,20
1695311479357,-0.14453125,-0.8464966,0.15911865,-1.265625,-2.59375,-3.171875,21
1695311479397,-0.13134766,-0.88238525,0.13079834,0.03125,-3.890625,-2.0,22
1695311479437,-0.09765625,-0.8189087,0.16448975,7.109375,-1.25,0.4375,23
1695311479477,-0.13110352,-0.8010864,0.16888428,4.21875,-5.828125,-0.171875,24
1695311479517,-0.17504883,-0.84332275,0.1486206,2.125,-5.21875,-2.078125,25
1695311479557,-0.15893555,-0.8394165,0.1618042,5.765625,-3.796875,-4.3125,26
1695311479597,-0.13745117,-0.90631104,0.15985107,4.4375,-7.765625,-4.484375,27
1695311479637,-0.1508789,-0.8731079,0.1671753,8.09375,-8.21875,-3.609375,28
1695311479677,-0.18481445,-0.8579712,0.11029053,7.15625,-7.5,-2.03125,29
1695311479717,-0.15771484,-1.0808716,-0.015930176,1.046875,-22.234375,-5.984375,30
1695311479757,-0.15185547,-1.2910767,-0.06011963,-7.875,-25.578125,-0.5,31
1695311479797,-0.328125,-1.2402954,-0.055480957,-4.75,-23.359375,-0.171875,32
1695311479837,-0.2121582,-1.5872192,-0.028869629,-12.25,-32.078125,1.234375,33
1695311479877,-0.3864746,-0.95440674,0.047790527,3.578125,-6.90625,2.59375,34
1695311479917,-0.2355957,-1.0090942,0.046569824,2.953125,-9.984375,-3.359375,35
1695311479957,-0.3005371,-1.0061646,0.038269043,3.390625,-4.296875,-1.078125,36
1695311479997,-0.1862793,-0.9258423,-0.117248535,6.5,-1.5,0.859375,37
1695311480037,-0.2434082,-0.9546509,-0.03717041,-0.296875,-7.078125,0.0,38
1695311480077,-0.3046875,-0.9468384,0.054870605,1.515625,-4.640625,-0.734375,39
1695311480117,-0.28442383,-0.9260864,-0.013244629,0.625,1.84375,-1.65625,40
1695311480157,-0.28295898,-0.9151001,-0.002746582,0.40625,2.46875,-1.65625,41
1695311480197,-0.27563477,-0.96539307,0.008483887,-1.96875,-1.59375,-1.109375,42
1695311480237,-0.27124023,-0.95147705,0.02508545,-4.234375,1.578125,0.03125,43
1695311480277,-0.29418945,-0.9168091,0.0524292,-8.265625,2.375,0.4375,44
1695311480317,-0.27026367,-0.819397,0.081726074,-8.15625,3.25,1.359375,45
1695311480357,-0.23291016,-0.7737427,0.0524292,-10.546875,0.84375,3.265625,46
1695311480397,-0.22631836,-0.72662354,0.085632324,-5.96875,5.203125,7.578125,47
1695311480437,-0.2434082,-0.7527466,0.024108887,-11.484375,0.453125,6.96875,48
1695311480477,-0.3071289,-0.8616333,0.09954834,-15.84375,-2.21875,4.453125,49
1695311480517,-0.34472656,-0.8364868,0.18011475,-12.359375,5.859375,4.125,50
1695311480557,-0.31323242,-0.8057251,0.19818115,-12.359375,7.78125,1.546875,51
1695311480597,-0.34765625,-0.8413696,0.18450928,-8.9375,11.09375,0.96875,52
1695311480637,-0.29663086,-0.9048462,0.17474365,-10.15625,5.265625,-1.765625,53
1695311480677,-0.30273438,-1.2029419,0.1408081,-9.09375,3.265625,-13.625,54
1695311480717,0.051513672,-1.5083618,0.020935059,3.671875,19.4375,-0.71875,55
1695311480757,-0.13476562,-1.4317017,0.2074585,3.953125,12.984375,10.90625,56
1695311480797,-0.29882812,-1.0857544,0.3373413,9.65625,11.625,-1.453125,57
1695311480837,-0.1694336,-1.2119751,0.1930542,10.671875,13.78125,-1.21875,58
1695311480877,-0.13989258,-1.0747681,0.18621826,8.671875,12.78125,6.015625,59
1695311480917,-0.10107422,-0.9072876,0.12884521,4.71875,5.765625,4.734375,60
1695311480957,-0.05078125,-0.84552,0.152771,-0.46875,1.140625,3.625,61
1695311480997,-0.11230469,-0.83599854,0.1954956,-1.375,0.640625,3.734375,62
1695311481037,-0.08911133,-0.8364868,0.18572998,-6.984375,-5.90625,-2.421875,63
1695311481077,-0.106933594,-0.9158325,0.23651123,-3.734375,-8.65625,-5.21875,64
1695311481117,-0.09423828,-0.91485596,0.19403076,-0.875,-9.234375,-2.5625,65
1695311481157,-0.080078125,-0.82647705,0.1083374,0.21875,-11.6875,-1.28125,66
1695311481197,-0.16455078,-0.8147583,0.17694092,0.765625,-13.203125,-2.40625,67
1695311481237,-0.16503906,-0.8081665,0.22991943,1.90625,-10.796875,-3.078125,68
1695311481277,-0.17797852,-0.8267212,0.17376709,3.078125,-8.109375,0.53125,69
1695311481317,-0.23486328,-0.880188,0.18817139,0.46875,-12.234375,-4.203125,70
1695311481357,-0.15014648,-0.9092407,0.20916748,10.703125,-10.765625,-4.15625,71
1695311481397,-0.15673828,-0.9656372,0.22015381,-0.328125,-11.40625,0.296875,72
1695311481437,-0.27148438,-0.9602661,0.09124756,5.828125,-21.9375,-2.734375,73
1695311481477,-0.13183594,-1.185852,0.035339355,-0.546875,-21.109375,-0.953125,74
1695311481517,-0.22949219,-1.3621216,-0.14776611,-7.375,-29.109375,1.640625,75
1695311481557,-0.47973633,-1.236145,0.10491943,-1.6875,-12.140625,7.296875,76
1695311481597,-0.27270508,-1.0432739,0.05340576,0.015625,-2.421875,0.84375,77
1695311481637,-0.33789062,-1.2966919,0.21966553,-13.71875,-17.328125,-2.65625,78
1695311481677,-0.2631836,-0.98272705,0.0446167,2.40625,-1.71875,4.1875,79
1695311481717,-0.16845703,-0.8284302,-0.045715332,0.03125,-3.875,2.015625,80
1695311481757,-0.22631836,-0.91363525,0.10321045,-3.6875,-9.0625,0.546875,81
1695311481797,-0.23950195,-0.9265747,0.09515381,-5.796875,-7.375,1.84375,82
1695311481837,-0.18432617,-0.8369751,0.03704834,-4.78125,-5.6875,2.71875,83
1695311481877,-0.21582031,-0.8760376,0.08880615,-4.5,-8.9375,4.828125,84
1695311481917,-0.26123047,-0.8904419,0.086364746,-9.5,-10.15625,4.859375,85
1695311481957,-0.22851562,-0.8201294,0.09857178,-2.21875,-2.921875,7.0,86
1695311481997,-0.20043945,-0.8718872,0.117614746,-4.328125,-5.40625,7.9375,87
1695311482037,-0.23999023,-0.848938,0.13397217,-5.96875,-6.09375,9.3125,88
1695311482077,-0.26049805,-0.79107666,0.15472412,-2.171875,-2.1875,9.359375,89
1695311482117,-0.2565918,-0.7998657,0.17279053,-4.453125,-4.28125,6.28125,90
1695311482157,-0.24853516,-0.8501587,0.20697021,-13.6875,-12.34375,4.84375,91
1695311482197,-0.25341797,-0.8250122,0.17401123,-6.125,-6.265625,6.015625,92
1695311482237,-0.17114258,-0.99957275,0.15570068,-15.84375,-17.078125,-2.828125,93
1695311482277,0.06616211,-1.2432251,0.06488037,-3.609375,-3.640625,-2.515625,94
1695311482317,0.07543945,-1.529602,0.17010498,-3.03125,-2.4375,7.984375,95
1695311482357,-0.18115234,-1.3626099,0.33758545,6.5625,0.8125,5.28125,96
1695311482397,-0.18432617,-1.2058716,0.2662964,12.15625,5.375,2.984375,97
1695311482437,-0.10107422,-1.0357056,0.113220215,11.96875,3.625,2.6875,98
1695311482477,-0.022705078,-0.91778564,0.11248779,6.953125,1.78125,3.1875,99
1695311482517,-0.013671875,-0.86016846,0.11175537,-0.046875,-4.9375,-0.015625,100
1695311482557,-0.057128906,-0.8508911,0.16693115,-6.234375,-6.484375,-1.28125,101
1695311482597,-0.07910156,-0.8682251,0.1552124,-4.453125,-2.359375,-2.71875,102
1695311482637,-0.07055664,-0.90509033,0.20306396,-4.09375,-4.90625,-5.09375,103
1695311482677,-0.091796875,-0.8550415,0.17938232,-0.921875,-6.703125,-3.203125,104
1695311482717,-0.099853516,-0.8377075,0.14642334,-0.140625,-6.875,-5.625,105
1695311482757,-0.08300781,-0.881897,0.2164917,6.5625,-7.4375,-4.8125,106
1695311482797,-0.09082031,-0.91290283,0.19451904,-0.265625,-9.34375,-1.296875,107
1695311482837,-0.14892578,-0.88604736,0.19573975,1.46875,-12.703125,-1.84375,108
1695311482877,-0.13623047,-0.8599243,0.23822021,6.734375,-8.640625,-2.609375,109
1695311482917,-0.103759766,-0.91778564,0.23699951,2.34375,-10.828125,-1.046875,110
1695311482957,-0.09790039,-0.9241333,0.09954834,-0.609375,-17.21875,-2.3125,111
1695311482997,-0.107910156,-1.1685181,-0.018371582,-3.0625,-28.8125,-2.640625,112
1695311483037,-0.18603516,-1.1619263,0.15130615,-8.953125,-27.625,1.890625,113
1695311483077,-0.21484375,-1.4404907,-0.24176025,-14.046875,-35.828125,-3.125,114
1695311483117,-0.5739746,-1.2207642,0.31365967,4.296875,-7.609375,7.796875,115
1695311483157,-0.21118164,-1.0332642,-0.031311035,-2.1875,-4.0625,0.203125,116
1695311483197,-0.28833008,-1.2210083,0.17474365,-14.375,-21.09375,-3.15625,117
1695311483237,-0.26611328,-0.8545532,0.07537842,1.671875,-5.671875,1.515625,118
1695311483277,-0.1081543,-0.8272095,-0.026672363,-2.578125,-9.0625,-0.546875,119
1695311483317,-0.203125,-0.89508057,0.13153076,-6.203125,-12.984375,0.203125,120
1695311483357,-0.23071289,-0.9439087,0.12347412,-2.59375,-10.140625,2.84375,121
1695311483397,-0.18334961,-0.87677,0.06903076,-4.453125,-6.734375,3.328125,122
1695311483437,-0.1887207,-0.8989868,0.12542725,-7.234375,-11.515625,3.5625,123
1695311483477,-0.24438477,-0.87506104,0.18084717,-0.03125,-6.234375,8.359375,124
1695311483517,-0.24975586,-0.76641846,0.09075928,-1.484375,-5.75,7.15625,125
1695311483557,-0.2019043,-0.722229,0.11956787,-0.546875,-5.0,5.625,126
1695311483597,-0.21044922,-0.80841064,0.10736084,-5.703125,-10.078125,4.671875,127
1695311483637,-0.26879883,-0.85772705,0.16156006,-6.421875,-9.78125,3.6875,128
1695311483677,-0.27172852,-0.8335571,0.23406982,-3.71875,-5.03125,4.796875,129
1695311483717,-0.26098633,-0.81085205,0.1852417,-9.171875,-8.578125,1.890625,130
1695311483757,-0.22753906,-0.92803955,0.14910889,-14.4375,-14.765625,-2.390625,131
1695311483797,-0.12084961,-1.197815,0.08758545,-10.984375,-15.5,-4.03125,132
1695311483837,0.07910156,-1.510315,0.1329956,0.40625,-0.484375,6.6875,133
1695311483877,-0.21899414,-1.4356079,0.3048706,4.65625,3.640625,11.671875,134
1695311483917,-0.12866211,-1.1709595,0.2687378,3.265625,-7.1875,-0.4375,135
1695311483957,-0.11645508,-1.1743774,0.22747803,4.328125,-8.15625,-0.8125,136
1695311483997,-0.11206055,-0.99005127,0.18450928,4.203125,-7.390625,3.828125,137
1695311484037,-0.10180664,-0.86724854,0.15032959,0.875,-9.5,3.828125,138
1695311484077,-0.088378906,-0.80718994,0.17034912,0.609375,-12.375,1.078125,139
1695311484117,-0.096191406,-0.7852173,0.1774292,-1.734375,-11.21875,0.578125,140
1695311484157,-0.10083008,-0.7774048,0.19793701,-3.515625,-8.4375,-0.3125,141
1695311484197,-0.11303711,-0.8394165,0.2062378,-3.609375,-13.65625,-2.984375,142
1695311484237,-0.07788086,-0.8682251,0.20037842,-6.15625,-16.5,-5.34375,143
1695311484277,-0.09741211,-0.83721924,0.20404053,-0.375,-12.34375,-3.640625,144
1695311484317,-0.16186523,-0.81915283,0.24456787,3.875,-12.5,-3.609375,145
1695311484357,-0.16088867,-0.817688,0.199646,4.140625,-14.890625,-3.625,146
1695311484397,-0.16210938,-0.8245239,0.2062378,6.34375,-10.390625,-0.34375,147
1695311484437,-0.19750977,-0.8303833,0.17279053,8.375,-11.484375,0.859375,148
1695311484477,-0.10253906,-1.1380005,-0.019836426,-8.484375,-28.921875,-2.0625,149
1695311484517,-0.14794922,-1.2913208,-0.034484863,2.203125,-21.421875,8.8125,150
1695311484557,-0.14477539,-1.5903931,0.07220459,-7.78125,-22.046875,12.90625,151
1695311484597,-0.46142578,-1.2332153,0.22894287,-3.859375,0.0,-0.6875,152
1695311484637,-0.31396484,-1.4453735,0.2411499,-5.546875,2.59375,-3.0625,153
1695311484677,-0.13012695,-1.0737915,0.061462402,4.984375,9.5,4.265625,154
1695311484717,-0.092041016,-0.8999634,0.10614014,1.390625,1.03125,2.5625,155
1695311484757,-0.17700195,-0.8245239,0.14593506,-3.984375,-3.34375,0.484375,156
1695311484797,-0.14794922,-0.8242798,0.04876709,-5.734375,-6.125,-0.390625,157
1695311484837,-0.17407227,-0.8389282,0.08441162,-4.03125,-4.140625,1.359375,158
1695311484877,-0.20996094,-0.90289307,0.13201904,-3.3125,-2.921875,4.1875,159
1695311484917,-0.22509766,-0.9085083,0.16571045,-2.71875,-4.1875,4.5625,160
1695311484957,-0.19482422,-0.91119385,0.14202881,-1.390625,-4.96875,4.84375,161
1695311484997,-0.19458008,-0.831604,0.16448975,1.328125,-3.28125,6.375,162
1695311485037,-0.20263672,-0.74176025,0.18841553,1.203125,-2.84375,6.0625,163
1695311485077,-0.20996094,-0.69488525,0.13201904,0.046875,-5.375,3.703125,164
1695311485117,-0.18188477,-0.755188,0.14691162,-3.921875,-10.609375,1.59375,165
1695311485157,-0.22485352,-0.6741333,0.16741943,2.859375,-5.375,4.0,166
1695311485197,-0.18334961,-0.7295532,0.070251465,-0.28125,-9.734375,0.171875,167
1695311485237,-0.1262207,-0.9985962,0.054870605,-23.234375,-29.828125,-6.6875,168
1695311485277,0.075683594,-1.4561157,0.08880615,1.734375,-17.9375,-10.453125,169
1695311485317,0.118896484,-1.7737427,0.1449585,-4.421875,-7.359375,5.53125,170
1695311485357,-0.31958008,-1.3501587,0.38519287,5.703125,-3.25,2.4375,171
1695311485397,-0.16186523,-1.2390747,0.15887451,5.78125,-7.375,-8.375,172
1695311485437,-0.16503906,-1.11969,0.18499756,10.625,-3.46875,-6.078125,173
1695311485477,-0.040771484,-0.9973755,0.0848999,4.234375,-5.28125,0.453125,174
1695311485517,-0.07128906,-0.8855591,0.097839355,2.8125,-5.671875,3.890625,175
1695311485557,-0.16455078,-0.833313,0.13543701,-1.5,-8.0625,3.1875,176
1695311485597,-0.15258789,-0.8206177,0.15228271,-6.734375,-9.234375,-2.484375,177
1695311485637,-0.12646484,-0.8960571,0.20135498,-4.15625,-9.0,-4.34375,178
1695311485677,-0.1381836,-0.8953247,0.18817139,-4.40625,-5.640625,-2.125,179
1695311485717,-0.16381836,-0.86602783,0.16131592,0.734375,-3.21875,-1.21875,180
1695311485757,-0.1394043,-0.87872314,0.1564331,2.859375,-7.9375,-3.859375,181
1695311485797,-0.16210938,-0.83966064,0.24310303,2.96875,-4.46875,-2.265625,182
1695311485837,-0.18676758,-0.78375244,0.11590576,4.875,-2.734375,-0.671875,183
1695311485877,-0.15258789,-0.73687744,0.1749878,8.203125,-3.0625,-2.015625,184
1695311485917,-0.11303711,-0.76153564,0.17938232,6.21875,-5.390625,-0.046875,185
1695311485957,-0.18017578,-0.70880127,0.15960693,1.0625,-7.078125,-0.71875,186
1695311485997,-0.13378906,-0.89678955,-0.105529785,-3.09375,-18.25,-5.65625,187
1695311486037,-0.07470703,-1.4458618,0.0770874,-10.6875,-32.28125,-1.78125,188
1695311486077,-0.22314453,-1.2420044,-0.19464111,-2.25,-21.953125,8.65625,189
1695311486117,-0.43310547,-1.5105591,0.1305542,-7.015625,-19.15625,2.265625,190
1695311486157,-0.36621094,-1.298645,0.113464355,-3.234375,-4.59375,-4.765625,191
1695311486197,-0.28759766,-1.3770142,0.20037842,-6.171875,-5.640625,-1.8125,192
1695311486237,-0.19628906,-1.076477,0.042175293,1.984375,0.15625,3.9375,193
1695311486277,-0.18798828,-0.8804321,0.025817871,5.015625,-3.828125,3.78125,194
1695311486317,-0.21923828,-0.83135986,0.08465576,1.625,-2.09375,2.078125,195
1695311486357,-0.20019531,-0.8526001,0.06317139,-0.859375,-4.359375,0.484375,196
1695311486397,-0.22973633,-0.8718872,0.06536865,-1.3125,-5.234375,1.21875,197
1695311486437,-0.21386719,-0.87335205,0.08026123,-0.984375,-6.234375,2.296875,198
1695311486477,-0.21679688,-0.82037354,0.11395264,-3.09375,-5.453125,3.015625,199
1695311486517,-0.24267578,-0.84454346,0.101745605,-5.734375,-7.046875,2.375,200
1695311486557,-0.19091797,-0.8262329,0.10638428,-2.828125,-5.15625,6.21875,201
1695311486597,-0.19384766,-0.77593994,0.1161499,-2.515625,-7.15625,8.0,202
1695311486637,-0.23095703,-0.7554321,0.121032715,-4.65625,-5.8125,7.1875,203
1695311486677,-0.2421875,-0.7349243,0.12957764,-6.296875,-3.484375,4.484375,204
1695311486717,-0.22851562,-0.79473877,0.12713623,-5.078125,-2.75,2.640625,205
1695311486757,-0.2626953,-0.91119385,0.12689209,-8.890625,-6.78125,0.609375,206
1695311486797,-0.23876953,-1.0291138,0.06536865,-13.921875,-16.765625,-5.78125,207
1695311486837,-0.052001953,-1.3999634,0.038024902,-14.453125,-20.25,-13.765625,208
1695311486877,-0.024658203,-1.602356,0.10272217,-2.34375,-5.921875,4.796875,209
1695311486917,-0.3010254,-1.2827759,0.24822998,0.078125,-0.25,1.671875,210
1695311486957,-0.17504883,-1.1065063,0.11175537,5.640625,1.109375,-3.8125,211
1695311486997,-0.12524414,-1.1514282,0.09295654,5.9375,-3.015625,-0.6875,212
1695311487037,-0.031982422,-1.0496216,0.18841553,4.125,-3.15625,6.671875,213
1695311487077,-0.122558594,-0.8670044,0.11517334,0.1875,-5.59375,7.234375,214
1695311487117,-0.1743164,-0.8452759,0.08905029,1.09375,-5.828125,3.6875,215
1695311487157,-0.1394043,-0.83258057,0.09661865,3.59375,-1.15625,2.28125,216
1695311487197,-0.11401367,-0.8723755,0.16156006,-0.9375,-0.859375,0.921875,217
1695311487237,-0.15893555,-0.8682251,0.20428467,-3.3125,-1.34375,-1.34375,218
1695311487277,-0.14038086,-0.9487915,0.13323975,-8.640625,-8.484375,-6.546875,219
1695311487317,-0.12084961,-0.87701416,0.19329834,-2.53125,-9.828125,-6.484375,220
1695311487357,-0.1418457,-0.8023071,0.19354248,-0.40625,-5.65625,-4.171875,221
1695311487397,-0.16577148,-0.75372314,0.09832764,6.046875,-1.046875,-1.671875,222
1695311487437,-0.17919922,-0.8296509,0.14593506,0.4375,-5.96875,-3.171875,223
1695311487477,-0.20996094,-0.80255127,0.27923584,5.28125,-6.203125,-4.640625,224
1695311487517,-0.17382812,-0.8789673,0.2086792,-0.65625,-5.03125,-3.03125,225
1695311487557,-0.17578125,-0.89556885,0.21136475,0.640625,-6.53125,-3.34375,226
1695311487597,-0.114990234,-1.0542603,-0.054504395,-2.03125,-15.953125,-1.859375,227
1695311487637,-0.21923828,-1.1013794,0.058044434,-2.421875,-20.921875,0.65625,228
1695311487677,-0.12890625,-1.6411743,-0.31036377,-12.578125,-27.953125,-1.890625,229
1695311487717,-0.70166016,-1.1819458,0.3307495,-7.640625,-9.34375,6.6875,230
1695311487757,-0.21923828,-1.3145142,0.03289795,-2.234375,-4.84375,-3.609375,231
1695311487797,-0.34204102,-1.3325806,0.3036499,-7.890625,-6.5625,2.578125,232
1695311487837,-0.20678711,-0.8250122,0.051208496,4.28125,1.28125,4.90625,233
1695311487877,-0.1303711,-0.7424927,-0.0012817383,6.46875,-4.09375,1.796875,234
1695311487917,-0.2277832,-0.82818604,0.09466553,-0.125,-10.703125,0.734375,235
1695311487957,-0.1977539,-0.88409424,0.10223389,2.03125,-7.4375,3.171875,236
1695311487997,-0.19555664,-0.86431885,0.038513184,-1.578125,-7.140625,5.40625,237
1695311488037,-0.2434082,-0.8726196,0.117126465,-2.34375,-8.34375,5.09375,238
1695311488077,-0.2019043,-0.87628174,0.13543701,5.515625,0.828125,10.234375,239
1695311488117,-0.21728516,-0.8196411,0.109558105,0.734375,0.875,11.90625,240
1695311488157,-0.2487793,-0.8147583,0.09197998,-2.28125,-3.078125,6.6875,241
1695311488197,-0.18066406,-0.7720337,0.09100342,1.625,0.1875,6.359375,242
1695311488237,-0.20288086,-0.83013916,0.1383667,-4.828125,-5.359375,4.765625,243
1695311488277,-0.21533203,-0.847229,0.17694092,-9.140625,-6.15625,3.78125,244
1695311488317,-0.2211914,-0.8086548,0.19232178,-6.625,-5.375,1.96875,245
1695311488357,-0.2253418,-0.9326782,0.12786865,-13.6875,-11.484375,-2.71875,246
1695311488397,-0.115722656,-1.1201782,0.029968262,-10.625,-13.515625,-9.703125,247
1695311488437,0.11328125,-1.3840942,-0.019348145,-4.5625,0.09375,2.53125,248
1695311488477,-0.14453125,-1.4854126,0.15667725,-5.84375,-5.328125,3.671875,249
1695311488517,-0.3359375,-1.3953247,0.30999756,-1.03125,-0.5,0.3125,250
1695311488557,-0.19580078,-1.2390747,0.15106201,0.453125,-5.453125,-4.4375,251
1695311488597,-0.1381836,-1.0562134,0.24285889,12.609375,0.75,3.0,252
1695311488637,-0.1730957,-0.80914307,0.105407715,11.828125,2.71875,6.90625,253
1695311488677,-0.16015625,-0.7427368,0.035583496,8.5625,2.84375,3.828125,254
1695311488717,-0.10668945,-0.78302,0.070739746,5.59375,2.0625,1.015625,255
1695311488757,-0.09301758,-0.75177,0.12322998,-1.953125,-0.375,-2.78125,256
1695311488797,-0.1430664,-0.7683716,0.17474365,-2.078125,-0.46875,-5.828125,257
1695311488837,-0.12060547,-0.8460083,0.16082764,-4.453125,-7.078125,-9.546875,258
1695311488877,-0.07470703,-0.8093872,0.16107178,-0.703125,-7.140625,-7.515625,259
1695311488917,-0.11254883,-0.80181885,0.13226318,1.40625,-10.578125,-5.8125,260
1695311488957,-0.17260742,-0.8303833,0.19110107,3.203125,-10.203125,-4.46875,261
1695311488997,-0.19580078,-0.86846924,0.17327881,-0.5625,-12.078125,-4.046875,262
1695311489037,-0.17456055,-0.9883423,0.043640137,-8.8125,-20.5,-6.578125,263
1695311489077,-0.0625,-1.4334106,-0.12310791,-6.265625,-29.375,0.109375,264
1695311489117,-0.1538086,-1.447815,-0.15264893,1.6875,-25.5,13.34375,265
1695311489157,-0.61035156,-1.1714478,0.19354248,-2.59375,-19.203125,4.890625,266
1695311489197,-0.2932129,-1.3557739,0.11053467,-5.515625,-14.140625,-4.171875,267
1695311489237,-0.2980957,-1.2578735,0.105895996,-9.625,-8.0625,-2.046875,268
1695311489277,-0.20898438,-0.95147705,-0.0256958,2.0,-5.53125,0.6875,269
1695311489317,-0.21777344,-0.9002075,0.039733887,-3.796875,-9.53125,-1.421875,270
1695311489357,-0.25952148,-0.86724854,0.109558105,-0.734375,-3.9375,-0.640625,271
1695311489397,-0.22143555,-0.83258057,0.043884277,-0.890625,-2.578125,0.140625,272
1695311489437,-0.21459961,-0.7908325,0.06365967,-2.640625,-6.0625,0.71875,273
1695311489477,-0.20288086,-0.77545166,0.085876465,-3.71875,-7.4375,2.140625,274
1695311489517,-0.23364258,-0.78448486,0.120788574,-4.59375,-7.03125,3.90625,275
1695311489557,-0.22753906,-0.79571533,0.11126709,-4.140625,-3.9375,6.75,276
1695311489597,-0.23095703,-0.7649536,0.14300537,-3.625,-3.890625,8.109375,277
1695311489637,-0.22924805,-0.7554321,0.13250732,-6.078125,-6.203125,6.296875,278
1695311489677,-0.25732422,-0.7737427,0.16766357,-0.453125,-0.53125,6.75,279
1695311489717,-0.29614258,-0.8015747,0.14031982,-2.0,-0.21875,3.984375,280
1695311489757,-0.2763672,-0.9487915,0.12884521,-8.65625,-5.1875,0.46875,281
1695311489797,-0.21704102,-1.1489868,0.03289795,-13.546875,-13.046875,-8.15625,282
1695311489837,0.032470703,-1.3787231,0.03729248,-4.3125,-3.0,-5.859375,283
1695311489877,-0.06298828,-1.5913696,0.17547607,-0.296875,0.984375,2.03125,284
1695311489917,-0.36450195,-1.2737427,0.31951904,2.90625,1.0,-4.40625,285
1695311489957,-0.19604492,-1.2595825,0.08709717,7.578125,2.875,-6.328125,286
1695311489997,-0.0949707,-1.0967407,0.23138428,13.0,8.125,2.640625,287
1695311490037,-0.10986328,-0.84210205,0.13006592,9.296875,3.453125,6.65625,288
1695311490077,-0.12695312,-0.710022,0.07537842,5.59375,-1.046875,3.671875,289
1695311490117,-0.087402344,-0.73516846,0.09466553,0.265625,-5.46875,-0.734375,290
1695311490157,-0.111328125,-0.7959595,0.15472412,-6.234375,-8.421875,-4.296875,291
1695311490197,-0.119384766,-0.88897705,0.16741943,-13.734375,-12.671875,-6.6875,292
1695311490237,-0.15405273,-0.84576416,0.19915771,-8.34375,-11.9375,-7.703125,293
1695311490277,-0.119140625,-0.74053955,0.12664795,2.140625,-7.875,-4.3125,294
1695311490317,-0.12890625,-0.7625122,0.1564331,1.765625,-9.171875,0.0,295
1695311490357,-0.21557617,-0.79644775,0.26068115,-3.28125,-16.59375,-2.140625,296
1695311490397,-0.18286133,-0.8430786,0.25531006,-6.796875,-16.1875,-4.09375,297
1695311490437,-0.1694336,-1.0078735,-0.0012817383,-7.421875,-18.578125,-5.296875,298
1695311490477,-0.10424805,-1.3369751,-0.04058838,-3.109375,-23.171875,7.0625,299
1695311490517,-0.25024414,-1.22052,-0.1362915,-2.9375,-27.09375,6.640625,300
1695311490557,-0.49121094,-1.5335083,0.1828003,-7.625,-23.328125,6.0,301
1695311490597,-0.3869629,-1.258606,0.10662842,-3.1875,-0.421875,0.078125,302
1695311490637,-0.28442383,-1.3203735,0.09613037,-7.875,-13.40625,-1.90625,303
1695311490677,-0.2919922,-0.9990845,0.109802246,-0.109375,-6.171875,3.171875,304
1695311490717,-0.23144531,-0.76226807,0.050964355,4.09375,-2.765625,0.84375,305
1695311490757,-0.19042969,-0.79278564,0.050231934,3.546875,-3.90625,0.21875,306
1695311490797,-0.19140625,-0.8140259,0.02166748,0.828125,-7.03125,2.015625,307
1695311490837,-0.17578125,-0.7966919,0.04168701,-2.15625,-10.3125,4.34375,308
1695311490877,-0.21923828,-0.7925415,0.08465576,-2.96875,-9.0625,5.53125,309
1695311490917,-0.22998047,-0.85040283,0.13226318,-3.0,-7.8125,7.0,310
1695311490957,-0.2397461,-0.82769775,0.1293335,-2.015625,-4.859375,9.171875,311
1695311490997,-0.2355957,-0.7756958,0.09588623,-0.84375,-4.921875,8.921875,312
1695311491037,-0.24853516,-0.78497314,0.117614746,-2.046875,-4.53125,6.25,313
1695311491077,-0.25463867,-0.8052368,0.14447021,0.46875,0.6875,5.78125,314
1695311491117,-0.2265625,-0.8386841,0.16790771,-6.875,-2.421875,4.5625,315
1695311491157,-0.26000977,-0.92681885,0.055358887,-8.53125,-7.453125,2.671875,316
1695311491197,-0.16235352,-1.1292114,0.066101074,-10.140625,-12.046875,-6.875,317
1695311491237,0.06713867,-1.4558716,-0.004699707,-11.21875,-2.375,-5.640625,318
1695311491277,-0.033691406,-1.5435181,0.2086792,-2.390625,-3.953125,6.703125,319
1695311491317,-0.4033203,-1.2754517,0.32196045,2.1875,-0.890625,-0.828125,320
1695311491357,-0.20263672,-1.2324829,0.14984131,5.140625,2.4375,-6.578125,321
1695311491397,-0.11743164,-1.055481,0.20477295,8.53125,3.21875,1.515625,322
1695311491437,-0.12866211,-0.861145,0.124694824,0.5,-3.765625,1.40625,323
1695311491477,-0.1184082,-0.77056885,0.101745605,0.09375,-5.984375,-0.0625,324
1695311491517,-0.084472656,-0.7798462,0.109802246,0.5625,-2.109375,0.546875,325
1695311491557,-0.12426758,-0.76153564,0.15814209,-4.03125,-5.140625,-3.234375,326
1695311491597,-0.1328125,-0.8184204,0.17034912,-5.890625,-10.625,-7.484375,327
1695311491637,-0.12475586,-0.83380127,0.19281006,-3.671875,-9.484375,-6.78125,328
1695311491677,-0.13256836,-0.78619385,0.12664795,4.109375,-5.40625,-2.8125,329
1695311491717,-0.15966797,-0.7744751,0.16009521,0.640625,-11.84375,-3.984375,330
1695311491757,-0.14697266,-0.8076782,0.19476318,-1.3125,-14.796875,-4.5,331
1695311491797,-0.2536621,-0.8928833,0.26019287,-5.40625,-16.84375,-5.828125,332
1695311491837,-0.25708008,-0.90509033,0.23138428,-2.6875,-14.3125,-5.5,333
1695311491877,-0.13574219,-1.2590942,-0.0015258789,-4.328125,-25.84375,-2.1875,334
1695311491917,-0.18017578,-1.2583618,-0.0491333,9.734375,-23.125,8.765625,335
1695311491957,-0.2915039,-1.5606079,-0.06085205,-12.515625,-31.984375,8.875,336
1695311491997,-0.5205078,-1.052063,0.15960693,-0.0625,-8.234375,1.859375,337
1695311492037,-0.23144531,-1.3945923,0.10296631,-5.59375,-16.84375,-2.265625,338
1695311492077,-0.2998047,-1.177063,0.12420654,-8.46875,-16.15625,4.0625,339
1695311492117,-0.2290039,-0.81085205,0.01776123,-2.0,-16.203125,3.734375,340
1695311492157,-0.20532227,-0.80670166,0.059265137,-0.0625,-13.84375,3.421875,341
1695311492197,-0.25952148,-0.82281494,0.059265137,-1.71875,-11.59375,3.890625,342
1695311492237,-0.2097168,-0.78570557,0.009216309,0.046875,-11.546875,4.84375,343
1695311492277,-0.16552734,-0.8086548,0.015319824,-2.296875,-12.296875,6.1875,344
1695311492317,-0.22607422,-0.84991455,0.11224365,-3.390625,-10.890625,8.484375,345
1695311492357,-0.20898438,-0.878479,0.15765381,-1.8125,-6.3125,10.5625,346
1695311492397,-0.24804688,-0.7918091,0.12542725,-4.578125,-6.53125,8.859375,347
1695311492437,-0.22436523,-0.74224854,0.0927124,1.140625,-4.09375,6.546875,348
1695311492477,-0.21875,-0.8255005,0.12054443,-4.109375,-6.171875,5.15625,349
1695311492517,-0.23657227,-0.8296509,0.1630249,-1.140625,-3.703125,6.53125,350
1695311492557,-0.25219727,-0.81427,0.11199951,-6.265625,-4.65625,5.265625,351
1695311492597,-0.20483398,-1.0640259,0.020935059,-19.359375,-20.53125,-5.359375,352
1695311492637,-0.0024414062,-1.2817993,0.024597168,-4.921875,-10.8125,-2.671875,353
1695311492677,0.037109375,-1.5354614,0.20037842,-7.71875,-4.953125,6.03125,354
1695311492717,-0.37231445,-1.3413696,0.28216553,-0.671875,-3.046875,-2.34375,355
1695311492757,-0.1381836,-1.2713013,0.18865967,1.3125,-4.40625,-8.328125,356
1695311492797,-0.06347656,-1.1555786,0.16033936,7.15625,-3.15625,0.859375,357
1695311492837,-0.14672852,-0.90167236,0.16204834,2.234375,-6.125,3.359375,358
1695311492877,-0.16381836,-0.7612915,0.08392334,0.9375,-6.140625,-0.421875,359
1695311492917,-0.13964844,-0.77911377,0.12005615,3.578125,-2.546875,-1.4375,360
1695311492957,-0.107177734,-0.7515259,0.12567139,1.375,1.625,0.140625,361
1695311492997,-0.12451172,-0.7485962,0.13861084,-0.484375,-2.4375,-3.34375,362
1695311493037,-0.15820312,-0.73883057,0.17254639,-1.28125,-6.765625,-7.109375,363
1695311493077,-0.057861328,-0.7954712,0.09466553,2.84375,-4.21875,-4.484375,364
1695311493117,-0.11743164,-0.76690674,0.16131592,1.625,-7.75,-3.234375,365
1695311493157,-0.18652344,-0.78497314,0.20574951,3.0625,-10.015625,-2.53125,366
1695311493197,-0.21435547,-0.9234009,0.1071167,-10.796875,-16.40625,-6.765625,367
1695311493237,-0.1262207,-1.2583618,-0.004211426,-7.28125,-27.046875,-5.984375,368
1695311493277,-0.06347656,-1.435852,-0.04449463,-1.390625,-16.796875,12.125,369
1695311493317,-0.40820312,-1.2815552,0.08880615,-7.734375,-21.953125,10.296875,370
1695311493357,-0.34277344,-1.4441528,0.22332764,-5.671875,-10.5,1.890625,371
1695311493397,-0.29296875,-1.3208618,0.21160889,-3.828125,-2.375,2.046875,372
1695311493437,-0.23364258,-0.99591064,0.034362793,5.890625,-1.046875,4.015625,373
1695311493477,-0.16015625,-0.9182739,0.07269287,4.765625,-3.8125,2.921875,374
1695311493517,-0.18481445,-0.81573486,0.085632324,2.609375,-3.984375,3.140625,375
1695311493557,-0.15942383,-0.7192993,0.026550293,-2.71875,-7.546875,2.109375,376
1695311493597,-0.15893555,-0.7185669,0.06072998,-4.21875,-8.328125,1.015625,377
1695311493637,-0.1640625,-0.78448486,0.03753662,-5.71875,-10.0625,1.96875,378
1695311493677,-0.16918945,-0.83551025,0.12542725,-3.40625,-6.34375,5.359375,379
1695311493717,-0.22045898,-0.8032837,0.097351074,0.234375,-3.015625,8.296875,380
1695311493757,-0.20581055,-0.79473877,0.10418701,-4.5,-7.125,4.140625,381
1695311493797,-0.23657227,-0.848938,0.15570068,-2.109375,-4.46875,4.078125,382
1695311493837,-0.22338867,-0.78204346,0.17840576,1.484375,0.34375,3.09375,383
1695311493877,-0.11621094,-1.0696411,0.010925293,-18.3125,-19.375,-5.890625,384
1695311493917,-0.012451172,-1.242981,0.07171631,2.890625,-7.796875,-1.265625,385
1695311493957,0.04345703,-1.2998657,0.1317749,3.9375,0.140625,4.5,386
1695311493997,-0.2734375,-1.2783813,0.22918701,-4.40625,-11.421875,-1.484375,387
1695311494037,-0.13427734,-1.1856079,0.26922607,6.453125,-7.78125,-5.65625,388
1695311494077,-0.087890625,-1.0872192,0.1329956,4.46875,-9.0625,0.375,389
1695311494117,-0.09082031,-1.0508423,0.15179443,-1.109375,-17.5625,1.25,390
1695311494157,-0.119140625,-0.9985962,0.17767334,-4.453125,-18.953125,-2.15625,391
1695311494197,-0.1784668,-0.9697876,0.18353271,0.15625,-16.78125,-2.265625,392
1695311494237,-0.17700195,-0.9282837,0.230896,4.109375,-14.046875,-2.765625,393
1695311494277,-0.13500977,-0.8179321,0.15447998,6.375,-15.46875,-3.234375,394
1695311494317,-0.15429688,-0.74005127,0.15740967,5.578125,-13.15625,-3.3125,395
1695311494357,-0.14379883,-0.6682739,0.050964355,8.28125,-8.921875,-2.359375,396
1695311494397,-0.12011719,-0.6746216,0.11517334,4.09375,-10.9375,-2.28125,397
1695311494437,-0.16064453,-0.62823486,0.12689209,7.671875,-14.125,-0.734375,398
1695311494477,-0.096191406,-0.6548462,0.11248779,8.953125,-15.78125,2.796875,399
1695311494517,-0.1899414,-0.54351807,0.18157959,9.40625,-18.890625,5.328125,400
1695311494557,0.030517578,-0.8467407,-0.18951416,6.203125,-32.203125,8.578125,401
1695311494597,0.07446289,-1.2954712,-0.19805908,5.078125,-49.078125,18.25,402
1695311494637,-0.4194336,-1.0969849,-0.109191895,9.90625,-39.0,17.5625,403
1695311494677,-0.14111328,-1.4917603,-0.16021729,1.796875,-42.0625,8.765625,404
1695311494717,-0.087402344,-1.5874634,-0.20074463,7.125,-28.984375,8.015625,405
1695311494757,-0.0063476562,-1.5266724,-0.20123291,10.296875,-20.375,9.328125,406
1695311494797,-0.05883789,-1.508606,-0.14508057,2.34375,-23.796875,6.234375,407
1695311494837,-0.080566406,-1.3806763,-0.093322754,-2.53125,-19.09375,4.03125,408
1695311494877,-0.06347656,-1.3147583,-0.066467285,-2.875,-17.21875,0.078125,409
1695311494917,-0.111572266,-1.21344,-0.022033691,-2.0,-16.796875,-3.15625,410
1695311494957,-0.07763672,-1.1174927,-0.054016113,-5.203125,-17.078125,-6.90625,411
1695311494997,-0.119628906,-1.0559692,0.022644043,-3.4375,-12.515625,-7.65625,412
1695311495037,-0.12597656,-0.89263916,0.04510498,-3.0,-11.453125,-8.3125,413
1695311495077,-0.099365234,-0.76104736,0.0018920898,-3.09375,-12.015625,-9.6875,414
1695311495117,-0.07421875,-0.7073364,-0.0044555664,-3.40625,-12.03125,-6.90625,415
1695311495157,-0.11303711,-0.6121216,0.08514404,-6.671875,-15.828125,-5.28125,416
1695311495197,-0.08666992,-0.5991821,0.00018310547,-9.4375,-21.140625,-3.140625,417
1695311495237,-0.06225586,-0.7139282,-0.009338379,-18.828125,-28.53125,1.390625,418
1695311495277,-0.20410156,-0.8245239,0.16497803,-15.3125,-30.75,6.296875,419
1695311495317,-0.14428711,-1.0161743,0.055603027,-8.84375,-28.453125,5.484375,420
1695311495357,0.0126953125,-1.2410278,-0.17608643,-11.5,-15.796875,9.265625,421
1695311495397,0.0021972656,-1.2368774,-0.097717285,2.359375,-8.09375,9.484375,422
1695311495437,0.07836914,-1.0703735,-0.018371582,7.015625,-1.78125,6.859375,423
1695311495477,0.045898438,-1.0747681,-0.023498535,-3.125,-6.40625,2.09375,424
1695311495517,-0.037597656,-1.0647583,-0.08258057,-5.328125,-12.53125,-4.53125,425
1695311495557,0.025146484,-1.12677,-0.066223145,-7.265625,-10.4375,-6.1875,426
1695311495597,0.016845703,-1.0613403,0.02532959,-7.625,-14.046875,-6.53125,427
1695311495637,0.0053710938,-1.0066528,0.081726074,-7.171875,-15.5,-6.578125,428
1695311495677,-0.042236328,-0.92926025,0.086120605,-6.21875,-13.921875,-6.71875,429
1695311495717,-0.072509766,-0.88946533,0.10076904,-0.71875,-9.609375,-5.0,430
1695311495757,-0.091308594,-0.85723877,0.11517334,-1.8125,-8.328125,-4.0,431
1695311495797,-0.13232422,-0.8057251,0.12982178,-0.546875,-8.015625,-5.078125,432
1695311495837,-0.15649414,-0.80474854,0.15350342,-2.296875,-8.171875,-7.078125,433
1695311495877,-0.15209961,-0.8435669,0.15545654,-5.015625,-8.203125,-8.1875,434
1695311495917,-0.16430664,-0.8579712,0.18572998,-1.71875,-5.96875,-6.96875,435
1695311495957,-0.16918945,-0.88604736,0.14935303,-2.265625,-5.140625,-6.796875,436
1695311495997,-0.22729492,-0.9651489,0.22235107,4.328125,-4.625,-6.59375,437
1695311496037,-0.2993164,-1.1448364,0.10784912,1.328125,-10.765625,-10.328125,438
1695311496077,0.025878906,-1.5603638,-0.06329346,1.140625,-19.65625,-6.3125,439
1695311496117,-0.032226562,-1.4004517,0.07733154,7.453125,-17.03125,6.421875,440
1695311496157,-0.18847656,-0.8362427,0.08392334,-0.90625,-1.296875,1.46875,441
1695311496197,-0.044433594,-1.138977,-0.19195557,-16.21875,-5.53125,-5.296875,442
1695311496237,-0.009277344,-1.1004028,-0.2197876,-3.3125,-6.921875,1.5625,443
1695311496277,0.007080078,-1.0671997,0.04534912,-11.1875,-14.5,2.546875,444
1695311496317,-0.14086914,-0.8796997,0.098083496,-16.8125,-14.640625,-0.171875,445
1695311496357,-0.07397461,-0.847229,0.0038452148,-8.53125,-12.609375,-1.578125,446
1695311496397,-0.13745117,-0.81256104,0.070739746,-6.671875,-12.296875,-1.265625,447
1695311496437,-0.14672852,-0.8362427,0.06732178,-5.953125,-12.03125,-0.953125,448
1695311496477,-0.1237793,-0.85479736,0.070739746,-4.984375,-10.296875,1.75,449
1695311496517,-0.13989258,-0.85943604,0.13763428,-2.8125,-10.796875,5.734375,450
1695311496557,-0.20019531,-0.8755493,0.18084717,-5.203125,-13.09375,5.09375,451
1695311496597,-0.23583984,-0.89801025,0.2086792,-1.515625,-14.859375,4.125,452
1695311496637,-0.18725586,-0.9182739,0.1642456,1.828125,-11.234375,5.625,453
1695311496677,-0.18847656,-0.92437744,0.1876831,-0.3125,-13.125,5.8125,454
1695311496717,-0.24389648,-0.9553833,0.21600342,0.828125,-16.90625,5.234375,455
1695311496757,-0.24169922,-1.0151978,0.25823975,-2.40625,-20.4375,5.203125,456
1695311496797,-0.20605469,-1.192688,0.1786499,-7.71875,-24.546875,2.5625,457
1695311496837,-0.08666992,-1.2664185,-0.00592041,-5.703125,-25.4375,1.375,458
1695311496877,0.072753906,-1.1604614,0.00579834,-2.484375,-15.359375,0.296875,459
1695311496917,0.14379883,-1.0435181,-0.1428833,0.4375,-19.375,0.921875,460
1695311496957,0.10205078,-1.0974731,0.00579834,-4.546875,-27.109375,-0.65625,461
1695311496997,-0.0146484375,-1.1253052,0.22528076,-7.25,-23.9375,4.4375,462
1695311497037,-0.09814453,-0.9463501,0.06512451,-10.3125,-24.328125,0.65625,463
1695311497077,-0.091552734,-0.84332275,0.029724121,-1.4375,-17.953125,-2.65625,464
1695311497117,-0.072021484,-0.8513794,0.1486206,3.859375,-13.671875,-2.0625,465
1695311497157,-0.08227539,-0.82037354,0.14764404,-0.703125,-14.578125,-2.609375,466
1695311497197,-0.099609375,-0.8115845,0.1329956,-1.3125,-13.859375,-3.390625,467
1695311497237,-0.12670898,-0.8689575,0.1852417,-1.5,-14.359375,-4.0625,468
1695311497277,-0.14501953,-0.8718872,0.21185303,1.390625,-13.09375,-3.984375,469
1695311497317,-0.16137695,-0.85284424,0.23431396,2.203125,-11.125,-5.71875,470
1695311497357,-0.18237305,-0.85772705,0.21942139,5.296875,-9.296875,-7.0625,471
1695311497397,-0.17211914,-0.91851807,0.16229248,7.953125,-9.140625,-8.09375,472
1695311497437,-0.14404297,-0.973938,0.21356201,6.15625,-13.4375,-7.09375,473
1695311497477,-0.3256836,-0.9998169,0.324646,4.296875,-17.171875,-9.171875,474
1695311497517,-0.32763672,-1.2061157,-0.0256958,-8.703125,-27.9375,-20.078125,475
1695311497557,0.37768555,-1.5505981,-0.20172119,-10.015625,-45.21875,-11.1875,476
1695311497597,-0.23364258,-1.0366821,-0.05718994,8.34375,-34.234375,12.796875,477
1695311497637,-0.30786133,-0.81573486,0.0053100586,-11.8125,-20.125,2.40625,478
1695311497677,-0.10180664,-1.1743774,-0.1795044,-20.25,-20.828125,-8.125,479
1695311497717,-0.1459961,-1.25177,-0.018615723,-8.46875,-21.375,4.890625,480
1695311497757,-0.13012695,-0.9607544,-0.034729004,-4.96875,-20.296875,7.3125,481
1695311497797,-0.19995117,-0.8867798,0.039001465,-9.53125,-19.859375,1.140625,482
1695311497837,-0.20483398,-0.8897095,0.1251831,-4.140625,-16.15625,-0.25,483
1695311497877,-0.19458008,-0.83306885,0.058532715,-3.265625,-13.65625,0.625,484
1695311497917,-0.14331055,-0.8015747,0.006286621,-6.75,-17.546875,0.34375,485
1695311497957,-0.13720703,-0.75445557,0.062438965,-4.859375,-19.078125,1.453125,486
1695311497997,-0.091552734,-0.6904907,0.011169434,-9.34375,-23.5,3.578125,487
1695311498037,-0.15600586,-0.6992798,0.04949951,-19.265625,-29.140625,2.40625,488
1695311498077,-0.19824219,-0.6865845,0.10614014,-10.953125,-28.5625,3.796875,489
1695311498117,-0.22680664,-0.79693604,0.07220459,-18.421875,-31.90625,1.53125,490
1695311498157,-0.2421875,-0.8753052,0.15496826,-12.640625,-30.953125,3.59375,491
1695311498197,-0.3491211,-0.85479736,0.230896,-15.15625,-29.84375,1.765625,492
1695311498237,-0.34521484,-0.9546509,0.07879639,-15.765625,-25.109375,-1.71875,493
1695311498277,-0.10864258,-1.2232056,-0.010559082,-21.171875,-27.9375,-2.796875,494
1695311498317,0.15551758,-1.6104126,0.05316162,-7.15625,-19.359375,7.265625,495
1695311498357,-0.34594727,-1.4448853,0.46380615,0.828125,-11.078125,8.296875,496
1695311498397,-0.28735352,-1.2622681,0.23699951,0.140625,-11.375,-3.375,497
1695311498437,-0.064941406,-1.2368774,0.20477295,4.96875,-10.578125,-1.8125,498
1695311498477,-0.11645508,-0.98028564,0.27215576,2.453125,-13.671875,4.390625,499
1695311498517,-0.16772461,-0.7908325,0.08831787,-2.703125,-18.6875,1.75,500
1695311498557,-0.107910156,-0.7876587,0.14300537,-0.5,-14.4375,0.859375,501
1695311498597,-0.10229492,-0.78741455,0.2098999,-6.03125,-13.46875,2.09375,502
1695311498637,-0.15649414,-0.69122314,0.2296753,-0.625,-9.0625,0.71875,503
1695311498677,-0.1274414,-0.6758423,0.1708374,-3.5,-11.0625,-3.09375,504
1695311498717,-0.083740234,-0.7661743,0.1593628,-5.1875,-13.578125,-2.65625,505
1695311498757,-0.14990234,-0.68756104,0.16912842,1.34375,-13.34375,-1.453125,506
1695311498797,-0.16772461,-0.7896118,0.18621826,-3.390625,-16.1875,-2.171875,507
1695311498837,-0.18945312,-0.79888916,0.2543335,-5.359375,-16.796875,-3.5,508
1695311498877,-0.14990234,-1.0256958,0.121276855,-14.59375,-25.984375,-4.984375,509
1695311498917,-0.16845703,-1.2561646,0.014587402,-1.890625,-29.546875,1.578125,510
1695311498957,-0.14770508,-1.3511353,-0.11431885,-5.828125,-24.28125,10.328125,511
1695311498997,-0.50683594,-1.3076782,0.14984131,-2.296875,-23.078125,2.9375,512
1695311499037,-0.4128418,-1.5264282,0.25115967,-1.828125,-12.40625,2.84375,513
1695311499077,-0.35546875,-1.222229,0.0914917,1.890625,-5.5,3.296875,514
1695311499117,-0.27807617,-1.100647,0.11126709,4.875,-7.8125,2.96875,515
1695311499157,-0.2783203,-0.9673462,0.11224365,4.875,-2.484375,5.359375,516
1695311499197,-0.24047852,-0.8262329,0.046813965,4.453125,-0.984375,4.328125,517
1695311499237,-0.22094727,-0.7883911,0.038513184,4.625,-0.296875,2.25,518
1695311499277,-0.1887207,-0.77911377,0.058776855,2.078125,-2.296875,1.765625,519
1695311499317,-0.19946289,-0.8110962,0.04901123,-6.296875,-5.953125,1.296875,520
1695311499357,-0.22094727,-0.8401489,0.04925537,-6.171875,-6.046875,3.640625,521
1695311499397,-0.24121094,-0.8032837,0.090270996,-3.5625,-3.828125,4.109375,522
1695311499437,-0.20751953,-0.7901001,0.121276855,-1.703125,-3.75,5.71875,523
1695311499477,-0.26586914,-0.78619385,0.11663818,-7.359375,-3.015625,4.59375,524
1695311499517,-0.2548828,-0.84381104,0.13201904,-6.03125,-3.609375,3.96875,525
1695311499557,-0.29736328,-0.8513794,0.1395874,-2.484375,0.59375,7.09375,526
1695311499597,-0.31860352,-0.7920532,0.07318115,-3.078125,1.578125,3.8125,527
1695311499637,-0.18676758,-0.9273071,0.038513184,-6.5,-2.0625,1.96875,528
1695311499677,-0.1315918,-1.1619263,0.1630249,-20.265625,-8.796875,-2.734375,529
1695311499717,-0.06201172,-1.3792114,0.066101074,1.015625,7.40625,4.125,530
1695311499757,-0.096191406,-1.4014282,0.15423584,-7.71875,1.125,3.703125,531
1695311499797,-0.16357422,-1.3709106,0.3764038,-2.296875,2.859375,-0.0625,532
1695311499837,-0.25927734,-1.1997681,0.3114624,2.15625,5.890625,0.578125,533
1695311499877,-0.1459961,-1.0947876,0.13739014,5.671875,4.984375,0.484375,534
1695311499917,-0.11694336,-0.9651489,0.19012451,6.34375,3.375,3.8125,535
1695311499957,-0.10473633,-0.8477173,0.15545654,3.109375,2.109375,3.671875,536
1695311499997,-0.12426758,-0.8284302,0.12445068,-4.015625,-0.71875,2.03125,537
1695311500037,-0.095947266,-0.88946533,0.1954956,-6.265625,-4.15625,0.71875,538
1695311500077,-0.11010742,-0.8826294,0.22869873,-7.4375,-7.40625,-0.796875,539
1695311500117,-0.14404297,-0.9414673,0.20428467,-7.578125,-10.1875,-3.0625,540
1695311500157,-0.16479492,-0.9260864,0.21429443,-1.5,-11.484375,-2.703125,541
1695311500197,-0.14868164,-0.90802,0.21136475,0.15625,-9.84375,-0.59375,542
1695311500237,-0.20776367,-0.8538208,0.20501709,-0.171875,-10.40625,-3.296875,543
1695311500277,-0.20043945,-0.819397,0.2008667,4.03125,-8.046875,-4.953125,544
1695311500317,-0.17163086,-0.83721924,0.199646,-0.375,-8.765625,-5.3125,545
1695311500357,-0.19042969,-0.7608032,0.17840576,4.53125,-8.90625,-5.546875,546
1695311500397,-0.171875,-0.74346924,0.20526123,7.734375,-6.15625,-3.25,547
1695311500437,-0.18896484,-0.73394775,0.18084717,2.046875,-12.15625,-3.59375,548
1695311500477,-0.2241211,-0.7571411,0.19354248,0.453125,-15.515625,-4.125,549
1695311500517,-0.21606445,-0.9729614,0.14227295,-5.125,-19.890625,-5.21875,550
1695311500557,-0.11767578,-1.1548462,0.09124756,-4.234375,-23.96875,0.59375,551
1695311500597,-0.21020508,-1.201477,0.030700684,-7.5625,-23.46875,5.59375,552
1695311500637,-0.22290039,-1.5130005,0.066345215,-9.328125,-31.640625,3.484375,553
1695311500677,-0.5246582,-1.3504028,0.27825928,2.390625,-6.78125,3.0,554
1695311500717,-0.3305664,-1.4102173,0.105651855,4.8125,-0.09375,2.90625,555
1695311500757,-0.24511719,-1.159729,0.11395264,3.71875,-2.75,5.671875,556
1695311500797,-0.23291016,-0.93634033,0.12030029,3.78125,-1.546875,4.953125,557
1695311500837,-0.24707031,-0.8755493,0.09710693,5.234375,0.765625,2.046875,558
1695311500877,-0.22143555,-0.85113525,0.028015137,5.671875,1.09375,0.265625,559
1695311500917,-0.18676758,-0.8796997,0.026550293,2.25,0.109375,0.03125,560
1695311500957,-0.21166992,-0.9348755,0.08929443,-1.375,-1.9375,0.515625,561
1695311500997,-0.2434082,-0.92388916,0.12591553,-5.421875,-1.09375,0.125,562
1695311501037,-0.26538086,-0.8521118,0.10394287,-7.140625,0.578125,-1.109375,563
1695311501077,-0.22436523,-0.83721924,0.10467529,-5.90625,0.65625,-0.4375,564
1695311501117,-0.18481445,-0.81207275,0.12420654,-1.953125,2.84375,4.0,565
1695311501157,-0.20507812,-0.75250244,0.090026855,-2.609375,0.953125,6.640625,566
1695311501197,-0.22387695,-0.7593384,0.085632324,-6.0,-1.5625,6.796875,567
1695311501237,-0.25708008,-0.7529907,0.14520264,-5.046875,-0.65625,6.359375,568
1695311501277,-0.26342773,-0.7744751,0.1449585,-10.46875,-0.90625,2.703125,569
1695311501317,-0.26782227,-0.848938,0.25164795,-11.125,-3.0625,1.75,570
1695311501357,-0.3256836,-0.8933716,0.17596436,-5.046875,1.984375,1.125,571
1695311501397,-0.19799805,-1.0903931,0.04852295,-14.28125,-6.828125,-3.734375,572
1695311501437,0.025634766,-1.3320923,0.12347412,-10.078125,-0.46875,-1.421875,573
1695311501477,-0.17480469,-1.4192505,0.23651123,1.28125,4.796875,6.1875,574
1695311501517,-0.33935547,-1.2527466,0.24627686,-4.40625,1.484375,-4.1875,575
1695311501557,-0.15722656,-1.3814087,0.4118042,5.6875,5.640625,-2.109375,576
1695311501597,-0.2019043,-1.164856,0.16204834,8.203125,3.359375,3.5625,577
1695311501637,-0.18945312,-0.9741821,0.13250732,8.671875,4.21875,4.421875,578
1695311501677,-0.14477539,-0.8804321,0.18695068,4.65625,1.71875,1.890625,579
1695311501717,-0.12670898,-0.8320923,0.22088623,2.625,-0.4375,1.78125,580
1695311501757,-0.15307617,-0.7925415,0.18426514,-0.890625,2.296875,1.765625,581
1695311501797,-0.15942383,-0.819397,0.17230225,-1.953125,1.0,-1.828125,582
1695311501837,-0.18920898,-0.85235596,0.22503662,-3.109375,-2.796875,-5.46875,583
1695311501877,-0.13256836,-0.85528564,0.18841553,0.4375,-2.421875,-6.453125,584
1695311501917,-0.08959961,-0.8123169,0.14300537,4.1875,-2.125,-2.734375,585
1695311501957,-0.17651367,-0.7349243,0.21478271,3.546875,-4.671875,-1.859375,586
1695311501997,-0.17260742,-0.74102783,0.18255615,1.96875,-7.125,-4.546875,587
1695311502037,-0.15771484,-0.8225708,0.23699951,-0.140625,-9.390625,-4.265625,588
1695311502077,-0.21289062,-0.77545166,0.24847412,-4.234375,-10.84375,-3.859375,589
1695311502117,-0.24438477,-0.7710571,0.1942749,0.3125,-11.015625,-5.75,590
1695311502157,-0.2043457,-1.0354614,0.074157715,-4.65625,-20.328125,-6.078125,591
1695311502197,-0.15283203,-1.2761841,-0.039855957,-4.484375,-28.3125,-0.265625,592
1695311502237,-0.19848633,-1.342102,-0.086242676,-0.234375,-27.59375,5.890625,593
1695311502277,-0.5415039,-1.3689575,0.33050537,-8.296875,-19.375,0.921875,594
1695311502317,-0.4050293,-1.3408813,0.1630249,-3.328125,-5.65625,-5.453125,595
1695311502357,-0.32543945,-1.3479614,0.113708496,-3.40625,-6.546875,-0.140625,596
1695311502397,-0.23999023,-1.0344849,0.078308105,-1.203125,-8.46875,3.03125,597
1695311502437,-0.26904297,-0.89068604,0.15887451,-3.484375,-10.25,1.171875,598
1695311502477,-0.27612305,-0.8352661,0.13104248,-0.34375,-5.84375,1.5625,599
1695311502517,-0.20874023,-0.77911377,0.058532715,-2.40625,-8.765625,0.78125,600
1695311502557,-0.20703125,-0.7893677,0.06829834,-8.125,-12.6875,1.234375,601
1695311502597,-0.2524414,-0.80718994,0.1359253,-4.09375,-11.40625,3.28125,602
1695311502637,-0.26367188,-0.79766846,0.13665771,-5.40625,-8.390625,4.453125,603
1695311502677,-0.22265625,-0.78912354,0.105895996,-7.53125,-8.890625,5.390625,604
1695311502717,-0.25097656,-0.8154907,0.1473999,-2.9375,-6.25,8.1875,605
1695311502757,-0.3413086,-0.7444458,0.14276123,0.359375,-3.875,7.515625,606
1695311502797,-0.26538086,-0.85284424,0.124694824,-8.015625,-7.25,3.859375,607
1695311502837,-0.26464844,-0.8213501,0.20770264,-4.328125,-6.984375,3.84375,608
1695311502877,-0.31201172,-0.7605591,0.22772217,-7.03125,-5.5,1.140625,609
1695311502917,-0.27148438,-0.91778564,0.1005249,-9.046875,-13.609375,-2.6875,610
1695311502957,-0.12451172,-1.1726685,0.042419434,-7.90625,-14.1875,-2.828125,611
1695311502997,0.03125,-1.322815,0.13250732,-2.421875,-4.15625,4.6875,612
1695311503037,-0.25341797,-1.4561157,0.35028076,-2.96875,-5.71875,8.5625,613
1695311503077,-0.3828125,-1.3206177,0.34417725,-1.125,-3.953125,1.234375,614
1695311503117,-0.14941406,-1.2195435,0.21185303,0.46875,-5.109375,-2.03125,615
1695311503157,-0.19165039,-1.0308228,0.32440186,5.625,-2.09375,5.53125,616
1695311503197,-0.20629883,-0.8093872,0.14471436,-0.546875,-8.203125,3.78125,617
1695311503237,-0.1472168,-0.7600708,0.16351318,4.609375,-4.328125,1.546875,618
1695311503277,-0.13183594,-0.76519775,0.19525146,2.421875,-2.03125,2.59375,619
1695311503317,-0.1628418,-0.7529907,0.24578857,-4.578125,-1.3125,-1.234375,620
1695311503357,-0.18896484,-0.78985596,0.19866943,-2.8125,-6.8125,-5.265625,621
1695311503397,-0.13256836,-0.78985596,0.19354248,-0.328125,-7.921875,-5.796875,622
1695311503437,-0.10644531,-0.7703247,0.16375732,1.640625,-6.875,-2.890625,623
1695311503477,-0.19189453,-0.7962036,0.2592163,-1.9375,-10.046875,-3.328125,624
1695311503517,-0.22753906,-0.76519775,0.28118896,-1.671875,-11.625,-3.71875,625
1695311503557,-0.20239258,-0.8713989,0.1408081,-6.625,-13.8125,-4.0625,626
1695311503597,-0.20141602,-1.201477,0.042663574,-12.640625,-34.25,-5.578125,627
1695311503637,-0.12231445,-1.236145,-0.121154785,8.15625,-12.5625,10.140625,628
1695311503677,-0.35961914,-1.4812622,0.09954834,-15.46875,-30.4375,3.625,629
1695311503717,-0.50756836,-1.3521118,0.2592163,-4.765625,-11.0625,-2.0,630
1695311503757,-0.37426758,-1.3621216,0.21990967,-7.828125,-9.453125,-2.859375,631
1695311503797,-0.3154297,-1.1074829,0.1593628,-3.96875,-13.5,0.75,632
1695311503837,-0.3154297,-0.8814087,0.1852417,1.671875,-8.546875,1.703125,633
1695311503877,-0.29296875,-0.8057251,0.078308105,3.96875,-3.328125,2.484375,634
1695311503917,-0.2541504,-0.7954712,0.07928467,0.859375,-5.921875,3.828125,635
1695311503957,-0.23217773,-0.77911377,0.11126709,-2.75,-8.703125,5.859375,636
1695311503997,-0.28027344,-0.79107666,0.121276855,-2.015625,-8.65625,7.453125,637
1695311504037,-0.27172852,-0.7737427,0.1149292,-4.578125,-7.3125,6.890625,638
1695311504077,-0.2644043,-0.7617798,0.1359253,-6.171875,-7.46875,7.015625,639
1695311504117,-0.25756836,-0.8008423,0.1552124,-6.390625,-7.78125,7.984375,640
1695311504157,-0.3059082,-0.8237915,0.19793701,-5.734375,-6.328125,8.234375,641
1695311504197,-0.32836914,-0.8184204,0.17938232,-5.171875,-4.734375,6.125,642
1695311504237,-0.34326172,-0.74591064,0.22235107,-2.015625,-0.90625,4.390625,643
1695311504277,-0.2788086,-0.79571533,0.2008667,-3.171875,-0.140625,2.0625,644
1695311504317,-0.19018555,-0.819397,0.09661865,-3.0625,-2.734375,3.953125,645
1695311504357,-0.099609375,-1.0808716,0.02142334,-21.84375,-14.5625,-6.34375,646
1695311504397,0.022216797,-1.614563,0.1449585,-1.515625,-8.484375,-1.953125,647
1695311504437,-0.1784668,-1.560852,0.45355225,0.265625,-0.59375,9.09375,648
1695311504477,-0.44555664,-1.3318481,0.3727417,1.890625,-2.78125,0.796875,649
1695311504517,-0.23876953,-1.1846313,0.22357178,13.703125,2.21875,-4.65625,650
1695311504557,-0.07739258,-1.0747681,0.30145264,6.9375,0.578125,2.015625,651
1695311504597,-0.15698242,-0.8115845,0.18304443,2.6875,-4.453125,4.984375,652
1695311504637,-0.11816406,-0.72442627,0.09686279,2.78125,-3.4375,3.0625,653
1695311504677,-0.10083008,-0.7866821,0.17230225,-6.5,-8.84375,0.640625,654
1695311504717,-0.19067383,-0.756897,0.26361084,-7.28125,-8.328125,-2.703125,655
1695311504757,-0.18310547,-0.79400635,0.2230835,-3.171875,-6.109375,-4.96875,656
1695311504797,-0.15917969,-0.8008423,0.20135498,0.046875,-5.265625,-5.5625,657
1695311504837,-0.16723633,-0.7402954,0.18792725,2.640625,-8.421875,-4.265625,658
1695311504877,-0.17822266,-0.7918091,0.21258545,-2.625,-8.140625,-1.84375,659
1695311504917,-0.2685547,-0.76104736,0.32806396,-3.953125,-10.0,-3.046875,660
1695311504957,-0.29638672,-0.77130127,0.30316162,-4.140625,-8.796875,-4.40625,661
1695311504997,-0.28955078,-0.9390259,0.15545654,-9.9375,-15.453125,-8.984375,662
1695311505037,-0.15991211,-1.1394653,0.0053100586,10.640625,-14.890625,-1.53125,663
1695311505077,0.009033203,-1.3650513,-0.06085205,-3.4375,-14.78125,10.359375,664
1695311505117,-0.43554688,-1.6558228,0.26483154,-18.625,-37.625,4.421875,665
1695311505157,-0.4868164,-1.218811,0.35662842,1.546875,-3.84375,-2.34375,666
1695311505197,-0.25439453,-1.411438,0.25457764,-4.6875,-5.34375,0.359375,667
1695311505237,-0.26342773,-1.0493774,0.14544678,2.03125,-7.296875,8.75,668
1695311505277,-0.19995117,-0.784729,0.08758545,8.59375,-7.125,7.75,669
1695311505317,-0.2133789,-0.81744385,0.13201904,5.046875,-10.453125,6.6875,670
1695311505357,-0.22949219,-0.81085205,0.1395874,0.375,-12.359375,6.484375,671
1695311505397,-0.17651367,-0.80963135,0.089782715,2.234375,-12.53125,8.21875,672
1695311505437,-0.19702148,-0.8015747,0.11273193,-0.125,-11.578125,9.015625,673
1695311505477,-0.18847656,-0.75616455,0.1515503,-5.90625,-13.625,8.609375,674
1695311505517,-0.21557617,-0.661438,0.13909912,-2.4375,-9.1875,8.484375,675
1695311505557,-0.2199707,-0.70562744,0.12786865,-2.015625,-9.765625,7.703125,676
1695311505597,-0.29223633,-0.77838135,0.17572021,-4.890625,-8.171875,4.84375,677
1695311505637,-0.19824219,-0.8989868,0.10369873,-7.71875,-9.546875,3.8125,678
1695311505677,-0.26367188,-0.86505127,0.28948975,-6.75,-7.171875,6.25,679
1695311505717,-0.3310547,-0.89727783,0.16009521,-6.96875,-8.578125,2.96875,680
1695311505757,-0.13256836,-1.1914673,0.15496826,-26.75,-18.625,-7.09375,681
1695311505797,0.045166016,-1.4771118,0.09100342,-5.125,-6.15625,-1.40625,682
1695311505837,-0.115722656,-1.550354,0.31195068,0.0,-0.640625,7.5625,683
1695311505877,-0.31835938,-1.3162231,0.36834717,0.640625,1.8125,2.265625,684
1695311505917,-0.19238281,-1.1934204,0.23602295,0.578125,4.6875,-0.859375,685
1695311505957,-0.10253906,-1.0281372,0.26361084,5.875,4.203125,1.75,686
1695311505997,-0.11450195,-0.8152466,0.1930542,3.921875,3.453125,2.140625,687
1695311506037,-0.104003906,-0.7402954,0.15423584,4.3125,2.703125,1.078125,688
1695311506077,-0.06713867,-0.7444458,0.16253662,1.28125,2.1875,1.0625,689
1695311506117,-0.11230469,-0.7246704,0.23504639,-0.375,4.5,-1.84375,690
1695311506157,-0.15283203,-0.7180786,0.21673584,1.796875,1.234375,-5.640625,691
1695311506197,-0.09790039,-0.7432251,0.16351318,0.8125,-2.15625,-7.078125,692
1695311506237,-0.09375,-0.71295166,0.17767334,3.984375,-4.15625,-5.203125,693
1695311506277,-0.12841797,-0.7444458,0.22064209,4.484375,-8.125,-2.84375,694
1695311506317,-0.18359375,-0.80670166,0.26385498,-6.484375,-13.4375,-2.625,695
1695311506357,-0.25708008,-0.9143677,0.31488037,-6.4375,-16.078125,-4.578125,696
1695311506397,-0.23120117,-1.3093872,0.10784912,-11.546875,-28.046875,-8.75,697
1695311506437,-0.055419922,-1.3296509,-0.12042236,13.03125,-14.3125,8.546875,698
1695311506477,-0.22094727,-1.5169067,0.09637451,-5.734375,-22.40625,12.296875,699
1695311506517,-0.5097656,-1.3667603,0.37908936,-8.3125,-17.59375,-2.5625,700
1695311506557,-0.31884766,-1.336731,0.16326904,2.3125,-0.625,-2.140625,701
1695311506597,-0.20629883,-1.0986938,0.055603027,6.875,-1.9375,2.28125,702
1695311506637,-0.18237305,-0.8674927,0.12908936,3.75,-5.3125,3.09375,703
1695311506677,-0.22290039,-0.76885986,0.101257324,3.078125,-5.796875,1.53125,704
1695311506717,-0.19897461,-0.7984009,0.047302246,-0.046875,-5.84375,1.015625,705
1695311506757,-0.20507812,-0.8591919,0.07293701,-6.40625,-10.25,2.1875,706
1695311506797,-0.22924805,-0.881897,0.13763428,-7.546875,-7.921875,4.609375,707
1695311506837,-0.21362305,-0.81036377,0.1564331,-4.421875,-4.4375,6.609375,708
1695311506877,-0.20019531,-0.71295166,0.13421631,-4.6875,-6.546875,6.234375,709
1695311506917,-0.2434082,-0.6265259,0.18670654,-4.46875,-8.203125,5.21875,710
1695311506957,-0.2548828,-0.6592407,0.14910889,-2.328125,-4.375,4.359375,711
1695311506997,-0.23095703,-0.83135986,0.10614014,-10.953125,-6.484375,-0.46875,712
1695311507037,-0.2722168,-0.7703247,0.24432373,-2.15625,-5.734375,1.546875,713
1695311507077,-0.26293945,-0.7246704,0.14837646,-3.609375,-2.734375,-1.34375,714
1695311507117,-0.1274414,-1.1651001,0.08758545,-30.671875,-31.578125,-13.328125,715
1695311507157,0.055664062,-1.5691528,0.1605835,3.1875,-12.3125,-4.734375,716
1695311507197,0.0009765625,-1.5532837,0.27679443,-2.40625,-5.25,5.703125,717
1695311507237,-0.52075195,-1.3892212,0.3468628,2.8125,-5.03125,-2.734375,718
1695311507277,-0.2692871,-1.2537231,0.22698975,10.96875,2.8125,-5.1875,719
1695311507317,-0.1262207,-1.0916138,0.27581787,3.890625,-1.90625,-1.625,720
1695311507357,-0.13452148,-0.848938,0.16082764,5.09375,-3.90625,1.265625,721
1695311507397,-0.11450195,-0.8110962,0.12249756,1.8125,-2.859375,1.9375,722
1695311507437,-0.14526367,-0.7678833,0.15960693,0.234375,-5.46875,1.390625,723
1695311507477,-0.14111328,-0.74664307,0.21502686,-6.09375,-7.203125,-2.21875,724
1695311507517,-0.14526367,-0.74005127,0.25115967,-2.296875,-5.71875,-3.90625,725
1695311507557,-0.14770508,-0.70928955,0.18450928,3.265625,-2.796875,-2.328125,726
1695311507597,-0.12963867,-0.7871704,0.13128662,-0.15625,-8.765625,-2.078125,727
1695311507637,-0.15576172,-0.7293091,0.21575928,7.78125,-10.5,-1.734375,728
1695311507677,-0.14111328,-0.8694458,0.16790771,-8.140625,-15.71875,2.984375,729
1695311507717,-0.25708008,-0.80181885,0.3139038,-12.40625,-18.796875,1.21875,730
1695311507757,-0.23291016,-1.0144653,0.20037842,-10.296875,-19.4375,0.09375,731
1695311507797,-0.13427734,-1.3279419,0.11859131,-15.75,-26.0,9.484375,732
1695311507837,-0.09448242,-1.4602661,-0.11212158,-12.703125,-35.5,14.515625,733
1695311507877,-0.62841797,-1.2024536,0.37420654,-1.015625,-10.859375,8.84375,734
1695311507917,-0.39404297,-1.4248657,0.29510498,-7.65625,-4.671875,-1.65625,735
1695311507957,-0.28955078,-1.2778931,0.15594482,-1.5625,-3.453125,3.296875,736
1695311507997,-0.1652832,-0.95147705,0.16400146,-0.109375,-7.1875,4.625,737
1695311508037,-0.23364258,-0.8574829,0.2230835,-1.5625,-7.765625,1.625,738
1695311508077,-0.2253418,-0.8032837,0.12445068,1.5625,-5.421875,1.359375,739
1695311508117,-0.15429688,-0.7908325,0.059509277,0.265625,-7.3125,1.75,740
1695311508157,-0.16137695,-0.8086548,0.14300537,-3.078125,-11.359375,3.390625,741
1695311508197,-0.18139648,-0.76397705,0.15960693,0.171875,-9.609375,5.65625,742
1695311508237,-0.1574707,-0.7190552,0.13006592,-1.40625,-9.640625,6.03125,743
1695311508277,-0.20751953,-0.7127075,0.15447998,0.109375,-7.296875,6.515625,744
1695311508317,-0.28320312,-0.7827759,0.14593506,-9.765625,-9.140625,0.765625,745
1695311508357,-0.20092773,-0.97491455,0.21746826,-13.59375,-12.265625,-0.375,746
1695311508397,-0.31420898,-0.894104,0.28411865,-0.4375,-4.125,5.8125,747
1695311508437,-0.2854004,-0.79351807,0.24212646,-4.90625,-6.28125,-0.015625,748
1695311508477,-0.29736328,-0.8921509,0.262146,-8.5625,-9.828125,-4.171875,749
1695311508517,-0.18139648,-1.1460571,0.124694824,-14.640625,-15.78125,-10.140625,750
1695311508557,0.0041503906,-1.3740845,0.024597168,-4.28125,-7.359375,-3.515625,751
1695311508597,-0.049316406,-1.3840942,0.24749756,-5.015625,-11.109375,3.0,752
1695311508637,-0.3527832,-1.366272,0.36810303,-2.359375,-12.46875,-0.671875,753
1695311508677,-0.24145508,-1.279602,0.33392334,-0.34375,-6.34375,-2.265625,754
1695311508717,-0.12084961,-1.0576782,0.24407959,8.796875,-5.453125,4.984375,755
1695311508757,-0.16699219,-0.8479614,0.15447998,3.25,-10.40625,6.578125,756
1695311508797,-0.17382812,-0.7920532,0.17425537,0.65625,-9.3125,4.125,757
1695311508837,-0.17871094,-0.80133057,0.21185303,2.0625,-5.6875,3.15625,758
1695311508877,-0.1586914,-0.79693604,0.16229248,1.34375,-3.140625,3.0,759
