,timestamp,accel_x,accel_y,accel_z,gyro_x,gyro_y,gyro_z
0,1697605965,-0.24316406,-0.9522095,0.3114624,3.078125,-0.046875,0.984375
1,1697606005,-0.24584961,-0.95562744,0.31536865,2.640625,0.265625,0.546875
2,1697606045,-0.23583984,-0.94317627,0.2946167,1.90625,1.28125,0.71875
3,1697606085,-0.23925781,-0.9553833,0.2999878,1.53125,0.546875,0.515625
4,1697606125,-0.23925781,-0.94537354,0.29437256,-0.921875,-0.265625,0.234375
5,1697606165,-0.24194336,-0.9685669,0.29534912,-1.40625,-0.875,0.265625
6,1697606205,-0.22607422,-0.9319458,0.29656982,-2.796875,-0.5625,0.0625
7,1697606245,-0.2421875,-0.9487915,0.2831421,-2.0,-1.125,-0.328125
8,1697606285,-0.25024414,-0.93927,0.30511475,-0.171875,-0.53125,0.765625
9,1697606325,-0.24414062,-0.95513916,0.32562256,0.734375,-1.46875,0.859375
10,1697606365,-0.2548828,-0.9480591,0.30999756,0.625,-0.671875,0.671875
11,1697606405,-0.2553711,-0.9536743,0.3180542,3.03125,-0.203125,1.109375
12,1697606445,-0.25268555,-0.9573364,0.3114624,1.0625,0.5,0.96875
13,1697606485,-0.24169922,-0.95025635,0.30218506,-0.4375,0.203125,0.96875
14,1697606525,-0.24243164,-0.95318604,0.3126831,-0.109375,-1.046875,0.6875
15,1697606565,-0.24560547,-0.9483032,0.30413818,0.203125,-1.25,0.921875
16,1697606605,-0.25756836,-0.9529419,0.31365967,0.03125,-1.5625,0.953125
17,1697606645,-0.25268555,-0.954895,0.30145264,-0.9375,0.5625,0.609375
18,1697606685,-0.25219727,-0.9534302,0.30804443,0.5625,0.453125,0.828125
19,1697606725,-0.25195312,-0.9558716,0.3007202,0.703125,0.515625,1.03125
20,1697606765,-0.24829102,-0.93585205,0.30633545,1.046875,1.265625,0.484375
21,1697606805,-0.25073242,-0.96539307,0.29632568,1.140625,1.578125,0.390625
22,1697606845,-0.24316406,-0.94537354,0.29681396,3.953125,2.046875,1.5
23,1697606885,-0.25024414,-0.95562744,0.31341553,2.5,1.375,1.171875
24,1697606925,-0.25390625,-0.9470825,0.30316162,1.78125,0.453125,1.078125
25,1697606965,-0.24365234,-0.9553833,0.29364014,0.8125,0.828125,0.46875
26,1697607005,-0.25390625,-0.95928955,0.30926514,2.046875,0.0625,0.609375
27,1697607045,-0.25268555,-0.9505005,0.30218506,0.171875,0.921875,0.765625
28,1697607085,-0.2529297,-0.9673462,0.30999756,2.0,-0.71875,0.546875
29,1697607125,-0.25610352,-0.9505005,0.2929077,2.59375,-0.296875,0.328125
30,1697607165,-0.22607422,-0.95147705,0.2814331,1.921875,0.59375,1.359375
31,1697607205,-0.2331543,-0.9446411,0.27630615,-0.015625,-1.09375,0.25
32,1697607245,-0.23706055,-0.9463501,0.2711792,0.078125,-0.234375,-0.078125
33,1697607285,-0.23168945,-0.9397583,0.26800537,1.015625,0.875,-0.140625
34,1697607325,-0.23388672,-0.95513916,0.27923584,1.390625,-0.375,-0.09375
35,1697607365,-0.25,-0.9595337,0.2929077,2.125,-1.90625,0.484375
36,1697607405,-0.23754883,-0.9483032,0.27557373,-1.53125,-1.171875,0.15625
37,1697607445,-0.25439453,-0.9612427,0.29681396,-0.578125,-0.03125,0.671875
38,1697607485,-0.26489258,-0.9529419,0.28607178,-1.8125,0.28125,-0.0625
39,1697607525,-0.25146484,-0.9536743,0.2868042,1.859375,1.40625,0.640625
40,1697607565,-0.24609375,-0.94781494,0.27825928,4.96875,1.15625,1.671875
41,1697607605,-0.24926758,-0.96173096,0.293396,4.8125,-0.078125,1.421875
42,1697607645,-0.23413086,-0.94781494,0.26434326,3.375,0.171875,1.234375
43,1697607685,-0.23828125,-0.95147705,0.26312256,4.4375,1.703125,2.421875
44,1697607725,-0.2619629,-0.9697876,0.2904663,2.46875,-0.234375,3.140625
45,1697607765,-0.25805664,-0.9656372,0.2826538,-3.3125,-1.546875,1.53125
46,1697607805,-0.2397461,-0.9483032,0.26068115,-2.65625,0.640625,0.78125
47,1697607845,-0.2331543,-0.95684814,0.276062,-0.03125,2.265625,1.515625
48,1697607885,-0.23632812,-0.96710205,0.28216553,0.015625,2.546875,1.578125
49,1697607925,-0.23535156,-0.9524536,0.27386475,0.203125,3.90625,1.0625
50,1697607965,-0.25073242,-0.96466064,0.2670288,0.75,6.59375,0.40625
51,1697608005,-0.24658203,-0.98443604,0.28778076,-4.296875,6.90625,0.34375
52,1697608045,-0.23071289,-0.96417236,0.32196045,-7.03125,6.59375,-0.03125
53,1697608085,-0.23095703,-0.95977783,0.31903076,-4.3125,6.53125,1.34375
54,1697608125,-0.24243164,-0.944397,0.29681396,-0.21875,5.9375,1.03125
55,1697608165,-0.22851562,-0.94903564,0.31243896,-1.78125,6.09375,1.046875
56,1697608205,-0.23632812,-0.95562744,0.31903076,0.3125,3.21875,2.0625
57,1697608245,-0.22045898,-0.9446411,0.3078003,1.5,0.515625,1.3125
58,1697608285,-0.22705078,-0.94976807,0.29559326,5.5625,-0.734375,1.609375
59,1697608325,-0.2109375,-0.9336548,0.30389404,6.96875,-4.515625,1.421875
60,1697608365,-0.24365234,-0.9585571,0.31097412,10.078125,-11.09375,1.265625
61,1697608405,-0.24609375,-0.9636841,0.27630615,-0.796875,-16.1875,0.8125
62,1697608445,-0.19458008,-0.9546509,0.24920654,-4.46875,-9.3125,-1.296875
63,1697608485,-0.22705078,-0.9636841,0.2579956,0.796875,-2.8125,0.234375
64,1697608525,-0.20117188,-0.9470825,0.23529053,-0.5625,-0.625,-0.015625
65,1697608565,-0.24609375,-0.9673462,0.2975464,3.625,-0.046875,0.03125
66,1697608605,-0.23876953,-0.9776001,0.30340576,-0.046875,0.25,0.78125
67,1697608645,-0.24121094,-0.9661255,0.26239014,-3.90625,0.640625,-0.09375
68,1697608685,-0.23461914,-0.9458618,0.26605225,-0.171875,1.15625,0.578125
69,1697608725,-0.23413086,-0.9663696,0.32122803,3.078125,1.484375,1.78125
70,1697608765,-0.24169922,-0.9624634,0.30218506,1.96875,-0.84375,2.046875
71,1697608805,-0.22753906,-0.93878174,0.27142334,2.765625,-2.84375,1.0625
72,1697608845,-0.22021484,-0.94317627,0.24139404,0.390625,-1.6875,1.34375
73,1697608885,-0.2319336,-0.97735596,0.28704834,3.625,-3.453125,1.875
74,1697608925,-0.23510742,-0.9746704,0.28753662,-0.796875,-3.453125,1.46875
75,1697608965,-0.25024414,-0.9546509,0.27679443,-1.265625,-3.734375,0.96875
76,1697609005,-0.23852539,-0.94781494,0.2633667,2.40625,-2.234375,1.375
77,1697609045,-0.24536133,-0.9690552,0.2748413,1.875,-2.640625,1.125
78,1697609085,-0.24047852,-0.9639282,0.25286865,1.40625,-2.140625,0.5625
79,1697609125,-0.22045898,-0.9451294,0.24627686,-0.53125,0.21875,0.25
80,1697609165,-0.25585938,-0.9800415,0.27996826,2.59375,-0.484375,0.78125
81,1697609205,-0.24291992,-0.94781494,0.28631592,-0.390625,-1.578125,0.703125
82,1697609245,-0.23852539,-0.9649048,0.25482178,-0.125,-1.53125,0.390625
83,1697609285,-0.23486328,-0.9780884,0.25946045,1.8125,-1.296875,1.140625
84,1697609325,-0.2319336,-0.9495239,0.22381592,0.65625,-1.96875,2.0625
85,1697609365,-0.22216797,-0.9463501,0.24603271,4.703125,0.046875,3.5
86,1697609405,-0.26049805,-0.9871216,0.2921753,1.859375,1.0625,2.953125
87,1697609445,-0.24926758,-0.972229,0.2687378,-0.453125,1.21875,0.59375
88,1697609485,-0.22436523,-0.97247314,0.2645874,0.71875,0.609375,0.96875
89,1697609525,-0.22265625,-0.9714966,0.26312256,0.015625,-0.390625,1.140625
90,1697609565,-0.22509766,-0.95269775,0.25091553,0.0625,-0.75,1.28125
91,1697609605,-0.2319336,-0.96173096,0.25750732,-0.28125,-0.59375,1.015625
92,1697609645,-0.22973633,-0.9644165,0.24505615,-0.421875,-0.046875,0.984375
93,1697609685,-0.22314453,-0.9668579,0.26312256,-0.3125,0.015625,1.125
94,1697609725,-0.23095703,-0.960022,0.26068115,-0.171875,0.546875,1.125
95,1697609765,-0.22583008,-0.95025635,0.26287842,0.375,0.390625,0.734375
96,1697609805,-0.23120117,-0.9692993,0.25750732,1.1875,0.28125,0.734375
97,1697609845,-0.22607422,-0.9500122,0.23406982,1.21875,-1.03125,1.140625
98,1697609885,-0.21679688,-0.94732666,0.26141357,4.046875,-0.59375,1.6875
99,1697609925,-0.22583008,-0.9932251,0.26068115,2.375,0.734375,1.625
100,1697609965,-0.21435547,-0.9697876,0.25360107,2.390625,0.65625,1.765625
101,1697610005,-0.21435547,-0.97198486,0.2489624,-1.09375,0.5,0.78125
102,1697610045,-0.234375,-0.95758057,0.2597046,2.140625,1.90625,0.34375
103,1697610085,-0.23071289,-0.9819946,0.25115967,1.203125,0.8125,0.609375
104,1697610125,-0.22045898,-0.9627075,0.23797607,0.96875,-0.015625,1.0625
105,1697610165,-0.22949219,-0.9624634,0.26068115,0.609375,-0.953125,1.5
106,1697610205,-0.22753906,-0.9866333,0.26605225,-2.6875,-2.265625,1.359375
107,1697610245,-0.21362305,-0.9456177,0.24847412,-3.421875,-1.71875,-0.34375
108,1697610285,-0.22241211,-0.9692993,0.24261475,-2.359375,-0.359375,0.4375
109,1697610325,-0.2253418,-0.960022,0.26727295,-0.5,0.0625,0.0625
110,1697610365,-0.22021484,-0.9680786,0.26531982,0.9375,1.015625,-0.03125
111,1697610405,-0.21411133,-0.9741821,0.2662964,0.953125,-0.484375,0.8125
112,1697610445,-0.22045898,-0.97052,0.26776123,-0.265625,-0.5625,1.0
113,1697610485,-0.21728516,-0.94537354,0.23895264,-2.796875,1.890625,0.3125
114,1697610525,-0.23144531,-0.96710205,0.27044678,0.21875,1.671875,0.4375
115,1697610565,-0.22363281,-0.9685669,0.2699585,-0.515625,0.25,0.609375
116,1697610605,-0.22509766,-0.95513916,0.2658081,0.109375,-1.171875,0.71875
117,1697610645,-0.23950195,-0.9824829,0.2748413,0.765625,-0.703125,0.328125
118,1697610685,-0.2253418,-0.95562744,0.28460693,-0.265625,0.078125,0.5
119,1697610725,-0.21899414,-0.9649048,0.25286865,-0.34375,0.015625,-0.09375
120,1697610765,-0.2241211,-0.9470825,0.27215576,0.796875,0.828125,0.53125
121,1697610805,-0.23901367,-0.9692993,0.2748413,0.71875,0.515625,0.09375
122,1697610845,-0.23413086,-0.9619751,0.26068115,0.53125,0.359375,0.34375
123,1697610885,-0.23388672,-0.95928955,0.26898193,0.515625,0.78125,0.859375
124,1697610925,-0.22338867,-0.96954346,0.2711792,1.25,0.09375,1.40625
125,1697610965,-0.21313477,-0.9614868,0.25872803,0.6875,-0.171875,1.0625
126,1697611005,-0.22875977,-0.960022,0.26727295,0.359375,-1.109375,0.96875
127,1697611045,-0.2241211,-0.9661255,0.26141357,0.171875,0.8125,0.65625
128,1697611085,-0.23364258,-0.9639282,0.26678467,0.109375,0.203125,0.953125
129,1697611125,-0.22265625,-0.9649048,0.25872803,-0.46875,0.453125,0.75
130,1697611165,-0.23486328,-0.9649048,0.2658081,0.25,0.25,1.125
131,1697611205,-0.22705078,-0.96759033,0.26019287,1.015625,-0.09375,0.84375
132,1697611245,-0.2331543,-0.9619751,0.27288818,0.390625,-0.09375,0.890625
133,1697611285,-0.22827148,-0.9614868,0.26409912,0.046875,0.0625,0.578125
134,1697611325,-0.22729492,-0.9636841,0.26190186,0.359375,0.171875,0.46875
135,1697611365,-0.22729492,-0.9607544,0.2633667,-0.171875,-0.328125,0.71875
136,1697611405,-0.23388672,-0.9651489,0.27703857,-0.953125,-0.640625,0.328125
137,1697611445,-0.22558594,-0.96173096,0.2662964,-0.265625,0.296875,0.453125
138,1697611485,-0.21459961,-0.9636841,0.25726318,-2.84375,2.828125,-0.5625
139,1697611525,-0.23388672,-0.9534302,0.25946045,-3.40625,5.578125,-0.046875
140,1697611565,-0.2397461,-0.96588135,0.31097412,3.078125,9.578125,0.125
141,1697611605,-0.23168945,-0.9819946,0.28875732,2.609375,4.703125,1.515625
142,1697611645,-0.21679688,-0.95977783,0.2802124,-3.921875,3.828125,-0.171875
143,1697611685,-0.23828125,-0.9636841,0.30975342,-4.90625,3.890625,0.0
144,1697611725,-0.21484375,-0.96221924,0.30316162,-0.9375,3.421875,0.4375
145,1697611765,-0.22729492,-0.9480591,0.29803467,-1.125,3.71875,1.3125
146,1697611805,-0.2265625,-0.9480591,0.2975464,-2.3125,0.59375,0.875
147,1697611845,-0.22924805,-0.9458618,0.30145264,0.03125,-1.5,0.46875
148,1697611885,-0.21069336,-0.9578247,0.30047607,-0.734375,0.828125,0.78125
149,1697611925,-0.23046875,-0.94366455,0.30706787,0.5625,-0.765625,0.890625
150,1697611965,-0.22509766,-0.9338989,0.3024292,3.359375,-4.015625,0.96875
151,1697612005,-0.22167969,-0.94610596,0.29925537,7.65625,-10.625,1.03125
152,1697612045,-0.22680664,-0.9524536,0.31341553,5.453125,-12.71875,4.140625
153,1697612085,-0.23510742,-0.96881104,0.26531982,0.890625,-12.09375,1.0625
154,1697612125,-0.21166992,-0.9788208,0.2789917,0.859375,-2.984375,1.375
155,1697612165,-0.2265625,-0.9636841,0.26068115,0.71875,-1.375,0.796875
156,1697612205,-0.21508789,-0.9668579,0.27557373,3.375,-0.40625,0.65625
157,1697612245,-0.23388672,-0.96051025,0.28607178,2.59375,-0.25,1.359375
158,1697612285,-0.23608398,-0.9561157,0.27850342,3.078125,-0.640625,0.171875
159,1697612325,-0.22973633,-0.96466064,0.25579834,2.15625,-0.890625,0.546875
160,1697612365,-0.2355957,-0.96295166,0.26263428,0.890625,-1.21875,1.015625
161,1697612405,-0.23657227,-0.95880127,0.2675171,1.984375,-1.21875,1.453125
162,1697612445,-0.23339844,-0.9649048,0.27142334,0.765625,-1.53125,1.640625
163,1697612485,-0.22045898,-0.9697876,0.26531982,-0.0625,-1.296875,1.28125
164,1697612525,-0.22607422,-0.96539307,0.25482178,-1.703125,0.296875,1.109375
165,1697612565,-0.22949219,-0.96588135,0.25994873,-1.90625,1.015625,0.78125
166,1697612605,-0.22729492,-0.96881104,0.26190186,-0.859375,1.328125,0.640625
167,1697612645,-0.2265625,-0.96295166,0.26483154,0.265625,2.484375,0.90625
168,1697612685,-0.22924805,-0.95025635,0.26654053,1.25,1.921875,0.828125
169,1697612725,-0.21606445,-0.9668579,0.27874756,0.125,-1.078125,1.078125
170,1697612765,-0.21655273,-0.9639282,0.25750732,-0.625,-0.6875,0.71875
171,1697612805,-0.2397461,-0.96759033,0.2772827,-0.015625,0.703125,0.859375
172,1697612845,-0.22167969,-0.96588135,0.26531982,-2.890625,1.109375,-0.1875
173,1697612885,-0.23535156,-0.9668579,0.27850342,0.71875,0.0625,0.484375
174,1697612925,-0.21850586,-0.94854736,0.25286865,-0.828125,0.921875,0.640625
175,1697612965,-0.22705078,-0.96710205,0.2897339,2.671875,1.25,0.421875
176,1697613005,-0.23168945,-0.9734497,0.27996826,1.640625,0.578125,0.90625
177,1697613045,-0.21875,-0.960022,0.2645874,-0.390625,-0.5625,0.296875
178,1697613085,-0.22241211,-0.9627075,0.2687378,2.765625,-0.953125,0.796875
179,1697613125,-0.2331543,-0.972229,0.2753296,-0.59375,-1.90625,0.734375
180,1697613165,-0.23535156,-0.960022,0.27044678,-3.890625,-1.71875,0.03125
181,1697613205,-0.21386719,-0.9483032,0.24798584,-2.71875,0.28125,-0.078125
182,1697613245,-0.24780273,-0.9656372,0.29022217,1.984375,-0.03125,0.734375
183,1697613285,-0.22875977,-0.960022,0.28070068,0.28125,-1.1875,0.875
184,1697613325,-0.22802734,-0.9475708,0.26239014,0.953125,-0.34375,1.109375
185,1697613365,-0.23535156,-0.95977783,0.26727295,2.4375,0.453125,1.15625
186,1697613405,-0.22949219,-0.96881104,0.276062,2.328125,0.078125,1.03125
187,1697613445,-0.21118164,-0.9475708,0.2526245,1.5,0.578125,0.4375
188,1697613485,-0.2331543,-0.9656372,0.28216553,3.78125,0.0625,1.3125
189,1697613525,-0.24145508,-0.9841919,0.26727295,1.09375,-0.53125,1.0625
190,1697613565,-0.21948242,-0.9656372,0.2514038,0.34375,-1.09375,1.15625
191,1697613605,-0.22216797,-0.9619751,0.25408936,-1.234375,0.34375,0.5625
192,1697613645,-0.23095703,-0.9673462,0.2736206,0.65625,0.140625,0.65625
193,1697613685,-0.22875977,-0.9697876,0.27044678,-1.09375,0.046875,0.5625
194,1697613725,-0.22729492,-0.9561157,0.2616577,-0.0625,0.25,0.234375
195,1697613765,-0.23217773,-0.96832275,0.2765503,0.453125,-0.171875,0.4375
196,1697613805,-0.22875977,-0.9546509,0.27020264,-0.09375,-1.8125,0.375
197,1697613845,-0.21875,-0.9602661,0.25750732,1.125,-0.546875,0.953125
198,1697613885,-0.23291016,-0.95758057,0.26800537,0.59375,0.953125,0.828125
199,1697613925,-0.23754883,-0.9763794,0.27923584,1.546875,-0.203125,1.359375
200,1697613965,-0.21850586,-0.972229,0.26898193,-1.421875,-0.921875,1.1875
201,1697614005,-0.22387695,-0.95977783,0.2658081,-4.71875,-0.546875,0.296875
202,1697614045,-0.22167969,-0.97491455,0.2772827,-4.734375,-0.15625,-0.078125
203,1697614085,-0.22875977,-0.9651489,0.28582764,-10.65625,-0.03125,-0.34375
204,1697614125,-0.21459961,-0.94976807,0.2831421,-1.40625,-2.1875,-0.390625
205,1697614165,-0.22583008,-0.95196533,0.2987671,0.6875,-1.140625,0.546875
206,1697614205,-0.25976562,-0.9631958,0.2975464,0.734375,-0.875,-0.0625
207,1697614245,-0.2487793,-0.95098877,0.3065796,0.53125,2.375,-0.34375
208,1697614285,-0.23754883,-0.9590454,0.2904663,-2.78125,3.734375,-1.09375
209,1697614325,-0.2265625,-0.9475708,0.30584717,-2.171875,5.953125,-1.625
210,1697614365,-0.23535156,-0.9631958,0.32904053,-3.609375,4.59375,-1.171875
211,1697614405,-0.2446289,-0.9627075,0.32489014,-10.1875,2.28125,-0.25
212,1697614445,-0.24853516,-0.93951416,0.3463745,-8.34375,2.078125,-0.953125
213,1697614485,-0.25708008,-0.9414673,0.3463745,-3.8125,5.15625,-0.1875
214,1697614525,-0.2434082,-0.9397583,0.3529663,-2.546875,3.34375,0.25
215,1697614565,-0.22460938,-0.9299927,0.36663818,-0.03125,1.734375,0.9375
216,1697614605,-0.25268555,-0.94122314,0.3192749,10.203125,-2.8125,0.734375
217,1697614645,-0.22265625,-0.93585205,0.30462646,9.75,-4.078125,1.375
218,1697614685,-0.25024414,-0.9343872,0.33465576,10.078125,-8.359375,1.578125
219,1697614725,-0.24682617,-0.9607544,0.3222046,1.75,-10.640625,1.234375
220,1697614765,-0.22949219,-0.9505005,0.2909546,-1.359375,-6.921875,0.328125
221,1697614805,-0.24194336,-0.954895,0.31072998,-1.375,-2.375,0.15625
222,1697614845,-0.25585938,-0.958313,0.3085327,0.03125,-0.96875,-0.5
223,1697614885,-0.25195312,-0.9468384,0.3024292,1.984375,0.921875,0.1875
224,1697614925,-0.25708008,-0.9505005,0.32269287,1.25,1.078125,-0.03125
225,1697614965,-0.24853516,-0.9546509,0.3053589,-0.328125,1.921875,-0.84375
226,1697615005,-0.25805664,-0.9483032,0.30145264,-0.375,2.671875,-0.03125
227,1697615045,-0.24584961,-0.9561157,0.31243896,-1.78125,3.46875,-1.03125
228,1697615085,-0.2565918,-0.95318604,0.32196045,-5.53125,6.421875,-1.875
229,1697615125,-0.2524414,-0.956604,0.3300171,-6.421875,9.234375,-1.234375
230,1697615165,-0.25927734,-0.9414673,0.35443115,-4.46875,9.265625,-0.953125
231,1697615205,-0.2775879,-0.94000244,0.35028076,-0.78125,5.40625,0.609375
232,1697615245,-0.2553711,-0.9463501,0.35687256,-0.46875,4.65625,0.390625
233,1697615285,-0.25073242,-0.93878174,0.34222412,1.484375,3.359375,1.4375
234,1697615325,-0.24536133,-0.9282837,0.33148193,1.625,0.0,1.875
235,1697615365,-0.25805664,-0.92926025,0.32562256,10.09375,-6.859375,0.875
236,1697615405,-0.24560547,-0.9180298,0.3102417,9.34375,-10.59375,2.34375
237,1697615445,-0.2722168,-0.94781494,0.31903076,4.671875,-16.34375,3.25
238,1697615485,-0.24731445,-0.9734497,0.31707764,-0.734375,-13.734375,0.671875
239,1697615525,-0.22192383,-0.95440674,0.2975464,-2.28125,-0.984375,1.046875
240,1697615565,-0.27001953,-0.95880127,0.31781006,-1.171875,-1.234375,0.90625
241,1697615605,-0.26245117,-0.94903564,0.3270874,-0.890625,-1.046875,0.90625
242,1697615645,-0.25585938,-0.9402466,0.29730225,-2.453125,-0.859375,0.625
243,1697615685,-0.27270508,-0.93292236,0.3217163,-1.453125,-1.4375,0.625
244,1697615725,-0.2524414,-0.9495239,0.32855225,-2.703125,-0.59375,0.375
245,1697615765,-0.2512207,-0.93536377,0.3156128,-2.484375,-1.03125,0.421875
246,1697615805,-0.25756836,-0.9495239,0.3241577,-1.265625,0.3125,-0.234375
247,1697615845,-0.26782227,-0.94659424,0.32318115,-0.28125,1.375,1.140625
248,1697615885,-0.25805664,-0.944397,0.32684326,-1.578125,-0.625,0.484375
249,1697615925,-0.26708984,-0.9378052,0.32489014,-0.171875,-1.9375,0.453125
250,1697615965,-0.26953125,-0.9451294,0.3234253,-1.484375,-1.484375,0.8125
251,1697616005,-0.25170898,-0.9434204,0.32147217,-2.234375,-0.625,0.296875
252,1697616045,-0.25878906,-0.9421997,0.34222412,-0.4375,0.609375,0.453125
253,1697616085,-0.28271484,-0.94317627,0.35736084,0.03125,0.484375,1.21875
254,1697616125,-0.2619629,-0.9365845,0.34100342,-1.390625,0.203125,0.578125
255,1697616165,-0.25854492,-0.93536377,0.33148193,-1.265625,0.421875,0.859375
256,1697616205,-0.2788086,-0.9553833,0.3366089,-1.078125,1.375,0.765625
257,1697616245,-0.27001953,-0.9224243,0.35638428,-2.078125,2.25,1.328125
258,1697616285,-0.23852539,-0.9463501,0.3427124,0.234375,1.984375,0.703125
259,1697616325,-0.25439453,-0.92510986,0.34588623,2.03125,1.328125,1.171875
260,1697616365,-0.25390625,-0.9421997,0.3554077,3.8125,-2.796875,1.296875
261,1697616405,-0.28125,-0.93756104,0.34710693,4.453125,-3.859375,1.140625
262,1697616445,-0.2697754,-0.9475708,0.3209839,8.5,-1.53125,1.421875
263,1697616485,-0.24975586,-0.944397,0.3131714,6.453125,1.953125,3.0
264,1697616525,-0.24487305,-0.9368286,0.31414795,3.375,1.453125,2.140625
265,1697616565,-0.24926758,-0.9541626,0.32269287,0.3125,2.203125,1.390625
266,1697616605,-0.25317383,-0.9553833,0.32147217,-1.34375,2.625,1.171875
267,1697616645,-0.25195312,-0.94732666,0.31658936,-0.1875,1.9375,1.0
268,1697616685,-0.25170898,-0.9404907,0.3258667,0.640625,0.21875,1.15625
269,1697616725,-0.2524414,-0.9434204,0.32537842,0.09375,-0.796875,0.796875
270,1697616765,-0.25634766,-0.95147705,0.3287964,-1.078125,-1.140625,0.71875
271,1697616805,-0.25439453,-0.95147705,0.31536865,-4.046875,0.328125,0.171875
272,1697616845,-0.2607422,-0.956604,0.33563232,-5.078125,3.359375,0.140625
273,1697616885,-0.25610352,-0.91363525,0.35272217,-3.890625,2.546875,0.484375
274,1697616925,-0.24560547,-0.94659424,0.33343506,0.875,-2.671875,0.65625
275,1697616965,-0.27319336,-0.93096924,0.36029053,2.109375,-4.3125,0.453125
276,1697617005,-0.25732422,-0.9351196,0.3312378,3.578125,-4.5625,1.703125
277,1697617045,-0.25341797,-0.9378052,0.31488037,1.4375,-3.9375,2.0625
278,1697617085,-0.24243164,-0.9380493,0.31219482,-1.65625,-3.5,0.71875
279,1697617125,-0.26660156,-0.9434204,0.34100342,-0.5625,-1.640625,1.5
280,1697617165,-0.26293945,-0.95098877,0.322937,0.484375,-0.046875,1.109375
281,1697617205,-0.24804688,-0.93585205,0.32440186,2.484375,0.15625,1.125
282,1697617245,-0.25146484,-0.9470825,0.33270264,3.359375,-0.09375,1.375
283,1697617285,-0.24707031,-0.9475708,0.338562,1.90625,-0.484375,0.96875
284,1697617325,-0.25341797,-0.94488525,0.32611084,0.59375,-0.375,0.90625
285,1697617365,-0.25073242,-0.944397,0.31463623,0.296875,-0.625,0.8125
286,1697617405,-0.25683594,-0.95391846,0.31732178,0.671875,0.8125,0.78125
287,1697617445,-0.25341797,-0.9524536,0.3204956,1.34375,-0.359375,0.625
288,1697617485,-0.24804688,-0.9351196,0.31951904,-0.484375,-2.5625,1.09375
289,1697617525,-0.26757812,-0.95269775,0.31878662,-0.734375,-1.828125,0.765625
290,1697617565,-0.2590332,-0.95513916,0.31414795,-0.203125,-0.859375,0.515625
291,1697617605,-0.23901367,-0.9456177,0.31072998,-1.328125,-0.125,0.375
292,1697617645,-0.26635742,-0.940979,0.33172607,1.53125,0.265625,0.921875
293,1697617685,-0.25195312,-0.9468384,0.3241577,0.125,0.328125,0.65625
294,1697617725,-0.2541504,-0.9373169,0.3209839,0.890625,0.421875,0.828125
295,1697617765,-0.2524414,-0.9546509,0.32073975,0.90625,0.046875,1.015625
296,1697617805,-0.25073242,-0.9397583,0.3209839,0.59375,-0.46875,0.84375
297,1697617845,-0.25585938,-0.9468384,0.30975342,2.921875,-1.046875,1.21875
298,1697617885,-0.25317383,-0.95025635,0.3163452,3.21875,-1.765625,1.3125
299,1697617925,-0.25952148,-0.9483032,0.3126831,1.421875,-0.890625,0.875
300,1697617965,-0.2487793,-0.93878174,0.3012085,0.015625,0.890625,0.46875
301,1697618005,-0.25976562,-0.9595337,0.33563232,1.59375,0.640625,0.609375
302,1697618045,-0.24267578,-0.95196533,0.31976318,0.28125,0.15625,0.734375
303,1697618085,-0.25512695,-0.9468384,0.3168335,-0.15625,0.65625,0.28125
304,1697618125,-0.24267578,-0.95928955,0.30340576,0.9375,-0.03125,1.078125
305,1697618165,-0.25927734,-0.9505005,0.31048584,0.84375,-0.28125,1.265625
306,1697618205,-0.25610352,-0.93878174,0.32635498,0.203125,0.140625,0.484375
307,1697618245,-0.25390625,-0.9619751,0.31585693,-0.1875,-1.078125,0.34375
308,1697618285,-0.25170898,-0.944397,0.31121826,-0.625,-0.90625,0.78125
309,1697618325,-0.2614746,-0.94366455,0.31854248,-1.59375,0.484375,-0.171875
310,1697618365,-0.24707031,-0.94000244,0.30633545,-1.015625,2.453125,-0.515625
311,1697618405,-0.26708984,-0.954895,0.33270264,2.3125,0.90625,1.0
312,1697618445,-0.26879883,-0.9429321,0.32562256,0.65625,-0.796875,0.90625
313,1697618485,-0.25683594,-0.9475708,0.3053589,1.96875,-1.25,1.296875
314,1697618525,-0.25854492,-0.93048096,0.2855835,2.234375,-0.390625,1.6875
315,1697618565,-0.24072266,-0.9602661,0.31536865,4.53125,4.65625,3.21875
316,1697618605,-0.25952148,-0.95147705,0.3143921,2.984375,2.1875,1.375
317,1697618645,-0.2487793,-0.9590454,0.32073975,1.953125,1.625,0.9375
318,1697618685,-0.25146484,-0.95098877,0.3060913,-0.09375,0.65625,0.515625
319,1697618725,-0.25024414,-0.9541626,0.30926514,0.203125,0.34375,0.484375
320,1697618765,-0.24975586,-0.94244385,0.3065796,-0.546875,-0.203125,0.796875
321,1697618805,-0.24731445,-0.9602661,0.3085327,-0.328125,-0.046875,1.015625
322,1697618845,-0.24975586,-0.95318604,0.30804443,-0.984375,1.359375,0.546875
323,1697618885,-0.24829102,-0.94366455,0.31195068,-0.828125,1.96875,0.9375
324,1697618925,-0.24438477,-0.9541626,0.30975342,-2.5625,5.140625,-0.28125
325,1697618965,-0.25683594,-0.9480591,0.34857178,-2.234375,7.859375,0.03125
326,1697619005,-0.26123047,-0.94976807,0.34002686,-2.1875,4.390625,1.0625
327,1697619045,-0.2319336,-0.92388916,0.31072998,-1.0625,-0.140625,-0.078125
328,1697619085,-0.22753906,-0.9365845,0.3163452,1.671875,-1.234375,0.359375
329,1697619125,-0.22924805,-0.93218994,0.30047607,6.765625,-3.265625,2.09375
330,1697619165,-0.23632812,-0.92559814,0.3012085,11.015625,-6.296875,2.515625
331,1697619205,-0.2607422,-0.9673462,0.33929443,12.1875,-5.640625,4.890625
332,1697619245,-0.24487305,-0.9780884,0.28289795,5.34375,-6.21875,2.796875
333,1697619285,-0.2211914,-0.96710205,0.28289795,2.78125,-3.0625,1.203125
334,1697619325,-0.25097656,-0.9614868,0.28460693,0.484375,-2.96875,0.59375
335,1697619365,-0.24829102,-0.956604,0.27191162,-1.828125,-2.703125,0.390625
336,1697619405,-0.23486328,-0.9602661,0.26605225,1.125,-1.390625,1.296875
337,1697619445,-0.24389648,-0.96759033,0.27752686,-0.203125,-0.078125,0.703125
338,1697619485,-0.23901367,-0.96588135,0.28045654,-0.90625,0.21875,0.546875
339,1697619525,-0.24829102,-0.94854736,0.28851318,0.71875,0.21875,0.984375
340,1697619565,-0.23266602,-0.94732666,0.2579956,-1.34375,-1.421875,0.5
341,1697619605,-0.25317383,-0.9614868,0.2958374,0.578125,-0.25,1.25
342,1697619645,-0.24121094,-0.9639282,0.2897339,-0.390625,-0.234375,0.484375
343,1697619685,-0.24169922,-0.940979,0.27191162,0.125,0.328125,1.1875
344,1697619725,-0.24487305,-0.95684814,0.2819214,-0.109375,-0.9375,1.359375
345,1697619765,-0.23925781,-0.9558716,0.28070068,-0.5625,-1.078125,1.53125
346,1697619805,-0.24609375,-0.9517212,0.28704834,-0.140625,-1.0,1.765625
347,1697619845,-0.2409668,-0.9573364,0.2831421,0.375,-0.390625,1.578125
348,1697619885,-0.23339844,-0.95635986,0.28363037,0.59375,-0.890625,1.765625
349,1697619925,-0.23510742,-0.96051025,0.28070068,1.65625,-0.859375,1.546875
350,1697619965,-0.2331543,-0.9541626,0.2831421,1.296875,-0.203125,1.5
351,1697620005,-0.23364258,-0.9614868,0.28411865,1.359375,-0.03125,0.921875
352,1697620045,-0.23413086,-0.9570923,0.27581787,1.359375,-0.296875,1.046875
353,1697620085,-0.24072266,-0.9573364,0.28045654,1.6875,-1.484375,1.453125
354,1697620125,-0.24121094,-0.96466064,0.27679443,1.0625,-0.765625,0.390625
355,1697620165,-0.2331543,-0.96295166,0.28094482,0.796875,-0.4375,0.796875
356,1697620205,-0.22802734,-0.96173096,0.26776123,-1.6875,0.515625,0.078125
357,1697620245,-0.24121094,-0.9470825,0.2723999,0.21875,0.578125,0.53125
358,1697620285,-0.23291016,-0.9573364,0.2826538,0.546875,-0.28125,1.03125
359,1697620325,-0.22851562,-0.9522095,0.27093506,0.765625,-0.25,0.859375
360,1697620365,-0.23583984,-0.9636841,0.27972412,0.765625,-0.59375,0.875
361,1697620405,-0.2409668,-0.9561157,0.27435303,1.0625,0.453125,0.640625
362,1697620445,-0.23608398,-0.96173096,0.27581787,0.203125,-0.28125,0.8125
363,1697620485,-0.24584961,-0.9570923,0.2838745,0.5,-1.265625,0.90625
364,1697620525,-0.23022461,-0.95098877,0.24676514,-2.40625,1.296875,0.015625
365,1697620565,-0.23486328,-0.9607544,0.27313232,0.15625,1.25,0.140625
366,1697620605,-0.24511719,-0.9644165,0.29779053,1.328125,0.265625,1.359375
367,1697620645,-0.234375,-0.9570923,0.27874756,0.3125,-0.296875,0.75
368,1697620685,-0.23144531,-0.95269775,0.27069092,0.28125,-0.546875,0.359375
369,1697620725,-0.23413086,-0.9492798,0.2831421,0.578125,0.21875,0.421875
370,1697620765,-0.23657227,-0.9661255,0.2662964,-0.578125,0.140625,-0.015625
371,1697620805,-0.23339844,-0.96343994,0.27923584,0.875,0.75,0.296875
372,1697620845,-0.2355957,-0.9614868,0.27264404,0.5,0.65625,0.21875
373,1697620885,-0.23852539,-0.9404907,0.28289795,2.734375,-2.21875,1.09375
374,1697620925,-0.24731445,-0.97003174,0.27386475,2.28125,-2.03125,1.828125
375,1697620965,-0.2397461,-0.96099854,0.26483154,1.734375,-1.140625,1.015625
376,1697621005,-0.2397461,-0.9714966,0.27557373,2.5,-0.640625,0.71875
377,1697621045,-0.22973633,-0.96221924,0.26849365,0.28125,0.296875,0.65625
378,1697621085,-0.22705078,-0.95318604,0.25457764,0.4375,0.671875,0.234375
379,1697621125,-0.24487305,-0.9590454,0.2711792,0.203125,-0.125,1.453125
380,1697621165,-0.24047852,-0.97247314,0.27752686,-0.0625,-0.546875,1.390625
381,1697621205,-0.23291016,-0.9636841,0.27337646,0.078125,0.375,0.703125
382,1697621245,-0.23168945,-0.95977783,0.2584839,-0.15625,0.390625,0.265625
383,1697621285,-0.24121094,-0.96099854,0.27313232,0.234375,0.828125,0.78125
384,1697621325,-0.23876953,-0.9614868,0.26556396,0.421875,1.671875,0.671875
385,1697621365,-0.2397461,-0.96710205,0.26800537,0.09375,1.125,0.5625
386,1697621405,-0.22875977,-0.9607544,0.2819214,-1.8125,1.71875,-0.578125
387,1697621445,-0.23632812,-0.9644165,0.2802124,-3.296875,3.96875,-0.03125
388,1697621485,-0.24633789,-0.9612427,0.28900146,-4.265625,4.90625,-0.265625
389,1697621525,-0.25073242,-0.97857666,0.31243896,-6.890625,5.0,0.359375
390,1697621565,-0.26904297,-0.9541626,0.31170654,-10.671875,2.640625,-0.546875
391,1697621605,-0.22875977,-0.9373169,0.30828857,-6.03125,3.171875,0.203125
392,1697621645,-0.22998047,-0.94122314,0.31781006,-0.890625,0.0,1.65625
393,1697621685,-0.22338867,-0.94244385,0.31072998,5.390625,-5.546875,1.0625
394,1697621725,-0.21582031,-0.93096924,0.28167725,7.515625,-6.796875,3.75
395,1697621765,-0.23217773,-0.94244385,0.30926514,9.40625,-5.953125,3.296875
396,1697621805,-0.26513672,-0.9866333,0.309021,3.0625,-6.65625,3.15625
397,1697621845,-0.23657227,-0.9595337,0.27093506,-1.484375,-5.203125,0.65625
398,1697621885,-0.23413086,-0.9524536,0.28045654,-0.09375,-2.59375,0.8125
399,1697621925,-0.24975586,-0.9553833,0.28411865,2.0625,-0.03125,1.28125
400,1697621965,-0.24609375,-0.95196533,0.27972412,1.390625,0.671875,0.90625
401,1697622005,-0.22460938,-0.96051025,0.3036499,0.5,-0.3125,0.21875
402,1697622045,-0.234375,-0.96588135,0.27581787,0.625,-0.796875,1.046875
403,1697622085,-0.23217773,-0.954895,0.2814331,0.71875,-1.34375,0.75
404,1697622125,-0.24047852,-0.9624634,0.29241943,3.078125,-0.171875,1.3125
405,1697622165,-0.23730469,-0.9541626,0.2741089,-1.5,-1.765625,0.9375
406,1697622205,-0.22583008,-0.9553833,0.2753296,-1.9375,0.1875,0.109375
407,1697622245,-0.234375,-0.9758911,0.2868042,-1.796875,-0.296875,0.875
408,1697622285,-0.21704102,-0.9561157,0.2819214,-2.703125,0.53125,-0.03125
409,1697622325,-0.24438477,-0.9529419,0.29534912,-2.078125,-0.484375,0.71875
410,1697622365,-0.24511719,-0.94195557,0.29779053,0.09375,-0.625,0.109375
411,1697622405,-0.2529297,-0.95928955,0.29730225,1.125,0.515625,0.875
412,1697622445,-0.2434082,-0.9578247,0.29852295,0.84375,-1.046875,1.09375
413,1697622485,-0.24414062,-0.95025635,0.29656982,1.609375,-0.640625,1.65625
414,1697622525,-0.22998047,-0.95513916,0.28607178,0.171875,-0.546875,1.015625
415,1697622565,-0.22045898,-0.9451294,0.29022217,0.796875,-0.6875,1.328125
416,1697622605,-0.21875,-0.96954346,0.28118896,-2.703125,-1.796875,0.484375
417,1697622645,-0.24291992,-0.9524536,0.30047607,-0.734375,-2.375,1.09375
418,1697622685,-0.2434082,-0.9561157,0.27825928,-1.296875,-0.96875,0.46875
419,1697622725,-0.25634766,-0.954895,0.31048584,1.90625,0.15625,1.578125
420,1697622765,-0.2529297,-0.95391846,0.3060913,1.375,0.484375,1.28125
421,1697622805,-0.23876953,-0.9505005,0.29608154,1.375,0.46875,0.765625
422,1697622845,-0.23364258,-0.95758057,0.3048706,1.78125,0.140625,0.625
423,1697622885,-0.23413086,-0.9614868,0.29315186,0.6875,0.59375,0.84375
424,1697622925,-0.22924805,-0.942688,0.28704834,0.359375,0.234375,0.421875
425,1697622965,-0.23925781,-0.9627075,0.3024292,0.8125,0.328125,0.625
426,1697623005,-0.23925781,-0.95147705,0.29364014,-0.046875,1.03125,0.484375
427,1697623045,-0.24438477,-0.95806885,0.2970581,-0.15625,0.984375,0.171875
428,1697623085,-0.23608398,-0.9534302,0.2946167,-0.828125,1.0,-0.0625
429,1697623125,-0.22314453,-0.94537354,0.29241943,0.890625,0.96875,0.234375
430,1697623165,-0.23388672,-0.9590454,0.3048706,1.078125,-0.65625,0.96875
431,1697623205,-0.23730469,-0.9529419,0.293396,0.625,-0.59375,-0.0625
432,1697623245,-0.23388672,-0.9507446,0.2904663,-2.203125,0.46875,-0.40625
433,1697623285,-0.24487305,-0.9624634,0.28900146,0.46875,0.90625,0.140625
434,1697623325,-0.24414062,-0.94488525,0.2838745,0.046875,0.875,0.265625
435,1697623365,-0.24682617,-0.95391846,0.30511475,1.84375,-1.296875,0.71875
436,1697623405,-0.24829102,-0.9524536,0.2929077,1.890625,-1.0625,0.234375
437,1697623445,-0.23022461,-0.95269775,0.2741089,5.03125,0.234375,0.75
438,1697623485,-0.23608398,-0.96173096,0.2975464,7.0,0.15625,1.171875
439,1697623525,-0.23486328,-0.9541626,0.2843628,3.28125,-0.953125,0.84375
440,1697623565,-0.24267578,-0.9505005,0.277771,1.921875,-0.296875,0.828125
441,1697623605,-0.24438477,-0.96759033,0.276062,-1.140625,0.609375,0.109375
442,1697623645,-0.23461914,-0.9619751,0.2789917,-0.828125,0.8125,0.265625
443,1697623685,-0.2475586,-0.9573364,0.27215576,-0.484375,0.359375,0.484375
444,1697623725,-0.2524414,-0.9500122,0.2826538,1.28125,1.28125,0.5625
445,1697623765,-0.24169922,-0.95562744,0.28216553,0.734375,0.515625,0.90625
446,1697623805,-0.24731445,-0.95928955,0.27581787,0.65625,0.734375,0.515625
447,1697623845,-0.23925781,-0.95562744,0.2748413,0.40625,0.78125,0.71875
448,1697623885,-0.2421875,-0.9585571,0.2880249,1.421875,0.46875,0.640625
449,1697623925,-0.2368164,-0.9546509,0.29388428,1.15625,0.6875,0.796875
450,1697623965,-0.2290039,-0.9727173,0.27288818,-1.15625,0.15625,0.203125
451,1697624005,-0.2434082,-0.9378052,0.2675171,-1.40625,-0.4375,0.40625
452,1697624045,-0.2626953,-0.9717407,0.29437256,-1.3125,-1.078125,1.109375
453,1697624085,-0.2409668,-0.9644165,0.27142334,-1.03125,-1.125,0.5
454,1697624125,-0.23535156,-0.9517212,0.27386475,0.46875,-0.21875,1.09375
455,1697624165,-0.25195312,-0.9636841,0.29779053,2.296875,-0.484375,2.0
456,1697624205,-0.24047852,-0.95269775,0.2850952,0.453125,-0.859375,1.25
457,1697624245,-0.23364258,-0.956604,0.28118896,1.1875,-0.484375,1.328125
458,1697624285,-0.24438477,-0.95928955,0.28656006,1.015625,-0.546875,1.40625
459,1697624325,-0.23364258,-0.9480591,0.26727295,0.53125,-0.53125,0.796875
460,1697624365,-0.24731445,-0.960022,0.28533936,0.796875,0.25,1.609375
461,1697624405,-0.24804688,-0.958313,0.27947998,0.390625,0.40625,0.5625
462,1697624445,-0.24780273,-0.96173096,0.28338623,0.953125,-0.21875,0.96875
463,1697624485,-0.24291992,-0.95684814,0.2802124,0.984375,0.234375,0.796875
464,1697624525,-0.24291992,-0.9585571,0.27288818,1.296875,-0.328125,0.5625
465,1697624565,-0.23706055,-0.9697876,0.27679443,1.125,-0.71875,0.8125
466,1697624605,-0.24047852,-0.95562744,0.2850952,-0.5,0.21875,0.421875
467,1697624645,-0.24414062,-0.9627075,0.27923584,-2.03125,-0.640625,0.578125
468,1697624685,-0.24536133,-0.95440674,0.27923584,-2.234375,0.28125,0.28125
469,1697624725,-0.24267578,-0.95635986,0.2921753,-0.03125,1.609375,-0.078125
470,1697624765,-0.23876953,-0.954895,0.2838745,-0.953125,2.390625,-0.125
471,1697624805,-0.24194336,-0.96661377,0.29241943,-0.640625,5.5625,-1.4375
472,1697624845,-0.23828125,-0.97857666,0.32000732,-1.65625,7.84375,0.953125
473,1697624885,-0.26464844,-0.9326782,0.30047607,-0.453125,0.75,0.46875
474,1697624925,-0.23339844,-0.9505005,0.29437256,1.375,2.515625,0.015625
475,1697624965,-0.2290039,-0.9717407,0.29901123,-1.453125,1.640625,1.46875
476,1697625005,-0.234375,-0.9434204,0.29803467,-4.21875,0.28125,0.703125
477,1697625045,-0.25634766,-0.93292236,0.27581787,0.4375,-2.84375,1.390625
478,1697625085,-0.23535156,-0.940979,0.2736206,4.78125,-2.609375,1.640625
479,1697625125,-0.2163086,-0.9331665,0.2682495,6.28125,-8.71875,4.453125
480,1697625165,-0.2434082,-0.96759033,0.32440186,4.109375,-7.15625,4.625
481,1697625205,-0.24365234,-0.9734497,0.28289795,0.28125,-8.609375,1.75
482,1697625245,-0.2175293,-0.96661377,0.26898193,0.40625,-3.421875,1.5
483,1697625285,-0.24023438,-0.9534302,0.28607178,-1.4375,-1.203125,0.203125
484,1697625325,-0.23779297,-0.9702759,0.277771,1.453125,-0.515625,-0.515625
485,1697625365,-0.25073242,-0.95196533,0.27825928,0.75,0.546875,0.578125
486,1697625405,-0.2421875,-0.95806885,0.27947998,0.96875,0.71875,0.21875
487,1697625445,-0.23217773,-0.9619751,0.27435303,0.109375,1.3125,0.4375
488,1697625485,-0.23852539,-0.9590454,0.27215576,0.046875,0.203125,0.171875
489,1697625525,-0.23730469,-0.9636841,0.27850342,0.609375,-0.03125,0.734375
490,1697625565,-0.24682617,-0.96417236,0.27825928,0.125,0.421875,0.96875
491,1697625605,-0.23730469,-0.9524536,0.26409912,1.359375,-0.125,0.359375
492,1697625645,-0.23266602,-0.9529419,0.277771,1.234375,-0.53125,1.171875
493,1697625685,-0.24511719,-0.9585571,0.26800537,0.453125,-1.390625,0.703125
494,1697625725,-0.23266602,-0.95318604,0.26605225,-0.609375,-0.34375,0.5625
495,1697625765,-0.25268555,-0.9644165,0.28338623,0.875,0.171875,1.015625
496,1697625805,-0.24414062,-0.9673462,0.2838745,0.28125,0.8125,0.96875
497,1697625845,-0.24633789,-0.9529419,0.2736206,-1.078125,0.5625,0.953125
498,1697625885,-0.24365234,-0.9429321,0.2772827,1.59375,1.09375,0.71875
499,1697625925,-0.23217773,-0.9763794,0.2633667,-0.421875,-0.578125,0.796875
500,1697625965,-0.24072266,-0.9546509,0.26312256,-0.734375,-0.78125,1.125
501,1697626005,-0.24194336,-0.9590454,0.27386475,-1.828125,0.671875,1.1875
502,1697626045,-0.24560547,-0.960022,0.2909546,-0.203125,0.875,0.921875
503,1697626085,-0.23828125,-0.95977783,0.2921753,-0.65625,0.765625,0.875
504,1697626125,-0.23852539,-0.9470825,0.27581787,1.421875,1.03125,1.0
505,1697626165,-0.23095703,-0.95562744,0.2753296,0.703125,-2.484375,1.546875
506,1697626205,-0.23828125,-0.96417236,0.28338623,0.6875,-2.03125,2.203125
507,1697626245,-0.22802734,-0.95269775,0.2741089,-0.59375,0.078125,1.140625
508,1697626285,-0.24047852,-0.9627075,0.28851318,-0.765625,0.859375,0.421875
509,1697626325,-0.234375,-0.96051025,0.29144287,1.328125,0.59375,0.5625
510,1697626365,-0.23339844,-0.9612427,0.27874756,1.28125,0.953125,0.53125
511,1697626405,-0.23242188,-0.9541626,0.27581787,1.421875,-0.296875,0.671875
512,1697626445,-0.2319336,-0.9536743,0.2802124,2.234375,-1.546875,0.8125
513,1697626485,-0.23828125,-0.9505005,0.27703857,2.03125,-0.390625,1.078125
514,1697626525,-0.23706055,-0.97247314,0.28118896,2.171875,-0.53125,1.4375
515,1697626565,-0.23266602,-0.95977783,0.27923584,2.109375,-0.09375,0.953125
516,1697626605,-0.23095703,-0.96832275,0.27850342,-0.734375,-0.171875,0.71875
517,1697626645,-0.23730469,-0.9656372,0.26654053,1.703125,-0.984375,1.296875
518,1697626685,-0.23022461,-0.9644165,0.25579834,1.34375,-0.59375,0.96875
519,1697626725,-0.23535156,-0.95684814,0.27874756,3.984375,-0.453125,0.953125
520,1697626765,-0.2319336,-0.96661377,0.25628662,2.25,0.796875,1.203125
521,1697626805,-0.22924805,-0.95880127,0.262146,1.0,1.109375,0.671875
522,1697626845,-0.2368164,-0.96759033,0.27044678,-0.75,0.890625,0.390625
523,1697626885,-0.22949219,-0.9612427,0.26263428,0.609375,0.515625,0.265625
524,1697626925,-0.23779297,-0.94903564,0.2526245,2.03125,-0.375,1.234375
525,1697626965,-0.24487305,-0.9631958,0.27313232,2.875,-0.25,1.546875
526,1697627005,-0.23120117,-0.96881104,0.24432373,1.9375,0.078125,1.65625
527,1697627045,-0.23242188,-0.9673462,0.25286865,3.90625,0.859375,1.625
528,1697627085,-0.23339844,-0.96759033,0.25091553,3.75,2.09375,1.75
529,1697627125,-0.22924805,-0.97003174,0.25823975,1.125,0.625,1.484375
530,1697627165,-0.2241211,-0.9590454,0.246521,-1.421875,0.328125,0.96875
531,1697627205,-0.22729492,-0.9602661,0.2526245,-0.78125,0.546875,0.140625
532,1697627245,-0.22924805,-0.97247314,0.2579956,0.859375,0.25,0.765625
533,1697627285,-0.22460938,-0.954895,0.24334717,0.078125,-0.328125,0.359375
534,1697627325,-0.22363281,-0.9697876,0.2477417,-0.5,0.3125,0.765625
535,1697627365,-0.23730469,-0.9751587,0.25897217,0.8125,-0.34375,0.734375
536,1697627405,-0.22387695,-0.96539307,0.24334717,-0.28125,0.53125,0.265625
537,1697627445,-0.23486328,-0.9619751,0.26239014,2.796875,-0.03125,0.515625
538,1697627485,-0.234375,-0.95758057,0.23846436,0.859375,0.28125,0.53125
539,1697627525,-0.22705078,-0.9644165,0.25164795,0.796875,0.015625,1.46875
540,1697627565,-0.21411133,-0.973938,0.2633667,-1.0625,-0.09375,0.421875
541,1697627605,-0.21679688,-0.97979736,0.2579956,-0.453125,-0.578125,0.1875
542,1697627645,-0.22973633,-0.95318604,0.24359131,-0.546875,-0.453125,0.3125
543,1697627685,-0.23461914,-0.96051025,0.25994873,0.3125,0.828125,-0.359375
544,1697627725,-0.21972656,-0.97662354,0.27142334,-0.9375,4.6875,-0.453125
545,1697627765,-0.22827148,-0.98101807,0.28118896,-3.4375,4.46875,-0.71875
546,1697627805,-0.26049805,-0.96173096,0.27752686,-4.625,1.546875,-0.5
547,1697627845,-0.23828125,-0.9529419,0.26800537,-1.578125,3.21875,-1.125
548,1697627885,-0.234375,-0.95513916,0.26141357,5.0,9.375,2.390625
549,1697627925,-0.27392578,-0.96954346,0.28216553,9.234375,10.265625,3.84375
550,1697627965,-0.23168945,-0.93878174,0.24749756,4.453125,4.140625,3.140625
551,1697628005,-0.16015625,-0.93878174,0.21966553,4.65625,-2.8125,1.0625
552,1697628045,-0.1821289,-0.9290161,0.22869873,9.8125,-9.890625,4.375
553,1697628085,-0.21826172,-0.96954346,0.27996826,3.75,-9.28125,3.546875
554,1697628125,-0.22314453,-0.98443604,0.23895264,-4.265625,-11.046875,-1.234375
555,1697628165,-0.22387695,-0.9834595,0.25701904,-0.515625,-4.671875,0.09375
556,1697628205,-0.23803711,-0.96710205,0.24163818,-1.859375,-1.265625,0.21875
557,1697628245,-0.22509766,-0.9685669,0.23431396,-0.328125,-1.34375,0.09375
558,1697628285,-0.22631836,-0.96539307,0.24359131,-1.890625,-2.359375,-0.34375
559,1697628325,-0.22241211,-0.95391846,0.21380615,-3.15625,0.578125,-1.09375
560,1697628365,-0.2319336,-0.9763794,0.23773193,0.375,2.34375,-0.25
561,1697628405,-0.23828125,-0.9741821,0.25360107,0.734375,0.5,0.921875
562,1697628445,-0.24414062,-0.9668579,0.2477417,0.28125,0.984375,0.3125
563,1697628485,-0.23071289,-0.9614868,0.24725342,0.15625,-0.609375,0.265625
564,1697628525,-0.24511719,-0.96759033,0.2477417,-0.671875,-2.09375,-0.015625
565,1697628565,-0.22363281,-0.9573364,0.23358154,-1.03125,-0.03125,-0.109375
566,1697628605,-0.23535156,-0.9619751,0.2477417,1.40625,-0.46875,0.1875
567,1697628645,-0.22436523,-0.97979736,0.2616577,0.59375,-1.765625,0.546875
568,1697628685,-0.22241211,-0.95977783,0.23846436,-0.203125,-2.0,0.34375
569,1697628725,-0.24243164,-0.9685669,0.2514038,-0.296875,-1.0625,0.40625
570,1697628765,-0.24536133,-0.95513916,0.24359131,-0.734375,0.0,-0.46875
571,1697628805,-0.23632812,-0.97613525,0.246521,0.15625,-0.21875,0.859375
572,1697628845,-0.23510742,-0.9536743,0.24139404,-1.03125,-0.828125,1.046875
573,1697628885,-0.24267578,-0.9636841,0.25872803,1.0,-0.25,0.546875
574,1697628925,-0.23413086,-0.9656372,0.24310303,-1.484375,-0.453125,1.046875
575,1697628965,-0.23388672,-0.9602661,0.25506592,0.390625,-0.0625,1.28125
576,1697629005,-0.24536133,-0.9649048,0.26287842,-0.796875,-0.59375,1.1875
577,1697629045,-0.23291016,-0.95977783,0.24212646,0.109375,2.0,0.546875
578,1697629085,-0.23632812,-0.98028564,0.25164795,1.296875,5.90625,1.8125
579,1697629125,-0.24633789,-0.96343994,0.262146,2.390625,5.21875,1.0
580,1697629165,-0.23510742,-0.972229,0.26190186,0.484375,8.703125,0.03125
581,1697629205,-0.24121094,-0.973938,0.2670288,-3.296875,6.546875,0.0625
582,1697629245,-0.23388672,-0.9714966,0.27166748,-5.25,2.59375,-0.6875
583,1697629285,-0.22607422,-0.95147705,0.27459717,-6.96875,2.03125,-0.046875
584,1697629325,-0.234375,-0.9529419,0.28289795,-5.53125,1.96875,0.265625
585,1697629365,-0.23608398,-0.9644165,0.293396,-3.859375,1.640625,0.21875
586,1697629405,-0.23632812,-0.95684814,0.3036499,-5.875,2.046875,0.59375
587,1697629445,-0.22851562,-0.97052,0.30047607,-7.265625,2.828125,-0.140625
588,1697629485,-0.22924805,-0.9505005,0.3053589,-3.984375,4.703125,1.484375
589,1697629525,-0.23266602,-0.9404907,0.3324585,-5.3125,2.796875,0.703125
590,1697629565,-0.23461914,-0.94366455,0.32391357,-1.0,0.8125,0.8125
591,1697629605,-0.22631836,-0.94488525,0.31878662,-1.4375,-0.0625,0.75
592,1697629645,-0.2355957,-0.9209595,0.31829834,3.0625,-0.71875,1.140625
593,1697629685,-0.22729492,-0.9356079,0.31365967,6.640625,-4.546875,1.078125
594,1697629725,-0.24072266,-0.9500122,0.33343506,7.65625,-7.984375,1.03125
595,1697629765,-0.24389648,-0.9368286,0.3139038,3.984375,-16.328125,3.203125
596,1697629805,-0.2536621,-0.9690552,0.2994995,-1.890625,-16.25,0.59375
597,1697629845,-0.21386719,-0.9602661,0.28656006,-1.734375,-4.96875,0.671875
598,1697629885,-0.23510742,-0.97198486,0.29022217,-1.59375,-1.453125,1.015625
599,1697629925,-0.2409668,-0.9585571,0.30267334,-0.75,-0.609375,0.15625
600,1697629965,-0.25732422,-0.9553833,0.307312,-0.40625,3.21875,0.84375
601,1697630005,-0.25463867,-0.9458618,0.3163452,0.328125,0.0,0.640625
602,1697630045,-0.24951172,-0.9512329,0.31219482,-0.890625,-2.03125,0.03125
603,1697630085,-0.24389648,-0.95806885,0.29071045,-1.40625,-0.5,-0.09375
604,1697630125,-0.2397461,-0.9446411,0.31585693,-0.421875,0.5625,0.328125
605,1697630165,-0.23461914,-0.95391846,0.30438232,-2.015625,-0.46875,-0.5625
606,1697630205,-0.25878906,-0.9314575,0.32073975,-0.296875,-0.21875,0.53125
607,1697630245,-0.2524414,-0.9534302,0.32489014,0.671875,-0.578125,-0.078125
608,1697630285,-0.24389648,-0.94000244,0.30706787,-0.609375,0.0625,0.265625
609,1697630325,-0.24487305,-0.94366455,0.3036499,-2.0,-0.78125,0.1875
610,1697630365,-0.25512695,-0.9495239,0.3204956,-0.71875,-0.40625,0.4375
611,1697630405,-0.25854492,-0.9639282,0.3241577,-0.234375,-0.703125,0.34375
612,1697630445,-0.24804688,-0.94366455,0.31170654,0.09375,-0.921875,0.90625
613,1697630485,-0.25097656,-0.93756104,0.31878662,-1.296875,-1.25,1.1875
614,1697630525,-0.2529297,-0.94415283,0.31707764,-1.09375,-0.921875,0.4375
615,1697630565,-0.24658203,-0.9529419,0.3204956,-1.484375,-0.75,0.65625
616,1697630605,-0.24829102,-0.94781494,0.32196045,-0.59375,1.265625,0.84375
617,1697630645,-0.25952148,-0.9456177,0.3258667,0.1875,0.78125,1.40625
618,1697630685,-0.24951172,-0.94415283,0.32562256,0.875,-0.671875,1.046875
619,1697630725,-0.25073242,-0.92633057,0.30389404,-0.21875,0.21875,0.421875
620,1697630765,-0.28076172,-0.96295166,0.3283081,2.46875,1.09375,1.046875
621,1697630805,-0.23754883,-0.9429321,0.33270264,0.359375,1.015625,0.6875
622,1697630845,-0.2241211,-0.95806885,0.31121826,-0.671875,0.546875,0.546875
623,1697630885,-0.24633789,-0.92974854,0.32928467,0.140625,0.109375,0.8125
624,1697630925,-0.25341797,-0.9546509,0.33929443,2.421875,-1.734375,0.953125
625,1697630965,-0.2614746,-0.9480591,0.32196045,1.5625,-1.296875,1.375
626,1697631005,-0.24267578,-0.94781494,0.3060913,0.453125,-0.5,1.140625
627,1697631045,-0.23339844,-0.95513916,0.32733154,0.140625,-1.5,1.671875
628,1697631085,-0.24243164,-0.9360962,0.31585693,0.1875,-2.25,1.296875
629,1697631125,-0.26220703,-0.9522095,0.32147217,2.21875,-1.5,1.921875
630,1697631165,-0.24682617,-0.94854736,0.32391357,-0.390625,-1.625,1.0
631,1697631205,-0.2409668,-0.9475708,0.32025146,-0.078125,-0.546875,1.4375
632,1697631245,-0.24194336,-0.94659424,0.32366943,-0.53125,-0.25,0.84375
633,1697631285,-0.24902344,-0.9451294,0.32000732,-0.515625,-0.3125,0.765625
634,1697631325,-0.25073242,-0.9439087,0.3192749,-0.640625,0.328125,0.484375
635,1697631365,-0.24804688,-0.9512329,0.31878662,0.109375,1.75,0.328125
636,1697631405,-0.23632812,-0.9470825,0.3168335,0.5,2.59375,0.53125
637,1697631445,-0.24658203,-0.94122314,0.3209839,0.484375,1.25,0.90625
638,1697631485,-0.24145508,-0.93707275,0.31903076,-1.296875,0.4375,-0.015625
639,1697631525,-0.24658203,-0.96221924,0.3234253,0.59375,1.109375,0.171875
640,1697631565,-0.25170898,-0.94488525,0.32147217,-0.859375,0.890625,0.75
641,1697631605,-0.2475586,-0.9299927,0.32733154,1.140625,-1.8125,0.59375
642,1697631645,-0.25878906,-0.95269775,0.3378296,1.875,0.46875,0.546875
643,1697631685,-0.24365234,-0.9417114,0.31976318,0.671875,0.53125,0.609375
644,1697631725,-0.23657227,-0.9451294,0.3324585,1.5625,0.375,0.796875
645,1697631765,-0.25146484,-0.9480591,0.3319702,0.640625,1.015625,0.8125
646,1697631805,-0.25585938,-0.94537354,0.3241577,0.4375,1.640625,1.203125
647,1697631845,-0.24560547,-0.9458618,0.32684326,-0.375,0.53125,0.953125
648,1697631885,-0.23925781,-0.93927,0.32440186,-0.265625,-0.1875,0.9375
649,1697631925,-0.23413086,-0.9505005,0.32659912,1.578125,-1.8125,0.8125
650,1697631965,-0.25390625,-0.9468384,0.3204956,3.0,-4.203125,1.453125
651,1697632005,-0.2668457,-0.9702759,0.3373413,1.828125,-3.984375,1.796875
652,1697632045,-0.23217773,-0.9373169,0.30706787,-0.859375,-1.390625,0.515625
653,1697632085,-0.23510742,-0.9529419,0.32391357,0.015625,-0.4375,1.03125
654,1697632125,-0.24438477,-0.94195557,0.30682373,-0.015625,0.140625,0.65625
655,1697632165,-0.2475586,-0.9512329,0.31878662,0.796875,1.203125,0.796875
656,1697632205,-0.24438477,-0.9348755,0.32928467,-0.46875,1.171875,0.328125
657,1697632245,-0.24658203,-0.95513916,0.31292725,0.171875,0.484375,0.109375
658,1697632285,-0.25048828,-0.93292236,0.31170654,0.6875,-0.96875,1.28125
659,1697632325,-0.24926758,-0.9529419,0.3319702,-0.484375,-0.90625,0.609375
660,1697632365,-0.24023438,-0.9397583,0.3085327,-2.90625,0.484375,0.359375
661,1697632405,-0.24487305,-0.9500122,0.32318115,-1.3125,0.1875,0.203125
662,1697632445,-0.25683594,-0.95758057,0.33563232,-0.453125,0.90625,0.015625
663,1697632485,-0.25146484,-0.94244385,0.32318115,0.40625,0.671875,0.234375
664,1697632525,-0.23779297,-0.94000244,0.32904053,1.265625,3.328125,-0.234375
665,1697632565,-0.24951172,-0.9421997,0.3324585,2.390625,2.203125,0.734375
666,1697632605,-0.24536133,-0.9505005,0.32928467,2.09375,-0.140625,0.5
667,1697632645,-0.25170898,-0.94366455,0.32928467,0.265625,-2.3125,1.203125
668,1697632685,-0.25219727,-0.9356079,0.31219482,-1.25,-4.5,0.484375
669,1697632725,-0.24975586,-0.9500122,0.31951904,2.625,-2.734375,1.46875
670,1697632765,-0.26342773,-0.954895,0.34295654,2.046875,-1.53125,1.390625
671,1697632805,-0.24267578,-0.9505005,0.3060913,1.25,0.234375,0.5
672,1697632845,-0.2421875,-0.9463501,0.31414795,1.53125,2.890625,0.84375
673,1697632885,-0.25708008,-0.9475708,0.31341553,2.1875,0.484375,0.78125
674,1697632925,-0.24926758,-0.92510986,0.32196045,3.03125,-1.03125,1.71875
675,1697632965,-0.2487793,-0.9561157,0.30999756,0.453125,-1.140625,0.859375
676,1697633005,-0.24780273,-0.9475708,0.30999756,1.25,0.375,0.953125
677,1697633045,-0.25048828,-0.9651489,0.32440186,0.1875,1.109375,1.125
678,1697633085,-0.2529297,-0.94610596,0.30316162,-1.125,1.234375,0.640625
679,1697633125,-0.24658203,-0.9522095,0.31854248,1.953125,1.015625,0.859375
680,1697633165,-0.2409668,-0.9536743,0.31219482,0.984375,-0.921875,1.296875
681,1697633205,-0.23901367,-0.940979,0.31097412,-0.171875,-0.234375,0.890625
682,1697633245,-0.25268555,-0.9570923,0.3163452,-0.328125,0.859375,0.515625
683,1697633285,-0.2536621,-0.95269775,0.31414795,-0.234375,0.8125,0.375
684,1697633325,-0.24975586,-0.9475708,0.30804443,1.859375,-0.296875,1.015625
685,1697633365,-0.24829102,-0.9390259,0.3114624,1.53125,-0.9375,1.78125
686,1697633405,-0.2529297,-0.95440674,0.31610107,2.78125,-1.140625,1.296875
687,1697633445,-0.23583984,-0.9480591,0.30218506,2.15625,-0.265625,1.203125
688,1697633485,-0.24243164,-0.9573364,0.3024292,0.953125,-0.5625,1.328125
689,1697633525,-0.23950195,-0.9480591,0.30413818,-3.109375,0.375,0.3125
690,1697633565,-0.24414062,-0.94903564,0.30682373,-1.28125,1.203125,-0.5
691,1697633605,-0.24780273,-0.9624634,0.3060913,-0.390625,0.734375,-0.1875
692,1697633645,-0.24609375,-0.954895,0.31976318,1.21875,-1.296875,1.25
693,1697633685,-0.23779297,-0.94366455,0.30584717,-0.5625,-0.5,0.96875
694,1697633725,-0.24853516,-0.94854736,0.32537842,0.984375,0.65625,0.890625
695,1697633765,-0.24291992,-0.9570923,0.31170654,-0.4375,1.03125,0.578125
696,1697633805,-0.2446289,-0.9468384,0.30975342,0.078125,0.75,0.65625
697,1697633845,-0.24853516,-0.9534302,0.31585693,1.046875,1.625,0.3125
698,1697633885,-0.2434082,-0.95269775,0.31292725,1.703125,1.421875,0.640625
699,1697633925,-0.2434082,-0.94073486,0.31048584,1.4375,-2.0,0.71875
700,1697633965,-0.23461914,-0.9468384,0.31048584,2.234375,-0.9375,1.828125
701,1697634005,-0.23999023,-0.94976807,0.30169678,1.21875,-0.21875,1.34375
702,1697634045,-0.24926758,-0.9534302,0.30462646,2.671875,-1.0,1.109375
703,1697634085,-0.24389648,-0.9619751,0.30926514,2.78125,-1.75,1.484375
704,1697634125,-0.24291992,-0.9529419,0.28167725,0.03125,-1.296875,0.71875
705,1697634165,-0.24291992,-0.9631958,0.30511475,1.4375,0.0,0.890625
706,1697634205,-0.24291992,-0.9524536,0.28851318,0.296875,1.421875,0.53125
707,1697634245,-0.23242188,-0.9429321,0.28875732,2.25,1.078125,0.703125
708,1697634285,-0.24438477,-0.960022,0.30560303,2.53125,0.671875,1.765625
709,1697634325,-0.23706055,-0.93878174,0.30169678,2.109375,0.046875,0.65625
710,1697634365,-0.23999023,-0.95635986,0.2868042,1.015625,0.0,0.609375
711,1697634405,-0.2434082,-0.94537354,0.28460693,1.140625,0.359375,0.5
712,1697634445,-0.25268555,-0.9607544,0.29315186,1.453125,1.25,1.171875
713,1697634485,-0.24169922,-0.9507446,0.28485107,-1.328125,1.0,0.28125
714,1697634525,-0.24682617,-0.9524536,0.29974365,0.46875,0.8125,0.640625
715,1697634565,-0.23999023,-0.96759033,0.2904663,-0.609375,0.375,0.328125
716,1697634605,-0.2331543,-0.9524536,0.2850952,-0.03125,0.3125,0.453125
717,1697634645,-0.24023438,-0.9524536,0.28875732,1.609375,0.0625,0.8125
718,1697634685,-0.23706055,-0.95562744,0.29412842,1.453125,-0.765625,1.28125
719,1697634725,-0.23535156,-0.96173096,0.29119873,1.921875,-0.65625,1.0
720,1697634765,-0.23730469,-0.9529419,0.27996826,2.1875,0.546875,0.8125
721,1697634805,-0.23535156,-0.9578247,0.28900146,2.84375,0.5,1.203125
722,1697634845,-0.23901367,-0.95684814,0.28485107,1.171875,-1.078125,1.40625
723,1697634885,-0.24291992,-0.9522095,0.27020264,-0.265625,0.34375,1.015625
724,1697634925,-0.24560547,-0.9624634,0.28656006,1.328125,-0.046875,1.21875
725,1697634965,-0.23486328,-0.9627075,0.2723999,-0.328125,0.953125,0.453125
726,1697635005,-0.24633789,-0.9390259,0.30145264,0.828125,0.5625,0.171875
727,1697635045,-0.24658203,-0.9639282,0.2765503,-0.71875,0.78125,0.5
728,1697635085,-0.24707031,-0.95391846,0.27679443,-1.609375,1.53125,-0.140625
729,1697635125,-0.23657227,-0.9573364,0.2838745,0.15625,1.4375,-0.015625
730,1697635165,-0.24658203,-0.9546509,0.27459717,-0.75,2.046875,-0.09375
731,1697635205,-0.23388672,-0.9507446,0.28070068,1.25,2.515625,0.46875
732,1697635245,-0.22583008,-0.95758057,0.29974365,1.03125,1.0,0.890625
733,1697635285,-0.22583008,-0.96954346,0.28411865,-0.328125,1.171875,0.109375
734,1697635325,-0.23217773,-0.9585571,0.30389404,1.78125,4.765625,-0.4375
735,1697635365,-0.25439453,-0.9776001,0.32659912,2.125,3.34375,1.859375
736,1697635405,-0.24145508,-0.95318604,0.2904663,-6.734375,1.578125,0.921875
737,1697635445,-0.25585938,-0.9417114,0.31195068,-5.171875,1.046875,0.171875
738,1697635485,-0.23706055,-0.95635986,0.3151245,-3.5,2.765625,0.390625
739,1697635525,-0.21679688,-0.9500122,0.28948975,-0.28125,6.40625,1.28125
740,1697635565,-0.23095703,-0.9639282,0.32440186,3.578125,10.203125,1.546875
741,1697635605,-0.23461914,-0.9573364,0.3241577,3.78125,8.1875,2.4375
742,1697635645,-0.23657227,-0.92755127,0.30950928,2.15625,1.09375,2.828125
743,1697635685,-0.23779297,-0.9151001,0.28851318,6.265625,-5.296875,2.03125
744,1697635725,-0.22753906,-0.9546509,0.26116943,6.5625,-8.03125,2.109375
745,1697635765,-0.2512207,-0.9163208,0.28997803,9.765625,-15.15625,3.453125
746,1697635805,-0.2602539,-0.97857666,0.28338623,4.0625,-20.359375,4.296875
747,1697635845,-0.20776367,-0.99591064,0.2670288,-0.046875,-8.921875,1.125
748,1697635885,-0.21313477,-0.9624634,0.25457764,-0.0625,-1.328125,2.859375
749,1697635925,-0.23999023,-0.96661377,0.2662964,1.953125,-3.484375,1.4375
750,1697635965,-0.22265625,-0.9631958,0.26116943,-0.75,-3.3125,1.453125
751,1697636005,-0.23925781,-0.9561157,0.25482178,0.171875,-2.40625,1.328125
752,1697636045,-0.22290039,-0.9776001,0.26385498,-1.25,-1.765625,0.875
753,1697636085,-0.21289062,-0.96954346,0.26190186,-3.9375,-1.125,0.765625
754,1697636125,-0.22802734,-0.9656372,0.2633667,-2.375,0.046875,0.734375
755,1697636165,-0.2319336,-0.9649048,0.26922607,-1.3125,2.3125,0.375
756,1697636205,-0.22753906,-0.9636841,0.27459717,0.15625,2.140625,0.921875
757,1697636245,-0.22241211,-0.95806885,0.27996826,-0.796875,0.09375,0.53125
758,1697636285,-0.23071289,-0.9631958,0.2658081,0.40625,-2.6875,0.5625
759,1697636325,-0.23022461,-0.94732666,0.27313232,1.328125,-2.203125,0.34375
