,timestamp,accel_x,accel_y,accel_z,gyro_x,gyro_y,gyro_z,ind
0,1695486971425,-0.08081055,-0.99053955,-0.04498291,-1.203125,0.609375,-0.53125,0
1,1695486971465,-0.068603516,-1.0025024,-0.049621582,-0.609375,0.875,-0.078125,1
2,1695486971505,-0.06958008,-1.0003052,-0.053771973,-0.15625,-0.640625,-0.421875,2
3,1695486971545,-0.07885742,-1.0025024,-0.045959473,-0.703125,-0.171875,-0.203125,3
4,1695486971585,-0.08178711,-1.0029907,-0.03692627,-0.296875,0.03125,0.078125,4
5,1695486971625,-0.091308594,-1.0054321,-0.03643799,-0.4375,-0.90625,-0.25,5
6,1695486971665,-0.072753906,-0.9951782,-0.03302002,-0.484375,0.375,-0.0625,6
7,1695486971705,-0.08227539,-0.9985962,-0.03302002,-0.65625,0.046875,0.125,7
8,1695486971745,-0.0703125,-1.0037231,-0.038146973,-1.25,-0.9375,0.25,8
9,1695486971785,-0.08105469,-0.9981079,-0.030334473,-0.171875,-0.03125,0.0,9
10,1695486971825,-0.072509766,-1.0005493,-0.028137207,-0.28125,0.359375,0.09375,10
11,1695486971865,-0.079833984,-1.0015259,-0.022033691,-1.265625,0.171875,-0.265625,11
12,1695486971905,-0.07543945,-1.0039673,-0.03302002,0.265625,-0.734375,0.15625,12
13,1695486971945,-0.080322266,-1.0020142,-0.028381348,0.140625,0.34375,-0.125,13
14,1695486971985,-0.07788086,-1.0054321,-0.02520752,0.21875,-0.015625,-0.21875,14
15,1695486972025,-0.0793457,-0.99835205,-0.028381348,-0.0625,-0.34375,-0.34375,15
16,1695486972065,-0.080566406,-1.0056763,-0.027648926,0.71875,0.078125,-0.15625,16
17,1695486972105,-0.072509766,-1.0066528,-0.015930176,0.390625,-0.875,0.09375,17
18,1695486972145,-0.088378906,-1.0059204,-0.027404785,0.4375,-1.359375,0.390625,18
19,1695486972185,-0.07495117,-1.0027466,-0.04547119,0.03125,0.21875,-0.484375,19
20,1695486972225,-0.07910156,-0.99884033,-0.026672363,0.375,-0.03125,-0.0625,20
21,1695486972265,-0.084472656,-1.0029907,-0.023986816,0.65625,-0.234375,-0.015625,21
22,1695486972305,-0.0715332,-0.9993286,-0.020568848,0.765625,-0.375,-0.328125,22
23,1695486972345,-0.08569336,-1.0025024,-0.024963379,0.71875,-0.75,-0.171875,23
24,1695486972385,-0.080322266,-1.0059204,-0.022033691,0.546875,-0.375,0.078125,24
25,1695486972425,-0.0793457,-0.9990845,-0.024963379,0.53125,-0.375,0.265625,25
26,1695486972465,-0.076660156,-0.99835205,-0.030578613,-0.25,-1.15625,0.3125,26
27,1695486972505,-0.07788086,-1.0054321,-0.01739502,1.484375,-0.9375,0.09375,27
28,1695486972545,-0.080566406,-1.0005493,-0.028137207,0.03125,-0.21875,0.0,28
29,1695486972585,-0.08154297,-1.0056763,-0.0256958,0.359375,-0.21875,-0.09375,29
30,1695486972625,-0.07519531,-1.0042114,-0.019104004,0.578125,-0.75,0.109375,30
31,1695486972665,-0.08105469,-0.9993286,-0.023498535,0.5,-0.53125,0.078125,31
32,1695486972705,-0.07910156,-1.0054321,-0.023010254,0.234375,-0.609375,0.21875,32
33,1695486972745,-0.07885742,-1.0027466,-0.020080566,0.453125,-0.671875,0.109375,33
34,1695486972785,-0.08325195,-0.99664307,-0.022766113,1.015625,-0.8125,0.0625,34
35,1695486972825,-0.076416016,-1.0071411,-0.024230957,0.8125,-1.046875,0.046875,35
36,1695486972865,-0.0715332,-0.9968872,-0.020324707,0.78125,-0.265625,0.140625,36
37,1695486972905,-0.083740234,-1.013977,-0.023010254,0.453125,-0.34375,0.234375,37
38,1695486972945,-0.07519531,-0.9937134,-0.018859863,0.515625,-0.59375,0.03125,38
39,1695486972985,-0.08203125,-1.0056763,-0.031555176,1.265625,-0.375,0.203125,39
40,1695486973025,-0.06982422,-1.0078735,-0.026916504,0.421875,-0.625,-0.0625,40
41,1695486973065,-0.08984375,-1.0044556,-0.025939941,-0.09375,-0.640625,0.078125,41
42,1695486973105,-0.06738281,-1.0056763,-0.019104004,0.765625,-0.1875,0.4375,42
43,1695486973145,-0.075927734,-1.0125122,-0.031066895,0.75,-0.78125,0.046875,43
44,1695486973185,-0.07128906,-1.0056763,-0.02178955,0.640625,-0.84375,0.140625,44
45,1695486973225,-0.07421875,-0.99713135,-0.024475098,1.328125,-0.375,-0.015625,45
46,1695486973265,-0.068359375,-1.0046997,-0.03692627,0.890625,-0.984375,0.140625,46
47,1695486973305,-0.07714844,-1.0044556,-0.03277588,0.234375,-0.140625,-0.09375,47
48,1695486973345,-0.07348633,-1.0176392,-0.0178833,0.171875,-0.046875,0.03125,48
49,1695486973385,-0.076416016,-0.9990845,-0.032043457,0.15625,-0.6875,-0.234375,49
50,1695486973425,-0.075683594,-1.0044556,-0.019592285,0.59375,-0.296875,0.0625,50
51,1695486973465,-0.07739258,-1.0132446,-0.02935791,0.46875,-0.359375,0.09375,51
52,1695486973505,-0.072509766,-0.99664307,-0.034240723,0.3125,-0.515625,-0.09375,52
53,1695486973545,-0.080566406,-0.9956665,-0.023254395,0.625,-0.03125,0.109375,53
54,1695486973585,-0.078125,-1.0098267,-0.03302002,0.203125,-0.34375,-0.046875,54
55,1695486973625,-0.064453125,-1.000061,-0.023986816,1.296875,-0.484375,0.09375,55
56,1695486973665,-0.07348633,-1.0025024,-0.022277832,0.484375,-0.34375,0.203125,56
57,1695486973705,-0.079589844,-1.0022583,-0.023498535,0.71875,-0.703125,0.09375,57
58,1695486973745,-0.07348633,-0.9944458,-0.026916504,0.71875,-0.53125,0.15625,58
59,1695486973785,-0.0769043,-1.0088501,-0.028381348,1.015625,-0.75,-0.046875,59
60,1695486973825,-0.06762695,-1.0020142,-0.03277588,1.109375,-0.609375,-0.015625,60
61,1695486973865,-0.07739258,-0.9993286,-0.027648926,0.765625,-0.484375,0.0625,61
62,1695486973905,-0.076171875,-0.9968872,-0.034240723,0.359375,-0.296875,-0.078125,62
63,1695486973945,-0.083496094,-0.9998169,-0.031066895,0.59375,-0.46875,0.078125,63
64,1695486973985,-0.0769043,-0.9976196,-0.023010254,0.734375,-0.625,-0.140625,64
65,1695486974025,-0.06762695,-0.99957275,-0.031799316,0.4375,-0.375,0.03125,65
66,1695486974065,-0.07519531,-1.0064087,-0.02960205,0.484375,-0.203125,-0.09375,66
67,1695486974105,-0.080078125,-1.0073853,-0.018859863,1.234375,-0.28125,0.03125,67
68,1695486974145,-0.07128906,-0.99713135,-0.028869629,0.296875,0.046875,-0.203125,68
69,1695486974185,-0.080078125,-1.0071411,-0.028869629,0.15625,0.375,-0.03125,69
70,1695486974225,-0.068847656,-0.9998169,-0.031555176,-0.125,0.71875,-0.375,70
71,1695486974265,-0.07446289,-1.003479,-0.027160645,-0.484375,1.359375,-0.296875,71
72,1695486974305,-0.080322266,-1.015686,-0.016418457,-0.265625,1.859375,-0.171875,72
73,1695486974345,-0.084228516,-1.0044556,-0.02130127,-2.0,1.453125,-1.0625,73
74,1695486974385,-0.08911133,-1.008606,-0.020080566,-1.1875,1.53125,-0.46875,74
75,1695486974425,-0.068603516,-0.99420166,-0.02520752,0.125,1.3125,-0.28125,75
76,1695486974465,-0.08935547,-1.0120239,-0.0076293945,0.5,1.390625,-0.078125,76
77,1695486974505,-0.07910156,-0.99176025,-0.023498535,1.640625,0.78125,-0.203125,77
78,1695486974545,-0.07543945,-1.000061,-0.020324707,0.59375,0.0625,-0.234375,78
79,1695486974585,-0.084472656,-1.0115356,-0.027404785,-0.671875,1.125,-0.09375,79
80,1695486974625,-0.08691406,-0.9951782,-0.017150879,-1.390625,0.875,-0.234375,80
81,1695486974665,-0.076416016,-1.0076294,-0.023254395,0.59375,-0.453125,0.09375,81
82,1695486974705,-0.083740234,-1.0046997,-0.031066895,2.25,-0.90625,0.03125,82
83,1695486974745,-0.083984375,-0.99664307,-0.007385254,1.84375,-0.265625,0.015625,83
84,1695486974785,-0.07299805,-0.9993286,-0.019836426,1.375,-1.3125,-0.234375,84
85,1695486974825,-0.09033203,-1.0022583,-0.020080566,1.6875,-0.828125,0.171875,85
86,1695486974865,-0.07788086,-0.99957275,-0.02520752,2.484375,-1.59375,0.03125,86
87,1695486974905,-0.08886719,-0.99786377,-0.023498535,2.109375,-1.859375,0.1875,87
88,1695486974945,-0.080078125,-1.008606,-0.024963379,2.34375,-1.515625,0.0,88
89,1695486974985,-0.08227539,-1.0032349,-0.030822754,1.546875,-1.3125,-0.09375,89
90,1695486975025,-0.087890625,-1.0083618,-0.039123535,1.875,-1.515625,0.203125,90
91,1695486975065,-0.075927734,-1.0039673,-0.033996582,2.25,-1.5,-0.03125,91
92,1695486975105,-0.08886719,-1.0025024,-0.03692627,1.65625,-1.1875,0.328125,92
93,1695486975145,-0.08081055,-1.0147095,-0.030578613,1.71875,-1.140625,0.171875,93
94,1695486975185,-0.07885742,-0.9961548,-0.030334473,1.828125,-1.78125,0.078125,94
95,1695486975225,-0.08276367,-0.9990845,-0.044006348,0.921875,-1.6875,0.359375,95
96,1695486975265,-0.07739258,-1.0005493,-0.047912598,0.421875,-1.40625,0.21875,96
97,1695486975305,-0.07910156,-1.0022583,-0.047912598,0.203125,-1.5625,0.203125,97
98,1695486975345,-0.08251953,-1.0054321,-0.039855957,-0.1875,-0.21875,0.140625,98
99,1695486975385,-0.07861328,-1.0012817,-0.03253174,0.75,-1.171875,0.265625,99
100,1695486975425,-0.095458984,-0.99542236,-0.03765869,-0.796875,-1.203125,0.203125,100
101,1695486975465,-0.064941406,-1.0122681,-0.04034424,0.015625,-0.453125,-0.484375,101
102,1695486975505,-0.07763672,-0.9963989,-0.030822754,-0.546875,0.234375,0.140625,102
103,1695486975545,-0.087890625,-1.0137329,-0.0335083,-0.546875,-0.484375,0.125,103
104,1695486975585,-0.07519531,-0.9990845,-0.033996582,-0.90625,-0.21875,-0.5,104
105,1695486975625,-0.080566406,-0.9976196,-0.02935791,-1.390625,-0.34375,-0.3125,105
106,1695486975665,-0.07470703,-0.99713135,-0.03717041,-2.046875,-1.546875,-0.3125,106
107,1695486975705,-0.08520508,-1.003479,-0.011779785,-0.640625,-0.046875,0.234375,107
108,1695486975745,-0.08251953,-1.0095825,-0.013000488,0.359375,-1.0625,0.5,108
109,1695486975785,-0.084228516,-1.0027466,-0.014709473,-1.21875,-0.46875,-0.234375,109
110,1695486975825,-0.075927734,-0.99713135,-0.02154541,-0.390625,0.015625,0.0625,110
111,1695486975865,-0.084228516,-1.008606,-0.024963379,0.328125,-0.921875,-0.109375,111
112,1695486975905,-0.071777344,-0.9949341,-0.01763916,0.25,-0.484375,-0.09375,112
113,1695486975945,-0.08203125,-1.0073853,-0.01763916,0.3125,0.015625,0.265625,113
114,1695486975985,-0.07788086,-1.0007935,-0.019836426,0.125,-1.328125,0.1875,114
115,1695486976025,-0.08178711,-0.9924927,-0.0068969727,-0.21875,-1.046875,0.375,115
116,1695486976065,-0.08544922,-1.0044556,-0.014709473,-0.234375,-0.734375,0.40625,116
117,1695486976105,-0.064941406,-1.0115356,-0.026916504,-0.296875,-1.6875,0.03125,117
118,1695486976145,-0.08154297,-0.987854,-0.010070801,-0.34375,0.1875,-0.046875,118
119,1695486976185,-0.08618164,-1.019104,-0.015197754,0.609375,-1.203125,0.03125,119
120,1695486976225,-0.07885742,-0.99957275,-0.013000488,-0.34375,0.21875,-0.21875,120
121,1695486976265,-0.08520508,-1.0110474,-0.0029907227,0.46875,-0.46875,0.578125,121
122,1695486976305,-0.068115234,-0.9961548,-0.012512207,0.4375,-0.890625,-0.09375,122
123,1695486976345,-0.07714844,-1.008606,-0.010070801,0.640625,-0.390625,0.421875,123
124,1695486976385,-0.07324219,-1.0046997,-0.0095825195,0.5,-0.984375,0.171875,124
125,1695486976425,-0.0715332,-1.0054321,-0.01373291,0.96875,-0.53125,0.171875,125
126,1695486976465,-0.07397461,-1.0039673,-0.008850098,1.1875,-0.734375,0.1875,126
127,1695486976505,-0.08227539,-1.0071411,-0.008850098,0.09375,-0.71875,0.015625,127
128,1695486976545,-0.07421875,-1.0056763,-0.022521973,1.453125,-0.515625,0.03125,128
129,1695486976585,-0.07788086,-1.0005493,-0.010070801,0.453125,-0.671875,0.125,129
130,1695486976625,-0.080322266,-1.0054321,-0.0056762695,0.90625,-1.0625,0.15625,130
131,1695486976665,-0.07495117,-1.008606,-0.014221191,0.703125,-0.65625,0.015625,131
132,1695486976705,-0.075683594,-1.0151978,-0.011291504,0.578125,-0.234375,-0.203125,132
133,1695486976745,-0.07519531,-0.9990845,-0.00982666,1.09375,-1.171875,0.15625,133
134,1695486976785,-0.07006836,-1.0110474,-0.018615723,0.03125,-0.671875,0.3125,134
135,1695486976825,-0.07739258,-1.0081177,-0.024475098,0.671875,-1.0,0.03125,135
136,1695486976865,-0.08251953,-0.9990845,-0.004699707,0.359375,-0.5,-0.109375,136
137,1695486976905,-0.07373047,-1.0110474,-0.0134887695,-0.09375,-0.6875,-0.015625,137
138,1695486976945,-0.084228516,-1.0073853,-0.013977051,-0.3125,-0.125,-0.015625,138
139,1695486976985,-0.072509766,-1.0064087,-0.0044555664,0.65625,-0.203125,-0.109375,139
140,1695486977025,-0.072021484,-0.99346924,-0.013000488,0.0,-0.34375,0.0625,140
141,1695486977065,-0.07543945,-1.0142212,-0.016662598,0.0,-0.640625,0.0625,141
142,1695486977105,-0.07421875,-0.99591064,-0.020080566,0.21875,-0.921875,0.109375,142
143,1695486977145,-0.0769043,-1.0003052,-0.010803223,0.421875,0.046875,0.0,143
144,1695486977185,-0.07763672,-1.0083618,-0.0049438477,0.765625,-0.796875,-0.0625,144
145,1695486977225,-0.08227539,-0.9973755,0.0026245117,0.4375,-0.5,0.21875,145
146,1695486977265,-0.07397461,-1.0232544,-0.014953613,0.71875,-0.765625,0.046875,146
147,1695486977305,-0.07788086,-0.989563,-0.016174316,0.28125,-0.671875,-0.09375,147
148,1695486977345,-0.08520508,-1.0093384,-0.008361816,0.578125,-0.453125,0.046875,148
149,1695486977385,-0.06958008,-1.0032349,-0.016662598,0.5625,-0.453125,0.0,149
150,1695486977425,-0.07421875,-1.0061646,-0.010559082,0.34375,-0.484375,0.125,150
151,1695486977465,-0.076171875,-1.0093384,-0.009338379,0.703125,-0.59375,0.140625,151
152,1695486977505,-0.07055664,-0.99786377,-0.0115356445,0.3125,-0.8125,-0.046875,152
153,1695486977545,-0.07348633,-1.0098267,-0.015930176,0.640625,-0.40625,0.03125,153
154,1695486977585,-0.072265625,-1.000061,-0.013000488,0.765625,-0.9375,0.140625,154
155,1695486977625,-0.084228516,-0.9973755,-0.0010375977,1.6875,-0.640625,-0.015625,155
156,1695486977665,-0.07324219,-1.0032349,-0.020568848,0.734375,-0.4375,0.34375,156
157,1695486977705,-0.0703125,-1.0059204,-0.014709473,-0.421875,-0.171875,-0.265625,157
158,1695486977745,-0.078125,-1.0064087,-0.010070801,0.484375,0.015625,-0.015625,158
159,1695486977785,-0.075927734,-0.9963989,-0.015686035,-0.140625,-0.53125,-0.25,159
160,1695486977825,-0.07739258,-1.0071411,-0.008361816,0.484375,-0.609375,0.046875,160
161,1695486977865,-0.07788086,-1.003479,-0.006164551,-0.078125,-0.296875,-0.078125,161
162,1695486977905,-0.06274414,-1.0130005,-0.008361816,0.875,-0.703125,-0.25,162
163,1695486977945,-0.076416016,-0.9981079,-0.0049438477,0.4375,-0.53125,-0.078125,163
164,1695486977985,-0.07397461,-1.0093384,-0.0068969727,0.59375,-0.734375,-0.109375,164
165,1695486978025,-0.083496094,-0.9973755,-0.012023926,0.640625,-0.375,-0.171875,165
166,1695486978065,-0.080566406,-1.0076294,-0.008117676,0.640625,-0.953125,-0.046875,166
167,1695486978105,-0.078125,-0.9951782,-0.0025024414,0.375,-0.546875,0.125,167
168,1695486978145,-0.07080078,-1.0061646,-0.017150879,0.40625,-0.6875,0.03125,168
169,1695486978185,-0.07397461,-0.98809814,-0.0178833,0.40625,-1.0625,0.15625,169
170,1695486978225,-0.09326172,-1.0144653,-0.0056762695,0.65625,-0.046875,0.46875,170
171,1695486978265,-0.08129883,-1.0117798,-0.0051879883,1.25,-0.671875,0.203125,171
172,1695486978305,-0.068847656,-0.9963989,-0.01763916,0.453125,-0.4375,-0.078125,172
173,1695486978345,-0.076660156,-1.0142212,-0.013000488,0.328125,-0.578125,0.1875,173
174,1695486978385,-0.06347656,-1.0025024,-0.01373291,1.453125,-0.828125,0.078125,174
175,1695486978425,-0.072509766,-1.0010376,-0.021057129,0.09375,-0.34375,0.078125,175
176,1695486978465,-0.07714844,-1.0066528,-0.005432129,-0.1875,0.046875,-0.265625,176
177,1695486978505,-0.08691406,-1.0037231,-0.0020141602,0.78125,-0.015625,0.078125,177
178,1695486978545,-0.068359375,-1.0144653,-0.0178833,-0.015625,-0.890625,-0.46875,178
179,1695486978585,-0.0637207,-0.98638916,-0.012023926,-0.03125,-0.25,-0.0625,179
180,1695486978625,-0.07861328,-1.0147095,-0.007873535,0.609375,-0.609375,0.140625,180
181,1695486978665,-0.068847656,-1.0005493,-0.00030517578,0.828125,-0.734375,-0.25,181
182,1695486978705,-0.075683594,-1.006897,-0.004211426,-0.046875,-0.359375,-0.109375,182
183,1695486978745,-0.068603516,-1.005188,-0.007385254,0.203125,-0.59375,-0.03125,183
184,1695486978785,-0.072021484,-1.0125122,-0.00982666,0.125,-0.328125,0.078125,184
185,1695486978825,-0.07910156,-1.0039673,0.0065307617,1.15625,-0.3125,0.265625,185
186,1695486978865,-0.07910156,-1.0100708,-0.008361816,1.3125,-1.203125,0.03125,186
187,1695486978905,-0.07055664,-0.99664307,-0.0068969727,0.421875,-0.828125,0.171875,187
188,1695486978945,-0.07739258,-1.0127563,-0.0025024414,0.65625,-0.59375,0.140625,188
189,1695486978985,-0.06567383,-1.00177,-0.013977051,0.6875,-0.78125,0.0,189
190,1695486979025,-0.08569336,-1.0081177,-0.0076293945,0.625,-0.328125,0.03125,190
191,1695486979065,-0.080322266,-1.0042114,-0.0025024414,1.296875,-0.34375,0.46875,191
192,1695486979105,-0.06542969,-1.0115356,-0.011779785,0.4375,-0.90625,-0.1875,192
193,1695486979145,-0.06591797,-0.99835205,-0.02154541,-0.671875,-0.546875,-0.078125,193
194,1695486979185,-0.08129883,-1.0064087,-0.0010375977,-0.546875,-0.296875,-0.109375,194
195,1695486979225,-0.059814453,-1.0056763,-0.007385254,0.765625,-0.734375,0.078125,195
196,1695486979265,-0.08154297,-1.0012817,-0.0012817383,-0.09375,-0.03125,0.109375,196
197,1695486979305,-0.07446289,-1.0117798,-0.0095825195,0.25,-0.5625,0.046875,197
198,1695486979345,-0.07543945,-0.99713135,-0.0015258789,0.734375,-0.265625,0.265625,198
199,1695486979385,-0.07397461,-1.0149536,-0.005432129,1.125,-0.46875,0.03125,199
200,1695486979425,-0.064697266,-0.98883057,-0.0068969727,0.8125,-0.640625,-0.125,200
201,1695486979465,-0.084228516,-1.0144653,-6.1035156e-05,0.8125,-0.515625,0.03125,201
202,1695486979505,-0.064208984,-1.000061,-0.010070801,0.71875,-0.359375,0.015625,202
203,1695486979545,-0.07543945,-1.0073853,0.001159668,0.546875,-0.375,-0.0625,203
204,1695486979585,-0.08081055,-1.0032349,-0.0095825195,0.3125,-0.484375,-0.046875,204
205,1695486979625,-0.07763672,-0.9951782,-0.010070801,0.359375,-0.34375,-0.078125,205
206,1695486979665,-0.07495117,-1.0164185,-0.009338379,-0.21875,-0.734375,-0.203125,206
207,1695486979705,-0.07324219,-0.9998169,-0.0134887695,-0.859375,-0.5625,-0.4375,207
208,1695486979745,-0.080322266,-0.99542236,0.008728027,1.0625,-0.40625,0.140625,208
209,1695486979785,-0.07763672,-0.9973755,0.0045776367,1.609375,-0.78125,0.375,209
210,1695486979825,-0.06323242,-0.98394775,-0.011291504,0.96875,-1.453125,0.328125,210
211,1695486979865,-0.08935547,-1.0161743,0.014831543,2.1875,0.171875,0.671875,211
212,1695486979905,-0.056396484,-1.017395,-0.028625488,-0.203125,-1.015625,-0.296875,212
213,1695486979945,-0.076416016,-0.9990845,-0.004699707,0.40625,0.484375,-0.265625,213
214,1695486979985,-0.072753906,-0.9949341,-0.0056762695,0.703125,-0.3125,-0.046875,214
215,1695486980025,-0.068115234,-1.0025024,-0.010803223,0.59375,-0.28125,-0.078125,215
216,1695486980065,-0.07714844,-1.0076294,0.0004272461,0.484375,0.34375,-0.078125,216
217,1695486980105,-0.08105469,-1.0037231,-0.006164551,-0.59375,0.40625,-0.359375,217
218,1695486980145,-0.07495117,-0.9993286,-0.00982666,1.15625,-0.78125,0.203125,218
219,1695486980185,-0.075683594,-0.9961548,-0.005432129,0.8125,-1.0625,0.078125,219
220,1695486980225,-0.07324219,-1.0117798,-0.006164551,1.15625,-0.71875,0.203125,220
221,1695486980265,-0.07885742,-1.0105591,-0.0037231445,0.84375,-1.390625,0.328125,221
222,1695486980305,-0.06933594,-0.99884033,-0.010070801,0.96875,-1.15625,0.25,222
223,1695486980345,-0.07910156,-1.010315,-0.003967285,1.625,-0.828125,0.46875,223
224,1695486980385,-0.067871094,-0.9998169,-0.012023926,1.1875,-0.90625,0.296875,224
225,1695486980425,-0.07763672,-1.0137329,-0.013244629,1.359375,-0.6875,0.4375,225
226,1695486980465,-0.068359375,-1.0007935,-0.019592285,1.0,-0.59375,-0.125,226
227,1695486980505,-0.07104492,-1.0064087,-0.0178833,1.921875,-0.875,0.296875,227
228,1695486980545,-0.07080078,-0.9998169,-0.019104004,1.046875,-1.28125,0.0625,228
229,1695486980585,-0.0690918,-1.0061646,-0.020568848,1.921875,-1.03125,0.359375,229
230,1695486980625,-0.06933594,-1.0049438,-0.0154418945,0.171875,-0.421875,-0.140625,230
231,1695486980665,-0.0637207,-1.0081177,-0.019348145,0.28125,-0.34375,-0.296875,231
232,1695486980705,-0.072265625,-0.99542236,-0.016906738,0.875,-0.578125,0.015625,232
233,1695486980745,-0.072753906,-1.0076294,-0.017150879,0.578125,-0.71875,-0.15625,233
234,1695486980785,-0.068603516,-0.9990845,-0.016662598,0.328125,-0.609375,-0.03125,234
235,1695486980825,-0.07373047,-1.008606,-0.012512207,-0.671875,0.296875,-0.171875,235
236,1695486980865,-0.07348633,-1.0120239,-0.013000488,0.359375,-0.625,0.03125,236
237,1695486980905,-0.08227539,-0.99053955,-0.00592041,-0.671875,0.25,-0.234375,237
238,1695486980945,-0.07446289,-1.0227661,-0.010314941,0.21875,-0.328125,-0.234375,238
239,1695486980985,-0.068847656,-0.98883057,-0.014221191,-0.390625,-0.734375,-0.203125,239
240,1695486981025,-0.07446289,-1.0108032,-0.007873535,0.453125,-0.578125,0.03125,240
241,1695486981065,-0.06738281,-1.0027466,-0.0178833,0.53125,-0.59375,-0.3125,241
242,1695486981105,-0.076660156,-1.0012817,0.0036010742,1.328125,-0.84375,0.5,242
243,1695486981145,-0.084472656,-1.0032349,-0.0012817383,0.984375,-0.3125,0.28125,243
244,1695486981185,-0.059326172,-1.0169067,-0.024230957,0.765625,-0.6875,0.046875,244
245,1695486981225,-0.07128906,-0.99298096,-0.011291504,0.53125,-0.578125,-0.03125,245
246,1695486981265,-0.06274414,-1.010315,-0.014709473,0.984375,-0.734375,0.15625,246
247,1695486981305,-0.068603516,-1.0078735,-0.016418457,-0.09375,-0.46875,-0.125,247
248,1695486981345,-0.07885742,-1.0127563,-0.0029907227,0.359375,0.09375,-0.171875,248
249,1695486981385,-0.07006836,-0.9932251,-0.007385254,-0.140625,-0.3125,-0.0625,249
250,1695486981425,-0.07006836,-1.0027466,-0.011779785,0.375,-0.515625,-0.015625,250
251,1695486981465,-0.07763672,-1.0098267,-0.011291504,0.640625,-0.21875,0.109375,251
252,1695486981505,-0.0769043,-1.0022583,-0.012268066,0.21875,-0.453125,-0.109375,252
253,1695486981545,-0.07006836,-1.0061646,-0.008117676,-0.078125,-0.1875,-0.109375,253
254,1695486981585,-0.072509766,-1.0046997,-0.015686035,0.21875,-0.21875,-0.234375,254
255,1695486981625,-0.06567383,-1.003479,-0.012512207,0.5625,-0.625,-0.3125,255
256,1695486981665,-0.0690918,-1.0115356,-0.0025024414,0.234375,-0.4375,-0.078125,256
257,1695486981705,-0.07421875,-0.99957275,0.001159668,0.46875,-0.46875,-0.03125,257
258,1695486981745,-0.08300781,-1.0020142,0.0018920898,1.015625,0.09375,0.171875,258
259,1695486981785,-0.07006836,-1.0054321,-0.0071411133,0.75,-0.21875,-0.125,259
260,1695486981825,-0.07104492,-0.99884033,-0.012512207,0.453125,0.0,-0.28125,260
261,1695486981865,-0.075927734,-1.0081177,-0.011291504,0.140625,-1.03125,-0.171875,261
262,1695486981905,-0.067871094,-1.0022583,-0.012268066,1.453125,-0.75,0.0,262
263,1695486981945,-0.07763672,-1.0061646,-0.007385254,-0.484375,-0.578125,-0.125,263
264,1695486981985,-0.078125,-1.0042114,-0.005432129,-0.34375,-0.265625,-0.546875,264
265,1695486982025,-0.079589844,-1.0005493,0.0060424805,0.65625,-0.03125,-0.09375,265
266,1695486982065,-0.0690918,-1.0071411,-0.015197754,-0.328125,-0.734375,-0.421875,266
267,1695486982105,-0.0793457,-0.99591064,-0.0049438477,0.578125,-0.4375,0.046875,267
268,1695486982145,-0.07885742,-1.0093384,-0.0044555664,0.71875,-0.65625,0.109375,268
269,1695486982185,-0.07104492,-1.0015259,-0.013000488,0.453125,-1.078125,0.0625,269
270,1695486982225,-0.0859375,-0.9981079,0.010925293,1.140625,-0.140625,0.453125,270
271,1695486982265,-0.0715332,-1.0105591,-0.00592041,1.421875,-0.578125,0.28125,271
272,1695486982305,-0.061279297,-1.005188,-0.02545166,0.578125,-0.484375,-0.078125,272
273,1695486982345,-0.08081055,-1.0054321,-0.004699707,0.953125,-0.484375,0.078125,273
274,1695486982385,-0.064208984,-0.9981079,-0.01373291,0.75,-0.6875,0.015625,274
275,1695486982425,-0.072021484,-1.0076294,-0.005432129,0.5625,-0.53125,0.109375,275
276,1695486982465,-0.08227539,-1.0049438,-0.0012817383,0.453125,-0.203125,-0.0625,276
277,1695486982505,-0.076660156,-0.99468994,-0.00030517578,0.75,0.265625,0.046875,277
278,1695486982545,-0.07348633,-1.0095825,-0.014953613,0.046875,-1.0625,-0.1875,278
279,1695486982585,-0.0769043,-1.010315,-0.0154418945,0.375,-0.453125,-0.09375,279
280,1695486982625,-0.07446289,-1.0076294,-0.0095825195,-0.171875,-0.15625,-0.125,280
281,1695486982665,-0.08129883,-1.0049438,-0.0029907227,0.4375,-0.046875,0.03125,281
282,1695486982705,-0.075927734,-0.9990845,-0.010070801,0.734375,-0.28125,-0.140625,282
283,1695486982745,-0.08325195,-1.0007935,0.0060424805,0.875,-0.1875,0.265625,283
284,1695486982785,-0.072265625,-1.0015259,-0.0051879883,0.84375,-0.171875,0.21875,284
285,1695486982825,-0.075683594,-1.0039673,-0.018371582,0.671875,-0.453125,-0.109375,285
286,1695486982865,-0.07055664,-1.0012817,-0.005432129,0.875,-0.796875,0.15625,286
287,1695486982905,-0.07080078,-1.0056763,-0.013000488,0.453125,-0.703125,-0.171875,287
288,1695486982945,-0.072509766,-1.0066528,-0.006164551,0.46875,-0.484375,-0.078125,288
289,1695486982985,-0.07788086,-1.000061,-0.0015258789,0.1875,-0.53125,-0.1875,289
290,1695486983025,-0.07324219,-0.9998169,-0.008850098,0.546875,-0.984375,0.125,290
291,1695486983065,-0.084472656,-1.0054321,-0.0017700195,0.765625,-0.328125,-0.015625,291
292,1695486983105,-0.07421875,-1.0095825,-0.019592285,0.234375,-0.96875,-0.296875,292
293,1695486983145,-0.08325195,-0.9985962,-0.002746582,0.34375,-0.265625,-0.125,293
294,1695486983185,-0.08178711,-1.0066528,0.001159668,0.703125,-0.34375,0.046875,294
295,1695486983225,-0.07519531,-1.0029907,-0.010559082,0.453125,-1.03125,-0.015625,295
296,1695486983265,-0.075683594,-1.005188,0.0028686523,1.765625,-0.46875,0.1875,296
297,1695486983305,-0.07104492,-0.9963989,-0.0044555664,0.734375,-0.375,0.28125,297
298,1695486983345,-0.071777344,-1.020813,-0.012268066,0.3125,-0.40625,-0.015625,298
299,1695486983385,-0.072021484,-0.9866333,-0.0037231445,0.484375,0.234375,0.109375,299
300,1695486983425,-0.080566406,-1.0032349,-0.0032348633,0.03125,-0.59375,-0.03125,300
301,1695486983465,-0.06518555,-1.003479,-0.014953613,0.3125,-0.171875,0.109375,301
302,1695486983505,-0.08178711,-1.015686,0.003112793,0.265625,-0.296875,-0.125,302
303,1695486983545,-0.0715332,-1.0025024,-0.003967285,0.9375,-0.59375,-0.0625,303
304,1695486983585,-0.07714844,-1.0049438,-0.002746582,0.265625,-0.359375,-0.078125,304
305,1695486983625,-0.072265625,-1.0088501,-0.011047363,-0.03125,-0.375,-0.078125,305
306,1695486983665,-0.07104492,-0.99713135,-0.007385254,0.4375,-0.484375,-0.21875,306
307,1695486983705,-0.079589844,-1.0032349,-0.0005493164,1.15625,-0.484375,0.46875,307
308,1695486983745,-0.075683594,-0.99591064,0.0006713867,1.125,-0.796875,0.046875,308
309,1695486983785,-0.07861328,-1.0161743,-0.008361816,0.546875,-0.53125,0.0,309
310,1695486983825,-0.07470703,-1.0015259,-0.00030517578,0.78125,-0.625,0.1875,310
311,1695486983865,-0.07324219,-1.0015259,-0.008361816,0.453125,-0.1875,0.21875,311
312,1695486983905,-0.071777344,-1.0081177,-0.014709473,0.734375,-0.171875,0.15625,312
313,1695486983945,-0.076171875,-1.0027466,0.00018310547,0.359375,-0.25,-0.03125,313
314,1695486983985,-0.07519531,-1.0054321,0.00091552734,0.453125,-0.28125,-0.3125,314
315,1695486984025,-0.06689453,-0.9985962,-0.0037231445,0.21875,-0.046875,-0.203125,315
316,1695486984065,-0.07788086,-1.0061646,-0.0032348633,0.703125,-0.328125,-0.078125,316
317,1695486984105,-0.075927734,-0.98687744,0.0048217773,2.28125,0.671875,-0.171875,317
318,1695486984145,-0.08251953,-1.0171509,0.0038452148,2.3125,2.28125,0.640625,318
319,1695486984185,-0.07446289,-0.9998169,-0.023010254,1.359375,0.515625,-0.234375,319
320,1695486984225,-0.092285156,-1.0025024,0.00091552734,1.984375,2.140625,0.09375,320
321,1695486984265,-0.099853516,-1.0093384,-0.023742676,1.640625,2.0,0.1875,321
322,1695486984305,-0.06982422,-0.9961548,-0.014953613,1.96875,0.953125,-0.296875,322
323,1695486984345,-0.08691406,-1.0046997,0.0014038086,1.34375,1.78125,-0.15625,323
324,1695486984385,-0.057128906,-1.0130005,-0.023742676,1.265625,1.25,-0.171875,324
325,1695486984425,-0.06298828,-1.005188,-0.012268066,0.40625,0.078125,-0.265625,325
326,1695486984465,-0.060058594,-1.0078735,-0.025939941,0.109375,-1.421875,0.015625,326
327,1695486984505,-0.061279297,-0.9973755,-0.015197754,-0.46875,-1.8125,-0.265625,327
328,1695486984545,-0.064453125,-1.00177,-0.02154541,0.171875,-3.0,-0.75,328
329,1695486984585,-0.083740234,-0.9873657,0.00018310547,0.640625,-2.9375,-0.6875,329
330,1695486984625,-0.08935547,-1.008606,-0.0076293945,1.71875,-3.28125,-0.140625,330
331,1695486984665,-0.07519531,-1.0059204,0.012390137,1.8125,-1.40625,-0.046875,331
332,1695486984705,-0.08618164,-0.99957275,-0.006652832,3.59375,-2.09375,0.1875,332
333,1695486984745,-0.07373047,-1.0015259,-0.02520752,2.734375,-4.046875,0.484375,333
334,1695486984785,-0.09008789,-0.9837036,-0.011047363,5.75,-3.75,0.46875,334
335,1695486984825,-0.06982422,-1.0032349,-0.032287598,5.40625,-3.734375,0.1875,335
336,1695486984865,-0.05859375,-1.0234985,-0.03668213,7.15625,-4.796875,0.3125,336
337,1695486984905,-0.071777344,-1.0234985,-0.0725708,3.5625,-5.6875,-0.5,337
338,1695486984945,-0.06958008,-0.9949341,-0.069885254,4.234375,-4.109375,-0.546875,338
339,1695486984985,-0.0793457,-0.98321533,-0.07696533,3.765625,-4.625,0.71875,339
340,1695486985025,-0.07714844,-0.9973755,-0.089416504,3.921875,-4.28125,1.03125,340
341,1695486985065,-0.06665039,-0.99591064,-0.09161377,3.15625,-2.765625,0.796875,341
342,1695486985105,-0.07128906,-1.0005493,-0.086242676,2.125,-2.84375,0.796875,342
343,1695486985145,-0.07104492,-1.0059204,-0.09625244,2.328125,-4.0,0.59375,343
344,1695486985185,-0.06933594,-0.9981079,-0.08306885,1.796875,-2.90625,0.140625,344
345,1695486985225,-0.05908203,-0.99468994,-0.082336426,1.921875,-2.515625,0.3125,345
346,1695486985265,-0.064941406,-0.9932251,-0.08843994,2.203125,-1.546875,0.3125,346
347,1695486985305,-0.06762695,-1.0112915,-0.08062744,1.203125,-1.3125,0.34375,347
348,1695486985345,-0.06762695,-1.0061646,-0.08062744,1.703125,-0.84375,0.46875,348
349,1695486985385,-0.06933594,-0.99224854,-0.08892822,0.703125,-0.5625,0.3125,349
350,1695486985425,-0.06689453,-0.98394775,-0.08868408,0.8125,-0.09375,-0.015625,350
351,1695486985465,-0.05810547,-0.9973755,-0.08404541,1.0625,-0.34375,-0.25,351
352,1695486985505,-0.06738281,-0.99713135,-0.08746338,0.921875,0.0,-0.046875,352
353,1695486985545,-0.063964844,-1.0059204,-0.0869751,1.125,-0.546875,0.03125,353
354,1695486985585,-0.06542969,-0.9927368,-0.09234619,0.765625,-0.046875,-0.0625,354
355,1695486985625,-0.0625,-0.9920044,-0.09185791,-0.078125,-0.09375,-0.21875,355
356,1695486985665,-0.06591797,-0.9939575,-0.08477783,0.203125,-0.78125,-0.296875,356
357,1695486985705,-0.06298828,-0.99664307,-0.08648682,0.796875,-0.28125,-0.109375,357
358,1695486985745,-0.072265625,-0.9961548,-0.07989502,0.5625,-0.140625,-0.125,358
359,1695486985785,-0.06298828,-0.9981079,-0.08673096,0.140625,0.28125,-0.09375,359
360,1695486985825,-0.075927734,-1.0027466,-0.08526611,0.125,0.40625,-0.046875,360
361,1695486985865,-0.07006836,-0.99664307,-0.08770752,1.25,-0.265625,-0.015625,361
362,1695486985905,-0.06933594,-0.99176025,-0.10064697,0.296875,-0.03125,-0.5,362
363,1695486985945,-0.068359375,-0.99298096,-0.08917236,1.203125,-0.578125,-0.640625,363
364,1695486985985,-0.060058594,-1.0027466,-0.09307861,-0.203125,-0.84375,-0.5,364
365,1695486986025,-0.076171875,-0.989563,-0.0803833,-0.421875,-1.28125,-0.46875,365
366,1695486986065,-0.07739258,-0.99835205,-0.07989502,0.171875,-0.828125,-0.15625,366
367,1695486986105,-0.06298828,-0.99835205,-0.09161377,-0.765625,-1.390625,-0.34375,367
368,1695486986145,-0.07324219,-0.99346924,-0.074035645,-0.71875,-1.296875,-0.171875,368
369,1695486986185,-0.076171875,-0.9976196,-0.07550049,-0.703125,-0.34375,-0.0625,369
370,1695486986225,-0.06274414,-0.9907837,-0.0791626,0.171875,-1.578125,-0.265625,370
371,1695486986265,-0.072753906,-0.9890747,-0.07208252,0.203125,-0.65625,-0.171875,371
372,1695486986305,-0.071777344,-0.99420166,-0.08453369,1.921875,-0.375,-0.359375,372
373,1695486986345,-0.09008789,-0.9976196,-0.07208252,1.828125,-0.0625,-0.234375,373
374,1695486986385,-0.064453125,-0.99468994,-0.08648682,1.890625,0.734375,-0.5,374
375,1695486986425,-0.06518555,-0.9981079,-0.09039307,1.03125,0.171875,-0.515625,375
376,1695486986465,-0.064208984,-0.9885864,-0.0947876,1.21875,-0.21875,-0.609375,376
377,1695486986505,-0.06591797,-0.9771118,-0.105285645,0.59375,0.109375,-0.84375,377
378,1695486986545,-0.08300781,-1.0044556,-0.09234619,1.375,0.015625,-0.640625,378
379,1695486986585,-0.07104492,-1.0042114,-0.09649658,1.25,-1.390625,-0.578125,379
380,1695486986625,-0.07519531,-0.98443604,-0.081604004,0.515625,-0.296875,-0.703125,380
381,1695486986665,-0.08129883,-1.005188,-0.06817627,0.453125,-0.3125,-0.546875,381
382,1695486986705,-0.084472656,-1.0134888,-0.09063721,0.140625,-0.734375,-0.59375,382
383,1695486986745,-0.08227539,-0.99346924,-0.08795166,1.421875,0.421875,-1.625,383
384,1695486986785,-0.09057617,-0.9807739,-0.07672119,2.46875,1.03125,-0.953125,384
385,1695486986825,-0.07324219,-1.0108032,-0.10333252,1.09375,0.34375,-1.1875,385
386,1695486986865,-0.06665039,-0.9834595,-0.09161377,1.15625,0.484375,-1.078125,386
387,1695486986905,-0.08227539,-0.9780884,-0.0869751,0.265625,0.640625,-1.515625,387
388,1695486986945,-0.08862305,-1.0078735,-0.10675049,0.734375,-1.109375,-1.25,388
389,1695486986985,-0.09716797,-0.99664307,-0.09991455,0.265625,-1.28125,-1.484375,389
390,1695486987025,-0.099609375,-0.9956665,-0.08087158,1.46875,0.046875,-1.28125,390
391,1695486987065,-0.08691406,-0.9829712,-0.08013916,-0.78125,0.53125,-1.578125,391
392,1695486987105,-0.11303711,-0.9949341,-0.061584473,1.125,-0.21875,-0.84375,392
393,1695486987145,-0.10498047,-1.0137329,-0.097961426,-0.21875,0.15625,-0.53125,393
394,1695486987185,-0.09790039,-0.9710083,-0.08843994,0.078125,-0.59375,-0.703125,394
395,1695486987225,-0.11425781,-0.9937134,-0.0869751,1.609375,-0.5,-0.171875,395
396,1695486987265,-0.09716797,-1.0037231,-0.12628174,0.71875,-0.703125,-0.25,396
397,1695486987305,-0.09008789,-0.97979736,-0.101379395,0.125,-0.828125,-0.390625,397
398,1695486987345,-0.10205078,-0.99346924,-0.08746338,0.8125,-0.84375,-0.625,398
399,1695486987385,-0.09301758,-1.00177,-0.08404541,1.234375,-1.4375,-0.546875,399
400,1695486987425,-0.12084961,-0.9841919,-0.08087158,0.359375,0.015625,-0.59375,400
401,1695486987465,-0.10571289,-1.0027466,-0.07232666,0.359375,0.359375,0.4375,401
402,1695486987505,-0.09399414,-0.9951782,-0.09088135,0.078125,0.375,0.15625,402
403,1695486987545,-0.11694336,-0.991272,-0.097473145,1.640625,-0.390625,0.421875,403
404,1695486987585,-0.10595703,-0.9961548,-0.09893799,1.03125,-0.625,0.15625,404
405,1695486987625,-0.100097656,-0.98516846,-0.10235596,1.34375,-1.25,0.078125,405
406,1695486987665,-0.09765625,-1.0012817,-0.09063721,0.46875,-1.4375,0.3125,406
407,1695486987705,-0.10571289,-0.98565674,-0.09503174,0.828125,-1.3125,0.125,407
408,1695486987745,-0.1015625,-0.9932251,-0.0803833,1.71875,-0.09375,0.59375,408
409,1695486987785,-0.10205078,-0.987854,-0.10308838,-0.609375,0.0625,0.703125,409
410,1695486987825,-0.09838867,-1.0066528,-0.082336426,1.015625,0.484375,0.765625,410
411,1695486987865,-0.0949707,-0.9854126,-0.10675049,0.234375,-0.25,0.203125,411
412,1695486987905,-0.1015625,-0.98638916,-0.097229004,0.328125,-1.203125,-0.1875,412
413,1695486987945,-0.09326172,-0.9890747,-0.09454346,0.609375,-1.75,-0.21875,413
414,1695486987985,-0.09448242,-1.0076294,-0.1038208,-0.046875,-1.546875,-0.0625,414
415,1695486988025,-0.099365234,-0.9819946,-0.07525635,0.609375,-0.578125,-0.28125,415
416,1695486988065,-0.107666016,-1.0007935,-0.08453369,0.828125,-0.171875,0.015625,416
417,1695486988105,-0.08203125,-0.98223877,-0.10797119,0.53125,0.5,0.03125,417
418,1695486988145,-0.08520508,-0.9937134,-0.08282471,0.359375,0.015625,-0.125,418
419,1695486988185,-0.107177734,-0.9949341,-0.093566895,0.671875,0.734375,-0.046875,419
420,1695486988225,-0.10107422,-0.99053955,-0.085510254,1.03125,1.046875,-0.65625,420
421,1695486988265,-0.107421875,-0.99176025,-0.09674072,0.234375,0.78125,-0.21875,421
422,1695486988305,-0.103027344,-1.00177,-0.10235596,-1.0625,-0.53125,0.21875,422
423,1695486988345,-0.095703125,-0.9920044,-0.09112549,-0.46875,1.25,-0.1875,423
424,1695486988385,-0.115234375,-0.99957275,-0.101135254,1.296875,0.96875,-0.71875,424
425,1695486988425,-0.083740234,-0.9841919,-0.09063721,-0.859375,1.3125,-0.6875,425
426,1695486988465,-0.11669922,-0.9985962,-0.097473145,-1.515625,0.484375,0.125,426
427,1695486988505,-0.10668945,-0.991272,-0.08673096,-1.734375,2.015625,0.125,427
428,1695486988545,-0.11669922,-0.9907837,-0.09454346,-3.234375,2.40625,0.609375,428
429,1695486988585,-0.095947266,-0.9871216,-0.08111572,-1.578125,2.6875,0.65625,429
430,1695486988625,-0.13989258,-1.0042114,-0.08477783,-2.71875,1.4375,1.625,430
431,1695486988665,-0.080566406,-0.98687744,-0.07476807,-0.578125,3.5,0.78125,431
432,1695486988705,-0.110839844,-0.9776001,-0.07891846,-2.0625,3.53125,1.078125,432
433,1695486988745,-0.1027832,-1.0108032,-0.07086182,-2.625,2.84375,2.0,433
434,1695486988785,-0.095703125,-1.0098267,-0.07647705,-4.65625,2.96875,1.03125,434
435,1695486988825,-0.10620117,-1.0025024,-0.047912598,-3.25,4.703125,0.8125,435
436,1695486988865,-0.087890625,-1.0115356,-0.054504395,-4.875,4.265625,-0.03125,436
437,1695486988905,-0.08227539,-0.9976196,-0.039855957,-4.21875,4.234375,-0.9375,437
438,1695486988945,-0.10620117,-1.0007935,-0.025939941,-4.015625,5.1875,-1.125,438
439,1695486988985,-0.09423828,-1.0032349,-0.012268066,-4.96875,3.921875,-1.09375,439
440,1695486989025,-0.1015625,-0.99298096,-0.011047363,-4.5,3.5625,-1.171875,440
441,1695486989065,-0.10961914,-1.005188,-0.00030517578,-4.265625,3.578125,-0.609375,441
442,1695486989105,-0.08935547,-0.9981079,-0.0005493164,-3.875,2.25,-0.953125,442
443,1695486989145,-0.07763672,-0.98809814,0.008728027,-5.15625,-0.359375,-1.3125,443
444,1695486989185,-0.118896484,-0.9990845,0.030212402,-4.515625,0.0625,-1.4375,444
445,1695486989225,-0.10229492,-1.0127563,0.04095459,-2.875,0.640625,-1.625,445
446,1695486989265,-0.12841797,-0.986145,0.035339355,-2.9375,0.390625,-0.984375,446
447,1695486989305,-0.1352539,-1.0127563,0.046081543,-2.75,0.234375,-0.578125,447
448,1695486989345,-0.13354492,-1.0064087,0.03704834,-2.109375,-0.484375,-0.46875,448
449,1695486989385,-0.12768555,-0.99298096,0.054870605,-0.25,0.859375,0.4375,449
450,1695486989425,-0.12060547,-0.98809814,0.046813965,-0.375,-0.671875,0.921875,450
451,1695486989465,-0.1159668,-0.99786377,0.048034668,1.578125,-0.78125,0.859375,451
452,1695486989505,-0.12768555,-1.010315,0.054382324,2.078125,1.375,1.71875,452
453,1695486989545,-0.10620117,-0.9985962,0.043395996,3.0625,0.171875,2.328125,453
454,1695486989585,-0.084472656,-0.987854,0.039978027,2.703125,-1.1875,1.953125,454
455,1695486989625,-0.084472656,-1.0093384,0.04437256,2.546875,-3.140625,1.921875,455
456,1695486989665,-0.08911133,-1.0042114,0.024108887,3.25,-4.734375,1.5,456
457,1695486989705,-0.09106445,-0.9924927,0.032165527,3.625,-3.265625,1.6875,457
458,1695486989745,-0.08105469,-1.0132446,0.0079956055,3.65625,-4.1875,2.015625,458
459,1695486989785,-0.10083008,-0.9976196,0.0026245117,5.109375,-4.1875,2.40625,459
460,1695486989825,-0.092041016,-0.99884033,0.009460449,5.890625,-3.59375,1.90625,460
461,1695486989865,-0.08911133,-1.0098267,-0.010559082,4.484375,-3.078125,1.109375,461
462,1695486989905,-0.091796875,-1.0046997,-0.022033691,2.03125,-3.15625,1.03125,462
463,1695486989945,-0.09716797,-1.0046997,-0.020812988,3.40625,-4.015625,0.78125,463
464,1695486989985,-0.09008789,-0.99420166,-0.023010254,1.78125,-2.5625,0.625,464
465,1695486990025,-0.08178711,-1.0088501,-0.03692627,1.78125,-2.46875,0.90625,465
466,1695486990065,-0.07885742,-1.0064087,-0.0256958,1.34375,-2.15625,0.25,466
467,1695486990105,-0.09008789,-1.0093384,-0.00982666,1.078125,-1.046875,0.46875,467
468,1695486990145,-0.08520508,-1.0044556,-0.023986816,0.9375,-1.125,0.140625,468
469,1695486990185,-0.08105469,-1.0083618,-0.010314941,0.5,-0.296875,-0.109375,469
470,1695486990225,-0.084472656,-1.0125122,-0.01763916,0.3125,-0.40625,0.109375,470
471,1695486990265,-0.08081055,-0.99835205,-0.020324707,0.984375,-0.359375,-0.140625,471
472,1695486990305,-0.080322266,-0.9924927,-0.02154541,0.34375,0.03125,0.078125,472
473,1695486990345,-0.080566406,-1.0130005,-0.016662598,0.34375,-0.28125,0.109375,473
474,1695486990385,-0.076660156,-0.9924927,-0.020324707,0.328125,-0.015625,0.15625,474
475,1695486990425,-0.08496094,-1.0078735,-0.014221191,0.15625,0.09375,0.203125,475
476,1695486990465,-0.07763672,-1.0059204,-0.018371582,0.671875,-0.359375,0.0,476
477,1695486990505,-0.078125,-0.9976196,-0.0115356445,0.84375,-0.21875,0.234375,477
478,1695486990545,-0.07397461,-1.006897,-0.01763916,0.203125,-0.875,0.09375,478
479,1695486990585,-0.078125,-1.0029907,-0.020324707,0.9375,-0.21875,0.1875,479
480,1695486990625,-0.08227539,-1.0005493,-0.022033691,0.046875,-0.3125,0.125,480
481,1695486990665,-0.07763672,-1.0064087,-0.013244629,0.75,-0.078125,-0.015625,481
482,1695486990705,-0.08544922,-1.0046997,-0.016662598,0.328125,-0.34375,0.109375,482
483,1695486990745,-0.083496094,-1.00177,-0.008605957,0.1875,-0.25,-0.234375,483
484,1695486990785,-0.083740234,-1.0110474,-0.012512207,0.515625,-0.5625,0.171875,484
485,1695486990825,-0.08081055,-1.0054321,-0.020324707,0.078125,-0.0625,0.28125,485
486,1695486990865,-0.07763672,-0.99468994,-0.0056762695,0.96875,-0.75,0.390625,486
487,1695486990905,-0.084472656,-1.0027466,-0.013244629,0.296875,-0.34375,0.203125,487
488,1695486990945,-0.0715332,-1.0076294,-0.016174316,0.28125,-0.375,-0.265625,488
489,1695486990985,-0.06982422,-0.9937134,-0.012756348,0.34375,-0.671875,0.0625,489
490,1695486991025,-0.07861328,-1.0081177,-0.0076293945,1.40625,-0.484375,0.296875,490
491,1695486991065,-0.07080078,-1.0029907,-0.015686035,0.515625,-0.59375,0.15625,491
492,1695486991105,-0.079833984,-1.0056763,-0.00982666,0.640625,-0.578125,-0.109375,492
493,1695486991145,-0.083740234,-0.9976196,-0.011047363,0.625,-0.765625,-0.078125,493
494,1695486991185,-0.087646484,-1.0132446,-0.015197754,0.65625,-0.15625,0.03125,494
495,1695486991225,-0.076416016,-0.9961548,-0.016174316,0.671875,-0.703125,0.0625,495
496,1695486991265,-0.079833984,-1.00177,-0.013244629,0.328125,-0.75,0.03125,496
497,1695486991305,-0.08178711,-1.0088501,-0.014709473,1.625,-0.90625,0.0625,497
498,1695486991345,-0.08081055,-1.0120239,-0.022033691,-0.171875,-0.71875,-0.140625,498
499,1695486991385,-0.079589844,-1.0046997,-0.017150879,-0.265625,-0.265625,-0.25,499
500,1695486991425,-0.07910156,-0.9920044,-0.019592285,-0.078125,-0.109375,-0.109375,500
501,1695486991465,-0.0847168,-1.0032349,-0.006652832,0.5625,-0.53125,0.0625,501
502,1695486991505,-0.07446289,-1.0029907,-0.019104004,0.15625,-0.25,0.046875,502
503,1695486991545,-0.07739258,-1.0100708,-0.0134887695,0.21875,-0.234375,-0.171875,503
504,1695486991585,-0.07055664,-1.0061646,-0.0015258789,0.6875,-0.5,0.046875,504
505,1695486991625,-0.08129883,-1.0003052,-0.016174316,0.453125,-0.703125,-0.03125,505
506,1695486991665,-0.0871582,-1.0112915,-0.008117676,0.859375,-0.125,0.296875,506
507,1695486991705,-0.08203125,-1.0049438,-0.023742676,0.359375,-0.6875,-0.046875,507
508,1695486991745,-0.079833984,-0.99835205,-0.022521973,0.65625,-0.6875,-0.1875,508
509,1695486991785,-0.08300781,-1.0042114,-0.018859863,0.9375,-0.265625,0.125,509
510,1695486991825,-0.07519531,-1.0064087,-0.016418457,0.8125,-0.484375,0.078125,510
511,1695486991865,-0.080078125,-1.0044556,-0.016174316,0.0625,-0.3125,-0.125,511
512,1695486991905,-0.076171875,-1.0046997,-0.012512207,0.109375,-0.40625,0.0,512
513,1695486991945,-0.07299805,-0.9976196,-0.0115356445,0.96875,-0.59375,-0.015625,513
514,1695486991985,-0.07470703,-1.0025024,-0.0064086914,1.015625,-0.421875,0.078125,514
515,1695486992025,-0.08129883,-1.0115356,-0.017150879,0.5625,-0.25,0.0625,515
516,1695486992065,-0.08544922,-0.99786377,-0.016174316,-0.34375,-0.5,-0.140625,516
517,1695486992105,-0.076171875,-1.0056763,-0.004699707,0.28125,-0.234375,0.15625,517
518,1695486992145,-0.07885742,-1.0039673,-0.015197754,0.390625,-0.375,0.09375,518
519,1695486992185,-0.07519531,-1.0049438,-0.0115356445,0.546875,-0.546875,0.234375,519
520,1695486992225,-0.075683594,-1.0076294,-0.008605957,0.359375,-0.578125,0.140625,520
521,1695486992265,-0.08203125,-1.0100708,-0.0032348633,0.328125,-0.203125,0.0,521
522,1695486992305,-0.07885742,-1.0010376,-0.0068969727,0.5625,-0.203125,0.0625,522
523,1695486992345,-0.08227539,-1.0059204,-0.00982666,0.359375,-0.390625,-0.046875,523
524,1695486992385,-0.07446289,-0.99542236,-0.0049438477,0.6875,-0.21875,0.15625,524
525,1695486992425,-0.07861328,-1.0073853,-0.016418457,0.4375,-0.28125,0.171875,525
526,1695486992465,-0.07128906,-1.0073853,-0.02154541,0.546875,-0.796875,-0.140625,526
527,1695486992505,-0.076416016,-0.9973755,-0.011047363,0.484375,-0.5,0.09375,527
528,1695486992545,-0.08129883,-1.0098267,-0.010559082,0.859375,-0.59375,0.0,528
529,1695486992585,-0.07104492,-0.99713135,-0.016174316,-0.109375,-0.390625,-0.015625,529
530,1695486992625,-0.076171875,-1.0132446,-0.020812988,-0.5625,0.578125,-0.296875,530
531,1695486992665,-0.079589844,-1.0088501,0.0018920898,-0.1875,2.296875,-0.515625,531
532,1695486992705,-0.08300781,-1.0005493,-0.009094238,-0.328125,0.921875,-0.53125,532
533,1695486992745,-0.07543945,-0.99835205,-0.0076293945,-2.515625,2.5625,-0.78125,533
534,1695486992785,-0.09106445,-1.0093384,0.00091552734,-2.453125,2.890625,-0.625,534
535,1695486992825,-0.07739258,-0.9937134,0.0026245117,-0.640625,1.828125,-0.5,535
536,1695486992865,-0.08105469,-1.0005493,0.0021362305,1.015625,1.09375,-0.4375,536
537,1695486992905,-0.087646484,-1.0032349,0.00970459,0.921875,1.15625,-0.125,537
538,1695486992945,-0.08251953,-1.0098267,0.0006713867,0.953125,0.125,-0.15625,538
539,1695486992985,-0.08544922,-0.9937134,0.011169434,1.796875,0.234375,0.1875,539
540,1695486993025,-0.083984375,-1.0115356,-0.0037231445,1.453125,-0.90625,-0.125,540
541,1695486993065,-0.08520508,-0.9883423,-0.015686035,1.5625,-0.8125,-0.359375,541
542,1695486993105,-0.088134766,-1.0081177,0.007019043,1.53125,-0.234375,0.171875,542
543,1695486993145,-0.079833984,-0.99713135,-0.0056762695,1.6875,-0.4375,-0.03125,543
544,1695486993185,-0.09375,-1.000061,-0.0044555664,1.71875,-0.671875,-0.078125,544
545,1695486993225,-0.087890625,-1.0095825,-0.0022583008,1.8125,-0.6875,-0.046875,545
546,1695486993265,-0.083740234,-0.9968872,-0.020324707,1.78125,-0.96875,-0.0625,546
547,1695486993305,-0.08911133,-1.000061,0.00018310547,1.578125,-0.6875,0.09375,547
548,1695486993345,-0.084228516,-0.9939575,-0.012268066,1.796875,-0.484375,0.1875,548
549,1695486993385,-0.087402344,-0.9985962,-0.012268066,1.1875,-1.390625,0.1875,549
550,1695486993425,-0.083496094,-1.0112915,-0.014221191,2.09375,-1.03125,0.15625,550
551,1695486993465,-0.08154297,-1.005188,-0.022766113,0.578125,-1.0625,0.15625,551
552,1695486993505,-0.0859375,-1.0025024,-0.019348145,0.453125,-0.375,0.203125,552
553,1695486993545,-0.0859375,-1.0037231,-0.021057129,0.96875,-0.671875,0.234375,553
554,1695486993585,-0.0847168,-0.99884033,-0.026672363,0.5625,-1.203125,-0.046875,554
555,1695486993625,-0.08276367,-1.005188,-0.017150879,-0.03125,-0.84375,0.109375,555
556,1695486993665,-0.079833984,-1.0049438,-0.012268066,0.078125,-0.28125,-0.015625,556
557,1695486993705,-0.08105469,-1.0032349,-0.0064086914,0.765625,-1.078125,-0.0625,557
558,1695486993745,-0.08105469,-0.99346924,-0.0154418945,0.171875,-0.390625,-0.078125,558
559,1695486993785,-0.09008789,-1.0142212,-0.0076293945,1.1875,-0.859375,0.125,559
560,1695486993825,-0.08300781,-1.000061,-0.021057129,0.1875,-0.578125,-0.09375,560
561,1695486993865,-0.09375,-1.0071411,-0.0134887695,0.984375,-0.71875,0.046875,561
562,1695486993905,-0.080322266,-0.989563,-0.0154418945,0.484375,-0.3125,-0.203125,562
563,1695486993945,-0.08129883,-1.0025024,-0.022521973,0.890625,-0.28125,0.0,563
564,1695486993985,-0.087890625,-0.9981079,-0.0154418945,0.734375,-0.53125,-0.015625,564
565,1695486994025,-0.08251953,-1.0015259,-0.012512207,0.3125,-0.453125,0.234375,565
566,1695486994065,-0.080566406,-1.0007935,-0.012268066,-0.3125,-1.078125,0.046875,566
567,1695486994105,-0.087890625,-1.0061646,-0.0012817383,1.5,-0.59375,0.421875,567
568,1695486994145,-0.0793457,-1.010315,-0.028381348,0.234375,-0.6875,-0.25,568
569,1695486994185,-0.08178711,-0.987854,-0.019592285,0.234375,-0.125,-0.171875,569
570,1695486994225,-0.08911133,-1.010315,-0.0051879883,0.828125,-0.140625,0.171875,570
571,1695486994265,-0.08251953,-1.0012817,-0.01739502,0.28125,-0.515625,-0.21875,571
572,1695486994305,-0.07714844,-0.9963989,-0.026428223,-0.25,-0.734375,-0.234375,572
573,1695486994345,-0.08544922,-0.99468994,-0.006164551,-0.03125,-0.328125,0.140625,573
574,1695486994385,-0.080566406,-1.005188,-0.0020141602,1.125,-0.671875,0.296875,574
575,1695486994425,-0.08081055,-0.99591064,-0.015930176,0.28125,-0.734375,-0.109375,575
576,1695486994465,-0.08911133,-1.0012817,-0.0064086914,0.71875,-0.640625,0.390625,576
577,1695486994505,-0.079833984,-1.0049438,-0.0115356445,0.828125,-0.671875,0.03125,577
578,1695486994545,-0.079833984,-1.0039673,-0.018127441,1.171875,-0.75,0.4375,578
579,1695486994585,-0.079833984,-1.0056763,-0.020080566,1.234375,-0.609375,-0.015625,579
580,1695486994625,-0.091552734,-1.0027466,-0.022521973,0.90625,-0.515625,0.171875,580
581,1695486994665,-0.083740234,-0.99786377,-0.013244629,0.9375,-0.59375,0.03125,581
582,1695486994705,-0.08984375,-0.9998169,-0.014709473,0.671875,-0.03125,0.359375,582
583,1695486994745,-0.07763672,-1.0098267,-0.023498535,0.203125,-1.109375,-0.03125,583
584,1695486994785,-0.08227539,-0.9968872,-0.013244629,1.265625,-0.5625,0.03125,584
585,1695486994825,-0.08105469,-1.0132446,-0.0178833,-0.03125,-0.03125,0.03125,585
586,1695486994865,-0.08081055,-1.00177,-0.018859863,-0.421875,-0.03125,-0.390625,586
587,1695486994905,-0.083496094,-1.0020142,-0.007873535,0.5625,-0.453125,-0.140625,587
588,1695486994945,-0.091796875,-1.0029907,-0.015686035,0.546875,-0.640625,-0.09375,588
589,1695486994985,-0.08129883,-1.0090942,-0.0134887695,0.84375,-0.671875,0.046875,589
590,1695486995025,-0.08496094,-1.0025024,-0.013244629,0.171875,-0.3125,0.03125,590
591,1695486995065,-0.08178711,-0.9956665,-0.00982666,1.265625,-0.734375,0.21875,591
592,1695486995105,-0.08276367,-1.010315,-0.0178833,0.90625,-0.546875,0.21875,592
593,1695486995145,-0.08325195,-1.003479,-0.019592285,1.0625,-0.484375,0.125,593
594,1695486995185,-0.080078125,-1.000061,-0.018859863,0.703125,-0.59375,0.15625,594
595,1695486995225,-0.07885742,-0.9981079,-0.022277832,0.9375,-0.8125,0.15625,595
596,1695486995265,-0.084228516,-1.0032349,-0.018859863,1.078125,-0.53125,0.3125,596
597,1695486995305,-0.0793457,-1.010315,-0.031555176,0.859375,-0.53125,-0.0625,597
598,1695486995345,-0.07836914,-0.9915161,-0.023010254,0.375,-0.4375,-0.28125,598
599,1695486995385,-0.083496094,-1.0049438,-0.015197754,0.078125,0.1875,0.09375,599
600,1695486995425,-0.080566406,-1.0132446,-0.026916504,0.140625,-0.9375,-0.171875,600
601,1695486995465,-0.080078125,-0.9920044,-0.011047363,0.78125,-0.84375,0.0625,601
602,1695486995505,-0.08666992,-1.0105591,-0.010559082,-0.140625,-0.28125,-0.359375,602
603,1695486995545,-0.08300781,-1.0059204,-0.017150879,-0.078125,-0.15625,-0.203125,603
604,1695486995585,-0.08129883,-1.0005493,-0.014221191,0.609375,-0.546875,-0.21875,604
605,1695486995625,-0.091308594,-1.0007935,-0.015930176,0.328125,-0.0625,-0.359375,605
606,1695486995665,-0.08203125,-1.003479,-0.0134887695,0.84375,-0.625,0.078125,606
607,1695486995705,-0.08276367,-1.0022583,-0.019592285,0.453125,-0.875,-0.09375,607
608,1695486995745,-0.087890625,-1.0088501,-0.012512207,1.0625,-0.484375,0.078125,608
609,1695486995785,-0.08666992,-0.9927368,-0.0115356445,0.625,-0.890625,0.28125,609
610,1695486995825,-0.087890625,-1.0166626,-0.022033691,0.578125,-0.65625,0.109375,610
611,1695486995865,-0.076660156,-0.987854,-0.020812988,0.375,-0.625,-0.109375,611
612,1695486995905,-0.092285156,-1.0076294,-0.006652832,0.5625,-0.3125,0.375,612
613,1695486995945,-0.072509766,-0.9993286,-0.020080566,0.671875,-0.515625,0.125,613
614,1695486995985,-0.07421875,-0.9961548,-0.019836426,0.75,-0.703125,-0.03125,614
615,1695486996025,-0.09008789,-1.0108032,-0.0010375977,0.5625,-0.34375,0.25,615
616,1695486996065,-0.08227539,-1.0071411,-0.026428223,0.6875,-0.421875,0.0625,616
617,1695486996105,-0.08325195,-1.0010376,-0.018127441,0.375,-0.375,0.09375,617
618,1695486996145,-0.08154297,-1.000061,-0.011047363,1.078125,-0.359375,0.140625,618
619,1695486996185,-0.07348633,-1.0044556,-0.030578613,0.515625,-0.828125,0.0625,619
620,1695486996225,-0.08300781,-1.0071411,-0.015686035,-0.15625,-0.359375,-0.203125,620
621,1695486996265,-0.08129883,-1.0003052,-0.0154418945,0.234375,0.015625,-0.09375,621
622,1695486996305,-0.08325195,-0.99591064,-0.018859863,0.8125,-0.734375,0.078125,622
623,1695486996345,-0.09033203,-1.0071411,-0.00982666,0.40625,-0.265625,0.375,623
624,1695486996385,-0.07104492,-1.0108032,-0.028137207,0.40625,-0.5,-0.21875,624
625,1695486996425,-0.08154297,-0.9907837,-0.018371582,0.109375,-0.21875,-0.125,625
626,1695486996465,-0.075927734,-1.013977,-0.00592041,0.265625,-0.28125,0.03125,626
627,1695486996505,-0.07470703,-1.0039673,-0.015197754,0.28125,-0.640625,0.03125,627
628,1695486996545,-0.08691406,-1.0098267,-0.008361816,0.625,-0.46875,-0.015625,628
629,1695486996585,-0.08081055,-0.99713135,-0.013000488,0.625,-0.765625,0.0,629
630,1695486996625,-0.080078125,-1.0088501,-0.010559082,0.828125,-1.046875,0.203125,630
631,1695486996665,-0.07910156,-0.99884033,-0.02154541,0.796875,-0.34375,0.03125,631
632,1695486996705,-0.08959961,-1.0071411,-0.022033691,0.734375,-0.671875,0.140625,632
633,1695486996745,-0.080566406,-1.0042114,-0.011779785,0.734375,-0.53125,0.03125,633
634,1695486996785,-0.08544922,-1.00177,-0.0154418945,0.78125,-0.40625,-0.03125,634
635,1695486996825,-0.07861328,-1.0025024,-0.021057129,0.328125,-0.984375,0.015625,635
636,1695486996865,-0.0847168,-1.0112915,-0.008117676,1.40625,-0.34375,0.390625,636
637,1695486996905,-0.078125,-1.008606,-0.027893066,-0.046875,-0.59375,-0.125,637
638,1695486996945,-0.072753906,-0.9976196,-0.01763916,0.203125,-0.109375,-0.140625,638
639,1695486996985,-0.083496094,-1.0007935,-0.0051879883,0.546875,-0.328125,-0.015625,639
640,1695486997025,-0.07519531,-1.0025024,-0.018615723,0.40625,-0.59375,-0.03125,640
641,1695486997065,-0.08129883,-1.0056763,-0.012512207,0.5625,-0.515625,-0.03125,641
642,1695486997105,-0.095947266,-1.0144653,-0.006652832,0.59375,-0.03125,0.1875,642
643,1695486997145,-0.06933594,-0.9981079,-0.023254395,0.625,-1.140625,0.140625,643
644,1695486997185,-0.08081055,-0.99835205,-0.0134887695,0.3125,0.125,0.171875,644
645,1695486997225,-0.08129883,-1.006897,-0.012512207,1.0625,-0.484375,0.03125,645
646,1695486997265,-0.08276367,-1.0078735,-0.02130127,0.84375,-0.59375,0.203125,646
647,1695486997305,-0.08300781,-1.0056763,-0.014221191,0.25,-0.296875,0.171875,647
648,1695486997345,-0.080566406,-1.0073853,-0.016174316,0.5,-0.765625,0.296875,648
649,1695486997385,-0.079589844,-1.0054321,-0.011779785,0.84375,-0.4375,0.03125,649
650,1695486997425,-0.080322266,-1.0022583,-0.020812988,0.171875,-0.640625,-0.171875,650
651,1695486997465,-0.076171875,-0.9949341,-0.0256958,0.53125,-0.5625,0.0,651
652,1695486997505,-0.080078125,-1.0059204,-0.012268066,1.25,-0.578125,0.28125,652
653,1695486997545,-0.07397461,-1.0020142,-0.018127441,-0.03125,-0.71875,-0.21875,653
654,1695486997585,-0.0871582,-1.0095825,-0.015686035,1.25,-0.515625,0.25,654
655,1695486997625,-0.07861328,-1.0032349,-0.01739502,0.171875,-0.6875,-0.328125,655
656,1695486997665,-0.08325195,-1.0076294,-0.0178833,0.421875,0.09375,-0.0625,656
657,1695486997705,-0.076660156,-1.0037231,-0.0178833,0.4375,-0.640625,-0.109375,657
658,1695486997745,-0.08520508,-1.0027466,-0.012268066,0.359375,-0.171875,0.203125,658
659,1695486997785,-0.08251953,-0.9961548,-0.020080566,0.53125,-0.65625,0.125,659
660,1695486997825,-0.08276367,-1.0090942,-0.015930176,0.09375,-0.375,-0.140625,660
661,1695486997865,-0.08691406,-1.0064087,-0.00592041,0.375,-0.421875,-0.015625,661
662,1695486997905,-0.080078125,-1.005188,-0.013000488,0.265625,-0.59375,0.046875,662
663,1695486997945,-0.08081055,-1.0110474,-0.009094238,0.875,-0.328125,0.203125,663
664,1695486997985,-0.07446289,-0.99713135,-0.02154541,0.296875,-0.78125,-0.21875,664
665,1695486998025,-0.08911133,-1.0078735,-0.007873535,1.109375,-0.53125,0.296875,665
666,1695486998065,-0.07128906,-0.9993286,-0.022033691,0.546875,-0.8125,-0.09375,666
667,1695486998105,-0.08691406,-1.0090942,-0.02154541,0.5,-0.59375,0.1875,667
668,1695486998145,-0.08129883,-1.0081177,-0.011047363,0.421875,-0.5,0.0,668
669,1695486998185,-0.08178711,-0.9976196,-0.016662598,0.734375,-0.640625,0.15625,669
670,1695486998225,-0.083496094,-1.0039673,-0.020324707,0.421875,-0.9375,0.265625,670
671,1695486998265,-0.07885742,-0.99786377,-0.012023926,0.984375,-0.546875,-0.171875,671
672,1695486998305,-0.075927734,-1.0061646,-0.018615723,0.234375,-0.453125,0.125,672
673,1695486998345,-0.07885742,-1.0012817,-0.018615723,-0.171875,-0.34375,-0.234375,673
674,1695486998385,-0.08251953,-1.0010376,-0.0056762695,0.28125,-0.09375,0.078125,674
675,1695486998425,-0.09277344,-1.0005493,-0.012512207,-0.03125,-0.25,-0.140625,675
676,1695486998465,-0.08618164,-1.00177,-0.009094238,0.5,-0.21875,0.15625,676
677,1695486998505,-0.07324219,-1.0181274,-0.018859863,0.421875,-0.625,0.015625,677
678,1695486998545,-0.07910156,-0.989563,-0.018615723,0.625,-0.578125,-0.1875,678
679,1695486998585,-0.08544922,-1.000061,-0.0012817383,0.65625,-0.46875,0.125,679
680,1695486998625,-0.076660156,-1.0090942,-0.018615723,0.828125,-0.765625,0.03125,680
681,1695486998665,-0.078125,-1.0012817,-0.020812988,0.296875,-0.625,-0.21875,681
682,1695486998705,-0.0871582,-1.0073853,-0.0056762695,0.609375,-0.546875,-0.046875,682
683,1695486998745,-0.075927734,-1.0022583,-0.013244629,0.859375,-0.78125,-0.078125,683
684,1695486998785,-0.08300781,-1.0022583,-0.020812988,0.546875,-0.25,0.109375,684
685,1695486998825,-0.07421875,-1.0042114,-0.018615723,0.1875,-0.765625,-0.03125,685
686,1695486998865,-0.08569336,-1.0022583,-0.003479004,0.578125,-0.21875,-0.015625,686
687,1695486998905,-0.07324219,-1.0037231,-0.014709473,0.265625,-0.515625,0.015625,687
688,1695486998945,-0.076171875,-1.0025024,-0.015686035,0.234375,-0.921875,0.015625,688
689,1695486998985,-0.07763672,-1.0083618,-0.010559082,0.96875,-0.484375,-0.078125,689
690,1695486999025,-0.080566406,-1.0061646,-0.015197754,0.359375,-0.5625,0.0625,690
691,1695486999065,-0.076171875,-1.0029907,-0.015197754,0.15625,-0.0625,0.0625,691
692,1695486999105,-0.080078125,-1.0005493,-0.014953613,0.484375,-0.265625,0.09375,692
693,1695486999145,-0.083740234,-0.9961548,-0.01763916,0.75,-0.953125,-0.109375,693
694,1695486999185,-0.083496094,-1.0095825,-0.012756348,1.15625,-0.421875,0.25,694
695,1695486999225,-0.080078125,-1.005188,-0.015930176,0.203125,-0.25,-0.109375,695
696,1695486999265,-0.08569336,-1.0066528,-0.007873535,0.609375,-0.5625,0.046875,696
697,1695486999305,-0.080078125,-0.9968872,-0.0154418945,0.1875,-0.21875,-0.015625,697
698,1695486999345,-0.07128906,-1.0027466,-0.0134887695,0.875,-0.4375,-0.125,698
699,1695486999385,-0.0769043,-1.0132446,-0.011779785,0.6875,-0.59375,-0.078125,699
700,1695486999425,-0.079833984,-1.0059204,-0.0095825195,1.03125,-0.75,0.046875,700
701,1695486999465,-0.0793457,-1.0083618,-0.013977051,0.703125,-0.34375,0.125,701
702,1695486999505,-0.072509766,-0.9973755,-0.019104004,1.0,-1.03125,0.078125,702
703,1695486999545,-0.08178711,-1.005188,-0.013244629,0.53125,-0.140625,0.1875,703
704,1695486999585,-0.0703125,-0.99713135,-0.020812988,0.65625,-0.40625,-0.03125,704
705,1695486999625,-0.084228516,-1.0010376,-0.020080566,0.640625,-0.703125,-0.015625,705
706,1695486999665,-0.083740234,-1.0044556,-0.015686035,0.5625,-0.765625,0.1875,706
707,1695486999705,-0.084472656,-1.005188,-0.0115356445,1.328125,-0.25,0.0,707
708,1695486999745,-0.083984375,-0.9932251,-0.021057129,0.546875,-0.046875,0.171875,708
709,1695486999785,-0.087890625,-1.0093384,-0.015686035,0.53125,-0.046875,0.125,709
710,1695486999825,-0.079589844,-1.0037231,-0.014953613,2.53125,-0.28125,0.453125,710
711,1695486999865,-0.08178711,-1.0027466,-0.01739502,2.046875,-0.890625,0.359375,711
712,1695486999905,-0.08618164,-0.9990845,-0.01739502,2.21875,-0.46875,0.65625,712
713,1695486999945,-0.06689453,-1.0015259,-0.031311035,1.71875,-1.234375,0.90625,713
714,1695486999985,-0.07714844,-0.9990845,-0.026672363,1.53125,-0.8125,0.6875,714
715,1695487000025,-0.068847656,-1.0073853,-0.031555176,1.578125,-0.8125,0.484375,715
716,1695487000065,-0.07714844,-1.005188,-0.023742676,1.421875,-0.296875,0.390625,716
717,1695487000105,-0.07055664,-1.0078735,-0.034484863,2.03125,-0.8125,0.625,717
718,1695487000145,-0.072265625,-1.0022583,-0.023742676,2.109375,-0.578125,0.265625,718
719,1695487000185,-0.06591797,-0.99786377,-0.03741455,1.921875,-0.53125,0.46875,719
720,1695487000225,-0.068115234,-1.0054321,-0.04156494,2.53125,-1.1875,0.3125,720
721,1695487000265,-0.071777344,-1.0059204,-0.04498291,1.859375,-1.171875,0.28125,721
722,1695487000305,-0.0703125,-0.9976196,-0.03668213,2.453125,-0.921875,0.109375,722
723,1695487000345,-0.072753906,-0.9932251,-0.0413208,1.3125,-0.84375,-0.0625,723
724,1695487000385,-0.072021484,-0.9985962,-0.038879395,-0.203125,-0.890625,-0.15625,724
725,1695487000425,-0.07739258,-1.0090942,-0.027893066,1.109375,-0.8125,0.0,725
726,1695487000465,-0.06640625,-1.0003052,-0.043029785,-0.90625,-0.578125,-0.5,726
727,1695487000505,-0.06738281,-1.0046997,-0.036193848,-0.71875,-0.296875,-0.34375,727
728,1695487000545,-0.07495117,-1.0020142,-0.031066895,-0.203125,-0.40625,-0.0625,728
729,1695487000585,-0.07421875,-1.0015259,-0.02935791,0.296875,-0.40625,0.046875,729
730,1695487000625,-0.072265625,-0.99957275,-0.034240723,-0.09375,-0.59375,0.15625,730
731,1695487000665,-0.078125,-1.005188,-0.044006348,-0.453125,-0.546875,0.15625,731
732,1695487000705,-0.0625,-1.0022583,-0.031555176,0.09375,-0.6875,0.109375,732
733,1695487000745,-0.07348633,-1.0071411,-0.035461426,0.171875,-0.546875,-0.09375,733
734,1695487000785,-0.06738281,-1.0029907,-0.03375244,0.40625,-0.28125,-0.0625,734
735,1695487000825,-0.072753906,-0.9990845,-0.038391113,0.53125,-0.84375,-0.03125,735
736,1695487000865,-0.07348633,-1.0037231,-0.03302002,0.5625,-0.765625,-0.078125,736
737,1695487000905,-0.075927734,-1.00177,-0.02935791,0.71875,-0.328125,-0.078125,737
738,1695487000945,-0.068847656,-1.0100708,-0.044006348,0.140625,-0.4375,-0.140625,738
739,1695487000985,-0.07006836,-0.9961548,-0.03668213,0.03125,-0.46875,-0.0625,739
740,1695487001025,-0.06762695,-1.0020142,-0.031311035,0.703125,-0.21875,0.203125,740
741,1695487001065,-0.08105469,-0.99884033,-0.030578613,-0.09375,-0.578125,0.171875,741
742,1695487001105,-0.067871094,-1.0029907,-0.02911377,0.734375,-0.625,0.171875,742
743,1695487001145,-0.07885742,-1.0088501,-0.02130127,0.0,-0.625,0.0625,743
744,1695487001185,-0.06958008,-1.003479,-0.030090332,-0.203125,0.640625,0.21875,744
745,1695487001225,-0.06542969,-0.99542236,-0.03326416,0.890625,-0.5,-0.03125,745
746,1695487001265,-0.06542969,-0.99835205,-0.03717041,0.265625,-0.234375,0.109375,746
747,1695487001305,-0.07006836,-1.013977,-0.039855957,0.921875,-0.875,0.046875,747
748,1695487001345,-0.07128906,-1.0015259,-0.028869629,0.4375,-0.140625,-0.109375,748
749,1695487001385,-0.07470703,-1.0029907,-0.019348145,0.234375,-0.40625,0.03125,749
750,1695487001425,-0.07495117,-1.00177,-0.029846191,-0.046875,-0.546875,-0.15625,750
751,1695487001465,-0.064697266,-0.9990845,-0.03277588,0.15625,-0.28125,0.0,751
752,1695487001505,-0.06665039,-1.0007935,-0.038146973,0.546875,-0.75,-0.046875,752
753,1695487001545,-0.06933594,-0.9985962,-0.031066895,0.515625,-0.65625,-0.03125,753
754,1695487001585,-0.08203125,-1.0042114,-0.028137207,0.65625,-0.265625,0.15625,754
755,1695487001625,-0.075683594,-1.0083618,-0.032043457,0.234375,-0.515625,-0.078125,755
756,1695487001665,-0.068847656,-0.99664307,-0.02935791,0.296875,-0.359375,0.046875,756
757,1695487001705,-0.07080078,-0.99786377,-0.022277832,1.109375,-0.21875,0.109375,757
758,1695487001745,-0.06665039,-1.0046997,-0.03302002,0.59375,-1.234375,-0.015625,758
759,1695487001785,-0.072509766,-1.0032349,-0.028137207,1.8125,0.109375,0.15625,759
