,timestamp,accel_x,accel_y,accel_z,gyro_x,gyro_y,gyro_z
0,1697605965,-0.6152344,-0.26367188,-0.45214844,-139.625,23.6875,-42.875
1,1697606005,-1.9902344,1.0712891,-0.7236328,-0.5,-145.84375,-56.125
2,1697606045,-0.578125,0.5498047,0.08886719,-80.90625,84.75,10.21875
3,1697606085,-1.2958984,1.1455078,-0.4326172,-93.40625,19.5625,81.34375
4,1697606125,-1.8339844,0.6953125,-0.5683594,-55.875,61.0,74.1875
5,1697606165,-1.8417969,-0.6826172,0.6464844,217.75,41.34375,137.65625
6,1697606205,-1.1591797,-0.47558594,0.8652344,-148.09375,68.375,59.59375
7,1697606245,-0.5878906,-0.045898438,0.40234375,70.71875,15.15625,40.125
8,1697606285,-0.2919922,-0.6044922,0.32714844,-42.0625,-3.59375,31.9375
9,1697606325,-0.14453125,-0.78027344,0.25976562,39.71875,-25.1875,-21.875
10,1697606365,-0.4111328,0.39746094,0.48535156,54.1875,-108.5625,-94.625
11,1697606405,-1.9941406,0.3173828,-0.15722656,166.0625,-300.625,-162.5
12,1697606445,-1.9941406,1.9121094,-0.9267578,-199.71875,-109.21875,-46.65625
13,1697606485,-1.7832031,-0.13085938,0.17578125,-159.15625,-23.65625,-128.15625
14,1697606525,-1.3251953,0.13964844,-0.40722656,154.625,-89.9375,-43.78125
15,1697606565,-0.23144531,0.81933594,-0.19921875,100.3125,-52.59375,7.84375
16,1697606605,0.56640625,0.5732422,-0.24023438,10.71875,62.875,46.53125
17,1697606645,0.5341797,0.17285156,0.11425781,-15.84375,71.125,57.9375
18,1697606685,-1.1240234,-0.6767578,1.1582031,-9.96875,47.6875,-42.875
19,1697606725,-0.001953125,0.1796875,-0.875,-131.84375,-33.5,-44.65625
20,1697606765,-1.7597656,1.2597656,-0.6455078,-28.03125,-164.03125,-67.46875
21,1697606805,-1.1396484,0.5830078,-0.09667969,-139.4375,132.15625,48.0
22,1697606845,-1.3574219,0.6894531,-0.15136719,134.0,7.53125,87.0625
23,1697606885,-1.9941406,0.45703125,-0.3076172,39.28125,31.15625,70.78125
24,1697606925,-1.3847656,-0.85253906,0.85546875,83.46875,235.8125,166.15625
25,1697606965,-0.9453125,-0.022460938,0.6767578,-108.59375,-58.28125,12.34375
26,1697607005,-0.20703125,-0.60253906,0.1484375,9.125,18.34375,51.3125
27,1697607045,-0.02734375,-0.96191406,0.08984375,11.75,-21.09375,-7.28125
28,1697607085,-0.2705078,0.16503906,0.54785156,0.90625,-73.65625,-89.75
29,1697607125,-1.4365234,0.11328125,-0.41992188,136.09375,-217.28125,-138.875
30,1697607165,-1.9941406,1.109375,-0.15722656,46.96875,-117.96875,-157.75
31,1697607205,-1.7080078,0.89746094,-0.3251953,-248.3125,146.25,-67.34375
32,1697607245,-1.9941406,-0.45507812,-0.3984375,136.9375,-71.03125,-26.65625
33,1697607285,-0.7939453,0.8027344,-0.32421875,119.65625,-64.6875,-20.59375
34,1697607325,0.19140625,0.77246094,-0.22070312,66.6875,5.15625,23.96875
35,1697607365,0.69140625,0.31347656,-0.19433594,-34.75,158.53125,86.03125
36,1697607405,-0.17382812,-0.171875,0.49414062,7.90625,79.59375,59.0625
37,1697607445,-1.3222656,-0.73828125,0.4892578,-129.53125,50.375,-86.03125
38,1697607485,0.22167969,0.087890625,-0.4248047,-77.15625,-31.96875,-40.9375
39,1697607525,-1.9941406,1.6123047,-0.76171875,48.5,-159.21875,-39.34375
40,1697607565,-0.9042969,0.29003906,0.68652344,-178.625,309.78125,63.5625
41,1697607605,-1.3837891,0.46191406,-0.25195312,50.875,-129.9375,68.03125
42,1697607645,-1.6103516,0.5,-0.5263672,27.1875,124.40625,63.4375
43,1697607685,-1.2480469,-0.5283203,0.85253906,41.125,235.4375,147.375
44,1697607725,-0.8857422,-0.33007812,0.35058594,-11.0625,-25.875,50.03125
45,1697607765,-0.49902344,-0.40820312,0.28027344,-36.40625,-13.96875,7.40625
46,1697607805,-0.22265625,-0.5371094,0.27246094,-4.96875,-76.53125,-23.90625
47,1697607845,-0.20507812,-0.015625,0.57714844,46.25,-94.34375,-74.6875
48,1697607885,-1.5380859,0.009765625,-0.67871094,270.53125,-249.6875,-119.0
49,1697607925,-1.9941406,1.5078125,-0.68847656,-84.0625,-121.4375,-123.125
50,1697607965,-1.4433594,0.5703125,1.1005859,-249.84375,160.40625,-114.65625
51,1697608005,-1.6757812,-0.16308594,-0.25878906,130.71875,-62.59375,-11.125
52,1697608045,-0.6035156,0.64746094,-0.18066406,117.03125,-31.15625,3.875
53,1697608085,0.3935547,0.6269531,-0.28125,52.34375,22.25,46.46875
54,1697608125,0.2265625,0.45703125,0.0,-45.6875,101.21875,51.125
55,1697608165,-0.5996094,-0.5761719,0.6972656,-2.90625,117.03125,38.53125
56,1697608205,-0.6855469,-0.5185547,-0.08886719,-178.5625,37.125,-69.25
57,1697608245,-0.50097656,0.546875,-0.4765625,35.5,-54.3125,-38.53125
58,1697608285,-1.9941406,1.4794922,0.087890625,-149.3125,-166.5,35.5625
59,1697608325,-0.6044922,0.5058594,-0.3232422,-70.09375,34.0,65.8125
60,1697608365,-1.8935547,0.88183594,-0.43652344,-9.25,-6.5625,76.5625
61,1697608405,-1.6367188,0.005859375,-0.5410156,121.0625,60.0625,79.0
62,1697608445,-1.7568359,-0.46289062,0.63183594,-182.03125,398.15625,158.53125
63,1697608485,-1.0107422,-0.30664062,0.3173828,30.25,-28.0625,70.40625
64,1697608525,-0.26171875,-0.56347656,0.09765625,-31.15625,-1.5,29.375
65,1697608565,-0.16503906,-0.84765625,0.17871094,5.28125,-33.625,-26.46875
66,1697608605,-0.17285156,0.26953125,0.74609375,26.03125,-72.78125,-90.59375
67,1697608645,-1.6894531,0.037109375,-0.57910156,284.875,-259.75,-132.0625
68,1697608685,-1.9941406,1.2753906,-0.72753906,-39.03125,-132.90625,-120.46875
69,1697608725,-1.2265625,0.8095703,1.1728516,-263.03125,156.4375,-131.4375
70,1697608765,-1.5556641,-0.16894531,-0.2783203,134.5,-63.46875,-11.1875
71,1697608805,-0.6152344,0.5654297,-0.23242188,91.28125,-18.90625,-1.6875
72,1697608845,0.125,0.6220703,-0.16601562,51.6875,30.09375,38.96875
73,1697608885,0.111328125,0.34472656,-0.043945312,-11.8125,74.1875,51.46875
74,1697608925,-0.79296875,-0.4794922,0.5371094,-21.6875,104.5625,17.65625
75,1697608965,-0.4873047,-0.51171875,0.3388672,-140.90625,61.40625,-61.5625
76,1697609005,-0.5292969,0.49121094,-0.6142578,27.9375,-48.125,-50.3125
77,1697609045,-1.9941406,1.3623047,-0.11230469,-110.375,-138.40625,-7.53125
78,1697609085,-0.6074219,0.89453125,-0.4609375,-89.5,28.9375,69.5625
79,1697609125,-1.9296875,1.0,-0.51171875,-55.9375,16.0625,76.03125
80,1697609165,-1.7783203,-0.11230469,-0.63183594,200.90625,73.75,107.6875
81,1697609205,-1.7900391,-0.5839844,0.25195312,-199.59375,362.8125,162.1875
82,1697609245,-1.1484375,-0.14746094,0.84277344,-66.375,8.8125,63.8125
83,1697609285,-0.2578125,-0.36132812,-0.13867188,-1.0625,3.5,45.6875
84,1697609325,-0.0625,-0.8720703,0.16894531,-15.53125,-7.84375,31.9375
85,1697609365,-0.17480469,-0.25878906,0.5732422,-21.03125,-40.03125,-72.96875
86,1697609405,-0.99609375,0.19335938,-0.0087890625,72.59375,-145.96875,-114.71875
87,1697609445,-1.9941406,0.1953125,-0.30566406,142.75,-172.09375,-187.09375
88,1697609485,-1.9941406,1.7314453,-0.81640625,-27.5,-74.6875,-21.28125
89,1697609525,-1.703125,0.034179688,-0.10546875,-106.28125,19.90625,-97.75
90,1697609565,-1.3203125,0.22558594,-0.31933594,117.09375,-73.78125,-38.53125
91,1697609605,-0.43164062,0.67089844,-0.203125,139.8125,-64.375,-2.34375
92,1697609645,0.67285156,0.7714844,-0.29589844,58.3125,31.4375,41.78125
93,1697609685,0.34765625,0.43945312,0.13476562,-104.15625,131.71875,48.90625
94,1697609725,-0.83203125,-0.6484375,0.671875,35.625,91.875,34.34375
95,1697609765,-0.6933594,-0.48339844,-0.12402344,-147.71875,27.5,-65.53125
96,1697609805,-1.2685547,0.8574219,-0.79003906,-6.0,-90.5,-62.46875
97,1697609845,-1.3427734,0.6513672,0.015625,-201.875,23.8125,14.1875
98,1697609885,-1.1103516,0.6923828,-0.2890625,0.15625,-58.625,81.4375
99,1697609925,-1.8496094,0.6464844,-0.6777344,78.46875,53.0,67.40625
100,1697609965,-1.6640625,-0.29492188,-0.51660156,116.5625,84.375,97.6875
101,1697610005,-1.4101562,-0.1796875,1.7939453,-466.5625,317.34375,90.0625
102,1697610045,-0.7001953,-0.5332031,0.07128906,105.5,-40.75,50.4375
103,1697610085,-0.18359375,-0.80566406,0.13378906,-43.0,-6.375,9.84375
104,1697610125,-0.013671875,-0.3984375,0.46191406,17.4375,-82.25,-55.375
105,1697610165,-0.75390625,0.21875,0.15917969,112.78125,-141.71875,-111.1875
106,1697610205,-1.9941406,0.4140625,-0.30664062,238.375,-231.0625,-154.5625
107,1697610245,-1.9941406,1.7324219,-0.6464844,-311.84375,13.1875,-11.5625
108,1697610285,-1.7861328,0.0029296875,-0.123046875,-6.4375,-45.15625,-55.28125
109,1697610325,-1.1787109,0.19628906,-0.3125,87.0625,-49.78125,-26.28125
110,1697610365,-0.36816406,0.5917969,-0.21289062,114.0625,-36.84375,10.15625
111,1697610405,0.33789062,0.5048828,-0.09863281,26.03125,53.0625,31.9375
112,1697610445,-0.42773438,-0.07324219,0.23730469,-9.59375,102.0625,51.59375
113,1697610485,-0.66503906,-0.6230469,0.3408203,-83.03125,67.9375,-12.71875
114,1697610525,-0.27539062,0.42871094,0.71484375,-65.5625,-59.5,-25.59375
115,1697610565,-1.9941406,1.2539062,-0.65527344,-50.625,-103.375,-23.59375
116,1697610605,-0.47753906,0.30664062,-0.25097656,-127.53125,121.65625,35.0
117,1697610645,-1.8339844,0.8359375,-0.41796875,-37.125,-42.28125,84.9375
118,1697610685,-1.5224609,0.12792969,-0.7011719,136.09375,56.40625,89.8125
119,1697610725,-1.3408203,-0.20898438,0.3310547,78.21875,126.96875,109.15625
120,1697610765,-1.2539062,-0.24707031,0.4794922,-59.40625,-25.8125,58.4375
121,1697610805,-0.51953125,-0.66308594,0.16308594,-68.625,6.71875,37.4375
122,1697610845,-0.1796875,-0.89453125,0.31835938,-39.15625,-30.125,-4.4375
123,1697610885,-0.24316406,-0.072265625,0.4873047,81.53125,-105.8125,-75.09375
124,1697610925,-1.3320312,0.14648438,-0.23828125,148.78125,-175.21875,-118.9375
125,1697610965,-1.9941406,0.6464844,-0.5126953,158.96875,-153.78125,-147.125
126,1697611005,-1.4658203,0.9121094,-0.0107421875,-243.84375,246.0,-56.625
127,1697611045,-1.7822266,-0.28320312,-0.3076172,125.28125,-70.21875,-25.3125
128,1697611085,-0.7158203,0.4013672,-0.24511719,123.34375,-61.5625,-12.96875
129,1697611125,0.07910156,0.7626953,-0.29492188,117.96875,-33.125,31.28125
130,1697611165,0.3310547,0.671875,-0.10253906,-26.09375,83.28125,39.15625
131,1697611205,-0.55859375,-0.3154297,0.5654297,7.84375,88.46875,47.875
132,1697611245,-0.8232422,-0.96777344,0.11621094,-120.3125,34.375,-56.3125
133,1697611285,-0.47265625,0.63183594,-0.72558594,42.8125,-52.15625,-26.9375
134,1697611325,-1.9941406,1.7919922,-0.43554688,-164.21875,-103.1875,17.96875
135,1697611365,-0.9560547,0.59277344,-0.30273438,-35.59375,136.0625,83.46875
136,1697611405,-1.9873047,0.6015625,-0.37695312,68.21875,-22.0625,85.1875
137,1697611445,-1.6494141,0.034179688,-0.49414062,203.40625,90.96875,92.875
138,1697611485,-1.5527344,-0.07910156,1.6132812,-266.875,459.5625,125.09375
139,1697611525,-0.8417969,-0.5595703,0.14453125,72.1875,-29.21875,65.34375
140,1697611565,-0.234375,-0.79003906,0.296875,-65.625,-16.03125,21.21875
141,1697611605,-0.052734375,-0.77734375,0.3017578,64.0,-69.125,-44.65625
142,1697611645,-0.58496094,0.3046875,0.24316406,137.25,-146.09375,-102.03125
143,1697611685,-1.9941406,0.1953125,-0.41796875,292.03125,-310.34375,-151.03125
144,1697611725,-1.9941406,1.4208984,-1.3496094,-316.625,50.3125,-5.28125
145,1697611765,-1.8876953,0.26953125,0.025390625,-28.84375,-51.5,-90.78125
146,1697611805,-0.9355469,0.3544922,-0.3701172,161.90625,-72.25,-15.40625
147,1697611845,-0.18554688,0.83203125,-0.20800781,102.875,-23.65625,10.90625
148,1697611885,0.47460938,0.62109375,-0.115234375,-0.5625,71.5,34.5
149,1697611925,-0.19433594,-0.22851562,0.17089844,23.96875,76.5625,53.25
150,1697611965,-1.1279297,-1.0068359,0.65234375,-119.46875,43.46875,-49.15625
151,1697612005,-0.5908203,0.6484375,-1.2314453,-45.96875,-60.78125,-74.90625
152,1697612045,-1.9941406,1.9521484,-0.265625,-169.6875,-87.75,-12.46875
153,1697612085,-0.9169922,0.8173828,-0.24023438,-6.5,53.25,73.28125
154,1697612125,-1.7021484,0.71191406,-0.46289062,6.15625,5.8125,76.6875
155,1697612165,-1.8173828,0.015625,-0.48535156,237.71875,70.625,106.65625
156,1697612205,-1.5087891,-0.5419922,0.68847656,-215.28125,462.125,198.28125
157,1697612245,-0.7910156,-0.40527344,0.33398438,87.25,-63.28125,55.09375
158,1697612285,-0.34277344,-0.66015625,0.123046875,-81.0625,-20.25,16.15625
159,1697612325,-0.06542969,-0.6464844,0.36132812,38.5625,-89.875,-38.375
160,1697612365,-0.46972656,0.12792969,0.25390625,127.84375,-131.9375,-89.5625
161,1697612405,-1.9941406,0.13671875,-0.5625,321.5,-304.53125,-150.46875
162,1697612445,-1.9941406,1.7099609,-0.90234375,-207.53125,-29.21875,-35.96875
163,1697612485,-1.5976562,0.24414062,0.35058594,-86.15625,26.5625,-109.84375
164,1697612525,-1.4013672,-0.20214844,-0.38671875,188.5,-62.90625,-20.1875
165,1697612565,-0.28222656,0.8125,-0.27734375,135.28125,-49.3125,4.3125
166,1697612605,0.2685547,0.6298828,-0.20214844,63.5625,37.4375,25.46875
167,1697612645,-0.3173828,0.10546875,0.18164062,32.03125,87.90625,51.78125
168,1697612685,-0.9658203,-0.6748047,0.51171875,-51.21875,78.15625,-13.8125
169,1697612725,0.16503906,0.22070312,-0.6953125,22.25,-49.125,-30.25
170,1697612765,-1.7548828,1.1025391,-0.79589844,15.25,4.90625,-51.96875
171,1697612805,-1.1923828,0.20019531,0.0078125,-179.46875,172.5,36.84375
172,1697612845,-1.3408203,0.73046875,-0.26953125,-3.1875,-60.03125,61.4375
173,1697612885,-1.6416016,0.6279297,-0.66308594,108.1875,65.8125,80.53125
174,1697612925,-1.5019531,-0.08105469,-0.30078125,179.78125,40.59375,90.3125
175,1697612965,-1.4003906,-0.1875,1.2929688,-365.5,337.0,94.5625
176,1697613005,-0.67578125,-0.5859375,0.1171875,140.53125,-39.71875,58.0
177,1697613045,-0.17773438,-0.5966797,0.20214844,-64.34375,-11.15625,6.5
178,1697613085,-0.2861328,-0.40820312,0.39941406,46.84375,-82.625,-67.34375
179,1697613125,-0.8125,0.13378906,0.13769531,149.625,-122.0,-102.75
180,1697613165,-1.9941406,0.16210938,-0.3232422,280.125,-252.375,-150.1875
181,1697613205,-1.9941406,1.1933594,-1.4570312,-132.15625,68.0,-12.25
182,1697613245,-1.6953125,0.2626953,0.25683594,-54.84375,-9.1875,-87.0
183,1697613285,-0.8378906,0.34375,-0.40722656,134.1875,-53.9375,-9.5
184,1697613325,-0.15722656,0.70996094,-0.296875,111.375,-12.1875,15.78125
185,1697613365,0.25878906,0.6923828,-0.0068359375,-14.71875,70.34375,31.53125
186,1697613405,-0.35253906,-0.16699219,0.08203125,10.15625,84.4375,46.96875
187,1697613445,-0.8798828,-0.7548828,0.36132812,-107.9375,50.3125,-40.4375
188,1697613485,-0.7314453,0.5888672,-1.140625,6.9375,-60.40625,-59.40625
189,1697613525,-1.9941406,1.5205078,-0.32421875,-86.875,-73.59375,3.75
190,1697613565,-0.7705078,0.7138672,-0.29589844,-80.65625,83.6875,60.03125
191,1697613605,-1.9941406,0.68359375,-0.41308594,37.9375,-19.03125,75.90625
192,1697613645,-1.6201172,-0.026367188,-0.55859375,225.0625,109.875,93.59375
193,1697613685,-1.3505859,-0.08496094,0.85058594,-121.53125,365.5,124.0625
194,1697613725,-0.9423828,-0.30078125,0.16601562,67.71875,-48.8125,69.3125
195,1697613765,-0.40234375,-0.5917969,0.35839844,-100.5625,1.0,37.5
196,1697613805,-0.21972656,-0.9511719,0.24316406,19.9375,-61.125,-8.5625
197,1697613845,-0.6484375,0.021484375,0.28320312,109.34375,-113.1875,-102.75
198,1697613885,-1.9941406,0.27246094,-0.46972656,245.40625,-237.09375,-148.96875
199,1697613925,-1.9941406,1.828125,-0.6699219,16.09375,-99.53125,-73.8125
200,1697613965,-1.7373047,0.30078125,0.5371094,-43.84375,164.625,-87.96875
201,1697614005,-1.25,0.20214844,-0.31054688,116.3125,-71.40625,-27.75
202,1697614045,-0.40820312,0.5751953,-0.26171875,96.84375,-34.90625,-10.59375
203,1697614085,0.36132812,0.6582031,-0.38671875,41.84375,30.46875,18.21875
204,1697614125,0.3408203,0.53222656,0.10058594,-64.21875,60.9375,43.84375
205,1697614165,-0.7919922,-0.796875,1.0283203,60.03125,57.03125,14.5625
206,1697614205,-0.92871094,-0.53515625,0.43066406,-163.0,-32.40625,-84.125
207,1697614245,-1.9941406,1.4570312,-0.5732422,-87.25,-138.46875,-73.28125
208,1697614285,-0.57714844,0.99121094,-0.31835938,-79.1875,127.15625,40.8125
209,1697614325,-1.6357422,1.1054688,-0.44335938,-36.03125,5.5625,83.40625
210,1697614365,-1.6904297,0.35546875,-0.6660156,107.75,39.3125,87.3125
211,1697614405,-1.2392578,-0.6376953,1.0859375,188.8125,58.96875,122.21875
212,1697614445,-0.83984375,-0.6689453,0.80371094,-222.5625,2.15625,20.0
213,1697614485,-0.29003906,-0.5859375,0.072265625,68.875,12.28125,33.84375
214,1697614525,-0.29003906,-0.6591797,0.27539062,-65.28125,-17.25,-20.0625
215,1697614565,-0.05078125,-0.27148438,0.3310547,56.875,-76.9375,-70.84375
216,1697614605,-1.9414062,0.095703125,-0.29882812,225.6875,-224.59375,-171.25
217,1697614645,-1.9941406,1.5712891,-0.30664062,76.03125,-90.5,-133.9375
218,1697614685,-1.0048828,0.87890625,0.3154297,-161.8125,187.53125,-93.84375
219,1697614725,-1.5341797,-0.091796875,-0.30078125,128.6875,-53.5625,-10.40625
220,1697614765,-0.4296875,0.7890625,-0.296875,104.53125,-43.125,-4.71875
221,1697614805,0.6308594,0.73339844,-0.328125,26.71875,48.90625,40.5
222,1697614845,-0.123046875,0.046875,0.18652344,-14.84375,83.5625,70.53125
223,1697614885,-0.9199219,-0.7841797,0.3984375,-44.75,96.09375,7.78125
224,1697614925,-0.63378906,-0.47460938,-0.21875,-75.03125,-0.34375,-74.75
225,1697614965,-1.9941406,1.2832031,1.0927734,-54.96875,-76.8125,-88.59375
226,1697615005,-0.2939453,0.8017578,-0.38378906,-18.34375,-47.65625,16.375
227,1697615045,-1.4335938,1.4550781,-0.625,-116.78125,16.125,76.4375
228,1697615085,-1.8251953,0.41992188,-0.7675781,109.46875,25.78125,76.5625
229,1697615125,-1.6650391,-0.49414062,-0.28515625,229.34375,54.34375,108.0
230,1697615165,-1.015625,-0.45410156,1.1552734,-447.46875,35.34375,20.71875
231,1697615205,-0.5566406,-0.58203125,0.06542969,96.90625,0.1875,46.21875
232,1697615245,-0.28222656,-0.8261719,0.31347656,-120.6875,38.78125,-2.65625
233,1697615285,-0.08105469,-0.4248047,0.515625,-10.59375,-34.78125,-81.5625
234,1697615325,-1.8408203,0.24023438,-0.12695312,188.5625,-176.875,-156.78125
235,1697615365,-1.9941406,1.2871094,-0.0126953125,31.28125,-81.03125,-143.28125
236,1697615405,-1.2861328,1.0966797,-0.8496094,-258.15625,30.09375,-63.9375
237,1697615445,-1.7783203,-0.39746094,-0.1953125,29.21875,-27.9375,-35.75
238,1697615485,-0.7441406,0.5722656,-0.46289062,130.71875,-61.8125,-21.5
239,1697615525,0.5136719,0.83496094,-0.40527344,50.6875,-0.53125,25.71875
240,1697615565,0.27148438,0.4794922,-0.041992188,-56.65625,102.0,52.875
241,1697615605,-0.68359375,-0.45214844,0.34375,-62.71875,150.34375,12.46875
242,1697615645,-0.7011719,-0.640625,0.08105469,-137.46875,46.53125,-58.0625
243,1697615685,-1.9277344,0.7705078,-0.4404297,94.875,-23.78125,-64.25
244,1697615725,-0.5888672,0.84765625,0.31054688,-223.90625,9.25,-25.1875
245,1697615765,-0.72558594,1.4726562,-0.7158203,-105.4375,-18.0,35.5625
246,1697615805,-1.8916016,0.88964844,-0.86621094,7.65625,38.34375,67.15625
247,1697615845,-1.3994141,-0.23339844,-0.54785156,162.28125,22.53125,114.03125
248,1697615885,-1.5068359,-0.66503906,-0.05859375,-397.78125,352.375,120.6875
249,1697615925,-0.81347656,-0.57421875,0.6357422,-330.78125,64.28125,22.0
250,1697615965,-0.50390625,-0.83984375,-0.052734375,17.625,5.28125,21.40625
251,1697616005,-0.16992188,-0.5566406,0.45214844,-64.65625,-7.25,-45.375
252,1697616045,-0.5253906,0.09375,0.35058594,55.15625,-71.625,-108.78125
253,1697616085,-1.9941406,0.3232422,-0.06347656,206.53125,-237.34375,-181.625
254,1697616125,-1.9941406,2.0078125,-0.66796875,-145.53125,-44.28125,10.46875
255,1697616165,-1.2373047,0.546875,0.20703125,-79.1875,5.09375,-59.0625
256,1697616205,-1.3095703,-0.33398438,-0.3876953,56.96875,-11.09375,-11.8125
257,1697616245,-0.4248047,0.58691406,-0.18457031,24.9375,-28.96875,-2.21875
258,1697616285,0.13183594,0.49023438,-0.140625,9.4375,11.8125,35.75
259,1697616325,-0.3408203,-0.057617188,-0.01171875,-33.78125,76.3125,47.46875
260,1697616365,-0.5332031,-0.38183594,-0.095703125,-97.625,57.4375,-11.8125
261,1697616405,-0.58203125,0.25683594,-0.9355469,14.125,3.9375,-21.8125
262,1697616445,-1.9941406,1.171875,-0.6035156,7.46875,-85.90625,-15.40625
263,1697616485,-0.23046875,0.11035156,-0.14355469,-252.40625,171.78125,37.03125
264,1697616525,-1.4785156,0.3876953,-0.30371094,-13.34375,-83.0,45.6875
265,1697616565,-1.6337891,0.2783203,-0.5546875,144.8125,61.65625,76.625
266,1697616605,-1.2861328,-0.14648438,-0.12597656,-2.28125,100.0625,83.65625
267,1697616645,-1.1171875,-0.61328125,0.9814453,-290.5,-40.75,31.21875
268,1697616685,-0.60839844,-0.7519531,0.06738281,-1.90625,6.84375,16.03125
269,1697616725,-0.1875,-0.6201172,0.6699219,-51.71875,-40.6875,-42.03125
270,1697616765,-0.6152344,0.030273438,-0.072265625,226.0625,-180.59375,-92.8125
271,1697616805,-1.9941406,0.2919922,-0.3359375,193.8125,-215.5625,-130.71875
272,1697616845,-1.9941406,1.4697266,-1.0966797,-251.3125,11.4375,4.25
273,1697616885,-1.5751953,0.33203125,0.08886719,-62.34375,-9.875,-68.8125
274,1697616925,-1.0615234,0.1484375,-0.29492188,81.6875,-36.125,-15.15625
275,1697616965,-0.24804688,0.6142578,-0.1875,80.71875,-17.5,10.71875
276,1697617005,0.2734375,0.5078125,-0.1640625,15.34375,55.5,41.03125
277,1697617045,-0.55859375,-0.19140625,0.30371094,4.625,93.46875,48.4375
278,1697617085,-0.9355469,-0.71875,0.10839844,-94.25,43.46875,-44.09375
279,1697617125,-0.49902344,0.4736328,-0.7392578,51.84375,-58.34375,-36.78125
280,1697617165,-1.9941406,1.3818359,-0.234375,-60.25,-36.53125,-14.5
281,1697617205,-0.61328125,0.5332031,-0.35058594,-118.625,51.34375,56.375
282,1697617245,-1.7382812,0.46679688,-0.5234375,43.0,-30.6875,64.53125
283,1697617285,-1.4257812,0.10449219,-0.5888672,165.5,86.875,85.125
284,1697617325,-1.4287109,0.05859375,0.8330078,10.46875,148.625,85.84375
285,1697617365,-1.1894531,-0.18554688,0.35839844,-65.8125,-16.21875,63.1875
286,1697617405,-0.5175781,-0.69140625,0.1875,-75.28125,10.75,49.46875
287,1697617445,-0.21289062,-0.9501953,0.3623047,-57.03125,0.4375,-3.8125
288,1697617485,-0.3564453,0.015625,0.59277344,70.90625,-83.40625,-96.03125
289,1697617525,-1.7431641,0.095703125,-0.37109375,340.0,-274.625,-134.90625
290,1697617565,-1.9941406,1.6279297,-0.8769531,15.25,-147.0625,-86.625
291,1697617605,-1.0595703,0.6357422,0.828125,-275.0625,273.28125,-123.4375
292,1697617645,-1.7441406,-0.36523438,-0.26367188,181.9375,-39.84375,-21.8125
293,1697617685,-0.5332031,0.8222656,-0.24023438,136.5,-55.84375,-4.5
294,1697617725,0.32910156,0.63378906,-0.12109375,81.15625,3.625,26.46875
295,1697617765,-0.16015625,0.29785156,0.12207031,15.1875,71.125,62.71875
296,1697617805,-1.0,-0.8496094,0.47265625,-46.03125,41.9375,-1.75
297,1697617845,0.4296875,0.33984375,-0.15136719,-147.71875,-57.78125,-52.8125
298,1697617885,-1.0820312,0.72265625,-0.53515625,104.65625,-51.25,-41.40625
299,1697617925,-1.578125,0.9785156,-0.25390625,-186.3125,-9.1875,42.28125
300,1697617965,-1.3818359,0.77246094,-0.23632812,-3.875,15.21875,59.21875
301,1697618005,-1.7929688,0.60839844,-0.5488281,71.5625,32.5625,96.09375
302,1697618045,-1.6943359,-0.055664062,-0.40527344,158.71875,84.0,79.4375
303,1697618085,-1.4345703,-0.068359375,1.6445312,-420.6875,177.4375,69.5625
304,1697618125,-0.61816406,-0.4951172,0.15527344,64.84375,10.34375,83.03125
305,1697618165,-0.20898438,-0.8388672,0.03125,-88.40625,-4.8125,45.0
306,1697618205,-0.091796875,-0.8232422,0.32226562,-27.0,-30.125,-35.5
307,1697618245,-0.39160156,0.107421875,0.30664062,101.28125,-90.375,-114.21875
308,1697618285,-1.9941406,0.09765625,-0.3173828,274.9375,-287.28125,-161.90625
309,1697618325,-1.9941406,1.9091797,-0.51660156,-58.625,-73.84375,-106.40625
310,1697618365,-1.609375,0.13671875,0.6142578,-177.8125,181.71875,-131.0
311,1697618405,-1.6962891,-0.26953125,-0.23632812,179.90625,-64.5,-20.53125
312,1697618445,-0.21582031,0.91308594,-0.28222656,168.875,-86.78125,12.0625
313,1697618485,0.61035156,0.84277344,-0.123046875,49.40625,24.875,57.71875
314,1697618525,0.013671875,0.27929688,-0.068359375,-31.625,115.1875,68.34375
315,1697618565,-1.0976562,-0.90527344,0.39941406,-35.96875,94.125,-2.90625
316,1697618605,-0.56347656,-0.3154297,-0.07910156,-102.125,-35.9375,-83.34375
317,1697618645,-1.8017578,1.9082031,-0.5126953,-325.875,-10.65625,-32.625
318,1697618685,-1.6259766,-0.0107421875,-0.09082031,99.84375,-46.625,-28.03125
319,1697618725,-0.85546875,0.5605469,-0.29785156,45.5,-56.8125,-31.78125
320,1697618765,0.22070312,0.66796875,-0.22753906,74.25,-17.9375,20.65625
321,1697618805,0.05078125,0.26171875,-0.09765625,12.5,67.59375,53.375
322,1697618845,-0.42382812,-0.5888672,0.5,6.375,71.6875,32.375
323,1697618885,-0.6484375,-0.30859375,0.46679688,-103.59375,-0.53125,-53.3125
324,1697618925,-0.60253906,0.3232422,-1.0078125,75.90625,-40.15625,-57.84375
325,1697618965,-1.9941406,1.4238281,-0.4736328,-68.375,-92.375,11.0625
326,1697619005,-0.86328125,0.70410156,-0.4267578,-22.25,39.625,64.4375
327,1697619045,-1.7480469,0.93066406,-0.66503906,42.28125,-5.34375,81.6875
328,1697619085,-1.6005859,0.17578125,-0.7939453,125.71875,88.21875,71.8125
329,1697619125,-1.1171875,-0.16503906,1.5058594,-6.5625,266.25,121.84375
330,1697619165,-0.953125,-0.5058594,0.37695312,22.4375,-37.9375,56.5
331,1697619205,-0.24609375,-0.7167969,-0.026367188,-31.6875,17.65625,32.1875
332,1697619245,-0.10253906,-0.6845703,0.48242188,-48.1875,-44.0,-48.125
333,1697619285,-0.36816406,-0.029296875,0.31152344,92.09375,-89.09375,-103.1875
334,1697619325,-1.9941406,0.033203125,-0.32421875,292.03125,-293.25,-178.9375
335,1697619365,-1.9941406,1.8173828,-0.6435547,-17.46875,-83.59375,-92.0625
336,1697619405,-1.4433594,0.6582031,0.8769531,-145.34375,216.6875,-148.46875
337,1697619445,-1.5498047,-0.16894531,-0.35351562,189.1875,-53.625,1.5
338,1697619485,-0.37109375,0.75,-0.26464844,101.78125,-33.1875,13.6875
339,1697619525,0.36816406,0.6699219,-0.16796875,26.78125,54.875,36.46875
340,1697619565,-0.18261719,0.36816406,0.09863281,-10.40625,73.625,70.65625
341,1697619605,-1.0791016,-0.8769531,0.5048828,-35.25,57.75,-0.34375
342,1697619645,-0.2529297,0.016601562,0.083984375,-195.15625,-51.1875,-73.15625
343,1697619685,-1.0488281,0.64746094,-0.58984375,136.28125,-41.1875,-36.46875
344,1697619725,-1.5498047,1.0029297,-0.35351562,-113.375,-30.3125,48.8125
345,1697619765,-0.8417969,0.7685547,-0.24902344,-85.90625,86.9375,35.6875
346,1697619805,-1.9941406,0.88671875,-0.5732422,-19.75,12.15625,62.59375
347,1697619845,-1.6259766,-0.20117188,-0.49121094,115.03125,45.125,82.4375
348,1697619885,-1.2167969,-0.38476562,1.296875,-406.75,322.03125,107.9375
349,1697619925,-0.88183594,-0.5703125,0.049804688,87.0625,-33.84375,61.0625
350,1697619965,-0.32128906,-0.7998047,0.26171875,-91.09375,35.53125,18.46875
351,1697620005,0.001953125,-0.5371094,0.36328125,5.46875,-63.34375,-68.15625
352,1697620045,-0.9296875,0.029296875,0.028320312,150.84375,-133.46875,-127.71875
353,1697620085,-1.9941406,0.40625,-0.23339844,154.9375,-159.40625,-171.1875
354,1697620125,-1.9316406,2.0078125,-0.68359375,-256.90625,4.40625,21.625
355,1697620165,-1.6269531,0.3330078,-0.24511719,-29.3125,-58.03125,-19.5
356,1697620205,-1.203125,-0.1796875,-0.38964844,6.375,-13.59375,-14.75
357,1697620245,-0.40039062,0.6269531,-0.22558594,75.78125,-20.78125,5.9375
358,1697620285,0.3388672,0.5878906,-0.2705078,-0.28125,58.25,37.8125
359,1697620325,-0.4345703,0.13378906,0.14160156,-32.1875,95.28125,65.28125
360,1697620365,-0.95410156,-1.0439453,0.23339844,-106.78125,65.8125,-27.75
361,1697620405,0.109375,0.39257812,-0.20214844,-116.53125,-78.40625,-34.21875
362,1697620445,-1.9941406,0.87402344,-0.63964844,136.375,-62.40625,-22.8125
363,1697620485,-0.62890625,0.25,-0.051757812,-265.46875,117.4375,14.5625
364,1697620525,-1.3427734,0.5283203,-0.21386719,-66.4375,-13.40625,40.125
365,1697620565,-1.5654297,0.609375,-0.53027344,82.8125,36.03125,74.90625
366,1697620605,-1.3300781,0.0009765625,-0.32421875,99.21875,68.8125,85.53125
367,1697620645,-1.1826172,0.119140625,0.921875,-238.78125,373.6875,82.4375
368,1697620685,-0.8408203,-0.42285156,-0.009765625,-36.78125,-37.46875,55.6875
369,1697620725,-0.3671875,-0.9785156,0.14355469,-101.78125,1.4375,27.0
370,1697620765,-0.3828125,-0.41015625,0.63964844,-21.375,-61.3125,-76.3125
371,1697620805,-1.1601562,0.046875,-0.095703125,140.0625,-163.5,-126.0
372,1697620845,-1.9941406,0.44726562,-0.22851562,170.09375,-151.78125,-164.53125
373,1697620885,-1.9941406,1.8857422,-0.87890625,-275.84375,29.6875,6.9375
374,1697620925,-1.6826172,0.12988281,-0.21484375,-25.0625,-38.3125,-18.15625
375,1697620965,-0.96777344,0.051757812,-0.33691406,35.625,-30.5625,-8.5625
376,1697621005,0.05078125,0.8574219,-0.19433594,77.96875,-28.0,23.53125
377,1697621045,0.48242188,0.50097656,-0.31152344,-36.875,91.3125,40.75
378,1697621085,-0.46875,-0.16992188,0.15039062,-10.65625,128.8125,55.5625
379,1697621125,-1.0439453,-1.0361328,0.099609375,-88.84375,85.65625,-52.53125
380,1697621165,-0.25390625,0.24511719,-1.1855469,-13.15625,-32.40625,-51.4375
381,1697621205,-1.9941406,1.6845703,-0.49804688,52.84375,-109.53125,-31.03125
382,1697621245,-0.20605469,0.5449219,-0.37402344,-170.875,76.875,17.0625
383,1697621285,-1.4707031,0.9042969,-0.6191406,-66.25,-25.1875,69.3125
384,1697621325,-1.4736328,0.20410156,-0.8847656,156.65625,62.40625,95.25
385,1697621365,-1.3408203,-0.38183594,-0.09472656,119.78125,81.0625,100.8125
386,1697621405,-1.0058594,-0.953125,0.9511719,-463.53125,26.6875,-0.75
387,1697621445,-0.44921875,-0.6074219,0.034179688,58.03125,7.53125,20.125
388,1697621485,-0.20898438,-0.6123047,0.5546875,-96.9375,-36.34375,-52.15625
389,1697621525,-0.546875,-0.1171875,0.15039062,129.96875,-107.71875,-109.71875
390,1697621565,-1.9941406,0.31933594,-0.1640625,238.3125,-217.3125,-169.46875
391,1697621605,-1.9941406,2.0078125,-0.7294922,-60.8125,-80.65625,13.75
392,1697621645,-1.2851562,0.4560547,0.45214844,-126.25,134.25,-98.1875
393,1697621685,-1.2578125,-0.06640625,-0.37304688,93.59375,-19.21875,-21.625
394,1697621725,-0.26660156,0.6513672,-0.23535156,63.34375,-19.09375,0.34375
395,1697621765,0.36914062,0.46679688,-0.2265625,8.9375,46.34375,28.90625
396,1697621805,-0.16503906,0.21582031,-0.0048828125,0.15625,77.78125,58.8125
397,1697621845,-0.9658203,-0.796875,0.4736328,-91.09375,93.46875,-11.3125
398,1697621885,-0.48339844,0.24121094,-1.1513672,-121.59375,-20.625,-65.8125
399,1697621925,-1.9941406,1.2705078,-0.3798828,112.78125,-89.34375,-14.3125
400,1697621965,-0.43164062,0.6435547,-0.2998047,-199.4375,69.28125,2.21875
401,1697622005,-1.5029297,1.125,-0.5214844,-80.71875,-10.1875,57.84375
402,1697622045,-1.7861328,0.47753906,-0.81640625,70.71875,54.53125,77.25
403,1697622085,-1.3798828,-0.44726562,-0.2529297,133.8125,48.65625,101.40625
404,1697622125,-0.7763672,-0.73339844,1.2578125,-554.96875,103.21875,20.53125
405,1697622165,-0.5517578,-0.46777344,0.171875,104.21875,6.65625,25.1875
406,1697622205,-0.20703125,-0.67871094,0.25878906,-128.0625,3.3125,-27.3125
407,1697622245,-0.19335938,-0.25390625,0.3017578,32.25,-71.75,-94.15625
408,1697622285,-1.6796875,-0.024414062,-0.083984375,100.875,-143.65625,-176.375
409,1697622325,-1.9941406,1.15625,0.0087890625,81.53125,-69.5,-181.78125
410,1697622365,-0.58496094,1.9873047,0.19335938,-261.5625,75.46875,-74.625
411,1697622405,-1.6630859,0.048828125,-0.4423828,11.6875,-0.78125,5.59375
412,1697622445,-1.0419922,-0.0390625,-0.2705078,-27.5,-14.4375,-4.125
413,1697622485,0.2529297,0.8544922,-0.35742188,38.125,-9.125,35.5625
414,1697622525,0.12988281,0.35546875,-0.061523438,-58.0625,95.0,56.4375
415,1697622565,-0.5625,-0.66796875,0.50390625,-73.875,50.0,24.3125
416,1697622605,-0.5136719,-0.03125,1.1552734,-210.96875,-13.03125,-59.65625
417,1697622645,-1.1464844,0.4658203,-0.6923828,42.21875,-84.09375,-40.25
418,1697622685,-1.6630859,1.1015625,-0.3984375,-131.6875,-74.6875,36.28125
419,1697622725,-0.9267578,0.47851562,-0.3857422,-114.46875,27.5,35.1875
420,1697622765,-1.8994141,0.60546875,-0.6513672,157.3125,5.34375,87.5625
421,1697622805,-1.3828125,0.009765625,-0.4453125,50.15625,97.90625,70.84375
422,1697622845,-1.0537109,0.20800781,1.890625,-186.65625,364.34375,107.15625
423,1697622885,-1.0351562,-0.53027344,0.140625,57.65625,-43.25,56.3125
424,1697622925,-0.515625,-0.9189453,0.27929688,-141.0625,-27.6875,-1.8125
425,1697622965,-0.28515625,-0.3486328,0.453125,34.03125,-104.71875,-86.40625
426,1697623005,-1.2001953,0.18066406,-0.15234375,208.84375,-184.3125,-117.09375
427,1697623045,-1.9941406,0.6074219,-0.43359375,141.09375,-155.6875,-122.21875
428,1697623085,-1.5576172,1.2441406,-0.73046875,-289.5,81.0625,-30.90625
429,1697623125,-1.7158203,-0.08984375,-0.109375,28.40625,-37.34375,-32.75
430,1697623165,-0.7109375,0.4140625,-0.29492188,74.5,-48.75,0.625
431,1697623205,-0.048828125,0.45214844,-0.171875,104.84375,-20.25,41.46875
432,1697623245,-0.059570312,0.3671875,-0.20800781,22.375,67.21875,52.9375
433,1697623285,-1.0332031,-0.32910156,0.40234375,12.625,71.78125,28.84375
434,1697623325,-0.70410156,-0.3408203,0.3701172,-140.96875,7.28125,-43.375
435,1697623365,-0.034179688,0.44921875,-0.49609375,50.03125,-7.96875,1.625
436,1697623405,-1.9941406,1.0761719,-0.31835938,18.71875,-80.96875,-9.375
437,1697623445,-0.57714844,0.119140625,-0.29882812,-151.9375,72.21875,38.3125
438,1697623485,-1.9755859,0.41503906,-0.51171875,112.46875,-49.78125,77.25
439,1697623525,-1.4765625,-0.08691406,-0.45898438,208.34375,76.75,77.0
440,1697623565,-1.2666016,0.1953125,1.6386719,-381.5625,182.625,38.65625
441,1697623605,-0.8701172,-0.4189453,0.29589844,75.125,-22.8125,45.8125
442,1697623645,-0.22753906,-0.6113281,0.203125,-42.0,-12.625,5.78125
443,1697623685,-0.08300781,-0.49804688,0.21582031,52.46875,-90.5,-49.40625
444,1697623725,-1.3505859,0.21191406,-0.24707031,247.21875,-180.59375,-100.0625
445,1697623765,-1.9941406,1.0332031,-0.5371094,-7.40625,-99.71875,-104.78125
446,1697623805,-1.2646484,0.6748047,-0.30371094,-138.34375,121.40625,-63.75
447,1697623845,-1.5654297,0.046875,-0.23730469,91.46875,-27.625,-36.96875
448,1697623885,-0.65234375,0.58984375,-0.25878906,105.125,-40.6875,-6.0625
449,1697623925,-0.234375,0.5078125,-0.12207031,108.75,-11.21875,31.71875
450,1697623965,-0.21679688,0.3671875,0.12207031,43.5,47.9375,59.28125
451,1697624005,-1.1826172,-0.8359375,0.8183594,-51.34375,-32.5,-0.8125
452,1697624045,0.0009765625,-0.095703125,-0.7675781,28.3125,-95.75,-19.5
453,1697624085,-0.55859375,0.48339844,-0.30371094,69.75,-31.65625,-38.84375
454,1697624125,-1.9941406,1.9492188,-0.53027344,-192.34375,-106.3125,14.375
455,1697624165,-0.9375,0.3779297,-0.27929688,57.78125,105.0,37.3125
456,1697624205,-1.3378906,0.23925781,-0.58496094,250.59375,45.5,89.6875
457,1697624245,-1.2919922,-0.4951172,1.2080078,25.1875,230.84375,101.03125
458,1697624285,-1.0429688,0.049804688,0.5107422,158.65625,-1.6875,49.34375
459,1697624325,-0.69628906,-0.24804688,0.6044922,-35.0,-26.84375,13.875
460,1697624365,-0.56152344,-0.44726562,0.15136719,78.53125,-100.9375,0.75
461,1697624405,-0.765625,0.005859375,-0.022460938,145.1875,-169.71875,-23.28125
462,1697624445,-1.4140625,0.14550781,-0.86816406,228.90625,-197.125,-45.625
463,1697624485,-1.9941406,0.57910156,-0.95214844,-16.8125,-95.625,-81.34375
464,1697624525,-1.1523438,0.6660156,0.77441406,-300.0625,138.875,-117.34375
465,1697624565,-1.4306641,-0.25976562,-0.36523438,97.15625,3.75,-30.0
466,1697624605,-1.0595703,0.33203125,-0.13085938,142.125,-23.96875,-10.46875
467,1697624645,-0.23632812,0.6152344,-0.21972656,127.90625,-15.1875,11.625
468,1697624685,-0.43066406,0.29882812,0.2734375,72.0,51.90625,30.0625
469,1697624725,-0.7607422,-0.080078125,0.29589844,3.40625,63.5625,3.375
470,1697624765,-0.20703125,0.17382812,-0.57910156,-7.15625,20.59375,-19.0
471,1697624805,-0.13378906,0.115234375,-0.41015625,79.09375,33.65625,-4.0625
472,1697624845,-1.9941406,1.171875,0.5390625,-64.40625,89.375,-52.03125
473,1697624885,-0.043945312,0.48632812,-0.49609375,-79.375,40.90625,35.75
474,1697624925,-1.1728516,0.5859375,-0.63183594,126.125,-50.875,34.875
475,1697624965,-1.71875,0.0078125,-0.6015625,204.5625,9.71875,41.40625
476,1697625005,-0.8642578,0.18066406,0.9296875,-4.96875,158.21875,57.03125
477,1697625045,-1.0029297,-0.34960938,0.53515625,-64.0625,26.25,25.40625
478,1697625085,-0.60839844,-0.2841797,0.23730469,8.40625,-17.6875,-15.96875
479,1697625125,-0.37695312,-0.29589844,0.16699219,-29.8125,-41.125,-50.625
480,1697625165,-0.77441406,0.25390625,0.328125,77.0625,-76.28125,-90.3125
481,1697625205,-1.7265625,0.43359375,-0.41601562,159.46875,-144.375,-83.34375
482,1697625245,-1.9814453,1.5371094,-0.16503906,-241.28125,117.21875,-33.0
483,1697625285,-1.5908203,0.107421875,-0.13085938,-25.40625,-25.90625,-25.78125
484,1697625325,-1.0732422,0.3701172,-0.22753906,-4.0625,6.84375,-17.96875
485,1697625365,-0.6308594,0.4765625,-0.017578125,-8.5,14.0625,-12.46875
486,1697625405,-0.16796875,0.37402344,-0.12597656,-14.4375,45.96875,19.1875
487,1697625445,-0.3232422,0.0009765625,-0.026367188,-34.875,69.34375,41.0
488,1697625485,-0.6591797,-0.5097656,-0.06640625,-25.71875,74.0,9.6875
489,1697625525,-0.5390625,-0.5917969,0.5859375,-156.03125,-0.78125,-43.125
490,1697625565,-1.7255859,0.5957031,-0.578125,91.15625,-36.65625,-48.96875
491,1697625605,-0.6640625,0.60839844,0.34375,-395.46875,-8.21875,-59.25
492,1697625645,-0.6904297,0.95214844,-0.43066406,-44.8125,-1.4375,3.9375
493,1697625685,-1.6064453,0.8457031,-0.6015625,-20.78125,25.59375,56.5625
494,1697625725,-1.0791016,-0.10546875,-0.50878906,101.78125,14.375,75.96875
495,1697625765,-0.87402344,-0.32714844,0.26171875,-28.40625,128.375,46.0625
496,1697625805,-0.7988281,-0.4326172,0.30273438,-371.53125,78.625,9.75
497,1697625845,-0.71777344,-0.8046875,0.33691406,-150.96875,17.96875,-17.5625
498,1697625885,-0.49902344,-0.12109375,0.27539062,5.71875,-51.4375,-79.75
499,1697625925,-1.1982422,0.26464844,-0.09863281,54.3125,-100.3125,-98.96875
500,1697625965,-1.9941406,1.1210938,0.04296875,-5.875,-31.46875,-110.25
501,1697626005,-0.8105469,1.8154297,-0.19921875,-232.875,0.5,-24.125
502,1697626045,-1.328125,0.19824219,-0.39160156,-64.21875,-1.9375,-10.71875
503,1697626085,-1.0390625,0.09863281,-0.21972656,-105.96875,31.21875,-8.5625
504,1697626125,-0.57421875,0.4169922,-0.35742188,-38.90625,-2.90625,5.28125
505,1697626165,-0.27929688,0.4658203,-0.041015625,-133.1875,52.875,3.3125
506,1697626205,-0.5126953,-0.053710938,0.07324219,-171.96875,51.21875,-2.28125
507,1697626245,-0.57128906,-0.64453125,-0.359375,-171.40625,66.71875,-49.03125
508,1697626285,-0.49316406,0.0703125,-0.4404297,-72.21875,-10.96875,-22.90625
509,1697626325,-1.9941406,0.9375,0.2607422,-45.6875,63.1875,-22.1875
510,1697626365,-0.703125,0.20605469,0.022460938,-209.3125,68.0,-21.9375
511,1697626405,-1.1435547,0.4013672,-0.38671875,-63.375,10.40625,12.90625
512,1697626445,-1.5087891,0.2890625,-0.53515625,-17.53125,-9.3125,50.5
513,1697626485,-0.8232422,-0.060546875,-0.41308594,15.46875,38.84375,48.75
514,1697626525,-1.0576172,-0.20703125,0.07128906,-230.5,54.28125,11.5
515,1697626565,-0.97265625,-0.18164062,0.28125,-128.125,26.875,8.9375
516,1697626605,-0.8339844,-0.39257812,0.12402344,-75.46875,12.65625,1.0
517,1697626645,-0.7285156,-0.20605469,0.5419922,-165.4375,2.71875,-61.4375
518,1697626685,-0.62597656,0.15527344,0.030273438,-22.59375,-58.4375,-83.90625
519,1697626725,-1.5722656,0.37890625,-0.31054688,38.125,-72.5625,-81.5625
520,1697626765,-1.828125,0.97753906,0.049804688,-164.875,58.84375,-54.21875
521,1697626805,-1.4550781,0.16894531,-0.037109375,-59.21875,-3.59375,-48.90625
522,1697626845,-1.2099609,0.18847656,-0.10449219,17.5,-18.90625,-0.53125
523,1697626885,-0.73535156,0.4638672,-0.1171875,30.625,-10.78125,11.75
524,1697626925,-0.30371094,0.3544922,-0.05859375,11.28125,20.96875,31.9375
525,1697626965,-0.44433594,-0.0625,-0.022460938,-21.375,56.40625,47.5625
526,1697627005,-0.7919922,-0.33496094,0.072265625,-55.875,53.25,30.71875
527,1697627045,-0.484375,-0.3408203,0.20410156,-46.78125,17.96875,-6.8125
528,1697627085,-0.84765625,0.38183594,-0.3779297,-27.0,-2.59375,-32.0625
529,1697627125,-1.5478516,0.79296875,-0.10546875,3.8125,-17.4375,0.46875
530,1697627165,-1.0126953,0.56933594,-0.1953125,-66.3125,-0.84375,23.09375
531,1697627205,-1.4882812,0.39453125,-0.4189453,-85.84375,1.53125,30.375
532,1697627245,-1.3984375,0.16015625,-0.59472656,109.84375,11.96875,74.5625
533,1697627285,-1.2207031,0.06542969,-0.2607422,63.5625,69.28125,72.125
534,1697627325,-1.2841797,0.51660156,1.8007812,-231.09375,330.15625,35.375
535,1697627365,-0.8417969,-0.6435547,0.1640625,-15.09375,3.1875,51.90625
536,1697627405,-0.35839844,-0.7890625,0.30664062,-92.5625,-17.75,-1.96875
537,1697627445,-0.5253906,-0.18261719,0.28515625,77.5,-103.8125,-67.46875
538,1697627485,-1.3154297,0.34765625,-0.17871094,166.0625,-157.9375,-113.9375
539,1697627525,-1.9941406,1.0957031,-0.7529297,97.5,-152.75,-100.875
540,1697627565,-1.0634766,0.5390625,0.2705078,-264.78125,200.15625,-75.65625
541,1697627605,-1.5195312,-0.099609375,-0.33398438,75.28125,-15.375,-34.40625
542,1697627645,-0.86816406,0.49902344,-0.10644531,83.71875,-40.75,-22.0625
543,1697627685,0.14453125,0.6142578,-0.107421875,81.8125,-32.28125,19.75
544,1697627725,-0.040039062,0.41210938,0.018554688,0.40625,43.90625,47.40625
545,1697627765,-0.66015625,-0.5703125,-0.18261719,-62.34375,83.6875,5.40625
546,1697627805,0.2109375,-0.037109375,0.77734375,-120.125,-22.5625,-13.28125
547,1697627845,-1.6542969,0.5751953,-0.5107422,125.46875,-52.59375,-26.9375
548,1697627885,-0.85058594,0.5175781,0.3466797,-392.0625,105.375,-12.78125
549,1697627925,-0.94921875,0.3828125,-0.38183594,26.90625,-29.21875,31.59375
550,1697627965,-1.7021484,0.47460938,-0.71875,191.375,40.0625,71.875
551,1697628005,-1.0908203,0.05859375,-0.20703125,67.90625,91.4375,80.90625
552,1697628045,-1.2333984,-0.14160156,1.3085938,-354.5625,134.71875,52.875
553,1697628085,-0.8066406,-0.55078125,0.16601562,16.6875,15.78125,47.625
554,1697628125,-0.5595703,-0.7158203,0.47265625,-85.28125,-15.4375,-7.96875
555,1697628165,-0.46484375,-0.13769531,0.4189453,45.8125,-111.625,-72.71875
556,1697628205,-1.4609375,0.20019531,-0.30371094,172.53125,-169.65625,-106.96875
557,1697628245,-1.9941406,0.5722656,-0.66308594,128.28125,-144.5,-108.6875
558,1697628285,-1.390625,1.3789062,0.4609375,-251.78125,206.25,-70.34375
559,1697628325,-1.4306641,-0.17285156,-0.35351562,55.65625,-16.8125,-9.4375
560,1697628365,-0.7832031,0.20996094,-0.23828125,73.53125,-11.625,-2.71875
561,1697628405,0.15527344,0.7714844,-0.25683594,63.34375,-3.9375,32.25
562,1697628445,-0.23242188,0.2265625,-0.013671875,15.1875,64.09375,52.53125
563,1697628485,-1.0498047,-0.54003906,0.41503906,-30.65625,72.96875,2.53125
564,1697628525,-0.109375,-0.038085938,0.16699219,-122.09375,-15.46875,-35.90625
565,1697628565,-0.44140625,0.45117188,-0.24902344,108.0,-37.625,-18.53125
566,1697628605,-1.9941406,1.6132812,0.34960938,-132.84375,47.3125,8.5625
567,1697628645,-0.22558594,0.21582031,-0.20898438,-124.96875,-13.03125,54.90625
568,1697628685,-1.8857422,0.8222656,-0.71484375,175.21875,-78.90625,83.28125
569,1697628725,-1.4287109,-0.10449219,-0.515625,164.53125,71.78125,89.1875
570,1697628765,-1.3271484,-0.13378906,1.0322266,-318.75,452.09375,132.0625
571,1697628805,-0.90625,-0.6845703,0.26757812,79.125,-49.25,66.625
572,1697628845,-0.4248047,-0.5292969,-0.045898438,-37.8125,-28.25,0.875
573,1697628885,-0.28222656,-0.42089844,0.3720703,-21.5625,-55.03125,-51.65625
574,1697628925,-0.8798828,0.052734375,0.08496094,147.5,-112.71875,-108.5625
575,1697628965,-1.9941406,0.10058594,-0.40820312,272.5,-204.5625,-126.125
576,1697629005,-1.9941406,1.6660156,-0.9111328,-127.46875,57.8125,-9.75
577,1697629045,-1.4423828,0.3515625,0.1328125,-83.875,7.21875,-52.53125
578,1697629085,-1.2148438,-0.064453125,-0.32128906,73.65625,-9.75,-6.9375
579,1697629125,-0.375,0.78125,-0.17285156,64.0,-12.96875,0.75
580,1697629165,0.3173828,0.671875,-0.08984375,2.53125,58.5,31.09375
581,1697629205,-0.41601562,-0.0546875,0.0126953125,-11.625,85.46875,56.78125
582,1697629245,-0.7861328,-0.8203125,0.21679688,-91.21875,66.125,-17.59375
583,1697629285,-0.7792969,0.2841797,-1.0566406,-47.375,-61.875,-71.8125
584,1697629325,-1.9941406,1.1787109,-0.3251953,5.34375,-52.84375,-34.8125
585,1697629365,-0.49121094,0.7470703,-0.25976562,-110.1875,123.84375,42.8125
586,1697629405,-1.6611328,0.71484375,-0.3779297,-71.96875,-2.4375,48.5625
587,1697629445,-1.6318359,0.25097656,-0.6347656,172.9375,41.21875,89.03125
588,1697629485,-1.3652344,-0.21875,-0.12988281,122.21875,82.0,93.78125
589,1697629525,-0.9658203,-0.48535156,0.94140625,-342.375,3.5,36.71875
590,1697629565,-0.48632812,-0.65527344,0.051757812,40.9375,17.21875,42.6875
591,1697629605,-0.17871094,-0.6621094,0.49023438,-77.65625,-4.375,-1.1875
592,1697629645,-0.45507812,-0.13574219,0.14941406,103.3125,-106.125,-66.5
593,1697629685,-1.6103516,0.09277344,-0.10839844,141.9375,-132.0625,-143.53125
594,1697629725,-1.9941406,1.4404297,-0.50097656,167.6875,-160.625,-132.65625
595,1697629765,-1.2714844,0.75390625,0.24511719,-234.46875,233.84375,-85.53125
596,1697629805,-1.4736328,-0.013671875,-0.40625,106.375,-41.25,-16.75
597,1697629845,-0.5644531,0.49609375,-0.29785156,60.34375,-22.25,-8.875
598,1697629885,0.42773438,0.6982422,-0.34960938,62.0625,10.625,35.0
599,1697629925,0.040039062,0.34277344,0.046875,-2.90625,44.75,63.5
600,1697629965,-0.90722656,-0.82714844,0.79296875,44.34375,26.6875,15.71875
601,1697630005,-0.9794922,-0.31835938,1.0214844,-130.9375,19.125,-79.625
602,1697630045,-0.71484375,0.88183594,-0.93652344,-4.96875,-99.34375,-50.8125
603,1697630085,-1.4824219,1.1191406,-0.61035156,-164.4375,-16.59375,0.9375
604,1697630125,-1.2255859,0.62890625,-0.23632812,-33.46875,38.34375,44.28125
605,1697630165,-1.6845703,0.6074219,-0.3828125,-14.5625,14.1875,77.25
606,1697630205,-1.5117188,-0.0107421875,-0.45214844,146.59375,63.4375,82.125
607,1697630245,-1.1699219,-0.46191406,0.6308594,-93.09375,323.6875,153.34375
608,1697630285,-0.7451172,-0.25390625,0.40039062,8.34375,-18.96875,41.96875
609,1697630325,-0.44140625,-0.6640625,0.14941406,-108.71875,-4.0,15.46875
610,1697630365,-0.35253906,-0.6074219,0.5136719,-25.28125,-56.75,-41.65625
611,1697630405,-0.7832031,-0.051757812,-0.030273438,154.59375,-150.375,-93.84375
612,1697630445,-1.9941406,0.21289062,-0.39160156,264.0,-230.6875,-161.09375
613,1697630485,-1.9941406,1.8408203,-0.85058594,-189.125,-32.625,26.75
614,1697630525,-1.4033203,0.3984375,0.09277344,-69.53125,-5.0,-57.59375
615,1697630565,-1.2783203,-0.15722656,-0.35253906,60.53125,-21.71875,-20.40625
616,1697630605,-0.32910156,0.5107422,-0.24023438,68.34375,-25.4375,-3.875
617,1697630645,0.45410156,0.4951172,-0.26171875,21.71875,30.90625,29.5
618,1697630685,-0.6123047,0.0107421875,0.14941406,41.84375,80.21875,51.0
619,1697630725,-1.0400391,-0.7871094,0.037109375,-77.46875,69.46875,-32.75
620,1697630765,-0.15429688,0.4423828,-0.22070312,-76.25,-90.5625,-34.75
621,1697630805,-1.9941406,1.1953125,-0.4013672,47.65625,-70.34375,-21.15625
622,1697630845,-0.36621094,0.4814453,-0.2607422,-223.34375,86.625,29.6875
623,1697630885,-1.7392578,0.64746094,-0.49902344,2.40625,-45.5625,71.0625
624,1697630925,-1.4628906,0.11328125,-0.7421875,215.0625,83.03125,83.65625
625,1697630965,-1.2519531,-0.16796875,0.0068359375,36.0,134.59375,94.5625
626,1697631005,-1.1484375,-0.29589844,0.53125,-117.09375,-22.9375,54.46875
627,1697631045,-0.5439453,-0.5703125,0.05078125,-33.46875,6.4375,36.65625
628,1697631085,-0.23046875,-0.7470703,0.5908203,-81.1875,-19.09375,-3.3125
629,1697631125,-0.6484375,-0.123046875,0.056640625,129.125,-133.15625,-71.9375
630,1697631165,-1.7041016,0.13378906,-0.17382812,206.59375,-179.96875,-138.15625
631,1697631205,-1.9941406,1.5429688,-0.8261719,116.0625,-165.375,-74.5
632,1697631245,-1.1484375,0.62402344,0.7001953,-192.21875,268.6875,-113.625
633,1697631285,-1.359375,-0.017578125,-0.2998047,108.5,-48.8125,-27.0625
634,1697631325,-0.6582031,0.42871094,-0.21386719,95.0,-34.90625,-13.28125
635,1697631365,0.25195312,0.625,-0.3388672,79.09375,-14.15625,32.6875
636,1697631405,-0.06933594,0.41992188,0.07128906,0.71875,46.21875,47.5
637,1697631445,-0.9580078,-0.7128906,0.32226562,-14.78125,47.1875,5.09375
638,1697631485,-0.037109375,0.18554688,0.6035156,-112.9375,-64.0625,-39.03125
639,1697631525,-1.4785156,0.8027344,-0.6279297,67.3125,-68.21875,-44.65625
640,1697631565,-1.0859375,0.5595703,-0.19921875,-255.53125,88.21875,23.21875
641,1697631605,-1.2900391,0.4375,-0.21191406,21.78125,23.28125,56.1875
642,1697631645,-1.6308594,0.5996094,-0.4658203,100.375,1.59375,86.875
643,1697631685,-1.4892578,-0.05078125,-0.3154297,163.0,53.5,77.25
644,1697631725,-1.1757812,-0.36621094,1.4404297,-384.375,135.28125,62.96875
645,1697631765,-0.5126953,-0.5830078,0.16308594,33.96875,18.9375,50.5
646,1697631805,-0.23632812,-0.6171875,0.41503906,-60.375,-0.28125,-1.0
647,1697631845,-0.2841797,-0.2421875,0.19921875,77.625,-94.9375,-51.0
648,1697631885,-1.4707031,0.14453125,-0.13378906,171.90625,-161.34375,-114.65625
649,1697631925,-1.9941406,0.40039062,-0.42089844,199.5,-159.34375,-128.875
650,1697631965,-1.6845703,1.2753906,-0.96484375,-249.21875,113.1875,-16.21875
651,1697632005,-1.9003906,-0.25390625,-0.18847656,71.625,-13.40625,-33.53125
652,1697632045,-0.8984375,0.5078125,-0.3623047,137.3125,-53.5,-13.28125
653,1697632085,0.25976562,0.890625,-0.19726562,129.6875,-37.28125,23.59375
654,1697632125,0.3564453,0.7207031,-0.045898438,-8.09375,71.125,34.5625
655,1697632165,-0.50878906,-0.21972656,0.4765625,-4.53125,104.09375,43.78125
656,1697632205,-1.0957031,-1.0097656,0.60253906,-84.875,59.90625,-37.09375
657,1697632245,-0.234375,0.22265625,-0.7246094,-59.21875,-84.34375,-63.15625
658,1697632285,-1.9941406,1.3457031,-0.6152344,-14.0,-92.875,-34.28125
659,1697632325,-0.43945312,0.5996094,-0.12988281,-109.75,25.90625,21.28125
660,1697632365,-1.7412109,1.1025391,-0.51171875,-41.71875,-5.59375,59.40625
661,1697632405,-1.5429688,0.4658203,-0.79003906,118.75,46.71875,91.34375
662,1697632445,-1.7617188,-0.3203125,-0.21582031,216.46875,58.6875,80.21875
663,1697632485,-1.2236328,-0.40527344,1.1865234,-379.34375,32.78125,26.875
664,1697632525,-0.40039062,-0.6347656,0.068359375,44.46875,7.96875,50.5
665,1697632565,-0.083984375,-0.95214844,0.171875,-34.4375,10.75,21.34375
666,1697632605,-0.10644531,-0.23339844,0.6386719,11.5,-58.34375,-77.375
667,1697632645,-1.2392578,0.059570312,-0.21289062,220.1875,-190.46875,-125.8125
668,1697632685,-1.9941406,0.47851562,-0.3388672,154.40625,-134.0,-142.4375
669,1697632725,-1.8476562,1.5302734,-0.95410156,-279.3125,78.9375,-11.6875
670,1697632765,-1.7998047,0.021484375,-0.14257812,28.53125,-40.9375,-29.625
671,1697632805,-0.92871094,0.453125,-0.2939453,51.125,-32.8125,-16.28125
672,1697632845,-0.046875,0.7783203,-0.14941406,74.5,-27.09375,18.40625
673,1697632885,0.29882812,0.63671875,-0.046875,-30.84375,74.40625,47.625
674,1697632925,-0.5527344,-0.37109375,0.21679688,-21.15625,95.34375,57.71875
675,1697632965,-0.6796875,-0.76171875,-0.14453125,-104.46875,56.40625,-35.1875
676,1697633005,-0.3828125,0.2265625,-0.890625,55.9375,-40.5625,-34.625
677,1697633045,-1.9941406,1.5322266,-0.4501953,-3.75,-99.71875,-27.875
678,1697633085,-0.6582031,0.48828125,-0.29492188,-166.71875,157.84375,37.3125
679,1697633125,-1.9287109,0.62109375,-0.40527344,23.0625,-39.78125,74.625
680,1697633165,-1.3662109,0.28710938,-0.58691406,144.1875,82.96875,74.5
681,1697633205,-1.3193359,-0.14941406,-0.04296875,35.875,129.28125,92.6875
682,1697633245,-0.9785156,-0.39941406,0.33691406,-131.625,-62.78125,31.53125
683,1697633285,-0.3857422,-0.8095703,0.037109375,-56.84375,7.40625,35.5
684,1697633325,-0.18652344,-0.8261719,0.48046875,-93.53125,-22.375,-21.875
685,1697633365,-0.51464844,0.08496094,0.46484375,82.5625,-80.5,-109.84375
686,1697633405,-1.9941406,0.02734375,-0.41992188,331.09375,-294.34375,-143.90625
687,1697633445,-1.9941406,1.7011719,-0.82714844,-48.53125,-76.9375,-34.8125
688,1697633485,-1.0908203,0.4765625,0.6386719,-140.28125,234.75,-113.4375
689,1697633525,-1.5166016,-0.024414062,-0.35839844,161.65625,-52.90625,-13.40625
690,1697633565,-0.47460938,0.7050781,-0.2998047,102.34375,-38.6875,-14.375
691,1697633605,0.35839844,0.71484375,-0.203125,49.71875,27.4375,19.3125
692,1697633645,-0.33203125,0.15722656,0.14257812,-1.4375,92.25,53.125
693,1697633685,-0.8925781,-0.59375,0.48242188,-76.5625,77.96875,0.15625
694,1697633725,-0.27246094,-0.037109375,-0.4140625,-61.59375,14.0,-36.96875
695,1697633765,-0.7783203,0.35546875,-0.21679688,21.40625,-11.34375,-30.5625
696,1697633805,-1.9941406,1.2128906,0.39648438,-152.375,-49.25,6.5
697,1697633845,-0.5810547,0.63183594,-0.2578125,-38.71875,26.4375,62.34375
698,1697633885,-1.9941406,1.0908203,-0.7734375,-32.5625,5.75,62.40625
699,1697633925,-1.4345703,0.03125,-0.7167969,80.71875,67.15625,68.6875
700,1697633965,-1.5283203,-0.515625,0.8779297,-223.96875,386.8125,157.875
701,1697634005,-0.9423828,-0.5859375,0.3359375,53.1875,-27.03125,62.78125
702,1697634045,-0.3935547,-0.6152344,0.13964844,-53.6875,0.03125,10.34375
703,1697634085,-0.09277344,-0.60253906,0.4501953,-20.59375,-59.625,-39.15625
704,1697634125,-0.48632812,-0.048828125,0.06640625,148.09375,-148.84375,-90.375
705,1697634165,-1.9941406,-0.07324219,-0.375,258.8125,-238.5625,-171.34375
706,1697634205,-1.9941406,1.8164062,-1.125,-215.78125,-13.65625,3.5625
707,1697634245,-1.6347656,0.46777344,0.75,-75.53125,87.40625,-106.21875
708,1697634285,-1.1367188,0.16308594,-0.37695312,108.8125,-51.625,-9.6875
709,1697634325,-0.09472656,0.8076172,-0.15136719,67.125,-18.96875,14.0625
710,1697634365,0.45703125,0.6875,-0.22460938,-8.4375,77.78125,39.6875
711,1697634405,-0.3388672,-0.03515625,0.20214844,-35.53125,70.75,73.75
712,1697634445,-1.2724609,-1.2021484,0.15625,-61.90625,78.8125,-20.0625
713,1697634485,-1.0478516,-0.026367188,0.78027344,-128.625,-91.90625,-58.5
714,1697634525,-1.6025391,0.9970703,-0.45703125,73.71875,-75.0625,-42.34375
715,1697634565,-0.66503906,0.78125,-0.3642578,-233.375,112.375,21.03125
716,1697634605,-1.7460938,0.95214844,-0.30273438,-75.28125,-7.65625,69.5
717,1697634645,-1.6083984,0.265625,-0.73535156,190.21875,50.4375,83.71875
718,1697634685,-1.6689453,-0.26953125,0.27539062,87.1875,86.09375,96.90625
719,1697634725,-1.1777344,-0.3984375,0.85546875,-222.9375,-24.40625,39.40625
720,1697634765,-0.3701172,-0.59375,-0.021484375,-2.78125,-1.09375,38.40625
721,1697634805,-0.15039062,-1.0791016,0.28320312,-53.90625,-7.4375,12.96875
722,1697634845,-0.31445312,-0.17089844,0.6230469,52.71875,-68.65625,-78.78125
723,1697634885,-1.1953125,0.17578125,-0.2841797,248.5,-246.3125,-111.1875
724,1697634925,-1.9941406,0.6152344,-0.46191406,131.375,-146.53125,-137.0
725,1697634965,-1.0722656,1.5419922,-0.11816406,-396.9375,146.125,-41.84375
726,1697635005,-1.5595703,0.14257812,-0.59765625,43.5,-52.53125,-3.15625
727,1697635045,-1.015625,0.08984375,-0.31933594,47.65625,-27.625,-25.125
728,1697635085,-0.049804688,0.69628906,-0.20507812,59.25,-14.09375,14.375
729,1697635125,0.5048828,0.6269531,-0.26660156,-22.0625,83.28125,46.65625
730,1697635165,-0.13183594,-0.0048828125,0.140625,-10.21875,87.59375,71.8125
731,1697635205,-0.98339844,-0.93066406,0.296875,-65.625,90.78125,-20.125
732,1697635245,-0.3984375,-0.125,-1.1992188,-66.3125,-74.375,-73.28125
733,1697635285,-1.9941406,1.4091797,-0.6542969,92.6875,-102.75,-46.65625
734,1697635325,-0.45996094,0.45507812,-0.12597656,-185.25,317.53125,-1.3125
735,1697635365,-1.4951172,0.90234375,-0.4248047,-67.53125,-83.78125,63.03125
736,1697635405,-1.6191406,0.4765625,-0.78222656,187.28125,67.28125,82.78125
737,1697635445,-1.0800781,-0.24707031,0.90527344,70.46875,111.46875,101.46875
738,1697635485,-1.0751953,-0.45507812,0.27929688,-99.28125,-53.09375,39.09375
739,1697635525,-0.34277344,-0.57910156,-0.07128906,-24.125,6.3125,38.46875
740,1697635565,-0.12011719,-0.77246094,0.32714844,-52.09375,-15.84375,-6.6875
741,1697635605,-0.3642578,-0.0703125,0.32226562,36.84375,-86.84375,-74.75
742,1697635645,-1.5654297,0.05859375,-0.038085938,125.71875,-149.21875,-144.25
743,1697635685,-1.9941406,0.72753906,-0.31835938,200.28125,-170.40625,-149.03125
744,1697635725,-1.7324219,1.3740234,-0.72753906,-235.125,86.5625,1.125
745,1697635765,-1.6220703,-0.0029296875,-0.34375,6.6875,-35.0625,-8.75
746,1697635805,-0.8359375,0.4892578,-0.23242188,40.0625,-36.125,-9.90625
747,1697635845,0.0859375,0.6347656,-0.2783203,63.5625,-9.0625,29.5
748,1697635885,0.65234375,0.6933594,-0.17773438,-79.1875,110.5625,38.3125
749,1697635925,-0.30664062,-0.19726562,0.18066406,-0.8125,74.0,67.53125
750,1697635965,-1.0986328,-1.2431641,0.33789062,-168.40625,48.65625,-45.0
751,1697636005,-0.53027344,0.11425781,-1.0546875,151.96875,-78.21875,-67.53125
752,1697636045,-1.9941406,1.4482422,-0.5371094,-27.1875,-130.09375,-16.375
753,1697636085,-0.96484375,0.81152344,0.13867188,-201.1875,176.46875,11.03125
754,1697636125,-1.8076172,0.6640625,-0.3408203,23.09375,-63.40625,80.96875
755,1697636165,-1.40625,0.32226562,-0.83691406,152.3125,78.5,71.625
756,1697636205,-1.3876953,-0.20019531,-0.09863281,121.625,114.15625,101.78125
757,1697636245,-1.0214844,-0.5751953,0.6064453,-263.5625,-89.03125,-1.125
758,1697636285,-0.059570312,-0.6328125,-0.026367188,-32.1875,-27.1875,20.78125
759,1697636325,-0.11230469,-0.5283203,0.31054688,-7.78125,-67.84375,-21.6875
