# Sensor type: Respeck
# Activity type: Sitting
# Activity subtype: Laughing
# Subject id: s2077483
# Notes: 
timestamp,accel_x,accel_y,accel_z,gyro_x,gyro_y,gyro_z
1695300373598,-0.24584961,-0.8899536,0.10369873,19.609375,-7.734375,4.515625
1695300373642,-0.31176758,-0.927063,0.11199951,12.15625,-22.265625,3.90625
1695300373687,-0.26245117,-1.1260376,0.023620605,20.359375,-3.390625,1.109375
1695300373717,-0.27416992,-0.94073486,0.07757568,-6.15625,-5.34375,-8.59375
1695300373763,-0.31640625,-0.9783325,0.12786865,1.8125,1.53125,-2.90625
1695300373793,-0.34179688,-0.99786377,0.08148193,-0.265625,0.234375,-2.171875
1695300373841,-0.32714844,-1.0100708,0.0836792,-1.546875,1.0,-1.4375
1695300373882,-0.3544922,-1.0291138,0.12738037,17.796875,-0.09375,-0.546875
1695300373914,-0.26513672,-0.9390259,0.015319824,-0.546875,-0.9375,-0.484375
1695300373959,-0.32421875,-0.9417114,0.07366943,-6.5625,-0.109375,-0.859375
1695300374039,-0.37231445,-0.9956665,0.13372803,1.578125,-1.75,2.546875
1695300374043,-0.40600586,-1.0171509,0.06829834,31.328125,-5.234375,-3.40625
1695300374112,-0.26391602,-0.991272,-0.062561035,17.296875,-1.28125,-0.625
1695300374118,-0.31225586,-0.9109497,-0.022521973,2.40625,-3.15625,-3.171875
1695300374184,-0.31225586,-0.8796997,0.039245605,-2.203125,-11.375,-3.546875
1695300374198,-0.4050293,-0.9649048,-0.0178833,7.53125,-18.296875,-8.28125
1695300374229,-0.34179688,-1.0935669,0.009460449,2.21875,-26.46875,-10.125
1695300374275,-0.36035156,-0.96710205,-0.066467285,-15.5,-12.359375,-8.984375
1695300374319,-0.35351562,-0.8508911,1.8310547E-4,-15.515625,-18.796875,-6.34375
1695300374364,-0.3239746,-0.9158325,0.038513184,-18.1875,-21.078125,-4.171875
1695300374394,-0.33764648,-0.8994751,0.06536865,-11.890625,-23.171875,0.65625
1695300374424,-0.55078125,-0.98394775,0.046081543,-9.203125,-26.1875,-3.703125
1695300374477,-0.4248047,-1.085022,-0.08428955,7.890625,-19.328125,-2.6875
1695300374514,-0.33666992,-0.86602783,0.018493652,-15.65625,-15.84375,0.875
1695300374558,-0.35253906,-0.93707275,-0.039855957,-2.890625,-17.21875,-1.578125
1695300374591,-0.32006836,-0.9690552,0.005554199,-18.984375,-21.515625,-2.546875
1695300374633,-0.30371094,-0.8779907,0.09979248,-15.4375,-24.265625,-2.03125
1695300374664,-0.4248047,-1.0073853,0.06536865,-15.453125,-25.921875,-1.734375
1695300374708,-0.43115234,-1.0286255,-0.031799316,-1.4375,-19.828125,0.125
1695300374740,-0.3647461,-0.94244385,-7.9345703E-4,-4.5625,-18.875,-0.75
1695300374783,-0.35986328,-0.88897705,0.04827881,-6.15625,-16.4375,-0.4375
1695300374828,-0.35473633,-0.95977783,0.066345215,-10.03125,-16.65625,1.515625
1695300374858,-0.33154297,-0.9451294,0.08514404,-11.265625,-20.46875,-0.96875
1695300374904,-0.31860352,-0.9619751,0.012634277,-11.921875,-21.515625,-1.03125
1695300374948,-0.36987305,-0.954895,0.0289917,-7.609375,-20.140625,-0.828125
1695300374981,-0.37817383,-0.89678955,0.08001709,-7.078125,-19.390625,0.921875
1695300375054,-0.42773438,-1.0127563,0.019470215,-9.4375,-15.921875,-3.53125
1695300375068,-0.37182617,-0.9446411,0.012634277,-0.203125,-4.96875,-1.40625
1695300375098,-0.35351562,-0.95635986,0.10418701,-7.046875,-6.65625,0.453125
1695300375159,-0.36694336,-0.92071533,0.0033569336,-5.453125,-4.671875,-0.40625
1695300375173,-0.36572266,-0.91412354,0.11053467,1.0625,-0.046875,1.78125
1695300375220,-0.38720703,-1.0164185,0.0018920898,-4.9375,4.171875,2.625
1695300375265,-0.39501953,-0.92193604,0.11004639,-0.359375,3.578125,0.71875
1695300375295,-0.3137207,-1.0317993,0.03265381,-6.671875,2.015625,-2.96875
1695300375338,-0.41430664,-0.9212036,0.086364746,-11.421875,7.65625,-6.515625
1695300375398,-0.34472656,-0.9751587,0.1642456,-20.140625,21.0,2.125
1695300375413,-0.47143555,-0.9690552,0.13128662,-18.90625,27.640625,7.203125
1695300375459,-0.3466797,-0.94732666,0.14447021,-11.875,27.15625,2.25
1695300375490,-0.35424805,-0.95562744,0.21673584,-1.234375,21.5625,-1.546875
1695300375534,-0.35302734,-0.9763794,0.11859131,-1.0625,25.484375,-3.34375
1695300375579,-0.32739258,-0.9561157,0.13250732,1.640625,28.671875,-3.609375
1695300375614,-0.35766602,-0.9014282,0.23968506,-0.421875,24.015625,-1.734375
1695300375653,-0.32641602,-0.940979,0.18304443,6.46875,18.90625,-1.421875
1695300375702,-0.33984375,-0.91534424,0.17474365,26.75,10.21875,-1.75
1695300375729,-0.33398438,-0.97857666,0.14837646,20.953125,-0.203125,-3.1875
1695300375774,-0.41137695,-0.9558716,0.07879639,9.109375,-11.578125,-10.75
1695300375804,-0.3334961,-0.9102173,0.1149292,35.015625,23.9375,-0.109375
1695300375850,-0.37158203,-0.9570923,0.082458496,8.96875,25.734375,-8.375
1695300375893,-0.3395996,-0.93707275,0.07269287,19.5,31.390625,3.0
1695300375925,-0.4597168,-1.0132446,0.038513184,25.890625,32.640625,1.90625
1695300376000,-0.39697266,-1.046936,0.042419434,10.609375,28.296875,-1.625
1695300376013,-0.37573242,-0.96832275,0.031188965,3.375,30.78125,-3.1875
1695300376047,-0.38134766,-0.93878174,0.031188965,12.0,31.484375,0.96875
1695300376119,-0.34838867,-0.98516846,0.13494873,9.9375,26.953125,1.0625
1695300376124,-0.5007324,-0.9805298,0.1305542,12.046875,22.15625,-1.421875
1695300376164,-0.3515625,-0.9036255,-0.1038208,0.28125,25.46875,-1.125
1695300376209,-0.22290039,-0.8262329,0.019714355,0.71875,24.96875,6.375
1695300376241,-0.49389648,-1.0042114,0.046325684,4.484375,23.75,6.078125
1695300376284,-0.34936523,-1.0127563,0.040222168,23.671875,15.609375,1.4375
1695300376331,-0.46313477,-1.1480103,-0.08428955,14.46875,15.578125,-3.578125
1695300376374,-0.26049805,-0.88775635,-0.07598877,-8.5625,15.90625,-3.578125
1695300376404,-0.27734375,-0.75860596,0.05267334,-0.109375,13.78125,2.734375
1695300376435,-0.4284668,-0.94854736,0.10321045,4.0625,8.4375,2.140625
1695300376488,-0.39404297,-1.0603638,0.036071777,4.9375,2.5625,3.09375
1695300376524,-0.3569336,-1.0652466,-0.105529785,9.171875,4.90625,-8.046875
1695300376554,-0.32470703,-0.90216064,0.05609131,-1.484375,2.734375,-4.453125
1695300376599,-0.4243164,-0.83917236,-0.054504395,-6.25,4.125,-4.3125
1695300376643,-0.3178711,-0.87506104,0.090026855,-5.59375,2.890625,-0.265625
1695300376674,-0.42895508,-0.98760986,0.03387451,-2.296875,0.796875,1.09375
1695300376720,-0.47973633,-1.0806274,-0.02130127,3.40625,1.5,-4.765625
1695300376750,-0.3779297,-0.9780884,-0.006164551,-0.859375,4.953125,-6.1875
1695300376796,-0.3701172,-0.8740845,0.11175537,-1.578125,2.46875,-8.5625
1695300376838,-0.38500977,-0.8740845,-0.004211426,-4.96875,-0.578125,-3.921875
1695300376872,-0.4255371,-0.87091064,0.07489014,-0.375,-1.84375,-1.640625
1695300376946,-0.48095703,-0.9837036,0.038269043,2.765625,0.875,-0.953125
1695300376959,-0.45629883,-0.9331665,0.12030029,-0.3125,-1.0,-0.703125
1695300376993,-0.36499023,-0.92437744,-0.004211426,-3.453125,-0.171875,2.4375
1695300377069,-0.4152832,-0.9036255,0.06317139,0.03125,-0.4375,1.484375
1695300377072,-0.41796875,-0.8994751,0.026062012,-2.28125,1.359375,2.328125
1695300377110,-0.46240234,-0.9690552,0.062438965,-2.359375,4.296875,1.25
1695300377154,-0.44677734,-1.0176392,0.03314209,-2.859375,3.71875,1.765625
1695300377183,-0.38549805,-0.8779907,0.06341553,-3.859375,2.90625,0.203125
1695300377248,-0.44921875,-0.93707275,0.11810303,-0.71875,1.421875,0.4375
1695300377274,-0.4169922,-0.96099854,0.07318115,-7.28125,-3.125,0.75
1695300377303,-0.42626953,-0.95196533,0.09222412,-1.890625,-4.1875,-1.6875
1695300377348,-0.46166992,-1.0523071,0.19036865,-10.578125,-3.0625,-0.578125
1695300377395,-0.46948242,-0.99298096,-0.0032348633,-13.703125,13.640625,-2.59375
1695300377425,-0.39770508,-0.8755493,0.17572021,-14.03125,11.75,-1.0625
1695300377468,-0.4091797,-0.861145,0.19573975,-19.875,8.140625,0.828125
1695300377504,-0.41333008,-0.9873657,0.13275146,-11.90625,9.96875,-0.875
1695300377545,-0.42163086,-0.9414673,0.199646,-7.46875,10.234375,-0.03125
1695300377588,-0.3935547,-0.9077759,0.1564331,-7.3125,6.28125,-0.90625
1695300377621,-0.41357422,-0.9365845,0.2020874,-5.78125,10.640625,-1.234375
1695300377665,-0.44213867,-0.9338989,0.24676514,-6.953125,10.421875,-0.515625
1695300377695,-0.4128418,-0.9019165,0.20574951,-5.1875,6.78125,-1.953125
1695300377740,-0.41674805,-0.9072876,0.21160889,-1.34375,2.6875,-0.703125
1695300377783,-0.39746094,-0.8735962,0.28851318,0.234375,-2.125,-0.171875
1695300377814,-0.40625,-0.85284424,0.17645264,16.453125,-13.15625,2.609375
1695300377891,-0.28515625,-0.8098755,-0.018859863,13.828125,-41.171875,10.96875
1695300377904,-0.39575195,-1.0120239,0.15692139,12.421875,-10.015625,-0.078125
1695300377935,-0.35205078,-0.87750244,0.2994995,-6.59375,-4.984375,8.078125
1695300377978,-0.4777832,-0.9678345,0.12615967,4.34375,0.28125,-0.28125
1695300378012,-0.4338379,-0.9795532,0.1473999,8.171875,5.75,5.140625
1695300378055,-0.43676758,-1.0171509,0.10467529,8.765625,5.671875,1.15625
1695300378098,-0.4008789,-0.9495239,0.10296631,10.125,4.90625,1.234375
1695300378128,-0.4116211,-0.9487915,0.11248779,10.28125,4.03125,0.5625
1695300378177,-0.3774414,-0.9668579,0.061950684,3.1875,5.984375,1.609375
1695300378219,-0.3840332,-0.8882446,0.07757568,0.734375,6.484375,2.734375
1695300378251,-0.35864258,-0.96539307,0.16864014,-0.28125,6.046875,5.359375
1695300378293,-0.36621094,-0.9951782,0.15130615,0.265625,0.234375,4.8125
1695300378323,-0.44580078,-0.9854126,0.17303467,-7.015625,-6.0,-1.3125
1695300378370,-0.3935547,-1.0244751,0.05609131,12.65625,-6.78125,-3.40625
1695300378414,-0.25683594,-0.89190674,0.01361084,-7.1875,1.96875,-4.640625
1695300378442,-0.30981445,-0.7163696,0.066589355,-19.421875,1.4375,2.515625
1695300378520,-0.47045898,-0.9944458,0.19720459,11.90625,4.984375,6.21875
1695300378534,-0.39575195,-1.1419067,0.08441162,8.84375,1.75,1.109375
1695300378564,-0.4506836,-1.0523071,0.046081543,-7.609375,-1.296875,0.625
1695300378610,-0.31933594,-0.8440552,0.086120605,-2.765625,-0.359375,-2.671875
1695300378654,-0.35327148,-0.8838501,0.1359253,-1.28125,2.8125,1.421875
1695300378685,-0.36499023,-0.9204712,0.08441162,-1.734375,1.671875,3.09375
1695300378730,-0.3955078,-1.0127563,0.13031006,1.03125,2.25,3.140625
1695300378758,-0.39208984,-1.017395,0.109313965,-8.359375,-5.90625,-2.84375
1695300378805,-0.38916016,-0.8718872,0.1786499,-6.125,1.46875,0.96875
1695300378881,-0.26733398,-0.9517212,-0.016418457,8.359375,6.953125,-1.125
1695300378888,-0.3779297,-0.87823486,0.19818115,-0.890625,8.015625,4.5
1695300378927,-0.32202148,-1.0261841,0.012145996,-1.515625,-4.359375,-5.390625
1695300378999,-0.4440918,-0.94781494,0.16033936,-1.03125,-4.671875,0.46875
1695300379003,-0.41430664,-0.9546509,0.09588623,0.46875,-3.5,0.90625
1695300379050,-0.41455078,-0.9644165,0.097839355,-1.578125,1.515625,1.265625
1695300379074,-0.30786133,-0.95147705,0.08734131,5.234375,6.3125,1.0625
1695300379135,-0.36914062,-0.9404907,0.15838623,-3.625,3.34375,0.28125
1695300379166,-0.3310547,-0.9458618,0.12689209,-0.40625,3.34375,0.9375
1695300379194,-0.41210938,-0.98931885,0.10003662,5.8125,4.296875,0.59375
1695300379242,-0.3918457,-0.97662354,0.16326904,-0.8125,2.6875,-0.625
1695300379284,-0.3305664,-0.8452759,0.1359253,-3.125,1.859375,0.734375
1695300379316,-0.3569336,-0.95440674,0.07757568,-1.1875,4.359375,2.140625
1695300379358,-0.3803711,-1.0112915,0.09222412,-0.328125,4.375,2.984375
1695300379388,-0.34204102,-0.95977783,0.11102295,-4.53125,4.578125,-1.1875
1695300379434,-0.3918457,-0.9631958,0.1281128,2.65625,1.3125,-0.40625
1695300379478,-0.38256836,-0.95025635,0.085876465,6.9375,3.0625,-1.625
1695300379510,-0.3557129,-0.95562744,0.081970215,-0.265625,4.140625,-0.984375
1695300379554,-0.31103516,-0.8899536,0.059753418,0.421875,1.671875,-0.578125
1695300379661,-0.34936523,-0.9487915,0.13690186,2.53125,-0.25,2.59375
1695300379666,-0.42114258,-0.96295166,0.12371826,3.828125,2.484375,0.3125
1695300379675,-0.3786621,-1.0491333,0.105895996,2.640625,2.921875,0.296875
1695300379719,-0.33447266,-0.8735962,0.1251831,1.375,1.390625,-1.734375
1695300379766,-0.35229492,-0.944397,0.085876465,-1.265625,0.890625,1.5
1695300379795,-0.3449707,-0.91729736,0.03778076,-2.53125,0.484375,1.140625
1695300379823,-0.35913086,-0.99884033,0.05999756,-0.65625,3.046875,1.546875
1695300379868,-0.36108398,-0.99053955,0.09637451,-5.078125,0.734375,-1.703125
1695300379944,-0.3725586,-0.9299927,0.09686279,-0.203125,-2.046875,-0.5625
1695300379953,-0.37475586,-0.95562744,0.09686279,2.125,2.421875,-0.09375
1695300380006,-0.39160156,-0.9915161,0.09466553,-0.953125,1.84375,0.015625
1695300380020,-0.36987305,-0.9356079,0.10028076,-2.484375,2.625,-0.984375
1695300380063,-0.35839844,-0.93463135,0.10614014,-8.15625,-0.234375,-0.5
1695300380128,-0.3935547,-0.9380493,0.08929443,-0.078125,-0.140625,-0.140625
1695300380141,-0.3791504,-0.991272,0.11126709,3.171875,2.78125,-0.140625
1695300380187,-0.37719727,-0.960022,0.1227417,-0.46875,0.765625,0.734375
1695300380230,-0.33618164,-0.90045166,0.046569824,-1.1875,3.46875,1.234375
1695300380259,-0.35595703,-0.9470825,0.055358887,1.71875,5.265625,1.5625
1695300380308,-0.38110352,-0.9697876,0.08807373,2.421875,2.578125,1.359375
1695300380337,-0.34375,-0.9505005,0.09954834,1.171875,3.671875,1.125
1695300380382,-0.34887695,-0.92193604,0.10321045,2.6875,4.0625,-0.578125
1695300380423,-0.36865234,-0.94732666,0.101257324,-1.5,3.078125,0.0
1695300380455,-0.3371582,-1.003479,0.15032959,-11.234375,4.171875,-0.53125
1695300380499,-0.40698242,-1.0579224,0.22796631,-12.0,5.65625,-0.484375
1695300380544,-0.4169922,-0.986145,0.21844482,-28.375,6.6875,-2.109375
1695300380575,-0.32055664,-0.9273071,0.06097412,-17.515625,3.53125,-4.34375
1695300380618,-0.37670898,-0.88604736,0.2243042,-13.28125,3.671875,-5.140625
1695300380651,-0.39624023,-0.9404907,0.23406982,-9.671875,4.671875,-2.625
1695300380694,-0.4182129,-0.9627075,0.20672607,-14.921875,8.4375,-4.59375
1695300380738,-0.40625,-0.91290283,0.17645264,-3.3125,6.296875,-5.75
1695300380770,-0.39282227,-0.91192627,0.28631592,-3.3125,0.28125,-1.453125
1695300380849,-0.3762207,-0.9402466,0.24041748,0.015625,4.6875,-0.9375
1695300380865,-0.38427734,-0.9351196,0.24847412,-3.671875,4.71875,-0.28125
1695300380894,-0.38354492,-0.9019165,0.21600342,0.03125,0.515625,1.5625
1695300380967,-0.36645508,-0.87628174,0.1564331,17.453125,-10.296875,3.078125
1695300380971,-0.29345703,-0.86065674,0.04119873,19.796875,-47.140625,7.015625
1695300381010,-0.45581055,-0.8296509,0.44329834,-20.46875,-43.828125,7.640625
1695300381083,-0.17797852,-0.90997314,0.13934326,-9.921875,-10.9375,8.046875
1695300381087,-0.52563477,-1.0408325,0.105651855,20.015625,5.0625,-1.78125
1695300381130,-0.36450195,-1.0408325,0.22576904,15.484375,6.515625,2.515625
1695300381173,-0.45214844,-0.9612427,0.23895264,-0.265625,4.125,2.953125
1695300381203,-0.2944336,-0.97979736,0.043151855,-6.859375,5.875,1.640625
1695300381251,-0.31982422,-0.895813,0.20770264,12.890625,3.375,-0.1875
1695300381280,-0.38085938,-1.0154419,0.066101074,9.734375,1.328125,1.109375
1695300381326,-0.4675293,-0.8862915,0.2218628,-4.859375,-0.796875,-2.734375
1695300381369,-0.4519043,-1.0713501,0.086364746,15.671875,-0.609375,-5.8125
1695300381400,-0.30541992,-0.8887329,0.008483887,-16.09375,0.75,-2.078125
1695300381446,-0.43579102,-0.9570923,0.09295654,8.21875,3.921875,-0.28125
1695300381488,-0.31689453,-0.9932251,0.1437378,-2.625,4.6875,2.359375
1695300381518,-0.48901367,-0.9512329,0.1786499,-2.296875,-2.5625,0.421875
1695300381565,-0.35986328,-0.97442627,0.1239624,9.375,5.0,-1.0
1695300381594,-0.37719727,-0.8850708,0.06561279,-13.421875,-1.296875,-3.453125
1695300381640,-0.3173828,-0.8513794,0.09466553,-7.8125,0.34375,0.375
1695300381721,-0.38720703,-1.0342407,0.03314209,6.859375,0.203125,-5.75
1695300381726,-0.47607422,-1.0098267,0.09686279,4.703125,-2.703125,-4.15625
1695300381791,-0.42260742,-0.9487915,0.1149292,3.4375,6.0625,-2.6875
1695300381803,-0.4013672,-0.975647,0.14129639,-6.0,2.140625,-2.328125
1695300381833,-0.3779297,-0.8320923,0.08441162,-3.078125,2.09375,-2.265625
1695300381880,-0.34594727,-0.8772583,0.15911865,-1.671875,-2.578125,0.640625
1695300381909,-0.46362305,-0.9751587,0.121032715,1.921875,-1.359375,-2.21875
1695300381953,-0.40795898,-0.9043579,0.1305542,-0.953125,-3.046875,0.125
1695300381998,-0.4663086,-0.95269775,0.13348389,3.75,-1.3125,-4.109375
1695300382029,-0.36450195,-0.928772,0.04925537,1.109375,-0.84375,7.296875
1695300382076,-0.40600586,-0.862854,0.10760498,0.375,-2.890625,11.765625
1695300382119,-0.3071289,-0.87457275,0.05706787,-10.875,11.1875,19.34375
1695300382149,-0.38354492,-0.99835205,0.036071777,1.890625,4.484375,16.5625
1695300382195,-0.3388672,-1.0652466,0.06390381,9.921875,18.59375,15.5
1695300382241,-0.40551758,-0.9763794,0.2062378,-2.984375,5.375,6.046875
1695300382270,-0.4086914,-1.0217896,0.093933105,0.53125,6.765625,-0.40625
1695300382313,-0.25439453,-0.9541626,0.058776855,1.453125,1.078125,-4.21875
1695300382343,-0.25170898,-0.9168091,0.07757568,-0.859375,0.453125,-2.28125
1695300382406,-0.34887695,-0.940979,0.04144287,0.515625,-4.984375,-0.953125
1695300382434,-0.2775879,-0.88238525,0.14984131,0.140625,-1.078125,0.578125
1695300382464,-0.37817383,-1.06427,0.08734131,3.078125,0.90625,-0.359375
1695300382514,-0.31591797,-1.045227,0.06781006,1.921875,-1.1875,-0.40625
1695300382553,-0.3161621,-0.9006958,0.13470459,-2.71875,1.3125,-0.28125
1695300382585,-0.33203125,-0.93218994,0.14007568,-7.4375,-3.3125,2.171875
1695300382630,-0.39331055,-0.9475708,0.07904053,-3.109375,-0.40625,1.078125
1695300382662,-0.3425293,-0.9221802,0.09686279,4.234375,2.703125,0.25
1695300382736,-0.37036133,-1.0396118,0.05316162,0.328125,2.34375,-2.40625
1695300382750,-0.32470703,-0.90875244,0.07513428,0.625,3.546875,-1.265625
1695300382783,-0.32983398,-0.95635986,0.0602417,-0.40625,2.015625,1.046875
1695300382857,-0.3395996,-0.94415283,0.15740967,-3.15625,0.890625,3.203125
1695300382870,-0.31860352,-0.9951782,0.10028076,0.6875,3.0,0.265625
1695300382900,-0.34765625,-0.97320557,0.09320068,0.828125,2.265625,-1.984375
1695300382943,-0.3059082,-0.92193604,0.07537842,2.59375,3.421875,0.28125
1695300383022,-0.35375977,-0.95098877,0.06561279,4.609375,-0.296875,-0.234375
1695300383025,-0.35131836,-0.93756104,0.14764404,-0.640625,-1.28125,-0.328125
1695300383063,-0.3466797,-0.95147705,0.124938965,-2.0625,-0.65625,0.65625
1695300383093,-0.33642578,-0.9717407,0.02142334,-0.890625,-2.984375,-1.03125
1695300383141,-0.34155273,-0.95025635,0.039001465,3.0625,-2.859375,-2.546875
1695300383185,-0.38208008,-0.9788208,0.022155762,-0.453125,-7.96875,-4.5
1695300383215,-0.31201172,-0.9859009,0.14178467,-4.875,-1.59375,-1.484375
1695300383259,-0.41577148,-1.0366821,0.20550537,-14.984375,6.90625,-1.0
1695300383288,-0.4091797,-0.913147,0.11566162,-18.203125,6.515625,-1.453125
1695300383334,-0.33911133,-0.97247314,0.17767334,-10.75,12.953125,2.578125
1695300383394,-0.3630371,-1.0083618,0.1918335,-6.765625,11.5625,2.640625
1695300383409,-0.37670898,-0.98760986,0.16107178,-8.703125,8.140625,2.375
1695300383469,-0.32763672,-0.93341064,0.1696167,-8.4375,8.265625,0.84375
1695300383500,-0.37402344,-0.90826416,0.2477417,-6.203125,8.53125,0.859375
1695300383529,-0.32617188,-0.90582275,0.2633667,-13.890625,9.015625,2.875
1695300383576,-0.32836914,-0.9026489,0.20428467,-7.453125,3.796875,-0.65625
1695300383604,-0.32714844,-0.925354,0.22869873,0.796875,0.28125,0.78125
1695300383681,-0.33520508,-0.8635864,0.1437378,26.171875,-21.640625,-1.203125
1695300383694,-0.27685547,-0.95684814,-0.13580322,22.734375,-52.890625,6.234375
1695300383725,-0.21728516,-0.8076782,0.12225342,20.8125,1.609375,4.203125
1695300383800,-0.34301758,-0.9546509,0.21942139,9.59375,2.3125,3.59375
1695300383814,-0.37890625,-1.022522,0.070251465,5.71875,3.34375,2.421875
1695300383844,-0.34375,-0.96295166,0.08929443,6.90625,5.40625,-0.234375
1695300383894,-0.35913086,-1.0422974,0.12054443,5.84375,4.03125,-2.859375
1695300383920,-0.3803711,-0.99005127,0.1329956,-3.296875,1.984375,-2.5
1695300383964,-0.36132812,-0.8928833,0.18865967,-6.875,-3.5,-2.859375
1695300384011,-0.31030273,-0.91485596,0.10662842,-0.421875,-3.890625,-2.09375
1695300384040,-0.35009766,-0.99542236,0.1281128,7.09375,-4.6875,0.609375
1695300384087,-0.27294922,-0.9854126,-0.020812988,1.6875,1.765625,1.15625
1695300384130,-0.4194336,-0.9180298,0.06048584,-4.671875,0.34375,-5.109375
1695300384157,-0.32226562,-1.0039673,0.094177246,-2.0,3.328125,0.421875
1695300384205,-0.42041016,-1.0342407,0.06097412,6.140625,3.859375,-3.671875
1695300384236,-0.40478516,-0.95635986,0.12567139,-2.921875,5.828125,-0.3125
1695300384278,-0.31835938,-0.8916626,0.08148193,-1.140625,2.4375,-1.390625
1695300384324,-0.3869629,-0.94244385,0.14349365,-4.921875,2.375,-0.5
1695300384355,-0.28173828,-0.90216064,0.039733887,-4.5625,2.46875,-0.0625
1695300384400,-0.39160156,-1.008606,0.06732178,4.21875,1.921875,-1.140625
1695300384444,-0.34545898,-0.95684814,0.117126465,0.78125,-3.328125,1.765625
1695300384474,-0.3713379,-0.98443604,0.074157715,-2.546875,-4.796875,-1.546875
1695300384518,-0.41430664,-0.8699341,-0.011291504,2.171875,1.75,-3.203125
1695300384548,-0.33203125,-0.958313,0.06512451,1.8125,3.03125,0.515625
1695300384593,-0.30859375,-0.89263916,0.09710693,-5.75,2.375,1.546875
1695300384642,-0.41625977,-0.96759033,0.11566162,-0.6875,2.53125,0.640625
1695300384669,-0.39941406,-1.0046997,0.13079834,-2.015625,-0.375,0.125
1695300384744,-0.38452148,-1.0200806,0.035827637,5.78125,-1.59375,-0.515625
1695300384761,-0.37719727,-0.91851807,0.024108887,0.90625,6.046875,0.390625
1695300384791,-0.30566406,-0.8911743,0.07635498,5.015625,-0.59375,-0.765625
1695300384850,-0.31518555,-0.9072876,0.09564209,-6.203125,-0.453125,1.15625
1695300384863,-0.36767578,-0.95684814,0.08123779,-1.15625,-2.3125,4.78125
1695300384926,-0.4423828,-1.0210571,0.07733154,2.671875,-0.703125,0.4375
1695300384954,-0.31860352,-0.9470825,-0.00592041,-2.828125,-1.796875,1.046875
1695300384983,-0.37548828,-0.9277954,0.086120605,-2.0,1.4375,-0.625
1695300385028,-0.27197266,-0.9146118,0.003112793,-1.1875,2.46875,1.125
1695300385076,-0.3239746,-0.91363525,0.1395874,-8.109375,0.0625,4.171875
1695300385103,-0.35498047,-0.97613525,0.11224365,-6.453125,-4.640625,2.15625
1695300385148,-0.35986328,-1.0090942,0.06121826,-2.265625,-5.15625,2.96875
1695300385194,-0.39575195,-0.97540283,0.008972168,5.890625,-3.828125,2.8125
1695300385223,-0.36083984,-0.86846924,0.12005615,-3.453125,7.4375,10.828125
1695300385284,-0.37817383,-1.0271606,0.035583496,4.234375,1.921875,3.390625
1695300385314,-0.28979492,-0.9805298,0.042663574,-0.0625,2.65625,5.53125
1695300385343,-0.30566406,-0.9805298,0.024353027,-1.359375,1.609375,1.84375
1695300385390,-0.27075195,-0.9234009,0.06878662,-2.546875,0.71875,0.921875
1695300385422,-0.3173828,-0.92681885,0.10101318,1.703125,-0.890625,4.078125
1695300385464,-0.34814453,-0.99786377,0.04876709,2.953125,2.03125,2.25
1695300385494,-0.2927246,-0.91412354,0.124938965,1.34375,2.84375,5.546875
1695300385540,-0.29907227,-1.0044556,0.09466553,-2.5625,-0.1875,1.953125
1695300385598,-0.24780273,-0.9636841,0.06976318,-6.28125,-2.46875,1.34375
1695300385615,-0.26049805,-0.95880127,0.021911621,-6.0625,-4.5625,-0.609375
1695300385687,-0.3161621,-0.9690552,0.073913574,2.21875,-5.953125,-0.359375
1695300385705,-0.33251953,-1.0159302,0.043395996,6.328125,-6.90625,0.28125
1695300385751,-0.3569336,-0.940979,-0.049621582,6.109375,-1.0,0.78125
1695300385777,-0.30444336,-0.9451294,0.016784668,2.671875,4.46875,1.296875
1695300385823,-0.2836914,-0.99053955,0.08050537,2.328125,1.453125,1.375
1695300385853,-0.3166504,-1.048645,0.08319092,11.828125,1.28125,5.375
1695300385901,-0.25219727,-0.9680786,0.062194824,5.484375,0.640625,0.671875
1695300385929,-0.32836914,-0.98931885,0.02532959,6.53125,-6.765625,-1.0
1695300385973,-0.31298828,-0.9365845,-5.493164E-4,7.78125,-3.796875,-0.734375
1695300386021,-0.34204102,-0.98565674,-0.024230957,0.5,0.84375,-0.71875
1695300386055,-0.29418945,-0.93341064,0.023864746,-1.5,1.921875,1.578125
1695300386093,-0.2927246,-0.89727783,0.06561279,-17.859375,4.046875,-5.84375
1695300386138,-0.2866211,-0.9924927,0.024597168,-7.203125,0.53125,-2.90625
1695300386171,-0.34423828,-1.1221313,0.07489014,7.875,-5.234375,2.125
1695300386213,-0.2697754,-0.89678955,-0.06524658,-5.515625,-5.9375,-3.375
1695300386243,-0.2746582,-0.89556885,0.014831543,0.484375,2.734375,-1.234375
1695300386289,-0.32910156,-0.94537354,-0.0044555664,-5.875,3.78125,-0.78125
1695300386335,-0.29858398,-0.95147705,-0.0134887695,-1.765625,5.421875,-0.953125
1695300386367,-0.3762207,-1.1067505,0.046813965,9.015625,-0.75,-0.3125
1695300386409,-0.29858398,-0.942688,0.00970459,-0.375,-1.421875,-2.9375
1695300386484,-0.2836914,-0.93634033,-6.1035156E-5,0.390625,2.296875,-1.09375
1695300386498,-0.3005371,-0.8862915,9.1552734E-4,-8.3125,2.984375,-1.453125
1695300386529,-0.30126953,-0.881897,0.08709717,-3.390625,4.21875,2.4375
1695300386607,-0.36645508,-1.0037231,0.093444824,2.1875,2.796875,0.859375
1695300386610,-0.39819336,-1.1150513,0.02947998,3.28125,-3.578125,-0.796875
1695300386653,-0.2607422,-0.9006958,-0.058166504,-1.734375,-0.3125,-0.578125
1695300386680,-0.3305664,-0.95098877,0.012634277,-2.28125,0.734375,0.859375
1695300386724,-0.30249023,-0.8989868,0.06072998,-3.671875,1.234375,2.046875
1695300386771,-0.35913086,-1.0488892,0.019958496,-6.53125,5.421875,1.109375
1695300386801,-0.37573242,-1.0855103,0.0138549805,-7.84375,15.703125,3.515625
1695300386845,-0.32373047,-0.9976196,0.10760498,-16.90625,14.265625,3.671875
1695300386873,-0.25195312,-0.8640747,0.055358887,-16.515625,13.78125,1.265625
1695300386919,-0.27807617,-0.9121704,0.16156006,-5.484375,10.0,3.8125
1695300386964,-0.33789062,-1.0603638,0.13568115,-3.671875,5.953125,3.234375
1695300386998,-0.30273438,-1.0159302,0.13348389,-6.3125,8.0,3.515625
1695300387043,-0.3227539,-0.97320557,0.15374756,-5.234375,7.640625,0.046875
1695300387086,-0.29711914,-0.9678345,0.12567139,-6.0625,7.671875,-2.4375
1695300387117,-0.3178711,-0.9536743,0.13690186,-7.0,6.609375,-2.0625
1695300387158,-0.3232422,-0.92559814,0.1293335,-4.734375,3.234375,-0.828125
1695300387188,-0.29833984,-0.9338989,0.10858154,-2.8125,1.9375,0.640625
1695300387234,-0.28515625,-0.93707275,0.12615967,2.328125,0.671875,2.25
1695300387287,-0.2763672,-1.0151978,0.13201904,1.828125,8.140625,0.546875
1695300387308,-0.27783203,-1.0044556,0.073913574,9.328125,2.28125,-0.65625
1695300387354,-0.2824707,-0.94659424,0.10076904,12.09375,-27.59375,2.328125
1695300387398,-0.3581543,-0.9812622,0.17645264,-0.203125,-53.96875,-2.015625
1695300387430,-0.19189453,-0.94366455,-0.08013916,12.109375,-2.015625,4.0
1695300387504,-0.35913086,-0.86676025,0.15985107,3.5,-2.5,-4.09375
1695300387507,-0.35498047,-1.0654907,0.07366943,6.21875,2.25,-0.75
1695300387585,-0.28125,-0.991272,0.012634277,6.453125,3.03125,-1.703125
1695300387594,-0.31713867,-0.99176025,0.09661865,3.21875,4.515625,-1.40625
1695300387624,-0.25439453,-0.98638916,0.008239746,0.078125,-1.421875,-3.6875
1695300387671,-0.34716797,-0.97979736,0.09222412,-4.84375,-2.9375,-4.765625
1695300387717,-0.32543945,-0.9590454,0.08782959,4.390625,0.390625,0.21875
1695300387745,-0.27026367,-0.9800415,-0.053527832,15.875,1.953125,5.578125
1695300387791,-0.24584961,-1.0171509,-0.03643799,7.5,-3.1875,2.625
1695300387818,-0.3178711,-0.94415283,0.048034668,8.65625,-4.34375,5.296875
1695300387864,-0.3232422,-0.942688,0.07537842,3.734375,-6.75,-0.15625
1695300387910,-0.3786621,-0.9819946,-0.0020141602,6.046875,-4.015625,-1.390625
1695300387942,-0.3022461,-1.0007935,-0.031311035,3.078125,-2.53125,-1.0625
1695300387998,-0.2841797,-0.94781494,-0.03326416,2.09375,-1.703125,2.46875
1695300388028,-0.3010254,-0.9944458,-0.0256958,4.28125,-3.484375,3.984375
1695300388059,-0.32373047,-1.0088501,0.0048217773,5.09375,-7.09375,0.5
1695300388121,-0.22363281,-0.9546509,-0.09844971,-1.1875,-12.40625,-1.703125
1695300388148,-0.24267578,-0.9338989,-0.08673096,-0.40625,-9.15625,-0.9375
1695300388179,-0.33666992,-0.9590454,-0.026672363,-3.515625,-6.015625,-1.59375
1695300388223,-0.3251953,-0.95928955,-0.013977051,-2.8125,6.0,0.28125
1695300388253,-0.30639648,-1.0169067,-0.11114502,-6.609375,6.0625,6.984375
1695300388300,-0.26464844,-0.9663696,-0.062072754,-4.109375,4.765625,5.265625
1695300388344,-0.24731445,-0.9702759,-0.032043457,3.203125,4.390625,4.234375
1695300388373,-0.23217773,-0.97540283,-0.051574707,2.09375,1.625,-0.4375
1695300388449,-0.2607422,-0.9607544,-0.016418457,-4.109375,1.53125,-0.953125
1695300388464,-0.3017578,-0.97052,0.015563965,0.21875,2.640625,-7.109375
1695300388495,-0.30419922,-1.0039673,-0.02154541,2.609375,-1.25,-3.46875
1695300388570,-0.29663086,-0.9282837,-0.04498291,-2.640625,2.3125,-4.4375
1695300388573,-0.29248047,-1.0200806,-0.008361816,-0.21875,-3.25,-3.703125
1695300388613,-0.31103516,-0.93951416,-0.07086182,3.984375,1.6875,3.640625
1695300388661,-0.28442383,-0.9585571,-0.014953613,-1.125,11.8125,7.984375
1695300388690,-0.23510742,-0.9849243,-0.027160645,-9.015625,8.78125,9.640625
1695300388766,-0.2980957,-0.97491455,0.004333496,-12.21875,5.703125,5.0625
1695300388771,-0.28393555,-0.99176025,-0.008117676,0.0625,2.875,0.84375
1695300388811,-0.26831055,-0.9451294,-0.026672363,5.8125,6.5625,-5.421875
1695300388854,-0.2770996,-0.95440674,-0.015930176,5.5,2.234375,-3.625
1695300388884,-0.28881836,-0.9702759,-0.046936035,5.140625,1.75,-0.734375
1695300388929,-0.2722168,-0.97979736,-0.020812988,3.53125,2.796875,-0.03125
1695300388975,-0.24658203,-1.0005493,-0.0037231445,0.78125,4.09375,0.9375
1695300389003,-0.27661133,-0.97979736,0.010925293,5.78125,1.25,-0.09375
1695300389052,-0.25439453,-0.9734497,-0.07281494,10.171875,5.796875,0.65625
1695300389080,-0.32128906,-0.97320557,-0.0071411133,5.78125,0.90625,1.359375
1695300389125,-0.2644043,-0.9612427,-0.028381348,7.171875,0.40625,1.921875
1695300389170,-0.2709961,-0.9373169,-0.06402588,0.078125,1.1875,1.28125
1695300389199,-0.29467773,-0.96051025,-0.042785645,-6.140625,0.8125,-0.234375
1695300389245,-0.27319336,-0.9841919,-0.0713501,-1.34375,-0.796875,-1.140625
1695300389292,-0.26831055,-0.9800415,-0.07574463,-0.25,0.640625,-2.859375
1695300389320,-0.2680664,-0.9170532,-0.07574463,-1.984375,0.609375,-3.546875
1695300389397,-0.3083496,-0.9800415,-0.066711426,-4.078125,-1.015625,-3.546875
1695300389410,-0.2915039,-0.9780884,-0.04888916,4.5625,-2.671875,-0.890625
1695300389440,-0.28857422,-0.9541626,-0.07891846,-4.15625,4.21875,0.375
1695300389515,-0.2980957,-0.9800415,0.011169434,-8.484375,1.5625,-1.3125
1695300389522,-0.28466797,-0.96832275,0.011169434,-6.140625,0.625,-0.390625
1695300389575,-0.3005371,-0.94659424,-0.031066895,-4.65625,0.75,-1.390625
1695300389605,-0.34643555,-0.9937134,-0.038879395,2.8125,-1.328125,-1.6875
1695300389634,-0.3112793,-0.9788208,-0.033996582,4.953125,1.484375,1.15625
1695300389679,-0.28393555,-0.9483032,-0.058898926,-5.671875,3.296875,1.046875
1695300389725,-0.27148438,-0.9714966,-0.01373291,-5.890625,1.375,1.0
1695300389754,-0.31298828,-0.9741821,0.0119018555,-4.78125,1.0,0.09375
1695300389799,-0.2998047,-0.97125244,-0.06793213,2.8125,2.21875,-1.421875
1695300389829,-0.29736328,-0.9692993,-0.04937744,0.578125,-0.71875,-1.140625
1695300389888,-0.3088379,-0.9492798,-0.049621582,3.390625,-0.8125,0.828125
1695300389925,-0.2927246,-0.9607544,-0.018859863,-0.5,2.390625,0.90625
1695300389949,-0.31469727,-0.9859009,-6.1035156E-5,-3.90625,1.53125,3.03125
1695300389995,-0.27929688,-0.987854,-0.025939941,-1.71875,1.15625,0.640625
1695300390053,-0.2878418,-0.9246216,-0.053527832,2.546875,0.71875,-1.90625
1695300390068,-0.32080078,-0.98687744,-0.0032348633,3.859375,-1.59375,-1.25
1695300390114,-0.28076172,-0.9614868,-0.06304932,2.25,0.515625,1.46875
1695300390189,-0.30151367,-0.9585571,-0.02935791,-2.8125,1.984375,0.1875
1695300390195,-0.26953125,-0.99005127,-0.026428223,-3.203125,0.8125,1.734375
1695300390234,-0.31030273,-0.9561157,-3.0517578E-4,1.0,1.296875,-0.546875
1695300390263,-0.31201172,-0.9805298,-0.04156494,1.859375,-0.90625,-1.640625
1695300390345,-0.31298828,-0.9758911,-0.047180176,2.515625,-1.453125,0.71875
1695300390355,-0.29492188,-0.9939575,-0.042541504,-3.90625,2.390625,0.875
1695300390401,-0.30029297,-1.0076294,-0.015930176,-26.65625,16.3125,3.71875
1695300390432,-0.32055664,-0.97003174,0.07659912,-20.015625,14.09375,4.625
1695300390459,-0.32495117,-1.0276489,0.043151855,-13.4375,12.828125,4.03125
1695300390503,-0.29125977,-0.97784424,0.117614746,-18.71875,9.28125,0.09375
1695300390548,-0.2919922,-0.9636841,0.13568115,-1.609375,10.90625,2.21875
1695300390579,-0.27246094,-0.97613525,0.08416748,-13.390625,7.21875,0.609375
1695300390626,-0.27978516,-0.973938,0.08319092,-8.8125,7.90625,-1.671875
1695300390669,-0.3059082,-0.9517212,0.21160889,-2.84375,7.75,1.546875
1695300390702,-0.23730469,-1.0098267,0.04949951,-1.328125,6.15625,0.34375
1695300390743,-0.28759766,-0.95513916,0.13568115,-2.0625,1.765625,0.484375
1695300390773,-0.2998047,-0.96295166,0.13568115,4.171875,-4.78125,-0.703125
1695300390823,-0.24438477,-0.9421997,0.09100342,22.234375,-21.75,-3.21875
1695300390863,-0.23095703,-0.9290161,-0.12799072,-2.390625,-47.5,3.328125
1695300390894,-0.21191406,-0.9475708,0.018005371,20.453125,0.46875,2.625
1695300390940,-0.29345703,-0.90411377,0.13568115,-6.859375,-4.890625,-3.140625
1695300390984,-0.32592773,-1.0601196,0.00970459,2.59375,3.40625,-0.25
1695300391014,-0.32666016,-1.0132446,0.11907959,3.1875,0.796875,-1.265625
1695300391058,-0.32128906,-1.031311,0.05609131,9.40625,5.40625,-1.890625
1695300391088,-0.27246094,-0.9729614,0.031188965,1.953125,1.75,-1.84375
1695300391134,-0.27197266,-0.928772,0.020690918,7.484375,3.796875,-0.140625
1695300391180,-0.26611328,-0.96221924,0.01727295,6.203125,5.328125,0.96875
1695300391210,-0.33496094,-0.9663696,0.07904053,-2.0,2.796875,-0.421875
1695300391286,-0.2878418,-1.0044556,-0.0049438477,3.484375,5.4375,2.125
1695300391300,-0.33691406,-1.0064087,0.02923584,6.8125,2.34375,2.5
1695300391330,-0.28930664,-0.9324341,-0.026916504,-0.578125,4.625,-0.53125
1695300391406,-0.27075195,-0.93634033,0.002380371,-2.625,3.125,-0.296875
1695300391412,-0.32495117,-0.96417236,0.082458496,2.375,1.625,-1.25
1695300391450,-0.32495117,-1.0794067,-0.007385254,9.75,-2.046875,1.4375
1695300391493,-0.27978516,-0.9788208,-0.051086426,-1.125,0.46875,-1.1875
1695300391526,-0.22143555,-0.86968994,-0.10235596,-4.640625,4.078125,-1.0
1695300391570,-0.28857422,-1.024231,-0.07208252,1.203125,2.65625,-1.625
1695300391622,-0.28442383,-0.94073486,0.03704834,0.4375,2.4375,-0.34375
1695300391643,-0.3317871,-0.9937134,0.0138549805,-3.1875,0.9375,-0.859375
1695300391688,-0.33398438,-0.9612427,0.03289795,1.03125,1.75,-2.015625
1695300391734,-0.31689453,-0.97662354,0.015075684,0.46875,0.65625,1.671875
1695300391766,-0.27929688,-0.940979,-0.032287598,1.71875,1.75,2.75
1695300391810,-0.27856445,-0.96759033,-0.04937744,5.890625,0.625,2.375
1695300391838,-0.28442383,-0.9470825,0.032409668,3.078125,4.171875,3.78125
1695300391884,-0.31225586,-0.98883057,0.0028686523,-0.296875,0.921875,1.828125
1695300391932,-0.2915039,-1.0281372,-0.023010254,1.625,-1.421875,-1.109375
1695300391960,-0.25097656,-0.9307251,-0.078430176,2.421875,1.921875,-4.359375
1695300392019,-0.3310547,-0.96295166,-0.03765869,2.515625,2.03125,-1.890625
1695300392034,-0.32226562,-0.9805298,-0.049865723,5.671875,-4.0,3.203125
1695300392081,-0.30981445,-0.97784424,-0.086242676,-1.75,2.53125,0.75
1695300392125,-0.25195312,-0.9949341,-0.027160645,-3.46875,4.1875,1.578125
1695300392155,-0.27001953,-0.9541626,0.0045776367,-6.671875,4.53125,-1.96875
1695300392199,-0.30664062,-0.9849243,-0.00982666,-3.390625,-0.6875,-4.28125
1695300392244,-0.29418945,-0.99420166,-0.0025024414,-3.34375,-0.890625,-4.203125
1695300392275,-0.28295898,-0.9324341,-0.021057129,-4.984375,-0.5,-4.890625
1695300392351,-0.41845703,-0.98638916,0.032165527,2.546875,0.40625,-0.59375
1695300392356,-0.31152344,-0.99176025,-0.027648926,-0.453125,1.859375,0.46875
1695300392424,-0.2619629,-0.89849854,0.0099487305,-2.15625,3.921875,2.34375
1695300392440,-0.25390625,-0.954895,0.016784668,-2.046875,2.09375,2.296875
1695300392470,-0.3359375,-1.0213013,0.05731201,-2.8125,2.34375,0.53125
1695300392515,-0.30517578,-0.9859009,0.029968262,3.96875,0.59375,-0.453125
1695300392559,-0.31396484,-0.9585571,0.015563965,-0.765625,-0.78125,-2.671875
1695300392589,-0.29956055,-0.97662354,0.012145996,2.21875,1.25,1.671875
1695300392633,-0.32788086,-0.98150635,-0.0154418945,-0.03125,8.578125,4.921875
1695300392664,-0.28759766,-0.9102173,-0.0020141602,-2.296875,4.484375,4.140625
1695300392711,-0.27294922,-1.0339966,0.008483887,-3.078125,1.953125,0.578125
1695300392756,-0.28466797,-0.9734497,0.027282715,-0.46875,1.484375,-0.84375
1695300392783,-0.2770996,-0.97735596,-0.015930176,1.765625,-0.203125,-1.890625
1695300392829,-0.31762695,-0.94488525,0.030944824,0.609375,1.1875,0.203125
1695300392874,-0.3239746,-1.0073853,0.0065307617,5.4375,0.265625,2.15625
1695300392918,-0.28881836,-0.93707275,0.008972168,2.15625,5.390625,1.3125
1695300392948,-0.2770996,-0.94317627,0.004333496,-4.046875,-0.1875,0.9375
1695300392995,-0.2680664,-0.95758057,-0.027160645,-6.734375,2.8125,-1.0
1695300393023,-0.31835938,-0.9927368,-0.0051879883,3.140625,-0.390625,-1.828125
1695300393071,-0.28881836,-0.9807739,-0.019836426,3.28125,2.28125,0.875
1695300393099,-0.31933594,-0.96661377,0.012878418,1.125,1.390625,0.578125
1695300393143,-0.27807617,-0.9451294,-0.02130127,1.046875,1.546875,1.59375
1695300393188,-0.27661133,-0.9627075,-0.030334473,-4.640625,-0.40625,0.265625
1695300393221,-0.2902832,-0.9920044,-0.016662598,-2.359375,1.5,-1.125
1695300393295,-0.2980957,-0.98565674,-0.0025024414,1.765625,0.28125,-0.9375
1695300393310,-0.31030273,-0.9570923,-0.0015258789,1.765625,0.078125,-1.21875
1695300393341,-0.30371094,-0.9758911,0.003112793,-0.578125,-0.578125,-1.359375
1695300393386,-0.3334961,-0.9639282,0.0036010742,1.515625,0.234375,-0.484375
1695300393414,-0.3059082,-0.97784424,0.0053100586,-2.5,0.90625,1.15625
1695300393474,-0.28125,-0.96466064,-0.022521973,-0.421875,3.09375,0.625
1695300393504,-0.2956543,-0.9717407,0.003112793,0.140625,-0.6875,1.921875
1695300393534,-0.3088379,-0.972229,0.0067749023,-0.453125,-1.125,1.421875
1695300393578,-0.3227539,-1.0037231,0.010437012,3.453125,-3.3125,4.484375
1695300393629,-0.3408203,-1.034729,0.030944824,-6.515625,8.96875,2.71875
1695300393654,-0.27172852,-0.94781494,0.055847168,-23.59375,14.40625,3.734375
1695300393700,-0.23925781,-0.92559814,0.036315918,-19.109375,2.265625,-1.203125
1695300393776,-0.28637695,-0.9956665,0.051696777,-6.75,-4.953125,-4.234375
1695300393779,-0.28808594,-0.97906494,0.06732178,-2.203125,-1.296875,-0.28125
1695300393817,-0.2685547,-0.9837036,0.1005249,-2.21875,-0.078125,-0.546875
1695300393849,-0.30517578,-0.98809814,0.10296631,-7.90625,5.625,0.671875
1695300393894,-0.25854492,-0.9619751,0.061706543,-9.34375,9.65625,0.671875
1695300393941,-0.32958984,-0.9480591,0.14105225,-6.3125,10.40625,3.84375
1695300393972,-0.32348633,-0.9883423,0.168396,-8.015625,14.3125,3.953125
1695300394013,-0.28808594,-1.006897,0.13201904,2.296875,10.484375,-4.0
1695300394045,-0.27905273,-0.9348755,0.1395874,1.015625,-0.59375,-3.0625
1695300394121,-0.28222656,-0.9505005,0.1642456,1.171875,6.484375,2.125
1695300394134,-0.30444336,-0.93756104,0.06732178,10.4375,3.78125,0.84375
1695300394166,-0.22045898,-0.954895,0.035827637,22.4375,-16.015625,-0.453125
1695300394239,-0.22045898,-0.8862915,-0.0635376,-8.8125,-54.390625,5.78125
1695300394254,-0.21240234,-1.0117798,-0.043273926,20.59375,2.953125,2.65625
1695300394287,-0.23144531,-0.9331665,0.11444092,-2.34375,0.953125,0.640625
1695300394328,-0.37524414,-1.0442505,0.08392334,4.640625,4.515625,2.3125
1695300394360,-0.26391602,-1.0037231,0.05706787,4.234375,4.0625,-1.171875
1695300394408,-0.26635742,-1.0100708,-0.0037231445,8.609375,5.046875,-2.484375
1695300394464,-0.28466797,-0.9763794,0.010681152,5.515625,6.890625,-3.71875
1695300394479,-0.29516602,-0.94610596,0.024597168,6.6875,6.125,0.5
1695300394525,-0.32592773,-0.94000244,0.026550293,5.328125,1.859375,0.890625
1695300394574,-0.3256836,-1.017395,0.06512451,12.9375,5.609375,5.03125
1695300394601,-0.19433594,-1.0435181,-0.12799072,0.59375,3.484375,-1.28125
1695300394644,-0.20532227,-0.9194946,-0.03375244,4.234375,7.453125,2.109375
1695300394673,-0.29418945,-1.0027466,-0.010314941,-20.078125,6.671875,2.859375
1695300394718,-0.24560547,-0.9121704,0.07147217,-7.296875,4.15625,0.953125
1695300394766,-0.29833984,-1.0889282,-0.014221191,8.703125,0.390625,-0.203125
1695300394793,-0.28222656,-0.9717407,0.017028809,-0.0625,-3.640625,-1.0
1695300394840,-0.2915039,-0.9170532,6.713867E-4,7.625,-8.3125,-5.140625
1695300394886,-0.22021484,-0.9927368,-0.07891846,4.640625,0.15625,-5.078125
1695300394916,-0.2680664,-0.94903564,-0.043029785,-12.09375,0.625,-4.171875
1695300394959,-0.21533203,-0.9937134,0.012878418,-11.265625,4.40625,-2.109375
1695300394990,-0.31323242,-0.9649048,-0.016418457,-6.15625,6.0,-6.15625
1695300395033,-0.3227539,-0.93634033,0.035583496,4.875,2.46875,-4.203125
1695300395082,-0.34448242,-1.0979614,-0.003967285,31.984375,-7.65625,-3.0625
1695300395110,-0.2824707,-0.84332275,-0.016174316,-17.640625,-4.640625,-0.34375
1695300395186,-0.34545898,-1.0864868,-0.14483643,6.34375,2.96875,-11.328125
1695300395200,-0.19067383,-0.86260986,0.094177246,-27.71875,-2.234375,-5.390625
1695300395229,-0.35668945,-0.97906494,-0.030578613,-4.34375,3.828125,-3.75
1695300395305,-0.29663086,-0.9212036,0.04901123,0.21875,2.984375,3.734375
1695300395308,-0.42333984,-1.0430298,0.061706543,5.84375,1.296875,2.40625
1695300395349,-0.37670898,-1.0090942,-0.050842285,11.625,1.015625,-1.296875
1695300395409,-0.390625,-0.9212036,-0.03741455,-9.828125,-3.625,-6.796875
1695300395423,-0.2783203,-0.8833618,-0.101623535,-15.953125,0.546875,-5.15625
1695300395468,-0.35351562,-0.9458618,-0.09039307,5.578125,2.953125,-4.046875
1695300395514,-0.3112793,-0.9734497,0.0021362305,-4.140625,9.84375,7.1875
1695300395543,-0.36206055,-0.9290161,0.101745605,0.8125,7.234375,4.859375
1695300395589,-0.41625977,-1.0545044,0.057556152,18.359375,-1.40625,1.421875
1695300395617,-0.36621094,-1.0115356,-0.012756348,6.9375,-3.015625,-2.640625
1695300395665,-0.32958984,-0.89923096,-0.12579346,3.171875,0.5,-5.796875
1695300395725,-0.27929688,-0.7954712,0.081970215,0.5,2.046875,5.109375
1695300395740,-0.30493164,-0.9927368,-0.09429932,0.4375,3.28125,5.546875
1695300395787,-0.32617188,-0.9678345,0.07098389,-2.4375,5.34375,7.46875
1695300395830,-0.32861328,-1.03302,-0.12896729,-5.59375,2.46875,0.53125
1695300395860,-0.36010742,-0.97540283,0.020202637,4.96875,-3.703125,-2.296875
1695300395903,-0.34643555,-0.94073486,-0.10821533,1.703125,1.734375,-1.53125
1695300395933,-0.34594727,-0.91656494,-0.08135986,12.796875,0.453125,-3.9375
1695300395980,-0.22924805,-0.9072876,-0.042053223,0.09375,2.765625,4.03125
1695300396022,-0.36499023,-1.0357056,-5.493164E-4,-2.828125,3.546875,4.65625
1695300396053,-0.32348633,-0.9158325,-0.07501221,-7.078125,3.53125,6.796875
1695300396133,-0.3010254,-0.97662354,-0.018859863,4.296875,-0.625,1.015625
1695300396144,-0.32421875,-1.0466919,-0.057922363,5.0625,0.40625,4.203125
1695300396176,-0.35253906,-0.93048096,-0.0076293945,-3.5,0.796875,0.171875
1695300396266,-0.27539062,-0.9290161,-0.046936035,-6.53125,3.65625,0.421875
1695300396269,-0.21508789,-0.85723877,0.02947998,-10.1875,3.875,6.6875
1695300396293,-0.37329102,-0.9837036,0.0040893555,-3.109375,2.0625,5.046875
1695300396338,-0.35668945,-1.0811157,0.046813965,13.34375,-10.4375,1.65625
1695300396372,-0.2397461,-1.0217896,-0.1687622,-8.734375,-0.984375,-4.109375
1695300396445,-0.28979492,-0.9104614,0.0033569336,2.28125,1.53125,-2.75
1695300396461,-0.29516602,-0.848938,0.018493652,-17.703125,-2.3125,-2.328125
1695300396490,-0.23461914,-0.9417114,-0.014221191,-7.375,0.875,1.53125
1695300396536,-0.3605957,-1.0281372,0.16986084,3.5625,-9.28125,4.46875
1695300396582,-0.34643555,-1.0820923,-0.12628174,10.421875,-3.109375,-0.734375
1695300396609,-0.29248047,-1.0222778,-0.037902832,-5.0,-0.140625,-3.328125
1695300396652,-0.3540039,-0.755188,-0.014953613,-15.234375,0.65625,-6.53125
1695300396685,-0.17602539,-0.8206177,0.034118652,-6.359375,3.46875,4.234375
1695300396729,-0.42407227,-0.9949341,0.1317749,4.90625,0.109375,1.765625
1695300396774,-0.35742188,-1.1392212,0.053894043,19.296875,-0.9375,3.1875
1695300396803,-0.2956543,-1.1130981,-0.11065674,-6.578125,-2.453125,-7.703125
1695300396850,-0.19604492,-0.8530884,-0.033996582,-3.03125,8.421875,-1.390625
1695300396892,-0.34423828,-0.8296509,0.034362793,-3.75,3.125,-2.1875
1695300396924,-0.29736328,-0.9126587,0.10028076,-5.34375,-2.640625,1.546875
1695300396969,-0.38452148,-1.1785278,0.010192871,12.8125,-0.125,1.546875
1695300397000,-0.36035156,-0.9915161,-0.0095825195,-5.5,0.46875,-0.71875
1695300397075,-0.26171875,-0.94732666,-0.012023926,0.15625,4.640625,0.15625
1695300397092,-0.3046875,-0.9060669,0.022155762,-6.796875,-1.375,-0.6875
1695300397120,-0.2697754,-0.91534424,0.020446777,0.0625,-3.78125,3.59375
1695300397197,-0.3605957,-1.0647583,0.008728027,11.46875,-3.359375,2.328125
1695300397240,-0.3100586,-0.9841919,-0.034240723,1.703125,-5.28125,0.328125
1695300397243,-0.28222656,-0.9612427,-0.027893066,0.359375,-2.546875,0.671875
1695300397287,-0.26220703,-0.9116821,-0.0725708,-1.28125,-4.203125,0.40625
1695300397365,-0.3400879,-0.9380493,0.08514404,-4.1875,-0.984375,1.578125
1695300397370,-0.35424805,-0.9446411,0.13250732,3.03125,-1.3125,6.625
1695300397404,-0.3088379,-1.1016235,-0.06378174,1.265625,8.171875,11.625
1695300397434,-0.3317871,-1.0505981,-0.027648926,-8.1875,13.234375,13.5625
1695300397480,-0.2397461,-0.8711548,-0.03643799,-11.078125,20.5625,11.515625
1695300397525,-0.16674805,-0.9277954,-0.03375244,-3.453125,15.484375,9.453125
1695300397553,-0.19042969,-0.95928955,0.07196045,-12.34375,6.203125,4.0
1695300397600,-0.23364258,-1.0278931,0.035095215,-3.390625,9.625,2.765625
1695300397628,-0.2019043,-1.0527954,0.007507324,-2.234375,2.53125,-1.203125
1695300397674,-0.18896484,-0.9849243,0.01751709,-4.90625,-0.84375,-3.703125
1695300397718,-0.24609375,-0.99420166,0.06390381,-1.796875,-1.328125,-2.125
1695300397750,-0.24072266,-0.96759033,0.0211792,-2.90625,0.421875,0.09375
1695300397794,-0.24609375,-1.005188,0.001159668,-6.09375,1.78125,2.421875
1695300397841,-0.21386719,-1.0523071,-0.035705566,18.5625,-29.390625,-5.09375
1695300397868,-0.17089844,-0.88238525,-0.022766113,9.359375,-11.421875,-2.90625
1695300397914,-0.2446289,-1.0230103,0.038513184,-9.0625,-1.15625,-14.4375
1695300397943,-0.3203125,-0.9624634,0.04534912,-1.046875,-1.296875,-6.15625
1695300397992,-0.2841797,-1.0444946,-0.08331299,-12.40625,-2.390625,-4.9375
1695300398062,-0.3076172,-0.9990845,0.05633545,-7.515625,3.234375,-1.28125
1695300398065,-0.29223633,-0.9585571,0.08538818,-2.59375,5.75,4.171875
1695300398138,-0.2763672,-0.97735596,0.10028076,-2.71875,5.765625,3.578125
1695300398153,-0.23925781,-0.99298096,0.08050537,2.71875,4.84375,2.765625
1695300398184,-0.17773438,-1.0264282,0.034851074,4.234375,4.140625,5.25
1695300398229,-0.2770996,-0.99468994,0.08123779,-1.375,1.46875,0.703125
1695300398258,-0.22070312,-0.9937134,0.029724121,5.28125,-2.375,-1.65625
1695300398304,-0.25512695,-0.94732666,0.04876709,0.625,-12.21875,-5.03125
1695300398349,-0.30151367,-0.9680786,0.054138184,11.03125,-11.59375,-6.9375
1695300398379,-0.31713867,-1.050354,-0.06109619,6.875,-2.84375,-5.5625
1695300398425,-0.2626953,-0.89141846,0.047302246,-4.359375,2.203125,-3.59375
1695300398468,-0.26293945,-0.9885864,-0.0071411133,-18.734375,2.4375,-2.453125
1695300398499,-0.25,-0.9248657,0.08856201,-13.109375,-3.828125,-6.875
1695300398543,-0.31420898,-0.97198486,0.094177246,-2.671875,-5.78125,-2.609375
1695300398575,-0.36987305,-1.0606079,0.059020996,12.609375,-8.765625,-1.5625
1695300398619,-0.2788086,-1.0286255,-0.032043457,23.796875,-8.890625,-0.65625
1695300398665,-0.27490234,-0.93585205,0.05340576,5.984375,-6.65625,-2.875
1695300398693,-0.24804688,-0.92559814,-0.06964111,7.0,-5.140625,-2.46875
1695300398739,-0.2770996,-0.940979,-0.030090332,-11.859375,0.46875,0.78125
1695300398784,-0.28515625,-0.9182739,-0.011291504,-5.453125,-1.0625,0.171875
1695300398813,-0.3984375,-1.0305786,0.046813965,-0.96875,-3.25,3.390625
1695300398860,-0.34716797,-1.0466919,0.023132324,13.359375,-1.953125,-0.359375
1695300398894,-0.38330078,-1.0066528,-0.06866455,-8.625,-2.453125,-5.421875
1695300398967,-0.22143555,-0.89190674,-0.03668213,0.34375,0.40625,-4.65625
1695300398982,-0.26489258,-0.9180298,-0.03741455,-6.921875,-6.890625,-4.421875
1695300399009,-0.22265625,-0.8882446,-0.074523926,-5.78125,-5.734375,-0.28125
1695300399089,-0.3203125,-0.98101807,0.0692749,-5.25,-8.15625,1.109375
1695300399099,-0.40942383,-1.0449829,0.0138549805,0.734375,-9.21875,-1.140625
1695300399135,-0.36987305,-0.98443604,0.01361084,-0.1875,-6.03125,-1.421875
1695300399190,-0.3408203,-0.973938,0.013366699,0.453125,-5.390625,-3.375
1695300399204,-0.31567383,-0.9536743,-0.0095825195,-13.28125,-8.765625,-2.71875
1695300399248,-0.2331543,-0.8369751,-0.09307861,-4.3125,-3.90625,1.03125
1695300399293,-0.42944336,-0.95391846,0.016540527,2.046875,-4.453125,0.5625
1695300399325,-0.29956055,-1.0186157,0.024597168,-2.0,-0.375,4.84375
1695300399373,-0.3618164,-1.0713501,-0.031799316,-5.796875,-0.34375,-1.921875
1695300399413,-0.2277832,-0.89434814,0.030700684,0.0,1.28125,-0.125
1695300399444,-0.32226562,-0.925354,0.02923584,-6.78125,-1.953125,0.296875
1695300399490,-0.3203125,-0.9570923,0.015563965,-1.859375,-0.375,4.796875
1695300399518,-0.37304688,-0.97003174,0.08709717,1.28125,0.375,5.5625
1695300399565,-0.3725586,-1.0681763,-0.0178833,3.65625,2.3125,5.234375
1695300399611,-0.31713867,-1.0239868,-0.031066895,-1.515625,2.46875,-1.8125
1695300399644,-0.28833008,-0.9348755,0.015808105,-6.4375,4.96875,-2.28125
1695300399684,-0.27539062,-0.92681885,-0.010314941,-3.015625,4.171875,-0.765625
1695300399730,-0.26098633,-1.0320435,-0.057434082,2.765625,7.390625,-2.953125
1695300399762,-0.3347168,-0.8328247,0.152771,-25.390625,0.59375,-8.5625
1695300399806,-0.25878906,-0.96343994,0.038269043,6.546875,4.90625,3.359375
1695300399837,-0.3786621,-1.0230103,0.06341553,2.75,8.6875,5.703125
1695300399879,-0.36523438,-1.1370239,-0.006652832,3.734375,8.109375,2.078125
1695300399924,-0.26660156,-0.8609009,0.028015137,-0.09375,9.90625,-0.375
1695300399954,-0.26123047,-0.92510986,0.012145996,5.234375,9.375,1.453125
1695300400031,-0.31347656,-0.93536377,0.04119873,-5.484375,7.65625,2.15625
1695300400044,-0.32006836,-0.99005127,-0.004699707,4.078125,9.75,2.484375
1695300400076,-0.31030273,-1.010315,0.024841309,-0.46875,10.40625,2.875
1695300400148,-0.28808594,-1.0022583,0.042907715,-3.578125,11.0,2.328125
1695300400163,-0.33862305,-0.9968872,0.08660889,-6.3125,14.265625,1.171875
1695300400196,-0.28173828,-0.9668579,0.08538818,-16.078125,14.421875,2.484375
1695300400239,-0.25854492,-0.92852783,0.13128662,-21.609375,9.0,1.90625
1695300400270,-0.27368164,-0.9993286,0.027282715,-10.0625,13.484375,0.515625
1695300400313,-0.28466797,-0.9768677,0.2008667,-3.390625,8.59375,0.515625
1695300400358,-0.31835938,-0.99786377,0.12298584,-2.859375,9.609375,1.171875
1695300400390,-0.2368164,-0.95391846,0.086120605,-8.75,3.046875,-0.484375
1695300400435,-0.34033203,-0.95562744,0.23895264,-7.296875,7.59375,1.0625
1695300400480,-0.26171875,-0.9751587,0.117126465,-9.734375,3.203125,-1.421875
1695300400512,-0.29125977,-0.97662354,0.16790771,-8.4375,-0.703125,-3.5
1695300400554,-0.30126953,-0.9470825,0.17962646,-0.734375,0.046875,-4.359375
1695300400584,-0.3071289,-0.9859009,0.19891357,3.796875,2.078125,-2.078125
1695300400628,-0.29516602,-0.9854126,0.18060303,-2.984375,3.390625,-0.4375
1695300400674,-0.28735352,-0.9734497,0.16571045,-3.1875,-0.140625,-1.5
1695300400705,-0.2697754,-0.90582275,0.23651123,-3.40625,-0.875,-2.453125
1695300400750,-0.31396484,-0.9585571,0.20648193,-3.109375,-1.625,-2.578125
1695300400828,-0.31469727,-0.9505005,0.14349365,0.890625,0.28125,-2.75
1695300400836,-0.34057617,-0.9470825,0.16082764,1.15625,1.078125,-1.359375
1695300400869,-0.32299805,-0.9517212,0.18084717,3.53125,2.484375,-0.59375
1695300400977,-0.32104492,-0.9661255,0.1984253,2.515625,0.46875,-0.234375
1695300400984,-0.28710938,-0.8711548,0.10443115,16.859375,-14.4375,3.078125
1695300400989,-0.22509766,-0.87750244,0.02532959,10.640625,-51.8125,11.3125
1695300401019,-0.2692871,-1.0073853,0.105895996,9.140625,-13.359375,6.3125
1695300401065,-0.28955078,-0.97198486,0.1515503,-4.1875,-11.921875,-1.328125
1695300401142,-0.29833984,-1.013977,0.049987793,7.140625,-2.671875,-1.234375
1695300401148,-0.30639648,-0.98394775,0.10614014,8.109375,-3.84375,-1.03125
1695300401185,-0.37329102,-0.9624634,0.2033081,15.03125,-2.40625,0.140625
1695300401213,-0.32250977,-0.9612427,0.08074951,10.578125,5.53125,0.703125
1695300401260,-0.3076172,-0.9607544,0.066101074,10.65625,6.140625,2.71875
1695300401306,-0.3400879,-0.9824829,0.03363037,12.25,4.421875,1.125
1695300401350,-0.30908203,-0.973938,-0.02154541,12.453125,6.484375,0.25
1695300401378,-0.3017578,-1.0252075,-0.0044555664,2.125,6.4375,-0.4375
1695300401425,-0.24169922,-0.9570923,-0.031555176,2.875,9.328125,1.9375
1695300401454,-0.30688477,-0.9390259,-0.008605957,2.8125,6.25,1.453125
1695300401498,-0.31933594,-0.9326782,0.04925537,1.421875,7.953125,0.453125
1695300401531,-0.32543945,-0.972229,0.04827881,0.296875,7.890625,3.4375
1695300401574,-0.3232422,-1.0342407,0.03314209,1.546875,5.671875,1.96875
1695300401618,-0.32421875,-0.93878174,0.017028809,1.578125,0.03125,1.53125
1695300401651,-0.33081055,-1.0632935,-0.13165283,5.53125,1.828125,0.265625
1695300401693,-0.3334961,-0.93951416,-0.055236816,5.34375,5.640625,-1.875
1695300401738,-0.2565918,-0.8892212,-0.01763916,-4.25,5.375,-1.234375
1695300401769,-0.28979492,-0.9373169,-0.04547119,-3.578125,4.09375,-1.109375
1695300401813,-0.35913086,-1.0025024,0.031188965,3.09375,5.453125,-0.390625
1695300401848,-0.36743164,-1.0144653,-0.006652832,1.109375,0.859375,3.046875
1695300401924,-0.26782227,-0.99298096,-0.038146973,-5.84375,6.71875,2.265625
1695300401934,-0.26538086,-0.9483032,-0.014465332,-6.1875,8.171875,1.328125
1695300401965,-0.31323242,-0.95025635,-0.003967285,-2.09375,5.09375,-2.765625
1695300402008,-0.3166504,-0.91851807,0.048034668,5.28125,-1.234375,-0.203125
1695300402053,-0.30932617,-1.008606,-0.030578613,-7.015625,4.703125,-0.8125
1695300402084,-0.25439453,-0.88482666,0.0045776367,8.453125,3.421875,2.921875
1695300402131,-0.45092773,-1.0977173,0.043395996,24.5,-1.484375,1.46875
1695300402166,-0.2919922,-0.84576416,0.078063965,-6.5,-1.328125,2.765625
1695300402205,-0.34472656,-0.9312134,-0.13433838,11.0,2.4375,0.03125
1695300402251,-0.23242188,-0.9480591,0.0045776367,6.375,4.375,5.953125
1695300402278,-0.28076172,-1.0493774,-0.08111572,-7.953125,1.9375,2.28125
1695300402325,-0.22875977,-0.9771118,-0.045959473,0.9375,2.328125,0.28125
1695300402372,-0.25585938,-1.0105591,-0.06573486,-2.578125,-4.953125,0.046875
1695300402399,-0.31689453,-0.9031372,-0.013244629,-2.03125,-5.78125,-0.140625
1695300402444,-0.39941406,-0.9976196,-0.034240723,1.609375,-5.203125,0.296875
1695300402475,-0.3371582,-1.017395,-0.12384033,2.625,3.484375,0.296875
1695300402518,-0.28271484,-0.8897095,-0.09893799,-7.40625,8.421875,3.375
1695300402564,-0.24511719,-0.9439087,0.038024902,1.5,4.40625,4.140625
1695300402593,-0.22460938,-1.0005493,-0.028381348,-6.375,0.359375,2.765625
1695300402640,-0.19506836,-1.0496216,-0.002746582,-11.640625,2.734375,3.0
1695300402685,-0.25463867,-0.94366455,-0.09210205,-5.96875,-3.453125,-1.578125
1695300402715,-0.3647461,-0.96099854,0.012390137,6.546875,-3.34375,1.5
1695300402761,-0.3178711,-0.9746704,-0.028381348,5.328125,-4.765625,1.015625
1695300402801,-0.2993164,-0.9578247,-0.085754395,12.75,-0.15625,-0.46875
1695300402867,-0.27319336,-0.9663696,-0.062805176,0.828125,5.453125,3.21875
1695300402881,-0.22607422,-0.98272705,-0.055480957,-5.09375,5.28125,2.890625
1695300402912,-0.23901367,-1.0195923,-0.014465332,-11.78125,2.4375,-0.390625
1695300402985,-0.24365234,-1.0134888,-0.04937744,-3.390625,-2.65625,-2.359375
1695300403002,-0.35009766,-0.944397,-0.05328369,8.09375,-2.203125,-2.78125
1695300403030,-0.33984375,-0.9976196,-0.05596924,4.484375,-1.828125,-0.625
1695300403093,-0.26293945,-0.9273071,-0.069885254,3.40625,0.859375,-0.25
1695300403104,-0.2668457,-0.98443604,-0.06500244,4.015625,3.953125,0.859375
1695300403150,-0.26489258,-0.975647,-0.021057129,-3.9375,2.8125,1.890625
1695300403194,-0.29125977,-1.0015259,-0.014221191,-1.9375,2.625,0.8125
1695300403223,-0.25634766,-0.9607544,-0.05206299,1.15625,0.109375,-2.15625
1695300403269,-0.30004883,-0.9627075,-0.03253174,-0.234375,-0.671875,-2.421875
1695300403315,-0.31396484,-0.97662354,-0.07550049,5.875,0.34375,0.40625
1695300403346,-0.24560547,-0.954895,-0.058898926,3.84375,2.859375,2.96875
1695300403404,-0.27563477,-0.972229,-0.035217285,-8.921875,3.921875,2.265625
1695300403420,-0.22485352,-0.9985962,-0.032043457,-8.28125,3.40625,1.28125
1695300403471,-0.27539062,-1.0015259,0.019714355,-3.84375,2.40625,0.484375
1695300403525,-0.30126953,-1.000061,-0.03253174,-1.859375,-0.953125,-1.15625
1695300403540,-0.25146484,-0.9692993,-0.081604004,-3.59375,-0.0625,-1.71875
1695300403584,-0.31469727,-0.9273071,-0.007385254,3.359375,-3.03125,0.3125
1695300403630,-0.25927734,-0.94073486,-0.013000488,0.34375,0.125,3.265625
1695300403660,-0.28588867,-0.99053955,-0.005432129,-4.84375,5.078125,3.15625
1695300403705,-0.2290039,-0.9885864,0.0072631836,-5.4375,3.515625,1.265625
1695300403781,-0.25732422,-0.9871216,0.0119018555,-1.921875,3.28125,-0.984375
1695300403788,-0.2800293,-0.9585571,0.011413574,-0.015625,-1.546875,-2.359375
1695300403858,-0.2734375,-0.9680786,-0.0025024414,-5.796875,-3.609375,-3.1875
1695300403865,-0.3095703,-1.0471802,0.036071777,-15.21875,4.328125,1.234375
1695300403898,-0.3425293,-1.0127563,0.022888184,-14.453125,10.734375,0.28125
1695300403942,-0.25512695,-0.9204712,0.07952881,-18.28125,9.34375,1.078125
1695300403973,-0.2841797,-0.99346924,0.109558105,-8.265625,7.109375,0.4375
1695300404023,-0.2512207,-1.017395,0.101501465,-5.890625,8.84375,2.578125
1695300404063,-0.24902344,-1.0027466,0.11151123,-4.8125,7.953125,2.1875
1695300404096,-0.26245117,-1.0108032,0.06512451,-5.15625,12.359375,1.875
1695300404138,-0.26220703,-0.94976807,0.05340576,-5.328125,7.8125,-1.71875
1695300404173,-0.30078125,-0.954895,0.15985107,-3.671875,6.234375,-0.875
1695300404214,-0.2697754,-1.019104,0.15960693,-4.359375,11.328125,1.296875
1695300404260,-0.26245117,-0.9668579,0.13543701,-3.328125,8.703125,-0.90625
1695300404289,-0.26391602,-0.9793091,0.13421631,-1.34375,6.265625,-1.453125
1695300404333,-0.2512207,-0.96417236,0.15081787,-1.5625,2.453125,-0.4375
1695300404411,-0.27563477,-0.9590454,0.14764404,-1.96875,3.25,-0.578125
1695300404416,-0.25854492,-0.954895,0.14813232,0.75,4.15625,0.9375
1695300404455,-0.25952148,-0.9871216,0.14227295,0.671875,5.109375,1.5625
1695300404534,-0.25708008,-0.9834595,0.13568115,0.921875,4.484375,0.5
1695300404540,-0.25390625,-0.9846802,0.1071167,1.625,5.3125,-0.421875
1695300404576,-0.24926758,-1.0005493,0.051208496,2.578125,5.046875,-0.21875
1695300404603,-0.23583984,-0.96881104,0.05706787,11.34375,-7.09375,0.734375
1695300404648,-0.28637695,-0.91290283,0.07879639,7.859375,-48.375,4.84375
1695300404695,-0.17822266,-0.9907837,0.14422607,-1.625,-25.046875,13.5
1695300404726,-0.25073242,-0.95196533,0.0014038086,7.40625,-5.125,-0.390625
1695300404775,-0.21240234,-1.0032349,0.11590576,-5.40625,-5.4375,-0.203125
1695300404800,-0.24291992,-1.0422974,0.034118652,8.0625,-2.046875,-3.640625
1695300404874,-0.24169922,-0.9873657,0.089782715,7.15625,-1.390625,-4.875
1695300404890,-0.24682617,-0.99468994,0.07611084,10.21875,1.9375,-3.703125
1695300404929,-0.26831055,-0.94976807,0.0993042,8.046875,3.0,-0.984375
1695300404978,-0.2932129,-0.9817505,0.04510498,13.890625,3.5,2.171875
1695300405008,-0.2824707,-1.0098267,0.015319824,10.6875,5.71875,4.03125
1695300405040,-0.24633789,-0.98883057,-0.011779785,7.390625,2.296875,3.828125
1695300405084,-0.21264648,-0.9776001,0.041931152,3.5,3.328125,0.375
1695300405114,-0.22875977,-0.96881104,0.014831543,0.5625,1.734375,0.6875
1695300405175,-0.2607422,-0.9885864,-0.007385254,2.875,3.171875,-2.328125
1695300405208,-0.27954102,-0.9834595,0.024108887,-2.609375,1.5625,-2.609375
1695300405234,-0.2368164,-0.9763794,-0.028869629,3.734375,3.125,1.1875
1695300405279,-0.3017578,-1.060852,0.027770996,-0.90625,0.921875,-3.703125
1695300405325,-0.21704102,-0.94415283,-0.04083252,2.21875,-1.0625,0.53125
1695300405354,-0.25854492,-0.9234009,-0.015197754,5.953125,-1.046875,-1.6875
1695300405429,-0.28295898,-1.0393677,-0.03277588,2.125,-6.640625,-2.0625
1695300405433,-0.28027344,-0.9380493,-0.038146973,-8.171875,-0.25,-0.9375
1695300405475,-0.28295898,-1.0171509,-0.05718994,0.875,-2.328125,-5.078125
1695300405521,-0.24584961,-0.9439087,-0.019348145,-2.859375,-4.703125,-2.15625
1695300405550,-0.3293457,-1.0510864,-0.032043457,1.734375,1.59375,-0.375
1695300405623,-0.36523438,-1.0117798,0.020202637,-4.90625,2.078125,0.53125
1695300405638,-0.24926758,-0.88116455,-0.062072754,-5.90625,4.9375,-2.609375
1695300405672,-0.3486328,-1.048645,0.047546387,7.375,0.109375,2.671875
1695300405744,-0.17456055,-1.0178833,-0.08404541,2.578125,5.25,5.46875
1695300405749,-0.2841797,-0.8386841,0.02166748,-2.34375,1.4375,1.421875
1695300405789,-0.1899414,-0.9807739,-0.020080566,5.9375,2.765625,3.1875
1695300405851,-0.23266602,-1.0574341,-0.005432129,-2.734375,1.359375,3.59375
1695300405879,-0.2055664,-0.99005127,0.0099487305,-8.96875,-0.734375,1.171875
1695300405908,-0.24316406,-0.9795532,-0.066223145,-3.1875,-2.53125,-1.921875
1695300405955,-0.37426758,-1.0093384,0.0048217773,7.21875,-1.0,-1.578125
1695300405983,-0.2553711,-0.9458618,-0.081604004,-0.703125,4.671875,-0.609375
1695300406030,-0.25268555,-0.8880005,0.047546387,-1.140625,0.9375,2.734375
1695300406061,-0.25854492,-0.93707275,0.034362793,-9.875,-0.40625,4.703125
1695300406104,-0.22949219,-1.0725708,-0.04156494,-4.859375,-0.6875,0.515625
1695300406148,-0.23730469,-1.0337524,-0.010559082,4.046875,-0.65625,-0.90625
1695300406183,-0.2290039,-0.9319458,-0.0713501,0.21875,2.875,0.03125
1695300406224,-0.36938477,-0.9717407,0.027526855,4.875,0.5,-0.03125
1695300406269,-0.24438477,-0.956604,-0.038879395,0.328125,0.984375,0.8125
1695300406313,-0.23632812,-0.9468384,-0.082092285,6.453125,-1.421875,-0.4375
1695300406343,-0.21362305,-0.9690552,0.023376465,-1.03125,2.484375,3.734375
1695300406372,-0.26342773,-0.9612427,-0.003967285,-5.734375,-2.140625,2.40625
1695300406418,-0.24780273,-1.0142212,-0.012756348,3.09375,-0.625,-0.9375
1695300406464,-0.24975586,-1.0108032,-0.06329346,-2.078125,1.6875,-1.171875
1695300406494,-0.22851562,-0.90509033,-0.03692627,1.578125,1.6875,-0.921875
1695300406538,-0.26538086,-0.97857666,-0.027893066,0.484375,-2.078125,2.3125
1695300406584,-0.26049805,-0.9729614,-0.081604004,3.796875,-1.125,1.71875
1695300406613,-0.20874023,-0.9612427,-0.074523926,4.265625,2.75,1.375
1695300406674,-0.23999023,-1.0166626,-0.022033691,1.71875,1.96875,0.46875
1695300406690,-0.2475586,-0.97735596,-0.029846191,0.0625,2.90625,2.140625
1695300406769,-0.2265625,-0.9685669,-0.049621582,-5.4375,0.734375,-0.0625
1695300406778,-0.18847656,-0.9505005,-0.105529785,-3.609375,-0.484375,-0.59375
1695300406812,-0.34765625,-1.0222778,-0.04058838,5.546875,-3.25,-1.765625
1695300406885,-0.26831055,-1.0254517,-0.121154785,7.15625,1.3125,-1.109375
1695300406898,-0.24951172,-0.92193604,-0.066711426,-5.875,2.34375,-0.53125
1695300406931,-0.17651367,-0.95758057,-0.039611816,-1.359375,2.671875,0.265625
1695300406974,-0.23925781,-0.9817505,-0.069885254,-10.234375,-0.078125,0.46875
1695300407004,-0.26586914,-0.97052,-0.08355713,1.0,2.59375,-0.625
1695300407052,-0.31079102,-1.0335083,-0.059631348,6.125,0.46875,-0.78125
1695300407093,-0.28637695,-0.96759033,-0.04425049,-1.875,2.171875,0.359375
1695300407123,-0.23486328,-0.9331665,-0.053527832,4.109375,0.09375,0.5
1695300407170,-0.22045898,-0.97125244,-0.09185791,0.71875,2.296875,2.359375
1695300407218,-0.2265625,-0.9981079,-0.06719971,-1.15625,3.8125,2.265625
1695300407244,-0.23510742,-0.99713135,-0.022033691,-3.25,3.140625,0.828125
1695300407289,-0.20214844,-0.9451294,-0.07745361,-5.265625,0.421875,-2.234375
1695300407323,-0.28320312,-0.96881104,-0.022521973,0.59375,-1.734375,-1.875
1695300407366,-0.32299805,-1.0222778,-0.04522705,7.640625,-1.3125,0.078125
1695300407412,-0.23339844,-0.9290161,-0.06695557,-7.421875,1.59375,0.21875
1695300407440,-0.2319336,-0.9673462,-0.05596924,-1.65625,0.890625,0.96875
1695300407484,-0.23852539,-0.9819946,-0.01739502,-6.015625,0.234375,0.5625
1695300407531,-0.24438477,-0.972229,0.030212402,-3.015625,-0.921875,0.03125
1695300407559,-0.26782227,-0.98443604,-0.03302002,1.640625,0.578125,0.234375
1695300407605,-0.25170898,-0.9795532,-0.043518066,2.84375,1.71875,-1.328125
1695300407697,-0.23535156,-0.9824829,-0.055236816,0.109375,-1.8125,-1.109375
1695300407706,-0.28588867,-1.0264282,0.0021362305,-1.5625,3.8125,1.453125
1695300407754,-0.27661133,-0.9898071,-0.101379395,-31.734375,15.671875,0.6875
1695300407759,-0.21313477,-0.96832275,-0.0051879883,-14.28125,14.296875,2.453125
1695300407832,-0.2529297,-1.0249634,0.074157715,-17.796875,11.015625,-0.15625
1695300407844,-0.24145508,-1.0100708,0.10784912,-13.640625,13.71875,-1.3125
1695300407874,-0.21826172,-1.0081177,0.121520996,-9.578125,8.203125,2.359375
1695300407918,-0.24438477,-0.9795532,0.11566162,-5.328125,3.6875,0.3125
1695300407993,-0.23364258,-1.000061,0.1005249,-9.859375,5.40625,-1.40625
1695300407999,-0.2277832,-0.98516846,0.07293701,-4.03125,10.25,2.09375
1695300408039,-0.28125,-0.9668579,0.14544678,-7.875,7.015625,-1.109375
1695300408070,-0.26611328,-0.98809814,0.18157959,-6.8125,7.484375,1.734375
1695300408115,-0.24731445,-0.96832275,0.13519287,1.125,9.03125,2.03125
1695300408161,-0.23828125,-0.9194946,0.10736084,4.4375,5.25,-0.046875
1695300408188,-0.20727539,-0.87994385,0.08392334,21.65625,-7.84375,2.921875
1695300408237,-0.21899414,-1.0527954,-0.117248535,11.71875,-41.03125,2.359375
1695300408281,-0.23925781,-0.9092407,0.28216553,6.734375,-20.0,4.625
1695300408308,-0.14941406,-0.90509033,0.036071777,8.328125,-7.375,-1.390625
1695300408353,-0.23999023,-1.048645,0.02532959,8.1875,-2.1875,-4.765625
1695300408384,-0.26049805,-1.0422974,0.03704834,9.6875,0.5625,-2.28125
1695300408429,-0.24902344,-1.0093384,-0.019592285,5.09375,-0.984375,-2.59375
1695300408474,-0.26391602,-0.9475708,0.11077881,0.40625,-0.078125,0.515625
1695300408504,-0.29541016,-0.96539307,0.11077881,3.515625,-0.4375,-3.671875
1695300408550,-0.27319336,-0.9834595,0.05731201,2.328125,-1.5,-3.484375
1695300408624,-0.29370117,-1.029602,-0.031311035,13.078125,2.828125,-3.1875
1695300408635,-0.26489258,-1.0244751,-0.05596924,4.1875,0.765625,-3.5
1695300408700,-0.22265625,-0.9143677,-0.03741455,2.96875,1.734375,-0.21875
1695300408705,-0.22558594,-0.9324341,-0.057922363,4.75,-3.234375,-2.4375
1695300408775,-0.2836914,-0.93756104,-0.0015258789,-2.59375,-2.71875,-3.3125
1695300408790,-0.33496094,-1.0108032,-0.012512207,11.375,-2.125,-2.0
1695300408833,-0.29516602,-1.0134888,-0.10845947,-6.828125,-1.765625,-4.296875
1695300408863,-0.34057617,-0.9746704,0.03265381,-3.9375,1.421875,-3.515625
1695300408909,-0.29711914,-1.0293579,-0.054504395,3.671875,1.3125,-0.359375
1695300408937,-0.27612305,-0.94122314,-0.0725708,6.21875,6.59375,0.3125
1695300408987,-0.2475586,-0.96881104,-0.12017822,-1.25,10.703125,1.265625
1695300409013,-0.3395996,-0.9729614,0.019714355,2.296875,6.75,1.828125
1695300409059,-0.29174805,-1.0010376,-0.0154418945,1.890625,2.65625,4.125
1695300409104,-0.27368164,-0.9356079,-0.08526611,3.03125,6.90625,0.8125
1695300409134,-0.26904297,-0.9944458,-0.04473877,1.171875,8.671875,-0.625
1695300409179,-0.26098633,-0.8987427,-0.0076293945,-6.734375,9.171875,-0.390625
1695300409254,-0.3449707,-1.0142212,0.031677246,-3.40625,5.890625,2.1875
1695300409260,-0.30639648,-1.0237427,-0.06842041,7.90625,6.3125,7.015625
1695300409300,-0.3359375,-0.92266846,-0.058410645,8.90625,11.25,-0.875
1695300409332,-0.22802734,-0.954895,-0.09991455,-1.03125,8.203125,-0.015625
1695300409374,-0.22729492,-0.9495239,-0.09039307,-7.859375,3.609375,-0.4375
1695300409418,-0.2758789,-0.9690552,9.1552734E-4,-3.875,2.703125,-3.828125
1695300409450,-0.2854004,-0.97491455,-0.02130127,1.0,-1.421875,-2.5
1695300409493,-0.3161621,-0.98687744,-0.08843994,3.546875,1.703125,-3.34375
1695300409543,-0.30200195,-0.9573364,-0.116760254,4.015625,-0.1875,-2.0
1695300409574,-0.32788086,-0.93585205,-0.029846191,-6.015625,-0.09375,-5.453125
1695300409645,-0.29101562,-0.97857666,-0.058654785,-5.296875,-0.65625,-2.6875
1695300409650,-0.29882812,-0.9595337,-0.015686035,-8.359375,1.34375,-0.453125
1695300409718,-0.31958008,-0.9846802,0.018005371,0.609375,0.890625,-1.59375
1695300409734,-0.2524414,-0.973938,-0.045715332,2.125,0.90625,-2.40625
1695300409765,-0.3395996,-0.9067993,0.008972168,-1.15625,2.96875,-4.796875
1695300409809,-0.34692383,-1.0078735,-0.031066895,-1.34375,1.9375,-2.421875
1695300409854,-0.30029297,-0.9578247,-0.058898926,-4.828125,3.90625,3.328125
1695300409883,-0.34204102,-0.95098877,-0.024230957,-6.578125,6.109375,0.640625
1695300409928,-0.28320312,-0.9776001,-0.022521973,-10.765625,3.328125,2.609375
1695300409961,-0.32006836,-0.97662354,0.05218506,-4.59375,-1.25,-0.421875
1695300410004,-0.32006836,-0.94366455,0.0368042,1.515625,0.90625,-5.015625
1695300410051,-0.2998047,-0.9546509,-0.0012817383,-1.734375,-0.140625,-1.421875
1695300410080,-0.3310547,-0.95391846,0.005554199,0.828125,0.625,-2.03125
1695300410126,-0.3256836,-0.95758057,0.0026245117,-0.15625,0.875,0.6875
1695300410171,-0.30078125,-0.96466064,-0.02911377,-3.5625,2.453125,0.609375
1695300410199,-0.3310547,-0.97320557,0.014831543,-3.109375,1.765625,0.078125
1695300410245,-0.30908203,-0.95635986,0.066589355,-3.390625,1.65625,-0.78125
1695300410277,-0.29882812,-0.9751587,0.03314209,6.828125,-0.5625,-2.609375
1695300410318,-0.23486328,-0.93048096,0.019226074,0.421875,-3.515625,5.171875
1695300410365,-0.2631836,-0.8665161,0.042663574,-6.6875,-9.671875,13.265625
1695300410393,-0.37597656,-0.9624634,-0.024230957,3.5,-5.046875,-0.046875
1695300410439,-0.3112793,-0.9680786,-0.057434082,-6.28125,-0.40625,3.640625
1695300410485,-0.33154297,-0.9714966,0.034362793,-8.546875,2.03125,4.359375
1695300410514,-0.30126953,-0.96539307,0.0211792,-4.578125,2.1875,3.359375
1695300410590,-0.2980957,-0.9746704,0.057556152,-3.796875,1.78125,4.296875
1695300410594,-0.3112793,-0.9963989,0.010192871,8.921875,2.515625,2.484375
1695300410666,-0.29467773,-0.93756104,-0.0071411133,9.34375,-1.8125,2.953125
1695300410679,-0.30078125,-0.9990845,0.007507324,6.390625,-4.390625,5.375
1695300410708,-0.29223633,-0.960022,-0.023498535,1.78125,-0.203125,7.625
1695300410753,-0.26293945,-0.9338989,-0.007873535,2.796875,4.078125,2.9375
1695300410797,-0.19848633,-0.97076416,0.0021362305,-6.78125,4.890625,1.15625
1695300410829,-0.25927734,-0.9795532,0.0018920898,1.703125,1.96875,-2.4375
1695300410873,-0.26000977,-0.97003174,-0.010070801,4.671875,-0.921875,-3.078125
1695300410906,-0.31591797,-1.0020142,-0.04522705,4.46875,-1.328125,1.28125
1695300410949,-0.31884766,-0.9854126,-0.043762207,-1.484375,-0.96875,8.75
1695300410993,-0.29370117,-0.944397,1.8310547E-4,0.46875,5.8125,3.34375
1695300411024,-0.23803711,-0.9224243,-0.020324707,-12.390625,3.34375,7.3125
1695300411073,-0.21606445,-0.9546509,-0.0029907227,-9.46875,0.96875,0.546875
1695300411117,-0.24169922,-0.9834595,0.030212402,-3.078125,0.34375,-5.390625
1695300411143,-0.3059082,-1.0064087,0.025817871,0.609375,-0.40625,-6.078125
1695300411189,-0.28930664,-1.0403442,-0.02545166,-1.640625,6.078125,0.703125
1695300411235,-0.28125,-0.93756104,0.022155762,-5.359375,5.390625,5.65625
1695300411265,-0.2644043,-0.9378052,-0.041809082,-12.5,6.109375,2.984375
1695300411308,-0.30151367,-1.0288696,0.06536865,-9.21875,11.4375,3.265625
1695300411339,-0.24267578,-0.9463501,0.059509277,-11.484375,12.484375,2.890625
1695300411383,-0.24951172,-1.0227661,0.11102295,-5.390625,9.828125,0.640625
1695300411462,-0.18969727,-0.97784424,0.06341553,-3.765625,6.359375,1.078125
1695300411468,-0.20678711,-0.9546509,0.04925537,-3.421875,0.75,-1.109375
1695300411538,-0.20605469,-1.0022583,0.05218506,-2.109375,-3.59375,-6.359375
1695300411598,-0.22680664,-0.99786377,0.12835693,-9.5,-5.640625,-3.78125
1695300411601,-0.27783203,-0.9985962,0.13787842,-8.578125,-2.71875,-2.0
1695300411623,-0.3503418,-0.9841919,0.14202881,-6.796875,3.328125,0.875
1695300411653,-0.30419922,-0.911438,0.042907715,3.078125,-1.171875,0.390625
1695300411701,-0.31713867,-0.9829712,0.14447021,0.546875,4.578125,4.078125
1695300411744,-0.2536621,-0.95147705,0.058532715,5.4375,-0.78125,4.1875
1695300411772,-0.22924805,-0.99713135,0.082214355,5.703125,-0.859375,1.3125
1695300411819,-0.23071289,-0.99176025,0.070739746,-1.34375,-17.859375,-1.8125
1695300411864,-0.20410156,-0.972229,0.1281128,-6.328125,-26.515625,-3.0
1695300411896,-0.19213867,-1.0354614,0.066589355,10.578125,-8.9375,0.046875
1695300411938,-0.18945312,-0.8777466,-0.049621582,0.671875,-6.15625,-3.796875
1695300411968,-0.3154297,-1.0613403,-0.06793213,-8.03125,6.9375,-1.578125
1695300412014,-0.35498047,-0.9883423,0.044128418,2.25,10.515625,7.0
1695300412059,-0.2631836,-0.99102783,-0.014709473,3.0625,11.75,1.234375
1695300412091,-0.26782227,-0.96710205,0.0914917,-4.671875,3.9375,0.40625
1695300412133,-0.2487793,-0.958313,0.11029053,0.390625,2.921875,-0.96875
1695300412179,-0.2800293,-1.0420532,0.070739746,3.53125,1.484375,1.40625
1695300412211,-0.25048828,-0.97540283,-0.022521973,13.703125,8.375,-0.015625
1695300412254,-0.13232422,-0.93414307,-0.051330566,-4.90625,6.84375,1.265625
1695300412283,-0.2421875,-0.93634033,0.10321045,-6.375,4.046875,-2.1875
1695300412330,-0.3059082,-1.0169067,0.13153076,1.5,-2.53125,-2.046875
1695300412389,-0.31469727,-1.0393677,0.055114746,12.78125,-2.15625,2.78125
1695300412404,-0.22070312,-0.99957275,0.011169434,2.078125,-2.265625,3.65625
1695300412478,-0.27197266,-1.0054321,0.035583496,11.46875,-0.625,5.09375
1695300412495,-0.2133789,-0.95928955,-0.03765869,6.671875,-2.765625,5.765625
1695300412525,-0.26953125,-0.9993286,-0.024475098,7.265625,-1.296875,3.890625
1695300412601,-0.21679688,-0.9717407,0.0060424805,3.375,-2.65625,1.84375
1695300412607,-0.27612305,-0.9898071,0.04486084,-1.125,-6.1875,0.625
1695300412644,-0.24243164,-0.99298096,-0.035461426,10.578125,-5.046875,1.984375
1695300412689,-0.21459961,-1.0171509,-0.06842041,-6.90625,-8.578125,7.546875
1695300412721,-0.20239258,-1.0342407,-0.19342041,4.53125,-4.859375,11.84375
1695300412767,-0.25732422,-0.833313,0.11151123,-7.984375,-5.78125,12.640625
1695300412811,-0.14892578,-1.0083618,-0.10772705,15.3125,-0.03125,12.9375
1695300412852,-0.15551758,-0.9859009,-0.08868408,10.0625,-2.25,7.0625
1695300412887,-0.15771484,-1.0205688,-0.018127441,11.0625,-1.25,4.421875
1695300412914,-0.046875,-0.99053955,-0.22784424,20.359375,0.109375,5.046875
1695300412958,-0.08496094,-0.973938,-0.128479,10.796875,-2.046875,6.96875
1695300413005,-0.104003906,-0.9417114,-0.23028564,6.84375,-0.25,4.890625
1695300413034,-0.09863281,-0.95806885,-0.1885376,18.25,4.234375,5.765625
1695300413098,-0.11816406,-0.9859009,-0.20343018,5.75,-2.59375,2.125
1695300413123,-0.1105957,-1.024231,-0.20391846,17.859375,4.15625,5.21875
1695300413153,-0.047607422,-0.97857666,-0.24932861,7.28125,-0.984375,0.90625
1695300413200,-0.118896484,-0.9570923,-0.2210083,14.984375,1.8125,-0.796875
1695300413229,-0.0637207,-0.928772,-0.25543213,12.109375,1.40625,0.46875
1695300413274,-0.055908203,-0.90997314,-0.30010986,8.015625,-1.6875,-1.328125
1695300413318,-0.0793457,-0.8892212,-0.29840088,2.171875,-2.515625,-0.546875
1695300413348,-0.068115234,-0.9480591,-0.31036377,8.5,-3.03125,0.578125
1695300413429,-0.12646484,-0.9649048,-0.29327393,-0.953125,0.953125,-0.546875
1695300413458,-0.11767578,-0.9495239,-0.31500244,3.25,2.921875,1.703125
1695300413471,-0.05883789,-0.9378052,-0.33233643,3.265625,3.140625,1.28125
1695300413530,-0.084472656,-0.8760376,-0.3032837,-2.0,0.421875,-0.234375
1695300413561,-0.03881836,-0.93414307,-0.33795166,4.96875,-0.9375,-2.453125
1695300413590,-0.12426758,-0.9434204,-0.2390747,-5.8125,-4.484375,-3.234375
1695300413633,-0.11401367,-0.99468994,-0.35894775,0.484375,-2.15625,-2.046875
1695300413665,-0.10083008,-0.9151001,-0.2852173,-1.515625,-2.484375,-0.953125
1695300413709,-0.12084961,-0.94903564,-0.30230713,0.953125,-0.8125,-1.796875
1695300413754,-0.09277344,-0.90460205,-0.28619385,-1.390625,1.0625,-1.5
1695300413784,-0.10131836,-0.9421997,-0.31036377,2.359375,2.328125,-0.15625
1695300413827,-0.06640625,-0.95196533,-0.33135986,-4.125,1.53125,2.265625
1695300413857,-0.1237793,-0.94244385,-0.26837158,-3.0625,0.90625,1.359375
1695300413905,-0.091308594,-0.93756104,-0.28326416,-5.609375,-2.015625,-0.828125
1695300413948,-0.103759766,-0.89190674,-0.23565674,1.296875,-3.359375,1.765625
1695300413980,-0.08618164,-0.9546509,-0.31158447,3.8125,-2.40625,3.21875
1695300414025,-0.072509766,-0.9224243,-0.32037354,-5.71875,0.8125,3.78125
1695300414070,-0.06933594,-0.923645,-0.2822876,-8.78125,2.21875,8.671875
1695300414098,-0.063964844,-0.8831177,-0.2798462,-19.78125,2.125,6.5625
1695300414158,-0.068359375,-1.0169067,-0.269104,-3.828125,12.421875,6.5
1695300414173,-0.045410156,-0.9006958,-0.21392822,-0.75,12.46875,4.71875
