timestamp,accel_x,accel_y,accel_z,gyro_x,gyro_y,gyro_z
1695310686969,-0.0036621094,-1.015686,0.10028076,5.984375,1.65625,6.953125
1695310687034,0.02709961,-0.9741821,0.08392334,7.5625,1.046875,9.453125
1695310687061,0.05102539,-0.9656372,0.03729248,11.015625,0.703125,12.28125
1695310687098,0.071777344,-0.9151001,-0.010803223,18.09375,2.515625,16.65625
1695310687133,0.13305664,-0.8328247,-0.032043457,26.484375,4.15625,22.90625
1695310687163,0.16845703,-0.71832275,-0.07965088,37.546875,5.828125,31.8125
1695310687209,0.2199707,-0.58477783,-0.089660645,44.796875,6.171875,37.328125
1695310687253,0.17480469,-0.5335083,-0.09307861,47.46875,4.765625,40.53125
1695310687283,0.17504883,-0.534729,-0.11212158,45.0,0.796875,42.0
1695310687328,0.2109375,-0.67559814,-0.18682861,42.90625,-4.34375,42.921875
1695310687373,0.35717773,-0.6975708,-0.31256104,42.09375,-7.34375,41.546875
1695310687403,0.4074707,-0.70269775,-0.20758057,37.03125,0.578125,41.03125
1695310687449,0.30737305,-0.8543091,-0.29986572,31.875,-2.625,29.140625
1695310687478,0.2434082,-0.8657837,-0.37701416,25.34375,-0.578125,19.78125
1695310687523,0.48876953,-0.84161377,-0.4512329,12.984375,-4.671875,19.21875
1695310687570,0.6296387,-0.7588501,-0.3880005,17.984375,4.671875,16.234375
1695310687599,0.44311523,-0.7632446,-0.35333252,13.109375,-3.015625,7.984375
1695310687643,0.40478516,-0.8545532,-0.43170166,-0.09375,-10.03125,4.234375
1695310687673,0.63061523,-0.819397,-0.47003174,-11.203125,-12.578125,4.375
1695310687734,0.6738281,-0.81744385,-0.4685669,-5.234375,-4.984375,0.171875
1695310687763,0.5854492,-0.7764282,-0.51031494,-2.890625,-2.921875,3.421875
1695310687793,0.57714844,-0.84259033,-0.39996338,-3.78125,-2.125,-3.734375
1695310687839,0.62158203,-0.8303833,-0.47564697,-12.75,-5.234375,1.28125
1695310687884,0.5708008,-0.69537354,-0.55718994,1.140625,0.140625,-2.640625
1695310687913,0.74072266,-0.7571411,-0.3567505,-5.5,-1.78125,-4.75
1695310687958,0.57592773,-0.8196411,-0.45562744,-3.59375,-0.921875,-12.390625
1695310687989,0.44140625,-0.7283325,-0.3838501,-10.515625,-1.609375,-12.859375
1695310688034,0.55126953,-0.79522705,-0.48638916,-14.1875,-7.859375,-16.359375
1695310688079,0.95581055,-1.0510864,-0.44805908,-12.78125,-11.0,-6.015625
1695310688108,0.5913086,-1.081604,-0.4512329,-0.046875,-4.46875,-12.296875
1695310688154,0.45043945,-0.9404907,-0.3045044,-7.796875,-1.765625,-6.59375
1695310688198,0.4111328,-0.83477783,-0.25421143,-7.25,-3.75,-12.96875
1695310688228,0.39233398,-0.7415161,-0.22320557,-12.71875,1.78125,-12.375
1695310688274,0.3894043,-0.7617798,-0.22979736,-16.890625,4.671875,-18.921875
1695310688304,0.4555664,-0.81744385,-0.25860596,-4.265625,9.046875,-14.984375
1695310688348,0.44140625,-0.7756958,-0.33795166,-3.03125,12.234375,-17.5
1695310688394,0.38208008,-0.76031494,-0.2617798,-8.046875,5.734375,-20.015625
1695310688423,0.30200195,-0.88360596,-0.25201416,-14.6875,2.0,-20.75
1695310688469,0.31054688,-0.878479,-0.22320557,-20.78125,2.109375,-19.53125
1695310688498,0.2849121,-0.8652954,-0.19317627,-24.1875,0.640625,-19.3125
1695310688544,0.22924805,-0.93096924,-0.1675415,-22.4375,-0.671875,-17.625
1695310688589,0.26000977,-0.9380493,-0.13311768,-21.625,-2.390625,-15.734375
1695310688618,0.2097168,-0.9849243,-0.04449463,-21.0625,-1.796875,-14.484375
1695310688663,0.087890625,-1.0227661,-0.070617676,-23.875,-1.09375,-16.09375
1695310688709,0.13256836,-1.0117798,-0.009094238,-15.3125,3.390625,-14.859375
1695310688738,0.12158203,-0.9529419,-0.020080566,-17.8125,4.34375,-14.9375
1695310688784,0.09423828,-0.97003174,-0.0005493164,-18.40625,-1.359375,-13.171875
1695310688815,0.13232422,-1.0078735,0.014831543,-16.53125,0.5,-11.75
1695310688858,0.13598633,-0.93048096,0.044128418,-15.171875,0.09375,-12.5625
1695310688903,0.034423828,-0.97369385,0.07684326,-13.296875,-2.515625,-9.828125
1695310688934,-0.022949219,-1.024231,0.081970215,-10.53125,-2.34375,-11.046875
1695310688979,0.040283203,-0.9788208,0.101745605,-8.359375,3.453125,-7.9375
1695310689027,0.057128906,-0.95635986,0.10760498,-8.140625,-0.6875,-7.640625
1695310689054,-0.010253906,-1.0132446,0.16571045,-4.5625,0.21875,-2.9375
1695310689099,-0.036132812,-0.99884033,0.093444824,-3.734375,20.9375,1.296875
1695310689129,0.037353516,-0.9529419,0.20184326,2.765625,-0.046875,2.359375
1695310689174,-0.021240234,-0.99664307,0.1671753,1.296875,3.890625,1.078125
1695310689220,-0.029052734,-1.0071411,0.16986084,1.359375,-0.234375,5.15625
1695310689248,0.022460938,-0.97857666,0.16278076,7.15625,10.765625,6.453125
1695310689294,0.018554688,-0.9849243,0.17254639,9.15625,3.921875,7.953125
1695310689339,-0.0063476562,-1.000061,0.16009521,9.46875,-0.765625,9.1875
1695310689370,0.024169922,-0.96588135,0.16546631,13.953125,-1.6875,12.5625
1695310689414,0.0063476562,-0.9961548,0.09222412,13.0625,-3.359375,16.890625
1695310689444,0.061279297,-0.942688,0.093933105,19.078125,-4.390625,19.3125
1695310689489,0.06958008,-0.9678345,0.11224365,22.40625,-7.328125,25.359375
1695310689535,0.05078125,-0.99468994,0.07928467,26.203125,-8.15625,27.890625
1695310689564,0.07836914,-0.97052,0.05340576,30.859375,-6.796875,29.953125
1695310689610,0.16015625,-0.9939575,-0.02178955,39.015625,-3.734375,33.84375
1695310689639,0.28808594,-1.0791626,-0.15777588,41.375,-11.203125,38.265625
1695310689685,0.48120117,-1.067688,-0.24713135,40.765625,-10.0,38.421875
1695310689729,0.48168945,-1.02594,-0.38336182,37.8125,-4.390625,34.765625
1695310689758,0.7248535,-0.95318604,-0.39483643,32.109375,6.03125,37.9375
1695310689804,0.6418457,-0.954895,-0.42926025,41.1875,10.9375,8.71875
1695310689848,0.39794922,-0.99713135,-0.46368408,19.296875,4.671875,18.796875
1695310689878,0.6359863,-0.90997314,-0.4956665,10.03125,8.390625,18.5625
1695310689924,0.720459,-0.8508911,-0.46173096,5.765625,8.671875,6.3125
1695310689953,0.47753906,-0.91192627,-0.42999268,7.40625,2.546875,-4.9375
1695310689999,0.61206055,-0.9158325,-0.48443604,0.4375,3.03125,-0.609375
1695310690045,0.6489258,-0.7786255,-0.50738525,-0.5625,0.5625,-5.875
1695310690077,0.42016602,-0.85821533,-0.50567627,-6.8125,-1.15625,-9.9375
1695310690119,0.548584,-0.89312744,-0.44659424,-19.484375,-6.65625,-10.1875
1695310690164,0.5527344,-0.8579712,-0.3731079,-29.046875,-1.6875,-16.59375
1695310690193,0.41870117,-0.9126587,-0.28790283,-25.75,-2.453125,-19.140625
1695310690239,0.38598633,-0.8845825,-0.286438,-21.515625,4.09375,-21.40625
1695310690300,0.37719727,-0.7683716,-0.21246338,-25.5,6.515625,-27.671875
1695310690314,0.21508789,-0.7070923,-0.21368408,-31.140625,4.796875,-30.265625
1695310690360,0.26635742,-0.65167236,-0.19342041,-32.03125,2.53125,-27.609375
1695310690389,0.31323242,-0.6572876,-0.089416504,-28.484375,6.34375,-30.3125
1695310690434,0.104003906,-0.6140747,-0.109191895,-29.375,3.234375,-30.96875
1695310690463,0.12719727,-0.5186157,-0.03692627,-28.46875,5.765625,-31.8125
1695310690509,0.11303711,-0.47491455,-0.09967041,-28.28125,0.859375,-28.53125
1695310690555,0.19482422,-0.4968872,-0.013000488,-24.046875,-0.890625,-21.84375
1695310690584,0.13085938,-0.78131104,0.026062012,-23.390625,-7.421875,-19.03125
1695310690629,-0.035888672,-1.1072388,-0.010803223,-23.203125,-9.609375,-13.34375
1695310690674,0.07104492,-1.0120239,-0.02935791,-16.609375,0.4375,-12.0
1695310690704,0.11376953,-0.90802,0.101745605,-10.984375,6.546875,-13.234375
1695310690749,-0.037109375,-1.0603638,0.10443115,-8.34375,1.390625,-4.59375
1695310690779,0.00024414062,-1.0100708,0.1305542,-6.15625,-5.140625,-4.484375
1695310690824,0.03466797,-0.9907837,0.109558105,0.4375,-1.96875,-2.296875
1695310690869,0.055419922,-0.99346924,0.09881592,-2.5625,-4.0625,-1.484375
1695310690899,0.04272461,-0.9866333,0.11834717,2.703125,-2.359375,0.453125
1695310690944,0.041503906,-0.9668579,0.11590576,3.359375,0.453125,4.171875
1695310690989,0.07348633,-0.9961548,0.08856201,5.84375,-1.140625,6.453125
1695310691018,0.061523438,-1.0213013,0.1083374,8.8125,1.671875,7.609375
1695310691065,0.041992188,-0.94195557,0.062438965,13.78125,4.34375,11.203125
1695310691095,0.041015625,-0.91119385,0.03338623,14.765625,2.8125,15.125
1695310691139,0.10424805,-0.9182739,0.010437012,20.0625,0.84375,17.296875
1695310691185,0.15136719,-0.83966064,0.005554199,24.953125,5.65625,21.296875
1695310691214,0.118652344,-0.7576294,-0.042297363,29.703125,6.234375,24.140625
1695310691259,0.12915039,-0.6392212,-0.055725098,37.640625,10.78125,30.625
1695310691305,0.1508789,-0.5215454,-0.11798096,42.640625,9.3125,34.03125
1695310691334,0.13598633,-0.49273682,-0.1807251,38.9375,-2.578125,40.21875
1695310691379,0.18164062,-0.6345825,-0.117004395,40.03125,2.375,33.796875
1695310691408,0.24365234,-0.6782837,-0.1795044,40.5625,-1.5,32.984375
1695310691454,0.32177734,-0.68048096,-0.18243408,36.25,-0.890625,40.453125
1695310691499,0.32983398,-0.722229,-0.28546143,28.328125,-9.5625,30.015625
1695310691529,0.39379883,-0.8862915,-0.3892212,25.453125,-3.25,31.296875
1695310691573,0.6933594,-0.8701782,-0.40216064,25.0625,3.5625,27.75
1695310691603,0.30151367,-0.86798096,-0.47247314,28.734375,-5.921875,16.828125
1695310691651,0.43847656,-0.8904419,-0.34210205,14.765625,1.1875,11.9375
1695310691694,0.5202637,-0.8320923,-0.45098877,-0.3125,-7.78125,4.53125
1695310691723,0.5227051,-0.8257446,-0.5540161,4.265625,-8.703125,-3.15625
1695310691770,0.6340332,-0.88360596,-0.5154419,-6.671875,-9.453125,-5.890625
1695310691817,0.6567383,-0.7449341,-0.51519775,-9.203125,-3.515625,-4.0
1695310691845,0.4819336,-0.8233032,-0.5339966,-11.953125,-7.84375,-10.6875
1695310691889,0.6940918,-0.8804321,-0.5689087,-10.15625,-2.859375,-7.078125
1695310691919,0.6520996,-0.7786255,-0.40411377,-18.234375,-0.9375,-14.0625
1695310691966,0.5925293,-0.93536377,-0.6116333,-17.703125,-8.765625,-17.65625
1695310692010,0.86328125,-1.1387329,-0.49102783,-20.765625,-4.71875,-13.390625
1695310692039,0.5517578,-0.99884033,-0.364563,-14.15625,1.53125,-18.546875
1695310692085,0.3400879,-0.9714966,-0.32330322,-17.828125,-0.140625,-26.328125
1695310692130,0.3947754,-0.96417236,-0.30792236,-18.109375,5.0,-21.109375
1695310692159,0.40283203,-0.8027954,-0.1897583,-19.265625,3.890625,-27.65625
1695310692204,0.3305664,-0.8267212,-0.22564697,-26.8125,1.609375,-28.796875
1695310692234,0.26464844,-0.83599854,-0.15826416,-26.453125,0.453125,-25.765625
1695310692280,0.25024414,-0.90289307,-0.1519165,-25.921875,1.015625,-24.109375
1695310692325,0.22875977,-0.91534424,-0.11016846,-26.234375,-0.421875,-23.03125
1695310692369,0.13793945,-0.94854736,-0.09503174,-25.75,-2.046875,-21.28125
1695310692398,0.09887695,-1.0110474,-0.06451416,-25.203125,-2.5625,-20.765625
1695310692429,0.12817383,-1.050354,0.015319824,-20.5625,1.828125,-19.21875
1695310692474,0.0793457,-1.0044556,0.055847168,-18.078125,1.53125,-20.34375
1695310692534,-0.030761719,-0.9937134,0.04095459,-17.203125,3.703125,-21.265625
1695310692549,-0.040039062,-0.9282837,0.066833496,-15.3125,16.421875,-12.5
1695310692595,0.025634766,-0.9043579,0.15325928,-12.828125,5.859375,-6.890625
1695310692639,-0.016357422,-1.0371704,0.13739014,-10.921875,7.96875,-5.59375
1695310692668,0.009277344,-0.99957275,0.1317749,-5.75,0.0,-3.6875
1695310692714,-0.049316406,-0.98931885,0.1720581,-4.390625,0.015625,-2.703125
1695310692760,-0.0715332,-0.99298096,0.16937256,-2.78125,5.078125,-0.015625
1695310692788,-0.02709961,-0.96661377,0.18792725,0.921875,3.28125,4.375
1695310692849,0.0073242188,-0.96954346,0.13616943,-0.1875,0.203125,4.453125
1695310692864,-0.020019531,-0.9841919,0.19891357,4.125,0.046875,6.984375
1695310692910,-0.056396484,-1.0247192,0.1708374,6.53125,-3.203125,10.84375
1695310692954,-0.00048828125,-0.9649048,0.14813232,11.375,1.359375,12.609375
1695310692985,0.036376953,-0.9492798,0.13763428,15.5,-1.390625,16.53125
1695310693032,0.02758789,-0.93707275,0.1449585,18.546875,-0.390625,19.8125
1695310693059,0.025878906,-0.96710205,0.09832764,20.5625,-1.25,24.234375
1695310693104,0.088134766,-0.9529419,0.08001709,25.4375,-3.34375,25.84375
1695310693149,0.1496582,-0.97613525,0.05267334,27.546875,-4.453125,29.890625
1695310693178,0.15014648,-0.98516846,0.003112793,28.4375,-6.171875,30.890625
1695310693225,0.23632812,-0.972229,-0.05596924,31.21875,-2.828125,33.3125
1695310693270,0.30737305,-1.0745239,-0.18243408,28.125,-8.953125,33.8125
1695310693315,0.5300293,-1.1140747,-0.3255005,29.53125,-12.59375,34.328125
1695310693344,0.75097656,-0.9590454,-0.26324463,44.8125,-1.96875,30.53125
1695310693374,0.37426758,-1.0838013,-0.31866455,18.109375,-3.78125,9.984375
1695310693419,0.42797852,-1.015686,-0.3789673,23.3125,4.125,20.90625
1695310693464,0.61083984,-0.9348755,-0.4229126,20.609375,6.921875,16.1875
1695310693494,0.7595215,-0.9273071,-0.43927002,17.265625,3.703125,7.21875
1695310693540,0.57006836,-1.0134888,-0.47686768,9.03125,-3.578125,-0.046875
1695310693569,0.6196289,-1.0205688,-0.4788208,-1.09375,0.3125,-0.9375
1695310693614,0.63793945,-0.94732666,-0.42242432,-2.1875,-0.5,-5.09375
1695310693662,0.5361328,-0.9776001,-0.43414307,-11.4375,-2.328125,-6.59375
1695310693689,0.6015625,-0.96661377,-0.3484497,-13.1875,0.171875,-9.0625
1695310693734,0.47583008,-0.9055786,-0.286438,-12.5625,3.265625,-15.390625
1695310693779,0.34448242,-0.88653564,-0.24664307,-14.953125,1.9375,-17.4375
1695310693808,0.390625,-0.7617798,-0.22784424,-18.1875,-0.28125,-20.0625
1695310693854,0.32299805,-0.71954346,-0.13775635,-21.1875,2.96875,-23.625
1695310693884,0.21069336,-0.6826782,-0.15216064,-24.15625,2.53125,-26.421875
1695310693929,0.21411133,-0.64434814,-0.1182251,-27.5625,2.796875,-27.4375
1695310693975,0.22485352,-0.6448364,-0.11090088,-26.53125,3.21875,-28.265625
1695310694003,0.12695312,-0.60528564,-0.018615723,-29.09375,0.515625,-28.171875
1695310694049,0.14404297,-0.5840454,-0.0635376,-29.9375,-1.0,-29.265625
1695310694095,0.09472656,-0.6033325,0.0006713867,-28.28125,3.25,-28.859375
1695310694139,0.1015625,-0.6734009,0.022399902,-20.21875,0.265625,-25.609375
1695310694168,0.13476562,-0.7283325,0.026062012,-20.328125,3.53125,-19.984375
1695310694199,0.09667969,-0.83306885,-0.04498291,-19.640625,-0.265625,-12.390625
1695310694245,0.15405273,-1.0234985,0.05657959,-17.34375,-4.890625,-7.703125
1695310694288,0.14526367,-1.1099243,0.036315918,-7.53125,-2.46875,-8.203125
1695310694318,0.037597656,-0.97906494,0.10394287,-7.5625,-0.25,-9.28125
1695310694365,-0.034423828,-0.9290161,0.14324951,-3.375,-0.75,-6.171875
1695310694394,-0.023925781,-0.9873657,0.11566162,-5.8125,1.765625,-3.671875
1695310694439,0.0034179688,-1.022522,0.11981201,-3.984375,1.171875,-1.4375
1695310694485,0.060546875,-0.9795532,0.06829834,0.640625,1.03125,-0.921875
1695310694513,0.057861328,-1.0056763,0.08392334,3.109375,3.59375,1.59375
1695310694560,0.025390625,-0.9373169,0.101745605,8.0625,1.8125,4.90625
1695310694605,0.05517578,-0.9619751,0.03363037,7.859375,-0.140625,7.765625
1695310694634,0.083740234,-0.954895,0.028015137,17.390625,-1.703125,11.265625
1695310694680,0.12475586,-0.89727783,-0.0178833,15.046875,1.671875,14.3125
1695310694724,0.08300781,-0.8789673,-0.024963379,24.140625,0.9375,17.34375
1695310694754,0.095458984,-0.78448486,-0.035949707,32.625,2.390625,23.953125
1695310694799,0.15942383,-0.63165283,-0.10870361,42.078125,2.578125,30.171875
1695310694828,0.18383789,-0.65093994,-0.054992676,42.515625,3.453125,36.984375
1695310694874,0.12084961,-0.6968384,-0.06890869,51.09375,10.3125,35.421875
1695310694920,0.17529297,-0.569397,-0.16583252,49.21875,6.265625,43.328125
1695310694949,0.3100586,-0.43634033,-0.23052979,47.171875,3.4375,40.3125
1695310694994,0.25317383,-0.5249634,-0.2571411,41.421875,-7.671875,34.828125
1695310695023,0.40795898,-0.7839966,-0.2744751,34.015625,-13.703125,39.375
1695310695070,0.2866211,-0.90460205,-0.31671143,24.59375,-17.890625,31.765625
1695310695116,0.43432617,-0.7661743,-0.5088501,18.21875,-12.046875,23.109375
1695310695145,0.8232422,-0.769104,-0.50567627,10.25,-13.40625,25.265625
1695310695190,0.46020508,-0.8501587,-0.45074463,10.375,-6.5625,6.15625
1695310695234,0.18579102,-0.894104,-0.5081177,7.640625,-4.515625,-2.859375
1695310695264,0.73339844,-0.81451416,-0.37164307,-1.96875,6.046875,3.34375
1695310695309,0.67626953,-0.75323486,-0.4595337,-1.4375,-3.234375,0.078125
1695310695338,0.6550293,-0.82647705,-0.5376587,-2.75,-0.671875,-8.6875
1695310695415,0.75,-0.71539307,-0.48077393,-4.34375,-5.421875,-0.5625
1695310695429,0.4963379,-0.7185669,-0.54400635,-8.34375,-5.75,-8.28125
1695310695460,0.60253906,-0.82940674,-0.4993286,-15.9375,-3.75,-12.265625
1695310695504,0.592041,-0.8748169,-0.49102783,-17.84375,0.28125,-17.78125
1695310695534,0.55737305,-0.895813,-0.5237427,-19.265625,-4.59375,-25.25
1695310695580,0.7336426,-1.1345825,-0.46099854,-29.703125,-0.65625,-25.828125
1695310695624,0.48046875,-1.0513306,-0.3711548,-25.453125,2.890625,-29.09375
1695310695653,0.3527832,-1.0317993,-0.2744751,-28.375,2.640625,-29.75
1695310695701,0.38330078,-1.083313,-0.22662354,-26.859375,1.765625,-29.015625
1695310695744,0.4074707,-0.94903564,-0.1350708,-32.5625,1.1875,-27.0625
1695310695774,0.13745117,-0.84625244,-0.18707275,-26.921875,3.53125,-29.53125
1695310695819,0.16381836,-0.82525635,-0.105041504,-24.328125,3.796875,-20.125
1695310695849,0.21386719,-0.8870239,-0.028869629,-22.046875,2.921875,-16.921875
1695310695894,0.06640625,-0.94488525,-0.07305908,-26.6875,0.796875,-24.296875
1695310695939,0.10546875,-0.9837036,-0.025939941,-25.3125,0.015625,-19.9375
1695310695968,0.15991211,-0.9873657,0.035827637,-22.890625,4.09375,-17.203125
1695310696014,0.032958984,-1.0061646,0.10321045,-17.5,5.421875,-18.609375
1695310696059,-0.064453125,-1.0115356,0.10369873,-12.9375,4.78125,-16.640625
1695310696088,0.008300781,-0.9612427,0.070495605,-11.296875,3.125,-8.21875
1695310696135,0.05834961,-0.92559814,0.17889404,-14.6875,4.796875,-4.734375
1695310696164,-0.020019531,-1.019104,0.19451904,-8.640625,3.1875,-2.484375
1695310696210,-0.07470703,-1.0349731,0.14227295,-4.4375,3.515625,-2.1875
1695310696255,-0.020507812,-0.94366455,0.20721436,-2.71875,6.40625,0.15625
1695310696299,-0.036865234,-0.96954346,0.1515503,-1.4375,6.40625,2.75
1695310696328,-0.005859375,-0.9758911,0.1774292,-0.328125,15.53125,8.25
1695310696360,0.06738281,-0.9751587,0.24969482,4.78125,4.90625,10.484375
1695310696405,-0.008056641,-0.98809814,0.21551514,6.84375,1.359375,11.328125
1695310696448,-0.018798828,-0.96295166,0.19525146,11.0,-3.46875,17.546875
1695310696478,0.005859375,-0.95928955,0.11907959,14.140625,-4.296875,20.296875
1695310696524,0.095458984,-0.9439087,0.18328857,25.515625,1.171875,24.671875
1695310696585,0.056152344,-0.9065552,0.12591553,33.515625,1.078125,32.84375
1695310696597,0.07714844,-0.9258423,0.06488037,38.828125,-0.765625,35.0
1695310696643,0.15039062,-1.055481,-0.016906738,45.96875,3.15625,32.53125
1695310696689,0.26098633,-1.1221313,-0.16265869,50.34375,-0.015625,30.078125
1695310696718,0.5986328,-1.0549927,-0.36724854,39.859375,-10.390625,34.515625
1695310696764,0.66381836,-1.08844,-0.49713135,36.1875,-8.953125,28.765625
1695310696793,0.7487793,-1.0540161,-0.4216919,27.984375,0.578125,20.921875
1695310696839,0.3371582,-1.163147,-0.5462036,25.53125,-5.703125,15.484375
1695310696884,0.6411133,-1.0640259,-0.4319458,29.015625,6.6875,18.21875
1695310696914,0.6882324,-0.88482666,-0.5906372,11.859375,-4.46875,6.890625
1695310696959,0.6257324,-0.9529419,-0.49786377,4.390625,1.078125,1.140625
1695310696989,0.54003906,-1.0054321,-0.47369385,1.1875,1.046875,2.15625
1695310697034,0.578125,-0.93634033,-0.46099854,0.453125,0.609375,-3.703125
1695310697079,0.56689453,-0.85772705,-0.41705322,-13.15625,-1.796875,-8.3125
1695310697109,0.48168945,-0.862854,-0.2852173,-10.28125,0.8125,-8.875
1695310697170,0.3408203,-0.80255127,-0.30426025,-16.5625,-1.21875,-15.0625
1695310697199,0.35205078,-0.71759033,-0.22833252,-19.1875,2.046875,-20.140625
1695310697233,0.32714844,-0.6880493,-0.17779541,-22.375,2.046875,-23.171875
1695310697274,0.2006836,-0.6524048,-0.20318604,-29.375,-1.453125,-26.9375
1695310697304,0.21948242,-0.5942993,-0.19073486,-30.46875,4.09375,-27.9375
1695310697349,0.19799805,-0.5689087,-0.1326294,-28.59375,3.46875,-28.4375
1695310697394,0.15209961,-0.60772705,-0.10845947,-30.03125,4.171875,-28.0
1695310697441,0.15332031,-0.63897705,-0.09307861,-30.703125,1.765625,-29.453125
1695310697468,0.15991211,-0.67510986,-0.10870361,-29.609375,1.71875,-27.390625
1695310697499,0.1928711,-0.6987915,-0.08453369,-28.765625,4.953125,-25.875
1695310697544,0.15234375,-0.7905884,-0.04522705,-25.609375,1.640625,-19.84375
1695310697589,0.11767578,-0.85894775,0.016052246,-23.0625,-0.53125,-19.171875
1695310697619,0.072265625,-0.92559814,-0.0010375977,-23.8125,-3.515625,-13.859375
1695310697664,0.087646484,-0.9656372,0.0038452148,-19.34375,-4.421875,-12.28125
1695310697711,0.056152344,-0.9998169,0.058288574,-6.71875,1.96875,-11.265625
1695310697738,0.060546875,-1.0015259,0.09588623,-8.390625,0.875,-7.40625
1695310697784,0.096191406,-0.989563,0.13519287,-7.84375,-3.203125,-5.09375
1695310697813,0.012451172,-1.0042114,0.116882324,-2.625,-4.59375,-2.53125
1695310697859,-0.001953125,-0.987854,0.11468506,2.5625,-2.21875,-1.53125
1695310697904,0.0,-1.0264282,0.13641357,0.703125,-3.21875,-0.21875
1695310697934,0.01171875,-1.0186157,0.105163574,2.921875,-3.5625,1.765625
1695310697980,0.011230469,-0.95928955,0.07220459,2.3125,-0.171875,2.453125
1695310698024,0.016845703,-0.96881104,0.105651855,4.109375,0.140625,5.578125
1695310698055,0.07080078,-1.0056763,0.086120605,4.75,-3.5,7.6875
1695310698100,0.07080078,-0.9873657,0.094177246,7.40625,-2.359375,8.890625
1695310698130,-0.001953125,-0.9546509,0.09320068,13.0625,1.21875,13.125
1695310698174,0.0690918,-0.8982544,0.05657959,19.265625,-1.359375,17.234375
1695310698220,0.13623047,-0.86431885,-0.054260254,23.859375,1.4375,22.9375
1695310698249,0.18530273,-0.677063,-0.04864502,33.796875,8.34375,28.515625
1695310698294,0.13134766,-0.5869751,-0.070617676,44.171875,7.015625,35.734375
1695310698324,0.16015625,-0.55596924,-0.13018799,43.84375,-1.734375,39.546875
1695310698369,0.25341797,-0.60479736,-0.13726807,36.390625,-8.90625,41.96875
1695310698414,0.26660156,-0.61602783,-0.12750244,46.28125,-2.046875,39.234375
1695310698444,0.14770508,-0.614563,-0.20220947,38.40625,-11.640625,42.453125
1695310698489,0.43310547,-0.6902466,-0.14483643,35.671875,-1.03125,40.796875
1695310698534,0.3125,-0.897522,-0.29595947,28.9375,-3.859375,32.703125
1695310698564,0.36645508,-0.9055786,-0.2510376,19.640625,6.828125,24.4375
1695310698612,0.5349121,-0.8015747,-0.3867798,17.921875,0.734375,18.359375
1695310698639,0.3256836,-0.81866455,-0.5112915,2.4375,-10.796875,12.265625
1695310698684,0.65283203,-0.75616455,-0.4277954,10.640625,-3.265625,3.703125
1695310698730,0.55444336,-0.8562622,-0.3772583,9.1875,-4.015625,4.234375
1695310698759,0.48339844,-0.9404907,-0.43585205,-2.796875,-0.265625,-3.78125
1695310698804,0.73535156,-0.79888916,-0.52349854,-9.484375,-6.46875,-3.09375
1695310698850,0.7751465,-0.76519775,-0.5310669,-6.609375,-5.984375,-0.734375
1695310698878,0.44604492,-0.8386841,-0.50665283,-5.421875,-2.375,-15.515625
1695310698925,0.60375977,-0.8501587,-0.39263916,-13.921875,3.359375,-6.125
1695310699000,0.5793457,-0.8855591,-0.49639893,-20.109375,-8.375,-18.78125
1695310699005,0.70166016,-0.9780884,-0.48101807,-21.96875,-2.921875,-20.71875
1695310699044,0.59521484,-1.1677856,-0.36627197,-33.203125,-4.21875,-26.921875
1695310699074,0.50927734,-1.1045532,-0.30303955,-19.0,4.640625,-23.890625
1695310699119,0.36987305,-1.083313,-0.24639893,-27.59375,4.3125,-26.484375
1695310699164,0.29614258,-1.0957642,-0.16534424,-27.46875,7.3125,-22.53125
1695310699194,0.27246094,-0.88775635,-0.11578369,-25.8125,8.296875,-23.96875
1695310699255,0.20605469,-0.83258057,-0.08453369,-21.734375,8.125,-22.140625
1695310699270,0.15600586,-0.8106079,-0.057922363,-21.09375,5.390625,-19.5
1695310699315,0.18310547,-0.8389282,0.028259277,-18.203125,1.90625,-16.78125
1695310699358,0.18920898,-0.9507446,-0.024475098,-18.265625,-1.3125,-13.578125
1695310699404,0.17333984,-0.9949341,0.02557373,-17.578125,-4.40625,-9.484375
1695310699433,0.12524414,-1.0698853,0.121520996,-12.265625,-2.65625,-5.234375
1695310699480,0.008056641,-1.041565,0.113464355,-4.40625,2.640625,-2.859375
1695310699509,0.017333984,-0.91485596,0.097839355,0.640625,1.8125,2.484375
1695310699555,0.061279297,-0.9053345,0.11419678,7.890625,1.234375,8.4375
1695310699583,0.075927734,-0.9595337,0.06707764,8.578125,-0.65625,11.46875
1695310699629,0.13720703,-0.9258423,0.06488037,14.46875,0.59375,16.078125
1695310699675,0.1394043,-0.93414307,0.015319824,20.984375,0.125,22.84375
1695310699704,0.18310547,-0.93341064,0.04852295,30.53125,2.75,28.03125
1695310699751,0.15820312,-1.0244751,-0.03302002,39.140625,-0.453125,30.28125
1695310699779,0.27246094,-1.0598755,-0.13653564,36.671875,-7.234375,32.421875
1695310699826,0.4736328,-1.1555786,-0.3237915,34.890625,-11.6875,26.203125
1695310699870,0.7302246,-1.0442505,-0.40338135,32.671875,-9.03125,31.078125
1695310699898,0.892334,-0.9651489,-0.38043213,24.640625,-2.984375,20.34375
1695310699944,0.4970703,-1.1082153,-0.4727173,20.5,-1.765625,15.390625
1695310699989,0.4885254,-1.135315,-0.581604,30.4375,4.171875,23.328125
1695310700019,0.67822266,-0.89849854,-0.47442627,18.140625,5.734375,10.71875
1695310700065,0.6772461,-0.9146118,-0.47027588,6.421875,-2.453125,3.953125
1695310700093,0.6257324,-1.000061,-0.4866333,-0.734375,-0.578125,-0.4375
1695310700139,0.58203125,-0.9585571,-0.42608643,-6.859375,2.328125,-9.171875
1695310700185,0.4921875,-0.87457275,-0.38946533,-13.828125,1.1875,-12.921875
1695310700214,0.48168945,-0.81451416,-0.34332275,-12.53125,1.21875,-14.953125
1695310700259,0.45825195,-0.77789307,-0.2637329,-19.609375,5.328125,-20.96875
1695310700305,0.27685547,-0.7385864,-0.24737549,-21.765625,2.578125,-26.640625
1695310700333,0.27514648,-0.6577759,-0.21246338,-25.1875,3.96875,-28.421875
1695310700379,0.28735352,-0.6646118,-0.15948486,-29.3125,1.015625,-30.25
1695310700409,0.2541504,-0.6992798,-0.12945557,-31.796875,3.109375,-32.25
1695310700454,0.16015625,-0.68341064,-0.06573486,-28.59375,1.75,-32.53125
1695310700500,0.15161133,-0.64190674,-0.12042236,-32.4375,1.5,-30.90625
1695310700529,0.18481445,-0.6206665,-0.04473877,-29.140625,4.03125,-30.140625
1695310700574,0.10424805,-0.57159424,-0.040100098,-24.6875,4.21875,-28.0
1695310700603,0.08959961,-0.53619385,-0.042297363,-24.203125,3.71875,-24.5
1695310700649,0.099853516,-0.6824341,-0.051330566,-25.234375,-0.40625,-13.875
1695310700694,0.10498047,-0.9312134,-0.057922363,-19.34375,0.65625,-7.9375
1695310700724,0.17211914,-1.1035767,-0.04156494,-10.765625,0.71875,-8.453125
1695310700770,0.10107422,-1.0054321,0.039733887,-8.96875,5.40625,-9.984375
1695310700814,0.059570312,-0.9697876,0.039245605,-6.75,2.96875,-7.0625
1695310700843,0.05126953,-0.98272705,0.07928467,-5.71875,-2.78125,-4.734375
1695310700890,0.0546875,-0.991272,0.074401855,-1.875,-4.546875,-3.234375
1695310700964,0.035888672,-1.0095825,0.08294678,-0.84375,-3.46875,-4.171875
1695310700969,0.008300781,-0.99957275,0.090270996,-2.015625,-2.1875,-1.84375
1695310701009,0.067871094,-0.96099854,0.08319092,0.8125,-0.703125,0.890625
1695310701039,0.05810547,-0.9890747,0.026306152,-0.640625,-3.421875,4.140625
1695310701085,0.05810547,-0.987854,0.08782959,4.796875,0.265625,4.640625
1695310701130,-0.036132812,-0.9927368,0.07952881,12.53125,1.0,8.0
1695310701159,0.051757812,-0.9053345,-0.004699707,13.171875,2.59375,12.984375
1695310701204,0.103515625,-0.8123169,-0.034729004,22.09375,2.359375,14.59375
1695310701234,0.13232422,-0.7058716,-0.06719971,32.78125,3.25,21.875
1695310701280,0.19018555,-0.58062744,-0.08770752,41.53125,-1.359375,33.15625
1695310701325,0.1796875,-0.49127197,-0.051818848,50.84375,-1.578125,36.84375
1695310701370,0.030761719,-0.45611572,-0.09674072,52.640625,1.703125,38.8125
1695310701399,0.11010742,-0.48223877,-0.30645752,49.625,-14.21875,44.375
1695310701431,0.34057617,-0.63360596,-0.1897583,47.046875,1.09375,41.25
1695310701476,0.45874023,-0.7998657,-0.32891846,47.765625,-13.140625,39.78125
1695310701519,0.30908203,-0.83599854,-0.32354736,37.84375,-2.1875,44.90625
1695310701549,0.34765625,-0.8027954,-0.4006958,26.59375,-6.78125,30.203125
1695310701594,0.48901367,-0.75738525,-0.40020752,25.25,0.390625,24.734375
1695310701638,0.56396484,-0.7334595,-0.43780518,15.578125,-2.765625,22.390625
1695310701668,0.34594727,-0.8218384,-0.53448486,5.0625,-8.75,-0.1875
1695310701714,0.6425781,-0.95318604,-0.6096802,3.5,1.03125,8.046875
1695310701743,0.7409668,-0.70928955,-0.6182251,3.125,9.5,7.140625
1695310701827,0.60595703,-0.81622314,-0.48199463,0.875,-3.890625,-8.796875
1695310701833,0.79174805,-0.9038696,-0.4644165,-8.25,-9.53125,-3.734375
1695310701864,0.3479004,-0.68463135,-0.67022705,-17.6875,-5.359375,-23.28125
1695310701910,0.6699219,-0.7420044,-0.5840454,-18.28125,-1.265625,-11.578125
1695310701955,0.66259766,-0.85894775,-0.67803955,-21.59375,-4.5625,-26.015625
1695310701984,0.5617676,-1.05719,-0.53985596,-22.671875,1.90625,-34.9375
1695310702029,0.52319336,-1.0881958,-0.51934814,-25.046875,8.03125,-31.3125
1695310702059,0.49438477,-1.1287231,-0.42730713,-29.140625,9.640625,-26.109375
1695310702104,0.41870117,-1.2153931,-0.27764893,-34.953125,10.53125,-27.125
1695310702149,0.33666992,-1.0073853,-0.15948486,-33.1875,8.1875,-23.390625
1695310702179,0.10913086,-0.79937744,-0.18682861,-32.75,4.421875,-27.484375
1695310702225,0.0949707,-0.6436157,-0.14581299,-27.703125,5.1875,-22.203125
1695310702270,0.15356445,-0.7268677,-0.08502197,-24.140625,-0.453125,-19.265625
1695310702299,0.119628906,-0.95513916,-0.085510254,-18.921875,-5.5,-17.609375
1695310702345,0.063964844,-1.1170044,-0.054504395,-21.953125,-5.71875,-16.09375
1695310702373,0.048095703,-1.1043091,-0.062316895,-17.796875,0.078125,-13.859375
1695310702420,0.012207031,-0.96881104,-0.0256958,-15.171875,4.453125,-12.78125
1695310702465,0.01977539,-0.9170532,0.013366699,-15.6875,5.09375,-7.25
1695310702494,0.020507812,-0.92681885,0.008483887,-11.03125,8.4375,-3.28125
1695310702539,0.056152344,-0.9456177,0.07171631,-0.015625,7.9375,-2.640625
1695310702568,0.01928711,-0.97320557,0.06317139,-1.203125,4.046875,3.59375
1695310702614,0.0041503906,-0.99713135,0.055847168,1.5625,4.859375,5.625
1695310702661,0.0061035156,-0.98931885,0.06976318,5.859375,5.3125,8.890625
1695310702690,0.059570312,-0.9168091,0.06048584,11.859375,6.6875,12.765625
1695310702734,0.0024414062,-0.9439087,0.06390381,14.546875,2.328125,14.484375
1695310702779,0.018066406,-0.97540283,0.04925537,19.671875,0.78125,17.515625
1695310702809,0.12207031,-0.9380493,0.05316162,27.65625,-1.359375,21.671875
1695310702855,0.12695312,-0.9295044,-0.0032348633,34.859375,-4.59375,28.71875
1695310702930,0.14941406,-0.91851807,-0.008605957,43.359375,-1.046875,35.03125
1695310702935,0.1340332,-0.9951782,-0.12506104,43.265625,-13.03125,40.578125
1695310702990,0.3017578,-1.0894165,-0.20489502,44.765625,-14.140625,33.015625
1695310703005,0.5241699,-1.1104126,-0.40582275,28.96875,-21.171875,33.515625
1695310703049,0.5749512,-1.0281372,-0.70196533,36.765625,-15.671875,31.578125
1695310703095,0.83618164,-0.9348755,-0.71466064,36.328125,-3.15625,27.65625
1695310703124,0.7548828,-1.0752563,-0.6404419,22.09375,2.671875,14.015625
1695310703169,0.5932617,-1.0557251,-0.73394775,19.71875,-1.265625,6.53125
1695310703199,0.640625,-0.987854,-0.6773071,-3.46875,2.390625,3.375
1695310703244,0.6516113,-0.95391846,-0.66290283,-5.609375,-1.96875,-5.265625
1695310703290,0.84228516,-0.92437744,-0.4968872,-13.796875,3.046875,-7.46875
1695310703319,0.55126953,-0.95806885,-0.49591064,-15.9375,5.09375,-14.515625
1695310703364,0.46264648,-0.8296509,-0.42364502,-22.171875,6.59375,-23.203125
1695310703393,0.4814453,-0.78741455,-0.3086548,-19.375,5.828125,-19.78125
1695310703439,0.36816406,-0.7234497,-0.30841064,-25.6875,5.015625,-23.671875
1695310703484,0.2644043,-0.6397095,-0.23052979,-33.171875,6.78125,-28.5625
1695310703513,0.1965332,-0.59039307,-0.17852783,-37.5625,6.390625,-31.703125
1695310703559,0.16381836,-0.52960205,-0.16046143,-38.21875,5.140625,-33.734375
1695310703604,0.19799805,-0.43780518,-0.07476807,-36.8125,8.5,-34.078125
1695310703634,0.08178711,-0.3838501,-0.06842041,-35.1875,6.984375,-33.40625
1695310703679,0.03466797,-0.40093994,-0.085754395,-40.65625,3.34375,-30.0
1695310703709,0.1003418,-0.52838135,-0.10772705,-27.421875,-0.25,-27.15625
1695310703754,0.096191406,-0.7283325,-0.12554932,-23.125,0.453125,-18.65625
1695310703799,0.14404297,-0.9951782,-0.047912598,-21.0,0.3125,-10.4375
1695310703829,0.084472656,-1.0779419,0.0067749023,-15.921875,3.5625,-10.875
1695310703876,0.0056152344,-0.94317627,0.05682373,-9.296875,4.09375,-13.171875
1695310703949,0.061767578,-0.9663696,0.07537842,-8.453125,2.234375,-6.25
1695310703955,-0.014404297,-1.0422974,0.066589355,-5.9375,2.859375,-4.0
1695310703994,0.015136719,-1.0127563,0.086120605,-2.53125,4.0,-3.96875
1695310704024,0.038085938,-0.97052,0.08758545,-2.15625,0.875,-4.09375
1695310704070,-0.0075683594,-0.9619751,0.06072998,0.375,-0.90625,-1.34375
1695310704115,-0.0053710938,-1.0012817,0.07562256,-0.03125,-2.875,0.53125
1695310704143,-0.011962891,-1.024231,0.06829834,1.25,-2.40625,1.9375
1695310704190,0.006591797,-0.9854126,0.06781006,5.5625,-2.703125,1.890625
1695310704219,0.021484375,-0.9837036,0.039978027,7.546875,-4.828125,5.421875
1695310704264,0.021484375,-0.98028564,0.04168701,10.234375,-4.203125,7.3125
1695310704309,0.027832031,-0.9727173,0.0211792,13.046875,-4.890625,10.25
1695310704339,0.053222656,-0.95147705,0.0045776367,16.375,-10.0625,13.125
1695310704386,0.060058594,-0.9351196,-0.038391113,19.0625,-13.953125,15.34375
1695310704429,0.083496094,-0.88116455,-0.08502197,26.125,-12.6875,20.46875
1695310704459,0.13647461,-0.74957275,-0.11016846,33.3125,-6.015625,25.65625
1695310704504,0.18457031,-0.63287354,-0.16973877,44.671875,1.578125,35.390625
1695310704533,0.17944336,-0.42340088,-0.08795166,51.265625,10.5625,41.90625
1695310704579,0.12036133,-0.3743286,-0.10455322,56.921875,4.421875,48.875
1695310704625,0.111816406,-0.47979736,-0.32086182,52.21875,-13.46875,49.890625
1695310704654,0.29833984,-0.60821533,-0.2925415,41.734375,-10.703125,46.84375
1695310704699,0.4873047,-0.6721802,-0.22003174,40.671875,-5.140625,35.484375
1695310704745,0.1862793,-0.79571533,-0.30841064,26.09375,-6.921875,34.9375
1695310704774,0.20410156,-0.7258911,-0.44976807,23.4375,-3.015625,26.640625
1695310704819,0.59594727,-0.6902466,-0.41290283,13.953125,2.703125,16.09375
1695310704899,0.67578125,-0.74664307,-0.49346924,2.625,-8.578125,12.375
1695310704904,0.4716797,-0.802063,-0.6873169,5.71875,-4.359375,5.78125
1695310704939,0.6855469,-0.8994751,-0.59454346,-1.734375,3.984375,-1.25
1695310704984,0.8701172,-0.82940674,-0.51763916,-1.203125,-1.984375,7.046875
1695310705015,0.59106445,-0.80841064,-0.6370239,-8.0,-13.859375,-9.75
1695310705059,0.6118164,-0.76446533,-0.5767212,-23.890625,-9.1875,-17.84375
1695310705089,0.6677246,-0.8765259,-0.6304321,-25.421875,-6.53125,-19.8125
1695310705135,0.6784668,-0.8040161,-0.47296143,-29.65625,-5.703125,-24.140625
1695310705163,0.3947754,-0.92437744,-0.5462036,-26.5,-3.59375,-37.0625
1695310705209,0.736084,-1.1133423,-0.53448486,-31.296875,1.234375,-25.296875
1695310705254,0.57958984,-1.0874634,-0.37677002,-25.34375,4.6875,-28.171875
1695310705284,0.29736328,-1.0181274,-0.2642212,-31.640625,5.65625,-35.3125
1695310705329,0.26220703,-1.1340942,-0.19366455,-32.75,4.359375,-29.1875
1695310705359,0.35058594,-0.97125244,-0.15924072,-31.03125,5.734375,-29.296875
1695310705404,0.13793945,-0.8201294,-0.10357666,-31.796875,3.828125,-31.453125
1695310705451,0.055908203,-0.8501587,-0.11090088,-29.0,1.828125,-25.109375
1695310705479,0.17114258,-0.8875122,-0.027160645,-27.34375,0.78125,-21.375
1695310705524,0.103759766,-0.93414307,0.058288574,-24.125,3.015625,-25.25
1695310705569,-0.12890625,-1.0210571,0.018493652,-21.421875,2.6875,-24.546875
1695310705599,0.001953125,-1.0425415,-0.019836426,-20.671875,9.390625,-12.234375
1695310705659,0.1940918,-0.9512329,0.17547607,-13.53125,6.4375,-9.328125
1695310705675,-0.068115234,-1.0344849,0.08416748,-18.125,9.78125,-10.78125
1695310705719,-0.06298828,-0.9380493,0.19793701,-14.109375,5.34375,-6.0625
1695310705764,-0.06713867,-0.9483032,0.18157959,-8.234375,3.546875,-2.53125
1695310705793,-0.07885742,-0.9854126,0.1671753,-12.046875,-0.125,-2.078125
1695310705840,-0.037841797,-0.97613525,0.1864624,-8.4375,-1.21875,-2.125
1695310705917,-0.05419922,-1.0234985,0.18231201,-2.109375,-1.0625,2.421875
1695310705921,-0.014404297,-0.97247314,0.21234131,1.109375,0.9375,4.890625
1695310705959,-0.06933594,-0.9758911,0.18719482,5.984375,2.265625,6.875
1695310705990,-0.026855469,-0.96759033,0.18060303,9.21875,4.015625,9.96875
1695310706034,0.009033203,-0.9639282,0.19378662,12.03125,1.859375,13.078125
1695310706079,-0.026367188,-0.9800415,0.16082764,12.96875,-0.59375,14.578125
1695310706109,0.01977539,-0.9763794,0.14837646,16.234375,-0.75,17.453125
1695310706155,0.055908203,-0.95977783,0.15130615,18.78125,-1.578125,20.546875
1695310706184,0.068847656,-0.9397583,0.10003662,22.953125,-0.75,24.421875
1695310706230,0.072753906,-0.9299927,0.093444824,28.8125,-2.21875,29.09375
1695310706274,0.14282227,-0.9024048,0.020935059,33.28125,-2.03125,32.703125
1695310706303,0.14916992,-0.91778564,0.004333496,39.828125,-1.21875,39.078125
1695310706350,0.25634766,-1.0032349,-0.042053223,44.734375,1.203125,41.75
1695310706394,0.3371582,-1.0759888,-0.20440674,39.90625,-15.671875,38.625
1695310706424,0.54418945,-1.0686646,-0.378479,29.953125,-17.171875,35.796875
1695310706470,0.6879883,-0.9890747,-0.4619751,34.453125,-12.828125,36.5
1695310706499,0.76464844,-0.991272,-0.47320557,30.578125,-0.046875,31.0
1695310706544,0.61035156,-1.0769653,-0.49517822,33.65625,3.796875,16.828125
1695310706589,0.79125977,-0.98150635,-0.6790161,24.546875,6.125,17.40625
1695310706628,0.7470703,-0.9065552,-0.5930786,1.359375,1.515625,3.09375
1695310706664,0.78466797,-0.987854,-0.5598755,8.6875,5.640625,-1.78125
1695310706741,0.7116699,-0.97613525,-0.54888916,-3.671875,2.15625,-2.34375
1695310706744,0.6484375,-0.89727783,-0.4920044,-10.28125,2.6875,-9.609375
1695310706784,0.5324707,-0.8843384,-0.4368286,-18.9375,-0.25,-15.296875
1695310706860,0.57006836,-0.8110962,-0.3430786,-14.8125,2.8125,-15.21875
1695310706866,0.48779297,-0.76226807,-0.25250244,-18.90625,5.109375,-22.53125
1695310706936,0.32373047,-0.7246704,-0.16851807,-16.953125,5.546875,-26.203125
1695310706943,0.26953125,-0.5479126,-0.117004395,-19.390625,8.640625,-28.015625
1695310706980,0.115234375,-0.4241333,-0.20709229,-26.421875,3.03125,-30.109375
1695310707025,0.22216797,-0.46099854,-0.18145752,-34.625,-2.0625,-29.34375
1695310707055,0.3720703,-0.60943604,-0.09283447,-30.984375,2.375,-30.234375
1695310707099,0.17626953,-0.65753174,-0.09869385,-32.328125,1.96875,-29.453125
1695310707129,0.103271484,-0.60284424,-0.089904785,-37.984375,-0.375,-30.703125
1695310707174,0.16845703,-0.63946533,-0.105041504,-31.71875,-0.046875,-28.34375
1695310707219,0.19360352,-0.7197876,-0.07476807,-19.4375,0.296875,-21.5
1695310707249,0.19555664,-0.831604,-0.05718994,-22.265625,-4.4375,-16.109375
1695310707295,0.10839844,-0.98687744,-0.009094238,-19.375,-6.453125,-13.0625
1695310707324,0.018310547,-1.0064087,0.0028686523,-14.578125,2.046875,-15.765625
1695310707370,-0.023925781,-0.9404907,0.0038452148,-5.859375,2.75,-14.5625
1695310707415,0.080322266,-0.90582275,0.01776123,-10.5,7.265625,-7.96875
1695310707443,0.1538086,-0.9680786,0.09637451,-6.046875,-2.140625,-2.6875
1695310707489,0.009765625,-1.1050415,0.070007324,-1.28125,-0.546875,-2.453125
1695310707535,0.005126953,-1.0003052,0.086364746,0.375,0.96875,-3.34375
1695310707564,-0.02368164,-0.97857666,0.08929443,0.828125,-2.09375,-4.71875
1695310707610,0.023925781,-0.98883057,0.06121826,2.0625,0.515625,0.109375
1695310707638,0.04345703,-0.9714966,0.061950684,0.578125,-2.25,-0.09375
1695310707685,-0.0048828125,-1.0020142,0.06854248,4.3125,-1.953125,0.421875
1695310707730,-0.0017089844,-0.99053955,0.03363037,2.765625,-1.09375,3.140625
1695310707759,0.034423828,-0.9956665,0.06414795,6.09375,-1.328125,3.53125
1695310707804,-0.0012207031,-1.0110474,0.066833496,6.90625,-2.703125,5.25
1695310707880,-0.01586914,-0.9961548,0.039733887,7.859375,-2.390625,6.21875
1695310707885,0.0715332,-0.9570923,0.021911621,9.765625,-1.15625,9.59375
1695310707928,0.08642578,-0.9299927,-0.014953613,13.46875,-0.8125,10.5625
1695310707954,0.0871582,-0.96099854,-0.04937744,18.078125,-1.25,16.140625
1695310708000,0.1730957,-0.83184814,-0.13043213,19.40625,0.90625,19.265625
1695310708046,0.19433594,-0.68463135,-0.09088135,35.171875,3.484375,26.484375
1695310708073,0.115234375,-0.5420532,-0.047180176,48.015625,13.703125,31.140625
1695310708119,0.022216797,-0.35699463,-0.010803223,51.59375,15.890625,36.875
1695310708148,0.040771484,-0.28082275,-0.1638794,46.921875,-2.390625,41.734375
1695310708210,0.28442383,-0.38458252,-0.15020752,39.96875,-4.46875,42.59375
1695310708240,0.37158203,-0.54229736,-0.17462158,37.140625,-8.84375,34.65625
1695310708270,0.23828125,-0.7473755,-0.27716064,22.390625,-22.515625,37.21875
1695310708314,0.49560547,-0.9939575,-0.3447876,21.375,-2.796875,35.515625
1695310708359,0.36621094,-1.0947876,-0.4373169,17.375,-4.359375,20.046875
1695310708389,0.5900879,-0.78302,-0.5532837,11.796875,-4.0625,16.109375
1695310708435,0.5805664,-0.6633911,-0.6001587,17.09375,-7.578125,12.78125
1695310708463,0.62475586,-0.93756104,-0.4356079,13.984375,6.5,4.265625
1695310708509,0.7585449,-1.0645142,-0.6321411,-3.640625,-15.890625,2.484375
1695310708555,0.71972656,-0.8049927,-0.5667114,-12.59375,4.421875,-1.015625
1695310708584,0.29711914,-0.73809814,-0.56085205,-15.28125,-6.9375,-28.40625
1695310708629,0.75805664,-0.9500122,-0.48687744,-23.046875,-3.046875,-11.296875
1695310708705,0.7050781,-0.7420044,-0.522522,-36.46875,-8.0625,-40.578125
1695310708710,0.34155273,-1.0962524,-0.51031494,-41.5625,-3.265625,-46.421875
1695310708749,0.55810547,-1.3069458,-0.45465088,-37.21875,-1.875,-30.8125
1695310708781,0.55249023,-1.4395142,-0.42340088,-41.546875,-8.234375,-31.734375
1695310708824,0.37353516,-1.4119263,-0.0881958,-36.90625,10.953125,-33.921875
1695310708869,0.052001953,-0.9324341,-0.0049438477,-21.5625,16.09375,-33.9375
1695310708899,0.006591797,-0.5264282,-0.010559082,-24.0,12.984375,-29.8125
1695310708945,0.05493164,-0.5671997,0.042175293,-24.234375,2.328125,-23.84375
1695310708991,0.04345703,-0.83843994,0.0067749023,-25.109375,-5.71875,-22.53125
1695310709018,0.075927734,-1.1555786,0.043395996,-27.859375,-9.984375,-20.953125
1695310709064,0.044921875,-1.2224731,0.124938965,-28.390625,-4.6875,-19.140625
1695310709094,-0.04736328,-1.05719,0.16741943,-24.53125,1.125,-15.890625
1695310709139,-0.049804688,-0.90997314,0.15692139,-16.640625,9.328125,-13.53125
1695310709184,-0.11376953,-0.90997314,0.16033936,-9.703125,6.78125,-7.9375
1695310709214,-0.0014648438,-0.9302368,0.14642334,-7.765625,13.0625,-3.3125
1695310709260,-0.052978516,-1.0269165,0.168396,-9.71875,-3.359375,-5.28125
1695310709289,-0.010498047,-0.98394775,0.21697998,-3.890625,2.5,-4.96875
1695310709336,-0.11987305,-0.98931885,0.16229248,-5.671875,-2.609375,-2.734375
1695310709379,-0.010009766,-0.98028564,0.21209717,-4.40625,-1.546875,-3.0625
1695310709409,-0.04638672,-0.96343994,0.21673584,-1.1875,-2.609375,-1.265625
1695310709454,-0.13427734,-1.0020142,0.18011475,-0.78125,0.0,0.390625
1695310709500,-0.04272461,-0.98687744,0.2086792,1.15625,0.203125,1.71875
1695310709528,-0.09082031,-0.99176025,0.1942749,0.96875,3.8125,3.34375
1695310709574,-0.047607422,-0.99298096,0.2255249,3.5625,1.03125,6.390625
1695310709604,-0.064941406,-0.9883423,0.19012451,5.09375,4.4375,7.03125
1695310709649,-0.091308594,-1.0054321,0.19818115,7.796875,1.765625,9.71875
1695310709709,-0.024414062,-0.958313,0.1852417,9.453125,3.28125,9.46875
1695310709724,-0.072265625,-0.99713135,0.18988037,13.296875,3.6875,13.515625
1695310709770,-0.03515625,-0.99346924,0.18817139,15.453125,4.65625,16.40625
1695310709816,-0.033935547,-0.9678345,0.16815186,18.734375,4.8125,18.375
1695310709844,-0.008056641,-0.96881104,0.1618042,22.3125,3.53125,21.25
1695310709904,0.017822266,-0.9673462,0.12445068,28.875,1.359375,25.84375
1695310709919,0.095703125,-0.9480591,0.14471436,33.140625,-3.0,29.28125
1695310709966,0.1159668,-0.9500122,0.05291748,41.5,-13.296875,34.515625
1695310710009,0.056396484,-0.9175415,-0.11456299,43.453125,-8.40625,41.265625
1695310710055,0.21533203,-0.9512329,-0.105529785,49.109375,-14.34375,39.8125
1695310710084,0.38427734,-1.0952759,-0.25811768,39.140625,-17.015625,34.671875
1695310710115,0.44067383,-1.1995239,-0.4890747,24.25,-10.96875,34.875
1695310710160,0.6635742,-1.0974731,-0.5862427,38.546875,8.203125,39.78125
1695310710205,1.0656738,-0.8982544,-0.44659424,27.609375,8.34375,25.9375
1695310710234,0.49926758,-1.1387329,-0.6838989,27.046875,5.578125,16.875
1695310710279,0.63012695,-1.0523071,-0.63726807,13.6875,13.40625,16.484375
1695310710325,0.78027344,-0.93634033,-0.5977173,4.40625,2.90625,3.5
1695310710353,0.73339844,-0.9209595,-0.54522705,-0.984375,4.78125,-7.953125
1695310710402,0.5720215,-1.0110474,-0.50250244,-7.1875,0.59375,-1.5
1695310710429,0.5124512,-0.9043579,-0.5046997,-13.90625,3.546875,-9.5
1695310710474,0.50024414,-0.82818604,-0.38458252,-18.53125,2.125,-13.859375
1695310710519,0.4345703,-0.7752075,-0.27301025,-30.609375,1.6875,-20.96875
1695310710550,0.3395996,-0.7312622,-0.19317627,-27.609375,0.921875,-22.03125
1695310710594,0.27563477,-0.6477661,-0.2263794,-29.6875,3.703125,-26.671875
1695310710670,0.20727539,-0.5100708,-0.14776611,-29.109375,3.875,-33.09375
1695310710675,0.1237793,-0.411438,-0.13775635,-27.25,5.328125,-30.09375
1695310710715,0.15014648,-0.37554932,-0.08355713,-29.078125,4.203125,-28.328125
1695310710790,0.104003906,-0.43414307,-0.070129395,-33.046875,2.796875,-31.171875
1695310710795,0.14111328,-0.5588989,-0.085754395,-28.265625,0.671875,-31.125
1695310710834,0.20507812,-0.6995239,-0.1338501,-27.703125,-1.3125,-25.28125
1695310710865,0.16845703,-0.8369751,-0.06842041,-24.453125,-1.53125,-20.578125
1695310710910,0.12207031,-1.0112915,-0.066711426,-21.46875,-4.203125,-18.671875
1695310710954,0.028808594,-0.9734497,-0.0960083,-20.9375,-1.5625,-18.53125
1695310710984,0.11035156,-0.88604736,0.0138549805,-13.421875,-1.875,-12.734375
1695310711030,0.07861328,-1.0093384,0.06365967,-12.75,-0.109375,-10.484375
1695310711059,-0.008300781,-1.0498657,0.014343262,-10.4375,3.21875,-5.53125
1695310711104,0.1081543,-0.9573364,0.070495605,-6.203125,-1.140625,-5.3125
1695310711149,0.049072266,-0.96881104,0.08392334,-3.5625,-2.5625,-3.75
1695310711179,-0.011962891,-1.0010376,0.101989746,-1.859375,-3.5,-2.203125
1695310711228,0.0007324219,-1.0335083,0.098083496,-0.46875,-4.28125,-0.53125
1695310711256,0.0012207031,-0.97369385,0.07171631,1.359375,-4.140625,0.328125
1695310711299,-0.0087890625,-0.9692993,0.109802246,3.09375,-5.03125,1.609375
1695310711345,0.022705078,-1.0083618,0.097595215,3.4375,-6.515625,3.1875
1695310711374,-0.012451172,-1.0337524,0.048034668,3.328125,-5.296875,4.46875
1695310711419,-0.0048828125,-0.973938,0.05633545,3.140625,-2.84375,3.75
1695310711463,0.00024414062,-0.991272,0.07513428,8.25,-2.796875,6.15625
1695310711509,0.045166016,-0.9627075,0.07366943,7.9375,-1.734375,9.765625
1695310711539,0.0061035156,-0.92755127,0.024108887,11.90625,-1.203125,13.0625
1695310711569,-0.0021972656,-0.878479,-0.021057129,25.4375,2.984375,19.265625
1695310711614,0.118896484,-0.7402954,-0.06866455,27.359375,6.359375,22.703125
1695310711660,0.2631836,-0.585022,-0.047668457,33.234375,0.0,29.296875
1695310711688,0.2241211,-0.6199341,-0.08258057,34.09375,-0.734375,35.359375
1695310711735,0.08251953,-0.6536255,-0.034484863,40.796875,7.21875,31.859375
1695310711781,0.100097656,-0.51812744,-0.0491333,40.140625,8.5,40.03125
1695310711810,0.12402344,-0.40826416,-0.19732666,33.1875,-5.921875,42.296875
1695310711869,0.34472656,-0.4668579,-0.31134033,35.765625,-11.28125,36.5625
1695310711885,0.41210938,-0.71710205,-0.28326416,47.484375,-8.15625,39.3125
1695310711929,0.38427734,-0.9841919,-0.31304932,38.25,-13.4375,39.15625
1695310711976,0.42333984,-1.078186,-0.24298096,18.625,4.046875,28.1875
1695310712003,0.3864746,-0.84991455,-0.41485596,9.25,-12.03125,15.46875
1695310712050,0.42871094,-0.6567993,-0.53131104,19.171875,-6.640625,16.0
1695310712079,0.7570801,-0.68218994,-0.5261841,17.359375,1.75,-1.484375
1695310712125,0.79907227,-0.95196533,-0.6140747,2.59375,-9.578125,5.9375
1695310712169,0.6677246,-0.894104,-0.6289673,1.8125,1.640625,6.640625
1695310712198,0.609375,-0.7703247,-0.5598755,-3.078125,2.03125,-3.203125
1695310712244,0.60717773,-0.7798462,-0.44439697,-14.859375,-6.78125,-6.15625
1695310712289,0.6550293,-0.9429321,-0.5095825,-27.296875,-3.546875,-22.328125
1695310712319,0.7390137,-0.767395,-0.57598877,-34.640625,-2.71875,-25.78125
1695310712364,0.58374023,-1.039856,-0.48443604,-33.078125,-1.40625,-36.1875
1695310712393,0.5480957,-1.1873169,-0.47662354,-27.453125,3.765625,-36.140625
1695310712440,0.54833984,-1.2634888,-0.4204712,-29.375,5.46875,-26.5625
1695310712484,0.47021484,-1.1658325,-0.24053955,-33.71875,7.984375,-28.65625
1695310712529,0.23730469,-0.9299927,-0.1182251,-32.3125,6.78125,-29.828125
1695310712574,0.08203125,-0.677063,-0.058166504,-31.578125,4.953125,-34.78125
1695310712635,0.095458984,-0.6814575,-0.046203613,-28.3125,0.0625,-30.828125
1695310712640,0.15527344,-0.8015747,-0.0335083,-29.359375,-1.640625,-26.640625
1695310712679,0.14331055,-0.9614868,-0.015197754,-28.078125,-8.078125,-26.140625
1695310712709,0.060546875,-1.1228638,0.012145996,-24.125,-6.890625,-21.796875
1695310712754,0.07763672,-1.1228638,0.1461792,-21.984375,2.375,-17.796875
1695310712799,-0.14672852,-1.0020142,0.06561279,-21.828125,7.859375,-19.203125
1695310712829,-0.057373047,-0.8789673,0.14666748,-13.71875,21.953125,-7.828125
1695310712875,0.09082031,-0.89923096,0.19818115,-11.65625,7.4375,-7.8125
1695310712903,-0.14868164,-1.0794067,0.14715576,-9.453125,2.625,-5.8125
1695310712949,0.022705078,-0.9463501,0.21575928,-7.078125,1.109375,-5.90625
1695310712994,-0.107910156,-1.0164185,0.1593628,-7.46875,-2.796875,-4.625
1695310713024,-0.03881836,-1.0007935,0.2177124,-3.734375,-3.90625,-4.53125
1695310713069,-0.052978516,-0.9768677,0.17230225,-5.015625,-4.453125,-3.625
1695310713114,-0.12939453,-0.97052,0.22332764,-1.890625,2.515625,-2.953125
1695310713143,-0.068603516,-0.9885864,0.20184326,0.34375,3.59375,2.359375
1695310713189,-0.061035156,-1.0088501,0.17572021,0.3125,5.65625,3.828125
1695310713218,-0.006591797,-0.9614868,0.20037842,5.484375,6.09375,6.09375
1695310713265,-0.064208984,-0.975647,0.18865967,6.9375,0.890625,8.015625
1695310713340,-0.044677734,-0.9841919,0.22113037,7.59375,-0.171875,9.234375
1695310713346,-0.08862305,-0.97857666,0.18499756,13.578125,3.96875,13.328125
1695310713387,-0.03466797,-0.95977783,0.1749878,15.40625,5.203125,15.1875
1695310713429,0.021728516,-0.94610596,0.17596436,20.125,2.5625,18.53125
1695310713459,0.012207031,-0.954895,0.13348389,26.625,0.53125,22.09375
1695310713504,0.03515625,-0.9421997,0.11566162,32.078125,-1.0,26.0625
1695310713534,0.076171875,-0.91656494,0.090026855,36.375,-0.390625,32.296875
1695310713580,0.103027344,-0.92022705,0.078063965,42.25,-3.0625,39.078125
1695310713626,0.092285156,-1.0147095,-6.1035156e-05,44.9375,-9.3125,41.390625
1695310713654,0.22875977,-1.1079712,-0.11187744,43.359375,-5.0,38.4375
1695310713699,0.5222168,-1.185852,-0.3357544,38.828125,-27.296875,31.609375
1695310713744,0.42944336,-1.1375122,-0.62335205,67.421875,-1.609375,22.953125
1695310713774,0.7294922,-1.0061646,-0.5889282,44.484375,5.125,29.125
1695310713820,0.7504883,-1.0574341,-0.53204346,20.65625,2.046875,11.734375
1695310713848,0.5097656,-1.102356,-0.71759033,21.34375,-6.328125,12.3125
1695310713895,0.6599121,-0.9902954,-0.54644775,-1.953125,-1.6875,5.21875
1695310713939,0.78344727,-0.9480591,-0.5388794,6.484375,-7.359375,0.0
1695310713968,0.5571289,-1.0496216,-0.5540161,-5.59375,-1.359375,-1.203125
1695310714016,0.55615234,-0.96539307,-0.4837036,-11.921875,-1.046875,-6.796875
1695310714044,0.4326172,-0.9421997,-0.49420166,-30.890625,-5.015625,-14.5
1695310714090,0.5529785,-0.94659424,-0.26812744,-24.578125,8.8125,-18.828125
1695310714134,0.32788086,-0.8418579,-0.2468872,-25.640625,6.265625,-20.203125
1695310714163,0.22851562,-0.6633911,-0.19586182,-24.703125,12.0625,-24.765625
1695310714210,0.24682617,-0.5252075,-0.14752197,-29.203125,10.0,-29.8125
1695310714255,0.15820312,-0.47442627,-0.10626221,-30.515625,7.671875,-33.421875
1695310714284,0.1875,-0.4043579,-0.09918213,-34.4375,6.4375,-36.140625
1695310714330,0.10180664,-0.3381958,-0.06060791,-34.8125,4.296875,-34.578125
1695310714359,0.03955078,-0.32965088,-0.08404541,-36.234375,0.359375,-30.625
1695310714405,0.19140625,-0.5274048,-0.028137207,-28.359375,-3.53125,-26.0625
1695310714453,0.16821289,-0.87286377,-0.030822754,-24.90625,-9.28125,-23.03125
1695310714479,0.091796875,-1.1192017,-0.049621582,-22.09375,-11.828125,-14.765625
1695310714523,0.15649414,-0.9607544,-0.02130127,-18.71875,-4.671875,-15.796875
1695310714619,0.08276367,-0.91778564,0.06585693,-9.28125,-2.28125,-14.984375
1695310714623,-0.060302734,-0.98931885,0.018249512,-8.8125,-0.265625,-8.875
1695310714643,-0.030029297,-1.0286255,0.066589355,-3.6875,0.578125,-5.71875
1695310714674,0.064453125,-0.98394775,0.10809326,-1.140625,3.640625,-5.0625
1695310714720,0.0,-0.9963989,0.07489014,-3.5,2.921875,-1.0625
1695310714763,0.018554688,-0.95928955,0.07659912,-3.296875,-0.609375,-2.046875
1695310714793,-0.015380859,-0.99176025,0.09124756,1.671875,-1.609375,-1.140625
1695310714839,-0.02368164,-1.0161743,0.10003662,0.453125,-1.46875,1.46875
1695310714870,0.0029296875,-1.0059204,0.08001709,0.46875,-1.875,0.765625
1695310714916,0.012207031,-0.99102783,0.08392334,4.5625,-3.140625,3.796875
1695310714959,0.015380859,-0.99224854,0.08538818,4.828125,-2.21875,4.609375
1695310714988,-0.0034179688,-0.99713135,0.07952881,7.640625,-1.25,5.078125
1695310715035,-0.018798828,-0.9710083,0.061950684,9.609375,-0.609375,7.6875
1695310715080,0.0073242188,-0.97320557,0.066833496,10.140625,-0.921875,8.90625
1695310715109,0.018310547,-0.9890747,0.031188965,12.640625,-0.15625,13.8125
1695310715154,0.05517578,-0.927063,-0.030090332,15.625,1.515625,16.65625
1695310715183,0.119384766,-0.85943604,-0.05596924,21.046875,0.296875,20.84375
1695310715229,0.20532227,-0.76226807,-0.07281494,27.390625,1.03125,25.71875
1695310715275,0.2055664,-0.67315674,-0.06964111,41.78125,6.609375,33.890625
1695310715304,0.15209961,-0.49053955,-0.04449463,43.015625,11.015625,37.53125
1695310715349,0.013427734,-0.3982544,0.04876709,45.453125,16.3125,39.921875
1695310715394,-0.032470703,-0.38555908,-0.18682861,41.28125,-3.40625,37.296875
1695310715423,0.265625,-0.40289307,-0.37164307,41.703125,-8.21875,42.65625
1695310715469,0.4555664,-0.567688,-0.2288208,49.75,2.25,38.34375
1695310715498,0.34375,-0.8921509,-0.38775635,43.0,-13.03125,35.34375
1695310715544,0.30615234,-1.0579224,-0.46246338,28.140625,-17.9375,33.203125
1695310715589,0.5895996,-0.9006958,-0.4060669,15.890625,6.5625,14.828125
1695310715618,0.4165039,-0.7178345,-0.61187744,13.640625,-9.25,16.15625
1695310715664,0.47851562,-0.82598877,-0.6548462,17.90625,-7.03125,4.265625
1695310715710,0.9187012,-0.97198486,-0.597229,1.65625,1.015625,8.671875
1695310715739,0.5966797,-0.79888916,-0.62213135,3.71875,-1.59375,7.046875
1695310715784,0.5319824,-0.74346924,-0.62701416,-1.296875,-4.109375,-0.046875
1695310715814,0.80493164,-0.7959595,-0.58184814,-12.125,-10.359375,-3.734375
1695310715859,0.60668945,-0.8369751,-0.5557251,-24.859375,-3.84375,-19.8125
1695310715904,0.4729004,-0.7937622,-0.56134033,-22.734375,-1.25,-21.734375
1695310715933,0.5656738,-0.74957275,-0.5274048,-26.84375,-0.078125,-24.953125
1695310715994,0.6328125,-0.90460205,-0.5256958,-30.15625,-2.15625,-33.109375
1695310716008,0.5720215,-1.0518188,-0.44171143,-32.265625,0.90625,-30.6875
1695310716056,0.38720703,-1.022522,-0.3796997,-30.421875,4.625,-24.546875
1695310716099,0.33520508,-1.0071411,-0.22857666,-35.21875,6.609375,-29.78125
1695310716129,0.3100586,-1.0964966,-0.14508057,-39.234375,1.3125,-28.515625
