timestamp,accel_x,accel_y,accel_z,gyro_x,gyro_y,gyro_z,ind
1695744768453,-0.061035156,-0.92144775,0.33026123,-1.484375,-0.09375,-1.1875,0
1695744768493,-0.056640625,-0.9343872,0.3451538,-1.828125,-2.296875,-0.140625,1
1695744768533,-0.05810547,-0.90167236,0.33831787,-4.78125,-1.78125,0.65625,2
1695744768573,-0.047607422,-0.878479,0.32244873,-0.03125,-0.1875,1.453125,3
1695744768613,-0.07104492,-0.9368286,0.3678589,4.171875,-0.203125,0.609375,4
1695744768653,-0.07055664,-0.95269775,0.3361206,3.015625,-2.265625,-0.265625,5
1695744768693,-0.044433594,-0.9302368,0.33807373,1.21875,0.078125,1.28125,6
1695744768733,-0.05419922,-0.9380493,0.37054443,1.015625,-0.5625,0.5625,7
1695744768773,-0.064941406,-0.923645,0.3439331,-1.9375,-3.546875,-0.453125,8
1695744768813,-0.045898438,-0.9326782,0.3397827,-2.5,-4.015625,0.125,9
1695744768853,-0.043701172,-0.91900635,0.37591553,-12.1875,-6.921875,1.734375,10
1695744768893,-0.06958008,-0.92633057,0.40301514,-13.34375,-9.390625,1.40625,11
1695744768933,-0.09057617,-0.9307251,0.4069214,-20.765625,-10.203125,2.328125,12
1695744768973,-0.07104492,-0.88848877,0.44281006,-30.796875,-11.8125,0.59375,13
1695744769013,-0.068603516,-0.8587036,0.46429443,-31.84375,-10.828125,1.28125,14
1695744769053,-0.08911133,-0.8423462,0.48895264,-23.671875,-8.1875,1.484375,15
1695744769093,-0.09277344,-0.82940674,0.541687,-9.65625,-4.296875,-0.21875,16
1695744769133,-0.078125,-0.864563,0.5368042,4.421875,2.40625,1.046875,17
1695744769173,-0.092285156,-0.84576416,0.49090576,4.6875,2.96875,-0.328125,18
1695744769213,-0.080566406,-0.8545532,0.524353,17.046875,5.359375,-3.109375,19
1695744769253,-0.092285156,-0.83843994,0.5812378,30.734375,18.59375,-3.671875,20
1695744769293,-0.008056641,-0.9026489,0.29144287,33.4375,16.140625,5.9375,21
1695744769333,-0.037109375,-0.850647,0.38323975,11.875,4.53125,-0.5,22
1695744769373,-0.04248047,-0.9446411,0.46673584,6.953125,3.40625,-0.890625,23
1695744769413,-0.045410156,-0.90582275,0.45159912,1.296875,0.859375,1.671875,24
1695744769453,-0.056152344,-0.90948486,0.4081421,8.21875,-3.015625,-0.40625,25
1695744769493,-0.075927734,-0.897522,0.3619995,6.8125,2.28125,0.9375,26
1695744769533,-0.064453125,-0.93756104,0.39544678,2.3125,-1.03125,-1.3125,27
1695744769573,-0.0546875,-0.9512329,0.4064331,1.796875,-0.71875,1.0,28
1695744769613,-0.05126953,-0.9006958,0.34954834,1.921875,-0.15625,1.484375,29
1695744769653,-0.05078125,-0.8994751,0.3690796,5.328125,0.359375,0.75,30
1695744769693,-0.05517578,-0.9717407,0.40863037,2.859375,-3.796875,-0.15625,31
1695744769733,-0.037353516,-0.8982544,0.32513428,-1.703125,-2.546875,2.28125,32
1695744769773,-0.05883789,-0.87677,0.33319092,1.0625,-3.015625,1.109375,33
1695744769813,-0.06298828,-0.93829346,0.3973999,3.171875,-2.828125,1.609375,34
1695744769853,-0.040527344,-0.93951416,0.35321045,-1.34375,-7.234375,2.390625,35
1695744769893,-0.019042969,-0.9451294,0.36297607,-2.984375,-8.859375,3.03125,36
1695744769933,-0.033935547,-0.95880127,0.39178467,-7.140625,-13.0625,4.96875,37
1695744769973,-0.040283203,-0.8989868,0.38153076,-21.015625,-18.8125,4.734375,38
1695744770013,-0.02734375,-0.89263916,0.38079834,-28.34375,-21.984375,4.78125,39
1695744770053,-0.043945312,-0.8826294,0.43304443,-32.140625,-22.234375,5.34375,40
1695744770093,-0.041992188,-0.86505127,0.46575928,-24.03125,-18.359375,6.921875,41
1695744770133,-0.07446289,-0.8652954,0.54241943,-15.84375,-15.5625,7.59375,42
1695744770173,-0.08276367,-0.85162354,0.5482788,-13.28125,-11.65625,7.734375,43
1695744770213,-0.0715332,-0.8225708,0.53240967,-7.421875,-7.90625,6.5,44
1695744770253,-0.06982422,-0.8335571,0.54681396,-6.109375,-9.109375,6.765625,45
1695744770293,-0.068603516,-0.80914307,0.55340576,-0.703125,-8.40625,6.9375,46
1695744770333,-0.092041016,-0.8386841,0.5595093,-0.359375,-7.609375,5.84375,47
1695744770373,-0.08251953,-0.8320923,0.5536499,2.78125,-7.859375,4.96875,48
1695744770413,-0.064208984,-0.83135986,0.5507202,12.3125,-1.34375,4.78125,49
1695744770453,-0.057861328,-0.8508911,0.5285034,14.46875,0.375,3.984375,50
1695744770493,-0.076416016,-0.829895,0.54974365,18.9375,3.265625,0.625,51
1695744770533,-0.0925293,-0.92144775,0.4923706,61.984375,26.40625,-1.25,52
1695744770573,0.014892578,-0.8687134,0.27093506,22.875,13.90625,8.984375,53
1695744770613,-0.017578125,-0.8740845,0.37322998,9.078125,2.96875,-2.859375,54
1695744770653,0.015380859,-0.93414307,0.47479248,-9.09375,2.5,3.625,55
1695744770693,-0.016113281,-0.9133911,0.38128662,-0.53125,-2.015625,-0.5625,56
1695744770733,-0.02758789,-0.89971924,0.4315796,-1.265625,-7.53125,-1.78125,57
1695744770773,-0.04638672,-0.91851807,0.40472412,3.625,0.5,-2.21875,58
1695744770813,-0.05029297,-0.9314575,0.41156006,3.484375,-0.0625,-0.5625,59
1695744770853,-0.020507812,-0.9277954,0.4039917,8.203125,4.53125,-1.265625,60
1695744770893,-0.0009765625,-0.9553833,0.3571167,11.765625,7.8125,0.53125,61
1695744770933,0.009521484,-0.8970337,0.36712646,2.1875,4.75,0.765625,62
1695744770973,0.0014648438,-0.91412354,0.40325928,4.59375,1.5,-0.3125,63
1695744771013,-0.0009765625,-0.8945923,0.3283081,3.15625,2.140625,1.28125,64
1695744771053,-0.025146484,-0.92144775,0.37835693,3.578125,-1.25,-1.84375,65
1695744771093,-0.010253906,-0.97613525,0.3764038,2.015625,0.15625,0.75,66
1695744771133,-0.018066406,-0.9314575,0.3270874,1.8125,0.296875,2.859375,67
1695744771173,0.0053710938,-0.89190674,0.3065796,-2.234375,0.625,2.046875,68
1695744771213,0.0053710938,-0.9151001,0.37860107,1.25,1.078125,0.359375,69
1695744771253,0.0078125,-0.92633057,0.3595581,-2.109375,-2.921875,0.0,70
1695744771293,-0.00390625,-0.94073486,0.36663818,-2.78125,-6.03125,-0.71875,71
1695744771333,-0.01977539,-0.9446411,0.38323975,-7.9375,-7.453125,-1.703125,72
1695744771373,-0.037597656,-0.91778564,0.39593506,-10.453125,-11.84375,-0.359375,73
1695744771413,-0.015625,-0.93170166,0.36297607,-12.0625,-10.046875,0.71875,74
1695744771453,-0.0048828125,-0.9163208,0.402771,-26.265625,-11.609375,1.265625,75
1695744771493,-0.036376953,-0.9048462,0.4315796,-19.140625,-9.09375,0.59375,76
1695744771533,-0.015625,-0.8711548,0.49188232,-16.59375,-5.328125,2.21875,77
1695744771573,-0.040283203,-0.85113525,0.49993896,-19.34375,-8.421875,3.03125,78
1695744771613,-0.041748047,-0.8501587,0.5175171,-10.765625,-6.765625,1.703125,79
1695744771653,-0.028076172,-0.8545532,0.49676514,-2.140625,-3.625,3.671875,80
1695744771693,-0.022216797,-0.85113525,0.5153198,-4.171875,-1.65625,3.46875,81
1695744771733,-0.05493164,-0.82891846,0.5180054,-5.703125,-2.78125,1.53125,82
1695744771773,-0.033447266,-0.8479614,0.52630615,2.03125,-1.0625,1.5,83
1695744771813,-0.046875,-0.8491821,0.52264404,4.984375,-3.125,1.296875,84
1695744771853,-0.017822266,-0.85821533,0.5270386,12.34375,2.875,1.671875,85
1695744771893,-0.044921875,-0.85894775,0.512146,12.03125,1.984375,-1.125,86
1695744771933,-0.056152344,-0.8250122,0.53656006,29.5,9.71875,-3.125,87
1695744771973,-0.03125,-0.99835205,0.3925171,55.375,22.0625,3.015625,88
1695744772013,0.041503906,-0.89434814,0.25701904,13.34375,11.828125,3.359375,89
1695744772053,0.014892578,-0.9072876,0.432312,8.390625,5.515625,-2.34375,90
1695744772093,0.005859375,-0.972229,0.418396,2.578125,5.59375,1.15625,91
1695744772133,-0.024658203,-0.90338135,0.36712646,3.8125,-1.59375,-3.96875,92
1695744772173,-0.010986328,-0.9429321,0.34124756,10.765625,5.578125,-2.03125,93
1695744772213,-0.030273438,-0.9390259,0.33319092,3.21875,4.46875,-0.34375,94
1695744772253,-0.0061035156,-0.9434204,0.33319092,-3.40625,7.578125,0.984375,95
1695744772293,0.010253906,-0.9470825,0.37786865,-8.46875,4.328125,0.1875,96
1695744772333,-0.025634766,-0.9180298,0.39422607,-1.390625,0.5625,-1.359375,97
1695744772373,0.007080078,-0.91119385,0.32391357,10.921875,7.65625,-3.046875,98
1695744772413,0.026611328,-0.8999634,0.31536865,9.59375,7.125,-0.328125,99
1695744772453,-0.0017089844,-0.96343994,0.3847046,7.046875,4.78125,-1.75,100
1695744772493,0.01171875,-0.96710205,0.33099365,3.75,2.953125,-0.734375,101
1695744772533,0.020019531,-0.9002075,0.30218506,-3.28125,1.765625,-0.171875,102
1695744772573,0.0007324219,-0.9133911,0.28118896,3.765625,1.421875,-2.9375,103
1695744772613,-0.010009766,-0.95562744,0.33514404,6.53125,2.953125,-1.4375,104
1695744772653,-0.0146484375,-0.9837036,0.3378296,1.96875,1.921875,-2.953125,105
1695744772693,0.0014648438,-0.9807739,0.3012085,-0.109375,2.46875,-0.5625,106
1695744772733,0.0026855469,-0.911438,0.27386475,-2.5,2.625,0.484375,107
1695744772773,0.016357422,-0.8987427,0.2982788,-1.765625,2.703125,-2.546875,108
1695744772813,0.0078125,-0.96343994,0.33392334,-2.046875,1.578125,-2.6875,109
1695744772853,-0.015136719,-0.96221924,0.354187,-2.71875,0.21875,-1.8125,110
1695744772893,-0.01928711,-0.95196533,0.34222412,-0.46875,-0.546875,-3.9375,111
1695744772933,-0.03930664,-0.93634033,0.3546753,3.3125,-2.4375,-5.734375,112
1695744772973,-0.036621094,-0.9314575,0.3102417,-2.828125,-1.328125,-4.484375,113
1695744773013,-0.031982422,-0.9414673,0.3139038,-11.859375,0.28125,-4.484375,114
1695744773053,-0.03173828,-0.9397583,0.35125732,-11.78125,-2.46875,-5.921875,115
1695744773093,-0.036132812,-0.9336548,0.3685913,-15.28125,0.21875,-4.453125,116
1695744773133,-0.048583984,-0.9006958,0.40496826,-10.75,1.3125,-2.0625,117
1695744773173,-0.04663086,-0.89190674,0.402771,-17.046875,-2.421875,-3.390625,118
1695744773213,-0.064941406,-0.88409424,0.39520264,-8.921875,-0.71875,-4.890625,119
1695744773253,-0.05810547,-0.88116455,0.41131592,-1.203125,5.21875,-2.375,120
1695744773293,-0.09741211,-0.8897095,0.4459839,12.359375,7.421875,-7.5,121
1695744773333,-0.1303711,-1.0515747,0.46380615,61.65625,28.40625,-8.84375,122
1695744773373,0.025878906,-0.9089966,0.17596436,12.140625,18.71875,7.109375,123
1695744773413,-0.0021972656,-0.86798096,0.34002686,7.6875,6.625,-6.265625,124
1695744773453,-0.01586914,-0.94195557,0.36663818,-20.8125,-1.140625,0.921875,125
1695744773493,-0.07104492,-0.9314575,0.32684326,1.765625,0.3125,-3.890625,126
1695744773533,-0.10131836,-0.97198486,0.34613037,13.40625,2.046875,-4.46875,127
1695744773573,-0.044433594,-0.972229,0.28948975,1.953125,5.109375,0.703125,128
1695744773613,-0.06518555,-0.9216919,0.32635498,-5.59375,4.71875,0.21875,129
1695744773653,-0.05908203,-0.9102173,0.3102417,9.359375,4.96875,1.203125,130
1695744773693,-0.03466797,-0.93218994,0.31707764,2.953125,4.796875,-0.046875,131
1695744773733,-0.038085938,-0.93756104,0.31854248,-4.1875,0.015625,-0.796875,132
1695744773773,-0.06665039,-0.91973877,0.30096436,6.3125,-0.109375,0.984375,133
1695744773813,-0.0637207,-0.9417114,0.31170654,1.25,-0.125,0.078125,134
1695744773853,-0.056152344,-0.9661255,0.34246826,-2.5625,1.390625,-1.484375,135
1695744773893,-0.049072266,-0.9517212,0.28778076,-1.59375,-0.03125,-0.34375,136
1695744773933,-0.040283203,-0.9282837,0.30877686,0.3125,0.8125,-1.40625,137
1695744773973,-0.059326172,-0.92755127,0.3312378,-1.078125,0.984375,-0.640625,138
1695744774013,-0.07128906,-0.93585205,0.33050537,-2.5625,0.296875,-1.625,139
1695744774053,-0.046875,-0.93878174,0.338562,-15.75,-3.78125,-0.828125,140
1695744774093,-0.03564453,-0.894104,0.3739624,-22.96875,-14.453125,-2.59375,141
1695744774133,-0.048095703,-0.9451294,0.36175537,-22.1875,-8.328125,0.453125,142
1695744774173,-0.08862305,-0.9031372,0.4335327,-30.40625,-11.6875,-0.78125,143
1695744774213,-0.088378906,-0.88287354,0.4537964,-27.625,-10.328125,-2.25,144
1695744774253,-0.09838867,-0.8694458,0.510437,-15.09375,-3.984375,0.734375,145
1695744774293,-0.10668945,-0.86187744,0.4857788,-5.859375,-3.484375,1.140625,146
1695744774333,-0.08642578,-0.8530884,0.4557495,-4.734375,-4.9375,0.84375,147
1695744774373,-0.088134766,-0.84698486,0.46722412,-1.171875,-0.859375,2.078125,148
1695744774413,-0.09033203,-0.8609009,0.48162842,2.578125,-3.046875,1.796875,149
1695744774453,-0.10229492,-0.84503174,0.5470581,5.65625,-2.0625,1.765625,150
1695744774493,-0.15454102,-0.8406372,0.5836792,28.1875,15.1875,-3.921875,151
1695744774533,-0.013916016,-0.94366455,0.31756592,42.15625,20.84375,8.5,152
1695744774573,-0.043701172,-0.84942627,0.3690796,5.71875,1.75,3.375,153
1695744774613,-0.041259766,-0.90509033,0.4628296,2.0625,-1.390625,0.21875,154
1695744774653,-0.07788086,-0.9302368,0.449646,-3.0625,-4.640625,2.28125,155
1695744774693,-0.068115234,-0.864563,0.3912964,7.890625,-5.0,-3.171875,156
1695744774733,-0.084472656,-0.9265747,0.39813232,10.765625,1.828125,0.6875,157
1695744774773,-0.0847168,-0.94610596,0.40667725,2.9375,0.6875,0.6875,158
1695744774813,-0.06201172,-0.9158325,0.38885498,-0.265625,1.296875,0.671875,159
1695744774853,-0.048339844,-0.90338135,0.34490967,3.203125,3.90625,0.765625,160
1695744774893,-0.068847656,-0.8965454,0.38690186,4.265625,1.359375,-1.5625,161
1695744774933,-0.06298828,-0.97198486,0.39935303,7.09375,1.125,-1.046875,162
1695744774973,-0.072509766,-0.9277954,0.37835693,1.296875,0.78125,1.375,163
1695744775013,-0.07128906,-0.9014282,0.32977295,-3.0,1.03125,0.03125,164
1695744775053,-0.06298828,-0.89923096,0.35076904,1.25,3.03125,-0.8125,165
1695744775093,-0.04345703,-0.9282837,0.3768921,-0.046875,2.8125,-0.0625,166
1695744775133,-0.033203125,-0.92559814,0.36663818,-2.609375,-0.515625,0.984375,167
1695744775173,-0.036621094,-0.9338989,0.38250732,0.171875,-1.953125,1.0,168
1695744775213,-0.03149414,-0.90289307,0.3661499,-0.109375,-3.0625,0.3125,169
1695744775253,-0.06591797,-0.9104614,0.3751831,-2.03125,-7.1875,1.203125,170
1695744775293,-0.099609375,-0.9336548,0.38079834,-8.78125,-7.859375,1.15625,171
1695744775333,-0.063964844,-0.94122314,0.41571045,-12.921875,-6.1875,0.96875,172
1695744775373,-0.049072266,-0.9089966,0.41204834,-15.6875,-5.875,1.421875,173
1695744775413,-0.060302734,-0.8838501,0.41741943,-18.265625,-9.390625,-0.078125,174
1695744775453,-0.038330078,-0.88238525,0.43377686,-12.9375,-5.625,0.953125,175
1695744775493,-0.07861328,-0.8809204,0.49090576,-12.859375,-3.953125,1.921875,176
1695744775533,-0.07788086,-0.8713989,0.49847412,-14.8125,-4.6875,0.390625,177
1695744775573,-0.07055664,-0.86798096,0.49920654,-11.078125,-1.78125,0.921875,178
1695744775613,-0.07910156,-0.8501587,0.49383545,-8.828125,-1.484375,1.65625,179
1695744775653,-0.08081055,-0.82110596,0.50946045,-3.1875,-2.75,1.015625,180
1695744775693,-0.072509766,-0.8569946,0.5248413,-0.953125,-3.015625,0.328125,181
1695744775733,-0.068359375,-0.84039307,0.52996826,2.765625,-1.84375,0.09375,182
1695744775773,-0.111328125,-0.8435669,0.5787964,15.921875,1.84375,-2.75,183
1695744775813,-0.14916992,-0.9595337,0.44940186,59.375,33.953125,-1.46875,184
1695744775853,0.033935547,-0.894104,0.31781006,31.328125,12.4375,8.453125,185
1695744775893,-0.04321289,-0.88238525,0.42303467,8.984375,1.671875,-3.21875,186
1695744775933,-0.030517578,-0.93707275,0.4569702,5.90625,1.640625,2.796875,187
1695744775973,-0.051513672,-0.91070557,0.35687256,6.671875,-2.015625,-2.078125,188
1695744776013,-0.034423828,-0.9299927,0.3788452,7.9375,0.125,-0.4375,189
1695744776053,-0.05493164,-0.96295166,0.34466553,4.921875,1.8125,2.046875,190
1695744776093,-0.03857422,-0.9417114,0.3649292,-3.921875,1.46875,0.5,191
1695744776133,-0.046142578,-0.9089966,0.38201904,-1.0,1.984375,-0.640625,192
1695744776173,-0.046875,-0.93341064,0.371521,11.109375,3.125,0.3125,193
1695744776213,-0.04711914,-0.92315674,0.3427124,2.859375,1.375,1.6875,194
1695744776253,-0.05126953,-0.92974854,0.36761475,-3.046875,-2.34375,-1.03125,195
1695744776293,-0.016601562,-0.9360962,0.31976318,2.0,2.0625,0.328125,196
1695744776333,-0.026611328,-0.9067993,0.35150146,1.40625,2.203125,1.546875,197
1695744776373,-0.04345703,-0.93292236,0.3571167,0.203125,-2.390625,-1.625,198
1695744776413,-0.046142578,-0.94122314,0.34613037,0.140625,-1.71875,-0.9375,199
1695744776453,-0.040283203,-0.9273071,0.33807373,0.28125,0.15625,0.828125,200
1695744776493,-0.027832031,-0.92510986,0.3366089,-0.109375,0.125,0.84375,201
1695744776533,-0.011962891,-0.909729,0.34857178,-0.28125,-0.5,1.109375,202
1695744776573,-0.025146484,-0.90631104,0.37445068,-0.140625,-4.1875,2.34375,203
1695744776613,-0.044677734,-0.89923096,0.35321045,-5.765625,-9.15625,2.21875,204
1695744776653,-0.064453125,-0.93463135,0.40325928,-10.3125,-13.453125,0.71875,205
1695744776693,-0.029785156,-0.95758057,0.3908081,-17.515625,-11.328125,1.34375,206
1695744776733,-0.049316406,-0.90289307,0.45941162,-26.25,-11.140625,1.4375,207
1695744776773,-0.068359375,-0.88775635,0.4303589,-19.4375,-9.5625,1.6875,208
1695744776813,-0.06347656,-0.878479,0.4520874,-6.046875,-5.0,0.5,209
1695744776853,-0.03491211,-0.8897095,0.4171753,0.0625,-0.515625,0.828125,210
1695744776893,-0.046875,-0.8713989,0.4533081,8.9375,1.03125,-0.625,211
1695744776933,-0.07543945,-0.8838501,0.48187256,27.59375,16.421875,-4.59375,212
1695744776973,-0.03540039,-0.9439087,0.3529663,32.640625,16.78125,4.890625,213
1695744777013,-0.032226562,-0.8731079,0.30194092,4.78125,0.546875,0.265625,214
1695744777053,-0.0056152344,-0.9404907,0.42474365,-1.59375,-2.0,-1.421875,215
1695744777093,-0.03466797,-0.944397,0.39154053,-5.59375,-5.5625,1.5,216
1695744777133,-0.044921875,-0.9116821,0.34368896,6.25,-3.234375,-1.984375,217
1695744777173,-0.064453125,-0.9331665,0.38201904,8.890625,2.828125,-1.359375,218
1695744777213,-0.064697266,-0.9470825,0.39569092,-0.34375,-3.375,-0.609375,219
1695744777253,-0.02319336,-0.9258423,0.31903076,-2.359375,-1.53125,0.84375,220
1695744777293,-0.035888672,-0.864563,0.32366943,1.015625,3.1875,1.640625,221
1695744777333,-0.08935547,-0.9421997,0.41937256,4.90625,-0.546875,-0.765625,222
1695744777373,-0.046875,-0.9746704,0.38128662,3.875,-0.640625,-0.234375,223
1695744777413,-0.018066406,-0.92974854,0.32562256,-0.96875,0.578125,2.0,224
1695744777453,-0.01928711,-0.8936157,0.3366089,-1.96875,-0.90625,0.984375,225
1695744777493,-0.05859375,-0.89630127,0.3468628,-0.390625,-2.578125,0.515625,226
1695744777533,-0.041503906,-0.9365845,0.36102295,0.703125,-2.140625,-0.015625,227
1695744777573,-0.04663086,-0.94903564,0.37469482,-1.375,-1.03125,0.578125,228
1695744777613,-0.028564453,-0.9385376,0.37127686,-3.703125,-2.8125,1.265625,229
1695744777653,-0.026611328,-0.9260864,0.34881592,-5.796875,-6.15625,0.875,230
1695744777693,-0.024414062,-0.91778564,0.37713623,-17.4375,-14.765625,3.140625,231
1695744777733,-0.036865234,-0.87506104,0.40081787,-27.59375,-21.046875,3.203125,232
1695744777773,-0.052734375,-0.88653564,0.4286499,-22.28125,-16.203125,3.921875,233
1695744777813,-0.096191406,-0.8911743,0.50701904,-21.71875,-13.265625,3.40625,234
1695744777853,-0.08569336,-0.8682251,0.50994873,-14.328125,-7.40625,3.375,235
1695744777893,-0.06542969,-0.85821533,0.49798584,-9.375,-3.546875,2.875,236
1695744777933,-0.057128906,-0.85943604,0.5140991,-4.078125,-0.96875,2.5625,237
1695744777973,-0.064453125,-0.8447876,0.51312256,-3.046875,1.65625,1.859375,238
1695744778013,-0.07788086,-0.8345337,0.5492554,-1.546875,0.78125,1.109375,239
1695744778053,-0.095214844,-0.8406372,0.543396,-2.5625,-1.03125,1.75,240
1695744778093,-0.067871094,-0.85943604,0.53704834,-0.171875,1.671875,0.671875,241
1695744778133,-0.0625,-0.8262329,0.5231323,11.234375,3.65625,0.28125,242
1695744778173,-0.09399414,-0.847229,0.52264404,27.921875,13.796875,-4.6875,243
1695744778213,-0.064941406,-0.9373169,0.45794678,77.515625,32.546875,2.1875,244
1695744778253,0.016601562,-0.9492798,0.3180542,17.453125,7.96875,2.1875,245
1695744778293,0.03540039,-0.90875244,0.35809326,-3.0625,0.171875,-2.859375,246
1695744778333,-0.0017089844,-0.9578247,0.40423584,-12.25,-0.453125,3.125,247
1695744778373,-0.014404297,-0.9326782,0.38275146,-0.390625,-5.625,-3.734375,248
1695744778413,-0.04345703,-0.86676025,0.39056396,2.921875,-0.828125,0.609375,249
1695744778453,-0.0625,-0.8850708,0.33392334,8.0,1.578125,-0.359375,250
1695744778493,-0.036376953,-0.93951416,0.39398193,7.984375,1.1875,-2.90625,251
1695744778533,-0.0036621094,-0.956604,0.35076904,6.5625,2.65625,1.046875,252
1695744778573,0.0007324219,-0.9182739,0.33929443,3.546875,1.125,1.0,253
1695744778613,-0.03881836,-0.8916626,0.3151245,16.90625,0.375,-2.203125,254
1695744778653,-0.022216797,-0.97076416,0.37908936,17.8125,2.125,-1.640625,255
1695744778693,-0.0625,-0.958313,0.3336792,-1.3125,-5.625,-1.171875,256
1695744778733,-0.030761719,-0.94073486,0.3012085,-0.6875,-4.359375,-1.359375,257
1695744778773,-0.028076172,-0.9163208,0.30999756,-3.765625,-1.8125,-0.296875,258
1695744778813,-0.033691406,-0.9356079,0.33953857,-6.265625,-3.65625,-0.03125,259
1695744778853,-0.045166016,-0.9429321,0.31658936,-2.46875,-3.109375,-0.734375,260
1695744778893,-0.015380859,-0.956604,0.32391357,-1.921875,-5.21875,1.390625,261
1695744778933,-0.0146484375,-0.9429321,0.31072998,-5.515625,-8.171875,3.34375,262
1695744778973,-0.0053710938,-0.9302368,0.3180542,-3.171875,-9.328125,5.796875,263
1695744779013,-0.028808594,-0.92852783,0.3151245,-4.90625,-11.96875,8.71875,264
1695744779053,-0.030029297,-0.92193604,0.35614014,-13.015625,-13.78125,11.234375,265
1695744779093,-0.015380859,-0.91363525,0.40618896,-18.53125,-17.0,11.21875,266
1695744779133,0.016113281,-0.9338989,0.38739014,-13.21875,-18.53125,8.984375,267
1695744779173,0.026855469,-0.894104,0.42816162,-17.578125,-19.140625,10.375,268
1695744779213,0.016113281,-0.8875122,0.4381714,-18.125,-29.1875,6.5625,269
1695744779253,0.0075683594,-0.8965454,0.43426514,-18.890625,-26.640625,9.34375,270
1695744779293,-0.033935547,-0.8491821,0.45794678,-8.96875,-22.46875,9.65625,271
1695744779333,-0.047851562,-0.8464966,0.48187256,6.953125,-12.828125,8.546875,272
1695744779373,-0.10644531,-0.85723877,0.49993896,41.296875,8.8125,-0.296875,273
1695744779413,-0.0073242188,-0.92315674,0.32244873,41.09375,11.265625,15.203125,274
1695744779453,-0.037109375,-0.85113525,0.307312,10.96875,-3.75,7.15625,275
1695744779493,0.053222656,-0.9480591,0.43084717,-7.28125,-7.296875,2.40625,276
1695744779533,-0.0107421875,-0.9402466,0.38616943,7.359375,-4.46875,2.015625,277
1695744779573,-0.018554688,-0.91534424,0.36883545,5.9375,-5.515625,-1.796875,278
1695744779613,-0.024414062,-0.98443604,0.34539795,-1.46875,-1.15625,-1.734375,279
1695744779653,-0.027832031,-0.93463135,0.36419678,-4.578125,2.234375,-1.109375,280
1695744779693,-0.013427734,-0.9036255,0.35931396,2.703125,8.03125,-1.734375,281
1695744779733,-0.020507812,-0.9434204,0.37835693,9.484375,8.4375,-3.484375,282
1695744779773,-0.0026855469,-0.9507446,0.354187,2.34375,7.609375,-3.796875,283
1695744779813,0.004638672,-0.9299927,0.338562,-4.078125,5.015625,-2.515625,284
1695744779853,0.010498047,-0.9077759,0.34783936,0.265625,6.78125,-3.953125,285
1695744779893,0.0031738281,-0.9175415,0.3463745,0.3125,7.546875,-4.71875,286
1695744779933,-0.0078125,-0.954895,0.37615967,0.140625,5.109375,-6.171875,287
1695744779973,-0.013916016,-0.9365845,0.36102295,-0.625,5.171875,-6.59375,288
1695744780013,-0.028076172,-0.9002075,0.3378296,0.546875,6.5,-6.09375,289
1695744780053,-0.04736328,-0.9043579,0.36468506,2.53125,9.515625,-6.234375,290
1695744780093,-0.052246094,-0.9151001,0.35003662,0.875,11.453125,-6.671875,291
1695744780133,-0.06201172,-0.93756104,0.36273193,2.703125,14.8125,-8.015625,292
1695744780173,-0.07397461,-0.92926025,0.35565186,0.359375,17.1875,-7.40625,293
1695744780213,-0.063964844,-0.93048096,0.34490967,-0.3125,17.578125,-7.796875,294
1695744780253,-0.036621094,-0.93463135,0.35614014,-2.53125,15.765625,-5.296875,295
1695744780293,-0.015380859,-0.9248657,0.35003662,-17.34375,8.6875,-4.53125,296
1695744780333,-0.0053710938,-0.88165283,0.34320068,-25.78125,4.765625,-6.8125,297
1695744780373,-0.03149414,-0.93707275,0.44329834,-7.640625,10.046875,-5.21875,298
1695744780413,-0.063964844,-0.93218994,0.4533081,-18.75,4.625,-5.28125,299
1695744780453,-0.020996094,-0.89190674,0.4520874,-18.78125,5.390625,-6.375,300
1695744780493,-0.009521484,-0.8657837,0.48260498,-11.609375,8.1875,-3.921875,301
1695744780533,-0.03173828,-0.85113525,0.49066162,-5.875,5.453125,-3.53125,302
1695744780573,-0.024414062,-0.8862915,0.48187256,6.984375,3.609375,-1.078125,303
1695744780613,-0.036621094,-0.87750244,0.45281982,3.734375,2.59375,-2.1875,304
1695744780653,-0.061035156,-0.8814087,0.46063232,21.5,12.1875,-3.59375,305
1695744780693,-0.10058594,-0.9702759,0.47088623,61.359375,32.21875,-1.359375,306
1695744780733,0.024902344,-0.92510986,0.2723999,13.5625,11.859375,5.640625,307
1695744780773,0.018798828,-0.8574829,0.37615967,2.671875,-0.734375,-3.65625,308
1695744780813,0.0087890625,-0.94976807,0.41571045,-10.9375,-5.890625,4.671875,309
1695744780853,-0.040527344,-0.9055786,0.35247803,-1.078125,-11.953125,-3.671875,310
1695744780893,-0.048339844,-0.9614868,0.37347412,10.546875,-1.59375,-1.078125,311
1695744780933,-0.07910156,-0.93218994,0.3678589,4.65625,-1.0625,0.6875,312
1695744780973,-0.048339844,-0.9397583,0.38519287,-1.328125,-3.0,-1.453125,313
1695744781013,-0.022216797,-0.9102173,0.3053589,-0.359375,0.5,1.828125,314
1695744781053,-0.024658203,-0.87506104,0.3390503,4.0,1.53125,0.28125,315
1695744781093,-0.061523438,-0.93414307,0.40863037,5.21875,-2.390625,-1.5625,316
1695744781133,-0.0625,-1.0098267,0.3847046,8.21875,-2.125,-2.328125,317
1695744781173,-0.04711914,-0.93463135,0.31488037,0.296875,0.078125,0.375,318
1695744781213,-0.037109375,-0.90289307,0.2929077,-0.78125,0.703125,0.59375,319
1695744781253,-0.037597656,-0.89068604,0.32391357,1.203125,-0.453125,-0.5,320
1695744781293,-0.05493164,-0.9595337,0.34906006,1.125,-1.859375,-1.25,321
1695744781333,-0.046875,-0.9685669,0.3517456,-0.8125,-0.609375,-0.75,322
1695744781373,-0.043945312,-0.9360962,0.33831787,-3.46875,-0.53125,-0.671875,323
1695744781413,-0.0390625,-0.90802,0.31341553,-3.4375,-2.265625,-1.96875,324
1695744781453,-0.03173828,-0.9109497,0.32122803,-3.75,-3.84375,-1.875,325
1695744781493,-0.053222656,-0.9175415,0.37078857,-7.796875,-8.96875,0.609375,326
1695744781533,-0.07348633,-0.944397,0.38006592,-14.96875,-12.890625,1.921875,327
1695744781573,-0.08178711,-0.9163208,0.3920288,-25.234375,-11.828125,1.046875,328
1695744781613,-0.09350586,-0.92022705,0.44085693,-18.859375,-7.03125,0.859375,329
1695744781653,-0.079589844,-0.89801025,0.4472046,-19.375,-2.984375,1.109375,330
1695744781693,-0.07421875,-0.87335205,0.45819092,-18.9375,-2.9375,0.296875,331
1695744781733,-0.055419922,-0.8477173,0.49261475,-12.640625,-0.578125,0.6875,332
1695744781773,-0.06225586,-0.8562622,0.5114136,-7.703125,-3.0625,1.5625,333
1695744781813,-0.06713867,-0.87042236,0.5375366,-3.484375,-3.84375,1.359375,334
1695744781853,-0.068115234,-0.83917236,0.4845581,-1.9375,-1.1875,1.9375,335
1695744781893,-0.07543945,-0.8609009,0.5048218,6.421875,1.4375,2.140625,336
1695744781933,-0.0871582,-0.850647,0.4862671,14.140625,3.703125,0.203125,337
1695744781973,-0.10229492,-0.866272,0.5050659,38.53125,19.578125,-3.515625,338
1695744782013,-0.044189453,-0.92315674,0.41937256,30.1875,14.25,5.421875,339
1695744782053,-0.03466797,-0.8838501,0.3678589,2.96875,-3.671875,-3.078125,340
1695744782093,-0.007080078,-0.91070557,0.44891357,-2.921875,-0.46875,0.25,341
1695744782133,-0.067871094,-0.91241455,0.43475342,-4.53125,-4.109375,-0.28125,342
1695744782173,-0.06616211,-0.9216919,0.3764038,14.609375,-1.140625,-2.046875,343
1695744782213,-0.06616211,-0.9170532,0.41375732,11.015625,5.4375,-0.28125,344
1695744782253,-0.06640625,-0.9163208,0.39886475,0.5625,0.0625,-0.09375,345
1695744782293,-0.05102539,-0.8904419,0.41400146,-1.78125,-0.390625,0.9375,346
1695744782333,-0.03173828,-0.88726807,0.32659912,0.265625,0.890625,1.421875,347
1695744782373,-0.06274414,-0.88604736,0.38885498,5.953125,0.65625,-1.234375,348
1695744782413,-0.0625,-0.96881104,0.41571045,6.125,-0.09375,-0.65625,349
1695744782453,-0.05883789,-0.95977783,0.40179443,4.71875,2.109375,0.125,350
1695744782493,-0.030273438,-0.9072876,0.36810303,0.296875,1.5625,-0.34375,351
1695744782533,-0.032470703,-0.8821411,0.30633545,-1.28125,0.5,0.40625,352
1695744782573,-0.04296875,-0.89678955,0.3624878,4.203125,0.390625,0.046875,353
1695744782613,-0.06347656,-0.9522095,0.38983154,2.453125,-0.703125,-0.625,354
1695744782653,-0.048095703,-0.9446411,0.36810303,-2.46875,-1.046875,-0.046875,355
1695744782693,-0.046142578,-0.92926025,0.3768921,-1.46875,-0.796875,-0.140625,356
1695744782733,-0.040771484,-0.9089966,0.35809326,-1.546875,-1.46875,-1.1875,357
1695744782773,-0.040771484,-0.9014282,0.35394287,-0.984375,-1.984375,-0.421875,358
1695744782813,-0.049072266,-0.91778564,0.36590576,-4.15625,-4.1875,0.53125,359
1695744782853,-0.060058594,-0.92022705,0.40863037,-11.828125,-8.140625,0.65625,360
1695744782893,-0.07080078,-0.9312134,0.42938232,-21.03125,-12.0,1.140625,361
1695744782933,-0.06762695,-0.93170166,0.4467163,-26.703125,-14.234375,1.265625,362
1695744782973,-0.07397461,-0.8694458,0.44696045,-23.25,-9.828125,0.28125,363
1695744783013,-0.08959961,-0.87750244,0.5001831,-13.5625,-3.75,1.65625,364
1695744783053,-0.075927734,-0.84991455,0.48724365,-13.59375,-2.234375,0.34375,365
1695744783093,-0.07763672,-0.8464966,0.5219116,-3.9375,4.0625,1.359375,366
1695744783133,-0.07128906,-0.8569946,0.51678467,-4.65625,2.09375,0.875,367
1695744783173,-0.06323242,-0.8406372,0.5219116,-3.859375,4.8125,1.328125,368
1695744783213,-0.067871094,-0.8435669,0.5363159,1.125,0.71875,1.125,369
1695744783253,-0.0546875,-0.8399048,0.52386475,-1.9375,0.078125,0.9375,370
1695744783293,-0.06323242,-0.82940674,0.53411865,2.078125,0.375,1.453125,371
1695744783333,-0.06298828,-0.8574829,0.5258179,8.125,-0.65625,1.015625,372
1695744783373,-0.057861328,-0.87628174,0.5380249,17.390625,3.5625,-0.984375,373
1695744783413,-0.09277344,-0.850647,0.48724365,42.671875,17.8125,-5.25,374
1695744783453,-0.01928711,-0.9002075,0.3649292,44.21875,19.34375,5.6875,375
1695744783493,0.0068359375,-0.8850708,0.31243896,5.890625,-0.96875,-0.5625,376
1695744783533,0.0017089844,-0.90093994,0.40716553,-0.421875,0.5,1.265625,377
1695744783573,-0.05078125,-0.88726807,0.37469482,-14.640625,-5.859375,2.40625,378
1695744783613,-0.052490234,-0.8987427,0.38641357,5.78125,-6.859375,-3.390625,379
1695744783653,-0.07055664,-0.96539307,0.45135498,5.734375,1.53125,1.625,380
1695744783693,-0.07446289,-0.9402466,0.46136475,2.3125,1.0,1.890625,381
1695744783733,-0.04345703,-0.8882446,0.42034912,-6.875,0.40625,2.296875,382
1695744783773,-0.037353516,-0.86431885,0.3571167,2.78125,0.75,1.078125,383
1695744783813,-0.028564453,-0.9155884,0.34906006,4.953125,8.4375,3.375,384
1695744783853,-0.011230469,-0.90509033,0.37957764,2.359375,5.171875,3.78125,385
1695744783893,0.011962891,-0.95635986,0.43450928,-4.796875,-0.359375,0.28125,386
1695744783933,0.012451172,-0.9260864,0.43670654,-6.078125,-1.84375,4.296875,387
1695744783973,-0.008544922,-0.9043579,0.43255615,11.015625,-1.5,1.0,388
1695744784013,0.01586914,-0.87872314,0.26776123,10.796875,2.828125,6.203125,389
1695744784053,0.0061035156,-0.92315674,0.38641357,11.96875,0.59375,2.390625,390
1695744784093,-0.0041503906,-0.9924927,0.3949585,-4.984375,-8.265625,0.640625,391
1695744784133,-0.025878906,-0.9397583,0.38323975,-1.46875,-3.96875,5.328125,392
1695744784173,-0.026367188,-0.8809204,0.35662842,0.78125,-1.625,0.765625,393
1695744784213,0.01977539,-0.91363525,0.3595581,2.140625,-2.515625,-1.453125,394
1695744784253,0.015380859,-0.93048096,0.37371826,0.046875,-0.84375,-0.578125,395
1695744784293,0.0053710938,-0.93756104,0.3949585,0.109375,-0.21875,-0.25,396
1695744784333,-0.020019531,-0.928772,0.4003296,-13.34375,-4.46875,0.109375,397
1695744784373,-0.001953125,-0.89923096,0.4171753,-25.234375,-12.28125,-2.640625,398
1695744784413,-0.0017089844,-0.928772,0.45037842,-18.4375,-12.859375,-2.234375,399
1695744784453,-0.020996094,-0.9221802,0.48675537,-19.296875,-7.875,0.5625,400
1695744784493,-0.030761719,-0.86602783,0.480896,-19.578125,-4.65625,-0.109375,401
1695744784533,-0.036376953,-0.847229,0.49945068,-14.0625,-3.171875,-0.546875,402
1695744784573,-0.032958984,-0.84576416,0.5116577,-11.15625,-3.890625,0.1875,403
1695744784613,-0.022216797,-0.84552,0.51556396,-9.15625,-3.3125,0.328125,404
1695744784653,-0.013427734,-0.84088135,0.51556396,-7.078125,-2.0,2.203125,405
1695744784693,-0.040283203,-0.8237915,0.52948,-2.859375,-2.078125,1.78125,406
1695744784733,-0.03857422,-0.82037354,0.56170654,1.640625,-3.703125,2.171875,407
1695744784773,-0.041992188,-0.8272095,0.56707764,24.296875,9.78125,-2.90625,408
1695744784813,0.005859375,-0.98883057,0.4298706,84.234375,47.453125,2.140625,409
1695744784853,0.01977539,-0.89678955,0.29022217,25.671875,12.40625,11.078125,410
1695744784893,0.046142578,-0.8621216,0.41156006,11.28125,-2.484375,-3.46875,411
1695744784933,0.04736328,-0.93292236,0.39300537,-15.140625,-5.265625,5.8125,412
1695744784973,-0.026855469,-0.89141846,0.35369873,4.609375,-9.359375,-3.265625,413
1695744785013,0.024658203,-0.96343994,0.38519287,7.3125,-2.59375,-0.859375,414
1695744785053,0.0087890625,-0.9607544,0.3944702,2.859375,-2.328125,3.234375,415
1695744785093,-0.014160156,-0.8987427,0.3829956,-3.234375,-3.84375,-0.328125,416
1695744785133,-0.00024414062,-0.9541626,0.36688232,19.953125,10.25,1.046875,417
1695744785173,-0.0031738281,-0.9241333,0.36273193,4.5625,3.4375,1.671875,418
1695744785213,0.028808594,-0.9072876,0.35858154,-7.515625,-1.765625,-1.84375,419
1695744785253,0.0014648438,-0.9751587,0.3522339,24.421875,6.453125,0.796875,420
1695744785293,0.016601562,-0.9495239,0.33050537,4.34375,2.859375,0.421875,421
1695744785333,0.03564453,-0.9324341,0.3283081,-11.84375,-2.203125,-2.28125,422
1695744785373,0.017822266,-0.91241455,0.34857178,-3.0625,-2.75,-1.125,423
1695744785413,0.015380859,-0.9397583,0.35784912,-1.140625,-3.65625,-3.703125,424
1695744785453,0.013427734,-0.93096924,0.3583374,0.1875,-1.78125,-0.578125,425
1695744785493,-0.0014648438,-0.91070557,0.32611084,0.3125,-3.734375,-2.34375,426
1695744785533,0.001953125,-0.9458618,0.36175537,-0.09375,-1.8125,-2.734375,427
1695744785573,0.0009765625,-0.9414673,0.37738037,-11.125,-3.859375,-1.390625,428
1695744785613,-0.008056641,-0.9302368,0.37713623,-31.0625,-13.25,-1.03125,429
1695744785653,-0.0014648438,-0.8989868,0.40545654,-34.09375,-19.390625,-3.234375,430
1695744785693,-0.013183594,-0.8916626,0.4598999,-28.984375,-10.796875,-1.09375,431
1695744785733,-0.050048828,-0.8682251,0.47943115,-22.640625,-6.703125,1.828125,432
1695744785773,-0.048828125,-0.848938,0.53460693,-11.53125,-2.078125,-0.046875,433
1695744785813,-0.053955078,-0.8440552,0.54681396,-8.015625,-1.46875,2.171875,434
1695744785853,-0.043701172,-0.8308716,0.5289917,-6.390625,-1.53125,1.8125,435
1695744785893,-0.040283203,-0.8220825,0.52923584,-5.296875,-0.109375,1.296875,436
1695744785933,-0.033691406,-0.8352661,0.54608154,-3.046875,-0.734375,1.65625,437
1695744785973,-0.022949219,-0.8362427,0.5360718,-4.25,-2.578125,1.46875,438
1695744786013,-0.036376953,-0.847229,0.5639038,-1.875,-0.078125,1.84375,439
1695744786053,-0.03540039,-0.82281494,0.557312,-1.515625,-1.296875,0.859375,440
1695744786093,-0.020996094,-0.8171997,0.5639038,-1.046875,-3.1875,0.96875,441
1695744786133,-0.045898438,-0.8335571,0.5531616,26.828125,10.359375,-4.1875,442
1695744786173,-0.017578125,-0.9307251,0.465271,61.703125,39.265625,0.34375,443
1695744786213,-0.015625,-0.892395,0.3739624,16.796875,5.28125,5.4375,444
1695744786253,0.036132812,-0.84503174,0.4472046,7.609375,-0.265625,-3.21875,445
1695744786293,0.014892578,-0.92437744,0.46722412,-5.6875,-2.0,3.5,446
1695744786333,-0.014160156,-0.88726807,0.39959717,6.65625,-6.5625,-3.359375,447
1695744786373,0.026855469,-0.9397583,0.4328003,12.90625,0.46875,-1.640625,448
1695744786413,-0.035888672,-0.9307251,0.44158936,3.65625,-0.25,3.234375,449
1695744786453,-0.020751953,-0.86724854,0.40911865,-3.296875,-6.3125,-0.421875,450
1695744786493,0.011230469,-0.881897,0.3554077,3.78125,1.484375,0.90625,451
1695744786533,-0.013671875,-0.9343872,0.44110107,-1.578125,0.0,0.4375,452
1695744786573,0.0,-0.94122314,0.43621826,2.265625,-0.78125,-1.484375,453
1695744786613,0.0036621094,-0.8999634,0.39691162,6.578125,6.734375,1.703125,454
1695744786653,-0.020751953,-0.90509033,0.41864014,-0.953125,-3.890625,-2.390625,455
1695744786693,0.015136719,-0.90704346,0.39178467,-2.46875,-3.6875,-1.28125,456
1695744786733,-0.0034179688,-0.9026489,0.40472412,0.546875,-1.609375,-0.15625,457
1695744786773,-0.01928711,-0.90875244,0.402771,-0.65625,-2.5,-1.484375,458
1695744786813,-0.010253906,-0.9182739,0.4022827,-0.71875,-1.921875,0.15625,459
1695744786853,0.011474609,-0.87945557,0.4159546,1.171875,-2.796875,0.1875,460
1695744786893,0.022705078,-0.913147,0.4100952,1.171875,-5.265625,-0.4375,461
1695744786933,0.00048828125,-0.8994751,0.40716553,-1.125,-5.328125,2.96875,462
1695744786973,-0.048339844,-0.89434814,0.42889404,-0.484375,-4.765625,-0.359375,463
1695744787013,-0.06201172,-0.92071533,0.4093628,-3.484375,-6.359375,-2.875,464
1695744787053,-0.016357422,-0.9378052,0.4244995,-13.234375,-8.546875,-1.421875,465
1695744787093,0.0014648438,-0.93414307,0.465271,-20.4375,-11.984375,1.78125,466
1695744787133,-0.030517578,-0.9089966,0.4262085,-27.390625,-13.84375,2.265625,467
1695744787173,-0.045654297,-0.80181885,0.4310913,-16.546875,-7.03125,-1.96875,468
1695744787213,-0.05883789,-0.8726196,0.50579834,-8.9375,-5.515625,-2.125,469
1695744787253,-0.07006836,-0.8875122,0.5507202,-11.078125,-6.171875,-2.046875,470
1695744787293,-0.03125,-0.83184814,0.49456787,-7.359375,-0.671875,0.6875,471
1695744787333,-0.048339844,-0.8179321,0.50042725,-0.640625,0.421875,0.765625,472
1695744787373,-0.0859375,-0.83062744,0.5922241,10.875,2.265625,-3.265625,473
1695744787413,-0.118652344,-0.88653564,0.5097046,50.625,34.953125,-8.390625,474
1695744787453,-0.0029296875,-0.8435669,0.42181396,63.328125,31.515625,10.25,475
1695744787493,-0.031982422,-0.9085083,0.3427124,11.703125,3.15625,-4.03125,476
1695744787533,0.06542969,-0.9036255,0.43597412,-7.25,1.203125,0.15625,477
1695744787573,-0.017822266,-0.9175415,0.3842163,-1.5,0.890625,1.328125,478
1695744787613,-0.029541016,-0.90289307,0.38812256,11.703125,2.78125,-3.046875,479
1695744787653,-0.040771484,-0.97247314,0.401062,12.71875,6.8125,0.984375,480
1695744787693,-0.041503906,-0.94244385,0.3793335,-2.734375,-0.9375,-1.4375,481
1695744787733,-0.016357422,-0.9031372,0.37469482,-4.953125,-3.15625,-1.375,482
1695744787773,0.015625,-0.895813,0.33148193,2.453125,7.5,1.953125,483
1695744787813,-0.028076172,-0.90167236,0.36395264,3.1875,1.25,0.921875,484
1695744787853,-0.018310547,-0.94488525,0.39935303,3.84375,-3.84375,-2.3125,485
1695744787893,-0.009521484,-0.9470825,0.37664795,3.59375,-2.125,0.0625,486
1695744787933,-0.010986328,-0.9199829,0.35491943,-0.6875,-2.234375,0.46875,487
1695744787973,-0.0017089844,-0.9036255,0.34051514,1.046875,-2.53125,0.5625,488
1695744788013,-0.037353516,-0.8999634,0.3397827,2.9375,-4.4375,-0.28125,489
1695744788053,-0.064453125,-0.95025635,0.34344482,0.765625,-3.140625,-1.234375,490
1695744788093,-0.060302734,-0.9439087,0.38226318,-0.015625,-0.25,-0.453125,491
1695744788133,-0.010986328,-0.9360962,0.37445068,-1.078125,2.515625,0.25,492
1695744788173,0.005126953,-0.911438,0.35516357,-2.203125,0.796875,0.640625,493
1695744788213,0.0053710938,-0.9209595,0.3522339,-3.890625,-3.234375,-1.046875,494
1695744788253,-0.009521484,-0.92510986,0.38275146,-16.375,-7.140625,1.28125,495
1695744788293,-0.029541016,-0.8897095,0.38031006,-31.328125,-13.5,0.953125,496
1695744788333,-0.041015625,-0.8718872,0.45477295,-33.8125,-16.453125,-2.078125,497
1695744788373,-0.07519531,-0.8858032,0.5248413,-27.84375,-13.21875,-0.4375,498
1695744788413,-0.06567383,-0.88165283,0.5319214,-19.109375,-7.15625,1.09375,499
1695744788453,-0.068359375,-0.8447876,0.56585693,-10.734375,-6.28125,1.125,500
1695744788493,-0.049072266,-0.83258057,0.53240967,-8.140625,-8.53125,0.671875,501
1695744788533,-0.057617188,-0.8406372,0.51068115,-6.96875,-6.1875,1.703125,502
1695744788573,-0.07324219,-0.8311157,0.52557373,-5.15625,-3.15625,2.0,503
1695744788613,-0.0769043,-0.84625244,0.5661011,-0.9375,-0.53125,1.484375,504
1695744788653,-0.072753906,-0.8303833,0.57366943,-1.703125,-0.09375,1.390625,505
1695744788693,-0.060302734,-0.81915283,0.52337646,0.28125,0.609375,1.59375,506
1695744788733,-0.04321289,-0.8081665,0.51898193,7.859375,0.296875,1.125,507
1695744788773,-0.0625,-0.83966064,0.5621948,20.515625,5.96875,0.0625,508
1695744788813,-0.07836914,-0.92388916,0.46624756,57.453125,24.109375,-0.875,509
1695744788853,-0.028808594,-0.89971924,0.46209717,33.859375,10.6875,4.15625,510
1695744788893,-0.0009765625,-0.9216919,0.4179077,7.65625,-2.796875,-4.25,511
1695744788933,-0.0009765625,-0.9031372,0.44232178,-3.765625,-2.203125,1.625,512
1695744788973,-0.055419922,-0.8970337,0.38226318,-1.328125,-7.15625,-2.453125,513
1695744789013,-0.0637207,-0.87042236,0.3949585,9.234375,1.046875,-3.84375,514
1695744789053,-0.072509766,-0.9507446,0.44256592,10.703125,6.359375,-0.015625,515
1695744789093,-0.07446289,-0.9380493,0.4491577,1.5625,0.703125,-1.828125,516
1695744789133,-0.052978516,-0.8948364,0.39642334,-1.25,-0.109375,-0.5625,517
1695744789173,-0.016357422,-0.88726807,0.3612671,7.734375,6.046875,-1.171875,518
1695744789213,-0.036376953,-0.9026489,0.41351318,3.09375,2.859375,0.359375,519
1695744789253,-0.04736328,-0.95440674,0.43695068,4.140625,0.375,-2.21875,520
1695744789293,-0.03955078,-0.94073486,0.39349365,4.515625,1.59375,0.265625,521
1695744789333,-0.04321289,-0.8843384,0.33709717,0.234375,-1.328125,1.109375,522
1695744789373,-0.036376953,-0.8928833,0.36810303,0.59375,-1.25,0.296875,523
1695744789413,-0.04345703,-0.91192627,0.33831787,-1.515625,-3.5,0.859375,524
1695744789453,-0.041992188,-0.94415283,0.36956787,-0.453125,-2.296875,0.40625,525
1695744789493,-0.03564453,-0.940979,0.3866577,-3.84375,-1.71875,0.640625,526
1695744789533,-0.03173828,-0.94195557,0.3991089,-2.796875,-3.296875,-0.140625,527
1695744789573,-0.03491211,-0.9043579,0.3991089,-18.84375,-5.65625,0.796875,528
1695744789613,-0.052490234,-0.8674927,0.42132568,-31.265625,-10.859375,1.265625,529
1695744789653,-0.044189453,-0.8657837,0.4393921,-33.1875,-12.625,-1.109375,530
1695744789693,-0.0625,-0.8670044,0.49847412,-24.53125,-5.25,0.0,531
1695744789733,-0.09301758,-0.84991455,0.6071167,-10.25,4.0625,0.21875,532
1695744789773,-0.08911133,-0.8557739,0.57366943,-7.125,-0.609375,-0.53125,533
1695744789813,-0.05419922,-0.8435669,0.5824585,0.0,7.140625,0.265625,534
1695744789853,-0.051513672,-0.81451416,0.5368042,-2.4375,2.28125,0.515625,535
1695744789893,-0.037841797,-0.8230591,0.51849365,-2.53125,-0.84375,0.734375,536
1695744789933,-0.037353516,-0.81573486,0.5536499,-1.78125,-0.078125,1.421875,537
1695744789973,-0.044189453,-0.84503174,0.5336304,-5.484375,1.65625,1.671875,538
1695744790013,-0.04711914,-0.8335571,0.586853,2.9375,-1.015625,1.921875,539
1695744790053,0.0075683594,-0.8225708,0.5348511,2.0625,-1.875,2.890625,540
1695744790093,-0.008544922,-0.8374634,0.5634155,3.40625,-3.5625,3.09375,541
1695744790133,-0.026611328,-0.81427,0.54681396,10.65625,-4.921875,1.328125,542
1695744790173,-0.052978516,-0.84454346,0.541687,26.609375,11.015625,-1.203125,543
1695744790213,0.0043945312,-0.86968994,0.4406128,11.515625,5.875,2.75,544
1695744790253,-0.0043945312,-0.8821411,0.47161865,4.21875,-2.921875,-1.5,545
1695744790293,-0.0009765625,-0.9204712,0.54974365,6.0625,2.703125,2.859375,546
1695744790333,-0.02758789,-0.8843384,0.48187256,1.375,-3.203125,1.390625,547
1695744790373,0.0029296875,-0.8526001,0.47039795,3.28125,-3.359375,0.234375,548
1695744790413,-0.0012207031,-0.8591919,0.4677124,-4.359375,-3.859375,0.96875,549
1695744790453,-0.016357422,-0.8596802,0.42352295,3.421875,-2.5,-0.703125,550
1695744790493,-0.024414062,-0.8843384,0.5116577,6.359375,4.28125,1.140625,551
1695744790533,-0.022949219,-0.92071533,0.5092163,0.78125,0.515625,1.828125,552
1695744790573,-0.009277344,-0.89263916,0.47039795,3.859375,2.125,1.890625,553
1695744790613,0.015625,-0.8308716,0.46209717,11.015625,3.75,0.609375,554
1695744790653,0.015136719,-0.894104,0.4064331,-1.484375,-2.953125,-0.265625,555
1695744790693,0.026123047,-0.8945923,0.43255615,-6.46875,-4.515625,-0.671875,556
1695744790733,-0.019042969,-0.88409424,0.46624756,6.5,3.203125,0.046875,557
1695744790773,-0.028808594,-0.9639282,0.4869995,21.515625,9.890625,0.34375,558
1695744790813,-0.0061035156,-0.9031372,0.4303589,7.28125,3.828125,0.734375,559
1695744790853,0.03466797,-0.9002075,0.41864014,-5.171875,-0.765625,-1.109375,560
1695744790893,0.015625,-0.8711548,0.39154053,-0.625,-3.96875,-0.265625,561
1695744790933,0.020507812,-0.8960571,0.42718506,1.53125,-0.78125,-0.515625,562
1695744790973,0.0029296875,-0.91729736,0.42547607,-1.234375,-2.515625,-0.296875,563
1695744791013,0.0078125,-0.9116821,0.4442749,-0.03125,0.265625,0.28125,564
1695744791053,0.0053710938,-0.89556885,0.42791748,-1.203125,-1.515625,-0.609375,565
1695744791093,0.015136719,-0.87945557,0.42596436,-0.578125,-2.375,-0.484375,566
1695744791133,0.009277344,-0.9102173,0.45550537,-17.453125,-6.34375,-0.125,567
1695744791173,-0.0026855469,-0.8713989,0.44744873,-27.609375,-14.3125,-0.71875,568
1695744791213,-0.0034179688,-0.8858032,0.4701538,-21.265625,-8.6875,-0.75,569
1695744791253,-0.045166016,-0.8587036,0.53240967,-15.09375,-1.3125,0.28125,570
1695744791293,-0.039794922,-0.8596802,0.57196045,-11.375,-3.078125,-0.6875,571
1695744791333,-0.01953125,-0.8374634,0.56048584,-8.328125,-1.578125,0.171875,572
1695744791373,-0.017089844,-0.8250122,0.5458374,-4.0625,-0.4375,0.609375,573
1695744791413,-0.014160156,-0.819397,0.5387573,-3.4375,-1.84375,0.3125,574
1695744791453,-0.004638672,-0.8394165,0.5516968,-0.640625,-0.578125,0.765625,575
1695744791493,-0.009521484,-0.8296509,0.5560913,-2.359375,0.40625,0.5625,576
1695744791533,-0.023925781,-0.7883911,0.53900146,7.0625,-0.078125,-0.921875,577
1695744791573,-0.044433594,-0.78375244,0.58343506,38.03125,18.5,-1.4375,578
1695744791613,0.022216797,-0.87750244,0.43475342,16.453125,6.921875,2.96875,579
1695744791653,0.017333984,-0.86968994,0.49432373,3.640625,-4.859375,-3.296875,580
1695744791693,0.0056152344,-0.8904419,0.5297241,2.875,0.328125,2.453125,581
1695744791733,-0.038330078,-0.90753174,0.5228882,3.8125,-2.765625,0.90625,582
1695744791773,-0.018554688,-0.8718872,0.465271,12.015625,-1.28125,-0.59375,583
1695744791813,-0.001953125,-0.8648071,0.4706421,8.484375,0.828125,2.96875,584
1695744791853,-0.009765625,-0.8484497,0.42474365,9.5625,2.625,-1.09375,585
1695744791893,-0.0053710938,-0.89019775,0.44085693,1.734375,1.5,0.609375,586
1695744791933,-0.00390625,-0.9175415,0.47821045,-3.8125,-2.5,-1.265625,587
1695744791973,-0.013671875,-0.94317627,0.47406006,8.75,2.84375,0.21875,588
1695744792013,0.005859375,-0.8916626,0.44647217,9.546875,7.640625,1.75,589
1695744792053,-0.0024414062,-0.87579346,0.41741943,3.8125,-1.5,-0.84375,590
1695744792093,0.021972656,-0.87384033,0.4069214,-5.625,-4.640625,-1.296875,591
1695744792133,-0.0048828125,-0.87579346,0.43206787,-3.203125,-5.125,-1.140625,592
1695744792173,0.0017089844,-0.91851807,0.44207764,-4.0625,-2.9375,-0.03125,593
1695744792213,-0.005859375,-0.9109497,0.45965576,-4.734375,-3.765625,-0.21875,594
1695744792253,0.0087890625,-0.878479,0.47283936,-11.765625,-4.265625,0.109375,595
1695744792293,-0.004638672,-0.8694458,0.47113037,-15.640625,-5.296875,0.03125,596
1695744792333,-0.025390625,-0.8804321,0.5062866,-15.328125,-2.125,0.203125,597
1695744792373,-0.038330078,-0.87994385,0.52801514,-12.8125,-4.78125,0.15625,598
1695744792413,-0.034423828,-0.8623657,0.54437256,-10.75,-1.6875,-0.03125,599
1695744792453,-0.030273438,-0.8467407,0.5192261,-8.640625,1.890625,-0.625,600
1695744792493,-0.015625,-0.82647705,0.5463257,-2.671875,5.21875,0.359375,601
1695744792533,-0.0056152344,-0.8237915,0.53656006,-3.96875,0.9375,-0.578125,602
1695744792573,-0.016113281,-0.8399048,0.5492554,-0.109375,-0.75,-0.34375,603
1695744792613,-0.020019531,-0.84161377,0.54852295,2.265625,1.265625,-0.25,604
1695744792653,-0.038330078,-0.8855591,0.4616089,0.03125,-3.40625,-2.078125,621
1695744792693,-0.020996094,-0.90167236,0.44866943,3.015625,-1.453125,-1.4375,622
1695744792733,-0.031982422,-0.90045166,0.47625732,1.71875,2.234375,0.546875,623
1695744792773,-0.04272461,-0.89434814,0.50946045,5.5625,1.9375,0.25,624
1695744792813,-0.035888672,-0.86676025,0.45159912,2.109375,-0.3125,-0.234375,625
1695744792853,-0.014160156,-0.8804321,0.4491577,2.453125,-0.59375,-1.453125,626
1695744792893,-0.026611328,-0.90045166,0.44744873,-1.421875,-1.109375,-0.546875,627
1695744792933,-0.055419922,-0.89678955,0.45794678,-1.625,-0.3125,-0.375,628
1695744792973,-0.038085938,-0.8982544,0.4537964,-1.546875,-0.140625,-1.78125,629
1695744793013,-0.021728516,-0.88165283,0.463562,-0.9375,2.328125,-1.953125,630
1695744793053,-0.01586914,-0.85772705,0.45135498,-1.296875,-1.15625,-1.375,631
1695744793093,-0.025146484,-0.87945557,0.45233154,-1.40625,-2.578125,-0.921875,632
1695744793133,-0.040039062,-0.8875122,0.46844482,-2.859375,-3.109375,-1.15625,633
1695744793173,-0.045898438,-0.8796997,0.46575928,-6.8125,-3.46875,0.265625,634
1695744793213,-0.068847656,-0.8858032,0.50115967,-10.078125,-1.359375,1.390625,635
1695744793253,-0.076171875,-0.87286377,0.51605225,-12.09375,-4.390625,1.984375,636
1695744793293,-0.048583984,-0.8440552,0.52337646,-13.171875,-2.640625,1.03125,637
1695744793333,-0.071777344,-0.8521118,0.52557373,-12.1875,-2.078125,0.3125,638
1695744793373,-0.06665039,-0.84625244,0.54730225,-9.828125,-1.0,-2.703125,639
1695744793413,-0.07055664,-0.8352661,0.55926514,-4.609375,0.515625,-4.1875,640
1695744793453,-0.064697266,-0.82769775,0.555603,-6.0625,-0.8125,-3.484375,641
1695744793493,-0.041259766,-0.8340454,0.57855225,-0.453125,3.09375,-2.84375,642
1695744793533,-0.057128906,-0.82403564,0.5597534,-3.796875,6.328125,-1.125,643
1695744793573,-0.0625,-0.79937744,0.5380249,0.859375,4.5,-2.0,644
1695744793613,-0.068359375,-0.835022,0.5343628,6.78125,2.765625,-1.75,645
1695744793653,-0.06347656,-0.82232666,0.5397339,5.484375,3.703125,-1.96875,646
1695744793693,-0.076660156,-0.8335571,0.55511475,17.25,5.671875,-5.0625,647
1695744793733,-0.06738281,-0.87384033,0.48406982,41.734375,18.6875,-4.515625,648
1695744793773,-0.019042969,-0.8789673,0.496521,19.125,6.34375,0.296875,649
1695744793813,-0.018066406,-0.8796997,0.48309326,3.6875,-3.046875,-4.03125,650
1695744793853,-0.0087890625,-0.862854,0.4694214,-5.296875,-1.296875,0.3125,651
1695744793893,-0.05102539,-0.8718872,0.48602295,-1.578125,-4.296875,-1.53125,652
1695744793933,-0.08129883,-0.89971924,0.46820068,10.171875,-1.65625,-0.578125,653
1695744793973,-0.09350586,-0.9036255,0.4833374,11.9375,2.1875,0.53125,654
1695744794013,-0.09399414,-0.8772583,0.4887085,4.890625,-1.859375,-2.359375,655
1695744794053,-0.05493164,-0.8933716,0.40472412,5.1875,-0.234375,-0.96875,656
1695744794093,-0.04711914,-0.87457275,0.41912842,2.515625,0.828125,0.25,657
1695744794133,-0.0690918,-0.9011841,0.4249878,-5.90625,-2.75,-0.34375,658
1695744794173,-0.08227539,-0.9260864,0.44354248,2.6875,-0.734375,-2.484375,659
1695744794213,-0.05859375,-0.91412354,0.44403076,6.140625,5.921875,0.203125,660
1695744794253,-0.052490234,-0.8862915,0.4533081,1.953125,1.3125,0.390625,661
1695744794293,-0.03930664,-0.8779907,0.40594482,-6.484375,-4.875,-0.421875,662
1695744794333,-0.03857422,-0.8843384,0.416687,-9.765625,-5.0625,1.921875,663
1695744794373,-0.068847656,-0.89678955,0.47210693,-20.828125,-8.1875,1.65625,664
1695744794413,-0.060791016,-0.89630127,0.51312256,-19.21875,-6.65625,3.609375,665
1695744794453,-0.07324219,-0.8621216,0.50457764,-16.46875,-3.125,3.65625,666
1695744794493,-0.08081055,-0.83843994,0.5350952,-10.125,-1.328125,2.140625,667
1695744794533,-0.06542969,-0.8374634,0.55218506,-5.984375,-0.546875,1.578125,668
1695744794573,-0.07006836,-0.84210205,0.54852295,-5.515625,-1.15625,2.609375,669
1695744794613,-0.060546875,-0.8460083,0.5331421,-4.921875,-2.75,1.796875,670
1695744794653,-0.068359375,-0.8381958,0.57147217,-2.296875,-0.78125,2.140625,671
1695744794693,-0.0793457,-0.81817627,0.5429077,-9.328125,-6.515625,3.015625,672
1695744794733,-0.072265625,-0.82696533,0.58148193,-2.375,-5.296875,2.921875,673
1695744794773,-0.08300781,-0.81988525,0.5656128,-5.21875,-6.125,2.265625,674
1695744794813,-0.05834961,-0.8106079,0.56536865,-2.71875,-4.6875,2.03125,675
1695744794853,-0.064208984,-0.80426025,0.5639038,-1.921875,-4.65625,2.390625,676
1695744794893,-0.064697266,-0.80010986,0.5680542,3.578125,-3.6875,0.65625,677
1695744794933,-0.07836914,-0.8074341,0.55804443,24.15625,11.265625,-2.28125,678
1695744794973,-0.009521484,-0.8460083,0.49920654,35.09375,16.546875,2.75,679
1695744795013,-0.045410156,-0.881897,0.5170288,14.515625,0.265625,-0.96875,680
1695744795053,-0.01953125,-0.866272,0.47698975,4.46875,-0.125,-1.734375,681
1695744795093,-0.08496094,-0.9234009,0.5223999,0.34375,-2.796875,1.859375,682
1695744795133,-0.07324219,-0.86920166,0.42230225,-0.65625,-8.59375,-1.609375,683
1695744795173,-0.056884766,-0.8731079,0.49212646,11.375,-0.15625,0.125,684
1695744795213,-0.07836914,-0.8713989,0.52093506,7.859375,-1.21875,-0.921875,685
1695744795253,-0.06201172,-0.86920166,0.48480225,7.671875,-1.09375,-3.015625,686
1695744795293,-0.038085938,-0.8804321,0.416687,5.765625,3.5,-2.25,687
1695744795333,-0.072753906,-0.90509033,0.45941162,2.34375,2.625,-0.765625,688
1695744795373,-0.064697266,-0.8850708,0.42181396,-3.8125,-1.390625,-1.171875,689
1695744795413,-0.063964844,-0.8855591,0.45428467,1.578125,0.5625,-1.34375,690
1695744795453,-0.0637207,-0.89263916,0.4743042,-1.953125,-1.234375,-1.125,691
1695744795493,-0.06542969,-0.88897705,0.48895264,0.859375,-2.140625,-2.171875,692
1695744795533,-0.064453125,-0.88287354,0.45184326,2.640625,-0.640625,-1.59375,693
1695744795573,-0.05908203,-0.87286377,0.41619873,0.796875,-0.765625,-2.671875,694
1695744795613,-0.064453125,-0.909729,0.43304443,0.84375,-1.015625,-2.359375,695
1695744795653,-0.060058594,-0.89385986,0.434021,-0.453125,0.578125,0.40625,696
1695744795693,-0.079833984,-0.88897705,0.45184326,-0.578125,-2.046875,1.15625,697
1695744795733,-0.08935547,-0.9006958,0.46185303,-1.4375,-2.75,1.1875,698
1695744795773,-0.068603516,-0.88287354,0.4418335,-4.46875,-4.328125,2.1875,699
1695744795813,-0.056396484,-0.86724854,0.4533081,-4.609375,-5.953125,3.4375,700
1695744795853,-0.051513672,-0.88482666,0.46551514,-3.203125,-5.25,3.109375,701
1695744795893,-0.07763672,-0.87335205,0.47625732,-8.484375,-5.140625,3.328125,702
1695744795933,-0.07324219,-0.87628174,0.48187256,-11.59375,-4.8125,4.390625,703
1695744795973,-0.09277344,-0.8755493,0.50164795,-9.453125,-3.1875,3.734375,704
1695744796013,-0.080566406,-0.8850708,0.5585327,-5.203125,8.859375,3.59375,705
1695744796053,-0.08203125,-0.8574829,0.51605225,-7.78125,3.15625,3.9375,706
1695744796093,-0.057128906,-0.8442993,0.53045654,-3.109375,9.734375,2.890625,707
1695744796133,-0.022460938,-0.85943604,0.5072632,-0.015625,-0.84375,-0.328125,708
1695744796173,0.0029296875,-0.8682251,0.5038452,-0.421875,-0.09375,-0.265625,709
1695744796213,-0.015380859,-0.85406494,0.50042725,-2.109375,1.328125,0.578125,710
1695744796253,-0.0078125,-0.8621216,0.49969482,-2.9375,-0.796875,-0.265625,711
1695744796293,-0.033691406,-0.8814087,0.53338623,-5.6875,-0.671875,0.890625,712
1695744796333,-0.03857422,-0.86602783,0.5223999,-10.546875,-0.515625,-0.328125,713
1695744796373,-0.016113281,-0.8526001,0.5241089,-8.015625,3.34375,-0.09375,714
1695744796413,-0.0043945312,-0.82110596,0.53582764,-4.359375,3.6875,-0.40625,715
1695744796453,-0.0078125,-0.8467407,0.5426636,-3.21875,1.96875,-0.34375,716
1695744796493,-0.0021972656,-0.84991455,0.5529175,-2.5,2.125,0.609375,717
1695744796533,-0.0075683594,-0.7979126,0.5380249,-5.59375,-1.09375,-0.390625,718
1695744796573,-0.015136719,-0.8513794,0.5446167,-1.859375,-0.859375,0.421875,719
1695744796613,-0.021972656,-0.8140259,0.5648804,1.75,-1.296875,0.609375,720
1695744796653,-0.008056641,-0.8279419,0.55462646,2.140625,-2.03125,0.046875,721
1695744796693,-0.014892578,-0.82525635,0.54071045,15.53125,-0.515625,-1.5,722
1695744796733,-0.022460938,-0.831604,0.5241089,22.625,5.9375,0.859375,723
1695744796773,0.0041503906,-0.87335205,0.47332764,4.703125,-1.625,-3.140625,724
1695744796813,0.009277344,-0.88287354,0.4869995,4.609375,-2.1875,-2.6875,725
1695744796853,-0.029541016,-0.8953247,0.55218506,4.453125,1.890625,2.390625,726
1695744796893,-0.03564453,-0.8640747,0.5158081,4.34375,-3.53125,-0.5,727
1695744796933,0.001953125,-0.8467407,0.47894287,6.3125,-4.046875,-1.625,728
1695744796973,-0.021728516,-0.8640747,0.4730835,5.796875,-0.765625,-0.875,729
1695744797013,-0.05102539,-0.8875122,0.49554443,-0.796875,-5.96875,-1.609375,730
1695744797053,-0.033447266,-0.88775635,0.47332764,2.484375,-2.21875,-0.890625,731
1695744797093,-0.036376953,-0.8862915,0.46795654,1.703125,0.015625,0.078125,732
1695744797133,-0.02709961,-0.86383057,0.47894287,1.015625,-1.609375,-0.5,733
1695744797173,-0.010009766,-0.87384033,0.48187256,2.671875,-1.734375,-0.390625,734
1695744797213,-0.011230469,-0.88848877,0.43719482,-6.125,-1.953125,0.359375,735
1695744797253,-0.041503906,-0.86016846,0.48431396,-0.265625,-4.625,-1.0,736
1695744797293,-0.056640625,-0.880188,0.49798584,-1.1875,-0.671875,-1.203125,737
1695744797333,-0.06274414,-0.8755493,0.48846436,-1.0625,2.46875,-0.75,738
1695744797373,-0.040283203,-0.8772583,0.48260498,-2.15625,-1.390625,-1.359375,739
1695744797413,-0.014160156,-0.87628174,0.49749756,-2.890625,-1.4375,-0.84375,740
1695744797453,-0.028808594,-0.87286377,0.49017334,-4.71875,-2.78125,-0.09375,741
1695744797493,-0.047851562,-0.87091064,0.508728,-5.796875,-5.078125,-0.40625,742
1695744797533,-0.03930664,-0.8735962,0.48675537,-11.5,-5.65625,-1.34375,743
1695744797573,-0.04638672,-0.8706665,0.5265503,-16.296875,-7.046875,-0.453125,744
1695744797613,-0.046142578,-0.83135986,0.51776123,-20.84375,-7.296875,-0.890625,745
1695744797653,-0.061523438,-0.82647705,0.5421753,-19.125,-7.1875,-1.6875,746
1695744797693,-0.088134766,-0.81085205,0.57073975,-16.5,-5.5,-0.90625,747
1695744797733,-0.08129883,-0.77178955,0.6156616,-10.84375,-4.546875,-2.25,748
1695744797773,-0.076660156,-0.7971802,0.6618042,-4.140625,-2.71875,-1.75,749
1695744797813,-0.078125,-0.78741455,0.6286011,-3.9375,-2.578125,0.296875,750
1695744797853,-0.08642578,-0.7727661,0.59051514,-5.234375,-1.859375,1.015625,751
1695744797893,-0.10498047,-0.7678833,0.6185913,1.515625,-2.0,1.078125,752
1695744797933,-0.08251953,-0.7854614,0.5800171,-3.9375,-0.828125,0.71875,753
1695744797973,-0.09838867,-0.78082275,0.6063843,-0.015625,0.0625,1.265625,754
1695744798013,-0.114990234,-0.7810669,0.6442261,3.859375,-2.125,-0.328125,755
1695744798053,-0.14282227,-0.7432251,0.6547241,32.875,13.828125,-3.234375,756
1695744798093,-0.044433594,-0.83062744,0.5387573,31.1875,17.734375,2.890625,757
1695744798133,-0.05126953,-0.8574829,0.51605225,7.09375,-1.640625,-1.765625,758
1695744798173,-0.028076172,-0.8430786,0.6029663,6.671875,2.484375,1.78125,759
1695744798213,-0.05102539,-0.84942627,0.56121826,0.765625,-4.5,3.71875,760
1695744798253,-0.059326172,-0.8008423,0.49700928,6.9375,-5.890625,0.921875,761
1695744798293,-0.059814453,-0.8418579,0.527771,5.265625,-3.625,2.609375,762
1695744798333,-0.10620117,-0.87823486,0.5643921,8.328125,-1.78125,0.28125,763
1695744798373,-0.068603516,-0.85894775,0.53289795,8.6875,0.921875,0.90625,764
1695744798413,-0.07104492,-0.89556885,0.51678467,2.171875,-1.390625,0.90625,765
1695744798453,-0.05834961,-0.8250122,0.5067749,2.515625,-3.609375,1.53125,766
1695744798493,-0.03564453,-0.83477783,0.4467163,8.765625,2.515625,1.5625,767
1695744798533,-0.08569336,-0.8845825,0.51068115,4.453125,2.4375,2.5625,768
1695744798573,-0.07324219,-0.8755493,0.51605225,-6.03125,-3.734375,0.46875,769
1695744798613,-0.06591797,-0.8743286,0.5153198,1.359375,0.078125,2.140625,770
1695744798653,-0.07495117,-0.85650635,0.48529053,1.578125,0.21875,1.234375,771
1695744798693,-0.044189453,-0.8567505,0.47576904,-0.953125,-2.3125,0.3125,772
1695744798733,-0.024902344,-0.8584595,0.47576904,0.171875,0.6875,2.625,773
1695744798773,-0.056640625,-0.8682251,0.5092163,-0.21875,0.078125,1.5625,774
1695744798813,-0.06933594,-0.87384033,0.5392456,-0.515625,1.328125,0.203125,775
