# Sensor type: Respeck
# Activity type: Standing
# Activity subtype: Eating
# Subject id: s2106648
# Notes: 
timestamp,accel_x,accel_y,accel_z,gyro_x,gyro_y,gyro_z
1695744361057,-0.08911133,-0.8369751,0.543396,-1.828125,-5.46875,1.1875
1695744361093,-0.083496094,-0.83477783,0.54608154,-1.671875,-4.484375,1.140625
1695744361133,-0.09082031,-0.82403564,0.5536499,-1.203125,-3.640625,1.390625
1695744361193,-0.08203125,-0.8101196,0.5692749,0.0,-2.625,1.234375
1695744361213,-0.076171875,-0.8237915,0.5685425,0.671875,-2.421875,1.4375
1695744361254,-0.0715332,-0.829895,0.5675659,2.34375,-0.6875,1.1875
1695744361293,-0.0847168,-0.8128052,0.5531616,1.578125,-2.140625,1.15625
1695744361334,-0.092285156,-0.8335571,0.5704956,4.65625,-2.40625,1.078125
1695744361373,-0.07421875,-0.84088135,0.5519409,-0.46875,-1.40625,1.046875
1695744361433,-0.08935547,-0.83551025,0.5585327,1.90625,-0.328125,1.390625
1695744361453,-0.0703125,-0.8286743,0.55145264,0.046875,-1.9375,1.328125
1695744361493,-0.0703125,-0.83013916,0.5541382,0.921875,-1.109375,1.5625
1695744361553,-0.060546875,-0.8291626,0.559021,0.875,-0.46875,2.0
1695744361574,-0.053710938,-0.8237915,0.55584717,1.53125,-0.484375,2.15625
1695744361613,-0.050048828,-0.82403564,0.55877686,2.953125,-1.734375,1.5
1695744361653,-0.047851562,-0.8447876,0.5582886,1.953125,-1.328125,1.359375
1695744361694,-0.04711914,-0.8374634,0.5453491,1.171875,-0.828125,1.6875
1695744361734,-0.035888672,-0.82647705,0.5409546,0.953125,-1.015625,1.28125
1695744361773,-0.035888672,-0.8423462,0.5409546,0.75,-2.578125,1.046875
1695744361813,-0.053955078,-0.83551025,0.5553589,-0.671875,-2.1875,0.515625
1695744361853,-0.040771484,-0.84259033,0.5541382,1.328125,-2.140625,0.03125
1695744361913,-0.049072266,-0.8442993,0.5458374,0.34375,-1.609375,0.65625
1695744361933,-0.0715332,-0.8093872,0.5289917,-0.796875,-0.5,-0.25
1695744361973,-0.076171875,-0.815979,0.5360718,1.015625,-0.171875,-2.5
1695744362013,-0.0847168,-0.83258057,0.55462646,-1.546875,-0.734375,-2.71875
1695744362056,-0.10424805,-0.86846924,0.56536865,-0.828125,0.5625,-2.671875
1695744362093,-0.104003906,-0.85162354,0.53460693,-2.9375,-1.859375,-1.03125
1695744362133,-0.09643555,-0.815979,0.5475464,0.3125,-2.5,-0.484375
1695744362173,-0.1081543,-0.83477783,0.543396,-4.578125,-1.9375,-0.734375
1695744362213,-0.11816406,-0.8093872,0.5543823,-0.875,-1.296875,-1.390625
1695744362273,-0.1105957,-0.82647705,0.54730225,-0.390625,-1.34375,-2.859375
1695744362313,-0.11767578,-0.8257446,0.5741577,-0.453125,0.671875,-3.78125
1695744362333,-0.111816406,-0.83477783,0.56658936,-0.125,0.59375,-2.5
1695744362373,-0.1159668,-0.81207275,0.5787964,-0.453125,1.40625,-1.53125
1695744362414,-0.14794922,-0.82403564,0.5831909,-0.53125,1.484375,-1.640625
1695744362453,-0.14697266,-0.84039307,0.57196045,-4.625,-0.4375,-2.46875
1695744362493,-0.110839844,-0.81744385,0.5883179,-4.140625,-1.375,-0.453125
1695744362533,-0.10913086,-0.80914307,0.59417725,-1.515625,-0.953125,1.484375
1695744362573,-0.12841797,-0.79766846,0.5817261,-0.09375,0.21875,1.796875
1695744362654,-0.12768555,-0.78863525,0.5541382,0.09375,-2.390625,1.03125
1695744362657,-0.13061523,-0.7979126,0.55755615,-1.671875,-3.671875,0.3125
1695744362693,-0.15673828,-0.802063,0.5790405,-0.40625,-3.953125,-0.140625
1695744362753,-0.13598633,-0.83258057,0.5988159,-2.609375,-5.578125,-2.03125
1695744362774,-0.10668945,-0.8418579,0.6029663,-3.78125,-5.40625,-1.3125
1695744362813,-0.08862305,-0.8081665,0.5927124,-4.640625,-1.1875,1.453125
1695744362853,-0.1081543,-0.798645,0.5932007,-1.703125,3.671875,2.515625
1695744362893,-0.1081543,-0.7654419,0.57733154,-1.71875,0.859375,3.3125
1695744362934,-0.1159668,-0.788147,0.6117554,-0.34375,-1.28125,0.765625
1695744362993,-0.1274414,-0.79766846,0.61761475,-0.453125,0.359375,-0.015625
1695744363014,-0.14135742,-0.7991333,0.6268921,1.765625,-0.140625,-1.78125
1695744363053,-0.110839844,-0.8118286,0.588562,-1.21875,-0.015625,-1.6875
1695744363093,-0.10424805,-0.7817993,0.60076904,1.3125,0.90625,-0.828125
1695744363134,-0.1027832,-0.7959595,0.6288452,-0.90625,1.03125,-0.625
1695744363173,-0.10644531,-0.80255127,0.61224365,-1.328125,0.609375,-0.453125
1695744363193,-0.11621094,-0.8052368,0.6185913,-0.453125,2.109375,-0.03125
1695744363235,-0.11621094,-0.78326416,0.6102905,-1.171875,1.828125,0.125
1695744363273,-0.10083008,-0.7842407,0.6154175,-0.796875,1.453125,0.59375
1695744363314,-0.10107422,-0.7805786,0.61224365,-1.78125,0.171875,0.3125
1695744363355,-0.09838867,-0.7920532,0.62127686,0.953125,-0.390625,0.53125
1695744363393,-0.107177734,-0.7737427,0.61273193,-0.5,-0.1875,1.5625
1695744363433,-0.104003906,-0.7817993,0.61273193,2.953125,-0.296875,1.109375
1695744363473,-0.107910156,-0.8086548,0.63397217,1.4375,-0.09375,1.453125
1695744363533,-0.09448242,-0.80181885,0.6207886,0.140625,-0.03125,2.21875
1695744363553,-0.09448242,-0.8027954,0.62054443,0.4375,-0.484375,2.421875
1695744363593,-0.09057617,-0.78204346,0.61712646,-0.46875,0.265625,1.625
1695744363633,-0.095703125,-0.7839966,0.5980835,-3.0625,-0.953125,1.84375
1695744363673,-0.09814453,-0.7942505,0.60980225,-0.890625,-2.234375,1.390625
1695744363713,-0.08129883,-0.7937622,0.6107788,-2.484375,-1.109375,1.546875
1695744363753,-0.09326172,-0.78204346,0.6222534,-1.03125,1.0625,1.859375
1695744363793,-0.09301758,-0.7901001,0.6207886,-2.28125,0.09375,2.0
1695744363833,-0.08569336,-0.7793579,0.61224365,-2.0625,-0.484375,1.171875
1695744363893,-0.06933594,-0.7901001,0.62908936,0.125,-0.078125,1.265625
1695744363913,-0.08227539,-0.77593994,0.6203003,-2.890625,-0.640625,1.375
1695744363953,-0.08154297,-0.78009033,0.6342163,-0.46875,-0.71875,0.90625
1695744363993,-0.08129883,-0.78692627,0.62835693,-1.28125,-0.046875,0.53125
1695744364033,-0.07543945,-0.7683716,0.6298218,-0.421875,0.328125,0.296875
1695744364073,-0.07397461,-0.77008057,0.62835693,-0.640625,-0.234375,0.375
1695744364113,-0.07397461,-0.77471924,0.62908936,0.40625,-1.046875,0.03125
1695744364153,-0.08642578,-0.7803345,0.64178467,1.25,-0.734375,0.53125
1695744364193,-0.08105469,-0.77960205,0.6322632,0.359375,-1.109375,0.546875
1695744364255,-0.07446289,-0.7835083,0.63568115,0.4375,0.15625,0.71875
1695744364273,-0.07836914,-0.7695923,0.63201904,0.828125,-0.21875,0.6875
1695744364313,-0.06713867,-0.7842407,0.6366577,0.5,-0.375,0.78125
1695744364353,-0.07104492,-0.772522,0.6481323,0.96875,0.1875,0.390625
1695744364393,-0.072753906,-0.77178955,0.63690186,-0.96875,-0.953125,0.421875
1695744364433,-0.072753906,-0.78302,0.63739014,0.28125,-2.09375,0.21875
1695744364473,-0.06933594,-0.77911377,0.63323975,0.21875,0.125,0.109375
1695744364533,-0.079589844,-0.77471924,0.63201904,0.28125,0.203125,0.53125
1695744364553,-0.072509766,-0.7835083,0.6376343,0.453125,-0.578125,0.15625
1695744364613,-0.07104492,-0.78741455,0.63153076,0.296875,-0.1875,0.609375
1695744364633,-0.0769043,-0.7776489,0.6400757,1.546875,0.34375,0.171875
1695744364673,-0.071777344,-0.7739868,0.6342163,-0.625,-0.578125,-0.15625
1695744364713,-0.07055664,-0.7761841,0.63201904,0.4375,-0.609375,0.515625
1695744364753,-0.06982422,-0.78326416,0.6329956,0.234375,-0.921875,0.125
1695744364793,-0.07519531,-0.77838135,0.6415405,-0.484375,-0.421875,0.15625
1695744364833,-0.0793457,-0.76690674,0.63275146,0.109375,0.671875,0.4375
1695744364873,-0.07788086,-0.7896118,0.6430054,1.296875,-0.328125,-0.171875
1695744364914,-0.07299805,-0.77789307,0.63861084,0.0,0.296875,0.25
1695744364973,-0.075927734,-0.772522,0.638855,0.71875,0.265625,0.109375
1695744364993,-0.07446289,-0.77545166,0.6403198,0.484375,0.234375,-0.078125
1695744365033,-0.075683594,-0.770813,0.63079834,-0.109375,0.234375,0.0625
1695744365114,-0.07470703,-0.7822876,0.63616943,-0.21875,0.078125,0.34375
1695744365116,-0.068603516,-0.7817993,0.6415405,0.828125,0.984375,-0.03125
1695744365153,-0.06982422,-0.77301025,0.6312866,-0.046875,0.265625,-0.171875
1695744365193,-0.06762695,-0.77471924,0.64471436,0.390625,-0.75,-0.34375
1695744365233,-0.06323242,-0.7817993,0.63079834,-0.5,0.515625,-0.125
1695744365273,-0.07080078,-0.7752075,0.6420288,1.640625,-0.109375,0.21875
1695744365333,-0.06347656,-0.7854614,0.6456909,1.515625,0.0625,-0.03125
1695744365373,-0.07080078,-0.7774048,0.62420654,0.125,-0.4375,0.578125
1695744365393,-0.08154297,-0.769104,0.62542725,-0.5,0.40625,0.578125
1695744365433,-0.0871582,-0.77423096,0.6437378,0.5,-0.90625,-0.5625
1695744365478,-0.06274414,-0.79644775,0.65252686,0.890625,0.46875,-0.171875
1695744365514,-0.061279297,-0.77593994,0.6395874,-1.046875,2.09375,1.0625
1695744365553,-0.047851562,-0.76275635,0.6395874,0.203125,1.609375,0.5
1695744365593,-0.07421875,-0.76519775,0.63494873,0.0,1.328125,0.59375
1695744365633,-0.076660156,-0.7632446,0.6325073,0.921875,0.8125,-0.140625
1695744365673,-0.068603516,-0.7786255,0.6425171,0.578125,0.140625,-0.0625
1695744365713,-0.057373047,-0.7871704,0.64593506,0.921875,0.734375,0.75
1695744365753,-0.048095703,-0.7710571,0.6376343,-0.390625,0.15625,1.0
1695744365793,-0.068603516,-0.76934814,0.64471436,0.890625,0.921875,1.203125
1695744365836,-0.056396484,-0.77301025,0.6498413,0.6875,1.765625,-0.375
1695744365873,-0.057373047,-0.76934814,0.6268921,-1.578125,1.328125,0.15625
1695744365914,-0.044677734,-0.77667236,0.6415405,1.1875,-0.4375,0.171875
1695744365953,-0.038330078,-0.7866821,0.63983154,-0.75,-0.15625,0.671875
1695744365993,-0.047851562,-0.7698364,0.63983154,0.171875,0.625,-0.140625
1695744366053,-0.06689453,-0.77056885,0.6395874,0.734375,-1.1875,-0.234375
1695744366073,-0.063964844,-0.7683716,0.6312866,0.5625,-0.84375,-0.140625
1695744366113,-0.072021484,-0.7786255,0.6473999,2.5,-0.234375,-0.421875
1695744366194,-0.048583984,-0.784729,0.6432495,-1.03125,0.59375,-0.609375
1695744366197,-0.04663086,-0.77471924,0.63739014,1.484375,0.515625,0.515625
1695744366233,-0.03857422,-0.77667236,0.62664795,0.109375,-0.9375,0.203125
1695744366253,-0.046875,-0.7752075,0.64227295,1.484375,0.0,-0.515625
1695744366293,-0.057861328,-0.7871704,0.635437,0.171875,-0.984375,-0.078125
1695744366353,-0.056884766,-0.770813,0.6432495,0.3125,0.015625,-0.1875
1695744366414,-0.060546875,-0.78009033,0.64227295,1.609375,-1.25,0.28125
1695744366418,-0.049560547,-0.7810669,0.637146,-0.703125,-0.65625,-0.015625
1695744366453,-0.052490234,-0.7756958,0.638855,0.859375,-0.796875,-0.078125
1695744366493,-0.05053711,-0.7803345,0.64764404,0.90625,0.015625,0.0
1695744366533,-0.057617188,-0.76812744,0.6195679,-1.328125,-1.875,0.984375
1695744366593,-0.072753906,-0.7764282,0.62323,-1.09375,-0.90625,0.359375
1695744366613,-0.07788086,-0.77130127,0.64227295,-0.421875,-2.046875,-0.125
1695744366653,-0.041015625,-0.78912354,0.651062,0.3125,-1.515625,0.125
1695744366693,-0.05517578,-0.76934814,0.6273804,-2.1875,0.578125,0.90625
1695744366735,-0.06347656,-0.76226807,0.65374756,1.25,-0.546875,0.078125
1695744366773,-0.057861328,-0.7739868,0.6449585,-0.15625,-0.9375,0.1875
1695744366833,-0.05810547,-0.76397705,0.6437378,1.296875,-0.3125,-0.03125
1695744366853,-0.06665039,-0.7710571,0.63494873,-0.953125,-0.0625,0.203125
1695744366913,-0.050048828,-0.76885986,0.6437378,1.390625,-0.078125,0.09375
1695744366953,-0.049804688,-0.78253174,0.6461792,0.8125,-0.546875,1.046875
1695744366973,-0.05908203,-0.756897,0.6415405,1.375,-1.03125,-0.65625
1695744367013,-0.044921875,-0.788147,0.6508179,2.1875,-0.265625,-0.96875
1695744367053,-0.045654297,-0.76568604,0.6408081,0.234375,1.4375,1.5625
1695744367095,-0.059570312,-0.7659302,0.62713623,1.125,-1.734375,1.453125
1695744367133,-0.07421875,-0.76763916,0.6210327,0.421875,-2.65625,-0.328125
1695744367173,-0.06518555,-0.7908325,0.65448,0.78125,-0.65625,0.078125
1695744367213,-0.051513672,-0.784729,0.6430054,-0.671875,0.6875,0.359375
1695744367253,-0.059814453,-0.77593994,0.6359253,-0.578125,0.921875,1.046875
1695744367313,-0.040771484,-0.78302,0.6415405,1.390625,1.109375,-0.59375
1695744367334,-0.057373047,-0.7683716,0.63397217,-0.734375,-0.734375,-0.125
1695744367393,-0.053222656,-0.7749634,0.6403198,1.890625,-0.640625,-0.359375
1695744367433,-0.048583984,-0.7827759,0.6334839,0.0,0.03125,-0.234375
1695744367454,-0.05444336,-0.7649536,0.63690186,1.53125,0.578125,0.265625
1695744367493,-0.05029297,-0.78692627,0.63812256,0.78125,0.015625,-0.296875
1695744367533,-0.05859375,-0.7815552,0.62420654,0.734375,-0.84375,0.6875
1695744367594,-0.052734375,-0.7788696,0.64227295,0.984375,-0.796875,0.21875
1695744367613,-0.06225586,-0.76934814,0.633728,-0.8125,-0.78125,0.828125
1695744367673,-0.064208984,-0.77301025,0.6478882,1.8125,-0.5625,0.390625
1695744367694,-0.052490234,-0.7932739,0.6364136,-0.09375,-1.046875,0.109375
1695744367733,-0.05444336,-0.78082275,0.63690186,1.1875,0.625,0.765625
1695744367773,-0.048095703,-0.77227783,0.6364136,1.859375,0.0625,0.28125
1695744367814,-0.03930664,-0.7918091,0.62615967,1.015625,-0.5625,0.125
1695744367853,-0.049804688,-0.77789307,0.6329956,1.125,-0.71875,0.84375
1695744367893,-0.050048828,-0.7727661,0.63201904,0.609375,-1.890625,0.1875
1695744367934,-0.064941406,-0.7920532,0.63031006,1.109375,-1.53125,0.34375
1695744367973,-0.057373047,-0.7896118,0.63494873,0.3125,-0.203125,0.078125
1695744368013,-0.055664062,-0.77056885,0.6351929,0.03125,-0.0625,-0.265625
1695744368053,-0.03515625,-0.7805786,0.621521,-1.1875,0.046875,0.125
1695744368113,-0.046142578,-0.77838135,0.63983154,2.03125,-0.59375,0.375
1695744368133,-0.040283203,-0.77911377,0.63201904,0.484375,0.03125,0.484375
1695744368174,-0.040771484,-0.7859497,0.6325073,1.40625,-0.53125,-0.0625
1695744368213,-0.0703125,-0.79937744,0.6329956,-0.125,-0.734375,0.859375
1695744368253,-0.061523438,-0.77301025,0.61712646,-1.4375,0.109375,0.46875
1695744368294,-0.061767578,-0.7788696,0.6430054,0.546875,0.015625,-0.1875
1695744368335,-0.05444336,-0.7810669,0.64227295,-2.328125,-0.28125,0.03125
1695744368393,-0.055419922,-0.7781372,0.63446045,-0.34375,-0.203125,-0.15625
1695744368413,-0.042236328,-0.77130127,0.6456909,0.546875,1.046875,-0.109375
1695744368453,-0.038085938,-0.7810669,0.64520264,1.671875,0.90625,0.390625
1695744368493,-0.035888672,-0.77130127,0.63983154,0.640625,0.390625,0.703125
1695744368535,-0.026123047,-0.7901001,0.6366577,1.703125,-0.765625,0.453125
1695744368573,-0.028808594,-0.79034424,0.6395874,2.203125,-1.953125,1.578125
1695744368613,-0.032714844,-0.7715454,0.63079834,0.984375,-1.65625,1.453125
1695744368653,-0.0847168,-0.77593994,0.6310425,0.0625,-3.46875,2.484375
1695744368715,-0.0703125,-0.77178955,0.62835693,0.59375,-2.09375,0.90625
1695744368753,-0.05029297,-0.7876587,0.6300659,-1.4375,-1.15625,0.1875
1695744368773,-0.052001953,-0.7852173,0.62957764,-1.671875,1.390625,0.953125
1695744368813,-0.05444336,-0.7720337,0.6366577,0.71875,0.25,0.484375
1695744368853,-0.040527344,-0.78375244,0.633728,0.8125,0.4375,-0.171875
1695744368894,-0.03125,-0.7774048,0.63323975,0.140625,1.4375,0.0
1695744368933,-0.056396484,-0.788147,0.6378784,0.78125,-0.03125,0.375
1695744368973,-0.05493164,-0.77471924,0.6288452,0.796875,0.875,-0.375
1695744369014,-0.040527344,-0.7918091,0.64227295,1.875,1.359375,-0.34375
1695744369074,-0.044433594,-0.7756958,0.6325073,-1.578125,2.078125,0.0625
1695744369115,-0.021240234,-0.78570557,0.6378784,0.984375,1.390625,-0.390625
1695744369133,-0.037597656,-0.7839966,0.63861084,0.984375,0.578125,0.484375
1695744369194,-0.037109375,-0.77911377,0.6222534,1.75,-0.375,0.265625
1695744369215,-0.038085938,-0.76275635,0.6334839,1.5625,0.84375,-0.90625
1695744369255,-0.028076172,-0.7962036,0.63275146,2.109375,-0.296875,0.171875
1695744369293,-0.026123047,-0.7776489,0.62005615,2.1875,0.578125,0.984375
1695744369333,-0.033935547,-0.7756958,0.6310425,4.109375,-0.375,-0.328125
1695744369353,-0.02758789,-0.79766846,0.6268921,3.328125,-1.015625,0.265625
1695744369393,-0.025146484,-0.7913208,0.6137085,2.71875,-1.3125,0.265625
1695744369433,-0.039794922,-0.7920532,0.6017456,0.421875,-2.203125,0.828125
1695744369473,-0.025878906,-0.8023071,0.6078491,0.46875,-0.59375,-0.03125
1695744369513,-0.029785156,-0.80718994,0.6259155,3.46875,-2.21875,0.515625
1695744369553,-0.013671875,-0.80718994,0.6144409,1.125,-2.25,0.65625
1695744369593,-0.039794922,-0.8032837,0.61102295,0.625,-2.078125,0.328125
1695744369653,-0.029052734,-0.7937622,0.59490967,0.40625,-2.28125,0.703125
1695744369673,-0.049560547,-0.8010864,0.6088257,1.484375,-3.4375,1.015625
1695744369715,-0.03857422,-0.7817993,0.5975952,-0.375,-2.0,-0.171875
1695744369753,-0.055419922,-0.7913208,0.6129761,-0.078125,-1.515625,0.796875
1695744369795,-0.03857422,-0.80010986,0.6137085,0.265625,-2.09375,-0.03125
1695744369833,-0.041748047,-0.80010986,0.61468506,0.421875,-1.03125,-0.0625
1695744369874,-0.043945312,-0.8115845,0.6107788,-0.453125,-1.421875,1.484375
1695744369914,-0.027832031,-0.7854614,0.60565186,-0.125,-2.5625,0.109375
1695744369953,-0.037353516,-0.7959595,0.61102295,0.125,-2.15625,-0.171875
1695744370013,-0.049072266,-0.7920532,0.6071167,-0.125,-0.390625,0.765625
1695744370033,-0.05810547,-0.79473877,0.6190796,1.171875,-1.296875,0.9375
1695744370073,-0.05493164,-0.8045044,0.60150146,-0.078125,-2.59375,0.203125
1695744370113,-0.06567383,-0.79888916,0.6190796,0.296875,-0.703125,-0.828125
1695744370153,-0.045166016,-0.79351807,0.6119995,-0.609375,-1.375,-1.046875
1695744370193,-0.03857422,-0.8106079,0.5993042,-1.703125,-0.0625,-0.25
1695744370233,-0.055664062,-0.79937744,0.6149292,0.28125,-1.203125,-0.25
1695744370273,-0.041503906,-0.7979126,0.6185913,0.484375,-1.390625,-0.421875
1695744370313,-0.057861328,-0.78326416,0.60369873,-1.96875,1.828125,-0.171875
1695744370373,-0.053710938,-0.78253174,0.6227417,0.8125,0.828125,-1.234375
1695744370434,-0.055908203,-0.7974243,0.6063843,0.3125,0.140625,-1.03125
1695744370437,-0.055664062,-0.7949829,0.62371826,2.140625,0.0,-1.15625
1695744370473,-0.05810547,-0.7971802,0.62054443,-0.109375,0.8125,-1.296875
1695744370514,-0.05810547,-0.80059814,0.6207886,0.078125,1.234375,-1.109375
1695744370553,-0.057128906,-0.79815674,0.6239624,0.25,0.5625,-0.890625
1695744370593,-0.046875,-0.7876587,0.6107788,-0.3125,0.3125,-0.921875
1695744370633,-0.052001953,-0.7932739,0.60491943,0.328125,0.46875,-1.109375
1695744370673,-0.052734375,-0.7954712,0.61517334,0.40625,-0.171875,-1.40625
1695744370733,-0.05078125,-0.7932739,0.61346436,-0.328125,0.234375,-0.921875
1695744370753,-0.05102539,-0.78204346,0.6168823,-0.15625,0.0625,-0.78125
1695744370793,-0.049072266,-0.7852173,0.6178589,-0.0625,-1.109375,0.015625
1695744370833,-0.05834961,-0.7905884,0.63153076,1.8125,-1.15625,0.015625
1695744370874,-0.05493164,-0.78863525,0.6203003,-0.75,-1.390625,0.140625
1695744370913,-0.07104492,-0.7883911,0.6129761,0.046875,-0.4375,0.828125
1695744370953,-0.05883789,-0.78570557,0.6185913,1.453125,-2.5625,0.59375
1695744370993,-0.044189453,-0.79644775,0.62249756,0.578125,-1.09375,0.421875
1695744371033,-0.057617188,-0.7888794,0.6144409,-1.40625,-0.25,0.75
1695744371073,-0.059814453,-0.7859497,0.6173706,0.109375,-1.03125,0.65625
1695744371113,-0.053955078,-0.7974243,0.619812,0.75,-0.96875,0.40625
1695744371153,-0.057373047,-0.7876587,0.6300659,0.484375,-0.421875,0.203125
1695744371194,-0.051757812,-0.79400635,0.61517334,-0.671875,-0.609375,0.390625
1695744371233,-0.056396484,-0.786438,0.6107788,0.359375,-0.78125,0.46875
1695744371273,-0.056884766,-0.78082275,0.62054443,0.140625,-0.671875,0.5
1695744371313,-0.06225586,-0.79229736,0.6178589,-0.109375,-1.1875,0.109375
1695744371353,-0.05493164,-0.7962036,0.618103,0.234375,-1.265625,0.34375
1695744371393,-0.061523438,-0.7908325,0.6173706,-0.015625,-1.296875,-0.03125
1695744371453,-0.076416016,-0.79034424,0.61761475,0.390625,-1.015625,-0.65625
1695744371473,-0.07128906,-0.786438,0.6168823,-0.390625,-0.4375,-0.484375
1695744371513,-0.07421875,-0.7979126,0.6268921,-0.28125,-0.453125,-1.046875
1695744371553,-0.06933594,-0.80010986,0.63861084,0.5625,1.265625,-1.203125
1695744371594,-0.06665039,-0.7781372,0.62371826,-1.265625,2.125,-1.109375
1695744371633,-0.076416016,-0.78302,0.6119995,-1.890625,2.078125,-0.640625
1695744371674,-0.064697266,-0.77227783,0.6168823,-0.53125,0.265625,-1.015625
1695744371733,-0.056152344,-0.7930298,0.63739014,-0.171875,0.25,-1.046875
1695744371753,-0.052490234,-0.78326416,0.61834717,-2.546875,0.6875,-0.5
1695744371813,-0.071777344,-0.7727661,0.6444702,1.125,0.375,-0.671875
1695744371833,-0.07128906,-0.77960205,0.62957764,-0.265625,-0.171875,-1.203125
1695744371873,-0.05908203,-0.7920532,0.6383667,2.046875,0.515625,-0.640625
1695744371913,-0.063964844,-0.78985596,0.63275146,0.03125,-0.28125,-0.90625
1695744371953,-0.048095703,-0.7842407,0.6227417,0.25,-0.875,-0.703125
1695744371993,-0.0637207,-0.79107666,0.6351929,1.890625,0.546875,-0.09375
1695744372033,-0.060791016,-0.7788696,0.61834717,-1.265625,-0.5625,0.15625
1695744372073,-0.067871094,-0.7798462,0.63153076,0.0,-0.515625,0.578125
1695744372113,-0.060791016,-0.7803345,0.6312866,-0.234375,-0.984375,0.4375
1695744372173,-0.06689453,-0.7839966,0.6366577,-1.140625,-1.25,0.453125
1695744372193,-0.072753906,-0.769104,0.63397217,-0.078125,-1.296875,0.734375
1695744372233,-0.068115234,-0.78790283,0.637146,0.71875,-0.6875,-0.03125
1695744372278,-0.045410156,-0.7815552,0.61590576,-1.9375,-0.40625,0.859375
1695744372314,-0.05517578,-0.79229736,0.63446045,0.125,-1.703125,0.78125
1695744372374,-0.07885742,-0.7810669,0.62957764,-1.734375,-2.375,0.6875
1695744372377,-0.07446289,-0.7803345,0.6351929,0.46875,-0.90625,1.03125
1695744372413,-0.06665039,-0.7744751,0.6293335,-1.96875,-0.8125,0.953125
1695744372453,-0.055908203,-0.77008057,0.6454468,0.1875,-2.453125,0.671875
1695744372494,-0.068847656,-0.77960205,0.6581421,0.84375,-2.046875,1.8125
1695744372553,-0.07519531,-0.75982666,0.62615967,0.34375,-2.453125,0.484375
1695744372573,-0.06933594,-0.7776489,0.63323975,1.390625,-2.625,0.46875
1695744372614,-0.076660156,-0.77789307,0.64276123,1.171875,-0.703125,1.296875
1695744372653,-0.064208984,-0.7720337,0.62908936,1.03125,-1.484375,1.25
1695744372713,-0.072509766,-0.7827759,0.64056396,2.0,-1.4375,0.71875
1695744372733,-0.08300781,-0.77471924,0.63812256,0.34375,-0.90625,1.046875
1695744372773,-0.068603516,-0.77911377,0.6383667,1.328125,-0.5,0.28125
1695744372813,-0.0703125,-0.7852173,0.63812256,0.34375,-0.125,0.578125
1695744372853,-0.078125,-0.7686157,0.6366577,0.75,-0.40625,0.671875
1695744372893,-0.061279297,-0.7883911,0.64349365,0.828125,-0.359375,0.125
1695744372933,-0.05883789,-0.7727661,0.6268921,-1.1875,-0.390625,0.984375
1695744372993,-0.061279297,-0.77838135,0.61834717,-0.375,-0.109375,0.1875
1695744373013,-0.07470703,-0.78204346,0.64178467,0.6875,-2.359375,0.828125
1695744373073,-0.059814453,-0.7827759,0.6415405,0.71875,-1.625,0.125
1695744373093,-0.06225586,-0.7817993,0.6300659,-0.0625,-0.390625,1.375
1695744373133,-0.07446289,-0.7749634,0.6456909,1.703125,-2.109375,1.6875
1695744373173,-0.071777344,-0.77667236,0.6264038,1.375,-2.109375,-0.125
1695744373214,-0.07495117,-0.7866821,0.638855,2.03125,-1.71875,0.375
1695744373253,-0.068115234,-0.7803345,0.62908936,0.265625,0.09375,0.265625
1695744373293,-0.072753906,-0.7930298,0.6166382,0.78125,-1.71875,1.578125
1695744373333,-0.06323242,-0.76641846,0.6305542,3.265625,0.171875,0.0625
1695744373373,-0.053466797,-0.7974243,0.62005615,1.4375,0.421875,0.296875
1695744373433,-0.068115234,-0.78326416,0.62249756,1.140625,1.40625,1.78125
1695744373454,-0.053222656,-0.7732544,0.6124878,0.625,0.578125,0.65625
1695744373494,-0.051513672,-0.7949829,0.62713623,2.234375,0.1875,1.09375
1695744373533,-0.047607422,-0.78863525,0.6256714,1.09375,0.203125,2.03125
1695744373573,-0.046875,-0.79034424,0.61883545,1.265625,0.015625,2.390625
1695744373613,-0.052490234,-0.78448486,0.6063843,2.140625,-0.75,2.9375
1695744373653,-0.0546875,-0.78985596,0.6168823,2.453125,-0.90625,2.0625
1695744373693,-0.06274414,-0.79107666,0.6251831,-0.265625,-0.609375,0.796875
1695744373733,-0.052978516,-0.802063,0.6088257,-0.328125,1.375,1.375
1695744373793,-0.042236328,-0.7859497,0.618103,2.546875,0.921875,2.4375
1695744373833,-0.027832031,-0.7932739,0.6166382,2.90625,0.3125,1.875
1695744373853,-0.037353516,-0.7835083,0.6000366,1.46875,0.0,2.078125
1695744373893,-0.036132812,-0.7971802,0.6137085,3.359375,-0.828125,0.8125
1695744373934,-0.056396484,-0.7979126,0.59832764,0.375,-1.15625,1.09375
1695744373973,-0.045654297,-0.788147,0.6124878,1.59375,0.890625,0.21875
1695744374013,-0.051513672,-0.788147,0.6100464,-0.09375,1.828125,0.796875
1695744374053,-0.03149414,-0.79766846,0.61053467,2.328125,1.859375,0.359375
1695744374094,-0.022949219,-0.80670166,0.619812,2.578125,1.734375,-0.296875
1695744374153,-0.008300781,-0.80596924,0.6117554,1.53125,1.578125,-0.0625
1695744374173,-0.028076172,-0.7937622,0.5848999,0.65625,1.640625,1.28125
1695744374213,-0.029296875,-0.7932739,0.59539795,1.71875,-0.984375,-0.15625
1695744374254,-0.018798828,-0.80914307,0.59783936,0.015625,-0.796875,-0.578125
1695744374294,-0.012451172,-0.80255127,0.5997925,0.6875,-0.5,0.921875
1695744374333,-0.016357422,-0.81378174,0.6017456,0.640625,-0.703125,0.765625
1695744374373,-0.030761719,-0.8098755,0.590271,1.046875,-1.484375,1.109375
1695744374433,-0.028320312,-0.80596924,0.59002686,1.859375,-0.9375,0.34375
1695744374454,-0.023925781,-0.80792236,0.5844116,0.34375,-1.234375,0.40625
1695744374534,-0.019042969,-0.8196411,0.5910034,0.90625,-0.3125,1.453125
1695744374537,-0.028076172,-0.8074341,0.59051514,1.046875,-2.078125,1.265625
1695744374573,-0.021728516,-0.81573486,0.5861206,1.484375,-1.5625,0.546875
1695744374613,-0.028564453,-0.8154907,0.5951538,1.09375,-0.65625,0.6875
1695744374653,-0.035888672,-0.8106079,0.5800171,1.359375,-0.65625,0.828125
1695744374693,-0.02319336,-0.8088989,0.5753784,0.65625,0.1875,-0.03125
1695744374733,-0.018554688,-0.81817627,0.5914917,1.4375,-0.140625,0.125
1695744374773,-0.005126953,-0.81329346,0.57611084,0.28125,-0.453125,0.359375
1695744374813,-0.020019531,-0.8201294,0.5848999,1.4375,-1.734375,0.625
1695744374873,-0.02319336,-0.80548096,0.5841675,0.203125,-1.515625,-0.078125
1695744374893,-0.03930664,-0.8147583,0.5861206,0.265625,-1.515625,0.453125
1695744374934,-0.033935547,-0.8076782,0.5819702,-0.78125,-0.03125,0.09375
1695744374973,-0.030517578,-0.8154907,0.58929443,0.21875,0.234375,-0.046875
1695744375014,-0.01586914,-0.80963135,0.59002686,0.0,0.828125,0.75
1695744375053,-0.015380859,-0.8093872,0.5856323,0.5,0.4375,0.234375
1695744375113,-0.020751953,-0.8118286,0.59051514,-0.046875,0.0,-0.125
1695744375133,-0.011474609,-0.80718994,0.58758545,-0.109375,0.03125,-0.171875
1695744375177,-0.011474609,-0.8101196,0.5817261,0.546875,-0.5625,0.734375
1695744375233,-0.026611328,-0.8086548,0.59295654,0.484375,-0.609375,0.609375
1695744375273,-0.028564453,-0.8015747,0.586853,-0.53125,-1.0,0.453125
1695744375293,-0.01953125,-0.8245239,0.6012573,0.421875,0.390625,0.015625
1695744375353,-0.016357422,-0.81036377,0.59124756,-0.359375,-0.84375,0.625
1695744375375,-0.013916016,-0.8023071,0.59198,-0.453125,-0.765625,0.203125
1695744375413,-0.028808594,-0.81085205,0.6005249,-1.40625,-0.515625,-0.171875
1695744375453,-0.029296875,-0.80670166,0.605896,-1.78125,-0.734375,-0.46875
1695744375473,-0.026123047,-0.8093872,0.5985718,-1.6875,-1.171875,-0.4375
1695744375513,-0.01928711,-0.8008423,0.6051636,-0.515625,-0.078125,-0.390625
1695744375553,-0.022460938,-0.802063,0.5975952,-2.34375,-0.140625,0.1875
1695744375593,-0.02319336,-0.79229736,0.6100464,-1.390625,-0.484375,-0.4375
1695744375633,-0.0146484375,-0.80181885,0.62005615,-0.71875,-1.25,-0.703125
1695744375673,-0.023925781,-0.8118286,0.6166382,-1.828125,-1.875,0.296875
1695744375713,-0.026611328,-0.7871704,0.61151123,-2.171875,-1.15625,-0.109375
1695744375773,-0.025390625,-0.7871704,0.6161499,-1.65625,-1.78125,-0.171875
1695744375793,-0.020996094,-0.79571533,0.6090698,-2.015625,-1.796875,0.4375
1695744375834,-0.044677734,-0.7769165,0.6166382,-2.078125,-1.796875,0.71875
1695744375873,-0.045410156,-0.7871704,0.6244507,-1.671875,-1.890625,-0.359375
1695744375913,-0.041259766,-0.7966919,0.63031006,-1.859375,0.140625,-0.734375
1695744375973,-0.03540039,-0.78912354,0.62493896,-1.796875,0.765625,-0.078125
1695744375993,-0.021728516,-0.7817993,0.64056396,-0.140625,1.3125,-0.90625
1695744376033,-0.0078125,-0.7842407,0.6300659,-1.703125,0.515625,-0.921875
1695744376074,-0.017822266,-0.7678833,0.6100464,-2.21875,-0.96875,0.25
1695744376134,-0.032714844,-0.76812744,0.6305542,-0.875,-1.515625,-0.296875
1695744376153,-0.024902344,-0.7930298,0.64398193,-0.390625,-0.8125,-0.640625
1695744376194,-0.0087890625,-0.79351807,0.6395874,-1.4375,-0.375,0.59375
1695744376233,-0.029541016,-0.77838135,0.64227295,-0.46875,-1.734375,2.46875
1695744376314,-0.044921875,-0.7642212,0.6342163,-1.015625,-2.421875,1.15625
1695744376317,-0.041015625,-0.7803345,0.64276123,-0.625,-1.984375,-0.0625
1695744376394,-0.025146484,-0.7744751,0.637146,-3.078125,-1.1875,1.078125
1695744376397,-0.05444336,-0.76519775,0.65008545,-1.53125,-0.296875,1.1875
1695744376434,-0.04736328,-0.77301025,0.6395874,-0.6875,-0.5,-0.140625
1695744376493,-0.020751953,-0.7737427,0.64837646,0.578125,1.5,-0.328125
1695744376513,-4.8828125E-4,-0.77789307,0.6557007,-0.53125,0.28125,-0.34375
1695744376553,-0.008544922,-0.77593994,0.6412964,-1.296875,-1.125,0.515625
1695744376593,-0.017578125,-0.7695923,0.63446045,-0.6875,-1.265625,0.96875
1695744376634,-0.04663086,-0.76519775,0.6466675,-0.296875,-2.421875,0.203125
1695744376673,-0.038330078,-0.75665283,0.63446045,0.390625,-2.328125,0.765625
1695744376713,-0.027832031,-0.7720337,0.64520264,0.09375,-1.921875,1.140625
1695744376754,-0.022949219,-0.76763916,0.6498413,0.453125,-0.171875,0.921875
1695744376793,-0.036621094,-0.76397705,0.64520264,0.5625,-1.71875,1.484375
1695744376853,-0.030273438,-0.76153564,0.6564331,1.953125,-2.015625,0.484375
1695744376873,-0.03100586,-0.7715454,0.63983154,1.21875,0.0625,1.125
1695744376913,-0.045166016,-0.7666626,0.6395874,2.390625,0.703125,0.84375
1695744376953,-0.0146484375,-0.7798462,0.65252686,2.421875,0.0,0.171875
1695744376993,-0.03100586,-0.7608032,0.64178467,2.140625,0.5625,1.25
1695744377033,-0.05834961,-0.7710571,0.6395874,3.515625,1.84375,1.125
1695744377073,-0.036376953,-0.7827759,0.64837646,1.578125,0.859375,-1.046875
1695744377113,0.0026855469,-0.79034424,0.64959717,2.234375,2.484375,-0.21875
1695744377174,-7.324219E-4,-0.7769165,0.638855,0.921875,2.53125,0.78125
1695744377213,-0.01171875,-0.7695923,0.6195679,0.40625,0.25,0.234375
1695744377233,-0.01953125,-0.767395,0.6329956,2.09375,-0.5625,-0.515625
1695744377273,-0.02709961,-0.8023071,0.6425171,2.140625,-0.5625,-0.453125
1695744377313,-0.022216797,-0.77789307,0.6259155,0.40625,0.5625,0.578125
1695744377354,-0.0068359375,-0.7852173,0.62542725,0.546875,-2.328125,0.578125
1695744377393,0.0078125,-0.78375244,0.62835693,1.359375,-1.484375,0.28125
1695744377433,-0.01928711,-0.784729,0.64886475,5.171875,-1.03125,-0.40625
1695744377473,-0.025878906,-0.77667236,0.604187,0.609375,-1.890625,0.0625
1695744377513,-0.029052734,-0.77789307,0.61932373,3.609375,-2.40625,-0.078125
1695744377573,-0.0234375,-0.80474854,0.6220093,5.359375,-0.484375,-0.453125
1695744377593,-0.019042969,-0.7991333,0.61932373,3.546875,-0.078125,-0.25
1695744377633,-0.017333984,-0.78863525,0.60150146,3.78125,-0.421875,0.3125
1695744377673,-0.03173828,-0.7918091,0.5997925,4.1875,-0.40625,-0.671875
1695744377715,-0.03149414,-0.8027954,0.60076904,2.96875,-0.328125,-0.734375
1695744377773,-0.018798828,-0.8052368,0.5980835,2.5625,-0.078125,-0.21875
1695744377793,-0.033447266,-0.8179321,0.5944214,2.125,-1.40625,-0.359375
1695744377857,-0.017578125,-0.80914307,0.6005249,1.734375,-0.21875,-0.40625
1695744377874,-0.045166016,-0.81573486,0.604187,3.125,0.296875,0.546875
1695744377933,-0.024169922,-0.79766846,0.5790405,1.359375,-0.109375,-0.15625
1695744377953,-0.009033203,-0.80963135,0.59588623,3.4375,-0.671875,-1.53125
1695744377993,-0.024902344,-0.81988525,0.5844116,1.84375,0.421875,-0.046875
1695744378033,-0.018798828,-0.80914307,0.5907593,2.078125,-1.0,-0.828125
1695744378073,-0.043945312,-0.82891846,0.58148193,2.34375,-2.125,0.28125
1695744378114,-0.03125,-0.8110962,0.5910034,1.1875,-1.9375,-1.328125
1695744378153,-0.032714844,-0.819397,0.57196045,-1.203125,-1.703125,-0.359375
1695744378193,-0.03564453,-0.80914307,0.59198,-1.859375,-3.0625,0.65625
1695744378233,-0.025634766,-0.8184204,0.6005249,-0.640625,-2.8125,-0.609375
1695744378298,-0.040527344,-0.8123169,0.5878296,-1.84375,-3.3125,0.328125
1695744378313,-0.042236328,-0.8115845,0.5873413,-1.84375,-4.0625,0.921875
1695744378353,-0.056396484,-0.7996216,0.58587646,-3.0625,-3.75,0.1875
1695744378393,-0.052734375,-0.8118286,0.5968628,-2.8125,-3.390625,-0.59375
1695744378433,-0.061279297,-0.8101196,0.60614014,-3.75,-2.046875,-0.171875
1695744378473,-0.061767578,-0.7974243,0.61395264,-4.28125,-0.71875,-0.5
1695744378513,-0.04736328,-0.79571533,0.61102295,-5.234375,-1.015625,-0.671875
1695744378536,-0.05493164,-0.78985596,0.6168823,-3.984375,0.046875,-1.609375
1695744378573,-0.048095703,-0.7842407,0.61639404,-3.53125,-0.21875,-0.90625
1695744378615,-0.04345703,-0.78570557,0.6276245,-4.359375,-0.90625,-0.734375
1695744378653,-0.06201172,-0.7817993,0.62835693,-2.5,-0.671875,-0.265625
1695744378693,-0.06591797,-0.7788696,0.6322632,-2.953125,0.0625,-0.6875
1695744378733,-0.056640625,-0.7883911,0.63323975,-2.96875,-0.796875,-0.8125
1695744378773,-0.052246094,-0.76641846,0.64349365,-2.203125,-0.5,-0.09375
1695744378834,-0.05859375,-0.77130127,0.63690186,-3.296875,-0.390625,0.09375
1695744378853,-0.05859375,-0.7637329,0.638855,-2.203125,0.453125,0.109375
1695744378893,-0.049072266,-0.7617798,0.6442261,-0.53125,-1.71875,0.6875
1695744378953,-0.048828125,-0.7781372,0.6569214,-1.78125,-1.875,-0.0625
1695744378976,-0.060546875,-0.76568604,0.65448,-2.1875,-0.109375,0.390625
1695744379033,-0.06298828,-0.75665283,0.66571045,-0.546875,-0.453125,0.703125
1695744379073,-0.055664062,-0.7659302,0.6520386,-1.625,-1.21875,0.28125
1695744379095,-0.056884766,-0.75250244,0.6600952,-0.125,-0.8125,0.40625
1695744379133,-0.05493164,-0.76348877,0.65667725,-0.140625,-1.0,0.328125
1695744379193,-0.06567383,-0.7485962,0.65448,-0.265625,-0.421875,-0.125
1695744379213,-0.059570312,-0.76446533,0.6593628,0.46875,-0.484375,-0.578125
1695744379253,-0.059570312,-0.76031494,0.65252686,-0.953125,0.0,-0.4375
1695744379293,-0.06591797,-0.741272,0.6671753,0.984375,1.265625,-0.703125
1695744379335,-0.06298828,-0.76226807,0.6613159,0.8125,0.578125,-1.578125
1695744379373,-0.057617188,-0.7620239,0.6535034,0.984375,1.09375,-1.234375
1695744379413,-0.05419922,-0.7630005,0.65789795,2.046875,1.125,-1.421875
1695744379453,-0.06567383,-0.7649536,0.65838623,3.15625,0.5,-0.59375
1695744379493,-0.051513672,-0.753479,0.64105225,1.84375,1.125,-1.96875
1695744379553,-0.060058594,-0.7671509,0.6454468,3.125,1.609375,-1.28125
1695744379573,-0.068115234,-0.76348877,0.6539917,2.921875,-0.78125,-1.015625
1695744379613,-0.057617188,-0.7793579,0.6454468,1.625,0.640625,-1.234375
1695744379654,-0.05908203,-0.7661743,0.6366577,0.765625,1.0625,-0.75
1695744379695,-0.068847656,-0.7710571,0.64349365,3.15625,0.40625,-0.9375
1695744379737,-0.059326172,-0.77911377,0.6347046,1.9375,-0.515625,-0.59375
1695744379773,-0.052001953,-0.78204346,0.6456909,2.65625,0.875,-0.390625
1695744379813,-0.055419922,-0.7761841,0.6268921,-1.59375,-0.203125,-0.140625
1695744379853,-0.06518555,-0.7620239,0.6347046,0.75,-0.90625,-0.0625
1695744379913,-0.061035156,-0.7781372,0.637146,0.671875,-1.359375,-0.125
1695744379935,-0.06298828,-0.7815552,0.6366577,0.6875,-0.859375,0.171875
1695744379973,-0.06225586,-0.7710571,0.6408081,1.375,-1.265625,0.234375
1695744380013,-0.06225586,-0.77545166,0.6376343,2.609375,-0.53125,0.359375
1695744380056,-0.06298828,-0.7739868,0.63079834,1.765625,-0.796875,0.875
1695744380093,-0.059814453,-0.77911377,0.62615967,2.015625,-1.53125,0.8125
1695744380133,-0.06640625,-0.77911377,0.62542725,1.96875,-1.671875,1.296875
1695744380173,-0.064453125,-0.78302,0.6395874,3.53125,-1.640625,0.9375
1695744380234,-0.06298828,-0.7888794,0.61053467,-1.203125,-1.359375,0.625
1695744380273,-0.06347656,-0.78204346,0.62054443,1.375,-3.03125,1.375
1695744380293,-0.064453125,-0.784729,0.62615967,0.46875,-2.046875,1.46875
1695744380333,-0.07348633,-0.78985596,0.61834717,0.453125,-1.671875,0.984375
1695744380373,-0.061279297,-0.77716064,0.61102295,1.125,-1.78125,1.53125
1695744380415,-0.06762695,-0.7888794,0.6234741,2.4375,-1.828125,1.5
1695744380453,-0.06640625,-0.7996216,0.6310425,3.6875,-1.0625,0.453125
1695744380495,-0.083984375,-0.79400635,0.6317749,3.46875,-1.40625,0.421875
1695744380533,-0.080322266,-0.7817993,0.60565186,2.796875,0.1875,0.625
1695744380573,-0.0769043,-0.7854614,0.618103,4.21875,0.078125,0.203125
1695744380633,-0.07299805,-0.8010864,0.62371826,3.578125,-0.015625,0.1875
1695744380653,-0.063964844,-0.7991333,0.60931396,1.78125,-0.609375,-0.171875
1695744380694,-0.052490234,-0.8093872,0.6124878,2.203125,-0.265625,0.109375
1695744380733,-0.057128906,-0.81329346,0.60736084,1.75,-0.703125,0.3125
1695744380773,-0.056640625,-0.8069458,0.6000366,0.8125,-1.40625,0.640625
1695744380813,-0.06616211,-0.7876587,0.5973511,1.765625,-0.15625,0.390625
1695744380853,-0.06347656,-0.7962036,0.6012573,0.75,-1.421875,0.1875
1695744380893,-0.056396484,-0.81622314,0.58514404,-1.296875,-1.421875,0.734375
1695744380954,-0.0690918,-0.7996216,0.5975952,0.65625,-1.765625,1.328125
1695744380995,-0.050048828,-0.803772,0.6090698,1.828125,-2.25,0.921875
1695744381013,-0.05517578,-0.8115845,0.6051636,-0.0625,-1.203125,0.984375
1695744381053,-0.07788086,-0.7996216,0.607605,-0.265625,-1.359375,1.03125
1695744381093,-0.06762695,-0.79351807,0.605896,-0.1875,-2.1875,0.984375
1695744381135,-0.06982422,-0.80792236,0.62615967,2.4375,-1.203125,1.359375
1695744381173,-0.06713867,-0.79888916,0.6107788,0.09375,-1.015625,1.5625
1695744381213,-0.06225586,-0.80255127,0.5997925,0.46875,-0.140625,1.0625
1695744381253,-0.06298828,-0.79107666,0.607605,0.390625,-0.4375,1.34375
1695744381295,-0.04663086,-0.7984009,0.60198975,0.078125,-1.828125,1.109375
1695744381374,-0.057861328,-0.80181885,0.607605,-0.4375,-1.796875,0.796875
1695744381376,-0.07763672,-0.79400635,0.60150146,-0.671875,-1.03125,0.390625
1695744381413,-0.072509766,-0.8057251,0.6090698,-0.578125,-0.28125,0.015625
1695744381453,-0.057128906,-0.8052368,0.6063843,-1.5,0.890625,0.359375
1695744381534,-0.056152344,-0.7815552,0.6029663,-1.046875,0.25,0.046875
1695744381536,-0.05493164,-0.8040161,0.61346436,0.25,-0.953125,-0.59375
1695744381614,-0.057617188,-0.80718994,0.61053467,-1.546875,-0.140625,-1.0
1695744381616,-0.05810547,-0.78790283,0.5961304,-4.078125,-0.734375,-1.203125
1695744381633,-0.06640625,-0.8010864,0.61395264,-1.984375,-0.1875,-1.046875
1695744381674,-0.06713867,-0.78619385,0.6063843,-2.75,-1.75,-0.25
1695744381713,-0.052978516,-0.79522705,0.6273804,-1.5,-2.015625,-0.78125
1695744381753,-0.06616211,-0.7888794,0.6305542,-2.140625,-0.9375,-0.5625
1695744381793,-0.06958008,-0.7810669,0.6264038,-2.265625,-1.5,-0.609375
1695744381833,-0.076171875,-0.7810669,0.6347046,-0.25,-1.828125,-0.046875
1695744381893,-0.067871094,-0.78131104,0.63031006,-1.5,-2.15625,0.515625
1695744381913,-0.072021484,-0.7764282,0.6256714,0.0,-1.234375,0.015625
1695744381953,-0.05883789,-0.78204346,0.6190796,-0.96875,-2.046875,0.453125
1695744382013,-0.068115234,-0.7732544,0.6403198,-0.03125,-1.671875,0.515625
1695744382034,-0.083496094,-0.7764282,0.63812256,0.40625,-2.140625,0.65625
1695744382073,-0.076660156,-0.7769165,0.63201904,0.484375,-1.84375,0.09375
1695744382113,-0.07861328,-0.7810669,0.6334839,1.75,-0.578125,1.0625
1695744382153,-0.07470703,-0.77178955,0.62786865,0.375,-1.828125,1.296875
1695744382193,-0.07080078,-0.7805786,0.6161499,1.15625,-1.78125,0.65625
1695744382253,-0.09375,-0.786438,0.6334839,0.640625,-1.078125,1.375
1695744382273,-0.09350586,-0.77008057,0.6305542,-0.09375,-0.875,1.015625
1695744382314,-0.088378906,-0.7715454,0.6351929,0.6875,-1.0,0.453125
1695744382353,-0.08642578,-0.78985596,0.64276123,0.484375,0.390625,0.46875
1695744382394,-0.07470703,-0.7788696,0.6408081,0.5625,-0.53125,0.5
1695744382433,-0.068847656,-0.77911377,0.6430054,1.921875,1.109375,0.140625
1695744382493,-0.07885742,-0.7781372,0.6298218,0.171875,0.9375,-0.34375
1695744382534,-0.08496094,-0.77349854,0.62127686,1.59375,0.4375,-0.546875
1695744382555,-0.06762695,-0.77593994,0.62323,1.640625,-0.625,-1.1875
1695744382613,-0.080078125,-0.7937622,0.64764404,2.046875,1.03125,-1.078125
1695744382633,-0.083984375,-0.79278564,0.62786865,-1.421875,1.0625,-0.640625
1695744382673,-0.08105469,-0.77349854,0.6210327,-0.234375,0.546875,-0.953125
1695744382713,-0.079589844,-0.77911377,0.6268921,1.890625,0.90625,-0.125
1695744382755,-0.07495117,-0.78326416,0.6251831,0.859375,0.84375,-0.421875
1695744382793,-0.06542969,-0.7876587,0.6195679,-0.578125,-0.328125,-0.53125
1695744382833,-0.078125,-0.7901001,0.62786865,0.921875,-0.484375,0.234375
1695744382873,-0.06274414,-0.7852173,0.6141968,0.203125,-0.21875,-0.21875
1695744382913,-0.068115234,-0.7942505,0.6334839,2.5625,-0.40625,0.53125
1695744382973,-0.06762695,-0.7810669,0.6286011,1.640625,-0.296875,0.890625
1695744382993,-0.064697266,-0.78131104,0.6132202,0.703125,-0.296875,1.234375
1695744383033,-0.07006836,-0.7962036,0.6286011,2.9375,0.28125,0.953125
1695744383074,-0.07421875,-0.78009033,0.6051636,-0.328125,-1.390625,0.421875
1695744383115,-0.06518555,-0.78790283,0.60809326,2.65625,-1.84375,0.1875
1695744383174,-0.0625,-0.80255127,0.6161499,0.140625,-0.078125,0.109375
1695744383193,-0.075683594,-0.7937622,0.6102905,0.390625,-0.28125,0.109375
1695744383233,-0.06567383,-0.7920532,0.6117554,0.5,-0.640625,-0.21875
1695744383273,-0.068603516,-0.79278564,0.61639404,0.953125,0.390625,-0.0625
1695744383333,-0.07446289,-0.7918091,0.6185913,0.921875,1.03125,-0.1875
1695744383353,-0.0715332,-0.79644775,0.62005615,2.0,0.078125,-0.765625
1695744383393,-0.07495117,-0.79156494,0.6220093,2.125,0.65625,-0.453125
1695744383433,-0.06274414,-0.8074341,0.6161499,2.578125,0.28125,-0.859375
1695744383474,-0.061767578,-0.7866821,0.60150146,1.53125,0.984375,-0.3125
1695744383513,-0.06616211,-0.79156494,0.61395264,3.75,-0.46875,-0.796875
1695744383553,-0.07055664,-0.8115845,0.6012573,1.625,-0.640625,-0.671875
1695744383593,-0.07836914,-0.8057251,0.59588623,1.21875,-1.125,-0.34375
1695744383634,-0.08569336,-0.80963135,0.602478,0.859375,-1.640625,-0.328125
1695744383693,-0.0859375,-0.81378174,0.6012573,0.734375,-1.625,-0.0625
1695744383733,-0.08081055,-0.7937622,0.6144409,1.78125,-0.390625,-0.328125
1695744383753,-0.07446289,-0.81036377,0.5836792,-1.375,-0.390625,0.5625
1695744383814,-0.080322266,-0.7959595,0.60443115,1.78125,-1.828125,0.78125
1695744383834,-0.0690918,-0.8123169,0.6005249,1.515625,-1.234375,0.265625
1695744383873,-0.08154297,-0.79815674,0.59002686,-0.546875,0.265625,0.453125
1695744383913,-0.08325195,-0.7984009,0.6000366,-0.21875,-0.875,0.296875
1695744383953,-0.07885742,-0.8135376,0.5961304,0.21875,-1.984375,0.15625
1695744383996,-0.07763672,-0.8045044,0.60491943,0.28125,-1.125,0.0
1695744384074,-0.078125,-0.79571533,0.6005249,0.796875,-1.96875,-0.09375
1695744384077,-0.08642578,-0.79693604,0.5895386,-0.875,0.078125,0.15625
1695744384113,-0.083496094,-0.7998657,0.6034546,1.984375,-1.09375,-0.421875
1695744384153,-0.07861328,-0.81085205,0.59417725,0.5,-1.203125,-0.421875
1695744384195,-0.08666992,-0.81207275,0.6010132,0.8125,-0.5,-0.078125
1695744384233,-0.08227539,-0.80255127,0.5944214,0.09375,-0.328125,-0.171875
1695744384274,-0.087646484,-0.7996216,0.590271,0.15625,-0.109375,-0.03125
1695744384333,-0.08520508,-0.79473877,0.590271,-0.125,-0.8125,0.171875
1695744384353,-0.08081055,-0.8057251,0.6078491,0.8125,-1.109375,0.109375
1695744384413,-0.08251953,-0.802063,0.5968628,-2.0,-1.296875,0.21875
1695744384433,-0.08544922,-0.8179321,0.6005249,0.109375,0.328125,0.71875
1695744384473,-0.088134766,-0.7908325,0.59295654,-0.421875,-1.515625,1.4375
1695744384513,-0.08129883,-0.7971802,0.5985718,0.140625,-1.96875,1.40625
1695744384554,-0.080078125,-0.80059814,0.60028076,-1.3125,-0.921875,1.53125
1695744384593,-0.08642578,-0.7996216,0.6102905,0.140625,-1.21875,1.328125
1695744384674,-0.0715332,-0.8049927,0.61346436,-1.75,-1.296875,1.765625
1695744384677,-0.076416016,-0.77838135,0.607605,-0.15625,-1.53125,1.15625
1695744384693,-0.08154297,-0.8076782,0.61639404,0.46875,-2.171875,1.25
1695744384733,-0.078125,-0.7949829,0.6095581,-0.28125,-1.8125,1.578125
1695744384773,-0.0847168,-0.78985596,0.6173706,2.125,-1.65625,1.578125
1695744384813,-0.08203125,-0.8069458,0.6124878,1.765625,-1.78125,1.828125
1695744384853,-0.080566406,-0.79400635,0.6088257,1.65625,-2.0625,1.796875
1695744384893,-0.08129883,-0.80596924,0.60443115,0.90625,-1.9375,1.5625
1695744384953,-0.072753906,-0.79644775,0.5890503,-0.4375,-1.84375,1.5625
1695744384973,-0.07714844,-0.80352783,0.6088257,0.6875,-1.53125,1.28125
1695744385013,-0.07006836,-0.79888916,0.59783936,-1.546875,-1.859375,1.9375
1695744385053,-0.068603516,-0.7971802,0.6124878,0.0625,-1.890625,1.578125
1695744385113,-0.07543945,-0.78912354,0.6149292,-0.859375,-1.15625,1.296875
1695744385133,-0.075927734,-0.79351807,0.5944214,-2.71875,-2.09375,1.921875
1695744385173,-0.07519531,-0.7876587,0.61053467,0.3125,-2.046875,2.09375
1695744385213,-0.06982422,-0.79815674,0.6195679,1.09375,-1.53125,1.703125
1695744385253,-0.07861328,-0.79766846,0.6220093,2.203125,-0.828125,1.96875
1695744385313,-0.068359375,-0.800354,0.6178589,2.078125,-1.375,1.40625
1695744385353,-0.067871094,-0.7932739,0.58880615,1.015625,-0.8125,1.453125
1695744385373,-0.07324219,-0.80596924,0.607605,2.765625,-1.234375,0.953125
1695744385413,-0.06323242,-0.8064575,0.60198975,0.046875,-1.15625,1.015625
1695744385455,-0.06616211,-0.7996216,0.60931396,0.171875,-0.796875,0.546875
1695744385494,-0.07299805,-0.8093872,0.60980225,-0.34375,-0.78125,0.359375
1695744385533,-0.068115234,-0.79693604,0.5988159,-1.359375,-0.578125,0.140625
1695744385573,-0.068359375,-0.80133057,0.6029663,-0.765625,0.15625,0.359375
1695744385613,-0.07055664,-0.7913208,0.6083374,-0.359375,-0.140625,0.4375
1695744385674,-0.056884766,-0.79156494,0.60980225,-0.015625,0.328125,0.328125
1695744385693,-0.07446289,-0.80181885,0.61590576,1.734375,-0.15625,0.203125
1695744385733,-0.068115234,-0.81134033,0.61761475,1.328125,0.1875,-0.09375
1695744385773,-0.06201172,-0.78497314,0.60565186,0.25,0.609375,-0.515625
1695744385813,-0.061523438,-0.80963135,0.6000366,0.140625,0.765625,-0.4375
1695744385853,-0.06933594,-0.7949829,0.6022339,1.015625,-0.484375,-0.4375
1695744385897,-0.052734375,-0.8045044,0.60369873,1.234375,0.21875,-0.875
1695744385933,-0.06518555,-0.8076782,0.5963745,-0.40625,1.046875,-0.609375
1695744385974,-0.05493164,-0.7854614,0.59954834,-0.546875,0.578125,-0.59375
1695744386033,-0.061279297,-0.7942505,0.6034546,-0.203125,0.203125,-1.046875
1695744386053,-0.06713867,-0.80548096,0.61102295,0.46875,0.03125,-0.796875
1695744386093,-0.064941406,-0.7996216,0.607605,-1.453125,0.625,-0.65625
1695744386133,-0.063964844,-0.7913208,0.62176514,0.359375,0.71875,-0.765625
1695744386193,-0.06738281,-0.80010986,0.61273193,1.65625,0.28125,-0.40625
1695744386233,-0.060546875,-0.8040161,0.6095581,2.359375,0.34375,-0.453125
1695744386253,-0.05908203,-0.8015747,0.59954834,1.328125,0.1875,-0.3125
1695744386295,-0.06567383,-0.79693604,0.60150146,2.265625,0.078125,-0.390625
1695744386333,-0.064453125,-0.8110962,0.60150146,0.859375,0.109375,-0.59375
1695744386374,-0.060546875,-0.80181885,0.5951538,-0.203125,-0.4375,-0.078125
1695744386413,-0.060791016,-0.80303955,0.6066284,1.0625,-0.484375,-0.34375
1695744386454,-0.07421875,-0.7896118,0.60198975,-0.59375,-0.734375,-0.296875
1695744386493,-0.06298828,-0.802063,0.5836792,-2.0,-0.734375,-0.15625
1695744386534,-0.083496094,-0.7908325,0.6046753,1.53125,-1.421875,0.359375
1695744386573,-0.06933594,-0.8140259,0.60565186,1.0625,-1.453125,-0.125
1695744386633,-0.06933594,-0.8057251,0.6066284,0.0625,0.34375,0.5
1695744386653,-0.079589844,-0.79351807,0.6132202,1.3125,-0.359375,0.15625
1695744386693,-0.07299805,-0.800354,0.6010132,1.671875,-1.03125,0.328125
1695744386754,-0.07788086,-0.8101196,0.6129761,2.734375,-0.171875,0.59375
1695744386773,-0.07373047,-0.7979126,0.59490967,1.0,-0.25,0.0
1695744386813,-0.07788086,-0.8110962,0.6066284,2.5625,-0.140625,-0.28125
1695744386854,-0.07104492,-0.80963135,0.586853,1.125,-0.09375,-0.3125
1695744386893,-0.0715332,-0.81085205,0.5897827,1.328125,0.234375,-0.265625
1695744386933,-0.07373047,-0.81256104,0.59490967,0.4375,0.0,-0.609375
1695744386973,-0.075927734,-0.8140259,0.59295654,-0.40625,0.109375,-0.75
1695744387013,-0.07470703,-0.798645,0.5807495,-0.984375,-0.09375,-0.578125
1695744387055,-0.08251953,-0.80010986,0.5883179,0.609375,-0.375,-0.5625
1695744387113,-0.080566406,-0.8101196,0.60076904,0.15625,-0.390625,-0.671875
1695744387133,-0.07421875,-0.8064575,0.6029663,1.90625,1.265625,-0.828125
1695744387173,-0.08618164,-0.8093872,0.5883179,0.0625,-1.015625,-0.4375
1695744387213,-0.07421875,-0.81866455,0.602478,2.046875,-1.390625,-0.03125
1695744387253,-0.07006836,-0.8110962,0.59783936,0.9375,0.78125,0.109375
1695744387293,-0.08105469,-0.80474854,0.5790405,-0.03125,0.09375,-0.1875
1695744387333,-0.076416016,-0.8167114,0.59173584,0.0,-1.25,-0.390625
1695744387373,-0.06933594,-0.7962036,0.5861206,-1.203125,-1.203125,-0.375
1695744387413,-0.0769043,-0.81744385,0.5951538,-0.28125,-1.234375,0.5625
1695744387473,-0.08105469,-0.80059814,0.5897827,-2.015625,-0.9375,0.171875
1695744387496,-0.075683594,-0.80010986,0.60272217,-1.46875,-0.53125,0.5625
1695744387553,-0.07910156,-0.80059814,0.6017456,-1.859375,-1.578125,0.6875
1695744387573,-0.07519531,-0.7996216,0.60198975,-1.09375,-1.609375,0.71875
1695744387613,-0.08520508,-0.7984009,0.6137085,-1.203125,-1.046875,0.96875
1695744387653,-0.08251953,-0.7888794,0.60858154,0.0625,-0.34375,0.90625
1695744387778,-0.08154297,-0.7971802,0.6166382,1.1875,-0.96875,0.984375
1695744387782,-0.07446289,-0.8049927,0.6141968,0.9375,-0.671875,0.578125
1695744387784,-0.07446289,-0.784729,0.5963745,-0.34375,-0.171875,1.015625
1695744387794,-0.08154297,-0.80181885,0.6022339,0.078125,1.234375,0.75
1695744387833,-0.080322266,-0.7871704,0.60809326,-1.265625,-1.140625,0.359375
1695744387873,-0.0625,-0.8008423,0.6137085,-0.640625,-1.65625,0.296875
1695744387913,-0.07446289,-0.79815674,0.6102905,-2.234375,0.34375,0.671875
1695744387953,-0.07543945,-0.7925415,0.62127686,-1.3125,0.03125,0.203125
1695744388013,-0.07495117,-0.78497314,0.618103,-1.71875,-0.59375,0.34375
1695744388074,-0.07763672,-0.79034424,0.6256714,1.046875,0.71875,0.515625
1695744388078,-0.06738281,-0.78692627,0.6156616,-0.703125,1.578125,0.828125
1695744388133,-0.067871094,-0.7793579,0.62298584,1.4375,0.515625,0.953125
1695744388154,-0.064453125,-0.7896118,0.6117554,1.1875,0.171875,0.703125
1695744388193,-0.06713867,-0.7974243,0.6173706,1.765625,1.3125,0.828125
1695744388233,-0.06201172,-0.79351807,0.607605,-0.0625,0.5,0.640625
1695744388273,-0.06640625,-0.7876587,0.6100464,0.375,-0.015625,0.375
1695744388313,-0.064697266,-0.7979126,0.61639404,-0.078125,0.109375,0.421875
1695744388375,-0.056884766,-0.786438,0.61273193,0.640625,0.015625,0.125
1695744388393,-0.055908203,-0.7876587,0.61346436,-0.8125,-0.125,0.4375
1695744388433,-0.059814453,-0.8015747,0.6210327,1.15625,0.40625,-0.0625
1695744388473,-0.06298828,-0.78985596,0.6156616,-1.046875,-0.6875,0.125
1695744388514,-0.05859375,-0.79034424,0.6251831,2.375,-0.796875,0.53125
1695744388553,-0.061279297,-0.7962036,0.618103,-0.265625,0.609375,0.421875
1695744388593,-0.0625,-0.79522705,0.60858154,1.515625,0.34375,0.28125
1695744388633,-0.05810547,-0.79156494,0.6124878,0.3125,0.046875,0.171875
1695744388673,-0.052490234,-0.79351807,0.6117554,0.421875,0.640625,0.046875
1695744388733,-0.048339844,-0.79473877,0.60076904,-1.0625,0.046875,0.3125
1695744388753,-0.05810547,-0.78863525,0.6119995,0.75,-0.625,0.15625
1695744388793,-0.0546875,-0.8010864,0.6288452,0.75,-0.03125,-0.078125
1695744388833,-0.053466797,-0.80426025,0.6132202,0.171875,0.046875,0.03125
1695744388874,-0.056884766,-0.7876587,0.61102295,0.75,-0.078125,0.203125
1695744388913,-0.057861328,-0.79522705,0.61346436,0.640625,-0.84375,-0.03125
1695744388953,-0.061279297,-0.78912354,0.6137085,0.265625,0.109375,0.140625
1695744388993,-0.060791016,-0.7871704,0.60858154,0.515625,-0.234375,-0.03125
1695744389033,-0.056884766,-0.79815674,0.61151123,-0.328125,-1.21875,-0.078125
1695744389093,-0.048095703,-0.8128052,0.61053467,0.4375,-0.078125,-0.21875
1695744389113,-0.052246094,-0.78204346,0.61151123,-0.171875,-1.078125,0.234375
1695744389194,-0.05517578,-0.7913208,0.6178589,1.390625,-1.40625,-0.03125
1695744389197,-0.055664062,-0.7959595,0.60980225,-1.09375,-0.390625,-0.234375
1695744389240,-0.05908203,-0.78570557,0.619812,0.859375,0.0625,-0.09375
1695744389273,-0.06225586,-0.7949829,0.6117554,-0.109375,-0.96875,0.109375
1695744389313,-0.052734375,-0.7896118,0.62371826,1.21875,-0.21875,-0.5
1695744389353,-0.049560547,-0.80181885,0.60369873,-1.34375,-0.203125,-0.109375
1695744389393,-0.057617188,-0.7774048,0.61395264,0.828125,-0.46875,-0.296875
1695744389453,-0.061523438,-0.7979126,0.6227417,0.546875,-1.34375,-0.28125
1695744389473,-0.057861328,-0.79473877,0.61590576,0.296875,-0.421875,-0.0625
1695744389513,-0.06225586,-0.7893677,0.6132202,0.75,-0.015625,0.203125
1695744389553,-0.05908203,-0.7893677,0.6137085,1.390625,-1.125,-0.078125
1695744389594,-0.060791016,-0.7920532,0.6173706,0.921875,-1.28125,0.109375
1695744389634,-0.059326172,-0.79644775,0.62127686,1.578125,-0.359375,0.109375
1695744389673,-0.06958008,-0.7805786,0.6046753,-0.9375,-0.953125,0.140625
1695744389713,-0.06933594,-0.8032837,0.60980225,-0.59375,-0.65625,-0.0625
1695744389774,-0.06567383,-0.7913208,0.6298218,1.28125,-1.609375,0.265625
1695744389813,-0.053466797,-0.79571533,0.62908936,1.765625,-0.859375,0.453125
1695744389834,-0.067871094,-0.79229736,0.6100464,-0.046875,0.640625,0.28125
1695744389874,-0.059326172,-0.7932739,0.60565186,0.625,0.203125,-0.125
1695744389913,-0.06225586,-0.79473877,0.602478,0.265625,0.328125,-0.25
1695744389955,-0.05908203,-0.79473877,0.6132202,2.21875,1.4375,-0.453125
1695744389993,-0.064453125,-0.8064575,0.61590576,2.171875,2.953125,0.15625
1695744390033,-0.057861328,-0.79644775,0.6119995,2.28125,0.90625,0.03125
1695744390073,-0.057617188,-0.7966919,0.6017456,1.421875,1.109375,0.21875
1695744390113,-0.04736328,-0.7971802,0.59783936,0.734375,1.0625,0.25
1695744390173,-0.056884766,-0.79815674,0.602478,1.734375,0.53125,0.21875
1695744390193,-0.053222656,-0.8015747,0.60809326,0.53125,-0.28125,-0.078125
1695744390234,-0.05053711,-0.79473877,0.6005249,0.203125,0.234375,0.453125
1695744390273,-0.053222656,-0.81500244,0.61395264,1.890625,-0.21875,0.265625
1695744390315,-0.05419922,-0.78790283,0.59783936,-1.609375,-0.75,0.03125
1695744390353,-0.052490234,-0.8167114,0.59710693,-0.296875,0.0,0.375
1695744390397,-0.052978516,-0.7942505,0.59368896,0.578125,-1.28125,0.390625
1695744390434,-0.049804688,-0.8062134,0.6066284,2.859375,-0.578125,0.234375
1695744390473,-0.05102539,-0.80352783,0.60198975,-0.09375,0.078125,0.421875
1695744390534,-0.046875,-0.7996216,0.6046753,1.328125,-0.90625,0.484375
1695744390553,-0.056640625,-0.8045044,0.59710693,0.34375,-1.53125,0.359375
1695744390593,-0.052490234,-0.7949829,0.60076904,1.921875,-0.84375,0.265625
1695744390633,-0.052734375,-0.80963135,0.5961304,-1.328125,-1.53125,0.46875
1695744390675,-0.05126953,-0.800354,0.5997925,-0.390625,-1.53125,0.609375
1695744390713,-0.04638672,-0.80718994,0.6119995,0.71875,-1.203125,0.640625
1695744390753,-0.049072266,-0.80181885,0.602478,-0.5625,-2.0625,0.34375
1695744390835,-0.053466797,-0.80596924,0.60076904,0.25,-2.625,0.203125
1695744390838,-0.05493164,-0.79815674,0.607605,0.0625,-1.828125,0.078125
1695744390853,-0.059570312,-0.7984009,0.6017456,-0.71875,-1.703125,0.015625
1695744390893,-0.059814453,-0.8023071,0.6046753,0.546875,-2.6875,-0.078125
1695744390933,-0.057861328,-0.8123169,0.6054077,-0.265625,-1.53125,0.125
1695744390973,-0.055419922,-0.7842407,0.61883545,2.34375,-0.71875,-0.078125
1695744391035,-0.05908203,-0.7954712,0.58099365,-3.09375,-2.5,-0.15625
1695744391073,-0.064208984,-0.79766846,0.6100464,1.28125,-2.484375,0.109375
1695744391093,-0.05834961,-0.8052368,0.60687256,-1.359375,-2.109375,0.140625
1695744391133,-0.06567383,-0.7908325,0.60980225,-0.09375,-1.375,0.203125
1695744391173,-0.06665039,-0.8008423,0.61590576,0.40625,-2.453125,0.40625
1695744391215,-0.05883789,-0.80133057,0.6095581,-0.46875,-2.125,0.5
1695744391253,-0.060058594,-0.79766846,0.61053467,-0.296875,-1.5625,0.359375
1695744391294,-0.06665039,-0.7954712,0.6083374,-0.78125,-1.953125,0.53125
1695744391333,-0.063964844,-0.7954712,0.602478,-1.5,-2.609375,0.421875
1695744391373,-0.07373047,-0.7930298,0.61273193,-0.359375,-2.546875,0.71875
1695744391434,-0.06542969,-0.7998657,0.61395264,0.296875,-1.59375,0.375
1695744391453,-0.07421875,-0.78912354,0.60858154,-0.578125,-1.3125,0.5625
1695744391493,-0.083740234,-0.7954712,0.61102295,0.0,-1.5625,0.203125
1695744391535,-0.072021484,-0.79693604,0.6107788,1.0,-1.484375,0.125
1695744391573,-0.0769043,-0.7979126,0.6095581,0.015625,-0.9375,0.15625
1695744391613,-0.07788086,-0.788147,0.6046753,-0.640625,-0.984375,-0.046875
1695744391653,-0.0715332,-0.7954712,0.6063843,-0.328125,-0.671875,0.484375
1695744391693,-0.07080078,-0.7959595,0.6222534,0.453125,0.0,0.21875
1695744391754,-0.07763672,-0.78009033,0.6022339,-2.34375,-1.3125,0.15625
1695744391793,-0.08227539,-0.7979126,0.6251831,1.9375,-1.90625,0.15625
1695744391814,-0.076660156,-0.79937744,0.619812,-0.46875,-0.484375,0.125
1695744391854,-0.078125,-0.79766846,0.6154175,-0.09375,0.015625,-0.09375
1695744391893,-0.072265625,-0.7932739,0.6095581,-2.03125,-0.625,-0.0625
1695744391937,-0.07836914,-0.7835083,0.605896,-1.796875,-0.234375,0.234375
1695744391973,-0.072021484,-0.77838135,0.61517334,-1.859375,0.046875,0.109375
1695744392014,-0.084228516,-0.77960205,0.63031006,-0.8125,-0.765625,0.453125
1695744392053,-0.07348633,-0.78497314,0.6395874,0.515625,-0.828125,0.640625
1695744392093,-0.080566406,-0.78375244,0.6305542,0.65625,-0.71875,0.671875
1695744392194,-0.079833984,-0.78985596,0.6207886,0.984375,-0.125,0.734375
1695744392197,-0.080078125,-0.77960205,0.61224365,-0.59375,0.375,0.828125
1695744392213,-0.07836914,-0.7793579,0.6264038,1.15625,0.59375,0.921875
1695744392255,-0.06958008,-0.78790283,0.6259155,0.59375,0.0,0.921875
1695744392298,-0.06640625,-0.7876587,0.6305542,1.328125,0.484375,0.859375
1695744392333,-0.07006836,-0.7996216,0.6154175,0.109375,-0.84375,1.40625
1695744392373,-0.055908203,-0.78375244,0.6239624,-0.484375,0.015625,0.8125
1695744392413,-0.072753906,-0.77716064,0.6273804,-0.109375,0.15625,-0.046875
1695744392453,-0.07080078,-0.7959595,0.6300659,-2.359375,0.5,0.5
1695744392515,-0.07006836,-0.7798462,0.62493896,-1.0,-0.328125,0.859375
1695744392533,-0.06640625,-0.7854614,0.6408081,-0.125,-0.734375,1.140625
1695744392573,-0.0690918,-0.7798462,0.6210327,-3.5,-1.1875,1.03125
1695744392613,-0.064941406,-0.7749634,0.64105225,0.171875,-0.4375,-0.09375
1695744392653,-0.049316406,-0.78131104,0.63568115,-0.28125,-0.40625,-0.1875
1695744392693,-0.060058594,-0.77423096,0.65545654,2.890625,1.0625,0.953125
1695744392733,-0.038085938,-0.7788696,0.6322632,0.390625,-0.5625,1.796875
1695744392773,-0.01928711,-0.7703247,0.62298584,1.5,-2.46875,2.8125
1695744392813,-0.061279297,-0.770813,0.65252686,4.421875,-3.359375,2.9375
1695744392873,-0.08520508,-0.78253174,0.6342163,2.640625,-2.84375,1.640625
1695744392893,-0.092285156,-0.7805786,0.6259155,-0.46875,-1.09375,1.34375
1695744392933,-0.075683594,-0.78692627,0.6244507,-2.1875,-0.625,1.75
1695744392973,-0.046875,-0.7630005,0.6322632,-3.515625,-0.75,1.203125
1695744393054,-0.03857422,-0.7788696,0.633728,-1.375,-0.375,0.53125
1695744393057,-0.044433594,-0.77056885,0.6400757,-0.859375,0.65625,0.421875
1695744393093,-0.064453125,-0.77667236,0.6552124,1.9375,0.296875,0.53125
1695744393133,-0.053955078,-0.7764282,0.6613159,1.671875,-0.109375,-0.03125
1695744393173,-0.055908203,-0.78741455,0.6444702,0.234375,-0.1875,0.984375
1695744393233,-0.049072266,-0.7788696,0.6364136,0.921875,-1.28125,1.1875
1695744393254,-0.041503906,-0.7715454,0.62542725,1.609375,-0.484375,1.21875
1695744393293,-0.045898438,-0.77349854,0.62542725,0.875,-0.1875,1.40625
1695744393333,-0.05517578,-0.7817993,0.637146,2.265625,-1.15625,1.140625
1695744393373,-0.045898438,-0.78448486,0.6310425,-0.71875,-1.8125,0.859375
1695744393413,-0.04248047,-0.7810669,0.63861084,0.90625,-0.40625,1.078125
1695744393453,-0.047607422,-0.77056885,0.6378784,-0.359375,-0.671875,0.78125
1695744393513,-0.048828125,-0.7715454,0.637146,0.625,-1.359375,0.234375
1695744393533,-0.059570312,-0.7815552,0.6251831,0.296875,-1.296875,-0.09375
1695744393593,-0.057373047,-0.78082275,0.6256714,1.28125,-0.4375,0.21875
1695744393614,-0.05444336,-0.78131104,0.6322632,0.375,-0.203125,-0.3125
1695744393653,-0.053222656,-0.7805786,0.6359253,1.21875,0.296875,-0.640625
1695744393693,-0.053222656,-0.798645,0.63031006,1.421875,0.046875,-0.59375
1695744393735,-0.05102539,-0.7761841,0.619812,-0.234375,-0.890625,-1.515625
1695744393775,-0.045410156,-0.77789307,0.6264038,0.46875,0.9375,-1.671875
1695744393814,-0.042236328,-0.7822876,0.6322632,0.484375,0.890625,-1.734375
1695744393895,-0.050048828,-0.7815552,0.6273804,-0.03125,-0.734375,-1.015625
1695744393897,-0.053222656,-0.7805786,0.61932373,0.328125,-2.84375,-0.6875
1695744393956,-0.049560547,-0.7893677,0.63275146,1.234375,-2.203125,-0.703125
1695744393959,-0.05859375,-0.7888794,0.6322632,0.09375,-2.203125,-0.734375
1695744393993,-0.05126953,-0.78570557,0.6149292,-2.0,-1.828125,0.671875
1695744394033,-0.0625,-0.7625122,0.6195679,0.109375,-2.546875,0.375
1695744394095,-0.068847656,-0.7805786,0.635437,0.8125,-2.5,1.125
1695744394133,-0.0703125,-0.78253174,0.63397217,0.265625,-2.125,1.15625
1695744394195,-0.075683594,-0.78912354,0.6442261,1.90625,-2.59375,1.3125
1695744394198,-0.05883789,-0.7893677,0.62176514,0.953125,-2.0,1.625
1695744394236,-0.056152344,-0.7756958,0.61273193,-0.03125,-2.1875,2.375
1695744394277,-0.064697266,-0.7798462,0.63446045,3.09375,-1.984375,1.71875
1695744394313,-0.061767578,-0.7925415,0.63201904,1.171875,-2.203125,0.703125
1695744394355,-0.067871094,-0.79156494,0.64276123,3.140625,-0.734375,1.953125
1695744394393,-0.080566406,-0.7749634,0.621521,2.296875,-0.46875,1.34375
1695744394436,-0.07055664,-0.7737427,0.6234741,2.4375,-0.140625,0.390625
1695744394495,-0.05493164,-0.802063,0.62323,1.734375,-0.5,1.234375
1695744394513,-0.04736328,-0.80010986,0.62420654,2.0625,1.25,0.5625
1695744394553,-0.049316406,-0.78692627,0.6066284,-1.8125,-1.828125,1.484375
1695744394594,-0.045410156,-0.7805786,0.61590576,1.15625,-2.78125,0.734375
1695744394633,-0.052246094,-0.80133057,0.6268921,1.03125,-1.25,0.515625
1695744394673,-0.064697266,-0.786438,0.6102905,-0.953125,-1.84375,0.671875
1695744394713,-0.07128906,-0.79571533,0.62957764,1.703125,-0.765625,-0.046875
1695744394753,-0.06201172,-0.7966919,0.62054443,0.546875,-0.03125,0.109375
1695744394793,-0.060302734,-0.7925415,0.62176514,0.5625,0.625,0.75
1695744394853,-0.07519531,-0.78253174,0.6017456,-0.578125,-0.90625,0.078125
1695744394873,-0.052490234,-0.7817993,0.62323,2.625,1.921875,-1.53125
1695744394913,-0.05419922,-0.798645,0.607605,-0.65625,0.59375,0.15625
1695744394953,-0.057128906,-0.7805786,0.6156616,0.453125,1.21875,-0.546875
1695744394994,-0.064697266,-0.788147,0.6268921,1.21875,0.890625,-1.484375
1695744395033,-0.05419922,-0.79888916,0.62054443,1.265625,1.1875,-0.828125
1695744395074,-0.05029297,-0.7918091,0.6039429,0.15625,1.015625,-0.5625
1695744395118,-0.052246094,-0.7908325,0.60687256,0.8125,-0.140625,-0.359375
1695744395153,-0.049072266,-0.7930298,0.605896,-0.296875,-0.828125,-0.9375
1695744395213,-0.044921875,-0.77911377,0.61224365,-0.546875,-0.4375,-0.75
1695744395253,-0.060791016,-0.80718994,0.62323,0.40625,-0.421875,-0.03125
1695744395273,-0.0625,-0.7920532,0.6190796,1.09375,-1.953125,0.0
1695744395314,-0.06201172,-0.80255127,0.619812,2.671875,-1.84375,0.0
1695744395354,-0.06542969,-0.7979126,0.61273193,0.953125,-0.375,-0.140625
1695744395397,-0.06665039,-0.7932739,0.60687256,0.875,-1.21875,-0.046875
1695744395433,-0.061767578,-0.7962036,0.60321045,0.734375,-0.796875,-0.09375
1695744395473,-0.06542969,-0.8049927,0.6154175,1.390625,-1.0,-0.015625
1695744395513,-0.0715332,-0.79107666,0.6017456,-0.75,-1.296875,0.171875
1695744395594,-0.07055664,-0.79351807,0.6119995,0.515625,-0.609375,-0.078125
1695744395597,-0.07446289,-0.8074341,0.61151123,0.84375,-1.3125,0.265625
1695744395633,-0.064941406,-0.79644775,0.6083374,0.625,-0.09375,-0.1875
1695744395673,-0.06762695,-0.80010986,0.6141968,0.84375,0.15625,0.46875
1695744395714,-0.05908203,-0.79473877,0.6107788,0.6875,0.453125,0.15625
1695744395753,-0.060302734,-0.80133057,0.61834717,2.125,0.421875,0.59375
1695744395794,-0.06738281,-0.8015747,0.5997925,0.484375,0.171875,0.25
1695744395837,-0.0715332,-0.79229736,0.59906006,0.234375,-0.28125,-0.21875
1695744395873,-0.061035156,-0.803772,0.61224365,1.859375,0.21875,-0.40625
1695744395933,-0.056884766,-0.7984009,0.6322632,1.546875,1.171875,-0.09375
1695744395953,-0.052734375,-0.8008423,0.58636475,-1.75,-0.171875,-0.015625
1695744395993,-0.05834961,-0.8032837,0.6083374,1.984375,-0.9375,0.28125
1695744396033,-0.05883789,-0.8074341,0.60272217,0.34375,-0.40625,0.109375
1695744396074,-0.07080078,-0.7852173,0.5939331,-0.875,-0.140625,0.03125
1695744396114,-0.068359375,-0.7937622,0.6000366,0.390625,0.3125,-0.09375
1695744396153,-0.061767578,-0.7959595,0.6137085,2.9375,1.515625,0.5
1695744396193,-0.053955078,-0.800354,0.60565186,1.109375,0.0625,0.640625
1695744396233,-0.05834961,-0.8023071,0.6051636,2.703125,0.828125,0.28125
1695744396293,-0.05078125,-0.8086548,0.6088257,1.859375,0.671875,0.765625
1695744396313,-0.050048828,-0.8027954,0.5968628,2.046875,1.28125,0.375
1695744396353,-0.05517578,-0.8023071,0.59417725,1.75,1.359375,0.40625
1695744396395,-0.05493164,-0.80548096,0.59906006,1.484375,2.390625,0.453125
1695744396433,-0.041992188,-0.8088989,0.59051514,1.453125,1.21875,0.28125
1695744396493,-0.037841797,-0.8081665,0.59051514,3.203125,3.21875,0.1875
1695744396513,-0.049316406,-0.8015747,0.588562,2.515625,3.34375,0.796875
1695744396553,-0.049804688,-0.81622314,0.5939331,1.5,1.453125,0.21875
1695744396596,-0.040771484,-0.81427,0.59539795,3.078125,2.734375,-0.484375
1695744396654,-0.038330078,-0.81573486,0.57147217,-0.375,1.453125,0.25
1695744396673,-0.032958984,-0.8057251,0.5895386,3.421875,1.390625,0.53125
1695744396713,-0.024169922,-0.82403564,0.58929443,3.203125,0.84375,0.234375
1695744396753,-0.026123047,-0.8245239,0.56536865,1.34375,1.125,0.328125
1695744396794,-0.030273438,-0.815979,0.5817261,2.046875,1.3125,0.6875
1695744396833,-0.03515625,-0.8110962,0.57928467,1.03125,0.90625,0.390625
1695744396875,-0.033203125,-0.8245239,0.56829834,1.140625,1.515625,0.640625
1695744396913,-0.032958984,-0.8110962,0.57855225,0.234375,1.671875,0.546875
1695744396953,-0.028564453,-0.8206177,0.58709717,1.21875,0.453125,0.625
1695744397014,-0.024414062,-0.8220825,0.5609741,0.046875,0.1875,0.296875
1695744397017,-0.01953125,-0.819397,0.5717163,0.171875,-0.265625,0.0625
1695744397056,-0.01928711,-0.8167114,0.5775757,-0.1875,-0.921875,0.296875
1695744397093,-0.026611328,-0.8140259,0.5800171,-0.75,-1.75,-0.265625
1695744397133,-0.028076172,-0.8206177,0.5787964,0.375,-0.625,-0.296875
1695744397214,-0.02709961,-0.81866455,0.5807495,1.1875,-1.046875,-0.5625
1695744397217,-0.03125,-0.8208618,0.5656128,-0.265625,-1.0,-0.34375
1695744397253,-0.021728516,-0.8208618,0.57806396,1.28125,1.265625,-0.390625
1695744397293,-0.03491211,-0.8123169,0.56903076,-0.453125,-0.625,-0.640625
1695744397333,-0.026123047,-0.8225708,0.5819702,2.09375,-2.0,-0.75
1695744397373,-0.022949219,-0.8279419,0.5675659,-1.296875,0.484375,-0.53125
1695744397413,-0.028076172,-0.81378174,0.5704956,0.703125,-0.359375,-0.140625
1695744397453,-0.01928711,-0.82159424,0.57196045,0.703125,-1.453125,-0.21875
1695744397493,-0.03564453,-0.8184204,0.5775757,2.265625,-1.84375,0.0
1695744397553,-0.015380859,-0.8245239,0.5634155,0.34375,-2.171875,0.34375
1695744397573,-0.024658203,-0.8328247,0.5778198,1.4375,-0.875,0.953125
1695744397613,-0.03466797,-0.8267212,0.57196045,-0.515625,-2.6875,0.890625
1695744397676,-0.025146484,-0.81866455,0.56707764,1.09375,-1.828125,0.625
1695744397693,-0.03955078,-0.8274536,0.56951904,-0.109375,-2.96875,1.109375
1695744397733,-0.043701172,-0.8184204,0.5704956,0.765625,-2.6875,0.328125
1695744397774,-0.037109375,-0.8250122,0.5726929,-0.578125,-2.59375,0.234375
1695744397813,-0.033203125,-0.81256104,0.5656128,-2.21875,-2.90625,0.734375
1695744397853,-0.036132812,-0.83013916,0.56707764,0.15625,-4.328125,0.15625
1695744397915,-0.03515625,-0.8171997,0.5824585,-0.46875,-4.625,-0.34375
1695744397933,-0.045410156,-0.8381958,0.557312,-3.765625,-3.265625,1.140625
1695744397974,-0.05029297,-0.7984009,0.57196045,-0.671875,-5.546875,-0.03125
1695744398013,-0.055664062,-0.8213501,0.59246826,0.703125,-3.15625,-0.3125
1695744398053,-0.061523438,-0.82476807,0.58465576,-1.5,-2.0,-0.25
1695744398093,-0.07348633,-0.8101196,0.58514404,-1.125,-2.609375,-0.1875
1695744398153,-0.064208984,-0.8201294,0.5783081,-0.5625,-3.390625,-0.6875
1695744398173,-0.071777344,-0.82891846,0.5975952,-0.734375,-1.984375,-0.84375
1695744398213,-0.07397461,-0.8123169,0.5873413,-2.203125,0.09375,-1.28125
1695744398274,-0.072509766,-0.81256104,0.590271,-1.765625,-0.34375,-1.796875
1695744398313,-0.06542969,-0.815979,0.59490967,-3.125,-0.1875,-1.609375
1695744398333,-0.057617188,-0.8130493,0.59246826,-3.109375,-0.28125,-1.25
1695744398373,-0.053710938,-0.79107666,0.5878296,-4.765625,-1.203125,-0.6875
1695744398433,-0.07055664,-0.79693604,0.61053467,-0.015625,-0.53125,-0.296875
1695744398453,-0.07519531,-0.7949829,0.61590576,-0.25,-0.65625,-0.21875
1695744398493,-0.07299805,-0.8074341,0.6100464,0.734375,-0.828125,-0.28125
1695744398533,-0.07861328,-0.7788696,0.60614014,-1.046875,-0.59375,0.15625
1695744398573,-0.07104492,-0.80181885,0.60443115,-0.625,-0.28125,-0.046875
1695744398633,-0.0769043,-0.80255127,0.5961304,-0.203125,-1.75,0.265625
1695744398653,-0.06689453,-0.8027954,0.61468506,0.15625,-1.484375,0.28125
1695744398695,-0.06762695,-0.7959595,0.619812,-1.453125,0.53125,0.625
1695744398733,-0.072265625,-0.7871704,0.61151123,-0.265625,-0.546875,0.53125
1695744398773,-0.07128906,-0.79400635,0.61468506,0.421875,-1.578125,0.28125
1695744398813,-0.08618164,-0.80010986,0.6173706,1.640625,-0.75,-0.09375
1695744398873,-0.075683594,-0.7920532,0.6066284,-0.890625,-0.421875,0.09375
1695744398894,-0.076171875,-0.79156494,0.6107788,0.359375,-0.546875,-0.015625
1695744398933,-0.06616211,-0.7996216,0.61712646,0.1875,-0.40625,-0.125
1695744398993,-0.07104492,-0.79693604,0.6173706,1.078125,-0.625,-0.078125
1695744399013,-0.071777344,-0.7920532,0.6090698,0.953125,-0.96875,0.15625
1695744399055,-0.06738281,-0.7871704,0.6029663,1.0625,-0.765625,-0.1875
1695744399093,-0.07739258,-0.7937622,0.60491943,0.625,-0.90625,-0.34375
1695744399134,-0.07495117,-0.8088989,0.6090698,0.421875,-0.96875,-0.453125
1695744399173,-0.080322266,-0.80548096,0.6156616,0.59375,-0.203125,-0.109375
1695744399213,-0.088378906,-0.7979126,0.6185913,1.453125,1.0,-0.375
1695744399253,-0.08642578,-0.7883911,0.59710693,-1.9375,0.203125,-0.125
1695744399293,-0.07836914,-0.7901001,0.6124878,0.984375,-0.078125,-0.046875
1695744399353,-0.07543945,-0.79571533,0.6149292,-0.09375,0.328125,-0.140625
1695744399373,-0.07470703,-0.7949829,0.6137085,0.09375,0.75,0.0
1695744399433,-0.07788086,-0.79156494,0.6149292,-0.328125,0.078125,-0.21875
1695744399456,-0.07519531,-0.7893677,0.6185913,1.296875,0.3125,-0.078125
1695744399494,-0.07739258,-0.80255127,0.6132202,0.96875,0.296875,0.21875
1695744399533,-0.067871094,-0.78741455,0.6017456,1.09375,0.25,0.21875
1695744399573,-0.063964844,-0.7871704,0.61761475,2.96875,0.25,0.484375
1695744399613,-0.072753906,-0.8010864,0.6051636,1.671875,-0.234375,0.765625
1695744399653,-0.068359375,-0.79766846,0.6039429,1.859375,-0.3125,0.359375
1695744399713,-0.07128906,-0.802063,0.6034546,0.984375,-0.796875,0.28125
1695744399733,-0.0769043,-0.7979126,0.605896,0.265625,-0.75,0.1875
1695744399773,-0.07470703,-0.80596924,0.60443115,1.1875,-0.671875,0.4375
1695744399813,-0.061767578,-0.8062134,0.6046753,-0.03125,-0.3125,0.125
1695744399855,-0.067871094,-0.7854614,0.6107788,-0.09375,-0.5625,0.21875
1695744399893,-0.07324219,-0.80841064,0.6012573,-0.171875,0.359375,0.046875
1695744399933,-0.07543945,-0.7949829,0.6005249,0.671875,-0.6875,-0.21875
1695744399977,-0.0625,-0.80963135,0.62054443,1.4375,-0.390625,-0.015625
1695744400013,-0.064941406,-0.80352783,0.5914917,-0.421875,0.359375,0.484375
1695744400093,-0.06665039,-0.80181885,0.59906006,0.90625,-0.828125,0.890625
1695744400114,-0.059570312,-0.8023071,0.59246826,-0.734375,-1.703125,0.671875
1695744400116,-0.06982422,-0.8049927,0.60980225,1.21875,-0.578125,0.921875
1695744400153,-0.071777344,-0.7996216,0.5951538,-1.8125,-1.859375,0.765625
1695744400193,-0.07910156,-0.79888916,0.60614014,1.03125,-1.203125,0.421875
1695744400253,-0.07861328,-0.79400635,0.6166382,0.84375,-0.59375,0.28125
1695744400273,-0.068359375,-0.7954712,0.5922241,0.265625,-0.25,0.03125
1695744400313,-0.0703125,-0.8008423,0.6022339,1.59375,-0.765625,-0.328125
1695744400353,-0.07739258,-0.798645,0.605896,0.9375,-0.875,-0.515625
1695744400397,-0.076660156,-0.80352783,0.60565186,1.171875,0.0,-1.109375
1695744400433,-0.08105469,-0.8110962,0.60736084,0.0,0.40625,-0.84375
1695744400473,-0.080322266,-0.79522705,0.6112671,-0.390625,0.921875,-0.703125
1695744400513,-0.07495117,-0.7959595,0.60614014,-2.234375,0.59375,-0.78125
1695744400553,-0.07495117,-0.80133057,0.5939331,-4.21875,-0.234375,-0.59375
1695744400613,-0.07861328,-0.79229736,0.61761475,-0.53125,-1.515625,-0.75
1695744400653,-0.063964844,-0.80010986,0.62249756,-1.625,-0.46875,-0.828125
1695744400673,-0.07861328,-0.786438,0.6117554,-1.3125,0.984375,-0.171875
1695744400713,-0.083496094,-0.79815674,0.62054443,-1.1875,0.125,0.0
1695744400757,-0.07910156,-0.7859497,0.6149292,-2.296875,0.59375,-0.1875
1695744400793,-0.08666992,-0.7905884,0.6347046,-0.328125,0.875,0.140625
1695744400853,-0.072021484,-0.7786255,0.6107788,-2.015625,0.3125,0.109375
1695744400873,-0.07055664,-0.7756958,0.6300659,0.265625,0.203125,0.1875
1695744400933,-0.0637207,-0.79229736,0.6312866,-0.421875,-0.21875,0.421875
1695744400975,-0.07299805,-0.79400635,0.6312866,-0.234375,-0.921875,0.109375
1695744400993,-0.067871094,-0.77716064,0.62957764,-1.625,-0.359375,0.375
1695744401033,-0.06713867,-0.7888794,0.63397217,-0.78125,-0.484375,0.390625
1695744401073,-0.061523438,-0.788147,0.60809326,-4.46875,-1.34375,1.125
1695744401114,-0.06762695,-0.7588501,0.63079834,-1.296875,-2.6875,0.75
1695744401153,-0.07421875,-0.78302,0.64593506,-0.21875,-2.953125,0.734375
1695744401194,-0.07006836,-0.76519775,0.62493896,-1.328125,-2.453125,0.421875
1695744401233,-0.087890625,-0.7737427,0.637146,-1.578125,-2.546875,1.734375
1695744401273,-0.08520508,-0.76763916,0.63861084,0.984375,-4.3125,1.15625
1695744401313,-0.07885742,-0.7842407,0.6376343,-0.421875,-2.40625,1.125
1695744401353,-0.092285156,-0.767395,0.65179443,2.703125,-0.609375,0.875
1695744401413,-0.0859375,-0.7642212,0.6305542,0.0,-2.15625,0.109375
1695744401433,-0.07373047,-0.77008057,0.6378784,1.9375,-1.28125,0.765625
1695744401493,-0.08178711,-0.7803345,0.6432495,1.734375,-1.078125,1.421875
1695744401513,-0.083496094,-0.767395,0.6322632,-0.984375,-2.546875,0.90625
1695744401553,-0.087890625,-0.7752075,0.63861084,0.171875,-1.9375,0.9375
1695744401593,-0.08203125,-0.7737427,0.63983154,-0.90625,-1.46875,0.84375
1695744401633,-0.07324219,-0.76397705,0.6400757,-0.609375,-1.234375,1.59375
1695744401693,-0.052490234,-0.79107666,0.65252686,1.28125,-4.28125,1.171875
1695744401713,-0.053222656,-0.78692627,0.6412964,0.90625,-1.828125,1.84375
1695744401753,-0.088378906,-0.77056885,0.6466675,3.265625,-0.890625,2.296875
1695744401793,-0.084228516,-0.7781372,0.6412964,3.890625,-1.125,1.265625
1695744401836,-0.09423828,-0.7739868,0.63568115,2.078125,-0.96875,0.4375
1695744401873,-0.087402344,-0.78448486,0.6149292,-0.984375,-1.109375,0.484375
1695744401913,-0.0859375,-0.77423096,0.63323975,1.421875,-1.6875,0.453125
1695744401953,-0.06982422,-0.7883911,0.6432495,2.140625,-0.796875,0.109375
1695744401993,-0.08276367,-0.78009033,0.6273804,-0.390625,1.140625,-0.34375
1695744402053,-0.087890625,-0.7749634,0.6293335,0.828125,-0.140625,0.109375
1695744402075,-0.08081055,-0.77911377,0.633728,0.296875,-0.625,-0.46875
1695744402113,-0.08154297,-0.7974243,0.6403198,1.609375,0.453125,-0.84375
