# Sensor type: Thingy
# Activity type: Sitting
# Activity subtype: Normal
# Subject id: s2106648
# Notes: 
timestamp,accel_x,accel_y,accel_z,gyro_x,gyro_y,gyro_z,mag_x,mag_y,mag_z
1695734608285,-0.5097656,-0.022460938,0.8623047,-0.375,0.25,-0.53125,-9.4375,-2.4375,8.875
1695734608325,-0.5214844,-0.030273438,0.8544922,0.3125,0.09375,-0.09375,0.0,0.0,0.0
1695734608365,-0.5126953,-0.036132812,0.86035156,0.375,0.3125,-0.03125,0.0,0.0,0.0
1695734608405,-0.5253906,-0.022460938,0.8535156,0.125,0.3125,0.5,0.0,0.0,0.0
1695734608445,-0.5185547,-0.018554688,0.8623047,0.5625,0.1875,0.875,0.0,0.0,0.0
1695734608485,-0.515625,-0.024414062,0.8535156,0.0,0.875,0.4375,0.0,0.0,0.0
1695734608525,-0.5292969,-0.029296875,0.88183594,0.25,0.75,0.4375,0.0,0.0,0.0
1695734608565,-0.5263672,-0.026367188,0.85253906,0.25,0.875,0.1875,0.0,0.0,0.0
1695734608605,-0.52441406,-0.02734375,0.86328125,0.25,0.6875,0.375,0.0,0.0,0.0
1695734608646,-0.5283203,-0.0234375,0.8642578,0.625,0.875,0.3125,0.0,0.0,0.0
1695734608706,-0.5332031,-0.024414062,0.87597656,0.375,1.46875,0.15625,0.0,0.0,0.0
1695734608725,-0.515625,-0.021484375,0.87109375,0.3125,1.90625,-0.09375,0.0,0.0,0.0
1695734608765,-0.5214844,-0.029296875,0.8691406,0.5,1.25,0.75,-8.9375,-2.9375,8.875
1695734608805,-0.52246094,-0.022460938,0.8691406,0.5625,0.375,0.875,0.0,0.0,0.0
1695734608845,-0.53027344,-0.02734375,0.8613281,0.3125,0.3125,0.6875,0.0,0.0,0.0
1695734608885,-0.5234375,-0.02734375,0.86328125,0.5625,0.4375,0.8125,0.0,0.0,0.0
1695734608925,-0.5234375,-0.01953125,0.8613281,0.84375,0.8125,1.1875,0.0,0.0,0.0
1695734608965,-0.5292969,-0.01953125,0.85253906,0.3125,1.25,0.5625,0.0,0.0,0.0
1695734609005,-0.5234375,-0.020507812,0.8671875,0.375,-0.15625,1.125,0.0,0.0,0.0
1695734609045,-0.5292969,-0.021484375,0.85253906,0.3125,-0.59375,1.65625,0.0,0.0,0.0
1695734609085,-0.52441406,-0.0146484375,0.8613281,-0.71875,-0.09375,1.59375,0.0,0.0,0.0
1695734609125,-0.51953125,-0.021484375,0.859375,-0.0625,-1.15625,1.90625,0.0,0.0,0.0
1695734609165,-0.5214844,-0.020507812,0.85546875,-0.65625,-1.03125,1.90625,0.0,0.0,0.0
1695734609205,-0.52441406,-0.01953125,0.85839844,-1.34375,-0.21875,1.84375,0.0,0.0,0.0
1695734609266,-0.52441406,-0.018554688,0.86621094,-0.65625,-0.96875,2.40625,0.0,0.0,0.0
1695734609285,-0.5175781,-0.021484375,0.8642578,-0.84375,0.25,2.34375,-9.6875,-2.9375,8.3125
1695734609326,-0.5253906,-0.026367188,0.8623047,-0.4375,-0.28125,2.28125,0.0,0.0,0.0
1695734609386,-0.5263672,-0.030273438,0.8642578,0.0625,-0.03125,2.03125,0.0,0.0,0.0
1695734609405,-0.5205078,-0.017578125,0.8613281,0.4375,0.1875,1.46875,0.0,0.0,0.0
1695734609447,-0.5234375,-0.0126953125,0.87109375,0.625,0.03125,1.0625,0.0,0.0,0.0
1695734609487,-0.52246094,-0.0146484375,0.8564453,0.84375,0.1875,0.3125,0.0,0.0,0.0
1695734609525,-0.5234375,-0.005859375,0.85546875,0.6875,0.5625,0.15625,0.0,0.0,0.0
1695734609565,-0.52441406,-0.005859375,0.8652344,0.71875,0.3125,0.25,0.0,0.0,0.0
1695734609605,-0.5126953,-0.01171875,0.8544922,0.25,0.625,0.3125,0.0,0.0,0.0
1695734609645,-0.5214844,-0.017578125,0.8544922,0.125,0.4375,0.375,0.0,0.0,0.0
1695734609685,-0.5234375,-0.0107421875,0.85839844,0.25,0.4375,0.75,0.0,0.0,0.0
1695734609725,-0.52441406,-0.01171875,0.87109375,0.1875,0.375,0.9375,0.0,0.0,0.0
1695734609765,-0.52441406,-0.01953125,0.8574219,0.1875,0.25,1.125,-9.125,-1.5625,8.125
1695734609825,-0.515625,-0.0087890625,0.85253906,-0.0625,0.09375,1.1875,0.0,0.0,0.0
1695734609845,-0.5283203,-0.0068359375,0.87109375,-0.0625,0.375,0.9375,0.0,0.0,0.0
1695734609887,-0.51464844,-0.009765625,0.86035156,0.0,0.1875,1.0,0.0,0.0,0.0
1695734609945,-0.5292969,-0.018554688,0.85058594,-0.125,0.15625,0.5625,0.0,0.0,0.0
1695734609968,-0.5234375,-0.0126953125,0.8486328,-0.375,0.375,0.15625,0.0,0.0,0.0
1695734610007,-0.51953125,-0.017578125,0.85253906,-0.125,0.3125,-0.09375,0.0,0.0,0.0
1695734610048,-0.5253906,-0.0146484375,0.8623047,-0.125,0.03125,-0.34375,0.0,0.0,0.0
1695734610087,-0.5185547,-0.01171875,0.86621094,-0.125,0.15625,-0.78125,0.0,0.0,0.0
1695734610127,-0.51953125,-0.01171875,0.8642578,0.0,0.375,-0.46875,0.0,0.0,0.0
1695734610167,-0.5185547,-0.0146484375,0.86621094,0.0,0.5,-0.40625,0.0,0.0,0.0
1695734610207,-0.53027344,-0.0029296875,0.87109375,-0.125,0.5625,-0.03125,0.0,0.0,0.0
1695734610248,-0.5185547,-0.015625,0.86035156,-0.0625,0.625,0.09375,0.0,0.0,0.0
1695734610288,-0.5292969,-0.022460938,0.8691406,-0.0625,0.5625,-0.03125,-9.6875,-1.4375,7.5625
1695734610328,-0.5292969,-0.016601562,0.86328125,-0.1875,0.4375,-0.15625,0.0,0.0,0.0
1695734610367,-0.5283203,-0.0146484375,0.8574219,-0.1875,0.5625,-0.59375,0.0,0.0,0.0
1695734610406,-0.5263672,-0.009765625,0.86328125,-0.125,0.1875,-0.34375,0.0,0.0,0.0
1695734610447,-0.5214844,-0.0146484375,0.8623047,-0.1875,0.375,-0.53125,0.0,0.0,0.0
1695734610488,-0.53222656,-0.015625,0.8535156,-0.5625,0.5625,-0.40625,0.0,0.0,0.0
1695734610528,-0.5234375,-0.0234375,0.859375,-0.59375,1.0,-0.96875,0.0,0.0,0.0
1695734610565,-0.5234375,-0.017578125,0.85839844,-0.65625,0.75,-0.21875,0.0,0.0,0.0
1695734610606,-0.5185547,-0.018554688,0.86328125,-0.1875,0.8125,-0.03125,0.0,0.0,0.0
1695734610647,-0.51953125,-0.01953125,0.87109375,-0.125,0.6875,0.09375,0.0,0.0,0.0
1695734610686,-0.5341797,-0.0234375,0.8671875,0.0625,0.5625,0.1875,0.0,0.0,0.0
1695734610726,-0.5234375,-0.01953125,0.8564453,0.1875,0.6875,0.25,0.0,0.0,0.0
1695734610767,-0.53125,-0.020507812,0.86328125,0.0625,0.8125,0.1875,-9.125,-2.0,9.1875
1695734610808,-0.5332031,-0.015625,0.8564453,-0.0625,0.375,0.15625,0.0,0.0,0.0
1695734610847,-0.53222656,-0.018554688,0.85839844,-0.0625,0.3125,-0.03125,0.0,0.0,0.0
1695734610886,-0.53515625,-0.018554688,0.83984375,-0.1875,0.3125,-0.09375,0.0,0.0,0.0
1695734610927,-0.5234375,-0.018554688,0.859375,-0.125,0.5,-0.40625,0.0,0.0,0.0
1695734610967,-0.53222656,-0.018554688,0.8623047,-0.3125,0.5,-0.34375,0.0,0.0,0.0
1695734611007,-0.5292969,-0.020507812,0.859375,-0.375,0.6875,-0.15625,0.0,0.0,0.0
1695734611048,-0.5234375,-0.017578125,0.86328125,-0.5,1.1875,0.09375,0.0,0.0,0.0
1695734611127,-0.5234375,-0.022460938,0.8574219,-0.375,1.25,0.4375,0.0,0.0,0.0
1695734611145,-0.5253906,-0.024414062,0.85058594,-0.0625,1.3125,0.1875,0.0,0.0,0.0
1695734611165,-0.52441406,-0.021484375,0.85546875,-0.0625,1.1875,0.09375,0.0,0.0,0.0
1695734611207,-0.5390625,-0.022460938,0.8574219,0.0625,0.6875,0.1875,0.0,0.0,0.0
1695734611247,-0.5390625,-0.024414062,0.8535156,-0.0625,0.5,0.25,0.0,0.0,0.0
1695734611287,-0.52441406,-0.024414062,0.859375,-0.25,0.15625,0.15625,-10.0,-2.9375,7.5625
1695734611329,-0.5410156,-0.02734375,0.85253906,-0.0625,0.09375,0.09375,0.0,0.0,0.0
1695734611367,-0.5332031,-0.024414062,0.85839844,-0.25,0.4375,0.03125,0.0,0.0,0.0
1695734611407,-0.5283203,-0.03515625,0.8652344,-0.25,0.375,-0.28125,0.0,0.0,0.0
1695734611448,-0.5332031,-0.02734375,0.8339844,0.0,0.4375,-0.15625,0.0,0.0,0.0
1695734611487,-0.52734375,-0.032226562,0.8574219,0.0625,0.25,0.15625,0.0,0.0,0.0
1695734611527,-0.5234375,-0.028320312,0.8564453,-0.125,0.3125,0.3125,0.0,0.0,0.0
1695734611567,-0.52734375,-0.0234375,0.8486328,0.0,0.625,0.4375,0.0,0.0,0.0
1695734611607,-0.53027344,-0.02734375,0.85058594,0.0,0.5625,0.375,0.0,0.0,0.0
1695734611647,-0.52734375,-0.029296875,0.8642578,-0.125,0.3125,0.25,0.0,0.0,0.0
1695734611687,-0.52734375,-0.01953125,0.85839844,-0.0625,0.6875,0.1875,0.0,0.0,0.0
1695734611745,-0.5361328,-0.021484375,0.85839844,0.0,0.375,-0.09375,0.0,0.0,0.0
1695734611767,-0.5332031,-0.030273438,0.8564453,-0.25,0.5625,-0.15625,-10.3125,-1.25,8.4375
1695734611807,-0.54003906,-0.022460938,0.84765625,0.0,0.375,0.09375,0.0,0.0,0.0
1695734611847,-0.5390625,-0.022460938,0.8466797,-0.1875,0.5,0.09375,0.0,0.0,0.0
1695734611887,-0.5390625,-0.028320312,0.84277344,-0.0625,0.1875,0.1875,0.0,0.0,0.0
1695734611927,-0.53222656,-0.028320312,0.84765625,-0.125,0.25,0.4375,0.0,0.0,0.0
1695734611967,-0.53515625,-0.028320312,0.8535156,0.125,0.1875,0.5625,0.0,0.0,0.0
1695734612007,-0.5361328,-0.021484375,0.8574219,0.0,0.4375,0.5625,0.0,0.0,0.0
1695734612049,-0.5332031,-0.034179688,0.8496094,0.125,0.4375,0.5625,0.0,0.0,0.0
1695734612087,-0.5283203,-0.022460938,0.8535156,0.125,0.25,0.5,0.0,0.0,0.0
1695734612127,-0.5341797,-0.017578125,0.8496094,0.0,-0.03125,0.6875,0.0,0.0,0.0
1695734612167,-0.5371094,-0.02734375,0.85253906,-0.0625,-0.21875,0.75,0.0,0.0,0.0
1695734612207,-0.5292969,-0.0234375,0.85839844,-0.0625,-0.03125,0.75,0.0,0.0,0.0
1695734612265,-0.5292969,-0.02734375,0.85253906,0.0,0.09375,0.75,0.0,0.0,0.0
1695734612287,-0.53222656,-0.03125,0.8623047,-0.0625,-0.21875,1.1875,-10.4375,-2.1875,7.5625
1695734612328,-0.53027344,-0.02734375,0.8544922,0.0,0.4375,1.0625,0.0,0.0,0.0
1695734612367,-0.5341797,-0.028320312,0.85058594,0.1875,-0.09375,1.375,0.0,0.0,0.0
1695734612405,-0.51660156,-0.033203125,0.85058594,0.25,0.1875,1.0625,0.0,0.0,0.0
1695734612447,-0.5332031,-0.013671875,0.86328125,0.0625,0.25,1.3125,0.0,0.0,0.0
1695734612487,-0.54296875,-0.018554688,0.84277344,0.25,0.09375,1.46875,0.0,0.0,0.0
1695734612527,-0.5390625,-0.01953125,0.85058594,0.3125,-0.09375,1.3125,0.0,0.0,0.0
1695734612567,-0.53125,-0.017578125,0.8408203,0.3125,-0.46875,1.0625,0.0,0.0,0.0
1695734612609,-0.5292969,-0.013671875,0.8623047,0.1875,-0.53125,1.3125,0.0,0.0,0.0
1695734612652,-0.5263672,-0.016601562,0.8642578,0.0,-0.15625,1.3125,0.0,0.0,0.0
1695734612687,-0.5292969,-0.01953125,0.8574219,0.0,-0.21875,1.375,0.0,0.0,0.0
1695734612726,-0.53027344,-0.015625,0.86328125,-0.125,-0.09375,1.1875,0.0,0.0,0.0
1695734612766,-0.53027344,-0.015625,0.859375,0.0,-0.40625,1.375,-10.0,-2.9375,8.875
1695734612806,-0.53027344,-0.015625,0.8652344,0.0625,-0.34375,1.46875,0.0,0.0,0.0
1695734612846,-0.5332031,-0.017578125,0.86035156,0.25,-0.34375,1.375,0.0,0.0,0.0
1695734612884,-0.53027344,-0.015625,0.8535156,0.1875,-0.21875,1.3125,0.0,0.0,0.0
1695734612966,-0.5341797,-0.0078125,0.8544922,0.25,-0.65625,1.1875,0.0,0.0,0.0
1695734612967,-0.5361328,-0.005859375,0.86621094,0.0,0.3125,0.625,0.0,0.0,0.0
1695734613005,-0.5292969,-0.01171875,0.859375,-0.1875,-0.21875,0.875,0.0,0.0,0.0
1695734613045,-0.5341797,-0.016601562,0.86035156,-0.25,0.15625,0.5625,0.0,0.0,0.0
1695734613085,-0.5292969,-0.0048828125,0.8496094,-0.3125,-0.28125,0.5625,0.0,0.0,0.0
1695734613125,-0.54003906,-0.016601562,0.8544922,0.0,-0.34375,0.6875,0.0,0.0,0.0
1695734613165,-0.53125,-0.01171875,0.8486328,-0.0625,-0.28125,0.25,0.0,0.0,0.0
1695734613205,-0.52441406,-0.021484375,0.85058594,-0.0625,-0.28125,-0.15625,0.0,0.0,0.0
1695734613245,-0.54003906,-0.0126953125,0.8574219,-0.0625,-0.40625,-0.53125,0.0,0.0,0.0
1695734613286,-0.5214844,-0.01953125,0.85546875,-0.1875,-0.40625,-0.40625,-10.0,-0.6875,6.8125
1695734613325,-0.52441406,-0.015625,0.8544922,0.0625,0.4375,-0.03125,0.0,0.0,0.0
1695734613365,-0.5185547,-0.009765625,0.87402344,0.3125,-0.03125,0.1875,0.0,0.0,0.0
1695734613405,-0.5332031,-0.009765625,0.8535156,-0.0625,-0.15625,0.4375,0.0,0.0,0.0
1695734613447,-0.53222656,-0.013671875,0.8623047,-0.375,0.15625,0.15625,0.0,0.0,0.0
1695734613485,-0.53222656,-0.0146484375,0.8671875,-0.3125,0.09375,-0.09375,0.0,0.0,0.0
1695734613586,-0.52734375,-0.020507812,0.86621094,-0.1875,0.03125,-0.21875,0.0,0.0,0.0
1695734613588,-0.52734375,-0.0087890625,0.85546875,-0.3125,0.25,-0.65625,0.0,0.0,0.0
1695734613605,-0.5390625,-0.0146484375,0.85839844,-0.25,0.8125,-0.53125,0.0,0.0,0.0
1695734613645,-0.53222656,-0.0234375,0.8544922,-0.0625,0.8125,-0.84375,0.0,0.0,0.0
1695734613685,-0.5253906,-0.013671875,0.85546875,-0.0625,0.375,-0.71875,0.0,0.0,0.0
1695734613725,-0.5214844,-0.0107421875,0.86328125,-0.4375,0.6875,-0.65625,0.0,0.0,0.0
1695734613786,-0.5292969,-0.015625,0.8496094,-0.1875,0.5625,-0.34375,-9.875,-2.625,8.125
1695734613805,-0.53027344,-0.015625,0.85839844,-0.1875,0.4375,-0.03125,0.0,0.0,0.0
1695734613845,-0.53125,-0.026367188,0.8671875,-0.25,0.375,0.1875,0.0,0.0,0.0
1695734613885,-0.5234375,-0.022460938,0.85058594,-0.125,0.625,0.15625,0.0,0.0,0.0
1695734613925,-0.53515625,-0.01953125,0.86035156,-0.0625,0.875,0.03125,0.0,0.0,0.0
1695734613965,-0.52734375,-0.01953125,0.84375,-0.0625,0.5,-0.03125,0.0,0.0,0.0
1695734614005,-0.53125,-0.025390625,0.8613281,-0.0625,0.5,0.09375,0.0,0.0,0.0
1695734614086,-0.52734375,-0.024414062,0.859375,-0.0625,0.375,-0.28125,0.0,0.0,0.0
1695734614088,-0.5332031,-0.026367188,0.8613281,-0.125,0.3125,-0.15625,0.0,0.0,0.0
1695734614147,-0.53125,-0.022460938,0.8486328,-0.125,0.25,0.09375,0.0,0.0,0.0
1695734614185,-0.5234375,-0.0234375,0.8535156,-0.125,0.5,0.03125,0.0,0.0,0.0
1695734614228,-0.53027344,-0.01953125,0.86621094,-0.0625,0.6875,0.09375,0.0,0.0,0.0
1695734614267,-0.5341797,-0.02734375,0.8623047,0.0,0.625,0.25,0.0,0.0,0.0
1695734614305,-0.52734375,-0.020507812,0.85839844,-0.0625,0.9375,-0.28125,-10.625,-2.625,7.375
1695734614345,-0.53027344,-0.01953125,0.8544922,-0.0625,0.5625,0.3125,0.0,0.0,0.0
1695734614387,-0.5341797,-0.0234375,0.8564453,0.0,0.3125,0.3125,0.0,0.0,0.0
1695734614425,-0.5371094,-0.022460938,0.86035156,-0.0625,0.1875,0.25,0.0,0.0,0.0
1695734614467,-0.53515625,-0.02734375,0.8623047,-0.125,0.03125,0.1875,0.0,0.0,0.0
1695734614507,-0.52734375,-0.0146484375,0.8671875,-0.0625,0.09375,0.15625,0.0,0.0,0.0
1695734614567,-0.53222656,-0.026367188,0.8564453,-0.125,0.3125,0.15625,0.0,0.0,0.0
1695734614587,-0.5205078,-0.026367188,0.85546875,-0.1875,0.375,-0.03125,0.0,0.0,0.0
1695734614627,-0.5283203,-0.017578125,0.86035156,0.0,0.4375,-0.03125,0.0,0.0,0.0
1695734614667,-0.53027344,-0.028320312,0.8613281,-0.0625,0.5625,0.09375,0.0,0.0,0.0
1695734614708,-0.5185547,-0.024414062,0.8574219,0.0,0.5,0.03125,0.0,0.0,0.0
1695734614765,-0.5341797,-0.020507812,0.8574219,0.0,0.5,0.09375,0.0,0.0,0.0
1695734614787,-0.5234375,-0.032226562,0.8613281,0.0,0.375,0.15625,-10.3125,-3.0625,8.125
1695734614848,-0.53027344,-0.015625,0.8691406,0.0,0.5625,0.375,0.0,0.0,0.0
1695734614867,-0.5390625,-0.021484375,0.859375,0.0,0.4375,0.3125,0.0,0.0,0.0
1695734614907,-0.53027344,-0.020507812,0.85839844,-0.0625,0.4375,0.25,0.0,0.0,0.0
1695734614949,-0.52734375,-0.021484375,0.84765625,-0.1875,0.625,0.09375,0.0,0.0,0.0
1695734614987,-0.54003906,-0.025390625,0.8623047,-0.1875,1.0625,0.09375,0.0,0.0,0.0
1695734615028,-0.5234375,-0.03125,0.8486328,-0.3125,1.0625,-0.21875,0.0,0.0,0.0
1695734615067,-0.53125,-0.01953125,0.8544922,-0.25,0.5,0.03125,0.0,0.0,0.0
1695734615108,-0.53515625,-0.022460938,0.8574219,0.0,0.375,0.1875,0.0,0.0,0.0
1695734615147,-0.5292969,-0.03125,0.8535156,-0.0625,0.09375,0.25,0.0,0.0,0.0
1695734615187,-0.5390625,-0.0234375,0.83691406,0.0625,-0.03125,0.1875,0.0,0.0,0.0
1695734615227,-0.52734375,-0.022460938,0.859375,0.0625,0.03125,0.1875,0.0,0.0,0.0
1695734615267,-0.5332031,-0.030273438,0.8691406,0.0,0.15625,0.25,0.0,0.0,0.0
1695734615347,-0.5283203,-0.024414062,0.86035156,0.0625,0.1875,0.375,-9.5625,-2.0,8.75
1695734615349,-0.5332031,-0.028320312,0.8623047,0.0625,0.09375,0.3125,0.0,0.0,0.0
1695734615387,-0.5341797,-0.016601562,0.8544922,0.0625,0.3125,0.25,0.0,0.0,0.0
1695734615427,-0.5283203,-0.022460938,0.8574219,0.0,0.09375,0.3125,0.0,0.0,0.0
1695734615467,-0.53515625,-0.026367188,0.86328125,0.0625,0.09375,0.25,0.0,0.0,0.0
1695734615627,-0.53222656,-0.01953125,0.8535156,0.25,-0.28125,0.6875,0.0,0.0,0.0
1695734615630,-0.53125,-0.0234375,0.8564453,0.0625,-0.09375,0.625,0.0,0.0,0.0
1695734615635,-0.53222656,-0.01953125,0.8535156,0.0625,-0.21875,0.6875,0.0,0.0,0.0
1695734615645,-0.53808594,-0.026367188,0.84375,0.25,-0.34375,0.5625,0.0,0.0,0.0
1695734615667,-0.53027344,-0.026367188,0.8457031,0.125,-0.09375,0.6875,0.0,0.0,0.0
1695734615708,-0.5332031,-0.024414062,0.85253906,0.0,-0.15625,0.625,0.0,0.0,0.0
1695734615747,-0.53027344,-0.01171875,0.8535156,-0.0625,-0.03125,0.75,0.0,0.0,0.0
1695734615785,-0.53027344,-0.02734375,0.86328125,0.125,-0.03125,0.6875,-11.375,-3.0625,8.75
1695734615847,-0.5283203,-0.025390625,0.85058594,-0.0625,-0.15625,0.75,0.0,0.0,0.0
1695734615868,-0.5283203,-0.018554688,0.8564453,0.125,-0.15625,1.0,0.0,0.0,0.0
1695734615907,-0.53027344,-0.0146484375,0.86816406,-0.0625,-0.03125,0.875,0.0,0.0,0.0
1695734615945,-0.5341797,-0.018554688,0.8613281,0.0625,-0.21875,0.875,0.0,0.0,0.0
1695734615987,-0.5332031,-0.020507812,0.86621094,-0.0625,-0.15625,0.625,0.0,0.0,0.0
1695734616028,-0.53027344,-0.016601562,0.8642578,-0.0625,0.15625,0.6875,0.0,0.0,0.0
1695734616065,-0.53125,-0.016601562,0.87402344,-0.0625,0.09375,0.75,0.0,0.0,0.0
1695734616106,-0.51953125,-0.0234375,0.859375,0.0,-0.46875,0.9375,0.0,0.0,0.0
1695734616145,-0.5292969,-0.01953125,0.8613281,0.1875,-0.46875,0.9375,0.0,0.0,0.0
1695734616185,-0.53027344,-0.020507812,0.84472656,0.4375,-0.46875,1.0,0.0,0.0,0.0
1695734616225,-0.5292969,-0.018554688,0.85253906,0.3125,-0.28125,0.8125,0.0,0.0,0.0
1695734616265,-0.53125,-0.0146484375,0.8564453,0.0625,-0.15625,0.625,0.0,0.0,0.0
1695734616305,-0.5283203,-0.022460938,0.8671875,0.0,-0.28125,0.75,-10.9375,-0.5,8.125
1695734616367,-0.5341797,-0.009765625,0.8564453,0.0625,-0.46875,0.9375,0.0,0.0,0.0
1695734616385,-0.5332031,-0.021484375,0.85058594,0.0625,-0.65625,1.1875,0.0,0.0,0.0
1695734616425,-0.52734375,-0.017578125,0.8574219,0.0625,-0.15625,0.8125,0.0,0.0,0.0
1695734616467,-0.53125,-0.026367188,0.8486328,0.0,-0.09375,1.0625,0.0,0.0,0.0
1695734616506,-0.53515625,-0.01953125,0.8574219,0.125,0.15625,1.0,0.0,0.0,0.0
1695734616545,-0.5253906,-0.0126953125,0.8613281,-0.0625,-0.03125,0.6875,0.0,0.0,0.0
1695734616585,-0.52441406,-0.020507812,0.859375,0.1875,-0.09375,0.5,0.0,0.0,0.0
1695734616625,-0.5234375,-0.01953125,0.8564453,0.0,0.03125,0.25,0.0,0.0,0.0
1695734616665,-0.5253906,-0.015625,0.8486328,0.0625,0.25,-0.03125,0.0,0.0,0.0
1695734616705,-0.52441406,-0.0126953125,0.859375,0.0,-0.03125,0.15625,0.0,0.0,0.0
1695734616745,-0.5185547,-0.020507812,0.859375,0.0,0.25,0.1875,0.0,0.0,0.0
1695734616785,-0.52734375,-0.005859375,0.83984375,-0.0625,-0.03125,-0.09375,-8.5,-2.3125,8.75
1695734616825,-0.5263672,-0.018554688,0.86328125,0.0,0.4375,-0.09375,0.0,0.0,0.0
1695734616865,-0.5263672,-0.029296875,0.86328125,0.125,0.25,-0.15625,0.0,0.0,0.0
1695734616905,-0.51953125,-0.015625,0.85839844,-0.0625,0.09375,-0.15625,0.0,0.0,0.0
1695734616945,-0.51660156,-0.015625,0.8574219,-0.0625,0.15625,-0.21875,0.0,0.0,0.0
1695734616985,-0.52734375,-0.01953125,0.8574219,0.125,0.25,-0.03125,0.0,0.0,0.0
1695734617025,-0.52441406,-0.017578125,0.8457031,0.0625,-0.09375,0.09375,0.0,0.0,0.0
1695734617065,-0.52246094,-0.020507812,0.84375,-0.0625,0.4375,0.09375,0.0,0.0,0.0
1695734617127,-0.54296875,-0.017578125,0.8535156,0.0,0.625,0.09375,0.0,0.0,0.0
1695734617145,-0.52734375,-0.021484375,0.86621094,0.0,0.625,-0.34375,0.0,0.0,0.0
1695734617185,-0.53222656,-0.025390625,0.8730469,0.0,0.3125,-0.34375,0.0,0.0,0.0
1695734617247,-0.52441406,-0.013671875,0.8671875,0.0,0.09375,-0.28125,0.0,0.0,0.0
1695734617265,-0.5332031,-0.0126953125,0.8486328,0.0625,0.1875,-0.21875,0.0,0.0,0.0
1695734617305,-0.5263672,-0.0146484375,0.8701172,0.125,-0.03125,-0.21875,-9.125,-0.8125,9.1875
1695734617345,-0.5283203,-0.022460938,0.87109375,0.0,0.25,-0.21875,0.0,0.0,0.0
1695734617385,-0.52246094,-0.024414062,0.8544922,0.0,0.3125,0.03125,0.0,0.0,0.0
1695734617425,-0.53808594,-0.018554688,0.8564453,-0.0625,0.4375,-0.09375,0.0,0.0,0.0
1695734617465,-0.52734375,-0.024414062,0.859375,-0.1875,0.15625,-0.15625,0.0,0.0,0.0
1695734617505,-0.5292969,-0.01953125,0.859375,-0.125,-0.03125,-0.09375,0.0,0.0,0.0
1695734617545,-0.52246094,-0.01953125,0.87109375,0.0,0.1875,0.09375,0.0,0.0,0.0
1695734617585,-0.5283203,-0.025390625,0.8652344,-0.125,0.25,-0.15625,0.0,0.0,0.0
1695734617625,-0.5292969,-0.02734375,0.859375,0.0,0.3125,0.09375,0.0,0.0,0.0
1695734617665,-0.53125,-0.0234375,0.85253906,-0.125,0.09375,-0.09375,0.0,0.0,0.0
1695734617706,-0.5253906,-0.017578125,0.86328125,-0.3125,0.03125,-0.09375,0.0,0.0,0.0
1695734617745,-0.5205078,-0.018554688,0.8544922,-0.0625,0.3125,-0.03125,0.0,0.0,0.0
1695734617785,-0.53515625,-0.022460938,0.86328125,-0.125,0.4375,0.25,-10.4375,-1.125,8.625
1695734617825,-0.53222656,-0.028320312,0.86621094,-0.125,0.75,-0.34375,0.0,0.0,0.0
1695734617887,-0.5292969,-0.021484375,0.8515625,0.0,0.25,0.09375,0.0,0.0,0.0
1695734617905,-0.5253906,-0.017578125,0.859375,0.0,0.1875,0.03125,0.0,0.0,0.0
1695734617945,-0.5283203,-0.0234375,0.8720703,-0.0625,0.375,0.03125,0.0,0.0,0.0
1695734617986,-0.5390625,-0.024414062,0.86328125,-0.0625,0.09375,-0.03125,0.0,0.0,0.0
1695734618025,-0.52734375,-0.013671875,0.8642578,-0.125,0.09375,0.25,0.0,0.0,0.0
1695734618065,-0.53027344,-0.020507812,0.8642578,0.0,0.3125,0.1875,0.0,0.0,0.0
1695734618105,-0.5292969,-0.020507812,0.85253906,-0.0625,0.4375,0.09375,0.0,0.0,0.0
1695734618145,-0.5341797,-0.024414062,0.86328125,0.0,0.25,0.09375,0.0,0.0,0.0
1695734618185,-0.5263672,-0.017578125,0.8564453,0.0,0.3125,0.03125,0.0,0.0,0.0
1695734618226,-0.5332031,-0.021484375,0.85253906,-0.0625,0.15625,0.03125,0.0,0.0,0.0
1695734618265,-0.52734375,-0.025390625,0.859375,-0.25,0.15625,0.03125,0.0,0.0,0.0
1695734618305,-0.5292969,-0.028320312,0.8544922,-0.125,-0.03125,0.3125,-9.125,-1.25,7.375
1695734618346,-0.5263672,-0.016601562,0.8496094,0.0,0.25,0.03125,0.0,0.0,0.0
1695734618406,-0.5283203,-0.018554688,0.86035156,0.0,0.09375,0.25,0.0,0.0,0.0
1695734618446,-0.53125,-0.034179688,0.85253906,-0.1875,0.09375,0.15625,0.0,0.0,0.0
1695734618465,-0.53125,-0.024414062,0.8623047,0.0,0.3125,0.5,0.0,0.0,0.0
1695734618505,-0.5283203,-0.02734375,0.85058594,0.0,0.1875,0.09375,0.0,0.0,0.0
1695734618545,-0.5292969,-0.026367188,0.8544922,-0.125,-0.15625,0.09375,0.0,0.0,0.0
1695734618585,-0.53515625,-0.02734375,0.85839844,0.0625,-0.09375,0.25,0.0,0.0,0.0
1695734618646,-0.53027344,-0.022460938,0.8496094,-0.0625,-0.15625,0.25,0.0,0.0,0.0
1695734618665,-0.5292969,-0.024414062,0.86035156,0.1875,-0.21875,0.1875,0.0,0.0,0.0
1695734618705,-0.52441406,-0.028320312,0.8515625,0.1875,-0.03125,0.3125,0.0,0.0,0.0
1695734618745,-0.53027344,-0.01953125,0.8574219,-0.0625,-0.09375,0.6875,0.0,0.0,0.0
1695734618785,-0.52246094,-0.021484375,0.86621094,-0.0625,0.03125,0.5625,-9.5625,-2.3125,8.125
1695734618828,-0.5283203,-0.026367188,0.85546875,0.0,-0.09375,0.8125,0.0,0.0,0.0
1695734618867,-0.53027344,-0.016601562,0.859375,-0.0625,-0.03125,0.75,0.0,0.0,0.0
1695734618909,-0.52441406,-0.01953125,0.8544922,0.125,0.03125,0.875,0.0,0.0,0.0
1695734618945,-0.52734375,-0.016601562,0.85546875,0.0625,0.1875,0.75,0.0,0.0,0.0
1695734618987,-0.53515625,-0.020507812,0.85253906,0.1875,0.03125,0.5625,0.0,0.0,0.0
1695734619026,-0.5292969,-0.021484375,0.85058594,0.0,-0.09375,0.5625,0.0,0.0,0.0
1695734619067,-0.5283203,-0.022460938,0.8535156,0.0,-0.21875,0.8125,0.0,0.0,0.0
1695734619107,-0.5292969,-0.026367188,0.8535156,-0.0625,-0.15625,0.9375,0.0,0.0,0.0
1695734619146,-0.5283203,-0.026367188,0.86035156,0.0625,-0.34375,1.0625,0.0,0.0,0.0
1695734619187,-0.5283203,-0.016601562,0.8652344,0.1875,0.3125,0.875,0.0,0.0,0.0
1695734619225,-0.5283203,-0.02734375,0.8613281,-0.125,0.03125,1.0,0.0,0.0,0.0
1695734619270,-0.5283203,-0.026367188,0.8652344,-0.0625,-0.03125,0.8125,-9.125,-4.4375,8.125
1695734619307,-0.5292969,-0.01171875,0.85253906,0.25,-0.15625,0.8125,0.0,0.0,0.0
1695734619347,-0.5390625,-0.020507812,0.8613281,0.0,-0.15625,1.0,0.0,0.0,0.0
1695734619405,-0.5332031,-0.018554688,0.85839844,0.25,-0.21875,0.8125,0.0,0.0,0.0
1695734619427,-0.5332031,-0.020507812,0.86621094,0.125,-0.21875,0.8125,0.0,0.0,0.0
1695734619467,-0.53125,-0.028320312,0.85839844,0.125,-0.40625,0.8125,0.0,0.0,0.0
1695734619507,-0.5410156,-0.017578125,0.8544922,-0.0625,0.03125,0.75,0.0,0.0,0.0
1695734619546,-0.5292969,-0.017578125,0.8496094,0.0625,0.15625,0.5,0.0,0.0,0.0
1695734619587,-0.52734375,-0.0087890625,0.8613281,0.0,0.25,0.25,0.0,0.0,0.0
1695734619626,-0.53027344,-0.0107421875,0.85058594,0.0625,0.03125,0.25,0.0,0.0,0.0
1695734619687,-0.52246094,-0.009765625,0.8623047,-0.0625,0.09375,0.03125,0.0,0.0,0.0
1695734619707,-0.5214844,-0.0146484375,0.8564453,-0.125,0.15625,0.03125,0.0,0.0,0.0
1695734619749,-0.5341797,-0.0146484375,0.8535156,0.0,0.1875,-0.09375,0.0,0.0,0.0
1695734619787,-0.52441406,-0.01953125,0.87109375,0.0,0.03125,0.15625,-10.3125,-2.3125,8.4375
1695734619827,-0.5234375,-0.015625,0.8574219,-0.1875,0.25,0.03125,0.0,0.0,0.0
1695734619867,-0.53222656,-0.022460938,0.8671875,-0.0625,0.3125,0.03125,0.0,0.0,0.0
1695734619907,-0.5292969,-0.020507812,0.86621094,-0.0625,0.375,0.15625,0.0,0.0,0.0
1695734619947,-0.52441406,-0.021484375,0.85839844,-0.125,0.4375,-0.09375,0.0,0.0,0.0
1695734619988,-0.5341797,-0.017578125,0.8730469,0.125,0.1875,-0.34375,0.0,0.0,0.0
1695734620027,-0.5234375,-0.01953125,0.84765625,0.0625,0.25,-0.28125,0.0,0.0,0.0
1695734620068,-0.52441406,-0.013671875,0.85546875,-0.0625,0.09375,-0.40625,0.0,0.0,0.0
1695734620125,-0.52734375,-0.020507812,0.859375,0.0,0.1875,-0.09375,0.0,0.0,0.0
1695734620186,-0.53222656,-0.0234375,0.8574219,0.125,0.375,-0.15625,0.0,0.0,0.0
1695734620188,-0.53027344,-0.01953125,0.85058594,-0.125,0.375,0.03125,0.0,0.0,0.0
1695734620227,-0.5234375,-0.024414062,0.8574219,-0.125,0.09375,-0.03125,0.0,0.0,0.0
1695734620268,-0.5292969,-0.020507812,0.8535156,0.0625,0.25,-0.15625,-9.875,-2.0,9.5
1695734620307,-0.53125,-0.02734375,0.85839844,-0.0625,0.09375,-0.21875,0.0,0.0,0.0
1695734620347,-0.5234375,-0.017578125,0.8623047,0.0,0.4375,-0.34375,0.0,0.0,0.0
1695734620387,-0.5263672,-0.021484375,0.8496094,0.0,0.1875,-0.28125,0.0,0.0,0.0
1695734620427,-0.53222656,-0.028320312,0.8623047,0.0,0.3125,-0.28125,0.0,0.0,0.0
1695734620467,-0.5371094,-0.021484375,0.8544922,0.0,0.25,-0.03125,0.0,0.0,0.0
1695734620507,-0.5341797,-0.0234375,0.8564453,0.0625,0.5625,-0.03125,0.0,0.0,0.0
1695734620547,-0.53222656,-0.021484375,0.8544922,-0.25,0.3125,0.15625,0.0,0.0,0.0
1695734620587,-0.53808594,-0.021484375,0.85546875,-0.125,0.4375,-0.34375,0.0,0.0,0.0
1695734620627,-0.5283203,-0.025390625,0.8457031,-0.125,0.03125,0.03125,0.0,0.0,0.0
1695734620685,-0.5292969,-0.016601562,0.8466797,0.0,0.25,0.03125,0.0,0.0,0.0
1695734620707,-0.5341797,-0.02734375,0.8496094,0.0625,0.625,-0.03125,0.0,0.0,0.0
1695734620745,-0.5205078,-0.021484375,0.84375,0.0,0.4375,-0.21875,0.0,0.0,0.0
1695734620787,-0.5361328,-0.026367188,0.8544922,0.0,0.4375,-0.09375,-7.625,-2.1875,8.3125
1695734620845,-0.53027344,-0.018554688,0.85253906,0.0,0.3125,0.03125,0.0,0.0,0.0
1695734620867,-0.52734375,-0.017578125,0.86035156,-0.1875,0.5,-0.03125,0.0,0.0,0.0
1695734620925,-0.5292969,-0.02734375,0.8486328,0.0625,0.4375,0.03125,0.0,0.0,0.0
1695734620967,-0.5341797,-0.018554688,0.8574219,-0.0625,0.625,0.15625,0.0,0.0,0.0
1695734620987,-0.53125,-0.025390625,0.8535156,0.0,0.4375,0.15625,0.0,0.0,0.0
1695734621027,-0.53125,-0.026367188,0.85058594,-0.125,0.3125,0.03125,0.0,0.0,0.0
1695734621066,-0.5341797,-0.024414062,0.8623047,0.0,0.5625,0.1875,0.0,0.0,0.0
1695734621106,-0.5419922,-0.016601562,0.8613281,-0.0625,0.25,0.03125,0.0,0.0,0.0
1695734621147,-0.53027344,-0.022460938,0.8613281,0.0,0.5625,-0.03125,0.0,0.0,0.0
1695734621187,-0.5283203,-0.025390625,0.85546875,-0.0625,0.6875,0.03125,0.0,0.0,0.0
1695734621227,-0.5390625,-0.0234375,0.86328125,-0.25,0.875,0.3125,0.0,0.0,0.0
1695734621265,-0.53125,-0.01953125,0.8408203,-0.0625,1.0,-0.03125,-9.6875,-2.1875,8.3125
1695734621308,-0.53027344,-0.022460938,0.8574219,-0.25,0.25,0.4375,0.0,0.0,0.0
1695734621365,-0.5361328,-0.030273438,0.8457031,-0.1875,0.5625,0.5,0.0,0.0,0.0
1695734621388,-0.53125,-0.01953125,0.84277344,-0.125,0.09375,0.15625,0.0,0.0,0.0
1695734621428,-0.5439453,-0.025390625,0.86328125,0.0,0.1875,0.09375,0.0,0.0,0.0
1695734621469,-0.5332031,-0.02734375,0.86035156,-0.0625,-0.09375,0.09375,0.0,0.0,0.0
1695734621508,-0.53222656,-0.02734375,0.84472656,-0.0625,-0.03125,0.15625,0.0,0.0,0.0
1695734621547,-0.5205078,-0.024414062,0.85546875,-0.1875,-0.15625,0.4375,0.0,0.0,0.0
1695734621587,-0.5341797,-0.026367188,0.85839844,0.125,-0.34375,0.5,0.0,0.0,0.0
1695734621627,-0.5371094,-0.0234375,0.85546875,0.125,0.03125,0.5625,0.0,0.0,0.0
1695734621685,-0.53515625,-0.028320312,0.859375,0.25,-0.15625,0.75,0.0,0.0,0.0
1695734621705,-0.54003906,-0.028320312,0.8535156,0.3125,-0.15625,0.5,0.0,0.0,0.0
1695734621747,-0.5263672,-0.028320312,0.8564453,0.125,-0.21875,0.5625,0.0,0.0,0.0
1695734621790,-0.5341797,-0.028320312,0.84765625,0.125,-0.28125,0.8125,-9.6875,-1.6875,8.875
1695734621826,-0.5390625,-0.020507812,0.8564453,0.0625,-0.21875,0.75,0.0,0.0,0.0
1695734621865,-0.53222656,-0.016601562,0.85839844,0.0,-0.40625,0.9375,0.0,0.0,0.0
1695734621926,-0.5341797,-0.024414062,0.8564453,0.0625,-0.03125,0.8125,0.0,0.0,0.0
1695734621945,-0.5410156,-0.030273438,0.8691406,-0.0625,-0.21875,1.25,0.0,0.0,0.0
1695734622006,-0.5341797,-0.0146484375,0.85253906,-0.0625,0.4375,0.5625,0.0,0.0,0.0
1695734622025,-0.5371094,-0.015625,0.85253906,0.1875,-0.34375,0.9375,0.0,0.0,0.0
1695734622065,-0.5341797,-0.015625,0.85253906,0.25,0.03125,1.0625,0.0,0.0,0.0
1695734622105,-0.52734375,-0.024414062,0.8574219,0.25,-0.34375,1.125,0.0,0.0,0.0
1695734622145,-0.5390625,-0.017578125,0.86621094,0.25,-1.03125,0.875,0.0,0.0,0.0
1695734622185,-0.5253906,-0.025390625,0.8535156,0.125,-0.46875,1.0625,0.0,0.0,0.0
1695734622246,-0.5341797,-0.015625,0.85839844,0.25,-0.34375,0.875,0.0,0.0,0.0
1695734622265,-0.53125,-0.018554688,0.85058594,-0.0625,-0.40625,1.0625,-8.6875,-0.6875,8.3125
1695734622305,-0.52734375,-0.015625,0.85058594,0.0625,-0.21875,0.9375,0.0,0.0,0.0
1695734622345,-0.53027344,-0.013671875,0.8623047,0.125,-0.34375,1.125,0.0,0.0,0.0
1695734622385,-0.53515625,-0.02734375,0.84765625,0.25,-0.40625,0.875,0.0,0.0,0.0
1695734622446,-0.53515625,-0.020507812,0.8466797,-0.0625,0.03125,0.6875,0.0,0.0,0.0
1695734622465,-0.5263672,-0.0146484375,0.86035156,0.0,0.1875,0.5,0.0,0.0,0.0
1695734622505,-0.5263672,-0.0234375,0.8642578,-0.0625,0.03125,0.3125,0.0,0.0,0.0
1695734622545,-0.53125,-0.021484375,0.86035156,-0.0625,-0.21875,0.3125,0.0,0.0,0.0
1695734622585,-0.5263672,-0.01171875,0.85058594,-0.125,0.375,-0.03125,0.0,0.0,0.0
1695734622646,-0.5361328,-0.02734375,0.8466797,-0.0625,0.4375,0.4375,0.0,0.0,0.0
1695734622665,-0.5332031,-0.022460938,0.8574219,0.0,0.4375,0.03125,0.0,0.0,0.0
1695734622705,-0.5361328,-0.0068359375,0.85546875,-0.1875,0.15625,0.03125,0.0,0.0,0.0
1695734622745,-0.54296875,-0.01953125,0.8515625,0.125,-0.03125,0.03125,0.0,0.0,0.0
1695734622785,-0.5341797,-0.030273438,0.85546875,-0.125,-0.34375,-0.03125,-11.1875,-1.6875,7.875
1695734622825,-0.5283203,-0.024414062,0.86816406,-0.125,-0.21875,-0.15625,0.0,0.0,0.0
1695734622865,-0.53125,-0.017578125,0.84277344,-0.1875,-0.15625,-0.03125,0.0,0.0,0.0
1695734622905,-0.53125,-0.016601562,0.8466797,-0.0625,-0.03125,0.15625,0.0,0.0,0.0
1695734622945,-0.52441406,-0.01953125,0.8642578,-0.0625,0.03125,-0.15625,0.0,0.0,0.0
1695734622985,-0.5410156,-0.021484375,0.8574219,0.0,0.03125,-0.40625,0.0,0.0,0.0
1695734623025,-0.5341797,-0.0146484375,0.87109375,0.0,0.15625,-0.34375,0.0,0.0,0.0
1695734623065,-0.5332031,-0.017578125,0.86328125,-0.0625,0.03125,-0.46875,0.0,0.0,0.0
1695734623105,-0.53515625,-0.017578125,0.85839844,-0.0625,0.15625,-0.46875,0.0,0.0,0.0
1695734623145,-0.5263672,-0.018554688,0.8574219,-0.0625,0.09375,-0.28125,0.0,0.0,0.0
1695734623227,-0.53125,-0.020507812,0.86328125,-0.0625,0.09375,-0.09375,0.0,0.0,0.0
1695734623230,-0.5214844,-0.018554688,0.86035156,0.0,0.09375,-0.09375,0.0,0.0,0.0
1695734623265,-0.5292969,-0.018554688,0.86035156,0.0,0.375,0.15625,-8.8125,-2.3125,9.5
1695734623305,-0.53222656,-0.0146484375,0.8544922,-0.1875,0.625,-0.21875,0.0,0.0,0.0
1695734623345,-0.53027344,-0.020507812,0.85839844,-0.1875,0.5,-0.28125,0.0,0.0,0.0
1695734623386,-0.53027344,-0.013671875,0.8515625,0.0,0.1875,0.09375,0.0,0.0,0.0
1695734623425,-0.53515625,-0.017578125,0.8574219,0.0,0.4375,0.03125,0.0,0.0,0.0
1695734623467,-0.53027344,-0.016601562,0.86035156,-0.0625,0.1875,0.03125,0.0,0.0,0.0
1695734623527,-0.53222656,-0.01953125,0.8457031,-0.0625,0.03125,-0.21875,0.0,0.0,0.0
1695734623545,-0.5292969,-0.026367188,0.8515625,-0.1875,0.09375,-0.03125,0.0,0.0,0.0
1695734623585,-0.5234375,-0.022460938,0.8486328,0.0,0.1875,0.09375,0.0,0.0,0.0
1695734623625,-0.52734375,-0.01953125,0.85839844,0.0,0.4375,0.09375,0.0,0.0,0.0
1695734623665,-0.5253906,-0.02734375,0.85546875,-0.125,0.15625,0.1875,0.0,0.0,0.0
1695734623725,-0.53515625,-0.026367188,0.8564453,-0.0625,0.1875,0.03125,0.0,0.0,0.0
1695734623748,-0.5292969,-0.022460938,0.87109375,-0.0625,0.1875,0.09375,0.0,0.0,0.0
1695734623786,-0.5263672,-0.01953125,0.8574219,0.0,0.3125,0.15625,-9.4375,-3.1875,8.625
1695734623825,-0.5292969,-0.028320312,0.8564453,-0.0625,0.09375,0.15625,0.0,0.0,0.0
1695734623865,-0.5283203,-0.02734375,0.86816406,0.0625,0.1875,0.09375,0.0,0.0,0.0
1695734623905,-0.5283203,-0.016601562,0.8652344,0.0,0.25,0.15625,0.0,0.0,0.0
1695734623966,-0.5371094,-0.02734375,0.8613281,-0.0625,0.5,0.375,0.0,0.0,0.0
1695734623985,-0.53808594,-0.0234375,0.85253906,-0.25,0.9375,-0.21875,0.0,0.0,0.0
1695734624025,-0.5283203,-0.018554688,0.8486328,-0.1875,0.03125,0.09375,0.0,0.0,0.0
1695734624065,-0.54003906,-0.020507812,0.8466797,-0.0625,0.09375,0.1875,0.0,0.0,0.0
1695734624105,-0.5253906,-0.029296875,0.8564453,0.0,0.3125,0.03125,0.0,0.0,0.0
1695734624145,-0.53125,-0.021484375,0.86035156,-0.0625,0.09375,-0.03125,0.0,0.0,0.0
1695734624185,-0.53027344,-0.018554688,0.8544922,-0.0625,0.09375,0.15625,0.0,0.0,0.0
1695734624225,-0.53027344,-0.02734375,0.8515625,0.0,0.25,0.3125,0.0,0.0,0.0
1695734624265,-0.5292969,-0.025390625,0.8515625,-0.0625,0.15625,0.1875,-10.9375,-2.3125,7.6875
1695734624346,-0.5341797,-0.017578125,0.8564453,-0.125,0.15625,0.25,0.0,0.0,0.0
1695734624348,-0.53222656,-0.025390625,0.8779297,0.0,0.3125,0.15625,0.0,0.0,0.0
1695734624387,-0.53027344,-0.022460938,0.85839844,0.1875,0.1875,0.1875,0.0,0.0,0.0
1695734624425,-0.5341797,-0.025390625,0.8564453,0.125,0.1875,0.1875,0.0,0.0,0.0
1695734624466,-0.5332031,-0.032226562,0.8564453,0.0625,0.3125,0.1875,0.0,0.0,0.0
1695734624505,-0.5283203,-0.016601562,0.85058594,0.0,0.375,0.1875,0.0,0.0,0.0
1695734624545,-0.5283203,-0.02734375,0.86035156,-0.0625,0.25,0.3125,0.0,0.0,0.0
1695734624585,-0.5341797,-0.013671875,0.8691406,0.0,0.09375,0.4375,0.0,0.0,0.0
1695734624629,-0.5263672,-0.020507812,0.8701172,0.0,0.4375,0.25,0.0,0.0,0.0
1695734624665,-0.5292969,-0.022460938,0.8486328,-0.0625,0.375,0.25,0.0,0.0,0.0
1695734624726,-0.5263672,-0.028320312,0.8574219,0.0,0.375,0.09375,0.0,0.0,0.0
1695734624747,-0.5361328,-0.017578125,0.8613281,0.0625,0.15625,0.25,0.0,0.0,0.0
1695734624806,-0.53027344,-0.01953125,0.8691406,-0.125,0.1875,0.1875,-10.3125,-3.0625,8.125
1695734624827,-0.5419922,-0.018554688,0.8564453,-0.0625,0.15625,0.25,0.0,0.0,0.0
1695734624867,-0.53222656,-0.022460938,0.8496094,-0.0625,-0.21875,0.1875,0.0,0.0,0.0
1695734624905,-0.53515625,-0.022460938,0.84765625,-0.0625,0.09375,0.25,0.0,0.0,0.0
1695734624949,-0.53125,-0.026367188,0.85546875,0.0,0.25,0.25,0.0,0.0,0.0
1695734624991,-0.52734375,-0.022460938,0.8652344,0.0625,0.09375,0.15625,0.0,0.0,0.0
1695734625045,-0.5332031,-0.0234375,0.84765625,0.0,0.15625,0.375,0.0,0.0,0.0
1695734625066,-0.5361328,-0.020507812,0.84765625,0.0625,0.25,0.5625,0.0,0.0,0.0
1695734625106,-0.54296875,-0.028320312,0.84765625,0.125,-0.21875,0.8125,0.0,0.0,0.0
1695734625146,-0.53125,-0.025390625,0.8457031,0.0,0.03125,0.5625,0.0,0.0,0.0
1695734625186,-0.5390625,-0.018554688,0.8466797,0.0625,-0.15625,0.6875,0.0,0.0,0.0
1695734625228,-0.53515625,-0.028320312,0.8486328,0.1875,-0.28125,0.6875,0.0,0.0,0.0
1695734625267,-0.53125,-0.02734375,0.85253906,0.0625,-0.21875,0.9375,-10.0,-2.4375,7.875
1695734625307,-0.53222656,-0.021484375,0.85058594,0.1875,-0.34375,1.0,0.0,0.0,0.0
1695734625347,-0.5292969,-0.025390625,0.84765625,-0.0625,0.03125,0.75,0.0,0.0,0.0
1695734625387,-0.5371094,-0.021484375,0.86328125,-0.1875,-0.03125,0.8125,0.0,0.0,0.0
1695734625428,-0.53027344,-0.025390625,0.84765625,0.0,0.25,0.375,0.0,0.0,0.0
1695734625485,-0.54003906,-0.021484375,0.85839844,-0.0625,-0.09375,0.5625,0.0,0.0,0.0
1695734625507,-0.5175781,-0.020507812,0.8535156,0.0,0.375,0.6875,0.0,0.0,0.0
1695734625548,-0.5292969,-0.026367188,0.8515625,-0.0625,0.15625,0.75,0.0,0.0,0.0
1695734625587,-0.53027344,-0.021484375,0.8564453,0.125,-0.09375,0.875,0.0,0.0,0.0
1695734625628,-0.53027344,-0.024414062,0.8574219,0.125,0.15625,0.875,0.0,0.0,0.0
1695734625667,-0.53222656,-0.025390625,0.85253906,0.0,0.375,1.0,0.0,0.0,0.0
1695734625706,-0.53027344,-0.020507812,0.859375,-0.0625,-0.03125,0.8125,0.0,0.0,0.0
1695734625747,-0.5371094,-0.025390625,0.84765625,0.0,-0.03125,0.5,0.0,0.0,0.0
1695734625786,-0.5283203,-0.020507812,0.8378906,0.0,0.03125,0.5,-10.4375,-1.6875,8.875
1695734625826,-0.5341797,-0.021484375,0.8544922,0.0625,-0.03125,0.625,0.0,0.0,0.0
1695734625867,-0.53222656,-0.0234375,0.85058594,0.0,-0.03125,0.75,0.0,0.0,0.0
1695734625925,-0.5361328,-0.017578125,0.8496094,-0.0625,0.15625,0.5625,0.0,0.0,0.0
1695734625946,-0.5253906,-0.01953125,0.8486328,0.125,0.1875,0.5625,0.0,0.0,0.0
1695734625986,-0.52441406,-0.01953125,0.84472656,0.0625,0.1875,0.25,0.0,0.0,0.0
1695734626027,-0.53515625,-0.020507812,0.8544922,0.0625,0.5625,-0.09375,0.0,0.0,0.0
1695734626086,-0.53515625,-0.020507812,0.8613281,0.1875,0.375,0.3125,0.0,0.0,0.0
1695734626106,-0.5332031,-0.01171875,0.84765625,0.25,0.5625,0.03125,0.0,0.0,0.0
1695734626146,-0.53027344,-0.020507812,0.8486328,-0.0625,0.3125,-0.03125,0.0,0.0,0.0
1695734626205,-0.5341797,-0.013671875,0.8535156,-0.125,0.03125,0.03125,0.0,0.0,0.0
1695734626268,-0.52246094,-0.021484375,0.8574219,-0.0625,-0.09375,-0.09375,0.0,0.0,0.0
1695734626269,-0.53125,-0.021484375,0.85058594,-0.1875,0.03125,-0.40625,-9.4375,-2.4375,8.875
1695734626306,-0.5332031,-0.026367188,0.8515625,-0.125,-0.03125,-0.09375,0.0,0.0,0.0
1695734626347,-0.53222656,-0.021484375,0.8535156,-0.125,0.3125,-0.21875,0.0,0.0,0.0
1695734626386,-0.5341797,-0.0234375,0.84765625,0.0,0.3125,-0.09375,0.0,0.0,0.0
1695734626426,-0.5371094,-0.018554688,0.8535156,0.0625,0.375,0.15625,0.0,0.0,0.0
1695734626467,-0.53125,-0.0234375,0.84765625,0.25,0.4375,0.1875,0.0,0.0,0.0
1695734626506,-0.5419922,-0.020507812,0.84765625,0.0,0.25,0.1875,0.0,0.0,0.0
1695734626546,-0.5371094,-0.0146484375,0.8642578,0.125,0.3125,-0.03125,0.0,0.0,0.0
1695734626586,-0.53125,-0.01953125,0.85058594,-0.0625,0.03125,0.03125,0.0,0.0,0.0
1695734626627,-0.5390625,-0.025390625,0.8544922,0.0,0.15625,0.09375,0.0,0.0,0.0
1695734626666,-0.53222656,-0.020507812,0.8720703,-0.0625,0.25,-0.15625,0.0,0.0,0.0
1695734626705,-0.5361328,-0.025390625,0.8613281,-0.0625,0.1875,-0.09375,0.0,0.0,0.0
1695734626747,-0.5361328,-0.017578125,0.8486328,-0.0625,0.5,-0.28125,0.0,0.0,0.0
1695734626786,-0.53515625,-0.025390625,0.86621094,0.0,0.1875,-0.34375,-8.8125,-2.0,8.75
1695734626827,-0.5390625,-0.024414062,0.8544922,-0.125,0.09375,-0.28125,0.0,0.0,0.0
1695734626885,-0.52734375,-0.025390625,0.8496094,-0.125,0.3125,-0.40625,0.0,0.0,0.0
1695734626908,-0.53027344,-0.0234375,0.85839844,0.0,0.3125,-0.40625,0.0,0.0,0.0
1695734626948,-0.53222656,-0.0234375,0.8535156,0.0,0.4375,-0.21875,0.0,0.0,0.0
1695734627005,-0.52441406,-0.017578125,0.85546875,-0.0625,0.25,0.09375,0.0,0.0,0.0
1695734627027,-0.53027344,-0.021484375,0.85546875,-0.1875,0.625,0.03125,0.0,0.0,0.0
1695734627067,-0.53125,-0.021484375,0.85058594,0.0,0.375,0.1875,0.0,0.0,0.0
1695734627107,-0.5341797,-0.025390625,0.8515625,-0.125,0.5625,0.09375,0.0,0.0,0.0
1695734627147,-0.5410156,-0.021484375,0.8574219,-0.0625,0.5,0.03125,0.0,0.0,0.0
1695734627189,-0.5390625,-0.026367188,0.8574219,0.0625,0.1875,0.03125,0.0,0.0,0.0
1695734627229,-0.5390625,-0.032226562,0.8564453,-0.0625,0.09375,-0.03125,0.0,0.0,0.0
1695734627267,-0.54003906,-0.024414062,0.85253906,-0.1875,0.4375,-0.21875,-10.9375,-3.8125,8.4375
1695734627308,-0.5371094,-0.029296875,0.84472656,-0.125,0.09375,-0.03125,0.0,0.0,0.0
1695734627367,-0.53515625,-0.032226562,0.86035156,-0.1875,0.5625,0.03125,0.0,0.0,0.0
1695734627386,-0.54003906,-0.026367188,0.8564453,0.0,0.3125,-0.09375,0.0,0.0,0.0
1695734627425,-0.5371094,-0.038085938,0.85253906,-0.0625,1.25,-0.34375,0.0,0.0,0.0
1695734627467,-0.5390625,-0.028320312,0.8564453,-0.0625,0.25,0.1875,0.0,0.0,0.0
1695734627509,-0.5361328,-0.033203125,0.84472656,0.25,0.09375,0.5,0.0,0.0,0.0
1695734627545,-0.5371094,-0.025390625,0.86328125,-0.0625,0.15625,0.375,0.0,0.0,0.0
1695734627587,-0.53125,-0.021484375,0.8544922,0.1875,-0.15625,0.3125,0.0,0.0,0.0
1695734627627,-0.53808594,-0.026367188,0.85058594,0.0,0.03125,0.1875,0.0,0.0,0.0
1695734627667,-0.53027344,-0.02734375,0.8564453,-0.125,0.09375,0.15625,0.0,0.0,0.0
1695734627706,-0.53808594,-0.026367188,0.8457031,0.0625,-0.09375,0.25,0.0,0.0,0.0
1695734627765,-0.5390625,-0.015625,0.85839844,-0.0625,0.03125,0.1875,0.0,0.0,0.0
1695734627786,-0.53125,-0.03125,0.8544922,-0.125,0.15625,0.1875,-10.0,-2.1875,8.875
1695734627825,-0.53027344,-0.034179688,0.8457031,0.25,0.1875,0.25,0.0,0.0,0.0
1695734627865,-0.5371094,-0.029296875,0.8486328,0.0,0.1875,0.25,0.0,0.0,0.0
1695734627905,-0.5371094,-0.028320312,0.8408203,0.0625,0.09375,0.4375,0.0,0.0,0.0
1695734627945,-0.5332031,-0.033203125,0.85058594,0.0,0.5,0.375,0.0,0.0,0.0
1695734627986,-0.54003906,-0.030273438,0.84277344,0.0,0.3125,0.4375,0.0,0.0,0.0
1695734628025,-0.5361328,-0.025390625,0.84472656,0.0,0.25,0.5,0.0,0.0,0.0
1695734628067,-0.5332031,-0.016601562,0.85546875,-0.0625,0.15625,0.09375,0.0,0.0,0.0
1695734628106,-0.53515625,-0.022460938,0.8613281,0.0,0.1875,0.15625,0.0,0.0,0.0
1695734628145,-0.54003906,-0.038085938,0.8466797,-0.0625,0.03125,0.25,0.0,0.0,0.0
1695734628185,-0.53125,-0.028320312,0.8466797,0.0625,0.25,0.25,0.0,0.0,0.0
1695734628225,-0.53222656,-0.037109375,0.84765625,0.0625,-0.03125,0.15625,0.0,0.0,0.0
1695734628265,-0.5361328,-0.03125,0.8613281,0.0625,-0.09375,0.25,-10.4375,-3.9375,6.5
1695734628306,-0.5234375,-0.0234375,0.85253906,-0.0625,0.15625,0.15625,0.0,0.0,0.0
1695734628345,-0.53222656,-0.02734375,0.85839844,-0.125,0.1875,0.3125,0.0,0.0,0.0
1695734628385,-0.53125,-0.033203125,0.8564453,0.0625,0.09375,0.375,0.0,0.0,0.0
1695734628425,-0.53808594,-0.018554688,0.85546875,0.0,0.1875,0.3125,0.0,0.0,0.0
1695734628467,-0.54003906,-0.029296875,0.8417969,0.0625,0.1875,0.3125,0.0,0.0,0.0
1695734628587,-0.54003906,-0.024414062,0.8417969,0.1875,0.09375,0.25,0.0,0.0,0.0
1695734628590,-0.54003906,-0.0234375,0.85839844,0.0625,-0.03125,0.1875,0.0,0.0,0.0
1695734628593,-0.5332031,-0.020507812,0.85253906,0.1875,-0.15625,0.25,0.0,0.0,0.0
1695734628647,-0.53222656,-0.033203125,0.8466797,0.0,-0.09375,0.5,0.0,0.0,0.0
1695734628665,-0.5390625,-0.018554688,0.8623047,0.125,-0.34375,0.6875,0.0,0.0,0.0
1695734628727,-0.5332031,-0.025390625,0.85839844,0.125,-0.03125,0.8125,0.0,0.0,0.0
1695734628745,-0.5332031,-0.030273438,0.86035156,-0.0625,-0.09375,0.75,0.0,0.0,0.0
1695734628785,-0.53515625,-0.03125,0.84765625,0.3125,0.25,0.625,-10.625,-2.0,8.75
1695734628825,-0.5361328,-0.032226562,0.8457031,0.125,-0.34375,1.0,0.0,0.0,0.0
1695734628865,-0.5332031,-0.03125,0.8574219,0.0,-0.03125,0.75,0.0,0.0,0.0
1695734628905,-0.5390625,-0.0234375,0.86328125,0.0625,-0.15625,0.75,0.0,0.0,0.0
1695734628945,-0.53125,-0.026367188,0.8535156,0.0625,-0.46875,0.75,0.0,0.0,0.0
1695734628985,-0.54003906,-0.018554688,0.8671875,0.0625,-0.28125,0.875,0.0,0.0,0.0
1695734629025,-0.5341797,-0.028320312,0.86035156,-0.1875,0.09375,0.8125,0.0,0.0,0.0
1695734629066,-0.53515625,-0.025390625,0.8496094,-0.0625,-0.21875,0.9375,0.0,0.0,0.0
1695734629105,-0.5341797,-0.030273438,0.85839844,0.1875,-0.34375,1.1875,0.0,0.0,0.0
1695734629145,-0.5341797,-0.024414062,0.8544922,0.0625,-0.34375,1.1875,0.0,0.0,0.0
1695734629226,-0.5390625,-0.018554688,0.85546875,0.25,-0.09375,1.0,0.0,0.0,0.0
1695734629229,-0.53125,-0.03125,0.8574219,0.5,-0.21875,0.9375,0.0,0.0,0.0
1695734629287,-0.53515625,-0.029296875,0.85839844,0.25,0.09375,0.5625,-10.4375,-2.1875,8.625
1695734629307,-0.5292969,-0.020507812,0.85058594,0.25,0.15625,0.5625,0.0,0.0,0.0
1695734629346,-0.5341797,-0.0234375,0.8486328,0.3125,-0.34375,0.9375,0.0,0.0,0.0
1695734629385,-0.5283203,-0.022460938,0.8574219,-0.0625,0.3125,0.5625,0.0,0.0,0.0
1695734629425,-0.5341797,-0.020507812,0.8544922,-0.0625,-0.28125,1.125,0.0,0.0,0.0
1695734629465,-0.5283203,-0.01953125,0.8496094,0.0,0.1875,0.5625,0.0,0.0,0.0
1695734629505,-0.5332031,-0.017578125,0.86621094,-0.25,0.3125,0.15625,0.0,0.0,0.0
1695734629546,-0.5283203,-0.022460938,0.85839844,0.125,0.4375,-0.15625,0.0,0.0,0.0
1695734629585,-0.53515625,-0.016601562,0.86621094,0.125,0.1875,-0.21875,0.0,0.0,0.0
1695734629625,-0.53222656,-0.021484375,0.85058594,0.125,0.03125,-0.03125,0.0,0.0,0.0
1695734629665,-0.5371094,-0.032226562,0.8574219,-0.0625,-0.03125,0.15625,0.0,0.0,0.0
1695734629710,-0.5371094,-0.0126953125,0.8515625,-0.125,-0.09375,0.375,0.0,0.0,0.0
1695734629767,-0.53222656,-0.0234375,0.86035156,0.0,0.09375,0.03125,0.0,0.0,0.0
1695734629785,-0.53027344,-0.022460938,0.84472656,-0.0625,0.25,-0.28125,-10.3125,-3.0625,9.8125
1695734629825,-0.52734375,-0.0107421875,0.8544922,0.0,0.4375,-0.28125,0.0,0.0,0.0
1695734629865,-0.5283203,-0.033203125,0.86816406,0.0625,0.1875,-0.59375,0.0,0.0,0.0
1695734629927,-0.5341797,-0.0234375,0.8652344,0.0625,0.375,-0.40625,0.0,0.0,0.0
1695734629945,-0.53222656,-0.022460938,0.86328125,0.0625,0.25,-0.40625,0.0,0.0,0.0
1695734629985,-0.5332031,-0.020507812,0.8564453,0.0,0.875,-0.15625,0.0,0.0,0.0
1695734630047,-0.5263672,-0.021484375,0.8623047,-0.1875,-0.09375,-0.15625,0.0,0.0,0.0
1695734630065,-0.52734375,-0.026367188,0.8574219,-0.1875,0.25,-0.15625,0.0,0.0,0.0
1695734630105,-0.53125,-0.022460938,0.85058594,-0.65625,0.3125,-0.53125,0.0,0.0,0.0
1695734630146,-0.53027344,-0.026367188,0.8486328,-0.5625,0.03125,-0.59375,0.0,0.0,0.0
1695734630185,-0.52734375,-0.029296875,0.8486328,-1.21875,-0.21875,-0.53125,0.0,0.0,0.0
1695734630225,-0.5292969,-0.029296875,0.8564453,-0.78125,0.8125,-0.65625,0.0,0.0,0.0
1695734630265,-0.53222656,-0.03125,0.85546875,-1.15625,-0.15625,-0.65625,-10.4375,-1.4375,8.3125
1695734630305,-0.5341797,-0.029296875,0.86328125,-1.59375,1.0,-2.0,0.0,0.0,0.0
1695734630345,-0.5332031,-0.028320312,0.8544922,-1.71875,0.9375,-1.09375,0.0,0.0,0.0
1695734630387,-0.5419922,-0.029296875,0.8515625,-1.65625,1.0,-0.71875,0.0,0.0,0.0
1695734630425,-0.54296875,-0.03515625,0.8388672,-0.90625,0.3125,-0.40625,0.0,0.0,0.0
1695734630467,-0.5283203,-0.038085938,0.8496094,-0.3125,0.15625,-0.15625,0.0,0.0,0.0
1695734630505,-0.5419922,-0.032226562,0.84472656,-0.0625,-0.09375,-0.34375,0.0,0.0,0.0
1695734630545,-0.5332031,-0.026367188,0.84277344,-0.3125,0.4375,-1.15625,0.0,0.0,0.0
1695734630585,-0.5185547,-0.038085938,0.8671875,-0.78125,0.625,-1.15625,0.0,0.0,0.0
1695734630625,-0.53027344,-0.032226562,0.8544922,-1.21875,0.375,-0.65625,0.0,0.0,0.0
1695734630666,-0.53515625,-0.053710938,0.85058594,-0.71875,0.3125,-0.15625,0.0,0.0,0.0
1695734630706,-0.5214844,-0.037109375,0.8642578,-0.90625,0.25,0.375,0.0,0.0,0.0
1695734630746,-0.5390625,-0.040039062,0.85253906,-0.78125,0.9375,0.1875,0.0,0.0,0.0
1695734630805,-0.5253906,-0.036132812,0.83496094,-0.71875,0.9375,0.1875,-10.9375,-2.0,7.375
1695734630826,-0.53515625,-0.036132812,0.8339844,-0.375,0.5625,-0.15625,0.0,0.0,0.0
1695734630866,-0.5292969,-0.045898438,0.85546875,0.6875,0.03125,0.09375,0.0,0.0,0.0
1695734630907,-0.5292969,-0.055664062,0.8642578,0.78125,1.0,0.375,0.0,0.0,0.0
1695734630965,-0.5332031,-0.051757812,0.84472656,0.84375,0.5625,1.0625,0.0,0.0,0.0
1695734630986,-0.5361328,-0.022460938,0.8486328,0.84375,-0.53125,1.25,0.0,0.0,0.0
1695734631026,-0.5371094,-0.030273438,0.8535156,1.15625,-0.53125,1.3125,0.0,0.0,0.0
1695734631065,-0.5263672,-0.033203125,0.8457031,1.03125,-0.78125,1.0,0.0,0.0,0.0
1695734631106,-0.53808594,-0.037109375,0.8515625,2.03125,-2.53125,1.65625,0.0,0.0,0.0
1695734631145,-0.5283203,-0.0390625,0.8652344,1.34375,-0.84375,0.625,0.0,0.0,0.0
1695734631207,-0.52734375,-0.036132812,0.8701172,1.46875,-0.03125,1.125,0.0,0.0,0.0
1695734631227,-0.52734375,-0.02734375,0.8701172,1.84375,-1.09375,1.59375,0.0,0.0,0.0
1695734631267,-0.5341797,-0.016601562,0.8457031,1.21875,-0.53125,1.3125,-8.9375,-2.1875,9.375
1695734631308,-0.5439453,-0.03515625,0.86328125,1.15625,-0.46875,0.5625,0.0,0.0,0.0
1695734631347,-0.5214844,-0.0234375,0.8408203,0.84375,-0.34375,0.6875,0.0,0.0,0.0
1695734631387,-0.5419922,-0.021484375,0.8417969,0.125,-0.09375,1.46875,0.0,0.0,0.0
1695734631428,-0.5263672,-0.026367188,0.8544922,-0.65625,-0.15625,1.3125,0.0,0.0,0.0
1695734631467,-0.53125,-0.022460938,0.8574219,-0.59375,0.9375,0.4375,0.0,0.0,0.0
1695734631510,-0.52734375,-0.03125,0.84472656,-0.90625,1.59375,-0.46875,0.0,0.0,0.0
1695734631565,-0.53027344,-0.041992188,0.8544922,-1.03125,2.03125,-0.96875,0.0,0.0,0.0
1695734631586,-0.54003906,-0.03515625,0.87109375,0.0,1.125,-0.40625,0.0,0.0,0.0
1695734631626,-0.53125,-0.038085938,0.8466797,0.0,1.1875,-0.53125,0.0,0.0,0.0
1695734631666,-0.5390625,-0.037109375,0.84765625,0.3125,1.0625,-0.40625,0.0,0.0,0.0
1695734631706,-0.53125,-0.036132812,0.86035156,0.375,0.75,-0.46875,0.0,0.0,0.0
1695734631746,-0.5419922,-0.034179688,0.8564453,0.3125,0.8125,-0.34375,0.0,0.0,0.0
1695734631786,-0.5439453,-0.030273438,0.8652344,0.3125,0.5,0.1875,-10.75,-2.4375,9.625
1695734631826,-0.53808594,-0.04296875,0.8486328,0.1875,0.8125,0.375,0.0,0.0,0.0
1695734631866,-0.54296875,-0.036132812,0.84277344,0.0,0.4375,0.875,0.0,0.0,0.0
1695734631906,-0.53515625,-0.034179688,0.8496094,0.25,0.09375,1.0625,0.0,0.0,0.0
1695734631946,-0.53222656,-0.036132812,0.85253906,0.125,-0.28125,1.25,0.0,0.0,0.0
1695734631987,-0.5410156,-0.028320312,0.84277344,0.1875,-0.15625,1.3125,0.0,0.0,0.0
1695734632027,-0.5419922,-0.03515625,0.8515625,0.1875,-0.46875,1.25,0.0,0.0,0.0
1695734632066,-0.5419922,-0.026367188,0.8496094,0.3125,-0.03125,0.9375,0.0,0.0,0.0
1695734632107,-0.54785156,-0.032226562,0.84765625,0.5,-0.09375,0.8125,0.0,0.0,0.0
1695734632146,-0.5371094,-0.029296875,0.8544922,0.5625,-0.53125,1.0625,0.0,0.0,0.0
1695734632185,-0.5390625,-0.029296875,0.8564453,0.5,-0.21875,0.875,0.0,0.0,0.0
1695734632226,-0.5390625,-0.032226562,0.8544922,0.3125,-0.34375,0.75,0.0,0.0,0.0
1695734632266,-0.5361328,-0.026367188,0.84765625,0.25,-0.28125,0.8125,-10.3125,-2.3125,8.75
1695734632325,-0.5332031,-0.037109375,0.8574219,0.4375,-0.65625,0.9375,0.0,0.0,0.0
1695734632347,-0.5341797,-0.026367188,0.85253906,0.25,-0.21875,0.875,0.0,0.0,0.0
1695734632386,-0.5449219,-0.037109375,0.84277344,0.6875,-0.46875,0.875,0.0,0.0,0.0
1695734632427,-0.53027344,-0.02734375,0.86035156,0.5,-0.46875,0.9375,0.0,0.0,0.0
1695734632487,-0.53515625,-0.026367188,0.8496094,0.5625,-0.53125,0.8125,0.0,0.0,0.0
1695734632508,-0.5419922,-0.024414062,0.85546875,0.5,-0.53125,1.0,0.0,0.0,0.0
1695734632546,-0.5361328,-0.025390625,0.8564453,0.3125,-0.34375,0.875,0.0,0.0,0.0
1695734632587,-0.5253906,-0.025390625,0.84765625,0.1875,0.25,0.4375,0.0,0.0,0.0
1695734632626,-0.53222656,-0.03515625,0.8544922,0.375,0.1875,0.375,0.0,0.0,0.0
1695734632666,-0.5292969,-0.032226562,0.8613281,0.1875,0.09375,0.4375,0.0,0.0,0.0
1695734632706,-0.53515625,-0.030273438,0.86035156,0.25,-0.03125,0.625,0.0,0.0,0.0
1695734632746,-0.53515625,-0.024414062,0.85253906,0.25,-0.09375,0.625,0.0,0.0,0.0
1695734632805,-0.5292969,-0.02734375,0.8408203,0.3125,-0.53125,0.75,-9.5625,-3.375,8.125
1695734632826,-0.5292969,-0.0146484375,0.859375,0.5,-0.59375,0.9375,0.0,0.0,0.0
1695734632866,-0.53808594,-0.016601562,0.8574219,0.1875,-0.15625,0.8125,0.0,0.0,0.0
1695734632907,-0.5361328,-0.029296875,0.8652344,0.125,-0.03125,0.8125,0.0,0.0,0.0
1695734632946,-0.5341797,-0.030273438,0.86035156,-0.0625,-0.09375,0.5625,0.0,0.0,0.0
1695734632987,-0.5361328,-0.018554688,0.8417969,-0.0625,-0.03125,0.5625,0.0,0.0,0.0
1695734633086,-0.5253906,-0.025390625,0.859375,-0.3125,0.1875,0.375,0.0,0.0,0.0
1695734633088,-0.53125,-0.015625,0.8642578,-0.0625,-0.46875,0.5625,0.0,0.0,0.0
1695734633105,-0.53027344,-0.025390625,0.8544922,0.3125,0.3125,0.4375,0.0,0.0,0.0
1695734633146,-0.5292969,-0.032226562,0.86328125,0.0,0.625,0.4375,0.0,0.0,0.0
1695734633186,-0.5341797,-0.02734375,0.8574219,0.5,0.875,0.625,0.0,0.0,0.0
1695734633226,-0.5341797,-0.028320312,0.8544922,0.84375,0.5,0.6875,0.0,0.0,0.0
1695734633285,-0.5371094,-0.03125,0.8564453,0.5,0.375,0.1875,-9.4375,-2.1875,9.9375
1695734633307,-0.5449219,-0.030273438,0.8466797,0.5,0.25,0.03125,0.0,0.0,0.0
1695734633348,-0.5292969,-0.022460938,0.85058594,0.4375,0.03125,0.15625,0.0,0.0,0.0
1695734633386,-0.53515625,-0.030273438,0.85058594,0.1875,-0.15625,0.15625,0.0,0.0,0.0
1695734633445,-0.5439453,-0.034179688,0.8574219,0.125,-0.21875,0.1875,0.0,0.0,0.0
1695734633466,-0.5332031,-0.020507812,0.86816406,0.1875,-0.21875,0.25,0.0,0.0,0.0
1695734633525,-0.5341797,-0.024414062,0.8574219,-0.0625,-0.03125,0.03125,0.0,0.0,0.0
1695734633546,-0.53515625,-0.032226562,0.84277344,0.0,0.3125,0.03125,0.0,0.0,0.0
1695734633586,-0.5332031,-0.020507812,0.84375,0.0625,0.3125,-0.03125,0.0,0.0,0.0
1695734633646,-0.5175781,-0.026367188,0.8496094,0.0625,0.4375,-0.09375,0.0,0.0,0.0
1695734633686,-0.5292969,-0.029296875,0.85058594,0.25,0.25,0.25,0.0,0.0,0.0
1695734633726,-0.53515625,-0.030273438,0.85253906,0.125,-0.15625,0.5,0.0,0.0,0.0
1695734633767,-0.5341797,-0.021484375,0.8496094,0.3125,0.03125,0.375,0.0,0.0,0.0
1695734633806,-0.53515625,-0.018554688,0.84472656,0.25,0.15625,0.25,-11.5,-2.1875,8.3125
1695734633847,-0.5390625,-0.026367188,0.84277344,0.125,-0.03125,0.25,0.0,0.0,0.0
1695734633887,-0.5332031,-0.030273438,0.8642578,0.0625,0.09375,0.03125,0.0,0.0,0.0
1695734633926,-0.54003906,-0.036132812,0.8671875,0.125,-0.03125,0.03125,0.0,0.0,0.0
1695734633967,-0.54003906,-0.029296875,0.85546875,0.0,-0.21875,0.1875,0.0,0.0,0.0
1695734634007,-0.53222656,-0.025390625,0.83496094,0.125,-0.09375,-0.03125,0.0,0.0,0.0
1695734634045,-0.5332031,-0.034179688,0.859375,0.125,-0.03125,-0.09375,0.0,0.0,0.0
1695734634087,-0.53125,-0.04296875,0.8515625,0.0625,-0.28125,0.15625,0.0,0.0,0.0
1695734634127,-0.53808594,-0.02734375,0.8574219,0.25,0.25,-0.09375,0.0,0.0,0.0
1695734634167,-0.5371094,-0.026367188,0.85839844,0.3125,-0.15625,0.3125,0.0,0.0,0.0
1695734634207,-0.53515625,-0.028320312,0.84472656,0.375,0.5625,0.1875,0.0,0.0,0.0
1695734634247,-0.5283203,-0.028320312,0.8457031,0.25,0.5625,0.1875,0.0,0.0,0.0
1695734634289,-0.5292969,-0.022460938,0.8613281,0.25,0.25,-0.03125,-10.3125,-2.3125,7.6875
1695734634327,-0.53222656,-0.026367188,0.85839844,0.25,-0.03125,0.1875,0.0,0.0,0.0
1695734634368,-0.5371094,-0.03125,0.84765625,0.0,-0.15625,0.4375,0.0,0.0,0.0
1695734634407,-0.53222656,-0.028320312,0.8466797,-0.0625,-0.21875,0.3125,0.0,0.0,0.0
1695734634447,-0.53125,-0.030273438,0.8564453,-0.0625,-0.09375,0.15625,0.0,0.0,0.0
1695734634487,-0.5341797,-0.029296875,0.85058594,0.0625,0.03125,0.1875,0.0,0.0,0.0
1695734634528,-0.53515625,-0.03125,0.86328125,0.1875,0.3125,0.25,0.0,0.0,0.0
1695734634607,-0.53027344,-0.0234375,0.85839844,-0.0625,-0.90625,0.375,0.0,0.0,0.0
1695734634609,-0.5371094,-0.026367188,0.8496094,0.3125,0.03125,0.5,0.0,0.0,0.0
1695734634647,-0.5292969,-0.020507812,0.84472656,0.125,0.5625,0.5,0.0,0.0,0.0
1695734634708,-0.52441406,-0.028320312,0.8564453,0.375,0.15625,0.625,0.0,0.0,0.0
1695734634727,-0.53027344,-0.030273438,0.8574219,0.1875,0.25,0.5,0.0,0.0,0.0
1695734634765,-0.5263672,-0.036132812,0.8574219,0.1875,-0.09375,0.625,0.0,0.0,0.0
1695734634847,-0.5332031,-0.02734375,0.8457031,0.25,0.03125,0.4375,-9.875,-0.8125,7.6875
1695734634849,-0.5390625,-0.024414062,0.86035156,0.25,0.1875,0.375,0.0,0.0,0.0
1695734634887,-0.5371094,-0.033203125,0.85546875,-0.0625,0.09375,0.5,0.0,0.0,0.0
1695734634926,-0.5390625,-0.026367188,0.8496094,0.0,0.3125,0.09375,0.0,0.0,0.0
1695734634967,-0.5263672,-0.025390625,0.85839844,-0.03125,-0.21875,0.09375,0.0,0.0,0.0
1695734635047,-0.5283203,-0.040039062,0.85253906,-0.15625,0.15625,0.21875,0.0,0.0,0.0
1695734635049,-0.5390625,-0.038085938,0.8535156,-0.15625,0.21875,-0.03125,0.0,0.0,0.0
1695734635087,-0.5292969,-0.02734375,0.8466797,0.15625,-0.21875,0.15625,0.0,0.0,0.0
1695734635127,-0.53515625,-0.021484375,0.8535156,0.03125,0.28125,0.28125,0.0,0.0,0.0
1695734635168,-0.5332031,-0.029296875,0.8535156,-0.03125,0.34375,0.28125,0.0,0.0,0.0
1695734635207,-0.5341797,-0.032226562,0.859375,-0.09375,0.09375,0.28125,0.0,0.0,0.0
1695734635248,-0.5332031,-0.030273438,0.85253906,0.03125,0.09375,0.21875,0.0,0.0,0.0
1695734635287,-0.5361328,-0.022460938,0.86328125,0.09375,0.09375,0.09375,-10.9375,-2.3125,8.75
1695734635327,-0.54296875,-0.026367188,0.85546875,-0.09375,0.03125,0.03125,0.0,0.0,0.0
1695734635385,-0.53027344,-0.028320312,0.84375,-0.15625,0.03125,-0.03125,0.0,0.0,0.0
1695734635407,-0.5341797,-0.033203125,0.84765625,-0.15625,0.15625,0.03125,0.0,0.0,0.0
1695734635448,-0.5341797,-0.026367188,0.85058594,-0.03125,-0.03125,0.15625,0.0,0.0,0.0
1695734635487,-0.5341797,-0.03515625,0.84277344,-0.15625,0.15625,0.09375,0.0,0.0,0.0
1695734635526,-0.53125,-0.033203125,0.8515625,0.03125,0.28125,0.03125,0.0,0.0,0.0
1695734635568,-0.53125,-0.028320312,0.8544922,-0.09375,0.40625,-0.03125,0.0,0.0,0.0
1695734635607,-0.5371094,-0.033203125,0.86035156,-0.15625,0.28125,-0.03125,0.0,0.0,0.0
1695734635647,-0.5371094,-0.020507812,0.8457031,0.15625,0.03125,0.34375,0.0,0.0,0.0
1695734635687,-0.5449219,-0.034179688,0.85546875,-0.15625,-0.03125,0.34375,0.0,0.0,0.0
1695734635727,-0.5371094,-0.029296875,0.8457031,-0.09375,-0.21875,0.03125,0.0,0.0,0.0
1695734635768,-0.5371094,-0.040039062,0.8544922,-0.03125,-0.28125,-0.03125,0.0,0.0,0.0
1695734635807,-0.5419922,-0.03515625,0.8544922,-0.03125,-0.40625,0.09375,-9.125,-2.0,8.125
1695734635847,-0.5332031,-0.033203125,0.8544922,-0.03125,-0.15625,0.03125,0.0,0.0,0.0
1695734635887,-0.5341797,-0.028320312,0.859375,0.09375,-0.28125,0.03125,0.0,0.0,0.0
1695734635927,-0.5361328,-0.029296875,0.8564453,-0.03125,-0.09375,0.15625,0.0,0.0,0.0
1695734635967,-0.5341797,-0.030273438,0.8457031,-0.03125,-0.09375,0.21875,0.0,0.0,0.0
1695734636007,-0.53125,-0.032226562,0.86035156,0.03125,0.09375,0.40625,0.0,0.0,0.0
1695734636047,-0.5410156,-0.02734375,0.84277344,0.15625,-0.09375,0.46875,0.0,0.0,0.0
1695734636087,-0.5439453,-0.02734375,0.86035156,0.15625,-0.21875,0.71875,0.0,0.0,0.0
1695734636128,-0.5332031,-0.02734375,0.85058594,0.3125,-0.28125,1.0,0.0,0.0,0.0
1695734636168,-0.5292969,-0.034179688,0.8544922,0.03125,-0.21875,0.9375,0.0,0.0,0.0
1695734636206,-0.54003906,-0.03125,0.85058594,0.09375,-0.34375,0.71875,0.0,0.0,0.0
1695734636248,-0.5332031,-0.032226562,0.84765625,-0.15625,-0.15625,0.34375,0.0,0.0,0.0
1695734636287,-0.53515625,-0.029296875,0.8544922,-0.09375,-0.03125,0.34375,-10.75,-2.4375,8.3125
1695734636327,-0.5361328,-0.024414062,0.8388672,0.03125,-0.34375,0.46875,0.0,0.0,0.0
1695734636368,-0.5361328,-0.038085938,0.8574219,-0.03125,-0.59375,0.71875,0.0,0.0,0.0
1695734636425,-0.5410156,-0.025390625,0.85546875,0.25,-0.59375,0.71875,0.0,0.0,0.0
1695734636447,-0.5263672,-0.029296875,0.8496094,0.15625,0.03125,0.78125,0.0,0.0,0.0
1695734636505,-0.53125,-0.032226562,0.8564453,0.03125,0.21875,0.875,0.0,0.0,0.0
1695734636527,-0.53125,-0.026367188,0.8564453,0.09375,-0.03125,1.1875,0.0,0.0,0.0
1695734636567,-0.5253906,-0.018554688,0.85546875,0.15625,-0.40625,1.0,0.0,0.0,0.0
1695734636607,-0.54003906,-0.028320312,0.8496094,0.15625,-0.40625,0.875,0.0,0.0,0.0
1695734636646,-0.52734375,-0.022460938,0.8613281,0.03125,-0.40625,0.8125,0.0,0.0,0.0
1695734636685,-0.5263672,-0.0234375,0.859375,0.03125,-0.40625,0.59375,0.0,0.0,0.0
1695734636725,-0.5419922,-0.024414062,0.8457031,-0.15625,-0.34375,0.40625,0.0,0.0,0.0
1695734636765,-0.53515625,-0.02734375,0.8574219,-0.09375,-0.09375,0.09375,0.0,0.0,0.0
1695734636805,-0.5371094,-0.03515625,0.85253906,-0.03125,-0.21875,-0.03125,-8.6875,-1.6875,9.625
1695734636846,-0.53222656,-0.025390625,0.8457031,0.03125,0.40625,-0.34375,0.0,0.0,0.0
1695734636885,-0.5332031,-0.025390625,0.8642578,-0.09375,0.09375,0.03125,0.0,0.0,0.0
1695734636925,-0.5371094,-0.022460938,0.8496094,0.03125,0.6875,-0.15625,0.0,0.0,0.0
1695734636965,-0.5410156,-0.026367188,0.8535156,-0.09375,0.40625,-0.03125,0.0,0.0,0.0
1695734637025,-0.54003906,-0.030273438,0.8496094,-0.03125,0.21875,-0.03125,0.0,0.0,0.0
1695734637047,-0.5361328,-0.024414062,0.85839844,-0.03125,-0.15625,0.03125,0.0,0.0,0.0
1695734637085,-0.52441406,-0.032226562,0.859375,-0.15625,0.09375,-0.5,0.0,0.0,0.0
1695734637125,-0.5371094,-0.032226562,0.8613281,-0.09375,-0.09375,-0.28125,0.0,0.0,0.0
1695734637165,-0.53125,-0.032226562,0.85839844,-0.09375,0.21875,-0.46875,0.0,0.0,0.0
1695734637205,-0.5361328,-0.030273438,0.86621094,-0.09375,0.21875,-0.5625,0.0,0.0,0.0
1695734637245,-0.52734375,-0.028320312,0.85253906,-0.09375,0.21875,-0.40625,0.0,0.0,0.0
1695734637287,-0.53808594,-0.024414062,0.86035156,0.03125,0.15625,-0.28125,-9.6875,-2.1875,8.625
1695734637325,-0.52441406,-0.020507812,0.85839844,-0.03125,0.34375,-0.40625,0.0,0.0,0.0
1695734637365,-0.53027344,-0.034179688,0.859375,-0.09375,0.28125,-0.28125,0.0,0.0,0.0
1695734637405,-0.5292969,-0.032226562,0.8535156,-0.09375,0.28125,-0.28125,0.0,0.0,0.0
1695734637445,-0.5371094,-0.030273438,0.8378906,-0.03125,-0.15625,-0.09375,0.0,0.0,0.0
1695734637485,-0.5341797,-0.030273438,0.8535156,-0.03125,0.21875,-0.21875,0.0,0.0,0.0
1695734637525,-0.5371094,-0.03515625,0.8574219,-0.21875,0.09375,-0.09375,0.0,0.0,0.0
1695734637565,-0.52441406,-0.029296875,0.85058594,-0.03125,0.28125,-0.6875,0.0,0.0,0.0
1695734637606,-0.5390625,-0.030273438,0.8544922,-0.09375,-0.09375,-0.28125,0.0,0.0,0.0
1695734637666,-0.52734375,-0.030273438,0.8339844,-0.15625,0.09375,-0.21875,0.0,0.0,0.0
1695734637685,-0.5253906,-0.034179688,0.8535156,-0.03125,0.40625,-0.34375,0.0,0.0,0.0
1695734637747,-0.53222656,-0.032226562,0.87109375,-0.09375,0.46875,-0.34375,0.0,0.0,0.0
1695734637765,-0.52441406,-0.03125,0.8564453,0.15625,0.03125,0.15625,-10.0,-2.1875,7.25
1695734637807,-0.5390625,-0.033203125,0.85058594,-0.03125,0.15625,0.03125,0.0,0.0,0.0
1695734637846,-0.54003906,-0.03125,0.8515625,-0.15625,0.09375,0.03125,0.0,0.0,0.0
1695734637885,-0.5332031,-0.032226562,0.8486328,-0.21875,0.09375,-0.09375,0.0,0.0,0.0
1695734637925,-0.5371094,-0.03515625,0.8564453,-0.15625,0.09375,-0.15625,0.0,0.0,0.0
1695734637966,-0.53808594,-0.036132812,0.84277344,-0.21875,0.03125,-0.28125,0.0,0.0,0.0
1695734638005,-0.5371094,-0.037109375,0.8564453,-0.09375,0.15625,-0.40625,0.0,0.0,0.0
1695734638046,-0.53222656,-0.030273438,0.8515625,0.03125,0.21875,-0.21875,0.0,0.0,0.0
1695734638085,-0.5449219,-0.030273438,0.8574219,-0.09375,0.15625,-0.15625,0.0,0.0,0.0
1695734638125,-0.5410156,-0.032226562,0.85546875,-0.09375,0.28125,-0.15625,0.0,0.0,0.0
1695734638168,-0.52734375,-0.036132812,0.8496094,-0.28125,0.8125,-0.28125,0.0,0.0,0.0
1695734638205,-0.5361328,-0.036132812,0.8408203,-0.15625,0.8125,-0.46875,0.0,0.0,0.0
1695734638245,-0.53808594,-0.032226562,0.85058594,-0.09375,0.53125,-0.09375,0.0,0.0,0.0
1695734638285,-0.53808594,-0.037109375,0.85839844,-0.15625,0.53125,0.03125,-10.9375,-2.0,7.375
1695734638327,-0.5371094,-0.03515625,0.84765625,-0.09375,0.15625,0.03125,0.0,0.0,0.0
1695734638406,-0.5371094,-0.03515625,0.8535156,-0.15625,0.40625,-0.15625,0.0,0.0,0.0
1695734638408,-0.5332031,-0.034179688,0.84472656,-0.15625,0.15625,-0.15625,0.0,0.0,0.0
1695734638445,-0.53515625,-0.028320312,0.8515625,-0.21875,-0.15625,-0.03125,0.0,0.0,0.0
1695734638485,-0.5283203,-0.038085938,0.8642578,-0.28125,0.21875,-0.28125,0.0,0.0,0.0
1695734638525,-0.53125,-0.037109375,0.84277344,-0.34375,0.875,-0.46875,0.0,0.0,0.0
1695734638565,-0.5371094,-0.034179688,0.8486328,0.03125,0.15625,-0.21875,0.0,0.0,0.0
1695734638605,-0.54589844,-0.034179688,0.86328125,0.09375,0.9375,-0.34375,0.0,0.0,0.0
1695734638645,-0.5390625,-0.041992188,0.85253906,-0.15625,0.6875,0.15625,0.0,0.0,0.0
1695734638685,-0.5371094,-0.040039062,0.86035156,-0.03125,0.21875,0.28125,0.0,0.0,0.0
1695734638725,-0.54003906,-0.03515625,0.8486328,-0.21875,0.03125,0.34375,0.0,0.0,0.0
1695734638765,-0.5390625,-0.034179688,0.8544922,-0.15625,-0.03125,0.21875,-10.75,-2.9375,7.25
1695734638805,-0.53515625,-0.034179688,0.8496094,-0.21875,-0.09375,0.15625,0.0,0.0,0.0
1695734638845,-0.5390625,-0.0390625,0.85058594,-0.15625,0.40625,-0.34375,0.0,0.0,0.0
1695734638886,-0.5361328,-0.043945312,0.8408203,-0.09375,0.15625,-0.09375,0.0,0.0,0.0
1695734638925,-0.54296875,-0.033203125,0.85058594,-0.09375,0.21875,-0.21875,0.0,0.0,0.0
1695734638965,-0.54003906,-0.032226562,0.86035156,-0.21875,-0.09375,-0.09375,0.0,0.0,0.0
1695734639007,-0.53125,-0.037109375,0.8564453,-0.03125,-0.34375,0.15625,0.0,0.0,0.0
1695734639046,-0.5390625,-0.033203125,0.84277344,-0.15625,-0.34375,0.21875,0.0,0.0,0.0
1695734639085,-0.54296875,-0.030273438,0.85058594,-0.09375,-0.15625,0.15625,0.0,0.0,0.0
1695734639125,-0.54003906,-0.032226562,0.8466797,-0.09375,-0.09375,0.21875,0.0,0.0,0.0
1695734639165,-0.5419922,-0.037109375,0.85839844,0.03125,-0.09375,0.03125,0.0,0.0,0.0
1695734639205,-0.53808594,-0.0390625,0.859375,-0.09375,-0.28125,0.09375,0.0,0.0,0.0
1695734639245,-0.5488281,-0.029296875,0.8535156,-0.03125,-0.09375,0.03125,0.0,0.0,0.0
1695734639285,-0.54003906,-0.034179688,0.85253906,0.15625,-0.34375,0.21875,-9.875,-4.4375,7.6875
1695734639325,-0.5361328,-0.034179688,0.8613281,0.03125,-0.28125,0.21875,0.0,0.0,0.0
1695734639365,-0.5234375,-0.04296875,0.84765625,-0.03125,-0.34375,0.46875,0.0,0.0,0.0
1695734639405,-0.5332031,-0.03515625,0.8486328,0.03125,-0.09375,0.28125,0.0,0.0,0.0
1695734639445,-0.5449219,-0.036132812,0.85839844,0.21875,-0.15625,0.53125,0.0,0.0,0.0
1695734639485,-0.5410156,-0.03515625,0.8486328,0.03125,0.28125,0.09375,0.0,0.0,0.0
1695734639525,-0.53125,-0.036132812,0.8564453,-0.09375,-0.09375,0.46875,0.0,0.0,0.0
1695734639567,-0.5449219,-0.034179688,0.8378906,-0.09375,-0.21875,0.875,0.0,0.0,0.0
1695734639607,-0.53125,-0.03515625,0.84277344,-0.09375,-0.09375,0.78125,0.0,0.0,0.0
1695734639647,-0.5332031,-0.036132812,0.86035156,0.21875,-0.75,0.71875,0.0,0.0,0.0
1695734639687,-0.5371094,-0.033203125,0.8564453,0.375,-0.875,1.125,0.0,0.0,0.0
1695734639727,-0.5332031,-0.032226562,0.84472656,-0.03125,-0.46875,1.0,0.0,0.0,0.0
1695734639767,-0.53027344,-0.026367188,0.8544922,0.25,-0.875,1.0625,-10.4375,-2.4375,8.3125
1695734639807,-0.53125,-0.033203125,0.8300781,0.21875,-0.875,1.0625,0.0,0.0,0.0
1695734639847,-0.5361328,-0.037109375,0.86035156,-0.03125,-0.75,1.0,0.0,0.0,0.0
1695734639886,-0.5410156,-0.034179688,0.8769531,0.25,-0.8125,0.9375,0.0,0.0,0.0
1695734639927,-0.53222656,-0.020507812,0.85253906,0.03125,-0.65625,0.71875,0.0,0.0,0.0
1695734639967,-0.53027344,-0.029296875,0.87109375,0.15625,-0.53125,0.46875,0.0,0.0,0.0
1695734640006,-0.53222656,-0.026367188,0.8457031,0.3125,-0.59375,0.65625,0.0,0.0,0.0
1695734640051,-0.5361328,-0.036132812,0.84277344,0.25,-0.8125,0.9375,0.0,0.0,0.0
1695734640087,-0.54003906,-0.03125,0.85058594,0.3125,-0.65625,1.0,0.0,0.0,0.0
1695734640127,-0.52246094,-0.024414062,0.85839844,-0.09375,-0.28125,0.875,0.0,0.0,0.0
1695734640166,-0.5341797,-0.026367188,0.8496094,0.09375,-0.28125,0.78125,0.0,0.0,0.0
1695734640206,-0.53222656,-0.029296875,0.8408203,-0.09375,-0.46875,0.59375,0.0,0.0,0.0
1695734640245,-0.5341797,-0.025390625,0.8388672,0.09375,-0.28125,0.59375,0.0,0.0,0.0
1695734640286,-0.53027344,-0.022460938,0.83984375,-0.09375,-0.40625,0.59375,-9.125,-1.5625,7.6875
1695734640326,-0.5332031,-0.020507812,0.8544922,-0.03125,-0.875,0.59375,0.0,0.0,0.0
1695734640367,-0.5253906,-0.021484375,0.85839844,-0.03125,-0.46875,0.71875,0.0,0.0,0.0
1695734640407,-0.5390625,-0.03125,0.8623047,0.09375,-0.46875,0.78125,0.0,0.0,0.0
1695734640447,-0.53222656,-0.029296875,0.8515625,0.09375,-0.53125,0.875,0.0,0.0,0.0
1695734640487,-0.5292969,-0.024414062,0.85253906,0.09375,-0.34375,0.8125,0.0,0.0,0.0
1695734640528,-0.5292969,-0.025390625,0.84765625,-0.03125,-0.40625,0.875,0.0,0.0,0.0
1695734640568,-0.5361328,-0.021484375,0.85253906,0.09375,-0.34375,0.8125,0.0,0.0,0.0
1695734640607,-0.53515625,-0.0234375,0.8564453,0.09375,-0.28125,0.53125,0.0,0.0,0.0
1695734640686,-0.53222656,-0.030273438,0.84277344,-0.03125,-0.40625,0.46875,0.0,0.0,0.0
1695734640705,-0.5361328,-0.024414062,0.8564453,0.03125,-0.21875,0.03125,0.0,0.0,0.0
1695734640726,-0.53515625,-0.02734375,0.8574219,-0.21875,-0.15625,-0.21875,0.0,0.0,0.0
1695734640765,-0.52441406,-0.025390625,0.85546875,-0.21875,-0.09375,-0.03125,-9.6875,-2.4375,7.875
1695734640807,-0.53222656,-0.018554688,0.8466797,-0.21875,0.03125,-0.09375,0.0,0.0,0.0
1695734640847,-0.5332031,-0.0234375,0.85839844,-0.21875,0.34375,-0.40625,0.0,0.0,0.0
1695734640886,-0.5332031,-0.01953125,0.84277344,-0.21875,0.09375,-0.28125,0.0,0.0,0.0
1695734640926,-0.53125,-0.026367188,0.8564453,-0.09375,-0.09375,-0.09375,0.0,0.0,0.0
1695734640966,-0.52734375,-0.025390625,0.85058594,-0.21875,-0.15625,-0.40625,0.0,0.0,0.0
1695734641006,-0.53222656,-0.020507812,0.8613281,-0.15625,0.09375,-0.21875,0.0,0.0,0.0
1695734641047,-0.53027344,-0.03125,0.8564453,-0.15625,0.03125,-0.03125,0.0,0.0,0.0
1695734641086,-0.5332031,-0.029296875,0.8564453,-0.28125,0.03125,-0.15625,0.0,0.0,0.0
1695734641126,-0.5361328,-0.0234375,0.85839844,-0.09375,-0.09375,-0.21875,0.0,0.0,0.0
1695734641166,-0.53027344,-0.030273438,0.8496094,-0.15625,0.15625,-0.28125,0.0,0.0,0.0
1695734641205,-0.5341797,-0.025390625,0.8623047,-0.15625,0.03125,-0.46875,0.0,0.0,0.0
1695734641246,-0.54003906,-0.028320312,0.86035156,-0.21875,-0.03125,-0.5,0.0,0.0,0.0
1695734641306,-0.5361328,-0.0234375,0.8642578,-0.09375,-0.03125,-0.40625,-8.8125,-3.0625,7.6875
1695734641326,-0.53125,-0.022460938,0.84277344,-0.15625,-0.09375,-0.03125,0.0,0.0,0.0
1695734641365,-0.52734375,-0.02734375,0.8642578,-0.03125,0.21875,-0.40625,0.0,0.0,0.0
1695734641407,-0.53222656,-0.032226562,0.8535156,-0.28125,0.15625,-0.28125,0.0,0.0,0.0
1695734641447,-0.5253906,-0.028320312,0.8535156,-0.21875,0.46875,-0.625,0.0,0.0,0.0
1695734641487,-0.54003906,-0.037109375,0.85253906,-0.15625,0.15625,-0.40625,0.0,0.0,0.0
1695734641527,-0.53222656,-0.02734375,0.83984375,-0.15625,0.15625,-0.46875,0.0,0.0,0.0
1695734641567,-0.54003906,-0.022460938,0.8544922,-0.15625,-0.15625,-0.34375,0.0,0.0,0.0
1695734641608,-0.5263672,-0.022460938,0.8613281,-0.21875,-0.09375,-0.46875,0.0,0.0,0.0
1695734641647,-0.5283203,-0.026367188,0.8466797,-0.09375,-0.21875,-0.21875,0.0,0.0,0.0
1695734641687,-0.5361328,-0.041015625,0.8496094,-0.09375,0.09375,-0.21875,0.0,0.0,0.0
1695734641728,-0.53222656,-0.026367188,0.8486328,-0.21875,0.09375,-0.09375,0.0,0.0,0.0
1695734641769,-0.5283203,-0.03125,0.8486328,-0.15625,-0.03125,-0.15625,-10.4375,-2.4375,7.875
1695734641807,-0.5361328,-0.029296875,0.85253906,-0.21875,-0.03125,-0.09375,0.0,0.0,0.0
1695734641846,-0.53027344,-0.033203125,0.8515625,0.03125,-0.21875,-0.03125,0.0,0.0,0.0
1695734641885,-0.5371094,-0.033203125,0.86035156,-0.21875,0.03125,-0.15625,0.0,0.0,0.0
1695734641926,-0.53027344,-0.030273438,0.8564453,-0.21875,-0.03125,-0.03125,0.0,0.0,0.0
1695734641965,-0.5283203,-0.026367188,0.8496094,-0.09375,-0.15625,0.09375,0.0,0.0,0.0
1695734642007,-0.5332031,-0.026367188,0.86816406,-0.09375,0.03125,-0.15625,0.0,0.0,0.0
1695734642046,-0.5332031,-0.022460938,0.8691406,-0.03125,0.15625,-0.09375,0.0,0.0,0.0
1695734642086,-0.5361328,-0.034179688,0.86035156,-0.15625,0.46875,-0.34375,0.0,0.0,0.0
1695734642126,-0.54003906,-0.03125,0.8486328,-0.15625,-0.03125,0.03125,0.0,0.0,0.0
1695734642166,-0.53027344,-0.021484375,0.8486328,-0.03125,-0.03125,0.09375,0.0,0.0,0.0
1695734642205,-0.5371094,-0.03515625,0.8359375,-0.21875,-0.15625,-0.09375,0.0,0.0,0.0
1695734642247,-0.53515625,-0.034179688,0.8535156,-0.21875,-0.28125,-0.09375,0.0,0.0,0.0
1695734642286,-0.53125,-0.037109375,0.85253906,-0.28125,-0.15625,0.03125,-11.6875,-3.8125,8.75
1695734642327,-0.5361328,-0.02734375,0.8564453,-0.15625,-0.09375,0.09375,0.0,0.0,0.0
1695734642367,-0.5410156,-0.029296875,0.85253906,-0.34375,0.03125,-0.03125,0.0,0.0,0.0
1695734642409,-0.5371094,-0.040039062,0.85253906,-0.09375,0.03125,-0.03125,0.0,0.0,0.0
1695734642448,-0.5371094,-0.028320312,0.85058594,-0.21875,-0.21875,-0.03125,0.0,0.0,0.0
1695734642487,-0.53515625,-0.04296875,0.8544922,-0.09375,-0.21875,-0.09375,0.0,0.0,0.0
1695734642545,-0.53515625,-0.02734375,0.85058594,-0.09375,-0.21875,-0.34375,0.0,0.0,0.0
1695734642568,-0.54003906,-0.030273438,0.8486328,-0.21875,-0.46875,0.09375,0.0,0.0,0.0
1695734642627,-0.5332031,-0.028320312,0.85839844,-0.15625,-0.03125,-0.03125,0.0,0.0,0.0
1695734642645,-0.5419922,-0.034179688,0.8613281,-0.21875,-0.03125,0.03125,0.0,0.0,0.0
1695734642685,-0.5341797,-0.029296875,0.8535156,-0.15625,-0.15625,0.15625,0.0,0.0,0.0
1695734642732,-0.5292969,-0.032226562,0.8466797,-0.15625,0.03125,0.03125,0.0,0.0,0.0
1695734642765,-0.5371094,-0.032226562,0.86035156,-0.21875,0.21875,-0.21875,-9.875,-3.0625,8.125
1695734642805,-0.5292969,-0.03515625,0.84765625,-0.34375,0.34375,-0.34375,0.0,0.0,0.0
1695734642845,-0.5341797,-0.030273438,0.85253906,-0.09375,-0.03125,0.15625,0.0,0.0,0.0
1695734642885,-0.5234375,-0.02734375,0.85839844,-0.28125,-0.09375,0.28125,0.0,0.0,0.0
1695734642925,-0.5390625,-0.037109375,0.8652344,-0.03125,-0.09375,0.09375,0.0,0.0,0.0
1695734642965,-0.5390625,-0.0234375,0.85546875,-0.15625,-0.34375,0.03125,0.0,0.0,0.0
1695734643007,-0.53125,-0.028320312,0.8466797,-0.09375,-0.03125,0.09375,0.0,0.0,0.0
1695734643046,-0.53222656,-0.034179688,0.85058594,-0.03125,0.15625,0.09375,0.0,0.0,0.0
1695734643085,-0.5341797,-0.0390625,0.85546875,-0.15625,-0.03125,0.09375,0.0,0.0,0.0
1695734643125,-0.53222656,-0.040039062,0.8652344,0.03125,-0.09375,0.15625,0.0,0.0,0.0
1695734643167,-0.53222656,-0.024414062,0.8544922,-0.21875,-0.15625,0.15625,0.0,0.0,0.0
1695734643205,-0.5341797,-0.036132812,0.8486328,-0.21875,-0.21875,0.28125,0.0,0.0,0.0
1695734643245,-0.54003906,-0.026367188,0.8642578,-0.09375,-0.28125,0.21875,0.0,0.0,0.0
1695734643285,-0.5371094,-0.03125,0.8544922,-0.09375,-0.46875,0.34375,-9.875,-2.0,7.375
1695734643325,-0.53222656,-0.030273438,0.8671875,-0.21875,-0.34375,0.46875,0.0,0.0,0.0
1695734643365,-0.53125,-0.030273438,0.8642578,0.03125,-0.46875,0.53125,0.0,0.0,0.0
1695734643405,-0.53027344,-0.030273438,0.8544922,-0.21875,-0.40625,0.53125,0.0,0.0,0.0
1695734643445,-0.5332031,-0.034179688,0.84277344,-0.03125,0.15625,0.59375,0.0,0.0,0.0
1695734643485,-0.53125,-0.029296875,0.8564453,-0.03125,0.03125,0.15625,0.0,0.0,0.0
1695734643525,-0.5371094,-0.03515625,0.8574219,-0.15625,0.46875,-0.15625,0.0,0.0,0.0
1695734643565,-0.5361328,-0.030273438,0.8564453,-0.15625,0.15625,0.09375,0.0,0.0,0.0
1695734643605,-0.5341797,-0.030273438,0.8574219,-0.09375,0.15625,0.65625,0.0,0.0,0.0
1695734643645,-0.52734375,-0.0234375,0.85546875,-0.21875,-0.28125,0.78125,0.0,0.0,0.0
1695734643706,-0.5390625,-0.025390625,0.8535156,-0.09375,-0.15625,0.65625,0.0,0.0,0.0
1695734643725,-0.53027344,-0.036132812,0.8457031,0.09375,-0.34375,0.78125,0.0,0.0,0.0
1695734643765,-0.54003906,-0.028320312,0.85839844,-0.09375,-0.21875,0.9375,-10.0,-2.9375,7.25
1695734643806,-0.5390625,-0.034179688,0.8515625,-0.03125,0.09375,0.59375,0.0,0.0,0.0
1695734643845,-0.5439453,-0.028320312,0.85253906,0.09375,0.21875,0.53125,0.0,0.0,0.0
1695734643885,-0.5390625,-0.033203125,0.8544922,-0.15625,-0.03125,0.65625,0.0,0.0,0.0
1695734643925,-0.5292969,-0.026367188,0.8466797,0.03125,-0.03125,0.46875,0.0,0.0,0.0
1695734643965,-0.52246094,-0.030273438,0.85253906,0.03125,-0.15625,0.59375,0.0,0.0,0.0
1695734644007,-0.5341797,-0.033203125,0.85253906,-0.21875,-0.28125,0.59375,0.0,0.0,0.0
1695734644045,-0.53125,-0.02734375,0.8652344,-0.21875,-0.28125,0.8125,0.0,0.0,0.0
1695734644085,-0.5332031,-0.024414062,0.86816406,-0.09375,-0.46875,0.65625,0.0,0.0,0.0
1695734644125,-0.54003906,-0.034179688,0.85839844,-0.09375,-0.15625,0.875,0.0,0.0,0.0
1695734644165,-0.5332031,-0.03515625,0.8564453,-0.34375,0.34375,0.46875,0.0,0.0,0.0
1695734644205,-0.5332031,-0.030273438,0.8535156,-0.03125,-0.09375,0.46875,0.0,0.0,0.0
1695734644246,-0.54003906,-0.024414062,0.8535156,-0.09375,0.34375,0.53125,0.0,0.0,0.0
1695734644286,-0.5332031,-0.021484375,0.8544922,-0.09375,0.21875,0.03125,-9.125,-2.625,6.375
1695734644325,-0.54003906,-0.02734375,0.8417969,-0.21875,0.03125,-0.03125,0.0,0.0,0.0
1695734644365,-0.53515625,-0.028320312,0.85058594,-0.09375,-0.21875,-0.15625,0.0,0.0,0.0
1695734644407,-0.53125,-0.029296875,0.85546875,-0.03125,-0.46875,-0.21875,0.0,0.0,0.0
1695734644467,-0.5263672,-0.0234375,0.85839844,-0.21875,-0.03125,-0.03125,0.0,0.0,0.0
1695734644485,-0.53125,-0.025390625,0.8496094,-0.09375,-0.21875,-0.03125,0.0,0.0,0.0
1695734644526,-0.53808594,-0.0234375,0.8496094,-0.09375,-0.03125,-0.21875,0.0,0.0,0.0
1695734644565,-0.53222656,-0.028320312,0.8642578,-0.03125,0.09375,-0.28125,0.0,0.0,0.0
1695734644605,-0.53027344,-0.02734375,0.84765625,-0.03125,0.28125,-0.15625,0.0,0.0,0.0
1695734644645,-0.53027344,-0.028320312,0.85839844,-0.15625,-0.15625,-0.15625,0.0,0.0,0.0
1695734644687,-0.5341797,-0.029296875,0.85546875,-0.03125,-0.03125,-0.28125,0.0,0.0,0.0
1695734644725,-0.53222656,-0.029296875,0.8564453,-0.15625,-0.03125,-0.15625,0.0,0.0,0.0
1695734644765,-0.53027344,-0.030273438,0.8564453,-0.15625,-0.15625,-0.34375,-9.6875,-2.4375,7.875
1695734644805,-0.53515625,-0.030273438,0.8408203,-0.15625,-0.28125,-0.28125,0.0,0.0,0.0
1695734644845,-0.52734375,-0.026367188,0.8457031,-0.09375,0.09375,-0.34375,0.0,0.0,0.0
1695734644908,-0.53515625,-0.033203125,0.85058594,-0.21875,0.09375,-0.15625,0.0,0.0,0.0
1695734644925,-0.5341797,-0.021484375,0.84765625,-0.15625,0.40625,-0.625,0.0,0.0,0.0
1695734644967,-0.53808594,-0.02734375,0.84765625,-0.21875,0.03125,-0.40625,0.0,0.0,0.0
1695734645007,-0.5341797,-0.029296875,0.8486328,-0.09375,-0.03125,-0.28125,0.0,0.0,0.0
1695734645045,-0.5332031,-0.03125,0.8466797,-0.03125,-0.34375,-0.28125,0.0,0.0,0.0
1695734645088,-0.52734375,-0.030273438,0.8574219,-0.09375,-0.21875,-0.40625,0.0,0.0,0.0
1695734645126,-0.53125,-0.029296875,0.8457031,-0.03125,0.15625,-0.40625,0.0,0.0,0.0
1695734645165,-0.5332031,-0.040039062,0.859375,-0.21875,0.09375,-0.15625,0.0,0.0,0.0
1695734645227,-0.5390625,-0.029296875,0.8564453,-0.15625,0.15625,-0.34375,0.0,0.0,0.0
1695734645245,-0.53125,-0.038085938,0.85253906,-0.15625,0.09375,-0.34375,0.0,0.0,0.0
1695734645287,-0.5332031,-0.028320312,0.8613281,-0.09375,0.21875,-0.28125,-8.9375,-2.4375,7.875
1695734645325,-0.53222656,-0.022460938,0.8466797,-0.03125,0.03125,-0.21875,0.0,0.0,0.0
1695734645365,-0.53515625,-0.034179688,0.8564453,-0.15625,0.15625,-0.46875,0.0,0.0,0.0
1695734645405,-0.52734375,-0.026367188,0.8408203,-0.15625,0.40625,-0.09375,0.0,0.0,0.0
1695734645445,-0.53515625,-0.03515625,0.8496094,-0.03125,0.15625,-0.21875,0.0,0.0,0.0
1695734645507,-0.5410156,-0.036132812,0.8613281,-0.21875,0.03125,-0.09375,0.0,0.0,0.0
1695734645546,-0.52734375,-0.037109375,0.86328125,-0.15625,0.40625,-0.09375,0.0,0.0,0.0
1695734645565,-0.53222656,-0.0390625,0.86035156,-0.15625,0.09375,0.09375,0.0,0.0,0.0
1695734645605,-0.5361328,-0.032226562,0.8701172,-0.34375,0.75,-0.40625,0.0,0.0,0.0
1695734645647,-0.53515625,-0.038085938,0.859375,-0.21875,0.21875,-0.28125,0.0,0.0,0.0
1695734645688,-0.5341797,-0.02734375,0.84765625,-0.03125,0.03125,-0.03125,0.0,0.0,0.0
1695734645727,-0.5341797,-0.034179688,0.8515625,-0.15625,0.09375,-0.09375,0.0,0.0,0.0
1695734645767,-0.53515625,-0.032226562,0.8515625,-0.15625,-0.21875,-0.03125,-8.6875,-1.6875,6.8125
1695734645807,-0.52734375,-0.036132812,0.8544922,-0.15625,-0.03125,-0.03125,0.0,0.0,0.0
1695734645847,-0.5361328,-0.029296875,0.85253906,-0.21875,0.03125,0.15625,0.0,0.0,0.0
1695734645888,-0.53808594,-0.030273438,0.8515625,-0.21875,-0.03125,0.09375,0.0,0.0,0.0
1695734645927,-0.5283203,-0.03125,0.8613281,-0.21875,0.09375,0.21875,0.0,0.0,0.0
1695734645985,-0.53125,-0.037109375,0.85839844,-0.03125,-0.09375,0.15625,0.0,0.0,0.0
1695734646007,-0.53515625,-0.040039062,0.8701172,0.15625,-0.03125,0.09375,0.0,0.0,0.0
1695734646047,-0.5283203,-0.041015625,0.86328125,0.03125,-0.03125,0.09375,0.0,0.0,0.0
1695734646105,-0.54003906,-0.025390625,0.8457031,0.03125,-0.15625,-0.03125,0.0,0.0,0.0
1695734646127,-0.5419922,-0.022460938,0.8574219,-0.21875,-0.21875,0.15625,0.0,0.0,0.0
1695734646168,-0.5283203,-0.030273438,0.8496094,-0.28125,-0.40625,-0.03125,0.0,0.0,0.0
1695734646205,-0.5390625,-0.03125,0.8564453,-0.21875,-0.28125,0.09375,0.0,0.0,0.0
1695734646247,-0.5332031,-0.028320312,0.85546875,-0.28125,0.03125,0.03125,0.0,0.0,0.0
1695734646287,-0.5361328,-0.037109375,0.8417969,-0.40625,0.15625,0.09375,-9.6875,-2.1875,7.25
1695734646327,-0.54003906,-0.032226562,0.8515625,-0.21875,0.40625,-0.34375,0.0,0.0,0.0
1695734646367,-0.53515625,-0.03125,0.8623047,-0.15625,0.09375,-0.03125,0.0,0.0,0.0
1695734646408,-0.5419922,-0.026367188,0.85058594,-0.03125,0.59375,0.21875,0.0,0.0,0.0
1695734646447,-0.5419922,-0.02734375,0.85546875,-0.03125,0.03125,-0.03125,0.0,0.0,0.0
1695734646487,-0.5410156,-0.03125,0.85058594,-0.21875,0.03125,-0.03125,0.0,0.0,0.0
1695734646527,-0.53125,-0.034179688,0.84277344,-0.15625,-0.03125,0.21875,0.0,0.0,0.0
1695734646568,-0.5332031,-0.036132812,0.85058594,-0.09375,-0.03125,0.09375,0.0,0.0,0.0
1695734646607,-0.53125,-0.032226562,0.8486328,-0.21875,-0.09375,0.03125,0.0,0.0,0.0
1695734646647,-0.5341797,-0.037109375,0.85058594,-0.09375,0.21875,0.09375,0.0,0.0,0.0
1695734646705,-0.5292969,-0.038085938,0.8544922,-0.21875,-0.03125,0.03125,0.0,0.0,0.0
1695734646745,-0.54003906,-0.028320312,0.8642578,-0.15625,-0.09375,-0.03125,0.0,0.0,0.0
1695734646767,-0.5361328,-0.036132812,0.8457031,-0.09375,-0.15625,-0.09375,-9.125,-3.375,8.75
1695734646847,-0.5390625,-0.036132812,0.85546875,-0.09375,-0.15625,-0.03125,0.0,0.0,0.0
1695734646849,-0.5332031,-0.0390625,0.8457031,-0.09375,-0.09375,0.15625,0.0,0.0,0.0
1695734646887,-0.5390625,-0.026367188,0.8613281,-0.15625,-0.21875,0.28125,0.0,0.0,0.0
1695734646927,-0.5341797,-0.03125,0.8408203,-0.09375,-0.09375,0.46875,0.0,0.0,0.0
1695734646967,-0.53222656,-0.033203125,0.8466797,-0.15625,-0.03125,0.53125,0.0,0.0,0.0
1695734647010,-0.5371094,-0.03125,0.85058594,-0.15625,-0.03125,0.53125,0.0,0.0,0.0
1695734647047,-0.54003906,-0.030273438,0.85839844,-0.21875,0.09375,0.34375,0.0,0.0,0.0
1695734647087,-0.53125,-0.025390625,0.8535156,-0.09375,-0.03125,0.40625,0.0,0.0,0.0
1695734647127,-0.53222656,-0.022460938,0.8496094,-0.03125,-0.15625,0.78125,0.0,0.0,0.0
1695734647167,-0.54003906,-0.033203125,0.85253906,-0.03125,-0.28125,0.59375,0.0,0.0,0.0
1695734647207,-0.53125,-0.0234375,0.8496094,-0.21875,-0.21875,0.59375,0.0,0.0,0.0
1695734647247,-0.5390625,-0.030273438,0.85058594,-0.15625,-0.28125,0.53125,0.0,0.0,0.0
1695734647285,-0.5390625,-0.033203125,0.85546875,-0.21875,-0.28125,0.8125,-10.625,-3.0625,6.625
1695734647327,-0.5410156,-0.034179688,0.86328125,-0.15625,0.28125,0.78125,0.0,0.0,0.0
1695734647385,-0.53222656,-0.015625,0.8564453,-0.21875,-0.09375,0.71875,0.0,0.0,0.0
1695734647407,-0.53515625,-0.03515625,0.859375,-0.09375,0.15625,0.53125,0.0,0.0,0.0
1695734647446,-0.5332031,-0.02734375,0.85546875,0.03125,-0.15625,0.78125,0.0,0.0,0.0
1695734647505,-0.5371094,-0.029296875,0.8515625,-0.15625,-0.15625,0.53125,0.0,0.0,0.0
1695734647527,-0.5332031,-0.026367188,0.8642578,-0.03125,-0.21875,0.71875,0.0,0.0,0.0
1695734647568,-0.53027344,-0.03125,0.86816406,-0.15625,-0.34375,0.8125,0.0,0.0,0.0
1695734647607,-0.5332031,-0.029296875,0.86035156,0.03125,-0.34375,0.875,0.0,0.0,0.0
1695734647647,-0.52734375,-0.025390625,0.8623047,-0.03125,-0.59375,0.8125,0.0,0.0,0.0
1695734647687,-0.53808594,-0.03125,0.85546875,-0.21875,0.09375,0.65625,0.0,0.0,0.0
1695734647727,-0.5263672,-0.024414062,0.85253906,-0.15625,-0.09375,0.875,0.0,0.0,0.0
1695734647767,-0.5371094,-0.026367188,0.8466797,-0.21875,0.03125,0.71875,-10.0,-1.6875,8.875
1695734647811,-0.5361328,-0.026367188,0.8574219,-0.34375,0.09375,0.34375,0.0,0.0,0.0
1695734647847,-0.54003906,-0.02734375,0.86328125,-0.15625,0.15625,-0.15625,0.0,0.0,0.0
1695734647905,-0.53222656,-0.025390625,0.8535156,-0.15625,0.03125,-0.15625,0.0,0.0,0.0
1695734647927,-0.5332031,-0.03125,0.8535156,0.03125,-0.15625,-0.15625,0.0,0.0,0.0
1695734647967,-0.53125,-0.0234375,0.85253906,-0.03125,0.34375,-0.21875,0.0,0.0,0.0
1695734648007,-0.53125,-0.018554688,0.8613281,0.03125,0.40625,0.09375,0.0,0.0,0.0
1695734648047,-0.5283203,-0.024414062,0.8486328,-0.09375,0.40625,-0.03125,0.0,0.0,0.0
1695734648088,-0.5332031,-0.025390625,0.8486328,-0.03125,0.03125,-0.09375,0.0,0.0,0.0
1695734648127,-0.5332031,-0.030273438,0.8535156,-0.15625,0.34375,-0.15625,0.0,0.0,0.0
1695734648167,-0.53808594,-0.029296875,0.85058594,-0.15625,0.09375,-0.34375,0.0,0.0,0.0
1695734648207,-0.5263672,-0.025390625,0.8544922,-0.21875,-0.15625,-0.21875,0.0,0.0,0.0
1695734648267,-0.52734375,-0.026367188,0.85058594,-0.21875,-0.34375,-0.28125,0.0,0.0,0.0
1695734648291,-0.5361328,-0.020507812,0.85253906,-0.28125,-0.21875,-0.28125,-8.5,-2.3125,7.6875
1695734648327,-0.5332031,-0.025390625,0.8486328,-0.28125,-0.21875,-0.21875,0.0,0.0,0.0
1695734648367,-0.5341797,-0.03125,0.85253906,-0.28125,-0.03125,-0.5625,0.0,0.0,0.0
1695734648407,-0.5292969,-0.028320312,0.85253906,-0.21875,0.09375,-0.15625,0.0,0.0,0.0
1695734648445,-0.5341797,-0.032226562,0.8642578,-0.03125,0.53125,-0.21875,0.0,0.0,0.0
1695734648487,-0.53222656,-0.022460938,0.8535156,-0.15625,0.6875,0.09375,0.0,0.0,0.0
1695734648525,-0.52734375,-0.0234375,0.83691406,-0.15625,0.59375,0.28125,0.0,0.0,0.0
1695734648568,-0.5361328,-0.028320312,0.8564453,0.03125,0.34375,0.09375,0.0,0.0,0.0
1695734648605,-0.5371094,-0.029296875,0.8457031,-0.03125,0.21875,0.03125,0.0,0.0,0.0
1695734648647,-0.53808594,-0.028320312,0.85546875,-0.09375,-0.21875,0.15625,0.0,0.0,0.0
1695734648687,-0.5390625,-0.01953125,0.85839844,-0.21875,-0.21875,-0.09375,0.0,0.0,0.0
1695734648725,-0.5332031,-0.026367188,0.85253906,-0.28125,-0.21875,-0.28125,0.0,0.0,0.0
1695734648765,-0.53027344,-0.03515625,0.8574219,-0.28125,-0.03125,-0.40625,-9.4375,-2.4375,8.625
1695734648805,-0.53222656,-0.021484375,0.8496094,-0.46875,-0.15625,-0.5625,0.0,0.0,0.0
1695734648845,-0.53222656,-0.032226562,0.86621094,-0.34375,-0.03125,-0.625,0.0,0.0,0.0
1695734648885,-0.53222656,-0.032226562,0.8544922,-0.15625,0.21875,-0.34375,0.0,0.0,0.0
1695734648925,-0.5390625,-0.032226562,0.8535156,-0.15625,0.09375,0.09375,0.0,0.0,0.0
1695734648965,-0.52441406,-0.029296875,0.85839844,-0.09375,-0.21875,0.53125,0.0,0.0,0.0
1695734649026,-0.53808594,-0.024414062,0.84765625,-0.15625,0.28125,0.59375,0.0,0.0,0.0
1695734649045,-0.53515625,-0.021484375,0.85839844,-0.40625,0.46875,1.0,0.0,0.0,0.0
1695734649085,-0.5332031,-0.03125,0.8496094,-0.09375,0.46875,0.875,0.0,0.0,0.0
1695734649127,-0.54003906,-0.026367188,0.859375,-0.28125,0.15625,0.8125,0.0,0.0,0.0
1695734649165,-0.5361328,-0.026367188,0.8417969,-0.40625,-0.40625,0.71875,0.0,0.0,0.0
1695734649207,-0.5361328,-0.021484375,0.8417969,-0.59375,-0.21875,0.46875,0.0,0.0,0.0
1695734649245,-0.54003906,-0.032226562,0.8486328,-0.46875,0.03125,0.34375,0.0,0.0,0.0
1695734649287,-0.5292969,-0.029296875,0.86621094,-0.59375,-0.28125,0.28125,-11.1875,-1.4375,8.625
1695734649326,-0.53515625,-0.038085938,0.85546875,-0.84375,0.625,-0.03125,0.0,0.0,0.0
1695734649365,-0.53125,-0.024414062,0.8496094,-1.0625,-0.15625,0.09375,0.0,0.0,0.0
1695734649405,-0.54003906,-0.026367188,0.8564453,-4.875,1.0,-0.8125,0.0,0.0,0.0
1695734649445,-0.5410156,-0.032226562,0.85839844,-7.0625,1.1875,-1.25,0.0,0.0,0.0
1695734649485,-0.5410156,-0.034179688,0.8496094,-6.21875,-0.9375,-1.6875,0.0,0.0,0.0
1695734649525,-0.5439453,-0.047851562,0.8544922,-10.28125,-4.84375,-1.84375,0.0,0.0,0.0
1695734649565,-0.51171875,-0.044921875,0.84277344,-4.9375,-4.78125,-1.25,0.0,0.0,0.0
1695734649605,-0.53222656,-0.0546875,0.8535156,-4.75,-3.625,-1.96875,0.0,0.0,0.0
1695734649645,-0.5292969,-0.07128906,0.86035156,-3.15625,-5.40625,-1.4375,0.0,0.0,0.0
1695734649685,-0.51953125,-0.057617188,0.86035156,-2.59375,-4.65625,-2.28125,0.0,0.0,0.0
1695734649725,-0.52734375,-0.05859375,0.86816406,-1.9375,-3.875,-1.5,0.0,0.0,0.0
