,timestamp,accel_x,accel_y,accel_z,gyro_x,gyro_y,gyro_z
0,1697605965,-0.06542969,-1.0081177,0.08514404,3.78125,-0.625,1.734375
1,1697606005,-0.04296875,-0.97052,0.051452637,2.03125,-0.515625,-0.078125
2,1697606045,-0.039794922,-0.9963989,0.06439209,5.03125,0.109375,0.96875
3,1697606085,-0.022949219,-0.9963989,0.03729248,2.125,0.78125,-1.640625
4,1697606125,-0.037841797,-1.0164185,0.06463623,6.734375,1.921875,-2.09375
5,1697606165,-0.00024414062,-0.95562744,0.058532715,-0.359375,2.703125,-3.21875
6,1697606205,-0.017578125,-0.991272,0.08343506,4.96875,1.0625,-1.640625
7,1697606245,-0.011230469,-1.0176392,0.07366943,3.0,-0.09375,-1.03125
8,1697606285,-0.014404297,-0.9981079,0.08074951,2.140625,2.046875,-0.78125
9,1697606325,-0.021972656,-1.015686,0.07098389,0.640625,1.796875,-0.3125
10,1697606365,-0.007080078,-0.9763794,0.06585693,-1.1875,3.640625,-0.171875
11,1697606405,-0.013671875,-0.97735596,0.07220459,-0.265625,3.15625,0.984375
12,1697606445,-0.014892578,-0.99053955,0.06781006,-0.375,1.40625,0.625
13,1697606485,-0.01586914,-1.0088501,0.0758667,0.75,3.15625,1.421875
14,1697606525,-0.022460938,-0.9956665,0.06878662,0.4375,2.46875,1.109375
15,1697606565,-0.010009766,-0.972229,0.04827881,-0.46875,2.203125,1.421875
16,1697606605,-0.005126953,-0.9812622,0.05609131,0.4375,2.203125,1.375
17,1697606645,-0.009765625,-0.9961548,0.066833496,0.859375,2.390625,0.296875
18,1697606685,-0.026855469,-0.9871216,0.05291748,0.25,2.25,0.75
19,1697606725,-0.02709961,-0.97613525,0.05267334,1.875,1.640625,0.546875
20,1697606765,-0.011230469,-1.0007935,0.048034668,0.5625,1.078125,-0.5625
21,1697606805,-0.024169922,-0.9729614,0.089782715,2.421875,1.609375,-0.875
22,1697606845,-0.015136719,-0.98687744,0.02166748,-3.265625,0.53125,-0.6875
23,1697606885,-0.013671875,-0.9859009,0.051940918,2.578125,0.046875,-0.953125
24,1697606925,-0.020996094,-1.0076294,0.059265137,0.359375,-1.078125,-0.9375
25,1697606965,-0.016357422,-0.9817505,0.05609131,-0.34375,-0.28125,-1.5
26,1697607005,-0.037597656,-0.9902954,0.059265137,-0.765625,-0.96875,-1.421875
27,1697607045,-0.020019531,-0.9854126,0.06072998,-1.734375,-0.921875,-1.859375
28,1697607085,-0.04248047,-0.99420166,0.06341553,0.65625,-1.65625,-1.203125
29,1697607125,-0.012207031,-0.9932251,0.06317139,-0.875,-3.078125,-2.109375
30,1697607165,-0.025390625,-0.99713135,0.062438965,-0.09375,-1.875,-1.609375
31,1697607205,-0.036865234,-0.9939575,0.061706543,-0.984375,-1.96875,-1.59375
32,1697607245,-0.05078125,-0.99005127,0.06048584,-1.796875,-1.953125,-1.046875
33,1697607285,-0.04248047,-0.98638916,0.062194824,-1.625,-1.28125,-1.3125
34,1697607325,-0.048339844,-0.99346924,0.061950684,-1.8125,-1.328125,-1.515625
35,1697607365,-0.04663086,-0.9883423,0.07244873,-1.328125,-0.828125,-1.515625
36,1697607405,-0.051757812,-0.9788208,0.0770874,-1.6875,-0.765625,-1.1875
37,1697607445,-0.045410156,-0.9961548,0.057800293,-2.1875,-1.359375,-0.921875
38,1697607485,-0.056152344,-0.99053955,0.07733154,0.78125,-0.296875,-0.1875
39,1697607525,-0.06689453,-0.99346924,0.070739746,-1.90625,0.71875,-0.1875
40,1697607565,-0.038330078,-0.95684814,0.10858154,-0.609375,1.390625,-1.765625
41,1697607605,-0.026855469,-0.9968872,0.0524292,-3.21875,-0.796875,-1.15625
42,1697607645,-0.048828125,-0.98101807,0.093933105,2.515625,-0.328125,-0.796875
43,1697607685,-0.07836914,-0.9951782,0.08148193,-1.140625,-0.5,0.875
44,1697607725,-0.056884766,-0.97784424,0.08050537,-0.5,-0.484375,-0.78125
45,1697607765,-0.06616211,-0.99468994,0.08319092,-0.21875,0.28125,-0.9375
46,1697607805,-0.0625,-0.98760986,0.085632324,-0.296875,-0.203125,-0.859375
47,1697607845,-0.052246094,-0.99884033,0.08782959,-0.421875,-0.734375,-0.09375
48,1697607885,-0.052978516,-0.97369385,0.08660889,-1.734375,0.359375,-0.4375
49,1697607925,-0.07128906,-0.9837036,0.10467529,-0.015625,0.171875,-0.03125
50,1697607965,-0.06347656,-0.9939575,0.082214355,-0.953125,-0.84375,0.21875
51,1697608005,-0.06616211,-0.98760986,0.09100342,0.703125,-0.6875,0.734375
52,1697608045,-0.05834961,-0.9873657,0.09320068,0.0625,0.015625,-0.21875
53,1697608085,-0.053710938,-0.99005127,0.08050537,0.34375,-1.171875,0.546875
54,1697608125,-0.04296875,-0.98223877,0.08270264,1.6875,-2.03125,0.296875
55,1697608165,-0.07324219,-0.9866333,0.06976318,1.046875,-2.640625,1.515625
56,1697608205,-0.068115234,-0.97662354,0.07196045,1.640625,-0.703125,0.796875
57,1697608245,-0.07373047,-1.0164185,0.06463623,2.203125,0.875,1.515625
58,1697608285,-0.06225586,-0.9656372,0.0927124,1.34375,2.953125,0.828125
59,1697608325,-0.053955078,-0.9963989,0.04534912,-1.609375,3.4375,1.109375
60,1697608365,-0.048339844,-0.987854,0.08416748,3.46875,4.03125,1.46875
61,1697608405,-0.055908203,-1.0108032,0.07171631,-0.75,3.703125,2.203125
62,1697608445,-0.05126953,-0.98931885,0.074157715,0.921875,4.265625,1.0
63,1697608485,-0.045166016,-0.9800415,0.077819824,0.3125,3.5625,0.0625
64,1697608525,-0.032714844,-1.0012817,0.06903076,-2.140625,2.328125,-0.921875
65,1697608565,-0.033691406,-1.0164185,0.07147217,-2.203125,1.4375,-0.9375
66,1697608605,-0.022460938,-0.9873657,0.06732178,-3.078125,3.140625,-1.96875
67,1697608645,-0.04663086,-0.975647,0.090026855,-1.359375,1.859375,-2.0
68,1697608685,-0.037109375,-0.98223877,0.094177246,-1.5625,-1.234375,-3.015625
69,1697608725,-0.051757812,-0.98883057,0.08050537,-0.921875,-0.75,-2.03125
70,1697608765,-0.08544922,-1.0022583,0.09442139,-0.171875,0.609375,-2.234375
71,1697608805,-0.10083008,-0.99005127,0.08148193,-0.28125,2.21875,-2.90625
72,1697608845,-0.075683594,-0.97198486,0.08831787,-0.515625,1.4375,-2.328125
73,1697608885,-0.056884766,-0.975647,0.09832764,-0.609375,1.140625,-1.25
74,1697608925,-0.0625,-0.9837036,0.093688965,-1.125,-0.109375,-0.453125
75,1697608965,-0.08496094,-0.9783325,0.0993042,2.625,0.0,-0.78125
76,1697609005,-0.09082031,-0.96832275,0.1083374,0.40625,-0.6875,-1.0
77,1697609045,-0.099121094,-1.020813,0.07611084,0.828125,-1.890625,0.21875
78,1697609085,-0.06298828,-0.9729614,0.08734131,2.234375,0.359375,-0.90625
79,1697609125,-0.10083008,-0.98687744,0.09515381,2.03125,0.296875,-0.546875
80,1697609165,-0.095703125,-0.9883423,0.07122803,-0.203125,-0.53125,-0.15625
81,1697609205,-0.08642578,-0.9866333,0.09320068,1.6875,1.453125,-0.453125
82,1697609245,-0.09350586,-0.98516846,0.07122803,0.96875,0.328125,-0.640625
83,1697609285,-0.07104492,-0.97662354,0.08270264,-0.140625,1.578125,-0.171875
84,1697609325,-0.09326172,-0.9871216,0.070739746,-0.40625,1.21875,-0.03125
85,1697609365,-0.08276367,-0.9924927,0.06951904,-0.078125,1.328125,-0.53125
86,1697609405,-0.072509766,-0.9824829,0.07659912,-0.296875,0.28125,-1.421875
87,1697609445,-0.07128906,-0.9697876,0.08441162,0.578125,0.1875,-0.734375
88,1697609485,-0.09375,-0.972229,0.094177246,1.828125,-0.15625,-0.828125
89,1697609525,-0.10107422,-0.9951782,0.07879639,2.46875,-1.734375,-0.234375
90,1697609565,-0.08569336,-0.9898071,0.09197998,2.578125,-1.4375,0.328125
91,1697609605,-0.10839844,-1.0064087,0.07977295,1.34375,-1.828125,0.953125
92,1697609645,-0.09350586,-0.9805298,0.08050537,1.375,-1.8125,0.125
93,1697609685,-0.099853516,-0.9771118,0.08099365,0.03125,-1.75,0.9375
94,1697609725,-0.096191406,-0.97784424,0.07098389,1.109375,-2.15625,1.6875
95,1697609765,-0.084472656,-0.9871216,0.06781006,-0.234375,-2.0625,2.296875
96,1697609805,-0.076660156,-1.0127563,0.049987793,2.125,-3.375,2.125
97,1697609845,-0.063964844,-0.96343994,0.06585693,1.3125,-1.484375,2.078125
98,1697609885,-0.10473633,-1.003479,0.05316162,0.234375,-1.03125,2.953125
99,1697609925,-0.095703125,-0.9963989,0.046569824,-0.140625,0.078125,2.125
100,1697609965,-0.08203125,-0.99102783,0.054870605,-1.328125,2.203125,1.4375
101,1697610005,-0.05517578,-0.9819946,0.058044434,-3.8125,2.46875,2.078125
102,1697610045,-0.056152344,-0.9824829,0.070007324,-2.203125,3.53125,0.90625
103,1697610085,-0.061035156,-1.0022583,0.0602417,-2.84375,0.765625,1.15625
104,1697610125,-0.028320312,-0.99102783,0.082458496,-1.546875,-0.46875,1.484375
105,1697610165,-0.07763672,-0.99713135,0.089782715,-0.5625,0.046875,1.078125
106,1697610205,-0.067871094,-1.0027466,0.078308105,-3.796875,-1.203125,0.640625
107,1697610245,-0.045166016,-0.97613525,0.09564209,-0.375,-1.125,0.5
108,1697610285,-0.068359375,-0.9834595,0.086364746,-1.21875,-0.90625,1.5625
109,1697610325,-0.06298828,-0.99713135,0.07879639,-1.109375,-1.390625,0.609375
110,1697610365,-0.0546875,-0.9800415,0.09222412,0.953125,-2.09375,0.015625
111,1697610405,-0.07763672,-0.9763794,0.082214355,0.453125,-2.609375,0.375
112,1697610445,-0.07348633,-0.98516846,0.08416748,-0.03125,-1.875,0.234375
113,1697610485,-0.06616211,-0.9890747,0.07366943,0.21875,-1.28125,0.09375
114,1697610525,-0.06298828,-0.9710083,0.09710693,0.3125,-1.390625,-1.4375
115,1697610565,-0.056884766,-0.99835205,0.073913574,1.234375,-1.765625,-1.15625
116,1697610605,-0.053466797,-0.9729614,0.08392334,0.65625,-0.4375,-1.53125
117,1697610645,-0.060302734,-0.99884033,0.08880615,-1.140625,-0.234375,0.890625
118,1697610685,-0.050048828,-0.9854126,0.07904053,-1.25,1.265625,0.828125
119,1697610725,-0.0769043,-0.98028564,0.085632324,0.421875,0.859375,1.5625
120,1697610765,-0.06713867,-0.99957275,0.081726074,0.75,-0.796875,1.03125
121,1697610805,-0.040527344,-0.9758911,0.09954834,0.65625,-1.375,-0.140625
122,1697610845,-0.055419922,-0.97979736,0.06561279,-0.75,-2.28125,0.4375
123,1697610885,-0.06323242,-0.9812622,0.07318115,2.421875,-1.296875,0.640625
124,1697610925,-0.061279297,-0.9829712,0.07611084,2.03125,-1.359375,0.078125
125,1697610965,-0.060302734,-0.97784424,0.059265137,1.453125,-2.59375,0.8125
126,1697611005,-0.053222656,-0.9939575,0.061950684,1.375,-2.640625,0.40625
127,1697611045,-0.055908203,-0.99468994,0.06463623,1.828125,-2.5,-0.28125
128,1697611085,-0.07421875,-0.9837036,0.070495605,1.984375,-1.65625,-0.375
129,1697611125,-0.060302734,-0.99053955,0.054870605,0.640625,-3.015625,0.375
130,1697611165,-0.05419922,-0.99053955,0.073913574,1.953125,-1.84375,0.46875
131,1697611205,-0.06567383,-0.99542236,0.04827881,0.125,-1.203125,0.46875
132,1697611245,-0.057373047,-0.9612427,0.08709717,3.515625,0.3125,0.40625
133,1697611285,-0.060058594,-1.0003052,0.03363037,-2.4375,-1.234375,-0.484375
134,1697611325,-0.05810547,-0.98272705,0.06536865,3.953125,-0.15625,0.484375
135,1697611365,-0.06713867,-1.0022583,0.05999756,1.1875,0.140625,1.34375
136,1697611405,-0.076660156,-0.97784424,0.047058105,1.71875,0.34375,0.5625
137,1697611445,-0.057861328,-0.9854126,0.04534912,1.21875,-0.65625,-0.25
138,1697611485,-0.049316406,-0.98687744,0.05218506,1.0,0.15625,0.046875
139,1697611525,-0.057128906,-1.0005493,0.046813965,1.578125,-0.21875,0.390625
140,1697611565,-0.049316406,-0.9854126,0.043640137,0.828125,-0.109375,-0.328125
141,1697611605,-0.06713867,-0.98516846,0.043640137,2.4375,0.203125,0.890625
142,1697611645,-0.059814453,-1.0027466,0.047302246,0.703125,-0.53125,0.046875
143,1697611685,-0.06323242,-0.98760986,0.027770996,0.765625,-0.734375,0.421875
144,1697611725,-0.060791016,-0.98883057,0.0446167,0.109375,-1.421875,-0.265625
145,1697611765,-0.06347656,-0.9885864,0.035827637,-0.046875,-0.640625,0.171875
146,1697611805,-0.06347656,-0.9846802,0.042907715,0.625,-0.96875,-0.09375
147,1697611845,-0.0625,-0.98394775,0.04534912,0.453125,-0.3125,0.265625
148,1697611885,-0.0625,-0.99346924,0.0289917,-0.8125,-0.40625,0.546875
149,1697611925,-0.060546875,-0.99005127,0.03753662,0.484375,-0.015625,0.421875
150,1697611965,-0.049560547,-0.98565674,0.028259277,-1.125,1.640625,-0.171875
151,1697612005,-0.049804688,-1.0049438,0.043395996,3.109375,-0.140625,0.484375
152,1697612045,-0.052001953,-0.96417236,0.02557373,-0.984375,1.46875,0.078125
153,1697612085,-0.06518555,-0.98638916,0.04144287,1.5625,0.6875,0.21875
154,1697612125,-0.059814453,-1.0005493,0.03338623,1.234375,0.453125,0.046875
155,1697612165,-0.06225586,-0.9854126,0.042175293,0.296875,0.359375,0.0625
156,1697612205,-0.059814453,-0.98809814,0.032165527,-0.390625,0.203125,-0.46875
157,1697612245,-0.0637207,-0.9849243,0.03289795,0.390625,-0.84375,-0.84375
158,1697612285,-0.061035156,-0.9937134,0.020690918,-0.6875,-1.8125,-0.609375
159,1697612325,-0.06616211,-0.9898071,0.029968262,0.265625,-0.609375,-0.421875
160,1697612365,-0.06567383,-0.987854,0.036315918,-0.5,0.40625,-0.328125
161,1697612405,-0.07739258,-0.9817505,0.031188965,-0.25,-2.171875,-0.859375
162,1697612445,-0.064208984,-0.98638916,0.019958496,0.859375,-3.546875,-1.78125
163,1697612485,-0.07128906,-0.9871216,0.026794434,0.921875,-2.6875,-2.1875
164,1697612525,-0.08251953,-0.9937134,0.032409668,0.796875,-1.90625,-1.25
165,1697612565,-0.072509766,-0.97247314,0.028259277,0.734375,-1.84375,-0.78125
166,1697612605,-0.08227539,-0.9829712,0.028503418,1.515625,-1.359375,0.21875
167,1697612645,-0.083496094,-0.9973755,0.022399902,1.40625,-0.59375,0.53125
168,1697612685,-0.088378906,-0.9849243,0.031433105,0.609375,-0.765625,0.078125
169,1697612725,-0.079589844,-0.9920044,0.026794434,0.578125,-0.4375,0.109375
170,1697612765,-0.088134766,-0.97662354,0.05731201,-1.609375,-0.765625,-0.640625
171,1697612805,-0.08691406,-0.9902954,-0.00982666,-2.6875,-0.921875,-0.6875
172,1697612845,-0.072021484,-0.98272705,0.022155762,1.703125,-0.65625,-0.40625
173,1697612885,-0.08129883,-1.005188,0.035339355,0.234375,-0.375,0.90625
174,1697612925,-0.072021484,-0.9937134,0.012634277,-1.15625,-0.109375,0.421875
175,1697612965,-0.07739258,-0.97735596,0.023132324,-0.78125,0.875,0.359375
176,1697613005,-0.080566406,-0.9985962,0.036071777,-1.8125,-0.03125,0.546875
177,1697613045,-0.076660156,-0.9883423,0.034606934,-2.9375,-0.453125,-0.515625
178,1697613085,-0.0703125,-0.98760986,0.039001465,-3.640625,-1.15625,-0.515625
179,1697613125,-0.08154297,-0.9937134,0.04046631,-2.75,0.109375,-0.421875
180,1697613165,-0.092285156,-0.9937134,0.053894043,-0.921875,0.109375,-0.46875
181,1697613205,-0.07373047,-0.9776001,0.04144287,-3.375,-1.203125,-0.484375
182,1697613245,-0.0715332,-0.99786377,0.04876709,-1.5625,-1.125,-0.171875
183,1697613285,-0.084472656,-0.98638916,0.051208496,-1.546875,-0.375,-0.53125
184,1697613325,-0.095214844,-0.9824829,0.05706787,-2.109375,-0.328125,-0.109375
185,1697613365,-0.06542969,-0.986145,0.047058105,-3.40625,-1.125,-0.46875
186,1697613405,-0.08935547,-0.9780884,0.06707764,-0.734375,0.015625,-0.453125
187,1697613445,-0.08911133,-1.0010376,0.06317139,-1.1875,-0.25,0.171875
188,1697613485,-0.07910156,-0.9624634,0.0927124,0.171875,0.28125,-0.828125
189,1697613525,-0.08886719,-0.9976196,0.03387451,-2.609375,-1.203125,-0.28125
190,1697613565,-0.1015625,-0.9824829,0.07098389,2.03125,-0.453125,-0.375
191,1697613605,-0.100097656,-0.9973755,0.06390381,-1.78125,0.0,-0.171875
192,1697613645,-0.08544922,-0.97735596,0.061462402,-0.15625,-0.3125,-0.59375
193,1697613685,-0.080322266,-0.97979736,0.066833496,1.28125,-0.828125,-0.03125
194,1697613725,-0.08886719,-0.9859009,0.051940918,2.15625,-1.5,0.71875
195,1697613765,-0.099609375,-0.98394775,0.051696777,3.234375,-1.40625,1.4375
196,1697613805,-0.08544922,-0.9824829,0.06561279,3.109375,-0.0625,1.171875
197,1697613845,-0.09448242,-0.9920044,0.06097412,2.375,0.3125,1.265625
198,1697613885,-0.08984375,-0.98516846,0.054382324,1.8125,0.09375,0.984375
199,1697613925,-0.07714844,-0.98809814,0.042419434,1.40625,-0.734375,1.078125
200,1697613965,-0.09350586,-0.9932251,0.057800293,2.359375,-0.078125,1.296875
201,1697614005,-0.08959961,-0.99957275,0.038024902,0.671875,0.015625,1.171875
202,1697614045,-0.079589844,-0.98809814,0.03656006,0.84375,0.0625,0.734375
203,1697614085,-0.08129883,-0.98931885,0.04534912,0.734375,0.25,0.9375
204,1697614125,-0.07299805,-1.0029907,0.02923584,-0.921875,0.3125,1.046875
205,1697614165,-0.07495117,-0.95977783,0.07147217,2.65625,1.125,0.796875
206,1697614205,-0.08569336,-0.9939575,0.025817871,-2.953125,-0.15625,0.40625
207,1697614245,-0.075927734,-0.97979736,0.035583496,1.9375,-0.4375,0.53125
208,1697614285,-0.079833984,-0.9927368,0.062927246,1.421875,-1.078125,0.6875
209,1697614325,-0.088134766,-0.98931885,0.034362793,-0.453125,-1.078125,0.25
210,1697614365,-0.06958008,-0.97247314,0.0368042,0.71875,-0.578125,0.234375
211,1697614405,-0.07543945,-0.9907837,0.03704834,-0.296875,-1.046875,0.234375
212,1697614445,-0.0715332,-0.9866333,0.038024902,1.65625,-0.875,0.546875
213,1697614485,-0.06640625,-0.9846802,0.0446167,1.015625,-0.71875,0.21875
214,1697614525,-0.083496094,-0.98223877,0.034118652,1.03125,-0.484375,0.515625
215,1697614565,-0.071777344,-0.9871216,0.042907715,0.625,-0.46875,0.1875
216,1697614605,-0.076416016,-0.9927368,0.026062012,0.671875,-0.6875,0.46875
217,1697614645,-0.068359375,-0.9768677,0.03387451,0.078125,-0.578125,-0.203125
218,1697614685,-0.07763672,-0.9985962,0.038269043,0.8125,0.0,0.265625
219,1697614725,-0.07763672,-0.98809814,0.036315918,-0.25,0.40625,0.546875
220,1697614765,-0.072753906,-0.99005127,0.035095215,0.390625,0.328125,0.921875
221,1697614805,-0.087402344,-0.98443604,0.035095215,0.515625,0.6875,0.984375
222,1697614845,-0.06958008,-0.99420166,0.02508545,-0.578125,0.390625,0.5
223,1697614885,-0.08178711,-0.96661377,0.06317139,0.578125,1.84375,0.953125
224,1697614925,-0.08081055,-1.0044556,0.0053100586,-2.609375,0.765625,1.046875
225,1697614965,-0.06225586,-0.9883423,0.024597168,1.265625,0.890625,0.921875
226,1697615005,-0.06958008,-1.0046997,0.04071045,-0.265625,0.46875,1.09375
227,1697615045,-0.0715332,-0.9841919,0.034851074,-0.171875,0.015625,0.578125
228,1697615085,-0.06347656,-0.99298096,0.030700684,-0.328125,0.28125,1.09375
229,1697615125,-0.07104492,-0.99053955,0.035583496,-0.078125,-0.203125,0.671875
230,1697615165,-0.061279297,-0.9915161,0.03289795,0.078125,-0.515625,-0.140625
231,1697615205,-0.057373047,-0.98565674,0.038513184,0.71875,-0.984375,0.53125
232,1697615245,-0.07104492,-0.98687744,0.04071045,0.96875,-0.4375,0.296875
233,1697615285,-0.072265625,-0.99591064,0.038757324,0.453125,-1.390625,0.359375
234,1697615325,-0.072265625,-0.9866333,0.032165527,-1.890625,-1.765625,-0.328125
235,1697615365,-0.06518555,-0.9932251,0.04144287,-1.875,-2.1875,-1.875
236,1697615405,-0.068603516,-0.98883057,0.04901123,-2.703125,-2.046875,-2.25
237,1697615445,-0.07763672,-0.98687744,0.051452637,-2.453125,-1.5,-1.75
238,1697615485,-0.067871094,-0.98760986,0.04510498,-2.5,-1.921875,-0.6875
239,1697615525,-0.068603516,-0.9924927,0.05633545,-1.671875,-0.890625,-0.328125
240,1697615565,-0.0769043,-0.987854,0.049987793,-2.078125,-0.515625,-0.453125
241,1697615605,-0.08081055,-0.9768677,0.055603027,-0.703125,-1.078125,0.171875
242,1697615645,-0.07788086,-1.0076294,0.04168701,-2.046875,-0.46875,0.34375
243,1697615685,-0.078125,-0.973938,0.08343506,0.953125,0.671875,-0.09375
244,1697615725,-0.06665039,-0.97784424,0.03778076,-4.515625,0.8125,-0.25
245,1697615765,-0.084472656,-0.9976196,0.081726074,1.875,0.828125,0.625
246,1697615805,-0.08105469,-1.000061,0.054382324,-2.34375,0.265625,0.828125
247,1697615845,-0.07519531,-0.98028564,0.06365967,-1.21875,1.46875,0.71875
248,1697615885,-0.08520508,-0.9829712,0.06756592,-0.484375,0.9375,0.46875
249,1697615925,-0.0793457,-0.98638916,0.06756592,-0.46875,0.015625,0.421875
250,1697615965,-0.07739258,-1.00177,0.06781006,-0.640625,-0.359375,0.734375
251,1697616005,-0.08105469,-0.9829712,0.070495605,0.953125,0.796875,0.609375
252,1697616045,-0.07080078,-0.99053955,0.07684326,0.125,-0.546875,0.90625
253,1697616085,-0.068603516,-0.9902954,0.06439209,-0.21875,-0.328125,0.46875
254,1697616125,-0.0769043,-0.97906494,0.06317139,1.109375,-0.359375,0.640625
255,1697616165,-0.07763672,-0.98028564,0.06854248,0.390625,-1.21875,0.609375
256,1697616205,-0.075927734,-0.98760986,0.059509277,0.921875,-1.046875,0.625
257,1697616245,-0.06689453,-0.9788208,0.059509277,1.046875,-0.890625,0.234375
258,1697616285,-0.07495117,-0.98394775,0.070739746,1.21875,-0.78125,0.65625
259,1697616325,-0.072753906,-0.9915161,0.057556152,0.390625,-0.984375,0.28125
260,1697616365,-0.076416016,-0.9854126,0.06585693,1.359375,-0.546875,0.40625
261,1697616405,-0.06958008,-0.99713135,0.04046631,-1.078125,-1.125,0.1875
262,1697616445,-0.072021484,-0.99591064,0.07244873,4.390625,-0.390625,0.6875
263,1697616485,-0.061035156,-0.97613525,0.039733887,-2.765625,-0.15625,-0.375
264,1697616525,-0.08520508,-0.9949341,0.05657959,2.640625,-1.140625,0.234375
265,1697616565,-0.064453125,-0.9951782,0.059265137,0.546875,-1.625,-0.1875
266,1697616605,-0.071777344,-0.9729614,0.058532715,1.203125,-2.171875,-0.953125
267,1697616645,-0.07373047,-1.0049438,0.04901123,1.3125,-1.09375,0.078125
268,1697616685,-0.07836914,-0.9885864,0.05316162,0.0625,-0.640625,0.015625
269,1697616725,-0.07421875,-0.9981079,0.036071777,1.28125,-0.96875,0.40625
270,1697616765,-0.068603516,-0.9717407,0.054870605,1.640625,-0.265625,-0.25
271,1697616805,-0.08886719,-0.9829712,0.048034668,1.0,-0.921875,0.25
272,1697616845,-0.075927734,-1.0061646,0.046813965,0.25,-1.546875,0.0625
273,1697616885,-0.0769043,-0.9915161,0.03753662,-0.671875,-1.1875,0.0625
274,1697616925,-0.08300781,-0.9780884,0.047790527,0.140625,-0.5625,-0.046875
275,1697616965,-0.07885742,-0.987854,0.049987793,0.0625,-0.578125,0.109375
276,1697617005,-0.07885742,-0.99298096,0.053894043,-0.046875,-0.765625,0.265625
277,1697617045,-0.07885742,-0.9817505,0.04144287,-0.5,-0.125,0.375
278,1697617085,-0.068847656,-0.986145,0.04046631,0.015625,0.328125,0.875
279,1697617125,-0.07739258,-0.9871216,0.055603027,-0.703125,0.734375,0.53125
280,1697617165,-0.07519531,-0.9956665,0.047790527,0.390625,0.75,0.953125
281,1697617205,-0.0793457,-0.9627075,0.08099365,-1.671875,1.28125,0.90625
282,1697617245,-0.07763672,-1.0149536,0.016052246,-1.296875,0.84375,1.6875
283,1697617285,-0.06347656,-0.9727173,0.046081543,0.9375,0.578125,0.4375
284,1697617325,-0.068603516,-0.9915161,0.058532715,0.0625,1.78125,1.515625
285,1697617365,-0.076660156,-0.9956665,0.039978027,-0.1875,0.78125,0.71875
286,1697617405,-0.068603516,-0.9841919,0.04949951,0.515625,0.71875,0.578125
287,1697617445,-0.05834961,-0.9859009,0.04876709,-0.46875,0.328125,0.46875
288,1697617485,-0.060546875,-0.9885864,0.04949951,0.21875,0.40625,0.375
289,1697617525,-0.061523438,-0.98443604,0.055358887,-0.453125,0.234375,0.5
290,1697617565,-0.06689453,-0.9841919,0.04437256,-0.40625,0.078125,0.140625
291,1697617605,-0.06738281,-0.99468994,0.051696777,-0.171875,-0.640625,0.109375
292,1697617645,-0.06542969,-0.99005127,0.048034668,-0.0625,-0.578125,0.359375
293,1697617685,-0.07104492,-0.98443604,0.049743652,-0.484375,-0.953125,-0.375
294,1697617725,-0.07421875,-0.9834595,0.05316162,0.515625,-1.484375,-0.5
295,1697617765,-0.07006836,-0.9920044,0.047790527,0.34375,-1.71875,-0.515625
296,1697617805,-0.079589844,-0.99420166,0.050231934,-0.1875,-1.8125,-0.984375
297,1697617845,-0.06713867,-0.9907837,0.05340576,-0.828125,-1.4375,-0.953125
298,1697617885,-0.07128906,-0.9849243,0.06585693,-1.59375,-1.546875,-0.578125
299,1697617925,-0.07104492,-0.99591064,0.053894043,-2.359375,-1.609375,-1.015625
300,1697617965,-0.075927734,-0.9829712,0.05706787,-1.59375,-1.796875,-1.15625
301,1697618005,-0.0637207,-1.0003052,0.04876709,-1.90625,-0.96875,-0.546875
302,1697618045,-0.087646484,-0.98565674,0.08123779,1.21875,-0.171875,-0.15625
303,1697618085,-0.06713867,-0.9702759,0.04852295,-5.609375,-0.265625,-0.75
304,1697618125,-0.092041016,-1.0005493,0.07562256,0.59375,-0.328125,-0.203125
305,1697618165,-0.07861328,-0.9956665,0.066589355,-2.328125,0.015625,-0.203125
306,1697618205,-0.08129883,-0.97247314,0.06463623,-1.921875,0.65625,0.015625
307,1697618245,-0.07543945,-0.9859009,0.07635498,-1.578125,-0.25,-0.171875
308,1697618285,-0.08935547,-0.98931885,0.07220459,-1.203125,-0.890625,-0.015625
309,1697618325,-0.08105469,-1.0056763,0.070495605,-1.765625,-0.46875,0.390625
310,1697618365,-0.07836914,-0.9771118,0.07977295,-0.234375,0.546875,0.171875
311,1697618405,-0.08666992,-0.9898071,0.08782959,-1.515625,0.28125,0.421875
312,1697618445,-0.07421875,-0.99298096,0.0758667,-1.53125,-0.453125,-0.03125
313,1697618485,-0.08154297,-0.9834595,0.08856201,-0.125,-0.453125,0.453125
314,1697618525,-0.08300781,-0.9793091,0.08343506,-1.46875,0.265625,0.015625
315,1697618565,-0.091552734,-0.9854126,0.08905029,-0.375,-0.09375,0.421875
316,1697618605,-0.08154297,-0.9898071,0.08148193,-0.96875,-0.21875,0.375
317,1697618645,-0.083496094,-0.989563,0.09222412,-1.0,0.421875,0.84375
318,1697618685,-0.079833984,-0.98931885,0.086120605,-1.21875,-0.375,0.765625
319,1697618725,-0.084228516,-0.97784424,0.08929443,0.53125,-0.265625,0.765625
320,1697618765,-0.08520508,-0.99176025,0.07659912,0.59375,-0.828125,1.0625
321,1697618805,-0.07299805,-0.9729614,0.09564209,1.6875,0.484375,0.125
322,1697618845,-0.072509766,-0.99786377,0.050231934,2.21875,-0.4375,1.65625
323,1697618885,-0.07543945,-0.9702759,0.0914917,3.046875,2.25,1.375
324,1697618925,-0.083740234,-0.99102783,0.08074951,1.9375,1.03125,1.59375
325,1697618965,-0.0690918,-0.98321533,0.07684326,3.046875,0.703125,1.296875
326,1697619005,-0.07080078,-0.9920044,0.07366943,1.03125,-0.1875,1.0625
327,1697619045,-0.06762695,-0.99420166,0.077819824,1.03125,-0.53125,0.625
328,1697619085,-0.068359375,-0.98028564,0.082214355,1.125,-0.75,0.921875
329,1697619125,-0.056640625,-0.9854126,0.07098389,-0.046875,-0.984375,0.734375
330,1697619165,-0.068847656,-0.99298096,0.06781006,1.765625,0.21875,0.921875
331,1697619205,-0.064208984,-0.98931885,0.06854248,0.5625,-0.40625,1.015625
332,1697619245,-0.0690918,-0.97906494,0.05731201,1.109375,-0.453125,0.984375
333,1697619285,-0.06665039,-0.9854126,0.05609131,0.21875,-0.90625,0.65625
334,1697619325,-0.061279297,-0.9985962,0.06317139,1.671875,0.109375,0.765625
335,1697619365,-0.06958008,-0.9924927,0.06829834,1.359375,0.265625,0.765625
336,1697619405,-0.0625,-0.9829712,0.055358887,-0.421875,-0.296875,0.703125
337,1697619445,-0.05444336,-0.987854,0.07513428,1.484375,-0.671875,0.28125
338,1697619485,-0.07080078,-0.99713135,0.061462402,-0.296875,-1.203125,-0.21875
339,1697619525,-0.060546875,-0.98883057,0.050476074,-0.15625,-1.0,0.046875
340,1697619565,-0.052490234,-0.98565674,0.07171631,0.328125,-0.25,-0.65625
341,1697619605,-0.05810547,-1.0183716,0.051452637,1.5625,-2.0,0.375
342,1697619645,-0.046142578,-0.96710205,0.053649902,-0.84375,-0.140625,-0.125
343,1697619685,-0.07495117,-0.9939575,0.055114746,1.390625,-0.625,0.375
344,1697619725,-0.06225586,-0.99957275,0.05633545,0.703125,-0.78125,0.3125
345,1697619765,-0.07055664,-0.9817505,0.04949951,0.5625,-0.9375,0.328125
346,1697619805,-0.055664062,-0.99298096,0.05731201,0.125,-0.015625,0.328125
347,1697619845,-0.068603516,-0.9783325,0.042663574,-1.421875,-0.734375,-0.109375
348,1697619885,-0.06616211,-0.99346924,0.045837402,-0.171875,0.453125,0.484375
349,1697619925,-0.0769043,-0.9973755,0.05609131,-0.109375,1.765625,0.984375
350,1697619965,-0.064453125,-0.9710083,0.058288574,-1.15625,1.578125,0.265625
351,1697620005,-0.061523438,-0.9883423,0.04949951,0.375,1.8125,1.703125
352,1697620045,-0.052490234,-1.0073853,0.05609131,0.5,0.90625,0.0625
353,1697620085,-0.06591797,-0.99542236,0.058288574,1.46875,1.109375,1.375
354,1697620125,-0.05517578,-0.9741821,0.050720215,0.09375,0.625,0.421875
355,1697620165,-0.064453125,-0.9795532,0.05340576,0.875,0.3125,0.65625
356,1697620205,-0.05444336,-0.99346924,0.05999756,-0.359375,-0.25,0.3125
357,1697620245,-0.055908203,-0.99005127,0.04486084,-0.1875,-0.125,1.109375
358,1697620285,-0.06542969,-0.986145,0.05291748,0.828125,0.203125,0.71875
359,1697620325,-0.05053711,-1.0010376,0.041931152,-0.859375,-0.03125,0.453125
360,1697620365,-0.0690918,-0.9937134,0.07269287,3.734375,0.53125,0.71875
361,1697620405,-0.06567383,-0.97857666,0.0368042,-2.75,0.21875,-0.015625
362,1697620445,-0.05126953,-0.9985962,0.04852295,1.203125,0.46875,1.078125
363,1697620485,-0.05493164,-1.0007935,0.05657959,-0.234375,0.671875,0.515625
364,1697620525,-0.05419922,-0.9776001,0.058288574,0.21875,0.15625,0.875
365,1697620565,-0.059326172,-0.9924927,0.04559326,-0.609375,0.046875,0.75
366,1697620605,-0.05883789,-0.98809814,0.047790527,-0.34375,0.3125,0.4375
367,1697620645,-0.050048828,-0.9968872,0.05682373,0.390625,0.5625,0.40625
368,1697620685,-0.05419922,-0.9837036,0.055603027,-0.53125,0.375,0.71875
369,1697620725,-0.053955078,-0.9854126,0.05218506,-0.5,0.75,0.875
370,1697620765,-0.04663086,-0.9939575,0.058044434,-0.671875,0.703125,0.953125
371,1697620805,-0.041503906,-0.98101807,0.051208496,-0.796875,0.203125,0.640625
372,1697620845,-0.04345703,-0.986145,0.05731201,-0.828125,-0.953125,-0.03125
373,1697620885,-0.057128906,-0.986145,0.057800293,-0.03125,-0.328125,0.25
374,1697620925,-0.05444336,-0.99224854,0.057556152,-1.359375,-0.046875,0.125
375,1697620965,-0.04638672,-0.99224854,0.0602417,-1.0625,-0.140625,0.0625
376,1697621005,-0.05444336,-0.98443604,0.07318115,-1.0,-0.515625,-0.0625
377,1697621045,-0.045410156,-0.9920044,0.06878662,-2.171875,-1.421875,0.234375
378,1697621085,-0.041992188,-0.98565674,0.06512451,-2.640625,-1.703125,-0.5
379,1697621125,-0.032714844,-0.98223877,0.062438965,-2.5625,-0.828125,-1.53125
380,1697621165,-0.032714844,-0.9937134,0.08343506,2.046875,-3.25,-1.125
381,1697621205,-0.044677734,-0.9763794,0.06878662,-2.65625,-2.375,-1.390625
382,1697621245,-0.083496094,-0.9998169,0.06829834,0.71875,-2.390625,-0.671875
383,1697621285,-0.053222656,-0.9902954,0.08099365,0.734375,-1.0625,0.0
384,1697621325,-0.072265625,-0.9866333,0.08001709,0.015625,-0.515625,0.4375
385,1697621365,-0.05859375,-0.9854126,0.07537842,-0.59375,-1.625,0.09375
386,1697621405,-0.06762695,-0.9817505,0.07366943,0.484375,-1.53125,0.09375
387,1697621445,-0.068603516,-0.9981079,0.06463623,0.125,-2.0625,0.125
388,1697621485,-0.053955078,-0.9758911,0.07513428,0.015625,-0.9375,-0.203125
389,1697621525,-0.064453125,-0.99102783,0.074645996,0.8125,-1.5,0.03125
390,1697621565,-0.0625,-0.9927368,0.07171631,0.0625,-1.0,0.0625
391,1697621605,-0.051757812,-0.9898071,0.05609131,0.5,-1.921875,-0.171875
392,1697621645,-0.056152344,-0.9771118,0.07196045,-0.03125,-1.578125,-0.53125
393,1697621685,-0.05834961,-0.9729614,0.074157715,-0.21875,-2.359375,-1.25
394,1697621725,-0.0949707,-0.98272705,0.07366943,2.65625,-1.421875,-0.875
395,1697621765,-0.063964844,-1.0039673,0.066589355,-0.046875,-1.484375,0.0625
396,1697621805,-0.068847656,-0.99005127,0.07684326,0.203125,-0.96875,-0.984375
397,1697621845,-0.057617188,-1.0015259,0.0692749,0.0625,-1.265625,-1.140625
398,1697621885,-0.060791016,-0.98223877,0.097839355,-3.15625,-0.828125,-1.09375
399,1697621925,-0.07861328,-1.0071411,0.045837402,-1.90625,-1.140625,-0.578125
400,1697621965,-0.06713867,-0.9656372,0.07147217,-1.828125,-0.703125,-1.453125
401,1697622005,-0.08544922,-0.9871216,0.082214355,-0.6875,-1.140625,-1.1875
402,1697622045,-0.078125,-0.9981079,0.07293701,-1.03125,-1.03125,-1.046875
403,1697622085,-0.079833984,-0.9819946,0.07513428,-1.328125,-0.296875,-0.734375
404,1697622125,-0.06567383,-0.98687744,0.07489014,-1.453125,-1.140625,-0.84375
405,1697622165,-0.08642578,-0.9746704,0.09539795,-0.703125,-0.796875,-0.71875
406,1697622205,-0.08251953,-1.0010376,0.07366943,-2.296875,-2.6875,-0.09375
407,1697622245,-0.08544922,-0.9783325,0.07879639,-0.390625,-0.34375,-0.609375
408,1697622285,-0.09350586,-1.0056763,0.093444824,-0.375,-0.640625,-0.375
409,1697622325,-0.07324219,-0.9866333,0.07977295,-3.03125,-0.75,-0.390625
410,1697622365,-0.08300781,-0.97784424,0.08660889,-0.15625,0.21875,0.4375
411,1697622405,-0.078125,-0.97735596,0.089782715,-2.546875,-0.140625,-0.296875
412,1697622445,-0.09838867,-0.98101807,0.098083496,-1.234375,-0.625,0.0
413,1697622485,-0.1003418,-0.97369385,0.09661865,-0.859375,-0.453125,-0.171875
414,1697622525,-0.09375,-1.0073853,0.10028076,0.109375,-0.625,0.203125
415,1697622565,-0.07519531,-0.98101807,0.11151123,-1.140625,-0.640625,-1.1875
416,1697622605,-0.10107422,-0.98638916,0.094177246,1.40625,-1.09375,0.5
417,1697622645,-0.07739258,-0.9697876,0.07318115,-2.328125,-0.609375,-0.09375
418,1697622685,-0.09326172,-0.9673462,0.10321045,1.75,-0.453125,0.21875
419,1697622725,-0.078125,-0.9834595,0.09906006,2.5625,-0.8125,0.796875
420,1697622765,-0.09350586,-0.98443604,0.097351074,2.90625,-0.484375,1.21875
421,1697622805,-0.0859375,-0.9949341,0.085632324,2.484375,-0.828125,0.5625
422,1697622845,-0.09448242,-0.9758911,0.09979248,2.21875,0.109375,0.78125
423,1697622885,-0.08544922,-0.991272,0.07537842,-0.78125,-0.34375,1.140625
424,1697622925,-0.0793457,-0.9846802,0.07366943,2.046875,0.578125,0.625
425,1697622965,-0.08325195,-0.989563,0.082458496,1.4375,0.21875,0.984375
426,1697623005,-0.072265625,-0.98150635,0.07318115,1.6875,-0.421875,1.0625
427,1697623045,-0.080322266,-0.987854,0.06732178,2.421875,-0.671875,0.625
428,1697623085,-0.07861328,-0.9993286,0.06561279,1.21875,-0.46875,0.71875
429,1697623125,-0.08618164,-0.9898071,0.07733154,1.5,0.5625,0.921875
430,1697623165,-0.08276367,-0.9859009,0.066589355,-0.484375,-0.125,0.609375
431,1697623205,-0.07348633,-0.97857666,0.08392334,1.0625,-0.296875,0.359375
432,1697623245,-0.051757812,-0.99420166,0.054138184,-2.53125,-0.71875,-0.640625
433,1697623285,-0.10083008,-0.9963989,0.078308105,4.125,-0.296875,0.84375
434,1697623325,-0.08081055,-0.9636841,0.05657959,-2.859375,-0.328125,0.046875
435,1697623365,-0.08227539,-0.9973755,0.08294678,2.46875,-0.03125,0.453125
436,1697623405,-0.06665039,-0.9976196,0.07196045,0.90625,-0.875,0.21875
437,1697623445,-0.072509766,-0.9776001,0.070251465,0.515625,-0.625,0.15625
438,1697623485,-0.075683594,-0.98809814,0.070495605,0.734375,-0.015625,0.234375
439,1697623525,-0.07910156,-0.98321533,0.050720215,-0.28125,0.140625,0.484375
440,1697623565,-0.076171875,-0.99884033,0.05706787,0.03125,-0.296875,0.515625
441,1697623605,-0.078125,-0.9885864,0.06512451,0.0625,0.0,0.78125
442,1697623645,-0.0769043,-0.96417236,0.06536865,-0.9375,0.015625,0.28125
443,1697623685,-0.06982422,-0.9907837,0.06488037,-0.25,-0.984375,-0.28125
444,1697623725,-0.06591797,-1.0046997,0.06707764,0.6875,-0.828125,0.03125
445,1697623765,-0.087402344,-0.9807739,0.070739746,-0.171875,0.078125,0.328125
446,1697623805,-0.08227539,-0.99102783,0.070739746,-0.15625,-0.015625,0.171875
447,1697623845,-0.07299805,-0.9920044,0.06585693,-0.546875,-0.625,0.328125
448,1697623885,-0.07519531,-0.9883423,0.070007324,-0.296875,0.09375,0.265625
449,1697623925,-0.076171875,-0.9871216,0.06585693,-0.09375,-0.515625,0.28125
450,1697623965,-0.07861328,-0.99005127,0.06878662,0.453125,-0.390625,0.4375
451,1697624005,-0.07519531,-0.99664307,0.06951904,-0.375,0.171875,0.390625
452,1697624045,-0.08178711,-0.96539307,0.10491943,0.828125,0.359375,0.09375
453,1697624085,-0.07324219,-0.9854126,0.047058105,-3.5,-0.453125,0.34375
454,1697624125,-0.08203125,-0.99224854,0.057556152,1.78125,-0.21875,0.375
455,1697624165,-0.068847656,-0.99420166,0.07366943,0.0,-0.125,0.71875
456,1697624205,-0.07470703,-0.98565674,0.074401855,-0.5625,0.328125,0.484375
457,1697624245,-0.0769043,-0.98931885,0.07196045,-0.53125,0.546875,0.671875
458,1697624285,-0.075927734,-0.9849243,0.082214355,0.0625,0.375,0.3125
459,1697624325,-0.09008789,-0.98760986,0.08050537,0.359375,-0.34375,0.8125
460,1697624365,-0.06616211,-0.98809814,0.07977295,-0.859375,0.234375,0.71875
461,1697624405,-0.06713867,-0.98223877,0.07342529,-0.59375,0.9375,0.609375
462,1697624445,-0.07714844,-0.97857666,0.07733154,0.796875,-0.21875,0.265625
463,1697624485,-0.068847656,-0.9812622,0.06732178,-0.078125,0.0625,0.921875
464,1697624525,-0.0703125,-0.99786377,0.066101074,0.265625,-0.21875,0.53125
465,1697624565,-0.06201172,-0.97857666,0.07659912,0.234375,-0.046875,0.203125
466,1697624605,-0.07373047,-0.9829712,0.0680542,0.0,0.125,0.390625
467,1697624645,-0.06591797,-0.9920044,0.07318115,-0.171875,-0.5625,0.25
468,1697624685,-0.072509766,-0.9944458,0.0770874,-0.171875,-0.265625,0.171875
469,1697624725,-0.0703125,-0.9871216,0.070739746,-0.1875,-0.34375,-0.171875
470,1697624765,-0.07470703,-0.98760986,0.078308105,0.0625,-0.40625,-0.015625
471,1697624805,-0.07885742,-0.9849243,0.08343506,-0.1875,-0.90625,-0.578125
472,1697624845,-0.06616211,-0.9824829,0.0680542,-0.1875,-1.53125,-0.359375
473,1697624885,-0.0637207,-0.9866333,0.074157715,1.6875,-1.9375,-0.921875
474,1697624925,-0.06713867,-0.9973755,0.057556152,-1.09375,-1.8125,-0.96875
475,1697624965,-0.08129883,-1.0046997,0.08538818,4.34375,-1.640625,-0.296875
476,1697625005,-0.067871094,-0.9627075,0.066833496,-4.0,-0.390625,-0.71875
477,1697625045,-0.08178711,-0.99224854,0.07611084,0.453125,-1.46875,-0.328125
478,1697625085,-0.07055664,-0.99005127,0.078552246,-0.28125,-1.1875,-0.671875
479,1697625125,-0.08691406,-0.9859009,0.07611084,-1.109375,-0.390625,-0.21875
480,1697625165,-0.08251953,-0.9898071,0.07733154,-2.4375,-1.09375,-0.328125
481,1697625205,-0.08129883,-0.9885864,0.07757568,-1.25,-0.890625,-0.234375
482,1697625245,-0.079833984,-0.9890747,0.078063965,-0.046875,-0.703125,0.203125
483,1697625285,-0.087646484,-0.9795532,0.0848999,-2.0625,-0.65625,0.15625
484,1697625325,-0.087646484,-0.98565674,0.07928467,-2.359375,0.25,0.03125
485,1697625365,-0.079833984,-0.99053955,0.086120605,-0.28125,-0.578125,-0.328125
486,1697625405,-0.083740234,-0.9829712,0.093688965,-0.75,-0.4375,0.5625
487,1697625445,-0.08496094,-0.9776001,0.08416748,-1.71875,-0.609375,-0.359375
488,1697625485,-0.08569336,-0.9944458,0.08343506,-0.5625,-0.90625,-0.296875
489,1697625525,-0.07910156,-0.9902954,0.09710693,-0.796875,-0.40625,-0.078125
490,1697625565,-0.09033203,-0.9819946,0.08416748,-1.484375,-0.625,-0.03125
491,1697625605,-0.072753906,-0.9837036,0.093933105,-1.03125,-0.265625,-0.015625
492,1697625645,-0.087402344,-0.98028564,0.09661865,-1.125,-0.328125,0.140625
493,1697625685,-0.07885742,-0.98687744,0.0914917,-2.015625,-0.296875,0.203125
494,1697625725,-0.08544922,-0.986145,0.098083496,-0.34375,-0.5,0.265625
495,1697625765,-0.09008789,-0.9907837,0.097595215,-0.359375,-0.15625,0.453125
496,1697625805,-0.07739258,-0.9636841,0.11517334,-0.015625,-0.015625,-0.203125
497,1697625845,-0.087646484,-1.0005493,0.07366943,-1.890625,-0.515625,0.375
498,1697625885,-0.08959961,-0.9746704,0.109313965,1.9375,0.09375,0.296875
499,1697625925,-0.076660156,-0.972229,0.101745605,-0.171875,-0.625,0.421875
500,1697625965,-0.08178711,-0.9837036,0.08905029,1.453125,-0.40625,0.765625
501,1697626005,-0.080322266,-0.98443604,0.08831787,1.171875,-0.328125,0.609375
502,1697626045,-0.08105469,-0.98321533,0.09515381,1.40625,-0.03125,0.453125
503,1697626085,-0.088134766,-0.9763794,0.09979248,1.71875,-0.46875,1.046875
504,1697626125,-0.068603516,-0.98321533,0.0836792,-0.46875,-0.484375,0.375
505,1697626165,-0.09423828,-0.9854126,0.09222412,2.265625,0.359375,0.671875
506,1697626205,-0.076416016,-0.99468994,0.08807373,0.6875,-0.640625,0.53125
507,1697626245,-0.08496094,-0.98883057,0.08709717,1.15625,-0.75,0.828125
508,1697626285,-0.079833984,-0.9837036,0.08074951,1.078125,-0.921875,0.390625
509,1697626325,-0.076660156,-0.9819946,0.07977295,1.8125,-0.75,0.453125
510,1697626365,-0.08300781,-0.98883057,0.078063965,0.796875,-0.5,0.375
511,1697626405,-0.07543945,-0.9890747,0.08709717,1.75,-0.4375,0.546875
512,1697626445,-0.076171875,-0.975647,0.0758667,0.8125,-1.0625,0.296875
513,1697626485,-0.07397461,-0.98931885,0.070251465,0.375,-1.203125,-0.203125
514,1697626525,-0.08325195,-0.98565674,0.08734131,1.65625,-1.046875,-0.453125
515,1697626565,-0.07397461,-0.9920044,0.0524292,-0.796875,-0.5,-0.125
516,1697626605,-0.06347656,-0.9956665,0.097595215,4.65625,0.609375,0.90625
517,1697626645,-0.07104492,-0.98565674,0.057800293,-3.078125,0.484375,0.25
518,1697626685,-0.0769043,-0.98272705,0.07293701,1.78125,-0.921875,0.546875
519,1697626725,-0.076171875,-0.99176025,0.08050537,0.515625,-1.25,0.59375
520,1697626765,-0.07739258,-0.972229,0.06781006,-0.21875,-0.875,-0.0625
521,1697626805,-0.087402344,-0.9985962,0.08026123,1.046875,-0.25,0.1875
522,1697626845,-0.08300781,-0.9924927,0.06317139,-0.078125,-0.203125,0.078125
523,1697626885,-0.064941406,-0.9834595,0.07269287,0.203125,-0.109375,0.265625
524,1697626925,-0.0793457,-0.9885864,0.081726074,0.3125,0.0625,0.140625
525,1697626965,-0.083496094,-0.9829712,0.07537842,0.46875,-0.890625,0.203125
526,1697627005,-0.07055664,-0.991272,0.0680542,0.3125,-0.546875,0.359375
527,1697627045,-0.0769043,-0.9849243,0.07318115,-0.09375,0.015625,0.71875
528,1697627085,-0.07543945,-0.98223877,0.07098389,-0.390625,-0.03125,0.09375
529,1697627125,-0.08105469,-0.9915161,0.070495605,0.46875,0.109375,0.984375
530,1697627165,-0.083984375,-0.97979736,0.06756592,-0.453125,0.40625,0.515625
531,1697627205,-0.068359375,-0.9807739,0.06756592,-0.234375,0.203125,0.4375
532,1697627245,-0.06713867,-0.9939575,0.0692749,-0.203125,-0.15625,0.46875
533,1697627285,-0.08618164,-0.98516846,0.074645996,0.0625,-0.234375,0.3125
534,1697627325,-0.07788086,-0.986145,0.06121826,-0.453125,-0.578125,0.125
535,1697627365,-0.07788086,-0.99005127,0.07635498,0.90625,-0.046875,0.265625
536,1697627405,-0.068847656,-0.9993286,0.05633545,-0.671875,0.0,-0.1875
537,1697627445,-0.07788086,-0.98150635,0.0927124,3.09375,0.078125,0.96875
538,1697627485,-0.063964844,-0.98101807,0.055114746,-3.203125,0.265625,-0.015625
539,1697627525,-0.08666992,-0.99224854,0.057556152,1.8125,0.109375,0.5
540,1697627565,-0.07080078,-1.000061,0.070251465,0.21875,-0.125,0.4375
541,1697627605,-0.07543945,-0.9776001,0.07611084,0.359375,0.046875,0.34375
542,1697627645,-0.0715332,-0.9841919,0.074157715,0.125,0.375,0.609375
543,1697627685,-0.07910156,-0.99420166,0.066589355,-0.296875,-0.34375,0.625
544,1697627725,-0.06591797,-0.99468994,0.07171631,-0.5625,-0.359375,0.015625
545,1697627765,-0.06958008,-0.98101807,0.07757568,-0.8125,-0.953125,0.046875
546,1697627805,-0.080078125,-0.98687744,0.06561279,-0.875,-1.453125,-0.203125
547,1697627845,-0.08203125,-0.99468994,0.06976318,-0.65625,-1.453125,-0.34375
548,1697627885,-0.0793457,-0.98883057,0.06976318,-1.140625,-1.15625,-0.34375
549,1697627925,-0.08105469,-0.98809814,0.07196045,-0.828125,-1.484375,-0.40625
550,1697627965,-0.072021484,-0.9890747,0.07562256,-1.03125,-1.21875,-0.390625
551,1697628005,-0.08203125,-0.99420166,0.082458496,-1.65625,-0.5625,-0.21875
552,1697628045,-0.0769043,-0.99005127,0.078308105,-1.84375,-0.984375,-0.21875
553,1697628085,-0.083984375,-0.9890747,0.0848999,-1.390625,-0.25,-0.171875
554,1697628125,-0.07397461,-0.9866333,0.090270996,-1.734375,-0.484375,-0.125
555,1697628165,-0.080566406,-0.98443604,0.093444824,-1.1875,-0.03125,0.140625
556,1697628205,-0.078125,-0.98272705,0.085876465,-2.015625,-0.9375,-0.15625
557,1697628245,-0.076416016,-0.97613525,0.09442139,-0.90625,-0.328125,-0.15625
558,1697628285,-0.07348633,-0.9846802,0.085876465,-2.3125,-0.828125,-0.421875
559,1697628325,-0.08325195,-0.9927368,0.097595215,1.40625,-0.375,0.4375
560,1697628365,-0.0703125,-0.972229,0.08709717,-2.390625,-0.65625,-0.515625
561,1697628405,-0.08642578,-0.9898071,0.09832764,1.0625,-1.25,0.203125
562,1697628445,-0.07763672,-0.9854126,0.08734131,0.921875,-1.078125,0.296875
563,1697628485,-0.08227539,-0.97906494,0.08929443,0.734375,-0.734375,0.0625
564,1697628525,-0.076416016,-0.98028564,0.09295654,1.5625,-0.59375,0.34375
565,1697628565,-0.079833984,-0.9907837,0.08465576,2.1875,-1.828125,0.671875
566,1697628605,-0.083984375,-0.99884033,0.07489014,2.015625,-1.0625,0.78125
567,1697628645,-0.078125,-0.97320557,0.08465576,1.453125,-0.671875,0.140625
568,1697628685,-0.0847168,-0.9949341,0.08465576,1.984375,-1.171875,0.6875
569,1697628725,-0.08642578,-0.9873657,0.08026123,1.015625,-1.640625,-0.09375
570,1697628765,-0.07763672,-0.98931885,0.07269287,1.078125,-1.4375,0.046875
571,1697628805,-0.07373047,-0.9829712,0.07611084,1.046875,-1.5625,-0.0625
572,1697628845,-0.08544922,-0.9937134,0.07269287,1.15625,-1.375,0.203125
573,1697628885,-0.08203125,-0.989563,0.07098389,0.4375,-0.828125,0.296875
574,1697628925,-0.072265625,-0.9829712,0.07220459,0.796875,-0.65625,0.296875
575,1697628965,-0.08203125,-0.9788208,0.06903076,0.390625,-0.796875,0.453125
576,1697629005,-0.0793457,-0.98760986,0.08026123,0.71875,-0.828125,0.328125
577,1697629045,-0.08496094,-0.9873657,0.058776855,-0.265625,-0.5625,0.484375
578,1697629085,-0.08300781,-0.98687744,0.07122803,1.015625,-0.578125,0.390625
579,1697629125,-0.0793457,-0.9834595,0.06951904,-0.890625,0.0625,0.015625
580,1697629165,-0.079589844,-1.0090942,0.066833496,1.703125,-0.921875,1.015625
581,1697629205,-0.06591797,-0.97442627,0.057800293,-0.484375,0.328125,0.296875
582,1697629245,-0.08300781,-0.99468994,0.08001709,0.453125,-0.140625,1.03125
583,1697629285,-0.07128906,-0.99346924,0.06488037,0.140625,-0.015625,1.234375
584,1697629325,-0.07714844,-0.9741821,0.06976318,0.296875,0.59375,0.90625
585,1697629365,-0.07324219,-0.991272,0.06707764,0.1875,0.375,0.984375
586,1697629405,-0.07421875,-0.989563,0.06072998,0.203125,-0.859375,1.328125
587,1697629445,-0.067871094,-0.99664307,0.070007324,0.15625,-0.40625,1.609375
588,1697629485,-0.07348633,-0.98321533,0.06317139,-0.203125,0.390625,1.40625
589,1697629525,-0.068359375,-0.96954346,0.074401855,-0.359375,0.015625,0.859375
590,1697629565,-0.076416016,-0.98883057,0.059265137,0.21875,-0.46875,1.09375
591,1697629605,-0.068603516,-0.9932251,0.062927246,0.484375,-0.53125,0.703125
592,1697629645,-0.0637207,-0.98687744,0.07244873,0.0625,0.046875,0.65625
593,1697629685,-0.063964844,-0.9819946,0.066345215,0.65625,0.1875,0.734375
594,1697629725,-0.06201172,-0.9924927,0.07098389,0.640625,0.828125,1.09375
595,1697629765,-0.06738281,-0.9783325,0.062438965,0.515625,0.265625,0.84375
596,1697629805,-0.056396484,-0.9837036,0.057800293,0.234375,0.578125,0.90625
597,1697629845,-0.055419922,-0.99176025,0.059509277,0.703125,0.0625,0.71875
598,1697629885,-0.061035156,-0.98223877,0.06365967,0.90625,0.265625,0.84375
599,1697629925,-0.05810547,-0.9819946,0.055847168,-0.4375,0.484375,0.734375
600,1697629965,-0.056152344,-0.99102783,0.062438965,1.078125,0.453125,0.796875
601,1697630005,-0.060791016,-0.9795532,0.070495605,-0.6875,0.359375,0.28125
602,1697630045,-0.056640625,-1.0066528,0.04510498,0.078125,-0.40625,0.5625
603,1697630085,-0.035888672,-0.96954346,0.05609131,-0.078125,1.15625,0.15625
604,1697630125,-0.072509766,-0.99176025,0.06341553,-0.65625,0.140625,-0.390625
605,1697630165,-0.052490234,-0.9873657,0.061462402,-0.5625,-0.28125,-0.203125
606,1697630205,-0.064697266,-0.99176025,0.06072998,-2.421875,-1.5,-1.125
607,1697630245,-0.049804688,-0.989563,0.058776855,-1.859375,-0.953125,-1.40625
608,1697630285,-0.060546875,-0.97857666,0.06561279,-0.46875,-1.53125,-0.84375
609,1697630325,-0.06347656,-0.9944458,0.066589355,0.515625,-1.078125,0.453125
610,1697630365,-0.06347656,-0.98931885,0.06463623,0.203125,-0.421875,0.78125
611,1697630405,-0.05883789,-0.9817505,0.06829834,0.484375,-0.734375,1.4375
612,1697630445,-0.06591797,-0.9961548,0.07269287,0.15625,-0.375,0.890625
613,1697630485,-0.064697266,-0.99053955,0.066833496,-0.765625,-0.734375,0.5625
614,1697630525,-0.068603516,-0.99224854,0.07269287,-0.84375,0.03125,0.71875
615,1697630565,-0.064697266,-0.99176025,0.062438965,-0.703125,-0.328125,-0.109375
616,1697630605,-0.064208984,-0.9846802,0.0758667,-1.203125,-0.90625,-0.5
617,1697630645,-0.06201172,-0.9841919,0.07684326,-1.953125,-1.25,-0.34375
618,1697630685,-0.06347656,-0.9849243,0.07147217,-1.65625,-1.171875,-0.734375
619,1697630725,-0.06274414,-0.9890747,0.07318115,-1.734375,-1.09375,-0.5
620,1697630765,-0.061767578,-0.98687744,0.07635498,-1.984375,-0.4375,-0.46875
621,1697630805,-0.06982422,-0.991272,0.078552246,-1.09375,-0.734375,-0.28125
622,1697630845,-0.06665039,-0.9939575,0.08319092,-1.703125,-0.234375,-0.234375
623,1697630885,-0.068847656,-0.9710083,0.10321045,-0.359375,0.375,-0.203125
624,1697630925,-0.068115234,-0.9871216,0.06854248,-3.203125,0.234375,0.109375
625,1697630965,-0.07885742,-0.9807739,0.0914917,0.3125,0.109375,-0.109375
626,1697631005,-0.07299805,-0.9961548,0.10028076,-1.359375,0.53125,0.046875
627,1697631045,-0.061035156,-0.972229,0.08685303,-1.828125,-0.15625,-0.46875
628,1697631085,-0.068359375,-0.9829712,0.09173584,-1.34375,-0.328125,-0.078125
629,1697631125,-0.06518555,-0.99176025,0.09173584,-1.390625,-0.90625,-0.796875
630,1697631165,-0.07128906,-0.98321533,0.10491943,-0.015625,-0.453125,-0.21875
631,1697631205,-0.05908203,-0.9751587,0.09222412,-2.578125,-0.65625,-0.015625
632,1697631245,-0.08251953,-0.9871216,0.105895996,0.296875,-0.359375,0.3125
633,1697631285,-0.07080078,-0.9834595,0.101257324,-0.78125,-0.859375,-0.234375
634,1697631325,-0.07861328,-0.9871216,0.10638428,-0.484375,-0.84375,0.328125
635,1697631365,-0.06982422,-0.9924927,0.101501465,-0.703125,-0.90625,-0.1875
636,1697631405,-0.07299805,-0.991272,0.10784912,-0.359375,-0.6875,0.0625
637,1697631445,-0.067871094,-0.9819946,0.10247803,0.09375,-0.625,0.1875
638,1697631485,-0.071777344,-0.97735596,0.097839355,0.75,-0.546875,0.625
639,1697631525,-0.068359375,-0.97906494,0.09832764,1.359375,-0.296875,1.0
640,1697631565,-0.07128906,-0.9846802,0.10101318,1.140625,-0.1875,0.75
641,1697631605,-0.07128906,-0.98394775,0.09637451,1.640625,-0.25,0.65625
642,1697631645,-0.068847656,-0.99664307,0.09246826,0.890625,-0.671875,0.703125
643,1697631685,-0.06640625,-0.9727173,0.10858154,2.0,0.375,0.171875
644,1697631725,-0.07348633,-0.99053955,0.07489014,0.21875,-0.828125,0.328125
645,1697631765,-0.059814453,-0.97979736,0.094177246,1.828125,-0.96875,0.671875
646,1697631805,-0.07055664,-0.99346924,0.09173584,1.5,-0.375,0.96875
647,1697631845,-0.06518555,-0.98321533,0.090026855,0.890625,-0.171875,0.46875
648,1697631885,-0.06958008,-0.98565674,0.08905029,1.125,-0.1875,0.796875
649,1697631925,-0.06713867,-0.9932251,0.081970215,0.59375,-0.890625,0.5
650,1697631965,-0.05834961,-0.97491455,0.09320068,1.265625,-0.4375,0.265625
651,1697632005,-0.0637207,-0.98443604,0.0848999,-0.359375,-0.390625,0.46875
652,1697632045,-0.06982422,-0.97735596,0.086120605,1.046875,0.21875,0.375
653,1697632085,-0.06958008,-0.991272,0.08782959,0.875,-0.40625,0.1875
654,1697632125,-0.064208984,-0.9885864,0.07293701,0.53125,-0.640625,0.546875
655,1697632165,-0.059814453,-0.9932251,0.078063965,0.34375,-0.78125,-0.453125
656,1697632205,-0.06762695,-0.98809814,0.07318115,0.765625,-0.578125,0.3125
657,1697632245,-0.0715332,-0.987854,0.07122803,0.3125,-0.140625,0.484375
658,1697632285,-0.07519531,-0.991272,0.08099365,0.71875,-0.171875,0.28125
659,1697632325,-0.068115234,-0.98321533,0.082458496,0.53125,-0.640625,0.046875
660,1697632365,-0.06274414,-0.9854126,0.074157715,0.53125,-0.15625,0.625
661,1697632405,-0.06542969,-0.9920044,0.06829834,-1.109375,-0.34375,0.78125
662,1697632445,-0.076660156,-0.97320557,0.094177246,1.515625,0.484375,0.171875
663,1697632485,-0.059814453,-0.99420166,0.055847168,-2.078125,-0.03125,-0.125
664,1697632525,-0.06274414,-0.9973755,0.09661865,4.296875,-0.09375,0.796875
665,1697632565,-0.064453125,-0.9758911,0.06390381,-2.625,0.390625,-0.234375
666,1697632605,-0.07104492,-0.9859009,0.08416748,1.65625,0.25,0.515625
667,1697632645,-0.06274414,-0.9932251,0.0770874,-0.359375,0.015625,0.6875
668,1697632685,-0.06762695,-0.9927368,0.07611084,-0.171875,0.28125,0.4375
669,1697632725,-0.06201172,-0.991272,0.08392334,-0.34375,-0.203125,0.21875
670,1697632765,-0.06689453,-0.9829712,0.06781006,-1.03125,-1.140625,-0.234375
671,1697632805,-0.05493164,-0.98638916,0.074645996,0.484375,-0.59375,-0.296875
672,1697632845,-0.0625,-0.98883057,0.082458496,-1.78125,-0.328125,-0.0625
673,1697632885,-0.06762695,-0.97857666,0.07733154,-1.15625,-0.546875,-0.515625
674,1697632925,-0.061523438,-0.98809814,0.08758545,1.03125,-2.046875,-1.265625
675,1697632965,-0.060546875,-0.98321533,0.07952881,0.390625,-0.96875,-0.421875
676,1697633005,-0.061035156,-0.9902954,0.074645996,0.078125,-1.578125,-0.140625
677,1697633045,-0.07739258,-0.98883057,0.082214355,0.0,-0.828125,-0.046875
678,1697633085,-0.08569336,-0.9849243,0.07171631,-0.46875,-0.84375,0.578125
679,1697633125,-0.07543945,-0.98028564,0.07611084,0.234375,-0.84375,0.734375
680,1697633165,-0.072021484,-0.9927368,0.07366943,0.390625,-0.984375,0.421875
681,1697633205,-0.0625,-0.9866333,0.08050537,0.515625,-0.859375,-0.046875
682,1697633245,-0.07421875,-0.9837036,0.07366943,-0.1875,-1.109375,0.171875
683,1697633285,-0.06958008,-0.99542236,0.07489014,0.796875,-0.78125,0.0
684,1697633325,-0.057128906,-0.9834595,0.08050537,-1.171875,-0.875,-0.296875
685,1697633365,-0.06933594,-1.0164185,0.07366943,1.484375,-2.046875,0.265625
686,1697633405,-0.06298828,-0.9685669,0.06756592,-0.125,-0.40625,-0.015625
687,1697633445,-0.0793457,-0.99542236,0.07611084,1.34375,-0.828125,0.796875
688,1697633485,-0.060058594,-0.9961548,0.07757568,0.984375,-0.765625,0.203125
689,1697633525,-0.06933594,-0.97857666,0.07513428,0.25,-0.484375,-0.09375
690,1697633565,-0.061279297,-0.9915161,0.0680542,-0.671875,-0.671875,-0.25
691,1697633605,-0.072021484,-0.99298096,0.07269287,-0.078125,-0.46875,0.03125
692,1697633645,-0.080566406,-0.9973755,0.07562256,0.34375,-0.3125,0.46875
693,1697633685,-0.06689453,-0.97198486,0.07269287,-1.328125,-0.40625,0.1875
694,1697633725,-0.06347656,-0.98565674,0.07147217,0.421875,-0.53125,-0.21875
695,1697633765,-0.076171875,-1.00177,0.0770874,0.578125,0.109375,0.328125
696,1697633805,-0.063964844,-0.9783325,0.06536865,-1.484375,-0.8125,-0.1875
697,1697633845,-0.07397461,-0.9871216,0.07342529,-0.234375,-0.984375,-0.9375
698,1697633885,-0.08154297,-0.9963989,0.07733154,-0.046875,-0.4375,-0.8125
699,1697633925,-0.07373047,-0.98394775,0.07684326,-0.296875,0.234375,-0.40625
700,1697633965,-0.07055664,-0.9866333,0.07659912,-0.453125,-0.109375,-0.453125
701,1697634005,-0.07836914,-0.972229,0.07928467,-0.859375,-0.484375,-0.0625
702,1697634045,-0.08691406,-0.9976196,0.08343506,1.65625,-0.234375,0.0625
703,1697634085,-0.08105469,-0.98223877,0.08270264,-1.25,-0.1875,-0.1875
704,1697634125,-0.07495117,-1.0151978,0.062438965,0.5,-0.703125,0.234375
705,1697634165,-0.06542969,-0.99102783,0.0692749,0.609375,0.171875,0.078125
706,1697634205,-0.09301758,-1.0010376,0.07952881,-0.578125,0.5,0.5625
707,1697634245,-0.06567383,-0.9812622,0.07196045,-3.5,0.9375,0.359375
708,1697634285,-0.06738281,-0.9607544,0.08905029,-1.6875,0.828125,-0.0625
709,1697634325,-0.083984375,-0.9924927,0.086364746,-0.6875,-2.328125,-0.765625
710,1697634365,-0.0925293,-0.9859009,0.078552246,-0.546875,-2.4375,-1.046875
711,1697634405,-0.09814453,-1.0007935,0.0927124,-0.109375,-2.078125,-1.109375
712,1697634445,-0.07421875,-0.99102783,0.08831787,-1.71875,-2.125,-1.609375
713,1697634485,-0.08862305,-0.9727173,0.10247803,-0.421875,-0.875,-0.984375
714,1697634525,-0.09375,-0.99835205,0.08905029,-1.25,-1.453125,-0.375
715,1697634565,-0.09082031,-0.9751587,0.09564209,-0.90625,-1.15625,-0.140625
716,1697634605,-0.08569336,-0.9849243,0.086120605,-0.765625,-1.109375,0.03125
717,1697634645,-0.083984375,-0.9883423,0.08807373,-0.109375,-1.5625,-0.4375
718,1697634685,-0.0949707,-0.98760986,0.09613037,-1.0,-0.9375,-0.046875
719,1697634725,-0.08886719,-0.9788208,0.08831787,-0.734375,-0.96875,-0.109375
720,1697634765,-0.09033203,-0.99420166,0.089538574,-0.546875,-0.78125,0.25
721,1697634805,-0.07421875,-0.97735596,0.09515381,-1.578125,-0.90625,-0.796875
722,1697634845,-0.10083008,-0.9819946,0.08685303,0.5,-0.234375,0.609375
723,1697634885,-0.0925293,-0.9692993,0.08465576,-1.359375,0.296875,0.046875
724,1697634925,-0.10546875,-1.0022583,0.10736084,0.03125,-0.5,0.34375
725,1697634965,-0.09106445,-0.98809814,0.09710693,-0.15625,-0.203125,0.03125
726,1697635005,-0.09667969,-0.9758911,0.101745605,-0.21875,0.109375,0.375
727,1697635045,-0.084472656,-0.9859009,0.09246826,-0.546875,-0.890625,0.21875
728,1697635085,-0.09814453,-0.9805298,0.10443115,0.421875,-0.4375,0.546875
729,1697635125,-0.08325195,-0.9898071,0.081726074,-0.609375,-0.953125,1.0625
730,1697635165,-0.088378906,-0.9729614,0.08416748,1.921875,0.5625,0.71875
731,1697635205,-0.091308594,-0.9927368,0.1005249,1.1875,-0.578125,0.96875
732,1697635245,-0.092285156,-0.9883423,0.08538818,1.078125,-0.046875,1.265625
733,1697635285,-0.08300781,-0.9932251,0.0836792,0.421875,-0.375,0.984375
734,1697635325,-0.0793457,-0.99053955,0.08685303,0.0,-0.84375,0.203125
735,1697635365,-0.08886719,-0.9824829,0.10076904,0.96875,0.578125,0.15625
736,1697635405,-0.09326172,-0.9837036,0.09246826,-0.03125,0.125,0.84375
737,1697635445,-0.083984375,-0.99224854,0.0927124,1.53125,-0.28125,1.015625
738,1697635485,-0.068115234,-1.0108032,0.089782715,1.421875,-0.546875,0.5
739,1697635525,-0.08081055,-0.9685669,0.10247803,0.3125,0.21875,-0.109375
740,1697635565,-0.084472656,-0.9915161,0.07611084,0.953125,-0.90625,0.65625
741,1697635605,-0.06933594,-0.9788208,0.06951904,0.484375,0.4375,0.59375
742,1697635645,-0.09106445,-0.9985962,0.08660889,1.828125,-0.171875,1.125
743,1697635685,-0.072021484,-0.98272705,0.08074951,1.78125,-0.234375,0.6875
744,1697635725,-0.083984375,-0.9776001,0.07269287,1.515625,-0.578125,0.59375
745,1697635765,-0.07324219,-0.9924927,0.074645996,0.921875,-0.875,0.03125
746,1697635805,-0.08325195,-0.9883423,0.07147217,0.390625,-0.671875,0.234375
747,1697635845,-0.08178711,-0.99713135,0.07318115,0.171875,0.015625,0.765625
748,1697635885,-0.08129883,-0.98760986,0.07977295,-0.953125,0.84375,-0.078125
749,1697635925,-0.084472656,-0.97857666,0.08270264,-0.65625,1.1875,-0.34375
750,1697635965,-0.080322266,-0.9812622,0.070495605,0.5625,-0.859375,-0.703125
751,1697636005,-0.061767578,-0.99542236,0.07489014,0.765625,-0.359375,-0.28125
752,1697636045,-0.08520508,-0.9920044,0.07904053,-0.421875,-0.484375,-0.90625
753,1697636085,-0.07348633,-0.9805298,0.073913574,-1.0,-1.40625,-0.78125
754,1697636125,-0.080322266,-0.9976196,0.07659912,-0.296875,-0.890625,0.28125
755,1697636165,-0.09863281,-0.99053955,0.08074951,-0.4375,0.5625,0.515625
756,1697636205,-0.09375,-0.9771118,0.0692749,0.0625,0.109375,0.328125
757,1697636245,-0.0859375,-0.9685669,0.07659912,0.265625,-1.3125,0.0
758,1697636285,-0.09741211,-0.9932251,0.07147217,0.484375,-0.578125,0.140625
759,1697636325,-0.07373047,-0.9907837,0.06903076,-2.78125,-0.65625,-1.25
