,timestamp,accel_x,accel_y,accel_z,gyro_x,gyro_y,gyro_z
0,1697605965,-0.030761719,-1.0855103,-0.043273926,40.859375,97.96875,-13.703125
1,1697606005,0.7104492,-1.0027466,-0.2781372,10.421875,44.78125,-27.859375
2,1697606045,0.0073242188,-0.44366455,-0.07183838,-7.453125,-33.703125,16.203125
3,1697606085,-0.03540039,0.65789795,-0.17926025,-46.953125,22.15625,-7.328125
4,1697606125,0.32226562,0.3991089,-0.13360596,-21.578125,10.953125,-16.296875
5,1697606165,0.3659668,-0.0049438477,-0.28546143,11.0,12.171875,33.234375
6,1697606205,0.38452148,-0.690979,-0.49835205,23.234375,11.453125,25.8125
7,1697606245,1.999939,-2.0,0.88397217,99.703125,-28.65625,81.25
8,1697606285,-1.5800781,-2.0,-0.050598145,-5.046875,-75.0,-16.90625
9,1697606325,0.41308594,-1.2930298,0.039001465,37.546875,58.1875,-5.890625
10,1697606365,1.2246094,-1.1372681,0.32147217,-34.859375,-40.3125,34.921875
11,1697606405,-0.32543945,0.008483887,0.20159912,-21.09375,-80.390625,-36.546875
12,1697606445,-0.67333984,0.6779175,-0.19073486,-37.703125,-3.0,-39.09375
13,1697606485,0.25805664,0.27142334,-0.19390869,12.765625,18.59375,-20.421875
14,1697606525,0.39453125,-0.014465332,0.0033569336,34.015625,-1.0,7.40625
15,1697606565,-0.5124512,-0.80352783,-0.3147583,10.296875,15.890625,9.015625
16,1697606605,1.999939,-2.0,-0.21051025,58.09375,107.09375,111.40625
17,1697606645,-0.7553711,-2.0,1.2125854,-88.5625,-2.875,-49.078125
18,1697606685,-0.6706543,-1.4104614,0.23187256,71.78125,56.4375,-27.453125
19,1697606725,0.36035156,-0.83843994,-0.3928833,13.5,67.015625,-24.421875
20,1697606765,0.41748047,-0.5125122,-0.20880127,-26.859375,-16.015625,6.40625
21,1697606805,0.068847656,0.066101074,-0.19439697,-30.34375,31.53125,18.578125
22,1697606845,0.7949219,0.7177124,-0.08355713,-20.0625,-43.96875,-18.25
23,1697606885,0.033691406,0.21917725,-0.008605957,-7.0,-35.53125,16.390625
24,1697606925,-0.5136719,-0.22613525,-0.5964966,18.5625,-6.484375,-2.03125
25,1697606965,1.999939,-2.0,-0.1716919,139.6875,-10.03125,291.6875
26,1697607005,0.08569336,-1.9888306,-0.47247314,-49.546875,-108.703125,-50.765625
27,1697607045,-0.44482422,-1.4863892,0.152771,41.453125,1.328125,-36.09375
28,1697607085,0.64086914,-1.0493774,0.33441162,-50.09375,-26.59375,35.4375
29,1697607125,-0.057617188,0.52752686,0.11541748,-48.0,-17.125,-17.484375
30,1697607165,-0.6677246,0.6911011,-0.19781494,-3.890625,-24.234375,-33.171875
31,1697607205,0.010253906,-0.012023926,-0.10845947,34.203125,36.328125,-11.453125
32,1697607245,0.2319336,0.058044434,-0.18829346,22.984375,21.09375,-9.109375
33,1697607285,-0.42285156,-0.8921509,-0.37750244,23.84375,41.0,13.25
34,1697607325,0.7285156,-2.0,-0.20245361,55.203125,75.84375,88.15625
35,1697607365,-1.0617676,-2.0,1.2870483,-139.5,-3.90625,-63.828125
36,1697607405,-0.30981445,-1.4033813,0.08294678,93.09375,62.109375,-26.234375
37,1697607445,0.4423828,-0.881897,-0.2053833,30.859375,95.453125,-25.984375
38,1697607485,0.07885742,-0.5071411,-0.16461182,-47.125,-10.078125,-14.453125
39,1697607525,0.0146484375,0.11444092,-0.4036255,-26.3125,41.4375,7.875
40,1697607565,1.0742188,0.79193115,-0.19683838,-6.03125,-20.796875,-2.859375
41,1697607605,0.18652344,0.24822998,-0.08917236,0.984375,-46.890625,-5.75
42,1697607645,-0.1796875,-0.54473877,-0.64727783,16.015625,7.21875,3.375
43,1697607685,1.999939,-2.0,0.8793335,105.15625,9.21875,121.75
44,1697607725,-0.33154297,-1.6484985,-0.6760864,-38.078125,-69.125,-52.375
45,1697607765,-0.3696289,-1.6819458,0.29534912,37.765625,0.515625,-22.78125
46,1697607805,0.9140625,-0.9414673,0.1749878,-35.265625,-32.21875,32.515625
47,1697607845,-0.30322266,0.30047607,0.19647217,8.171875,-60.0,-25.671875
48,1697607885,-0.67529297,0.40301514,-0.2444458,0.171875,-21.5625,-34.6875
49,1697607925,0.41503906,0.22381592,-0.17120361,14.34375,26.625,-8.6875
50,1697607965,0.22924805,0.012390137,-0.06060791,17.703125,-0.359375,-2.90625
51,1697608005,-0.52001953,-1.0479126,-0.23834229,21.046875,27.984375,20.421875
52,1697608045,0.97143555,-2.0,-0.33868408,103.171875,32.046875,75.625
53,1697608085,-1.1228027,-2.0,0.9730835,-146.3125,-2.09375,-58.5625
54,1697608125,-0.2084961,-1.508606,0.039978027,111.59375,88.109375,-33.171875
55,1697608165,0.91625977,-1.1582642,-0.2288208,13.765625,76.8125,-0.671875
56,1697608205,0.12548828,-0.4524536,-0.15362549,-68.09375,-25.96875,-7.1875
57,1697608245,-0.16918945,0.24945068,-0.36993408,-35.90625,24.71875,-0.90625
58,1697608285,0.8859863,0.4928589,-0.347229,2.0625,-20.09375,-5.0
59,1697608325,0.17358398,0.30877686,-0.0044555664,-3.3125,-38.578125,10.1875
60,1697608365,-0.29956055,-0.31744385,-0.7324829,-2.0,-5.1875,3.0
61,1697608405,1.999939,-2.0,1.170105,82.296875,3.84375,207.35938
62,1697608445,0.2475586,-1.9351196,-0.59576416,-21.828125,-95.375,-50.5
63,1697608485,-0.6176758,-1.4329224,-0.03765869,11.359375,-31.84375,-38.28125
64,1697608525,0.8183594,-1.1619263,0.26507568,-27.03125,-32.796875,42.765625
65,1697608565,-0.2980957,0.16546631,0.08416748,-40.25,-72.953125,-36.828125
66,1697608605,-0.7351074,0.7938843,-0.25006104,-44.09375,-3.640625,-44.78125
67,1697608645,0.5187988,0.22454834,-0.09820557,24.28125,38.765625,5.046875
68,1697608685,0.3190918,0.05731201,-0.08721924,24.40625,-16.3125,-2.65625
69,1697608725,-0.6057129,-0.51885986,-0.84381104,14.796875,-9.25,3.390625
70,1697608765,1.999939,-2.0,-0.58135986,42.078125,-27.0625,225.82812
71,1697608805,0.79663086,-2.0,0.4701538,-77.046875,-114.625,-107.515625
72,1697608845,-1.2851562,-1.8118286,0.33270264,71.765625,88.609375,-24.203125
73,1697608885,0.4675293,-0.850647,-0.41973877,37.3125,125.828125,-17.390625
74,1697608925,1.3193359,-0.46881104,-0.24102783,-5.53125,16.125,-27.59375
75,1697608965,-0.28466797,-0.101867676,-0.23223877,-47.796875,-8.15625,10.328125
76,1697609005,0.2409668,0.53289795,-0.38336182,-2.296875,10.484375,-12.484375
77,1697609045,0.6953125,0.25604248,0.12860107,4.8125,-23.375,8.515625
78,1697609085,-0.050048828,-0.5733032,-0.8076782,-5.828125,0.640625,4.0625
79,1697609125,1.999939,-2.0,0.9750366,108.28125,7.625,116.28125
80,1697609165,-1.373291,-1.8025513,-0.3213501,4.265625,-96.46875,-81.09375
81,1697609205,0.1796875,-0.96466064,0.35028076,47.6875,42.296875,25.671875
82,1697609245,1.4694824,-1.4302368,0.22576904,-39.84375,-34.765625,36.9375
83,1697609285,-0.39624023,-0.077941895,0.04901123,-14.296875,-109.6875,-41.21875
84,1697609325,-0.7312012,0.916687,-0.4697876,-21.09375,0.9375,-52.171875
85,1697609365,0.6020508,0.06390381,-0.16412354,47.078125,33.703125,3.390625
86,1697609405,0.58813477,-0.19830322,-0.045959473,34.125,-5.484375,-9.75
87,1697609445,-1.2231445,-2.0,0.34124756,27.828125,126.875,45.6875
88,1697609485,0.70288086,-1.7444458,0.18109131,-1.75,-94.25,-9.0625
89,1697609525,-1.770752,-2.0,0.5946655,-83.09375,138.92188,-28.984375
90,1697609565,-0.083740234,-1.2349243,0.047302246,25.28125,114.90625,-19.859375
91,1697609605,0.81225586,-0.9026489,-0.3706665,32.5,72.890625,-16.0
92,1697609645,0.087890625,-0.078430176,-0.36480713,-87.40625,-26.921875,-9.953125
93,1697609685,-0.14916992,0.25115967,-0.46588135,-37.90625,30.3125,-18.109375
94,1697609725,1.2885742,0.28289795,0.15814209,17.703125,-45.375,24.671875
95,1697609765,-0.2355957,0.13690186,-0.5195923,-19.234375,-53.375,7.171875
96,1697609805,-0.59936523,-2.0,-0.28131104,-33.15625,30.15625,1.125
97,1697609845,1.4370117,-2.0,0.9533081,2.625,-43.546875,-82.046875
98,1697609885,-2.0,-1.9050903,-0.47979736,-4.53125,-93.609375,-152.5
99,1697609925,1.0212402,-1.2879028,0.18377686,7.90625,61.546875,57.921875
100,1697609965,0.6635742,-0.62286377,0.56243896,11.734375,-58.234375,22.328125
101,1697610005,-0.8703613,0.47088623,-0.08917236,-27.0625,-57.5625,-64.203125
102,1697610045,-0.24951172,0.84710693,-0.34552002,-10.34375,60.421875,-37.0625
103,1697610085,0.81933594,-0.05303955,-0.0071411133,58.875,21.953125,22.484375
104,1697610125,-0.26171875,-0.6712036,-0.67755127,1.796875,-19.15625,-11.390625
105,1697610165,1.185791,-2.0,-1.7136841,130.3125,35.546875,176.21875
106,1697610205,0.63134766,-1.7630005,0.24041748,-32.484375,-185.95312,-106.046875
107,1697610245,-1.9384766,-2.0,0.8641968,33.578125,94.71875,-0.984375
108,1697610285,0.27246094,-0.8838501,-0.6585083,11.359375,150.59375,-9.6875
109,1697610325,1.4047852,-0.5576782,-0.1482544,7.1875,-12.6875,-9.609375
110,1697610365,-0.34985352,-0.21783447,-0.38287354,-50.125,-1.703125,-0.984375
111,1697610405,0.5107422,0.5914917,-0.32598877,-19.171875,-17.15625,-12.09375
112,1697610445,0.3701172,0.4244995,0.059020996,-7.453125,-31.84375,8.046875
113,1697610485,-0.20922852,-0.05596924,-0.89556885,-8.78125,-34.015625,4.15625
114,1697610525,0.3154297,-2.0,-0.15338135,40.5625,0.4375,312.39062
115,1697610565,0.18774414,-1.9522095,-0.28448486,-0.25,-119.8125,-30.203125
116,1697610605,-1.5209961,-1.0286255,-0.38287354,-13.453125,-38.8125,-114.578125
117,1697610645,0.96313477,-1.7310181,0.2033081,-16.953125,30.15625,97.546875
118,1697610685,0.2685547,0.090026855,-0.09576416,-35.125,-85.078125,-16.5625
119,1697610725,-1.1748047,0.8590698,-0.14752197,-23.0,-40.0,-56.234375
120,1697610765,0.25878906,0.37347412,-0.08917236,10.71875,67.578125,18.390625
121,1697610805,0.30371094,0.011169434,0.18914795,46.5625,-11.21875,-6.046875
122,1697610845,-0.86328125,-1.229065,-0.7893677,7.15625,7.578125,-14.484375
123,1697610885,1.999939,-2.0,-0.12188721,116.34375,168.20312,151.4375
124,1697610925,-0.79296875,-2.0,1.0853882,-108.96875,-53.8125,-76.90625
125,1697610965,-0.94311523,-1.2488403,0.38909912,67.1875,110.4375,-6.40625
126,1697611005,0.5703125,-0.72662354,-0.66778564,1.28125,102.171875,-19.609375
127,1697611045,1.0893555,-0.3171997,-0.47784424,-21.9375,-6.328125,9.671875
128,1697611085,0.1796875,0.13543701,-0.35357666,-52.109375,-4.65625,-6.328125
129,1697611125,0.54541016,0.4796753,0.02532959,10.640625,-58.359375,11.421875
130,1697611165,-0.31518555,0.3756714,-0.10992432,-23.796875,-43.671875,5.59375
131,1697611205,-0.19921875,-0.64434814,-0.55255127,41.390625,20.796875,-0.4375
132,1697611245,1.291748,-2.0,1.7201538,-4.359375,12.140625,-36.40625
133,1697611285,-1.7124023,-2.0,-0.8118286,-30.75,-86.515625,-53.359375
134,1697611325,0.20288086,-1.3933716,0.8673706,41.171875,52.078125,30.6875
135,1697611365,1.0107422,-0.25933838,0.26483154,-11.09375,-67.75,0.78125
136,1697611405,-0.6020508,0.4130249,-0.4290161,-56.875,-46.75,-55.09375
137,1697611445,-0.025146484,0.7536011,-0.442688,18.09375,41.453125,-33.484375
138,1697611485,0.66625977,0.23358154,0.029968262,54.515625,2.53125,3.015625
139,1697611525,-0.6870117,-0.8233032,-0.73883057,30.71875,-6.3125,-6.765625
140,1697611565,1.999939,-2.0,-1.7334595,131.26562,-45.890625,259.84375
141,1697611605,0.60375977,-2.0,0.7262573,-3.859375,-138.04688,-99.421875
142,1697611645,-1.505127,-1.9592896,0.45770264,28.1875,101.125,-16.703125
143,1697611685,0.36279297,-1.005188,-0.60943604,48.140625,131.70312,-11.171875
144,1697611725,1.0588379,-0.26641846,0.1486206,-11.0,16.4375,4.453125
145,1697611765,-0.12695312,0.25360107,-0.5293579,-65.578125,22.4375,-4.109375
146,1697611805,1.1586914,0.3397827,-0.4282837,33.796875,-37.6875,5.171875
147,1697611845,0.13500977,0.45819092,0.026794434,-23.78125,-46.984375,30.234375
148,1697611885,-1.0126953,-0.2420044,-0.829895,-13.84375,-7.359375,-3.078125
149,1697611925,1.999939,-2.0,0.5128784,38.5625,55.703125,105.734375
150,1697611965,0.29907227,-1.5403442,-0.92681885,-15.546875,-111.828125,-42.859375
151,1697612005,-0.7446289,-1.1455688,0.20501709,48.09375,-33.375,-74.40625
152,1697612045,0.13964844,-0.8196411,0.59368896,-29.5,-10.0,39.515625
153,1697612085,0.05053711,0.17449951,-0.21881104,-41.453125,-64.6875,-28.4375
154,1697612125,-0.84033203,0.77142334,-0.43341064,-38.296875,45.15625,-61.453125
155,1697612165,0.7180176,0.14886475,-0.09844971,67.40625,26.203125,26.71875
156,1697612205,0.008056641,-0.17706299,0.05340576,34.046875,-15.78125,-17.515625
157,1697612245,-0.88842773,-1.5803833,-0.64019775,62.28125,39.96875,18.0625
158,1697612285,1.286377,-1.998352,1.2147827,40.078125,69.640625,61.578125
159,1697612325,-1.8718262,-2.0,0.4088745,-171.35938,-50.453125,-49.5625
160,1697612365,-0.8486328,-0.9951782,-0.28985596,90.53125,141.25,-33.015625
161,1697612405,1.7348633,-0.45025635,-0.3574829,43.828125,35.375,10.015625
162,1697612445,0.16821289,-0.2793579,-0.24884033,-84.84375,-30.390625,-3.140625
163,1697612485,-0.049804688,0.13763428,-0.47711182,-29.171875,0.609375,-10.859375
164,1697612525,0.8544922,0.4772339,-0.030578613,-6.0625,-47.078125,3.3125
165,1697612565,-0.29174805,0.2694702,-0.39141846,-34.78125,-57.71875,5.296875
166,1697612605,-0.14501953,-2.0,-0.76104736,14.046875,32.578125,57.109375
167,1697612645,1.3659668,-2.0,1.6273804,103.59375,-84.296875,-92.328125
168,1697612685,-1.7346191,-2.0,-0.70025635,0.375,-71.796875,-39.5625
169,1697612725,0.21801758,-1.9133911,0.47235107,-34.671875,50.375,57.375
170,1697612765,0.92456055,0.34173584,-0.06378174,-69.171875,-128.20312,-12.234375
171,1697612805,-1.0102539,0.25946045,0.23968506,-12.75,-37.46875,-44.078125
172,1697612845,-1.1516113,0.07537842,-0.45513916,10.46875,118.625,-23.515625
173,1697612885,1.2561035,0.19500732,-0.10821533,37.125,31.96875,16.609375
174,1697612925,0.08227539,-0.17877197,-0.34259033,24.71875,-16.734375,-4.8125
175,1697612965,0.17700195,-2.0,-1.8648071,75.96875,60.28125,165.09375
176,1697613005,0.9748535,-2.0,0.85198975,59.109375,-121.6875,-93.90625
177,1697613045,-1.9411621,-2.0,0.6298218,-123.75,127.71875,-0.96875
178,1697613085,0.18823242,-0.9795532,-0.3513794,79.65625,115.40625,-18.015625
179,1697613125,1.5549316,-0.40997314,-0.2732544,-4.609375,-32.203125,-32.625
180,1697613165,-0.7687988,-0.11553955,-0.13922119,-73.734375,-6.546875,-4.21875
181,1697613205,0.19165039,0.3805542,-0.2954712,-14.796875,16.5625,-9.3125
182,1697613245,0.94506836,0.19354248,0.14251709,0.109375,-25.90625,10.4375
183,1697613285,-0.1171875,0.070007324,-0.42681885,-17.46875,-45.078125,15.28125
184,1697613325,-0.37280273,-2.0,-0.50738525,-50.046875,21.578125,27.796875
185,1697613365,1.0168457,-1.9788208,1.6681519,55.3125,-79.078125,-82.515625
186,1697613405,-1.8666992,-1.6980591,-0.74102783,-12.671875,-109.859375,-93.640625
187,1697613445,0.27197266,-1.6941528,0.2699585,-38.75,43.828125,60.421875
188,1697613485,1.1767578,-0.066223145,0.58465576,24.140625,-51.65625,9.78125
189,1697613525,-0.70874023,0.4389038,-0.18829346,5.15625,-89.53125,-81.375
190,1697613565,-0.6804199,0.63079834,-0.6795044,-32.78125,94.125,-28.71875
191,1697613605,0.9641113,0.27508545,0.117614746,39.8125,19.375,13.359375
192,1697613645,-0.3256836,-0.64923096,-0.87335205,20.625,-14.125,-18.921875
193,1697613685,1.999939,-2.0,-1.1065063,116.46875,-44.84375,267.84375
194,1697613725,-0.061523438,-2.0,0.7514038,-4.265625,-157.90625,-108.921875
195,1697613765,-1.2451172,-1.3589478,0.35638428,51.765625,84.984375,-23.0
196,1697613805,0.28076172,-0.7815552,0.15008545,-28.9375,74.5,-25.46875
197,1697613845,0.8256836,-0.39312744,-0.27130127,1.265625,22.6875,-25.734375
198,1697613885,-0.025146484,0.30169678,-0.26275635,-25.140625,7.34375,-4.203125
199,1697613925,0.7241211,0.63494873,-0.37530518,0.296875,-33.53125,-21.359375
200,1697613965,0.3305664,-0.0335083,0.08660889,-2.0625,-40.65625,24.90625
201,1697614005,-0.36767578,-0.24908447,-0.7385864,-6.8125,10.53125,8.703125
202,1697614045,1.999939,-2.0,0.82440186,-20.234375,-8.328125,85.578125
203,1697614085,-0.45581055,-1.5151978,-0.94537354,-35.0,-120.6875,-36.546875
204,1697614125,-0.560791,-1.177063,0.69647217,90.765625,0.6875,-34.890625
205,1697614165,0.9748535,-1.111145,0.416687,-3.96875,-18.6875,58.4375
206,1697614205,-0.10668945,-0.17901611,0.25091553,13.421875,-109.96875,-31.453125
207,1697614245,-1.2836914,0.74627686,-0.38897705,-63.609375,-9.734375,-88.015625
208,1697614285,0.6201172,0.25897217,-0.17193604,38.71875,29.859375,9.5
209,1697614325,0.4819336,0.005065918,0.14837646,31.984375,-11.234375,-4.03125
210,1697614365,-0.7475586,-1.6192017,-0.5779419,-3.40625,18.859375,-16.390625
211,1697614405,0.8408203,-2.0,0.947937,32.671875,25.78125,16.3125
212,1697614445,-1.8276367,-1.9597778,1.2238159,-102.234375,-34.8125,-67.703125
213,1697614485,-0.17919922,-1.7544556,0.27850342,51.90625,68.15625,1.46875
214,1697614525,1.0837402,-0.8706665,-0.1038208,34.8125,54.703125,-31.453125
215,1697614565,0.5349121,-0.4746704,-0.074523926,-12.84375,-61.796875,-8.609375
216,1697614605,-0.7663574,0.31365967,-0.1362915,-58.890625,-6.84375,-21.890625
217,1697614645,0.6218262,0.34124756,-0.13360596,-1.359375,-18.875,-22.109375
218,1697614685,0.7536621,-0.027404785,-0.18170166,13.734375,-16.34375,20.796875
219,1697614725,-0.18457031,-0.12359619,-0.1453247,-19.609375,-37.046875,-5.0625
220,1697614765,1.5048828,-2.0,-0.42242432,-19.921875,15.109375,120.75
221,1697614805,0.43066406,-1.6426392,1.2980347,81.53125,-102.515625,-42.953125
222,1697614845,-1.6962891,-1.711731,-0.5274048,16.40625,-13.671875,-92.1875
223,1697614885,0.2697754,-1.5010376,0.15350342,-15.203125,47.21875,69.140625
224,1697614925,0.7492676,-0.6482544,0.43548584,26.453125,-95.875,-5.609375
225,1697614965,-1.0979004,0.40374756,-0.04425049,-23.65625,-81.25,-64.5625
226,1697615005,-0.5439453,0.6185913,-0.27545166,-5.703125,12.65625,-46.0
227,1697615045,0.5749512,-0.34088135,-0.0256958,33.609375,1.28125,-2.0625
228,1697615085,0.17480469,-0.29156494,0.14715576,24.9375,-15.90625,-17.109375
229,1697615125,-0.79589844,-1.3977661,-0.78326416,-7.953125,32.96875,-1.75
230,1697615165,1.4567871,-1.5986938,1.1373901,60.9375,13.34375,44.21875
231,1697615205,-2.0,-2.0,0.7094116,-141.40625,-6.71875,-86.734375
232,1697615245,-0.69018555,-1.6438599,0.20379639,66.984375,60.046875,36.140625
233,1697615285,1.9033203,-1.3203735,0.3024292,-2.546875,107.203125,10.375
234,1697615325,0.41918945,-1.1611938,0.03289795,-17.65625,-141.09375,-77.59375
235,1697615365,-1.4389648,-0.2029419,-0.38043213,-16.46875,-14.4375,-15.265625
236,1697615405,0.9790039,0.33026123,-0.25616455,-4.265625,3.453125,25.625
237,1697615445,0.9794922,0.44207764,-0.06402588,-12.890625,-78.75,-3.703125
238,1697615485,-0.27685547,-0.0569458,-0.25836182,-21.609375,-88.1875,-7.4375
239,1697615525,0.16040039,-1.604065,-0.3904419,9.234375,58.46875,39.421875
240,1697615565,0.49414062,-1.6838989,1.9013062,53.296875,-124.1875,-31.21875
241,1697615605,-0.57714844,-1.7349243,-1.0081177,-31.8125,-131.78125,-36.40625
242,1697615645,-0.17919922,-2.0,0.86395264,24.328125,2.203125,49.515625
243,1697615685,1.3608398,-0.80010986,0.3319702,42.546875,-99.171875,-28.0625
244,1697615725,-0.18164062,0.1828003,-0.0154418945,-16.078125,-102.84375,-30.203125
245,1697615765,-0.7585449,0.5387573,-0.24810791,-26.109375,-38.046875,-40.015625
246,1697615805,-0.016357422,0.230896,-0.03717041,26.921875,-15.296875,-18.703125
247,1697615845,0.38305664,-0.24615479,0.098083496,6.203125,-14.28125,-9.125
248,1697615885,-0.63720703,-0.87677,-0.6682739,2.453125,11.71875,-7.234375
249,1697615925,0.69555664,-1.789856,0.24261475,25.328125,87.65625,63.296875
250,1697615965,-0.9760742,-2.0,0.65130615,-117.75,-66.921875,-55.828125
251,1697616005,-0.57592773,-1.9614868,0.43328857,63.40625,18.515625,-1.328125
252,1697616045,0.70874023,-1.1802368,0.25335693,9.15625,83.484375,-29.515625
253,1697616085,0.31958008,-1.1748657,-0.08917236,4.421875,-49.359375,-59.5
254,1697616125,-0.1977539,-0.10479736,-0.23052979,-9.203125,-5.125,13.1875
255,1697616165,0.35791016,0.4520874,-0.22784424,-19.828125,6.125,3.640625
256,1697616205,0.7651367,0.23626709,0.121032715,-8.53125,-51.59375,-1.484375
257,1697616245,0.27661133,0.02532959,-0.07623291,-21.171875,-56.671875,24.953125
258,1697616285,-0.2163086,-0.80841064,-0.5108032,1.5,6.546875,2.359375
259,1697616325,1.999939,-1.9436646,1.5963745,-67.078125,27.078125,11.1875
260,1697616365,-1.479248,-2.0,-0.9151001,-13.265625,-134.20312,-39.546875
261,1697616405,-0.19360352,-1.9961548,1.1896362,47.59375,9.875,43.453125
262,1697616445,1.6608887,-1.6907349,0.59710693,-9.96875,-92.90625,-17.390625
263,1697616485,0.13110352,-0.36236572,0.026794434,-12.8125,-107.921875,-41.546875
264,1697616525,-1.1816406,0.5014038,-0.27496338,-36.171875,-45.609375,-42.578125
265,1697616565,0.39941406,0.31951904,-0.093322754,27.8125,-0.671875,-17.546875
266,1697616605,0.48291016,-0.070129395,-0.07525635,30.25,-37.171875,11.546875
267,1697616645,-0.46435547,-0.37774658,-0.64190674,19.59375,-43.234375,-9.4375
268,1697616685,1.1035156,-2.0,-1.008606,88.984375,-6.203125,142.96875
269,1697616725,0.8474121,-2.0,-0.0056762695,48.125,-177.90625,-73.9375
270,1697616765,-1.1772461,-2.0,0.49090576,-31.90625,23.0625,1.90625
271,1697616805,0.15258789,-1.2363892,0.17938232,16.765625,70.578125,-0.765625
272,1697616845,0.7270508,-1.0237427,-0.010559082,7.984375,-1.96875,-32.53125
273,1697616885,-0.03100586,-0.40924072,-0.13116455,-24.390625,-39.421875,-17.015625
274,1697616925,0.10058594,0.28900146,-0.37091064,-30.515625,7.671875,6.625
275,1697616965,0.70166016,0.4725952,-0.14068604,-21.484375,-40.5625,-8.46875
276,1697617005,0.119628906,0.2033081,0.004333496,-21.546875,-53.875,23.046875
277,1697617045,-0.30444336,-0.29962158,-0.7605591,8.796875,-13.546875,1.984375
278,1697617085,1.999939,-2.0,1.3239136,83.21875,-61.265625,258.0
279,1697617125,-1.0983887,-2.0,-0.37872314,7.75,-159.65625,-62.359375
280,1697617165,-0.18652344,-1.1968384,0.4718628,37.0625,43.46875,10.0625
281,1697617205,1.1364746,-1.8237915,0.2345581,-12.625,-29.859375,36.203125
282,1697617245,0.41357422,-0.364563,0.25042725,-15.15625,-85.984375,-28.296875
283,1697617285,-1.0893555,0.7472534,-0.30889893,-44.5625,-45.984375,-47.46875
284,1697617325,0.01977539,0.51483154,-0.07086182,17.15625,18.125,-15.25
285,1697617365,0.34179688,0.04827881,-0.12872314,29.0,-4.765625,11.21875
286,1697617405,-0.4814453,-0.31158447,-0.72198486,38.015625,-10.671875,-2.40625
287,1697617445,1.999939,-2.0,0.06341553,42.296875,1.96875,182.01562
288,1697617485,0.5344238,-2.0,0.31170654,-28.125,-106.328125,-97.546875
289,1697617525,-1.3571777,-1.7268677,0.027770996,-18.40625,79.90625,-1.890625
290,1697617565,0.623291,-1.1541138,-0.1494751,32.015625,97.15625,0.0625
291,1697617605,0.6435547,-0.84503174,-0.13848877,7.71875,37.09375,-23.640625
292,1697617645,-0.22338867,-0.27838135,-0.17779541,-13.75,-8.359375,-19.015625
293,1697617685,0.072509766,0.6100464,-0.35064697,-39.25,29.890625,-15.65625
294,1697617725,1.0107422,0.40008545,0.0060424805,12.65625,-9.75,13.140625
295,1697617765,-0.048339844,0.053649902,-0.07696533,-26.6875,-38.265625,15.84375
296,1697617805,-0.4560547,-1.8340454,-0.29180908,-93.890625,53.546875,27.4375
297,1697617845,1.5056152,-2.0,1.2196655,48.875,1.421875,-62.3125
298,1697617885,-1.3808594,-1.8408813,-0.7317505,26.46875,-106.875,-56.953125
299,1697617925,0.2319336,-1.8955688,0.41619873,17.296875,48.71875,75.796875
300,1697617965,1.1062012,-0.81427,0.43792725,-27.6875,-25.609375,-14.234375
301,1697618005,-0.6196289,0.26556396,0.036071777,-30.421875,-54.796875,-73.515625
302,1697618045,-0.75439453,0.9347534,-0.47857666,-39.1875,24.53125,-56.34375
303,1697618085,0.810791,0.031188965,-0.011047363,55.3125,23.171875,15.796875
304,1697618125,0.4482422,-0.19610596,0.08831787,35.328125,-24.421875,8.34375
305,1697618165,-0.8071289,-1.2402954,-0.4998169,29.890625,9.734375,5.671875
306,1697618205,1.999939,-2.0,-0.02911377,5.09375,32.578125,96.40625
307,1697618245,-1.0859375,-2.0,1.0824585,8.84375,43.96875,-71.390625
308,1697618285,-0.060058594,-1.460022,-0.08721924,17.109375,74.484375,-32.484375
309,1697618325,0.51953125,-1.0117798,-0.3184204,27.5,60.90625,-19.640625
310,1697618365,0.17602539,-0.40460205,-0.13946533,-29.65625,-18.421875,-1.3125
311,1697618405,-0.40454102,0.124938965,-0.28253174,-29.046875,44.109375,-6.234375
312,1697618445,0.9902344,0.4105835,-0.2564087,-24.40625,-14.109375,-18.703125
313,1697618485,0.453125,0.22869873,0.101989746,-9.234375,-18.625,33.671875
314,1697618525,-0.53686523,-0.14605713,-0.5186157,-21.734375,-14.0,0.15625
315,1697618565,-1.0522461,-2.0,0.24871826,-149.76562,86.953125,77.65625
316,1697618605,0.9375,-2.0,0.652771,69.25,-106.578125,-59.875
317,1697618645,-1.5957031,-2.0,-0.28790283,7.78125,-58.5625,-47.6875
318,1697618685,0.44726562,-1.640686,0.17401123,2.109375,7.625,48.90625
319,1697618725,0.3984375,-0.22564697,0.48773193,-29.5625,-65.25,-9.46875
320,1697618765,-0.7783203,0.5963745,-0.20465088,-39.390625,-24.640625,-44.78125
321,1697618805,-0.10595703,0.56658936,-0.2637329,-0.015625,28.78125,-19.203125
322,1697618845,0.36401367,0.034606934,0.05657959,43.953125,12.078125,16.265625
323,1697618885,-0.5102539,-0.5125122,-0.5671997,25.390625,4.671875,0.578125
324,1697618925,1.999939,-2.0,-0.61383057,147.48438,8.15625,196.71875
325,1697618965,-0.09301758,-2.0,1.0912476,-62.046875,-129.04688,-74.859375
326,1697619005,-0.5769043,-1.4841919,0.31170654,-14.46875,73.359375,-17.796875
327,1697619045,-0.087402344,-1.2842407,-0.06817627,19.890625,71.890625,-24.453125
328,1697619085,0.33496094,-0.51568604,-0.21612549,8.59375,32.671875,-19.0625
329,1697619125,0.0637207,0.26190186,-0.2835083,-38.71875,22.328125,3.25
330,1697619165,0.6105957,0.46551514,-0.35699463,-18.40625,5.078125,-17.53125
331,1697619205,0.5266113,0.14276123,0.06488037,-0.328125,-5.875,19.640625
332,1697619245,-0.23657227,0.117126465,-0.30548096,-16.25,-30.4375,22.890625
333,1697619285,-0.6286621,-2.0,-0.020568848,-104.078125,73.78125,37.234375
334,1697619325,1.175293,-1.6521606,1.6317749,82.90625,-81.578125,-30.5625
335,1697619365,-1.2561035,-1.9558716,-0.41680908,2.46875,-64.65625,-76.46875
336,1697619405,-0.25561523,-1.7498169,0.6222534,-25.875,30.53125,48.8125
337,1697619445,1.0449219,-0.1260376,0.43182373,21.75,-33.3125,-18.65625
338,1697619485,-0.58154297,0.5997925,-0.27911377,-43.828125,-39.671875,-61.6875
339,1697619525,-0.28466797,0.49188232,-0.284729,-5.34375,26.3125,-30.953125
340,1697619565,0.5600586,-0.02960205,0.078552246,25.375,9.78125,13.265625
341,1697619605,-0.095703125,-0.31427002,-0.7085571,22.984375,-24.15625,-9.4375
342,1697619645,1.6501465,-2.0,-1.0698853,94.453125,-39.34375,231.45312
343,1697619685,-0.084472656,-2.0,0.7484741,11.03125,-162.26562,-85.53125
344,1697619725,-0.92211914,-1.9360962,0.08758545,-65.984375,129.75,11.6875
345,1697619765,0.17822266,-1.2722778,0.055358887,20.5,82.5,-17.875
346,1697619805,0.5756836,-0.64141846,-0.32330322,16.5,28.609375,-26.125
347,1697619845,-0.037353516,0.11932373,-0.26202393,-22.6875,12.65625,9.875
348,1697619885,0.44458008,0.2526245,-0.5039673,-9.921875,11.5625,-14.375
349,1697619925,0.8535156,0.15765381,0.050720215,-0.421875,-22.921875,15.75
350,1697619965,-0.18383789,0.24725342,-0.44659424,-9.828125,-40.40625,21.484375
351,1697620005,-0.37841797,-2.0,-0.22979736,-80.984375,31.40625,31.796875
352,1697620045,1.3200684,-2.0,1.2438354,54.0625,-50.96875,-44.03125
353,1697620085,-1.5686035,-1.9763794,-0.3237915,-3.78125,-57.734375,-73.640625
354,1697620125,0.97998047,-2.0,0.19451904,-134.76562,64.828125,25.484375
355,1697620165,0.86816406,-0.35577393,0.65448,81.828125,-88.953125,-6.15625
356,1697620205,-0.58935547,0.04168701,-0.09136963,-20.390625,-33.984375,-61.90625
357,1697620245,-0.50439453,0.8348999,-0.66534424,-43.765625,55.09375,-41.109375
358,1697620285,1.0043945,0.057800293,-0.0076293945,35.0,19.109375,23.828125
359,1697620325,-0.26635742,-0.13702393,-0.027404785,23.65625,-33.921875,-11.953125
360,1697620365,-0.9411621,-1.6001587,0.0004272461,46.125,59.984375,43.5625
361,1697620405,0.69506836,-2.0,-0.50006104,53.21875,-28.125,-5.765625
362,1697620445,-1.0578613,-2.0,0.51898193,-115.078125,79.484375,9.171875
363,1697620485,-0.21704102,-1.1716919,0.026062012,35.96875,66.71875,-29.109375
364,1697620525,0.74853516,-0.8267212,-0.19976807,15.53125,57.828125,-9.484375
365,1697620565,0.18896484,-0.19171143,-0.2341919,-29.765625,-7.8125,-0.375
366,1697620605,0.12548828,0.24090576,-0.4920044,-21.671875,27.234375,-4.9375
367,1697620645,0.8857422,0.3739624,0.04901123,1.046875,-35.390625,-2.28125
368,1697620685,-0.055908203,0.22772217,-0.17218018,-25.203125,-54.359375,17.625
369,1697620725,-1.0837402,-1.8648071,-0.035461426,-72.546875,76.125,11.90625
370,1697620765,1.8666992,-2.0,1.5236206,32.0,-8.96875,-82.796875
371,1697620805,-1.0773926,-2.0,-0.73565674,-22.96875,-80.015625,-60.125
372,1697620845,-0.24658203,-2.0,0.5482788,11.40625,33.609375,57.46875
373,1697620885,1.097168,-0.6255493,0.38104248,-6.109375,-32.25,-12.328125
374,1697620925,-0.4128418,0.45819092,-0.014465332,-14.609375,-61.328125,-47.484375
375,1697620965,-0.98168945,1.0922241,-0.5178833,-33.65625,45.625,-38.0625
376,1697621005,1.0219727,-0.09185791,-0.03302002,61.5625,40.984375,33.34375
377,1697621045,0.16430664,-0.18878174,-0.44537354,28.53125,-26.078125,-11.171875
378,1697621085,-0.45507812,-2.0,-0.35430908,60.34375,93.171875,90.71875
379,1697621125,-0.0007324219,-2.0,-0.007873535,34.828125,-174.65625,-79.984375
380,1697621165,-1.3256836,-1.9856567,0.05609131,-100.234375,165.14062,-6.171875
381,1697621205,0.5354004,-1.3240356,-0.22271729,38.671875,78.671875,-18.84375
382,1697621245,0.8364258,-0.7337036,-0.333313,11.515625,3.0625,-15.8125
383,1697621285,-0.43066406,-0.07476807,-0.15045166,-47.09375,-2.859375,-6.265625
384,1697621325,0.08129883,0.2531128,-0.49102783,-24.578125,18.703125,-5.375
385,1697621365,1.2097168,0.4484253,0.13470459,2.203125,-36.65625,9.625
386,1697621405,-0.079589844,0.1642456,-0.14776611,-9.625,-52.984375,18.6875
387,1697621445,-0.5476074,-1.4539185,-0.7305298,-30.65625,45.75,4.578125
388,1697621485,1.4587402,-2.0,1.9159546,62.03125,-1.1875,-30.40625
389,1697621525,-1.920166,-2.0,-0.31427002,19.140625,-77.015625,-76.234375
390,1697621565,-0.114990234,-1.4058228,0.67889404,-6.75,41.0,32.734375
391,1697621605,1.0871582,-0.40216064,0.41375732,-11.4375,-8.015625,8.703125
392,1697621645,-0.27685547,0.3295288,-0.14898682,-37.6875,-54.171875,-85.6875
393,1697621685,-0.9682617,0.7255249,-0.25933838,-24.484375,44.359375,-61.96875
394,1697621725,1.0551758,0.00579834,-0.097473145,56.21875,42.15625,41.640625
395,1697621765,0.0871582,-0.21734619,0.062194824,14.015625,-19.296875,-17.140625
396,1697621805,-1.0949707,-1.5479126,-0.26519775,-0.03125,72.53125,27.453125
397,1697621845,0.8059082,-2.0,0.113220215,61.828125,-40.375,-49.703125
398,1697621885,-1.6611328,-2.0,1.1366577,-60.453125,60.140625,-6.203125
399,1697621925,-0.16503906,-1.1812134,-0.10406494,44.828125,71.875,-24.578125
400,1697621965,0.8977051,-1.2632446,-0.32647705,30.109375,50.640625,-3.53125
401,1697622005,0.021484375,-0.49493408,0.0018920898,-47.390625,-34.625,-5.5
402,1697622045,-0.47265625,0.27874756,-0.5166626,-25.640625,36.984375,-22.015625
403,1697622085,1.4599609,0.36273193,-0.081848145,44.734375,-40.21875,22.171875
404,1697622125,-0.029052734,0.21258545,-0.022033691,-34.46875,-47.671875,18.65625
405,1697622165,-0.6516113,-0.7835083,-0.67559814,26.015625,20.828125,-2.71875
406,1697622205,1.999939,-2.0,0.8451538,70.484375,36.84375,86.75
407,1697622245,-1.2563477,-2.0,-0.708313,-28.140625,-103.796875,-56.890625
408,1697622285,-0.22363281,-1.2532349,0.6444702,38.296875,46.1875,-0.171875
409,1697622325,1.3669434,-1.1133423,0.1786499,-12.734375,-13.953125,44.28125
410,1697622365,-0.21069336,0.37591553,0.002380371,8.90625,-76.5625,-41.234375
411,1697622405,-0.9423828,0.8805542,-0.25494385,-37.0,15.65625,-75.453125
412,1697622445,0.39746094,0.027770996,-0.15264893,43.46875,38.375,16.90625
413,1697622485,0.77978516,-0.25006104,-0.024963379,35.484375,-20.46875,8.671875
414,1697622525,-0.71240234,-1.3648071,-0.5523071,26.15625,0.734375,21.796875
415,1697622565,1.999939,-2.0,0.2789917,27.765625,72.828125,65.0
416,1697622605,-0.81518555,-2.0,0.8703003,-3.9375,91.609375,-5.421875
417,1697622645,-0.47583008,-1.128479,0.15496826,4.421875,97.953125,-31.140625
418,1697622685,0.7246094,-1.1777954,-0.4055786,29.046875,69.171875,-6.453125
419,1697622725,0.38232422,-0.21588135,-0.29888916,-29.71875,-15.296875,-18.96875
420,1697622765,-0.23364258,0.3319702,-0.40924072,-32.765625,27.546875,0.109375
421,1697622805,0.99487305,0.45721436,-0.11090088,28.734375,-29.578125,4.4375
422,1697622845,0.17651367,0.1720581,0.0914917,-20.0,-54.390625,35.0625
423,1697622885,-0.4873047,-0.70880127,-0.41412354,-3.171875,15.78125,-8.59375
424,1697622925,1.999939,-2.0,0.37445068,52.84375,-40.578125,125.0
425,1697622965,-0.6437988,-1.4871216,-0.19317627,-33.015625,-107.15625,-86.640625
426,1697623005,-0.4345703,-2.0,0.21234131,48.484375,21.640625,16.875
427,1697623045,0.8989258,-0.8508911,0.12030029,6.015625,-20.640625,48.3125
428,1697623085,-0.0107421875,0.16546631,0.06536865,10.96875,-83.046875,-39.90625
429,1697623125,-1.0944824,0.635437,-0.2876587,-25.8125,17.0625,-68.625
430,1697623165,0.5283203,-0.03326416,-0.23858643,33.703125,54.15625,2.890625
431,1697623205,0.7072754,-0.20147705,-0.04840088,34.703125,-10.5,3.6875
432,1697623245,-0.9951172,-1.4187622,0.16522217,-0.78125,76.046875,34.21875
433,1697623285,0.29833984,-2.0,0.24920654,58.515625,-88.75,-83.578125
434,1697623325,-1.4284668,-2.0,0.7584839,-71.296875,122.59375,1.71875
435,1697623365,0.16040039,-1.3840942,0.29510498,73.828125,42.640625,-15.59375
436,1697623405,0.15795898,-1.4971313,-0.13800049,-22.5,66.078125,-44.34375
437,1697623445,0.07080078,-0.41485596,-0.32843018,-13.8125,-5.875,5.234375
438,1697623485,-0.011230469,0.37835693,-0.5274048,-15.203125,56.96875,-0.84375
439,1697623525,1.6804199,0.28533936,-0.18389893,27.96875,-54.046875,1.59375
440,1697623565,-0.030517578,0.19647217,-0.15240479,-19.109375,-58.53125,20.703125
441,1697623605,-1.1062012,-2.0,0.2243042,-81.046875,61.515625,8.125
442,1697623645,1.328125,-1.6829224,1.5661011,44.84375,-51.578125,-79.640625
443,1697623685,-1.5825195,-1.9985962,-0.9668579,-23.09375,-46.8125,-101.484375
444,1697623725,0.48413086,-2.0,0.49700928,-35.421875,46.078125,66.265625
445,1697623765,1.3457031,-0.50006104,0.49871826,20.25,-99.703125,-1.15625
446,1697623805,-0.8366699,0.008483887,0.15887451,5.828125,-46.0,-57.625
447,1697623845,-1.0322266,0.8295288,-0.84210205,-59.78125,68.9375,-65.640625
448,1697623885,1.4086914,0.03387451,-0.09503174,58.03125,43.921875,21.5625
449,1697623925,0.35131836,-0.18389893,-0.45025635,16.015625,-40.375,-2.09375
450,1697623965,0.103027344,-2.0,-0.6826782,55.203125,60.484375,125.1875
451,1697624005,0.005126953,-1.802063,0.6444702,-63.625,-220.34375,-95.890625
452,1697624045,-1.2297363,-2.0,0.26019287,-36.171875,110.640625,0.984375
453,1697624085,0.17675781,-0.9788208,-0.097717285,2.96875,79.09375,-33.21875
454,1697624125,0.763916,-0.78131104,-0.2263794,20.359375,24.421875,-16.9375
455,1697624165,-0.22094727,0.027526855,-0.014953613,-32.046875,10.171875,-5.25
456,1697624205,0.35595703,0.34539795,-0.49591064,-11.21875,9.203125,-4.96875
457,1697624245,0.9304199,0.27435303,0.117126465,-1.453125,-29.421875,18.8125
458,1697624285,-0.30810547,0.11907959,-0.09307861,-15.125,-45.953125,15.4375
459,1697624325,-0.5073242,-1.6775513,-0.3184204,-19.578125,74.75,7.765625
460,1697624365,1.5087891,-1.7559204,1.5387573,34.921875,-45.875,-62.421875
461,1697624405,-1.6594238,-2.0,-0.78204346,-55.671875,-103.1875,-94.203125
462,1697624445,-0.18286133,-1.8394165,1.1098022,0.59375,45.1875,65.125
463,1697624485,1.7822266,-0.6380005,0.21087646,1.546875,-44.03125,-1.375
464,1697624525,-0.2998047,0.45306396,-0.17266846,-15.703125,-78.140625,-56.65625
465,1697624565,-1.0310059,0.8348999,-0.4187622,-17.1875,29.421875,-40.046875
466,1697624605,0.81396484,-0.17462158,0.0065307617,53.390625,37.046875,12.40625
467,1697624645,0.0068359375,-0.23248291,0.08074951,12.984375,-11.640625,-27.96875
468,1697624685,-0.98657227,-1.4697876,-0.33648682,-4.390625,37.84375,11.015625
469,1697624725,1.0952148,-1.9876099,0.3475952,78.8125,49.25,57.640625
470,1697624765,-1.0400391,-2.0,1.1495972,-63.4375,-50.484375,-52.046875
471,1697624805,-0.36865234,-1.3799438,0.050964355,94.78125,67.8125,-40.1875
472,1697624845,0.66967773,-0.91412354,-0.18267822,13.953125,51.984375,-21.3125
473,1697624885,0.4194336,-0.4487915,0.19573975,-14.53125,-1.421875,-3.40625
474,1697624925,-0.27514648,0.25115967,-0.36798096,-34.71875,13.09375,-27.171875
475,1697624965,1.1745605,0.34197998,-0.34527588,18.671875,-22.9375,-0.265625
476,1697625005,0.24023438,0.42303467,0.054626465,-24.484375,-44.3125,19.046875
477,1697625045,-0.60546875,-0.15875244,-0.63848877,-15.328125,-29.3125,0.5625
478,1697625085,1.5539551,-2.0,0.1161499,45.6875,-60.421875,366.60938
479,1697625125,0.70458984,-1.3440552,-0.2822876,51.15625,-128.54688,-60.953125
480,1697625165,-1.6726074,-1.3276978,-0.49420166,37.25,-23.390625,-91.453125
481,1697625205,0.42578125,-1.6409302,0.14788818,-17.34375,46.921875,104.875
482,1697625245,0.67211914,-0.45880127,0.45648193,27.578125,-85.0,-17.1875
483,1697625285,-1.0454102,0.6967163,-0.2822876,-45.328125,-62.609375,-84.34375
484,1697625325,-0.4777832,0.78411865,-0.3411255,-13.703125,36.171875,-20.71875
485,1697625365,1.0449219,-0.2937622,-0.08013916,49.625,12.34375,19.078125
486,1697625405,-0.20703125,-0.3555298,-0.22027588,9.9375,-32.28125,-28.984375
487,1697625445,0.23950195,-2.0,-2.0,59.84375,53.84375,219.21875
488,1697625485,0.6879883,-1.5647583,0.746521,-30.640625,-214.90625,-105.59375
489,1697625525,-1.956543,-2.0,0.9508667,-88.390625,108.3125,20.09375
490,1697625565,0.45361328,-1.130188,0.039001465,37.1875,84.53125,-20.078125
491,1697625605,1.3852539,-1.0403442,-0.16607666,7.765625,2.46875,-35.3125
492,1697625645,-0.47192383,-0.14434814,-0.13946533,-41.71875,-76.578125,-27.09375
493,1697625685,-0.28930664,0.5126343,-0.48809814,-28.953125,-3.125,-31.765625
494,1697625725,0.96972656,0.04046631,-0.09844971,15.28125,-42.671875,-1.59375
495,1697625765,0.115478516,0.20672607,-0.11260986,-24.90625,-52.921875,23.34375
496,1697625805,0.2019043,-1.2151489,-0.17340088,-21.421875,60.390625,13.515625
497,1697625845,0.4633789,-1.7842407,1.999939,98.15625,-77.890625,-45.8125
498,1697625885,-1.7045898,-1.690979,-1.5630493,11.171875,-194.4375,-81.328125
499,1697625925,-0.5007324,-1.8775024,1.338562,42.046875,44.15625,56.53125
500,1697625965,1.3369141,-0.49639893,0.5248413,-1.28125,-44.625,16.109375
501,1697626005,-0.020507812,0.09661865,-0.1519165,-12.421875,-84.203125,-46.234375
502,1697626045,-1.1118164,0.9188843,-0.24542236,-22.796875,-18.03125,-62.578125
503,1697626085,0.5126953,-0.04547119,-0.06842041,45.140625,7.90625,-6.09375
504,1697626125,0.42944336,-0.3633423,-0.055480957,16.34375,-16.203125,0.078125
505,1697626165,-1.0422363,-2.0,0.30682373,31.453125,117.59375,122.3125
506,1697626205,0.32421875,-1.7717896,0.94085693,-2.75,-162.4375,-61.484375
507,1697626245,-1.7270508,-1.5830688,0.9213257,-37.890625,59.703125,-24.0625
508,1697626285,0.87158203,-1.8965454,0.13128662,22.109375,40.34375,7.6875
509,1697626325,0.9001465,-0.8225708,-0.28424072,38.421875,-3.8125,-30.28125
510,1697626365,-0.17700195,-0.27227783,0.12542725,-7.90625,-85.921875,-13.0
511,1697626405,-0.7546387,0.3192749,-0.13702393,-26.453125,4.25,-23.890625
512,1697626445,1.1733398,0.22454834,-0.12750244,10.90625,-19.640625,7.59375
513,1697626485,0.64038086,0.27093506,-0.17218018,-19.71875,-45.3125,12.75
514,1697626525,0.18798828,-0.77008057,-0.025939941,-39.28125,48.109375,19.28125
515,1697626565,0.2631836,-2.0,1.999939,-5.59375,-48.390625,-1.8125
516,1697626605,-0.8486328,-2.0,-1.2820435,-35.140625,-155.82812,-15.296875
517,1697626645,-0.15136719,-2.0,1.5321655,32.046875,-26.25,18.859375
518,1697626685,1.1911621,-1.2090454,0.2765503,-14.0625,-100.78125,-22.671875
519,1697626725,0.040283203,-0.07867432,0.16912842,1.953125,-98.1875,-8.296875
520,1697626765,-0.9289551,0.39520264,-0.1987915,-16.71875,-62.296875,-44.421875
521,1697626805,-0.11328125,0.28704834,-0.112854004,23.3125,0.328125,-33.765625
522,1697626845,0.7614746,-0.15509033,-0.04107666,24.859375,-8.40625,-4.21875
523,1697626885,-0.44921875,-0.32037354,-0.62506104,14.546875,-25.25,-11.828125
524,1697626925,1.999939,-2.0,-0.9663696,94.6875,-58.109375,281.09375
525,1697626965,0.6044922,-2.0,0.758728,24.546875,-144.10938,-47.78125
526,1697627005,-1.423584,-1.7615356,0.5997925,19.546875,-10.40625,-9.234375
527,1697627045,0.025634766,-1.2959595,0.1227417,22.15625,70.875,-3.203125
528,1697627085,0.71728516,-1.0344849,-0.0491333,26.0,2.421875,-44.046875
529,1697627125,0.080322266,-0.41656494,0.019470215,-7.109375,-55.71875,5.984375
530,1697627165,-0.32788086,0.21697998,-0.11920166,-13.53125,-0.140625,-1.71875
531,1697627205,0.5151367,0.2411499,-0.09991455,-14.140625,-20.875,-24.421875
532,1697627245,0.6953125,0.08001709,-0.09210205,-4.953125,-38.875,21.96875
533,1697627285,0.123535156,-0.18951416,-0.72076416,-6.578125,-9.296875,16.90625
534,1697627325,1.999939,-2.0,1.999939,-29.15625,-78.328125,278.25
535,1697627365,-1.0610352,-2.0,0.116882324,-5.59375,-86.375,-81.109375
536,1697627405,0.42529297,-0.9985962,0.50164795,72.46875,37.671875,34.65625
537,1697627445,1.2685547,-1.7197876,0.39520264,14.28125,-69.5625,32.9375
538,1697627485,0.45117188,-0.6265259,0.13983154,35.34375,-127.84375,-29.953125
539,1697627525,-1.0224609,0.27337646,0.02557373,-14.265625,-76.4375,-30.375
540,1697627565,-0.3569336,0.54119873,-0.109191895,-9.0,-8.1875,-49.734375
541,1697627605,0.36865234,-0.024475098,-0.10992432,28.53125,-18.359375,-11.453125
542,1697627645,0.044921875,-0.19732666,-0.23883057,22.5,-24.6875,-11.140625
543,1697627685,0.009277344,-1.4712524,-0.378479,20.375,59.859375,34.96875
544,1697627725,1.1477051,-1.9690552,0.2140503,46.90625,-89.796875,0.28125
545,1697627765,-0.92407227,-2.0,0.35150146,-111.578125,-37.34375,-21.125
546,1697627805,-0.27368164,-1.3667603,0.54315186,45.703125,27.140625,-10.4375
547,1697627845,0.46435547,-1.6643677,-0.014221191,13.25,64.890625,-50.46875
548,1697627885,0.39086914,-1.017395,-0.2498169,31.3125,-35.90625,-25.5
549,1697627925,-0.35961914,-0.0647583,-0.062316895,-15.0625,15.828125,6.65625
550,1697627965,0.795166,0.3991089,-0.20343018,-14.171875,-19.921875,-9.140625
551,1697628005,0.8498535,0.13421631,-0.066467285,-8.390625,-56.0625,12.875
552,1697628045,-0.22143555,0.090026855,-0.55181885,-29.484375,-36.015625,21.421875
553,1697628085,-0.022216797,-1.961731,0.1942749,-68.625,-24.6875,41.453125
554,1697628125,0.80126953,-2.0,0.089538574,-35.109375,-3.1875,-32.25
555,1697628165,-0.91137695,-0.97369385,0.074401855,83.3125,-128.92188,-36.203125
556,1697628205,0.8010254,-1.8765259,-0.105285645,-0.296875,-15.453125,52.96875
557,1697628245,0.7692871,-0.98223877,0.2819214,9.3125,-83.625,-13.046875
558,1697628285,-0.52490234,0.049987793,0.059265137,-34.828125,-78.953125,-34.921875
559,1697628325,-0.48706055,1.0448608,-0.17510986,-25.265625,-17.25,-55.546875
560,1697628365,0.42504883,0.12689209,-0.15802002,30.4375,3.140625,-1.421875
561,1697628405,0.07739258,-0.20806885,-0.097229004,21.578125,-21.03125,3.1875
562,1697628445,-0.37353516,-1.0471802,-0.3513794,2.03125,36.5,1.4375
563,1697628485,1.1691895,-2.0,0.33294678,24.265625,76.796875,96.796875
564,1697628525,-0.83447266,-2.0,0.79241943,-73.0625,51.203125,-39.53125
565,1697628565,-0.0126953125,-1.4863892,-0.011047363,45.921875,77.8125,-14.0
566,1697628605,0.84472656,-1.3206177,-0.020080566,7.265625,50.15625,-21.640625
567,1697628645,0.07910156,-0.38287354,-0.070129395,-27.375,-17.578125,-21.96875
568,1697628685,-0.04272461,-0.0017700195,-0.2000122,-15.578125,8.015625,5.1875
569,1697628725,0.47045898,0.44378662,-0.37335205,-24.90625,-5.125,-8.6875
570,1697628765,0.50146484,0.24334717,-0.1038208,-5.984375,-25.890625,6.640625
571,1697628805,0.037597656,0.04925537,-0.4758911,-17.46875,-32.390625,23.0625
572,1697628845,-0.22973633,-1.8521118,0.07659912,-70.25,25.21875,27.3125
573,1697628885,1.6672363,-2.0,0.5409546,-32.78125,22.15625,-44.921875
574,1697628925,-1.130127,-1.6460571,-0.35113525,30.71875,-119.421875,-46.390625
575,1697628965,1.0788574,-1.7788696,0.06414795,-32.3125,19.28125,41.09375
576,1697629005,0.6777344,-0.8833618,0.50286865,26.078125,-83.40625,-11.703125
577,1697629045,-0.69750977,0.082214355,-0.2732544,-50.890625,-56.296875,-66.765625
578,1697629085,-0.5966797,0.9972534,-0.13531494,-19.890625,12.9375,-60.0625
579,1697629125,0.5251465,0.014343262,-0.08770752,42.609375,19.671875,23.03125
580,1697629165,0.13793945,-0.3081665,-0.3665161,22.34375,-15.15625,-3.359375
581,1697629205,-0.3774414,-1.68219,-0.40509033,-16.265625,109.296875,42.609375
582,1697629245,0.8227539,-1.998352,-0.20953369,92.28125,-148.54688,-63.875
583,1697629285,-1.996582,-2.0,0.22821045,-125.328125,108.640625,-9.015625
584,1697629325,0.33129883,-1.3152466,-0.09136963,42.890625,80.296875,-33.15625
585,1697629365,1.0339355,-0.9338989,-0.16656494,14.046875,49.59375,-23.375
586,1697629405,0.008056641,-0.33477783,-0.06500244,-32.078125,0.765625,-12.890625
587,1697629445,-0.055908203,0.24090576,-0.31744385,-11.5625,23.859375,2.140625
588,1697629485,0.43164062,0.4022827,-0.15826416,-6.28125,-8.84375,4.71875
589,1697629525,0.41845703,0.12371826,-0.13800049,-2.609375,-10.78125,20.8125
590,1697629565,0.09448242,-0.19317627,-0.85162354,-10.46875,-22.765625,18.046875
591,1697629605,-0.3466797,-2.0,1.5109253,-192.82812,68.484375,115.359375
592,1697629645,-0.111816406,-1.7747192,0.35784912,12.265625,-91.90625,-52.890625
593,1697629685,-0.97143555,-1.3735962,-0.77667236,52.59375,-49.171875,-102.625
594,1697629725,0.8078613,-1.6484985,0.03387451,-10.3125,-10.515625,67.859375
595,1697629765,0.51342773,-0.3591919,0.0993042,-16.390625,-75.109375,-1.53125
596,1697629805,-1.2473145,1.1278687,-0.070373535,-45.078125,-18.046875,-85.625
597,1697629845,0.024658203,0.5211792,-0.3711548,34.015625,62.96875,-23.6875
598,1697629885,0.78686523,-0.038391113,0.06317139,54.5625,8.0,33.484375
599,1697629925,-0.2668457,-0.57891846,-0.92388916,-25.375,-36.25,-22.515625
600,1697629965,0.6166992,-2.0,0.06097412,71.78125,28.671875,234.82812
601,1697630005,-0.4580078,-2.0,0.6918335,-43.953125,-136.84375,-89.15625
602,1697630045,-0.52978516,-2.0,-0.036193848,10.140625,99.515625,8.296875
603,1697630085,0.49243164,-1.3118286,-0.042297363,46.5,92.46875,-41.0
604,1697630125,0.71362305,-0.7078247,-0.1560669,0.4375,7.1875,-16.875
605,1697630165,-0.41992188,0.10443115,-0.3789673,-63.328125,16.984375,-8.921875
606,1697630205,0.27172852,0.49554443,-0.40460205,-14.03125,8.34375,-13.828125
607,1697630245,1.1677246,0.29681396,0.15496826,-7.765625,-20.390625,31.9375
608,1697630285,-0.3803711,-0.038879395,-0.48516846,-33.34375,-63.5625,7.546875
609,1697630325,-1.4746094,-2.0,0.4130249,-80.203125,86.25,0.265625
610,1697630365,1.1464844,-1.592102,1.5612183,42.125,-18.8125,-75.65625
611,1697630405,-1.7451172,-2.0,-0.5274048,-7.109375,-44.8125,-74.484375
612,1697630445,0.64868164,-1.9297485,-0.15753174,-96.03125,13.65625,34.515625
613,1697630485,0.94189453,-0.5654907,0.1906128,-3.484375,-69.953125,6.25
614,1697630525,-0.7006836,0.43548584,0.2592163,-21.859375,-49.484375,-32.828125
615,1697630565,-0.8417969,0.9533081,-0.5610962,0.40625,54.796875,-72.515625
616,1697630605,1.0449219,-0.2642212,-0.11553955,92.75,43.609375,43.375
617,1697630645,0.09375,-0.36480713,-0.6489868,3.84375,-16.171875,-23.140625
618,1697630685,1.0231934,-2.0,-0.7647095,127.3125,28.234375,202.04688
619,1697630725,0.041748047,-1.8643188,0.12030029,-15.21875,-166.60938,-108.90625
620,1697630765,-1.3161621,-2.0,-0.18145752,-0.203125,112.890625,19.53125
621,1697630805,0.6687012,-1.1033325,-0.30523682,48.703125,113.421875,-21.984375
622,1697630845,1.3781738,-0.99786377,-0.0256958,20.546875,16.359375,-12.734375
623,1697630885,-1.0732422,-0.1729126,-0.3086548,-66.8125,-20.109375,-14.046875
624,1697630925,-0.14404297,0.4310913,-0.41607666,-56.390625,52.984375,-12.125
625,1697630965,1.1757812,0.3842163,0.02532959,-7.46875,-3.1875,4.484375
626,1697631005,0.1508789,0.15692139,-0.1741333,-18.125,-35.765625,5.65625
627,1697631045,-0.28979492,-0.7949829,-0.87384033,-2.828125,23.640625,6.984375
628,1697631085,1.999939,-2.0,1.1896362,131.70312,-6.71875,200.10938
629,1697631125,-0.92749023,-1.5950317,-0.0012817383,-23.546875,-73.453125,-59.9375
630,1697631165,0.036132812,-1.2761841,-0.020080566,27.890625,2.015625,-16.421875
631,1697631205,1.4191895,-1.3862915,0.28656006,-5.828125,-40.6875,88.234375
632,1697631245,-0.21386719,-0.09674072,0.06756592,-1.390625,-100.46875,-66.078125
633,1697631285,-1.1166992,1.007019,-0.25982666,-23.765625,4.203125,-75.875
634,1697631325,0.47583008,0.16229248,-0.30010986,42.484375,48.71875,14.515625
635,1697631365,0.9074707,-0.31329346,-0.062805176,51.21875,-3.140625,29.03125
636,1697631405,-0.75341797,-1.2124634,-0.5405884,-14.375,1.0625,-12.640625
637,1697631445,1.999939,-2.0,0.066345215,72.046875,129.67188,68.390625
638,1697631485,-0.47705078,-2.0,1.2787476,-5.265625,29.953125,-86.6875
639,1697631525,-0.73583984,-1.7688599,0.4472046,65.046875,76.234375,-9.484375
640,1697631565,0.5307617,-1.2825317,-0.22467041,18.109375,92.59375,-28.203125
641,1697631605,0.50927734,-0.48980713,-0.09161377,-34.09375,-1.78125,-37.5
642,1697631645,-0.23242188,0.12054443,-0.5303345,-30.03125,31.5625,-1.078125
643,1697631685,0.87231445,0.494812,-0.6104126,14.09375,-1.578125,5.75
644,1697631725,0.8640137,0.3312378,0.13104248,-18.71875,-48.65625,29.125
645,1697631765,-0.6928711,-0.20172119,-0.8599243,-19.53125,-47.28125,0.125
646,1697631805,-0.096191406,-2.0,1.0106812,-103.671875,16.6875,214.65625
647,1697631845,0.5942383,-2.0,0.30340576,40.109375,-95.671875,-67.578125
648,1697631885,-1.2058105,-1.1729126,-0.3718872,42.46875,-68.96875,-50.203125
649,1697631925,0.9560547,-2.0,0.093933105,-60.796875,7.703125,63.421875
650,1697631965,0.26464844,-0.32647705,0.48284912,0.078125,-83.859375,-22.046875
651,1697632005,-1.1408691,0.61053467,-0.57598877,-70.84375,-20.328125,-93.859375
652,1697632045,0.3256836,0.61102295,-0.24737549,40.65625,63.09375,-11.234375
653,1697632085,0.66748047,-0.007873535,0.078063965,48.9375,7.34375,22.359375
654,1697632125,-0.64331055,-1.3560181,-0.5615845,-19.984375,5.140625,-16.4375
655,1697632165,1.999939,-2.0,0.050720215,93.625,43.46875,113.8125
656,1697632205,-0.5749512,-1.8084106,0.8859253,-13.0625,4.015625,-55.296875
657,1697632245,-0.56152344,-1.1921997,0.24798584,61.078125,70.625,-21.75
658,1697632285,0.5085449,-0.72662354,-0.4985962,-0.078125,54.796875,-24.5625
659,1697632325,0.49658203,-0.15142822,-0.22467041,-34.375,19.390625,28.375
660,1697632365,0.3215332,0.4713745,-0.3369751,-39.421875,12.578125,-12.859375
661,1697632405,0.9440918,0.28216553,-0.03692627,15.0625,-55.921875,2.34375
662,1697632445,-0.22460938,0.026550293,-0.4805298,-28.625,-42.46875,31.59375
663,1697632485,-0.9550781,-2.0,-0.0154418945,-85.984375,95.171875,28.765625
664,1697632525,1.1547852,-1.5806274,1.0370483,10.703125,-98.0,-53.40625
665,1697632565,-2.0,-1.8013306,-0.8960571,-5.8125,-73.109375,-153.51562
666,1697632605,0.43481445,-1.9824829,0.2374878,-32.984375,73.984375,82.921875
667,1697632645,1.3537598,-0.41729736,0.38250732,9.609375,-52.546875,0.828125
668,1697632685,-0.49414062,0.37078857,-0.33770752,-32.6875,-71.15625,-65.6875
669,1697632725,-0.6689453,1.0643921,-0.21026611,-8.421875,24.25,-57.109375
670,1697632765,0.9641113,-0.016174316,-0.1362915,66.921875,11.765625,36.625
671,1697632805,-0.12841797,-0.51348877,-0.4060669,2.671875,-14.375,-0.765625
672,1697632845,0.068847656,-2.0,-0.62945557,8.875,125.71875,90.109375
673,1697632885,0.16333008,-1.9505005,0.53582764,-15.59375,-118.765625,-64.34375
674,1697632925,-1.1716309,-2.0,0.17767334,-33.125,99.671875,3.546875
675,1697632965,0.5004883,-1.2207642,-0.0791626,8.0625,66.265625,-30.796875
676,1697633005,0.7072754,-0.9470825,-0.2715454,26.703125,16.859375,0.046875
677,1697633045,-0.93115234,-0.31524658,-0.030578613,-27.265625,10.296875,-12.109375
678,1697633085,0.125,0.5302124,-0.5984497,-19.09375,55.3125,-26.625
679,1697633125,1.6550293,0.27825928,-0.3118286,4.1875,-21.421875,13.828125
680,1697633165,0.2319336,0.2633667,0.09051514,-18.5625,-56.578125,27.90625
681,1697633205,-0.6069336,-0.44195557,-0.954895,-8.78125,-12.59375,-0.828125
682,1697633245,1.999939,-2.0,0.69525146,114.953125,-10.53125,228.3125
683,1697633285,-0.6669922,-1.7105103,-0.23834229,-17.09375,-111.75,-102.5625
684,1697633325,-0.6628418,-1.4771118,0.2296753,27.265625,13.921875,-22.0625
685,1697633365,1.0258789,-0.90045166,0.1461792,0.296875,18.859375,65.96875
686,1697633405,0.1850586,-0.012023926,0.16131592,-14.71875,-60.53125,-45.578125
687,1697633445,-0.9602051,1.0734253,-0.27496338,-42.375,8.59375,-71.375
688,1697633485,0.47338867,0.19232178,-0.2744751,43.65625,31.171875,7.3125
689,1697633525,0.44726562,-0.11871338,0.08294678,26.09375,-4.5,1.921875
690,1697633565,-0.6064453,-0.9783325,-0.59381104,8.15625,-9.28125,14.8125
691,1697633605,1.999939,-2.0,0.3168335,70.84375,135.07812,161.8125
692,1697633645,-0.91674805,-2.0,1.6034546,-44.203125,-67.390625,-58.5
693,1697633685,-0.46801758,-0.97247314,0.0211792,95.296875,144.04688,-22.171875
694,1697633725,0.59399414,-0.90216064,-0.0791626,5.984375,87.015625,-43.25
695,1697633765,0.32910156,-0.55670166,-0.25054932,-26.1875,-31.109375,0.578125
696,1697633805,-0.5793457,0.14471436,-0.24737549,-40.34375,46.578125,-7.015625
697,1697633845,1.2941895,0.55755615,-0.43829346,15.0625,-16.15625,4.484375
698,1697633885,0.46972656,0.31878662,0.16326904,-17.765625,-38.9375,22.875
699,1697633925,-0.5263672,-0.20513916,-0.9351196,-15.421875,-34.671875,5.21875
700,1697633965,0.25683594,-2.0,0.01727295,-28.671875,19.984375,217.34375
701,1697634005,0.8166504,-2.0,-0.12432861,-9.890625,-124.734375,-29.75
702,1697634045,-2.0,-1.5652466,-0.39556885,14.3125,-84.65625,-80.796875
703,1697634085,0.68359375,-1.8635864,0.051208496,-44.0,38.71875,78.734375
704,1697634125,0.119628906,-0.26593018,0.48895264,-14.21875,-58.109375,-3.625
705,1697634165,-1.03125,0.7374878,-0.36480713,-68.234375,-17.984375,-90.109375
706,1697634205,0.15942383,0.65448,-0.2901001,18.3125,57.109375,-19.796875
707,1697634245,0.9406738,-0.23101807,0.043640137,34.796875,2.90625,32.046875
708,1697634285,-0.5402832,-0.91973877,-0.7300415,2.9375,-20.1875,-9.578125
709,1697634325,1.999939,-2.0,0.113220215,112.875,103.40625,151.21875
710,1697634365,-0.42333984,-2.0,0.9208374,-69.921875,-71.703125,-95.140625
711,1697634405,-0.6784668,-1.4168091,0.13641357,49.546875,107.859375,-23.5
712,1697634445,0.6904297,-1.236145,-0.15435791,-0.21875,102.46875,-18.34375
713,1697634485,0.64819336,-0.16851807,-0.16998291,0.828125,-12.640625,-31.265625
714,1697634525,-0.38598633,0.13665771,-0.31744385,-45.34375,23.78125,-10.296875
715,1697634565,0.6435547,0.34100342,-0.4685669,6.328125,3.890625,-7.59375
716,1697634605,0.9645996,0.08270264,0.04852295,0.96875,-36.84375,39.484375
717,1697634645,-0.24389648,-0.12432861,-1.12677,-17.453125,-45.890625,5.9375
718,1697634685,0.13208008,-2.0,1.7362671,-26.359375,-12.296875,294.23438
719,1697634725,-0.49682617,-1.6543579,-0.3574829,23.65625,-125.78125,-58.03125
720,1697634765,-0.4572754,-1.0232544,-0.14361572,43.9375,22.4375,-90.75
721,1697634805,0.82006836,-1.817688,-0.28497314,-68.6875,11.65625,119.65625
722,1697634845,0.5913086,-0.24078369,0.49139404,22.609375,-77.234375,-29.96875
723,1697634885,-1.0117188,0.5700073,-0.14727783,-45.609375,-35.78125,-67.703125
724,1697634925,-0.61279297,1.0175171,-0.35284424,9.59375,56.625,-13.8125
725,1697634965,1.0046387,-0.24298096,-0.109191895,44.203125,24.53125,16.0
726,1697635005,-0.1418457,-0.79400635,-0.9487915,0.1875,3.515625,-6.46875
727,1697635045,1.999939,-2.0,0.67523193,20.59375,63.1875,187.48438
728,1697635085,-0.75756836,-2.0,0.8529663,10.03125,-82.4375,-84.296875
729,1697635125,-0.25805664,-1.3887329,-0.10992432,-14.359375,88.125,-7.515625
730,1697635165,0.9033203,-1.5574341,0.019470215,89.109375,76.390625,-20.859375
731,1697635205,0.11669922,-0.5564575,-0.094055176,-21.265625,-40.3125,-36.078125
732,1697635245,-0.47192383,0.17718506,-0.20172119,-48.90625,30.34375,-8.8125
733,1697635285,0.65893555,0.34222412,-0.3723755,-10.5,20.640625,-17.96875
734,1697635325,1.1293945,0.09490967,0.031188965,6.765625,-37.390625,15.53125
735,1697635365,-0.16992188,-0.030090332,-0.30792236,-40.765625,-74.4375,12.46875
736,1697635405,-1.1542969,-2.0,-0.5083618,-54.890625,65.1875,-15.78125
737,1697635445,1.999939,-1.9436646,1.56073,61.703125,-3.0625,-28.984375
738,1697635485,-1.9536133,-2.0,-0.552063,-58.125,-78.859375,-121.375
739,1697635525,-0.23828125,-1.87677,0.729187,10.25,43.84375,70.234375
740,1697635565,1.5644531,-0.690979,0.28167725,-25.578125,-33.96875,21.046875
741,1697635605,-0.29614258,0.19158936,-0.02935791,-32.71875,-82.359375,-49.125
742,1697635645,-1.0737305,1.1200562,-0.3711548,-17.609375,17.5,-58.390625
743,1697635685,0.7944336,0.010437012,-0.12921143,51.15625,47.71875,27.40625
744,1697635725,0.625,-0.2456665,-0.02520752,25.890625,-14.140625,10.59375
745,1697635765,-1.0480957,-1.7359009,-0.008850098,-50.4375,112.28125,38.859375
746,1697635805,0.54003906,-2.0,0.20672607,-13.84375,-146.14062,-85.6875
747,1697635845,-2.0,-2.0,0.03729248,-82.03125,144.75,-14.6875
748,1697635885,0.22875977,-1.0056763,-0.13067627,49.9375,70.921875,-26.609375
749,1697635925,0.78271484,-0.9258423,-0.20025635,13.203125,55.046875,-14.96875
750,1697635965,-0.22143555,-0.25177002,-0.08258057,-37.859375,-14.78125,-11.984375
751,1697636005,0.15698242,0.41107178,-0.39263916,-32.4375,23.453125,-11.234375
752,1697636045,0.90625,0.45355225,-0.14654541,3.21875,-25.859375,-1.765625
753,1697636085,0.05883789,0.11883545,-0.0569458,-8.59375,-32.265625,34.671875
754,1697636125,-0.3791504,-0.616272,-0.767395,-3.109375,12.546875,-4.921875
755,1697636165,1.999939,-2.0,-0.82281494,30.21875,-17.3125,234.10938
756,1697636205,-0.76660156,-1.519104,-0.92022705,-18.859375,-103.0625,-76.4375
757,1697636245,-1.328125,-0.92681885,0.46966553,13.921875,46.53125,-47.140625
758,1697636285,1.4238281,-1.453186,-0.020812988,-1.0,37.90625,176.48438
759,1697636325,0.5576172,0.066589355,0.20037842,-9.921875,-113.03125,-58.5
