# Sensor type: Respeck
# Activity type: Sitting
# Activity subtype: Coughing
# Subject id: s2016022
# Notes: 
timestamp,accel_x,accel_y,accel_z,gyro_x,gyro_y,gyro_z
1695306009793,-0.039794922,-0.98443604,-0.11871338,13.03125,7.921875,7.703125
1695306009821,-0.018798828,-1.0679321,-0.22442627,-9.0625,8.75,-6.59375
1695306009856,-0.07446289,-0.8796997,-0.0491333,-35.671875,-14.984375,9.625
1695306009903,-0.075927734,-0.8377075,-0.034240723,22.59375,34.109375,-17.875
1695306009951,-0.092285156,-1.0205688,-0.32696533,-29.375,25.25,-6.6875
1695306009983,-0.18530273,-1.1213989,0.13739014,-42.484375,-2.625,-4.140625
1695306010018,0.09057617,-0.5811157,0.10272217,1.015625,-25.515625,11.890625
1695306010047,-0.08081055,-1.0996704,-0.077941895,25.765625,1.953125,6.34375
1695306010114,-0.040771484,-0.940979,-0.11383057,16.90625,-10.046875,7.578125
1695306010152,-0.0769043,-1.0813599,-0.15753174,14.984375,-11.28125,4.203125
1695306010168,-0.0793457,-0.9446411,-0.16485596,14.9375,-7.0,5.15625
1695306010222,-0.036865234,-0.9570923,-0.18292236,17.4375,-3.21875,6.21875
1695306010262,0.020019531,-0.95562744,-0.16998291,17.125,-0.984375,1.96875
1695306010289,-0.07910156,-1.0098267,-0.18218994,5.640625,-3.390625,-0.921875
1695306010332,-0.11303711,-1.0908813,-0.15557861,-4.9375,1.890625,-7.328125
1695306010364,-0.03491211,-0.8152466,-0.12799072,13.1875,0.671875,4.046875
1695306010408,-0.07885742,-0.9446411,-0.21002197,2.6875,7.984375,-5.609375
1695306010464,-0.022460938,-0.9378052,-0.32647705,7.1875,1.03125,2.453125
1695306010483,-0.07299805,-0.9365845,-0.34429932,-1.109375,5.015625,5.15625
1695306010547,-0.0024414062,-0.97052,-0.24078369,4.875,-11.125,-11.859375
1695306010575,-0.04296875,-0.8550415,-0.26934814,19.453125,0.765625,5.90625
1695306010607,-0.024902344,-0.9805298,-0.2000122,19.140625,0.96875,6.53125
1695306010659,-0.07373047,-1.006897,-0.23052979,27.96875,2.75,11.984375
1695306010685,-0.080078125,-0.97662354,-0.30181885,29.234375,0.34375,7.71875
1695306010730,-0.095458984,-0.91900635,-0.2979126,-2.09375,-2.78125,1.015625
1695306010775,-0.033203125,-0.9475708,-0.36871338,-19.671875,-4.796875,-3.859375
1695306010797,0.016357422,-0.86602783,-0.3098755,-16.390625,1.0625,-0.046875
1695306010850,-0.0048828125,-0.940979,-0.41778564,-10.125,-2.140625,-3.5625
1695306010895,0.07104492,-0.8735962,-0.40777588,2.296875,-12.125,0.03125
1695306010918,0.0021972656,-0.90289307,-0.3887329,-6.453125,-12.203125,-2.953125
1695306010968,-0.06933594,-0.9168091,-0.29156494,-13.3125,-7.703125,-8.9375
1695306011008,-0.021484375,-0.90167236,-0.26202393,-14.6875,-2.109375,0.71875
1695306011038,0.019042969,-0.9578247,-0.33380127,-30.15625,-4.90625,-5.671875
1695306011081,-0.014160156,-0.9595337,-0.31036377,-31.21875,-2.390625,-13.171875
1695306011111,-0.0048828125,-0.8633423,-0.25836182,-33.75,-2.078125,-13.625
1695306011156,-0.0026855469,-1.0012817,-0.12896729,-19.265625,1.609375,-18.21875
1695306011201,-0.10986328,-0.98931885,-0.15142822,-31.640625,-2.640625,-16.65625
1695306011232,-0.11401367,-0.9326782,0.046569824,-26.140625,-3.796875,-15.203125
1695306011287,-0.30493164,-1.123352,0.13250732,-19.859375,-4.140625,-8.875
1695306011358,-0.0925293,-1.0044556,0.024108887,5.03125,-5.1875,-5.328125
1695306011361,-0.17578125,-1.0071411,0.06317139,-5.734375,-13.96875,-1.015625
1695306011398,-0.25512695,-0.8189087,0.0018920898,2.3125,20.265625,-8.6875
1695306011428,-0.055664062,-1.0498657,-0.09844971,10.34375,30.3125,7.703125
1695306011473,-0.19238281,-0.8464966,-0.29962158,26.390625,38.0625,3.40625
1695306011516,-0.12915039,-1.0916138,0.17962646,-46.59375,4.390625,-5.6875
1695306011548,-0.45141602,-0.9451294,0.074401855,33.78125,-6.859375,6.015625
1695306011593,-0.046875,-0.84625244,-0.029846191,29.921875,5.125,11.609375
1695306011622,-0.17700195,-1.1748657,-0.2234497,34.328125,4.171875,11.453125
1695306011682,-0.075683594,-0.88775635,-0.06500244,36.921875,-7.0625,6.40625
1695306011721,-0.14990234,-1.1157837,-0.2991333,6.90625,0.625,2.78125
1695306011741,-0.114746094,-0.98223877,-0.27374268,4.125,5.46875,0.109375
1695306011788,-0.0793457,-0.88360596,-0.21807861,-9.09375,-0.65625,-1.53125
1695306011847,-0.09667969,-0.9619751,-0.28253174,-12.171875,6.109375,-2.0
1695306011863,-0.15625,-0.9295044,-0.21099854,-1.9375,16.34375,-0.15625
1695306011910,-0.18554688,-1.1592407,-0.12896729,-52.96875,-10.0625,-20.09375
1695306011942,-0.1574707,-0.7671509,-0.12896729,-11.34375,-11.90625,-16.75
1695306011986,-0.05126953,-0.78741455,-0.06109619,5.671875,0.390625,7.6875
1695306012055,-0.1394043,-1.1047974,-0.117004395,16.484375,-2.890625,3.75
1695306012076,-0.14257812,-0.94195557,-0.1338501,21.375,-1.84375,4.1875
1695306012105,-0.17333984,-1.0471802,-0.23272705,1.875,-2.5,1.703125
1695306012149,-0.10913086,-0.9507446,-0.25054932,9.609375,-0.796875,0.6875
1695306012185,-0.12646484,-0.9248657,-0.21832275,-2.9375,2.265625,0.1875
1695306012223,-0.1628418,-1.00177,-0.21539307,-0.484375,2.28125,-4.703125
1695306012264,-0.23999023,-0.98028564,-0.22491455,-18.15625,4.84375,-7.15625
1695306012299,0.05102539,-0.9182739,-0.10015869,-43.53125,13.4375,-2.453125
1695306012359,-0.24121094,-0.8599243,0.121520996,3.65625,-11.984375,1.234375
1695306012399,-0.11206055,-0.95098877,-0.11065674,30.546875,-2.546875,8.8125
1695306012423,-0.12060547,-1.0549927,-0.24395752,35.78125,-1.6875,11.78125
1695306012468,-0.15112305,-1.029602,-0.19952393,10.671875,0.640625,3.625
1695306012505,-0.095947266,-0.96051025,-0.38653564,1.671875,3.140625,0.109375
1695306012546,-0.1340332,-0.90338135,-0.30596924,-12.234375,6.3125,-6.921875
1695306012567,-0.12768555,-1.0352173,-0.21514893,-37.640625,10.8125,0.0625
1695306012612,-0.020996094,-0.91412354,-0.04449463,-26.515625,16.46875,-4.546875
1695306012657,-0.15039062,-0.8545532,0.036071777,9.640625,-3.359375,8.984375
1695306012689,-0.13183594,-0.94854736,-0.13214111,33.734375,-0.3125,4.90625
1695306012737,-0.03491211,-1.0466919,-0.25909424,15.953125,-2.0,1.9375
1695306012763,-0.08520508,-1.0203247,-0.25054932,-1.5625,-7.34375,-4.171875
1695306012828,-0.1262207,-1.0020142,-0.23956299,-28.328125,-16.96875,-8.828125
1695306012866,-0.12695312,-0.9710083,-0.13482666,-35.046875,-20.203125,-10.34375
1695306012886,-0.14428711,-1.0015259,-0.08721924,-37.875,-19.515625,-10.96875
1695306012928,-0.17504883,-0.9517212,-0.027404785,-35.390625,-14.359375,-6.53125
1695306012972,-0.13720703,-0.92681885,-0.058654785,-14.53125,-8.265625,-2.453125
1695306013006,-0.14697266,-0.9417114,0.014343262,-3.078125,-2.5,-0.984375
1695306013056,-0.12890625,-1.0042114,-0.00982666,0.515625,-3.53125,3.375
1695306013078,-0.13500977,-0.9678345,-0.031555176,-1.265625,-1.390625,1.75
1695306013122,-0.14013672,-0.98809814,-0.02935791,2.65625,0.546875,2.859375
1695306013173,-0.16235352,-0.9854126,-0.031799316,3.1875,3.625,2.40625
1695306013200,-0.11206055,-0.9907837,-0.038879395,0.515625,1.71875,2.4375
1695306013242,-0.12817383,-0.98272705,-0.059631348,3.84375,2.421875,1.859375
1695306013298,-0.107177734,-0.97247314,-0.024475098,3.84375,5.140625,3.34375
1695306013322,-0.10961914,-1.0083618,-0.023498535,-0.09375,1.828125,2.859375
1695306013361,-0.10449219,-0.9534302,-0.06378174,5.125,6.9375,4.65625
1695306013392,-0.09838867,-1.0064087,-0.047424316,11.15625,11.84375,4.140625
1695306013442,-0.10986328,-0.9380493,-0.09649658,11.03125,15.1875,3.09375
1695306013484,-0.19213867,-0.9319458,-0.26763916,15.4375,36.375,2.734375
1695306013519,-0.32543945,-1.3130493,0.07537842,-55.578125,0.515625,-22.75
1695306013559,0.17041016,-0.5178833,-0.054992676,23.796875,2.15625,5.296875
1695306013601,-0.20800781,-0.9326782,0.046569824,12.890625,4.484375,11.4375
1695306013633,-0.07080078,-1.1394653,-0.1795044,37.125,6.640625,10.0625
1695306013681,-0.02709961,-0.97662354,-0.13824463,30.296875,-6.5,4.984375
1695306013709,-0.21313477,-1.1116333,-0.30352783,11.25,4.578125,5.59375
1695306013752,-0.15185547,-1.0557251,-0.124816895,-17.28125,-6.25,-9.9375
1695306013828,-0.022460938,-0.82696533,-0.22979736,-16.765625,0.40625,-8.46875
1695306013847,-0.072509766,-0.9368286,-0.09063721,-5.140625,-0.984375,-1.765625
1695306013873,-0.10473633,-1.0046997,-0.117004395,9.109375,0.234375,0.171875
1695306013919,-0.18041992,-1.0183716,-0.13531494,13.984375,-0.28125,2.84375
1695306013952,-0.08251953,-0.9290161,-0.2559204,-1.59375,-0.125,-3.109375
1695306013993,-0.1496582,-1.0327759,-0.14776611,-17.296875,2.09375,-1.1875
1695306014023,-0.10424805,-0.92681885,-0.09967041,-22.53125,3.765625,-2.53125
1695306014074,-0.13867188,-0.9006958,-0.03741455,5.984375,-2.953125,4.9375
1695306014113,-0.01953125,-0.9404907,-0.18829346,27.421875,0.765625,8.09375
1695306014146,-0.10058594,-1.0122681,-0.26837158,28.5,2.09375,4.84375
1695306014192,-0.10424805,-1.0440063,-0.17364502,1.359375,3.90625,-4.40625
1695306014236,-0.09887695,-0.8999634,-0.2703247,-10.921875,0.421875,-2.859375
1695306014262,-0.08935547,-1.0239868,-0.20172119,-22.953125,-0.671875,-9.953125
1695306014309,-0.14233398,-1.0855103,-0.17071533,-51.453125,0.71875,-7.734375
1695306014342,-0.06640625,-0.7620239,0.046569824,4.21875,-11.96875,-5.546875
1695306014382,-0.08105469,-0.8689575,-0.1104126,18.53125,-1.484375,10.875
1695306014429,-0.104003906,-1.1204224,-0.22564697,24.515625,1.515625,9.96875
1695306014458,-0.09008789,-0.99005127,-0.17144775,0.078125,-2.21875,2.34375
1695306014506,-0.12988281,-1.0112915,-0.14337158,-12.078125,-2.96875,0.0
1695306014553,-0.078125,-0.98516846,-0.17877197,-13.453125,-11.296875,-8.9375
1695306014576,-0.072753906,-1.0088501,-0.17266846,-25.609375,-17.984375,-12.1875
1695306014621,-0.11303711,-1.0090942,-0.09967041,-30.390625,-11.515625,-14.5625
1695306014669,-0.115234375,-0.95098877,-0.03302002,-29.9375,-3.984375,-8.9375
1695306014698,-0.1430664,-0.94415283,-0.008117676,-20.3125,-6.15625,-5.0625
1695306014748,-0.12597656,-0.9883423,0.0065307617,-9.90625,-6.75,-3.578125
1695306014790,-0.14086914,-0.96954346,0.011657715,-10.109375,-3.828125,-1.359375
1695306014848,-0.16137695,-0.9741821,0.005065918,-2.9375,-0.671875,-0.328125
1695306014874,-0.14648438,-0.975647,0.016052246,-1.484375,-1.265625,0.3125
1695306014906,-0.15771484,-0.9470825,0.051208496,-2.46875,-6.015625,2.546875
1695306014938,-0.13891602,-0.9973755,-7.9345703E-4,2.28125,-3.4375,3.6875
1695306014967,-0.12841797,-0.99786377,-0.0049438477,0.796875,-3.125,2.140625
1695306015018,-0.115722656,-1.015686,9.1552734E-4,-6.40625,-1.90625,0.078125
1695306015058,-0.12036133,-0.9944458,0.035827637,-3.671875,-2.765625,0.671875
1695306015114,-0.09301758,-0.944397,0.007507324,6.125,5.125,1.421875
1695306015138,-0.1940918,-0.9631958,-0.20123291,1.90625,18.09375,-4.890625
1695306015179,-0.21142578,-1.1726685,0.17376709,8.765625,6.328125,-23.640625
1695306015207,-0.14526367,-0.7180786,-0.0064086914,-9.171875,7.0625,1.171875
1695306015255,-0.15185547,-1.0374146,0.078063965,18.9375,4.96875,11.390625
1695306015283,-0.1303711,-1.0247192,0.0014038086,27.921875,8.90625,11.671875
1695306015330,-0.10449219,-1.0037231,-0.03375244,30.84375,1.546875,10.34375
1695306015377,-0.13110352,-1.05719,-0.11212158,16.34375,0.671875,5.515625
1695306015417,-0.088378906,-1.0671997,-0.14654541,-5.734375,-7.046875,-3.96875
1695306015446,-0.13012695,-0.99005127,-0.14923096,-34.859375,-17.375,-8.359375
1695306015503,-0.15136719,-0.96588135,-0.065979004,-26.421875,-13.328125,-8.09375
1695306015527,-0.11767578,-0.9788208,0.028259277,-21.171875,-6.796875,-0.75
1695306015567,-0.118652344,-0.9175415,0.0040893555,-12.171875,-1.984375,-1.203125
1695306015601,-0.111572266,-0.95758057,-0.010314941,-5.015625,-3.90625,-3.78125
1695306015650,-0.18188477,-0.99957275,0.032165527,2.90625,-0.4375,3.953125
1695306015688,-0.040527344,-0.9849243,0.0602417,-0.28125,-7.53125,-1.6875
1695306015727,-0.13647461,-1.0281372,0.023376465,-13.1875,-8.109375,-3.484375
1695306015762,-0.106933594,-0.92559814,-0.047424316,-6.90625,3.453125,2.890625
1695306015813,-0.15820312,-1.0159302,-0.15948486,2.5,13.78125,-1.28125
1695306015837,-0.19116211,-1.076477,0.03387451,-0.78125,-10.40625,-23.328125
1695306015885,-0.048339844,-0.7373657,0.16693115,-17.671875,27.765625,7.671875
1695306015935,-0.11450195,-1.0508423,0.17108154,13.4375,0.0,4.984375
1695306015963,-0.12109375,-1.0054321,0.07147217,14.25,6.96875,1.75
1695306016020,-0.10522461,-1.0122681,-0.0022583008,12.640625,8.46875,4.53125
1695306016033,-0.16113281,-1.0618286,0.03704834,13.25,-4.40625,1.5625
1695306016076,-0.15307617,-1.0293579,-0.014465332,-7.78125,-13.96875,3.453125
1695306016164,-0.1081543,-0.986145,-0.04937744,-16.921875,-11.890625,-0.71875
1695306016165,-0.103759766,-0.9702759,0.0036010742,-13.84375,-5.828125,0.15625
1695306016196,-0.09814453,-0.9656372,0.07196045,-5.4375,-1.484375,-0.515625
1695306016287,-0.111328125,-0.9678345,0.030700684,-3.015625,-0.8125,-0.46875
1695306016289,-0.091308594,-0.95318604,-0.027404785,0.03125,0.421875,-2.8125
1695306016318,-0.099609375,-0.9500122,0.031921387,-0.609375,6.609375,-3.109375
1695306016350,-0.21142578,-1.0462036,0.010681152,21.796875,16.125,2.609375
1695306016391,-0.12402344,-0.94976807,-0.11407471,17.0625,-2.015625,-24.28125
1695306016436,0.079589844,-0.79937744,0.097839355,-3.734375,38.734375,14.6875
1695306016478,-0.12573242,-1.0081177,0.20843506,32.46875,5.28125,12.53125
1695306016515,-0.13208008,-0.9898071,-0.14776611,20.59375,7.640625,1.53125
1695306016559,-0.11694336,-1.0339966,-0.09576416,19.859375,11.859375,8.453125
1695306016590,-0.15063477,-1.0789185,-0.08013916,6.21875,5.25,-1.0625
1695306016644,-0.1862793,-0.95928955,-0.17803955,3.46875,14.6875,5.890625
1695306016662,-0.23583984,-1.0496216,-0.08526611,-8.546875,-27.1875,-17.765625
1695306016707,-0.021484375,-0.8845825,-0.16680908,-19.125,18.953125,5.9375
1695306016751,0.0949707,-0.89068604,0.07513428,15.484375,7.859375,17.484375
1695306016781,-0.1706543,-0.94366455,-0.08795166,0.484375,0.0,-1.5
1695306016826,-0.06274414,-1.0940552,-0.09527588,24.671875,1.4375,7.34375
1695306016873,-0.09277344,-1.0078735,-0.11114502,-14.640625,-6.9375,-2.09375
1695306016902,-0.068359375,-1.0422974,-0.2366333,-11.109375,-2.203125,-12.046875
1695306016946,0.0021972656,-0.75372314,-0.0068969727,-38.09375,-2.0,-8.265625
1695306016983,-0.032470703,-0.93463135,0.15008545,6.796875,5.703125,9.78125
1695306017030,-0.10913086,-0.9429321,0.028747559,45.84375,0.40625,1.640625
1695306017069,-0.12695312,-1.0903931,-0.32965088,49.328125,3.40625,11.578125
1695306017099,-0.07055664,-1.0840454,-0.14263916,-0.453125,3.953125,-5.84375
1695306017147,-0.18945312,-1.005188,-0.18023682,-31.015625,-17.875,-11.203125
1695306017173,0.028564453,-0.86846924,-0.2498169,-19.59375,3.234375,-1.109375
1695306017221,-0.21069336,-0.9561157,-0.09674072,-20.625,2.90625,-10.53125
1695306017267,-0.16796875,-1.21344,-0.073791504,-53.578125,-2.34375,-18.453125
1695306017311,-0.2692871,-0.7114868,0.21917725,-1.015625,-25.984375,-15.09375
1695306017343,0.0014648438,-0.71661377,-0.032287598,31.5625,8.671875,15.328125
1695306017386,-0.14868164,-1.217102,-0.14898682,43.65625,2.546875,13.828125
1695306017419,-0.060058594,-1.0205688,-0.2029419,33.578125,-4.40625,11.53125
1695306017456,-0.10668945,-1.0696411,-0.19732666,0.65625,-3.9375,1.265625
1695306017488,-0.088378906,-1.0444946,-0.2156372,-25.40625,-15.078125,-14.140625
1695306017532,-0.12939453,-0.928772,-0.13092041,-49.328125,-13.34375,-16.34375
1695306017583,-0.13378906,-0.9356079,-0.054016113,-32.828125,-8.1875,-10.234375
1695306017610,-0.1628418,-0.98565674,0.019714355,-19.671875,-0.328125,-4.375
1695306017653,-0.13110352,-0.99957275,-0.02178955,-9.5,-6.578125,-3.1875
1695306017695,-0.13330078,-0.9768677,-0.010559082,-2.984375,-2.40625,-1.484375
1695306017733,-0.12695312,-0.9319458,0.019226074,1.46875,-0.140625,1.265625
1695306017772,-0.11743164,-0.9678345,0.035339355,2.578125,-1.234375,5.859375
1695306017814,-0.1015625,-0.9668579,-0.01763916,4.21875,-1.828125,5.25
1695306017848,-0.110839844,-0.9956665,-0.024230957,7.34375,0.140625,3.3125
1695306017894,-0.13012695,-0.989563,-0.045959473,6.671875,2.6875,2.109375
1695306017927,-0.13647461,-0.9714966,-0.07159424,4.046875,10.953125,3.734375
1695306017968,-0.12792969,-1.0020142,-0.06549072,16.046875,15.21875,4.078125
1695306018001,-0.07006836,-0.95147705,-0.1506958,3.046875,-20.078125,-18.0625
1695306018049,0.23876953,-0.861145,0.074645996,-12.59375,50.515625,34.421875
1695306018088,-0.19042969,-1.0310669,0.27069092,11.671875,-21.265625,-5.921875
1695306018117,-0.13134766,-0.9710083,-0.27716064,14.671875,6.65625,3.453125
1695306018163,-0.09448242,-1.0095825,-0.015197754,21.453125,1.78125,10.921875
1695306018210,-0.12963867,-1.1011353,-0.14068604,-9.28125,-6.28125,-2.21875
1695306018242,-0.12475586,-1.0464478,-0.09039307,-20.296875,-10.15625,-4.078125
1695306018281,-0.1171875,-0.96539307,-0.06011963,-30.484375,-13.1875,-4.90625
1695306018312,-0.10083008,-0.95880127,-0.043273926,-20.921875,-11.734375,-8.578125
1695306018362,-0.13745117,-0.96661377,0.010437012,-14.984375,-4.25,-3.96875
1695306018405,-0.12597656,-0.97125244,0.048034668,-4.8125,-1.90625,-0.125
1695306018451,-0.1171875,-0.942688,0.039978027,-1.984375,-0.921875,0.875
1695306018480,-0.11743164,-0.9819946,0.0072631836,-1.421875,0.109375,-0.953125
1695306018543,-0.13500977,-0.99005127,0.0099487305,2.65625,1.921875,0.015625
1695306018568,-0.13208008,-1.0076294,0.015075684,4.15625,-0.828125,1.140625
1695306018598,-0.12109375,-0.99420166,0.0018920898,-0.625,-1.8125,2.234375
1695306018644,-0.11376953,-0.9837036,-0.006164551,-2.109375,-3.890625,0.78125
1695306018675,-0.111572266,-0.9841919,0.019226074,-1.515625,-2.046875,-0.25
1695306018722,-0.11743164,-0.98394775,0.020935059,-3.0625,-0.96875,-0.21875
1695306018754,-0.1184082,-0.9932251,0.020690918,-1.3125,-2.140625,-0.296875
1695306018796,-0.111572266,-0.9944458,0.013122559,-2.265625,-1.40625,0.328125
1695306018847,-0.10058594,-0.98443604,-0.008117676,3.265625,2.515625,0.984375
1695306018868,-0.1315918,-0.987854,-0.090148926,3.765625,6.03125,-4.578125
1695306018919,-0.10668945,-0.98321533,0.11199951,-1.328125,10.421875,0.84375
1695306018947,-0.14770508,-0.99005127,-0.020324707,-6.421875,-3.578125,-7.28125
1695306018988,-0.1340332,-0.9614868,0.038513184,0.875,5.140625,3.46875
1695306019034,-0.11425781,-1.0147095,0.022888184,-1.375,1.4375,0.3125
1695306019064,-0.14135742,-1.0056763,0.032165527,0.859375,-0.78125,1.265625
1695306019115,-0.16210938,-1.0147095,0.03289795,2.109375,-3.890625,1.796875
1695306019155,-0.12426758,-1.0161743,0.0067749023,-0.65625,-6.359375,0.984375
1695306019187,-0.15478516,-0.98516846,0.0036010742,-4.984375,-6.046875,1.0625
1695306019228,-0.10449219,-0.97125244,-0.02130127,-3.96875,-5.03125,-0.46875
1695306019256,-0.115722656,-0.98101807,0.016784668,-2.8125,-3.015625,-0.578125
1695306019314,-0.10839844,-0.9907837,0.015563965,-2.625,-1.734375,1.359375
1695306019348,-0.11401367,-0.9651489,0.0033569336,-2.765625,-1.703125,0.859375
1695306019377,-0.10083008,-0.97662354,0.00579834,-1.71875,0.203125,-0.140625
1695306019423,-0.107177734,-0.9824829,-0.03302002,7.953125,9.765625,1.59375
1695306019470,-0.12792969,-1.0088501,-0.04473877,0.15625,-3.015625,-17.703125
1695306019510,-0.044433594,-0.8796997,0.10369873,-2.21875,29.890625,3.96875
1695306019548,-0.16455078,-1.0515747,0.1251831,0.671875,-7.515625,-2.625
1695306019575,-0.13378906,-0.97320557,-0.0037231445,0.8125,4.1875,0.640625
1695306019618,-0.12182617,-1.0064087,0.016296387,0.265625,-0.0625,2.078125
1695306019672,-0.16064453,-1.0234985,0.03289795,-2.53125,-3.5625,1.859375
1695306019699,-0.14697266,-1.0293579,0.019470215,-6.859375,-8.078125,2.515625
1695306019741,-0.13085938,-0.97247314,0.018493652,-6.0625,-7.015625,0.109375
1695306019807,-0.11621094,-0.9714966,0.013366699,-7.375,-5.25,-2.40625
1695306019814,-0.13867188,-0.99884033,0.038024902,0.59375,-0.28125,-0.40625
1695306019860,-0.12915039,-0.9898071,0.027770996,-1.734375,0.484375,1.765625
1695306019893,-0.13598633,-0.98394775,0.047058105,-1.5,-1.921875,1.390625
1695306019933,-0.09667969,-0.96051025,0.001159668,1.4375,-0.0625,1.0
1695306019978,-0.12597656,-0.954895,-0.07672119,14.84375,11.921875,0.609375
1695306020013,-0.1394043,-1.0252075,0.07928467,15.765625,-6.09375,-18.9375
1695306020076,0.040527344,-0.88604736,-0.038146973,-6.671875,25.78125,9.421875
1695306020103,-0.22827148,-1.0244751,0.14691162,1.890625,-11.671875,-4.0625
1695306020128,-0.14135742,-0.97491455,-0.014709473,-2.546875,2.046875,3.265625
1695306020177,-0.12182617,-1.0056763,-0.012756348,1.921875,1.109375,4.703125
1695306020202,-0.13745117,-1.0374146,-6.1035156E-5,-11.28125,-2.015625,-2.078125
1695306020261,-0.15063477,-1.008606,0.02923584,-11.015625,-4.78125,-0.640625
1695306020306,-0.12597656,-0.9024048,-0.003967285,2.65625,-2.75,-2.96875
1695306020323,-0.14208984,-1.0283813,0.04534912,-2.4375,0.734375,-0.625
1695306020367,-0.123046875,-0.9793091,0.0067749023,-0.234375,-0.21875,0.15625
1695306020414,-0.13745117,-0.9990845,0.043151855,-0.03125,-0.953125,0.125
1695306020445,-0.14086914,-0.98101807,0.04046631,2.28125,2.421875,0.03125
1695306020488,-0.14477539,-0.96759033,0.0053100586,-4.5,2.671875,-0.703125
1695306020531,-0.16674805,-0.9456177,-0.09136963,14.15625,19.421875,4.328125
1695306020564,-0.24511719,-1.069397,0.035583496,2.78125,-21.140625,-24.40625
1695306020610,-0.061767578,-0.79766846,-0.10455322,2.046875,25.53125,-3.734375
1695306020642,-0.087646484,-0.90289307,0.23675537,8.140625,0.34375,16.296875
1695306020693,-0.14501953,-1.1028442,-0.023498535,5.78125,-0.296875,-0.84375
1695306020729,-0.118652344,-0.95635986,-0.089904785,11.515625,1.1875,5.71875
1695306020764,-0.15332031,-1.1055298,0.06854248,-11.109375,-7.875,-3.734375
1695306020811,-0.17553711,-0.9949341,-0.05670166,-16.40625,-10.8125,-3.03125
1695306020841,-0.110839844,-0.9053345,0.011657715,-7.328125,-10.046875,-8.046875
1695306020880,-0.16845703,-1.0115356,0.0079956055,-4.75,-5.28125,-1.4375
1695306020929,-0.1352539,-0.97052,0.010681152,1.3125,-0.828125,3.15625
1695306020955,-0.1508789,-0.9702759,0.0045776367,2.484375,3.828125,-0.734375
1695306021020,-0.13427734,-0.9661255,-0.085510254,4.6875,16.34375,2.9375
1695306021089,-0.23486328,-0.9973755,0.070495605,9.65625,-4.84375,-10.390625
1695306021090,-0.047851562,-0.93341064,-0.04864502,-8.3125,22.28125,3.625
1695306021125,-0.14379883,-1.0012817,0.06903076,10.328125,-0.125,4.0625
1695306021152,-0.16870117,-0.99786377,0.022155762,4.421875,3.75,2.203125
1695306021196,-0.11352539,-1.019104,-0.042053223,1.484375,2.421875,4.171875
1695306021254,-0.16870117,-0.9505005,-0.10748291,9.421875,1.5,-1.953125
1695306021277,-0.15893555,-1.0183716,0.06707764,-3.9375,4.671875,2.34375
1695306021326,-0.12548828,-0.9456177,-0.030578613,-6.703125,-1.5,-5.359375
1695306021357,-0.1538086,-0.9807739,-0.039611816,2.109375,3.46875,0.984375
1695306021392,-0.11791992,-1.0281372,0.0026245117,4.125,3.71875,4.1875
1695306021436,-0.13110352,-0.9990845,-0.008850098,-0.375,-2.34375,2.171875
1695306021462,-0.14013672,-0.973938,-0.027404785,-2.875,-2.375,0.046875
1695306021516,-0.12646484,-0.9783325,-0.0051879883,-6.921875,-3.078125,-2.828125
1695306021555,-0.12792969,-0.99835205,-0.039123535,-1.40625,-1.953125,-0.859375
1695306021585,-0.15429688,-0.98638916,-0.011291504,1.53125,0.28125,-0.703125
1695306021643,-0.1328125,-0.98223877,-0.007873535,1.734375,4.25,1.65625
1695306021672,-0.15234375,-0.97784424,-0.0491333,2.75,1.59375,0.671875
1695306021706,-0.16186523,-1.0278931,0.005554199,-4.078125,-6.5,-3.484375
1695306021762,-0.1508789,-0.9890747,-0.09674072,-5.46875,5.03125,7.9375
1695306021777,-0.01586914,-0.9956665,0.08831787,-11.53125,3.953125,4.625
1695306021822,-0.17382812,-0.8723755,-0.02130127,5.21875,0.546875,1.78125
1695306021870,-0.068603516,-1.0332642,0.031677246,-0.453125,3.25,2.5625
1695306021898,-0.07543945,-0.9812622,-0.043029785,7.765625,5.578125,3.40625
1695306021943,-0.12719727,-1.0598755,0.008483887,-5.03125,-4.28125,-5.859375
1695306022007,-0.15429688,-0.9505005,-0.08428955,3.09375,4.90625,1.015625
1695306022018,-0.13256836,-1.0413208,-0.053527832,2.421875,-5.46875,-8.984375
1695306022066,-0.07373047,-0.88067627,0.008239746,-10.96875,7.59375,-3.421875
1695306022091,-0.08129883,-0.9014282,0.06414795,0.765625,0.203125,4.78125
1695306022139,-0.10839844,-1.0213013,0.038513184,16.40625,2.453125,1.125
1695306022183,-0.14648438,-1.0278931,-0.16802979,5.546875,4.5625,3.703125
1695306022221,-0.122558594,-1.0706177,0.030700684,0.421875,4.484375,1.875
1695306022257,-0.16625977,-0.97857666,-0.07623291,-4.703125,-3.875,0.546875
1695306022307,-0.1015625,-0.925354,-0.12799072,-5.765625,-3.734375,-0.125
1695306022332,-0.18115234,-1.1548462,0.02532959,-39.453125,-11.25,-13.671875
1695306022378,-0.1821289,-0.7920532,0.07147217,14.921875,-0.40625,-6.890625
1695306022412,-0.024658203,-0.9036255,0.036315918,5.765625,1.28125,7.234375
1695306022466,-0.119628906,-1.1240845,-0.101379395,19.59375,9.40625,-0.140625
1695306022501,-0.14648438,-1.0147095,0.04168701,2.09375,-2.234375,2.359375
1695306022527,-0.17895508,-1.0166626,-0.11920166,-6.578125,0.625,0.359375
1695306022573,-0.12670898,-0.97784424,-0.010803223,0.875,-2.375,0.4375
1695306022605,-0.15161133,-0.95635986,-0.054748535,-5.34375,-1.234375,-2.0
1695306022651,-0.12646484,-0.9758911,-0.0178833,1.53125,-0.59375,-2.125
1695306022695,-0.22167969,-1.0005493,-0.15045166,-7.828125,-7.59375,-8.234375
1695306022730,-0.0036621094,-1.0679321,0.1630249,-20.328125,-0.75,2.09375
1695306022770,-0.22070312,-0.7727661,0.04071045,13.6875,-28.0,-7.203125
1695306022816,-0.08520508,-1.0757446,0.062438965,2.3125,6.234375,7.34375
1695306022859,-0.14770508,-1.1795044,-0.19586182,16.1875,8.359375,7.453125
1695306022896,-0.08520508,-0.95806885,-6.1035156E-5,3.84375,6.71875,1.078125
1695306022918,-0.17871094,-1.0100708,-0.055725098,-19.125,-5.828125,-4.046875
1695306022968,-0.10058594,-0.95513916,-0.07208252,-12.03125,-10.171875,-7.59375
1695306023011,-0.13720703,-0.9834595,0.059509277,-23.28125,-7.84375,-9.03125
1695306023046,-0.18969727,-1.0205688,0.059753418,-12.9375,-7.46875,-3.90625
1695306023086,-0.15576172,-0.96295166,0.034851074,-8.15625,-6.171875,1.15625
1695306023131,-0.14135742,-0.93829346,0.04925537,-7.71875,-5.875,2.40625
1695306023165,-0.13476562,-0.9668579,0.06561279,-4.234375,-3.484375,2.828125
1695306023205,-0.09790039,-0.9697876,0.013366699,5.9375,-0.234375,3.4375
1695306023232,-0.14013672,-1.0037231,0.042907715,3.828125,1.390625,1.265625
1695306023297,-0.11279297,-0.956604,-0.015197754,4.453125,6.578125,1.828125
1695306023322,-0.15454102,-1.0349731,0.0602417,1.734375,2.59375,-1.84375
1695306023367,-0.13842773,-0.9768677,0.04071045,0.1875,5.484375,0.578125
1695306023409,-0.09301758,-0.94732666,-0.039367676,12.1875,2.5625,-4.96875
1695306023443,-0.14208984,-1.0288696,-0.054016113,5.390625,14.96875,-0.484375
1695306023485,0.0021972656,-0.9138794,0.10076904,-4.34375,22.296875,1.421875
1695306023520,-0.16601562,-0.97442627,0.12640381,13.15625,1.1875,9.28125
1695306023547,-0.10424805,-0.9990845,0.023620605,19.453125,10.609375,4.578125
1695306023596,-0.091552734,-0.972229,-0.09844971,24.765625,7.671875,8.609375
1695306023653,-0.114746094,-1.1084595,-0.009338379,3.234375,-0.28125,-2.3125
1695306023668,-0.10864258,-0.94659424,-0.11260986,-6.078125,-1.65625,-1.921875
1695306023719,-0.08911133,-0.92681885,-0.21270752,2.71875,6.296875,-3.1875
1695306023762,-0.12695312,-1.1243286,0.12640381,-15.453125,9.9375,4.9375
1695306023795,-0.1484375,-0.9495239,0.057556152,-3.296875,-9.0625,-4.828125
1695306023835,-0.12792969,-0.8670044,-0.030334473,13.796875,1.421875,1.671875
1695306023866,-0.064941406,-0.9890747,-0.038391113,26.046875,4.75,8.078125
1695306023923,-0.09765625,-1.092102,-0.20928955,11.265625,-4.609375,-2.96875
1695306023952,-0.10546875,-0.958313,-0.18121338,-2.078125,3.359375,-2.984375
1695306023983,-0.14672852,-0.9981079,-0.09259033,-4.96875,0.796875,-2.140625
1695306024036,-0.15893555,-0.98272705,-0.10406494,-9.3125,-5.53125,-7.0625
1695306024073,-0.16455078,-1.0579224,-0.16143799,-32.15625,1.1875,-3.34375
1695306024126,-0.12670898,-0.8423462,0.07269287,0.03125,-0.1875,-3.34375
1695306024150,-0.064208984,-0.923645,0.006286621,16.9375,0.640625,12.3125
1695306024178,-0.08227539,-1.0762329,-0.08477783,20.140625,0.625,6.546875
1695306024230,-0.12426758,-1.0464478,-0.17266846,-5.359375,-1.703125,-1.03125
1695306024269,-0.14916992,-0.9378052,-0.1350708,1.734375,6.515625,-3.703125
1695306024312,-0.111572266,-0.97076416,-0.2263794,-6.671875,4.28125,1.390625
1695306024343,-0.025146484,-0.9854126,0.11785889,-20.203125,11.796875,-1.65625
1695306024389,-0.08227539,-0.86846924,-0.01739502,7.796875,-3.8125,6.21875
1695306024418,-0.095214844,-0.91778564,-0.009094238,20.90625,-1.078125,3.984375
1695306024475,-0.08300781,-1.2202759,-0.16217041,0.90625,-0.03125,-1.734375
1695306024510,-0.16210938,-0.9116821,-0.17852783,4.703125,-0.5625,0.171875
1695306024560,-0.026123047,-1.0281372,-0.09942627,-31.796875,6.171875,-6.109375
1695306024598,-0.18432617,-0.84161377,0.016784668,9.09375,-7.375,-0.421875
1695306024629,-0.10498047,-0.9729614,-0.08868408,3.171875,-0.96875,6.25
1695306024658,-0.0625,-1.0618286,-0.117004395,14.6875,0.71875,4.9375
1695306024702,-0.0859375,-1.0076294,-0.08062744,-10.546875,-1.234375,-1.15625
1695306024734,-0.06567383,-0.93951416,-0.13189697,-9.65625,-8.0625,-8.28125
1695306024779,-0.09033203,-1.022522,-0.08502197,-8.84375,-9.625,-11.265625
1695306024831,-0.12719727,-0.9837036,-0.01763916,-8.3125,-7.25,-9.734375
1695306024864,-0.1381836,-1.0088501,-0.026672363,-2.046875,-3.75,-3.890625
1695306024898,-0.14111328,-0.99884033,-0.06842041,-14.703125,-6.953125,-0.8125
1695306024929,-0.15673828,-0.9678345,-0.06427002,-9.921875,-8.078125,-3.125
1695306024979,-0.1381836,-0.97735596,-0.025939941,-13.484375,-2.5,0.140625
1695306025025,-0.12792969,-0.9570923,-0.042541504,-5.8125,-2.625,-0.3125
1695306025048,-0.15332031,-0.9915161,-0.01373291,-0.140625,-0.203125,0.390625
1695306025096,-0.12109375,-0.9690552,-0.050842285,1.625,-0.71875,3.96875
1695306025123,-0.13964844,-0.9812622,-0.0032348633,0.09375,-2.609375,-0.109375
1695306025170,-0.11010742,-0.98443604,-0.019592285,3.46875,-0.984375,0.734375
1695306025218,-0.091552734,-1.0005493,-0.047424316,-1.609375,0.8125,-0.34375
1695306025245,-0.125,-0.96295166,-0.05279541,3.234375,7.484375,3.359375
1695306025290,-0.16894531,-0.94781494,-0.19073486,4.453125,23.546875,3.453125
1695306025335,-0.27441406,-1.1919556,0.13323975,1.203125,-21.359375,-29.40625
1695306025362,-0.07788086,-0.6826782,-0.117004395,-5.65625,19.390625,-2.625
1695306025412,-0.061523438,-0.9649048,0.199646,6.15625,0.6875,12.5
1695306025437,-0.140625,-1.1060181,-0.0635376,14.34375,3.96875,3.328125
1695306025487,-0.07788086,-0.93096924,-0.13311768,23.828125,2.375,11.90625
1695306025527,-0.1328125,-1.0977173,-0.1026001,-9.0625,0.796875,-2.53125
1695306025558,-0.13696289,-0.9963989,-0.10430908,-3.453125,0.703125,-3.3125
1695306025604,-0.10229492,-0.85772705,-0.11578369,-4.375,-1.609375,-5.171875
1695306025652,-0.24291992,-1.1765747,-0.10406494,-21.5,-4.640625,-15.140625
1695306025679,-0.060546875,-0.72979736,-0.043273926,1.0625,16.828125,-2.671875
1695306025722,-0.04638672,-0.928772,0.1552124,16.96875,-0.21875,15.296875
1695306025770,-0.12841797,-1.0713501,-0.09844971,23.734375,3.65625,4.90625
1695306025799,-0.07299805,-1.0015259,-0.23394775,21.296875,4.59375,6.8125
1695306025841,-0.14624023,-1.0791626,-0.043762207,-16.125,-4.609375,-6.25
1695306025872,-0.14233398,-0.94976807,-0.14630127,-22.1875,-8.140625,-5.578125
1695306025935,-0.12426758,-0.9990845,-0.018615723,-14.046875,-2.25,-7.390625
1695306025998,-0.18115234,-0.93634033,-0.07501221,-8.828125,1.59375,1.6875
1695306026001,-0.16601562,-0.89508057,-0.19342041,16.34375,17.125,1.828125
1695306026038,-0.15332031,-1.2876587,0.17596436,-17.4375,-2.953125,-13.859375
1695306026078,-0.19921875,-0.7078247,-0.14215088,3.578125,-4.5,-10.203125
1695306026115,-0.06689453,-0.87823486,0.101989746,15.28125,3.8125,10.21875
1695306026159,-0.095214844,-1.1777954,-0.08746338,5.296875,-3.578125,0.703125
1695306026193,-0.27246094,-1.0020142,-0.10723877,27.0,0.015625,9.09375
1695306026236,-0.07763672,-1.0383911,-0.09454346,-6.828125,-3.71875,2.453125
1695306026286,-0.10522461,-0.9429321,-0.17706299,-4.609375,-1.625,-1.921875
1695306026309,-0.1015625,-0.9668579,-0.06109619,-16.328125,-2.3125,-1.484375
1695306026357,-0.1081543,-0.94781494,-0.13848877,-6.953125,2.671875,-4.8125
1695306026381,-0.13378906,-0.95684814,-0.13726807,-0.328125,9.5625,-12.734375
1695306026438,-0.08862305,-1.0466919,0.0770874,-33.59375,3.046875,-7.84375
1695306026472,-0.26464844,-0.79693604,0.1671753,10.265625,-14.4375,0.234375
1695306026504,-0.05834961,-1.0708618,-0.13604736,19.140625,3.4375,12.71875
1695306026548,-0.10668945,-1.0039673,-0.15484619,30.8125,-0.859375,9.890625
1695306026599,-0.1315918,-1.0808716,-0.18463135,-5.640625,-1.3125,1.15625
1695306026641,-0.14404297,-1.019104,-0.16192627,-14.109375,-4.734375,-9.171875
1695306026668,-0.12133789,-0.8735962,-0.11968994,-13.5,-1.125,-4.65625
1695306026700,-0.16918945,-0.9631958,-0.18243408,-12.59375,4.5625,-5.0
1695306026744,-0.18481445,-1.178772,0.03289795,-30.75,-6.703125,-12.421875
1695306026799,-0.1730957,-0.7373657,-0.094055176,11.15625,10.0625,-3.609375
1695306026821,0.035888672,-0.87164307,0.1408081,16.78125,4.546875,10.453125
1695306026864,-0.10986328,-1.1167603,-0.11090088,20.4375,2.65625,3.296875
1695306026907,-0.1274414,-0.9968872,-0.14215088,21.65625,1.859375,9.53125
1695306026943,-0.14990234,-1.0818481,-0.13677979,-4.03125,0.859375,2.03125
1695306026988,-0.17602539,-0.89190674,-0.20709229,-3.8125,-1.46875,-5.046875
1695306027013,-0.19799805,-0.9624634,-0.20098877,-16.46875,6.109375,-2.046875
1695306027058,-0.043701172,-1.0405884,0.19476318,-24.359375,6.890625,-0.9375
1695306027106,-0.22875977,-0.803772,0.098083496,7.296875,-11.578125,3.4375
1695306027135,-0.07373047,-1.0022583,-0.1831665,12.4375,3.40625,8.875
1695306027191,-0.0390625,-0.97320557,-0.082092285,28.125,0.53125,14.640625
1695306027224,-0.03881836,-1.0796509,-0.1675415,0.96875,-0.734375,-0.125
1695306027252,-0.030273438,-1.0369263,-0.11529541,-9.515625,-5.140625,-8.796875
1695306027302,-0.103759766,-0.9898071,-0.11846924,-24.421875,-15.6875,-16.609375
1695306027328,-0.13989258,-1.006897,-0.06890869,-28.09375,-11.609375,-15.875
1695306027372,-0.17163086,-0.9487915,-0.0178833,-20.578125,-6.34375,-10.421875
1695306027440,-0.15600586,-0.9522095,-0.051330566,-6.625,-2.953125,-4.578125
1695306027457,-0.1796875,-0.9417114,-0.04498291,-1.5625,-0.515625,-1.0
1695306027495,-0.1628418,-0.9546509,-0.054260254,4.875,3.859375,0.171875
1695306027523,-0.18261719,-0.9417114,-0.066467285,11.75,5.046875,2.71875
1695306027567,-0.12719727,-0.97247314,-0.08404541,8.5,9.09375,4.0
1695306027647,-0.15917969,-1.0386353,-0.018615723,5.765625,5.34375,2.734375
1695306027657,-0.1586914,-1.0064087,-0.0134887695,10.125,-0.234375,8.625
1695306027692,-0.13647461,-0.9758911,-0.09063721,10.046875,-1.140625,9.171875
1695306027747,-0.12207031,-0.9690552,-0.16558838,10.828125,5.921875,7.5625
1695306027769,-0.12207031,-0.87677,-0.27838135,26.28125,39.34375,15.859375
1695306027808,-0.23120117,-1.2219849,0.020202637,-24.234375,-12.03125,-23.203125
1695306027841,-0.020507812,-0.7439575,-0.038391113,-15.125,-0.796875,-14.3125
1695306027908,-0.0063476562,-0.7954712,-0.00982666,16.71875,0.953125,9.703125
1695306027930,-0.1081543,-1.0894165,-0.14801025,20.859375,-1.046875,0.59375
1695306027956,-0.088134766,-0.99298096,-0.23321533,11.453125,-8.453125,-0.375
1695306028005,-0.15844727,-1.0471802,-0.16607666,-5.046875,-8.515625,-1.34375
1695306028051,-0.21606445,-1.0442505,-0.16339111,-1.53125,-4.546875,-1.578125
1695306028084,-0.1628418,-0.85528564,-0.2185669,-4.15625,6.984375,0.75
1695306028125,-0.26171875,-1.1377563,-0.14385986,-33.828125,-3.859375,-11.34375
1695306028168,-0.045898438,-0.79766846,-0.10089111,-4.59375,5.171875,-9.625
1695306028196,-0.005859375,-0.80352783,-0.0056762695,9.796875,0.359375,10.203125
1695306028245,-0.13452148,-1.0527954,-0.09259033,15.953125,1.171875,3.65625
1695306028288,-0.07324219,-0.989563,-0.16363525,18.8125,-4.765625,5.71875
1695306028320,-0.12524414,-1.0361938,-0.18096924,3.6875,-0.21875,4.0625
1695306028365,-0.08935547,-0.9920044,-0.21343994,-6.046875,-3.84375,-3.90625
1695306028414,-0.12915039,-0.9663696,-0.14263916,-9.359375,0.203125,-2.953125
1695306028437,-0.123535156,-0.9561157,-0.13873291,-6.125,1.9375,-2.734375
1695306028473,-0.13305664,-0.9817505,-0.17437744,-2.625,6.09375,-1.671875
1695306028516,-0.19042969,-1.0584106,-0.1885376,-45.3125,-11.796875,-15.046875
1695306028560,-0.09716797,-0.8623657,-0.012512207,-11.640625,-1.359375,-17.421875
1695306028589,-0.02734375,-0.77301025,-0.02960205,21.90625,3.703125,12.078125
1695306028632,-0.12817383,-1.0942993,-0.04840088,7.4375,-8.625,2.203125
1695306028683,-0.15722656,-0.98150635,-0.0881958,11.03125,-3.828125,8.96875
1695306028707,-0.19189453,-1.0200806,-0.16119385,13.609375,0.21875,5.109375
1695306028752,-0.109375,-1.0010376,-0.16998291,3.1875,-0.5,-0.0625
1695306028787,-0.13354492,-0.9529419,-0.17120361,-3.796875,5.28125,0.0625
1695306028827,-0.11010742,-0.9299927,-0.2678833,-3.640625,10.734375,0.890625
1695306028873,-0.18408203,-1.3101196,-0.037902832,-62.3125,-17.125,-22.625
1695306028919,-0.24951172,-0.7078247,-0.02178955,2.703125,-1.0625,-12.234375
1695306028946,0.05078125,-0.8362427,-0.0015258789,10.609375,0.8125,14.921875
1695306028999,-0.14208984,-1.1436157,-0.069885254,15.9375,-4.109375,1.609375
1695306029023,-0.10498047,-0.9717407,-0.093566895,11.703125,-9.625,7.8125
1695306029069,-0.14819336,-1.0322876,-0.12774658,-3.3125,-5.109375,1.265625
1695306029107,-0.1381836,-1.0020142,-0.16802979,-4.765625,-10.265625,-6.421875
1695306029145,-0.12646484,-0.9883423,-0.101379395,-16.984375,-8.71875,-7.296875
1695306029191,-0.1303711,-0.98150635,-0.086242676,-21.421875,-5.9375,-7.421875
1695306029222,-0.13720703,-0.96051025,-0.045715332,-16.515625,-4.09375,-3.625
1695306029262,-0.12939453,-0.96417236,-0.030334473,-10.0,-4.125,-1.296875
1695306029318,-0.12817383,-0.97369385,-0.0256958,-6.09375,-1.6875,0.21875
1695306029347,-0.14453125,-0.96710205,-0.0068969727,-8.5,-1.125,-1.03125
1695306029385,-0.12548828,-1.0046997,0.003112793,-5.203125,-1.4375,-2.15625
1695306029428,-0.11328125,-0.97540283,-0.016418457,-1.984375,-0.375,0.96875
1695306029457,-0.1340332,-0.96954346,0.016296387,0.21875,-0.484375,0.640625
1695306029504,-0.1586914,-0.9866333,0.0038452148,-0.75,-0.21875,2.015625
1695306029536,-0.13891602,-0.99224854,-0.01763916,-0.828125,-3.6875,1.6875
1695306029578,-0.11621094,-0.9819946,-0.020568848,-0.375,-5.03125,2.359375
1695306029627,-0.13330078,-1.0098267,0.012145996,-3.8125,-2.484375,2.296875
1695306029654,-0.1081543,-0.98028564,0.0053100586,-1.046875,-1.109375,0.984375
1695306029716,-0.11328125,-0.9817505,0.003112793,-3.15625,-0.875,0.96875
1695306029730,-0.11645508,-0.9951782,0.024108887,-2.203125,-2.484375,1.0625
1695306029775,-0.111328125,-0.9902954,0.012145996,-3.0,-3.828125,1.609375
1695306029816,-0.111328125,-0.9885864,0.019958496,-1.578125,-5.28125,2.046875
1695306029852,-0.111328125,-0.9944458,0.014099121,-4.21875,-5.5,1.703125
1695306029898,-0.10546875,-0.99053955,0.0048217773,-4.640625,-3.53125,1.0
1695306029937,-0.10864258,-0.9793091,0.014587402,-3.84375,-3.078125,1.0625
1695306029967,-0.100097656,-0.99005127,0.015319824,-1.21875,-1.609375,0.25
1695306030011,-0.10473633,-0.9817505,0.008239746,5.34375,2.21875,1.90625
1695306030042,-0.088378906,-0.98394775,0.022399902,6.0625,2.90625,2.296875
1695306030110,-0.104003906,-1.0010376,0.010437012,6.375,4.359375,2.296875
1695306030132,-0.07861328,-0.944397,0.0040893555,14.625,5.75,4.1875
1695306030168,-0.08691406,-0.99713135,-0.034240723,9.125,8.171875,1.796875
1695306030211,-0.0925293,-1.0210571,-0.035949707,9.859375,9.0,0.765625
1695306030267,-0.072509766,-0.98443604,-0.0947876,7.359375,12.96875,2.90625
1695306030290,-0.09692383,-0.975647,-0.039367676,16.578125,13.34375,1.90625
1695306030327,-0.091552734,-0.98223877,-0.10723877,12.21875,9.28125,3.03125
1695306030362,-0.091308594,-0.97979736,-0.12799072,19.1875,15.421875,1.9375
1695306030405,-0.119140625,-1.0056763,-0.059387207,11.796875,8.703125,1.65625
1695306030448,-0.041259766,-0.9631958,-0.1741333,11.453125,9.109375,2.890625
1695306030482,-0.091552734,-0.9595337,-0.15899658,4.765625,6.828125,0.109375
1695306030524,-0.08496094,-0.9944458,-0.15435791,6.421875,6.625,-0.609375
1695306030570,-0.10107422,-0.9624634,-0.16827393,3.5625,5.328125,0.03125
1695306030603,-0.07543945,-0.96881104,-0.2000122,2.34375,7.96875,0.390625
1695306030644,-0.10522461,-0.95513916,-0.1807251,2.0625,6.46875,0.953125
1695306030674,-0.091308594,-0.95684814,-0.24468994,-5.828125,8.109375,2.015625
1695306030745,-0.24682617,-1.1387329,-0.04937744,-87.703125,9.703125,-13.375
1695306030761,-0.045166016,-0.8010864,0.059509277,4.984375,2.65625,8.546875
1695306030803,0.036132812,-0.92852783,-0.07305908,8.3125,-3.03125,4.03125
1695306030847,-0.088134766,-0.92755127,-0.038879395,20.75,-7.796875,-2.625
1695306030911,0.03125,-0.972229,-0.1116333,18.0625,-3.25,6.515625
1695306030913,-0.040039062,-1.1184692,-0.29400635,13.21875,-0.15625,1.375
1695306030958,-0.14453125,-0.928772,-0.16143799,9.90625,-0.390625,-3.4375
1695306031018,-0.07055664,-0.954895,-0.21246338,-0.0625,-1.640625,-4.03125
1695306031041,-0.12670898,-0.9507446,-0.19342041,-3.375,-4.203125,-7.1875
1695306031078,-0.111328125,-1.000061,-0.19683838,-5.6875,-3.0625,-3.15625
1695306031108,-0.16357422,-1.0176392,-0.1765747,-3.890625,-3.703125,0.359375
1695306031158,-0.059814453,-0.9500122,-0.17388916,-4.328125,-1.46875,-1.59375
1695306031200,-0.08935547,-0.9859009,-0.16705322,-5.875,1.125,-8.203125
1695306031232,0.0012207031,-0.94537354,-0.17364502,-7.703125,-2.578125,-9.703125
1695306031272,-0.22167969,-0.927063,-0.07550049,-8.53125,-7.453125,-10.234375
1695306031311,-0.11791992,-1.0064087,-0.17388916,-6.78125,-3.140625,-2.34375
1695306031362,-0.12451172,-0.9553833,-0.12042236,-1.15625,-3.296875,2.359375
1695306031392,-0.1616211,-0.9812622,-0.07525635,-6.96875,3.171875,1.625
1695306031438,-0.15429688,-1.0999146,-0.14971924,-17.0,15.015625,6.25
1695306031469,0.044433594,-0.94073486,-0.010314941,-13.890625,-13.828125,0.375
1695306031546,-0.19506836,-0.8279419,-0.1609497,22.640625,-11.078125,15.140625
1695306031548,-0.036132812,-0.81085205,0.0758667,24.15625,-10.4375,3.234375
1695306031601,-0.04345703,-1.1824341,-0.29718018,21.921875,-10.375,6.171875
1695306031629,-0.019042969,-0.9668579,-0.21173096,17.671875,-3.578125,11.375
1695306031661,-0.09790039,-0.98883057,-0.22467041,12.6875,-2.515625,-1.84375
1695306031707,-0.019042969,-0.93927,-0.19464111,11.65625,-1.765625,4.4375
1695306031740,-0.1496582,-0.9776001,-0.19830322,12.703125,1.078125,4.21875
1695306031793,-0.040527344,-0.8845825,-0.19903564,8.71875,0.984375,3.171875
1695306031833,-0.10083008,-0.9468384,-0.28985596,7.359375,-0.296875,6.703125
1695306031861,-0.016113281,-0.91778564,-0.4126587,12.515625,-0.390625,4.171875
1695306031908,0.01586914,-0.9746704,-0.36383057,11.203125,-0.171875,5.984375
1695306031935,-0.084228516,-0.8377075,-0.32989502,16.078125,-12.0625,6.3125
1695306031992,0.024414062,-0.84869385,-0.2234497,23.46875,-7.109375,9.0
1695306032021,0.011474609,-0.9746704,-0.3880005,19.71875,-3.40625,8.9375
1695306032051,0.018554688,-1.0361938,-0.32720947,20.5625,-8.265625,6.109375
1695306032110,0.011230469,-0.8599243,-0.4036255,16.890625,-2.96875,8.765625
1695306032144,0.07080078,-0.8635864,-0.43170166,6.4375,6.21875,-0.546875
1695306032171,-0.039794922,-0.90216064,-0.35845947,2.125,2.15625,-1.921875
1695306032217,0.009765625,-0.6880493,-0.53619385,-0.875,-1.109375,8.546875
1695306032258,0.23828125,-0.68170166,-0.7229614,13.78125,6.796875,3.28125
1695306032294,0.1081543,-0.8167114,-0.647522,16.296875,30.359375,28.765625
1695306032355,-0.060546875,-0.7842407,-0.43389893,-9.859375,5.890625,5.921875
1695306032377,0.14916992,-0.9299927,-0.30841064,1.140625,4.78125,-2.46875
1695306032415,9.765625E-4,-0.88604736,-0.40264893,-9.6875,-3.171875,-3.0625
1695306032443,0.061523438,-0.8496704,-0.5388794,-7.671875,-3.3125,-5.359375
1695306032492,0.07836914,-0.86602783,-0.50128174,-18.359375,-1.296875,-8.796875
1695306032540,0.095703125,-0.79644775,-0.47833252,-15.90625,1.671875,-9.828125
1695306032564,0.040527344,-0.8855591,-0.4446411,-17.984375,-0.8125,-9.984375
1695306032615,-0.010498047,-0.86138916,-0.39508057,-21.140625,3.015625,-13.640625
1695306032656,-0.012207031,-0.8701782,-0.35894775,-21.328125,8.34375,-13.40625
1695306032682,0.016601562,-0.9612427,-0.3369751,-30.109375,7.765625,-16.703125
1695306032746,-0.005859375,-0.8977661,-0.39923096,-37.078125,8.5625,-21.21875
1695306032762,-0.041503906,-0.8723755,-0.2962036,-31.9375,5.578125,-18.921875
1695306032818,-0.0390625,-0.8772583,-0.34454346,-74.578125,-3.34375,-35.609375
1695306032847,-0.3647461,-1.3286743,0.18792725,-68.390625,-41.671875,-12.140625
1695306032882,-0.33642578,-0.6721802,0.449646,-0.015625,13.734375,26.625
1695306032923,-0.22021484,-1.0081177,0.21575928,-17.796875,25.59375,-17.296875
1695306032968,0.08496094,-1.0877075,-0.19415283,54.875,30.703125,8.59375
1695306033012,-0.13916016,-0.76641846,-0.14361572,28.453125,7.4375,10.59375
1695306033041,-0.14111328,-1.0498657,-0.12530518,8.890625,-7.40625,-1.171875
1695306033076,-0.18310547,-1.1472778,-0.20050049,-10.765625,-23.453125,-3.375
1695306033122,-0.13085938,-1.0454712,-0.13775635,-41.859375,-35.0,-7.546875
1695306033171,-0.14428711,-0.9360962,-0.0869751,-27.96875,-17.875,-8.5625
1695306033208,-0.115478516,-0.9126587,-0.019836426,-19.96875,-11.0,-4.4375
1695306033237,-0.15625,-0.9729614,-0.0056762695,-7.890625,-1.609375,-0.5
1695306033288,-0.14428711,-0.9573364,0.008239746,-7.03125,-3.0625,-2.015625
1695306033314,-0.13452148,-0.9780884,0.007019043,-2.46875,-2.59375,-0.46875
1695306033360,-0.12207031,-0.98638916,-0.0115356445,0.625,0.6875,0.984375
1695306033390,-0.14697266,-1.0110474,-0.0032348633,0.25,5.4375,-0.28125
1695306033433,-0.16918945,-0.9727173,0.03704834,-0.046875,7.15625,0.8125
1695306033477,-0.16772461,-0.9685669,0.007751465,4.375,5.453125,3.28125
1695306033512,-0.12988281,-0.98443604,-0.046691895,11.859375,4.84375,4.0
1695306033573,-0.15942383,-0.9067993,-0.206604,26.84375,26.796875,4.65625
1695306033599,-0.13598633,-1.1992798,0.12786865,11.75,-10.828125,-30.390625
1695306033630,-2.4414062E-4,-0.68536377,-0.09893799,-5.53125,21.84375,3.46875
1695306033680,-0.13378906,-1.0847778,0.09295654,6.59375,-3.59375,7.25
1695306033702,-0.16113281,-1.0122681,-0.11016846,8.78125,1.640625,1.6875
1695306033776,-0.13134766,-1.0176392,-0.030822754,-3.1875,-4.265625,4.140625
1695306033793,-0.16333008,-1.0271606,-0.05255127,-11.578125,-8.140625,1.109375
1695306033823,-0.14624023,-1.0496216,-0.02935791,-19.015625,-14.828125,-2.078125
1695306033887,-0.17260742,-0.9717407,-0.04864502,-23.390625,-12.09375,-3.890625
1695306033913,-0.12939453,-0.9331665,-0.038391113,-13.25,-12.703125,-6.390625
1695306033944,-0.15283203,-0.97076416,0.014831543,-8.625,-5.1875,1.4375
1695306033988,-0.13574219,-0.97052,0.026794434,-2.90625,-1.75,3.796875
1695306034020,-0.13085938,-0.9968872,0.03314209,-0.484375,-0.046875,3.03125
1695306034065,-0.10961914,-0.95562744,0.014831543,5.671875,1.125,3.28125
1695306034107,-0.13305664,-0.958313,-0.15142822,16.328125,18.140625,3.4375
1695306034144,-0.1328125,-1.0991821,0.085632324,11.890625,-4.28125,-33.65625
1695306034183,-0.107666016,-0.71661377,0.004333496,-6.5,27.828125,-0.109375
1695306034234,-0.111083984,-1.0076294,0.16766357,3.796875,-7.875,6.9375
1695306034262,-0.18701172,-1.0552368,-0.059631348,12.328125,5.71875,2.015625
1695306034303,-0.099609375,-0.9685669,-0.038391113,6.375,0.734375,8.984375
1695306034335,-0.1159668,-1.0925903,-0.011779785,-5.3125,-4.65625,2.125
1695306034395,-0.16552734,-1.0254517,-0.008361816,-9.671875,-10.765625,-2.546875
1695306034423,-0.13110352,-0.9517212,-0.0017700195,-22.390625,-11.59375,-4.078125
1695306034472,-0.12890625,-0.96539307,-0.011047363,-8.921875,-9.171875,-4.578125
1695306034497,-0.13256836,-0.97857666,0.039001465,-6.0,-3.453125,-0.25
1695306034561,-0.13134766,-0.97540283,0.029968262,-3.78125,-0.265625,-0.015625
1695306034588,-0.14379883,-0.96417236,0.010681152,0.59375,2.59375,-0.46875
1695306034617,-0.24609375,-1.0283813,-0.11187744,-9.875,-3.6875,-12.46875
1695306034649,0.047851562,-1.0462036,0.18011475,-39.515625,10.640625,1.09375
1695306034694,-0.32836914,-0.85162354,0.051696777,1.40625,-11.5,-9.0
1695306034741,-0.15063477,-1.0579224,0.10076904,1.359375,1.3125,3.5625
1695306034797,-0.18261719,-1.0125122,0.062194824,7.296875,0.6875,6.84375
1695306034828,-0.12036133,-1.0159302,0.06781006,6.859375,1.0625,6.78125
1695306034858,-0.17749023,-1.0361938,0.0680542,-3.5,2.421875,4.1875
1695306034888,-0.16430664,-0.95440674,0.058532715,-8.0625,-1.34375,1.625
1695306034936,-0.1538086,-0.9673462,-0.109436035,-1.859375,11.9375,-3.359375
1695306034970,-0.1508789,-1.1582642,0.07293701,2.09375,-16.46875,-25.078125
1695306035014,-0.19189453,-0.70758057,0.04876709,3.5625,19.6875,-0.078125
1695306035053,-0.18261719,-1.0108032,0.28094482,3.1875,-1.75,14.953125
1695306035084,-0.13745117,-1.0606079,0.010437012,15.375,6.359375,7.953125
1695306035130,-0.099853516,-0.9924927,0.013122559,14.953125,1.828125,6.65625
1695306035185,-0.140625,-1.0757446,-0.024963379,-5.203125,6.09375,-0.453125
1695306035207,-0.1538086,-0.8735962,-0.14508057,-3.921875,-1.984375,-11.6875
1695306035257,-0.16015625,-1.0715942,0.07611084,-13.5,-8.390625,-17.0
1695306035280,-0.15649414,-0.85406494,0.20697021,-13.359375,12.046875,-3.53125
1695306035325,-0.21386719,-0.99102783,0.21258545,12.671875,-6.8125,8.75
1695306035370,-0.15966797,-0.98028564,0.029968262,22.96875,11.28125,9.03125
1695306035398,-0.07885742,-1.0476685,-0.031555176,10.609375,4.296875,3.203125
1695306035442,-0.16699219,-1.0720825,0.025817871,15.625,3.78125,-0.296875
1695306035488,-0.18139648,-1.0186157,-0.020324707,-27.71875,-12.140625,-1.65625
1695306035534,-0.17236328,-0.96466064,-0.004699707,-22.90625,-13.890625,-6.09375
1695306035567,-0.1381836,-0.96832275,0.013366699,-9.296875,-4.1875,-0.5
1695306035593,-0.12792969,-0.9492798,0.10028076,-2.9375,0.90625,1.796875
1695306035646,-0.1340332,-0.9680786,0.06439209,-1.25,0.390625,3.03125
1695306035687,-0.13867188,-0.98443604,0.04510498,3.125,-0.390625,1.671875
1695306035714,-0.115478516,-0.9692993,0.03656006,1.09375,0.234375,0.6875
1695306035759,-0.12060547,-1.0010376,0.051208496,-0.859375,-0.875,0.375
1695306035860,-0.14526367,-0.99835205,0.06732178,-0.203125,-0.421875,0.078125
1695306035860,-0.14086914,-0.9963989,0.030456543,-1.859375,1.53125,-0.4375
1695306035883,-0.14892578,-0.9898071,0.058776855,-1.390625,0.109375,-0.765625
1695306035907,-0.14160156,-0.9939575,0.078552246,-0.0625,-3.0625,-0.4375
1695306035957,-0.13720703,-0.99176025,0.06439209,-1.25,-3.453125,-0.46875
1695306035998,-0.12646484,-0.9714966,0.01776123,2.9375,-1.5,0.328125
1695306036030,-0.13598633,-0.9429321,-0.05230713,13.9375,15.453125,2.609375
1695306036083,-0.110839844,-0.8789673,-0.10455322,19.5625,-11.390625,-24.96875
1695306036116,-0.042236328,-0.98760986,0.37615967,-30.484375,25.296875,0.53125
1695306036154,-0.17456055,-0.9729614,0.015808105,17.65625,-7.03125,3.234375
1695306036209,-0.17480469,-0.99884033,0.05316162,7.765625,7.671875,0.53125
1695306036224,-0.1640625,-1.0615845,0.06097412,5.875,0.5,7.9375
1695306036271,-0.16479492,-1.0149536,-0.009094238,7.640625,-0.078125,7.0
1695306036315,-0.15820312,-0.9949341,-0.05596924,-6.75,0.53125,-0.1875
1695306036365,-0.17333984,-0.9155884,-0.13531494,5.6875,10.0,-1.84375
1695306036388,-0.2775879,-1.0230103,-0.06500244,4.0625,-3.015625,-13.96875
1695306036463,-0.051757812,-0.85528564,0.11663818,-20.390625,17.703125,1.59375
1695306036464,-0.16894531,-0.9829712,0.13812256,19.953125,-5.796875,8.828125
1695306036509,-0.114990234,-1.0303345,-0.05718994,19.0625,11.109375,2.34375
1695306036543,-0.1340332,-0.97442627,-0.023010254,15.359375,5.546875,11.578125
1695306036584,-0.16040039,-1.0964966,-0.08135986,-4.234375,1.40625,3.71875
1695306036628,-0.15673828,-0.9116821,-0.15045166,-4.28125,2.9375,-3.46875
1695306036665,-0.24414062,-0.928772,-0.206604,-6.328125,0.15625,-7.515625
1695306036707,-0.0234375,-1.1126099,0.1486206,-57.953125,-8.265625,-13.640625
1695306036749,-0.4111328,-0.84161377,0.13909912,4.953125,-9.59375,-4.21875
1695306036787,-0.06542969,-0.92388916,0.043884277,18.390625,2.609375,8.90625
1695306036827,-0.15307617,-1.0913696,-0.015197754,12.359375,0.421875,4.390625
1695306036854,-0.09643555,-1.0354614,-0.13433838,4.125,-5.640625,-2.828125
1695306036903,-0.16015625,-0.9824829,0.04510498,-1.734375,-4.203125,-11.8125
1695306036957,-0.23364258,-1.013977,-0.012268066,-10.1875,-7.984375,-13.90625
1695306036971,-0.23510742,-0.9480591,-0.054260254,-2.046875,-9.515625,-7.1875
1695306037021,-0.26831055,-0.9927368,0.01776123,1.28125,-0.875,0.0
1695306037065,-0.23657227,-0.9976196,-0.012756348,3.59375,-4.28125,5.0
1695306037100,-0.17797852,-0.9517212,-0.05987549,-6.640625,-5.296875,6.5
1695306037159,-0.1796875,-0.98394775,-0.024719238,-1.640625,1.859375,8.0625
1695306037180,-0.11669922,-0.94244385,-0.08721924,4.203125,7.6875,7.78125
1695306037212,-0.16821289,-0.9907837,-0.02960205,-3.953125,6.125,3.53125
1695306037274,-0.15551758,-1.003479,-0.014709473,-0.15625,7.921875,2.609375
1695306037288,-0.20825195,-0.80792236,-0.44415283,13.46875,34.609375,0.8125
1695306037349,-0.12548828,-1.2366333,0.56243896,-75.84375,-33.03125,-24.984375
1695306037367,-0.43041992,-0.73638916,-0.09893799,45.796875,1.328125,0.875
1695306037409,-0.076416016,-0.9031372,0.14007568,8.734375,6.859375,13.078125
1695306037452,-0.16455078,-1.2315063,-0.14508057,14.015625,5.53125,8.015625
1695306037502,-0.18359375,-0.9517212,-0.034973145,24.046875,3.875,9.859375
1695306037528,-0.13256836,-1.0593872,-0.09161377,-3.25,0.390625,0.984375
1695306037579,-0.20532227,-1.0227661,-0.10357666,-22.046875,-4.6875,-8.0625
1695306037612,-0.15136719,-0.8538208,-0.053527832,-12.078125,-1.390625,-5.078125
1695306037663,-0.17553711,-1.0335083,-0.04449463,-12.34375,4.125,-3.25
1695306037678,-0.27612305,-0.9319458,-0.28619385,3.0625,-0.59375,-14.65625
1695306037737,0.032714844,-0.87506104,0.42913818,-25.078125,23.796875,20.0
1695306037769,-0.22338867,-0.928772,0.030212402,7.921875,-16.734375,9.296875
1695306037803,-0.17578125,-1.0308228,-0.03765869,21.21875,9.078125,9.0625
1695306037844,-0.09008789,-1.0574341,6.713867E-4,13.234375,1.53125,10.484375
1695306037903,-0.13256836,-1.0466919,-0.032043457,12.734375,2.515625,6.53125
1695306037917,-0.11376953,-1.0488892,-0.0647583,0.875,-1.109375,-2.734375
1695306037963,-0.15063477,-0.9998169,-0.101379395,-26.984375,-8.359375,-6.546875
1695306038001,-0.14355469,-0.90826416,-0.05596924,-7.203125,-12.703125,-15.125
1695306038042,-0.18310547,-1.0164185,0.019470215,-23.03125,-6.09375,-9.0
1695306038083,-0.19580078,-0.9505005,0.02142334,-11.15625,-0.09375,-0.984375
1695306038119,-0.19946289,-0.9492798,0.050720215,-2.328125,0.3125,3.609375
1695306038163,-0.18188477,-0.9883423,0.04119873,-2.1875,0.25,5.328125
1695306038208,-0.16308594,-0.97491455,0.015808105,-1.609375,0.375,4.515625
1695306038233,-0.12841797,-0.9751587,-0.018859863,-0.234375,-3.0,3.703125
1695306038279,-0.1430664,-1.0266724,0.05316162,-2.625,-3.6875,2.625
1695306038307,-0.13769531,-0.9834595,0.001159668,1.921875,0.515625,7.234375
1695306038354,-0.17089844,-0.9553833,-0.14385986,1.96875,7.046875,-4.28125
1695306038408,-0.033691406,-1.185852,0.112976074,-19.828125,18.8125,-17.671875
1695306038443,-0.26391602,-0.80963135,0.093933105,-1.703125,-8.96875,2.265625
1695306038472,-0.14916992,-0.82037354,0.12615967,12.5,2.390625,3.78125
1695306038519,-0.20263672,-1.18219,0.09246826,-2.390625,1.484375,0.03125
1695306038555,-0.13061523,-1.0261841,0.04168701,15.5,2.890625,7.453125
1695306038592,-0.11328125,-1.0195923,0.070495605,-0.171875,-0.6875,9.203125
1695306038634,-0.11425781,-1.0408325,-0.057678223,-11.484375,0.703125,0.359375
1695306038666,-0.14648438,-0.93927,-0.0012817383,-15.453125,-0.328125,-1.8125
1695306038721,-0.14916992,-0.98565674,0.035827637,-10.3125,-1.5625,-2.296875
1695306038757,-0.1796875,-0.86846924,-0.050354004,10.4375,7.234375,-1.203125
1695306038794,-0.16674805,-1.159729,0.23577881,3.90625,-15.578125,-13.296875
1695306038836,-0.19360352,-0.8040161,-0.10699463,12.296875,16.46875,-0.734375
1695306038873,-0.036621094,-1.0020142,0.14471436,0.25,2.875,9.5625
1695306038910,-0.17089844,-1.085022,0.010437012,18.359375,4.359375,4.546875
1695306038936,-0.107177734,-1.0361938,-0.047668457,11.046875,2.328125,7.171875
1695306038984,-0.17114258,-1.0593872,0.011657715,-16.0625,-4.53125,-2.53125
1695306039031,-0.14013672,-0.89678955,-0.073791504,-7.828125,-7.578125,-9.4375
1695306039058,-0.16772461,-0.96099854,-0.006164551,-16.625,-3.28125,-4.515625
1695306039108,-0.20263672,-0.9993286,-0.031555176,1.1875,-5.46875,-16.546875
1695306039148,-0.106933594,-0.881897,0.19915771,-39.3125,11.421875,-5.78125
1695306039177,-0.26416016,-0.94903564,0.1239624,21.0,-1.125,6.953125
1695306039223,-0.07788086,-1.0420532,0.039245605,25.359375,9.46875,8.515625
1695306039257,-0.15356445,-1.0059204,0.014831543,23.84375,4.765625,8.203125
1695306039318,-0.08642578,-1.1004028,-0.023986816,11.671875,-4.734375,4.421875
1695306039342,-0.12988281,-1.0703735,-0.04522705,-14.15625,-13.703125,-7.53125
1695306039371,-0.20654297,-0.9578247,-0.059143066,-29.4375,-18.90625,-9.8125
1695306039419,-0.20776367,-0.98638916,0.061706543,-21.09375,-10.421875,-4.25
1695306039463,-0.13598633,-0.95562744,0.074645996,-4.9375,-1.359375,1.390625
1695306039500,-0.18261719,-0.9710083,0.027770996,4.0,2.578125,1.125
1695306039553,-0.13989258,-0.95684814,0.021911621,0.953125,2.046875,2.015625
1695306039568,-0.1496582,-0.9783325,0.04119873,-0.9375,0.71875,1.203125
1695306039612,-0.14697266,-0.95635986,0.09661865,-3.203125,-0.703125,0.578125
1695306039664,-0.13012695,-0.98565674,0.04559326,-3.40625,-2.734375,0.640625
1695306039699,-0.13061523,-0.9824829,0.04925537,-0.765625,-2.6875,0.15625
1695306039732,-0.15478516,-0.9841919,0.018005371,0.390625,-1.140625,-0.03125
1695306039781,-0.13061523,-0.9990845,-0.0025024414,5.703125,8.15625,2.265625
1695306039808,-0.16040039,-0.9859009,0.0033569336,13.0,28.0,4.578125
1695306039853,-0.17626953,-0.9788208,-0.023986816,31.65625,36.9375,10.390625
1695306039883,-0.22851562,-0.86676025,-0.009094238,43.640625,8.953125,8.296875
1695306039926,0.0029296875,-1.0315552,-0.10455322,19.6875,15.515625,0.96875
1695306039977,0.1418457,-0.97735596,-0.047424316,-6.78125,21.96875,-9.359375
1695306040004,-0.2109375,-0.9475708,-0.06085205,-7.921875,-6.4375,-6.375
1695306040049,-0.12988281,-1.0203247,-0.09210205,-7.875,2.703125,-5.171875
1695306040092,-0.17138672,-1.0383911,-0.07281494,4.578125,3.390625,5.5625
1695306040125,-0.21777344,-0.9883423,-0.031311035,16.71875,6.859375,6.046875
1695306040166,-0.17871094,-0.98809814,-0.13067627,1.9375,5.59375,7.734375
1695306040204,-0.16601562,-0.95562744,-0.13311768,8.671875,-13.953125,-10.453125
1695306040255,-0.18652344,-1.1279907,-0.15411377,-29.328125,-22.953125,-16.375
1695306040287,-0.18457031,-0.6975708,-0.070373535,-15.25,-16.3125,-13.609375
1695306040326,-0.095703125,-0.9104614,-0.042785645,11.515625,4.578125,21.203125
1695306040372,-0.08325195,-1.0960083,-0.113098145,26.5,8.34375,6.375
1695306040407,-0.14916992,-0.98931885,-0.144104,11.15625,0.8125,9.046875
1695306040467,-0.13452148,-1.0967407,-0.14630127,-5.9375,1.5,-1.421875
1695306040487,-0.10839844,-0.97613525,-0.15875244,-23.46875,-14.125,-15.390625
1695306040512,-0.18017578,-0.8596802,-0.12506104,-28.125,-4.34375,-13.5625
1695306040558,-0.13867188,-0.93463135,-0.36431885,-26.828125,-15.359375,-31.40625
1695306040610,-0.2758789,-1.0405884,0.5519409,6.21875,14.421875,-7.953125
1695306040640,-0.1586914,-0.96954346,-0.2695923,37.0625,4.71875,5.484375
1695306040676,-0.12573242,-0.93341064,0.034118652,19.859375,6.703125,-8.109375
1695306040770,-0.2541504,-0.9741821,-0.09552002,3.828125,4.328125,4.421875
1695306040773,-0.19433594,-1.0064087,-0.20123291,-4.59375,-10.34375,1.375
1695306040798,-0.22558594,-1.0442505,-0.07110596,-45.1875,-11.5,3.578125
1695306040833,-0.35058594,-0.8357544,0.009216309,10.5625,-3.375,-0.9375
1695306040874,-0.11010742,-0.91290283,-0.11431885,15.078125,4.0,16.796875
1695306040919,-0.17358398,-1.0464478,-0.10748291,27.53125,4.5625,7.71875
1695306040951,-0.13476562,-1.017395,-0.17803955,23.796875,7.359375,4.75
1695306040997,-0.13183594,-0.973938,-0.17242432,7.125,3.703125,0.984375
1695306041039,-0.14282227,-0.9907837,-0.21343994,-3.90625,-5.796875,-2.171875
1695306041070,-0.13354492,-0.94610596,-0.16851807,-10.59375,-5.15625,-4.796875
1695306041127,-0.22363281,-1.1060181,-0.27105713,-48.09375,-15.0625,-22.15625
1695306041142,0.03881836,-0.87042236,0.19598389,-79.796875,-16.671875,-7.90625
1695306041186,-0.3972168,-0.86138916,0.055358887,1.046875,-16.890625,1.78125
1695306041237,-0.09375,-0.975647,0.029968262,29.828125,0.703125,14.421875
1695306041269,-0.16577148,-1.1184692,-0.10333252,23.203125,0.640625,10.984375
1695306041312,-0.14990234,-1.0234985,-0.08648682,18.0625,2.53125,7.828125
1695306041383,-0.099121094,-0.98687744,-0.1716919,-8.859375,3.234375,-1.703125
1695306041384,-0.13916016,-0.91851807,-0.10308838,-10.34375,0.640625,-7.578125
1695306041431,-0.23266602,-0.95269775,-0.23980713,-12.21875,12.171875,-6.890625
1695306041458,-0.08666992,-1.159729,0.184021,-43.765625,-12.125,-11.21875
1695306041503,-0.3017578,-0.73150635,-0.033996582,12.53125,-3.15625,1.03125
1695306041552,-0.08959961,-1.00177,-0.034240723,14.265625,2.03125,10.3125
1695306041580,-0.14575195,-1.0286255,-0.053527832,20.796875,2.53125,5.09375
1695306041623,-0.1352539,-1.0305786,-0.08502197,23.59375,3.28125,8.796875
1695306041673,-0.10424805,-1.02594,-0.11920166,-4.625,2.328125,2.953125
1695306041698,-0.13647461,-0.99176025,-0.121398926,-12.140625,-7.328125,-3.359375
1695306041745,-0.16503906,-0.9973755,-0.07745361,-19.078125,-14.71875,-5.640625
1695306041773,-0.16674805,-0.98272705,-0.06451416,-21.78125,-9.15625,-4.3125
1695306041832,-0.15161133,-0.9807739,-0.03668213,-15.25,-2.578125,-0.1875
1695306041865,-0.1274414,-0.9258423,-0.017150879,-9.75,-2.546875,1.359375
1695306041897,-0.11743164,-0.97052,-0.014709473,-2.734375,0.453125,3.59375
1695306041939,-0.11035156,-0.97125244,-0.022277832,-2.21875,1.125,1.3125
1695306041984,-0.1274414,-0.9768677,-0.015686035,-4.21875,1.265625,0.953125
1695306042034,-0.13134766,-1.0042114,1.8310547E-4,-0.578125,4.65625,3.703125
1695306042059,-0.140625,-1.0015259,6.713867E-4,-0.1875,1.0625,4.71875
1695306042088,-0.11621094,-0.9793091,0.018737793,-1.4375,0.640625,1.25
1695306042137,-0.13208008,-1.0015259,-0.034973145,-7.0,5.53125,2.078125
1695306042179,-0.08959961,-0.7671509,-0.16705322,20.34375,-11.0625,-21.328125
1695306042212,0.22753906,-1.048645,0.38812256,-52.65625,37.265625,11.734375
1695306042254,-0.2541504,-0.9793091,0.10003662,16.578125,-24.5625,-5.390625
1695306042294,-0.14770508,-1.0344849,-0.02154541,16.28125,11.109375,1.234375
1695306042326,-0.18896484,-1.0183716,0.055114746,7.71875,-1.21875,9.484375
1695306042400,-0.12158203,-1.0996704,-0.0015258789,9.90625,-2.328125,1.984375
1695306042406,-0.20507812,-0.9036255,-0.2156372,10.890625,-1.859375,-6.84375
1695306042456,-0.14355469,-0.8718872,0.062683105,-25.375,6.40625,-7.484375
1695306042495,-0.16186523,-0.96881104,0.055358887,3.328125,-2.359375,10.890625
1695306042523,-0.15527344,-1.062561,0.02557373,-2.0,2.453125,-0.359375
1695306042582,-0.1340332,-0.95684814,0.01776123,10.859375,0.375,7.9375
1695306042603,-0.15649414,-1.0706177,-0.12286377,1.265625,8.65625,-0.8125
1695306042644,-0.080078125,-1.0117798,0.026550293,-3.640625,-10.53125,-12.59375
1695306042687,-0.17138672,-0.8545532,-0.05206299,-6.078125,8.46875,-3.015625
1695306042732,-0.099365234,-0.9656372,0.038757324,-5.96875,3.328125,4.453125
1695306042762,-0.20239258,-1.0327759,0.062927246,7.734375,2.09375,1.328125
1695306042809,-0.14575195,-1.0090942,-0.045959473,15.6875,4.875,7.890625
1695306042848,-0.15795898,-1.0371704,-0.061340332,2.359375,-0.046875,-0.546875
1695306042887,-0.19335938,-0.9312134,-0.11138916,-4.140625,2.03125,-4.109375
1695306042920,-0.10229492,-0.9553833,0.050720215,-27.609375,2.8125,1.171875
1695306042958,-0.16137695,-0.95562744,0.03753662,14.25,2.8125,5.96875
1695306043018,-0.09399414,-1.020813,-0.021057129,20.890625,7.21875,5.25
1695306043060,-0.104003906,-0.94903564,-0.042053223,28.078125,5.140625,8.90625
1695306043076,-0.11230469,-1.0896606,-0.18658447,10.015625,7.484375,-1.609375
1695306043122,-0.16259766,-0.99298096,-0.07891846,0.5,1.28125,-0.03125
1695306043167,-0.1274414,-0.9619751,-0.1963501,-11.21875,3.875,-0.359375
1695306043203,-0.111572266,-1.0513306,0.020690918,-30.90625,-3.671875,-7.828125
1695306043226,-0.18945312,-0.8218384,-0.03741455,8.890625,-2.09375,-1.3125
1695306043296,-0.16601562,-1.0405884,0.012878418,10.90625,-2.34375,3.875
1695306043318,-0.12451172,-0.9885864,-0.1375122,18.390625,3.296875,4.40625
1695306043350,-0.07324219,-1.0012817,-0.12652588,0.28125,2.1875,1.484375
1695306043391,-0.17675781,-0.97540283,-0.13970947,0.71875,-0.125,-1.390625
