timestamp,accel_x,accel_y,accel_z,gyro_x,gyro_y,gyro_z
1695469499689,-0.21606445,-0.9170532,0.06048584,0.9375,1.90625,1.65625
1695469499729,-0.16894531,-0.8911743,0.04168701,1.8125,0.65625,3.671875
1695469499769,-0.17700195,-0.93218994,0.051696777,3.765625,-2.078125,6.171875
1695469499809,-0.1977539,-0.99664307,0.0993042,7.75,-0.203125,9.25
1695469499849,-0.28759766,-1.041565,0.105407715,4.953125,1.53125,8.84375
1695469499889,-0.28979492,-1.0532837,0.097595215,3.53125,3.21875,5.859375
1695469499929,-0.24560547,-1.0645142,0.09710693,0.28125,2.984375,1.640625
1695469499969,-0.2355957,-1.036438,0.07952881,-1.65625,1.34375,-2.640625
1695469500009,-0.2253418,-1.0305786,0.054626465,-3.421875,1.234375,-5.84375
1695469500049,-0.22729492,-0.98687744,0.050476074,-5.984375,1.96875,-6.53125
1695469500089,-0.24389648,-0.9536743,0.054870605,-6.078125,3.0,-7.109375
1695469500129,-0.22485352,-0.9656372,0.06390381,-6.765625,4.046875,-7.21875
1695469500169,-0.24902344,-0.9614868,0.09564209,-5.265625,2.421875,-5.15625
1695469500209,-0.22851562,-0.9475708,0.10662842,-5.125,1.265625,-3.546875
1695469500249,-0.22851562,-0.94415283,0.10247803,-2.890625,1.4375,-0.25
1695469500289,-0.19458008,-0.8831177,0.07098389,1.59375,0.421875,2.5
1695469500329,-0.1821289,-0.8880005,0.074157715,6.40625,-2.296875,5.84375
1695469500369,-0.19213867,-0.90948486,0.08123779,9.671875,-4.828125,8.921875
1695469500409,-0.21362305,-0.97857666,0.101745605,13.046875,-3.578125,11.21875
1695469500449,-0.32250977,-1.1035767,0.1251831,8.140625,0.78125,12.234375
1695469500489,-0.30249023,-1.0891724,0.07733154,3.9375,1.359375,6.09375
1695469500529,-0.19677734,-1.0374146,0.05706787,1.5625,2.40625,-0.234375
1695469500569,-0.19750977,-1.0559692,0.07098389,0.265625,1.375,-2.421875
1695469500609,-0.2211914,-1.0317993,0.06439209,-4.65625,3.53125,-4.109375
1695469500649,-0.23022461,-0.99298096,0.039001465,-7.6875,5.09375,-3.984375
1695469500689,-0.19482422,-0.97491455,0.040222168,-8.015625,5.671875,-5.390625
1695469500729,-0.20166016,-0.9819946,0.06317139,-5.34375,3.84375,-5.265625
1695469500769,-0.22094727,-0.9595337,0.06463623,-6.6875,2.9375,-5.71875
1695469500809,-0.19506836,-0.92144775,0.05218506,-4.125,2.25,-3.9375
1695469500849,-0.1965332,-0.90289307,0.055603027,-1.3125,0.546875,-1.5625
1695469500889,-0.20336914,-0.89923096,0.049987793,0.734375,-2.25,0.109375
1695469500929,-0.19213867,-0.9163208,0.07684326,6.796875,-3.890625,1.625
1695469500969,-0.20751953,-0.95269775,0.0770874,7.015625,-3.640625,1.25
1695469501009,-0.3425293,-1.0410767,0.10076904,5.640625,-3.5625,4.140625
1695469501049,-0.34204102,-1.0357056,0.07489014,2.359375,2.359375,4.734375
1695469501089,-0.28271484,-1.010315,0.0770874,3.90625,5.34375,3.21875
1695469501129,-0.29589844,-1.0054321,0.06365967,0.5625,4.25,2.234375
1695469501169,-0.25439453,-1.0244751,0.06512451,-0.734375,4.5625,0.546875
1695469501209,-0.23535156,-1.0405884,0.08074951,-2.4375,6.34375,0.109375
1695469501249,-0.20117188,-0.9976196,0.043884277,-5.65625,6.0625,-2.296875
1695469501289,-0.17700195,-0.9624634,0.062438965,-3.640625,2.8125,-3.09375
1695469501329,-0.22802734,-0.9368286,0.041931152,-3.84375,1.765625,0.015625
1695469501369,-0.20361328,-0.91607666,0.04119873,-0.421875,0.4375,1.84375
1695469501409,-0.18798828,-0.9624634,0.043884277,1.53125,-1.453125,2.375
1695469501449,-0.17944336,-0.94732666,0.042419434,3.03125,-3.140625,2.875
1695469501489,-0.16015625,-0.9053345,0.015075684,4.234375,-5.859375,4.296875
1695469501529,-0.16870117,-0.93951416,0.047058105,6.203125,-6.4375,5.46875
1695469501569,-0.31420898,-1.005188,0.0758667,6.390625,-5.9375,9.09375
1695469501609,-0.38842773,-1.0689087,0.062194824,2.875,-1.640625,11.625
1695469501649,-0.20532227,-1.0484009,0.04559326,1.78125,3.390625,3.515625
1695469501689,-0.18457031,-1.0518188,0.09124756,2.421875,2.515625,0.125
1695469501729,-0.19335938,-1.0315552,0.089538574,-1.40625,2.03125,-3.328125
1695469501769,-0.18652344,-1.0117798,0.0368042,-4.15625,3.015625,-4.109375
1695469501809,-0.2109375,-1.0110474,0.039978027,-4.203125,5.203125,-3.171875
1695469501849,-0.22875977,-1.0264282,0.038513184,-3.53125,5.375,-4.046875
1695469501889,-0.20678711,-0.9920044,0.013122559,-7.4375,4.53125,-8.484375
1695469501929,-0.2175293,-0.94537354,0.035827637,-7.5625,5.765625,-7.09375
1695469501969,-0.20996094,-0.973938,0.06707764,-7.8125,5.828125,-4.0
1695469502009,-0.18774414,-0.93170166,0.04925537,-8.1875,1.828125,-2.984375
1695469502049,-0.19018555,-0.91973877,0.031921387,-2.875,-1.859375,-2.03125
1695469502089,-0.17236328,-0.9209595,0.04046631,-0.65625,-1.5,-1.015625
1695469502129,-0.20947266,-0.8899536,0.035339355,1.21875,-1.8125,0.328125
1695469502169,-0.17993164,-0.95269775,0.06121826,6.46875,-2.96875,3.3125
1695469502209,-0.26513672,-1.0425415,0.11956787,4.9375,-3.625,6.1875
1695469502249,-0.33618164,-1.0735474,0.11883545,3.265625,-0.5625,6.984375
1695469502289,-0.30517578,-1.111145,0.12030029,-1.9375,3.78125,4.28125
1695469502329,-0.2668457,-1.0667114,0.1005249,-5.71875,4.046875,1.0
1695469502369,-0.19433594,-0.9776001,0.066833496,-6.25,4.828125,-1.453125
1695469502409,-0.21191406,-0.98931885,0.08148193,-3.109375,1.6875,-3.203125
1695469502449,-0.20336914,-0.9561157,0.066101074,-8.578125,-1.25,-3.21875
1695469502489,-0.22143555,-0.9014282,0.058044434,-8.625,-1.15625,-0.984375
1695469502529,-0.17333984,-0.9534302,0.04486084,-2.421875,4.9375,-1.140625
1695469502569,-0.16357422,-0.94073486,0.061706543,-3.296875,-1.46875,-2.296875
1695469502609,-0.1730957,-0.9380493,0.07147217,1.84375,-5.875,-0.703125
1695469502649,-0.19458008,-0.9336548,0.07952881,0.65625,-6.609375,1.546875
1695469502689,-0.18823242,-0.93829346,0.09490967,2.453125,-6.296875,2.34375
1695469502729,-0.22290039,-0.97735596,0.086364746,10.5625,-5.96875,4.875
1695469502769,-0.26513672,-0.98321533,0.09686279,11.453125,-4.1875,7.703125
1695469502809,-0.2849121,-0.9841919,0.070495605,10.171875,-5.75,11.421875
1695469502849,-0.19995117,-0.94537354,0.03729248,8.9375,-0.390625,10.640625
1695469502889,-0.21850586,-1.0588989,0.074401855,9.265625,1.859375,7.84375
1695469502929,-0.24414062,-1.1824341,0.08782959,3.390625,4.03125,2.328125
1695469502969,-0.16357422,-1.1055298,0.07659912,-1.0,4.171875,-6.8125
1695469503009,-0.1694336,-0.99468994,-0.0064086914,-11.453125,0.09375,-8.890625
1695469503049,-0.25878906,-0.95269775,-0.0032348633,-11.109375,2.390625,-5.859375
1695469503089,-0.19824219,-0.8233032,0.1473999,-21.375,16.421875,-6.328125
1695469503129,-0.22729492,-0.88409424,-0.013244629,-10.921875,4.0625,-3.390625
1695469503169,-0.16625977,-0.94854736,0.023132324,-0.421875,4.171875,-4.109375
1695469503209,-0.13989258,-0.9307251,0.04949951,0.765625,1.59375,-2.65625
1695469503249,-0.16748047,-0.8982544,0.030456543,2.75,-1.953125,0.46875
1695469503289,-0.18310547,-0.9241333,0.035339355,3.59375,-5.875,2.828125
1695469503329,-0.21850586,-1.0083618,0.06951904,5.0625,-5.03125,4.234375
1695469503369,-0.29174805,-1.0808716,0.09100342,3.484375,-0.59375,6.53125
1695469503409,-0.3088379,-1.0615845,0.07952881,0.90625,2.0,5.375
1695469503449,-0.23242188,-1.0159302,0.047790527,-2.234375,3.390625,2.1875
1695469503489,-0.19873047,-1.022522,0.054382324,-4.390625,2.890625,-0.640625
1695469503529,-0.21679688,-1.0230103,0.036315918,-7.328125,2.6875,-2.015625
1695469503569,-0.22192383,-1.0361938,0.07098389,-4.25,5.609375,-0.21875
1695469503609,-0.2290039,-0.97784424,0.054870605,-8.453125,4.859375,-0.875
1695469503649,-0.18115234,-0.9295044,0.03314209,-5.046875,4.546875,-3.34375
1695469503689,-0.17382812,-0.9246216,0.043640137,-2.34375,2.1875,-2.015625
1695469503729,-0.16748047,-0.91900635,0.046569824,-1.125,-1.34375,-1.765625
1695469503769,-0.17089844,-0.93927,0.046569824,1.34375,-4.640625,0.125
1695469503809,-0.15185547,-0.91119385,0.034851074,4.921875,-7.765625,1.140625
1695469503849,-0.17236328,-0.94415283,0.0446167,7.578125,-8.421875,3.359375
1695469503889,-0.24414062,-1.013977,0.06536865,8.3125,-3.203125,5.4375
1695469503929,-0.26293945,-1.0149536,0.03289795,4.6875,-1.375,3.125
1695469503969,-0.23510742,-1.0369263,0.05682373,5.90625,3.53125,3.421875
1695469504009,-0.30517578,-1.0408325,0.11907959,4.28125,4.28125,5.6875
1695469504049,-0.31982422,-1.0740356,0.08270264,-2.171875,2.53125,3.359375
1695469504089,-0.20214844,-1.0464478,0.041931152,-7.15625,3.484375,-2.90625
1695469504129,-0.18334961,-1.065979,0.06463623,-9.359375,4.8125,-4.078125
1695469504169,-0.1977539,-1.0354614,0.049987793,-12.75,3.375,-6.890625
1695469504209,-0.1965332,-0.93756104,0.054870605,-10.390625,4.15625,-6.140625
1695469504249,-0.19921875,-0.8994751,0.062194824,-8.265625,7.578125,-2.5625
1695469504289,-0.19335938,-0.90045166,0.051208496,-4.046875,5.3125,-1.96875
1695469504329,-0.13720703,-0.93170166,0.07635498,1.921875,1.390625,-2.828125
1695469504369,-0.14550781,-0.9636841,0.09710693,5.609375,-0.765625,-2.234375
1695469504409,-0.1694336,-0.93341064,0.05291748,4.9375,-3.375,-0.921875
1695469504449,-0.18725586,-0.9204712,0.024597168,6.75,-4.359375,0.734375
1695469504489,-0.19726562,-0.9656372,0.010925293,6.234375,-9.21875,3.171875
1695469504529,-0.19995117,-0.9902954,0.05609131,8.9375,-4.46875,3.28125
1695469504569,-0.41870117,-1.1235962,0.12200928,3.8125,-0.609375,8.84375
1695469504609,-0.3544922,-1.1140747,0.077819824,-6.859375,6.71875,3.125
1695469504649,-0.2536621,-1.024231,0.05682373,-19.109375,12.6875,-1.28125
1695469504689,-0.20288086,-1.0015259,0.10076904,-19.890625,3.8125,-3.90625
1695469504729,-0.24536133,-1.0576782,0.14764404,3.015625,5.609375,4.90625
1695469504769,-0.25952148,-1.0569458,0.13421631,-3.15625,3.6875,-0.078125
1695469504809,-0.23803711,-1.0923462,0.16082764,-1.8125,6.859375,-2.1875
1695469504849,-0.21240234,-1.0408325,0.11981201,-8.84375,3.28125,-2.0
1695469504889,-0.14428711,-0.9006958,0.03729248,-8.96875,0.859375,-4.34375
1695469504929,-0.18408203,-0.8960571,0.046569824,-8.703125,0.140625,-1.453125
1695469504969,-0.21240234,-0.88531494,0.06414795,-5.046875,-1.6875,-1.421875
1695469505009,-0.19604492,-0.95098877,0.11004639,2.671875,-0.984375,-0.203125
1695469505049,-0.17480469,-0.92681885,0.13079834,4.625,1.171875,-0.3125
1695469505089,-0.14038086,-0.9104614,0.08343506,4.96875,-4.015625,0.9375
1695469505129,-0.15161133,-0.9380493,0.117370605,8.578125,-6.21875,-0.078125
1695469505169,-0.30200195,-1.0322876,0.1239624,8.734375,-1.984375,4.578125
1695469505209,-0.3486328,-1.0618286,0.1161499,2.984375,1.28125,7.515625
1695469505249,-0.30419922,-1.1060181,0.15179443,0.53125,9.359375,4.296875
1695469505289,-0.26611328,-1.0674438,0.11932373,-5.78125,6.75,-0.015625
1695469505329,-0.19482422,-1.0310669,0.137146,-4.0625,7.609375,-5.109375
1695469505369,-0.19580078,-1.0015259,0.152771,-5.125,5.640625,-3.515625
1695469505409,-0.2211914,-0.9209595,0.11077881,-6.90625,4.625,-1.578125
1695469505449,-0.21191406,-0.8843384,0.062683105,-3.40625,4.375,-1.578125
1695469505489,-0.15820312,-0.94366455,0.06317139,3.359375,4.296875,-1.34375
1695469505529,-0.17333984,-0.97735596,0.049987793,3.171875,0.421875,0.140625
1695469505569,-0.19335938,-0.9602661,0.06854248,2.328125,-2.140625,1.328125
1695469505609,-0.17700195,-0.9187622,0.06854248,7.875,-3.4375,1.953125
1695469505649,-0.1472168,-0.96343994,0.08856201,9.21875,-2.765625,2.25
1695469505689,-0.19482422,-0.9951782,0.13153076,12.5,-2.25,5.53125
1695469505729,-0.28295898,-1.0606079,0.081726074,5.390625,-2.015625,11.53125
1695469505769,-0.2770996,-1.1045532,0.11907959,-1.0,-0.9375,6.625
1695469505809,-0.31591797,-1.0391235,0.07904053,-7.9375,-0.90625,-3.34375
1695469505849,-0.23779297,-0.9541626,0.047058105,-8.5625,7.6875,1.71875
1695469505889,-0.23754883,-0.96051025,0.117126465,-8.265625,2.4375,1.640625
1695469505929,-0.20751953,-1.0064087,0.13934326,-6.78125,6.28125,-6.015625
1695469505969,-0.17114258,-1.0049438,0.105895996,-7.109375,6.453125,-5.171875
1695469506009,-0.12451172,-0.9751587,0.062438965,-6.265625,2.015625,-4.359375
1695469506049,-0.18774414,-0.9627075,0.09613037,-3.765625,1.703125,-4.921875
1695469506089,-0.24780273,-0.9170532,0.12664795,-5.921875,0.703125,-3.71875
1695469506129,-0.20825195,-0.8855591,0.08416748,-6.75,-2.6875,-4.515625
1695469506169,-0.1784668,-0.90093994,0.089782715,-0.734375,-10.578125,-3.171875
1695469506209,-0.17382812,-0.9295044,0.11468506,4.28125,-9.140625,0.90625
1695469506249,-0.21240234,-0.99053955,0.13641357,4.1875,-4.6875,3.25
1695469506289,-0.32861328,-1.0462036,0.13519287,3.84375,-4.109375,5.546875
1695469506329,-0.35888672,-1.02594,0.1539917,3.40625,-0.296875,5.84375
1695469506369,-0.28125,-1.039856,0.13616943,0.75,4.109375,2.875
1695469506409,-0.24975586,-1.0505981,0.14910889,-1.828125,6.46875,-2.265625
1695469506449,-0.2109375,-1.05719,0.15692139,-3.859375,6.0625,-5.4375
1695469506489,-0.19873047,-1.0112915,0.13323975,-7.796875,4.03125,-6.34375
1695469506529,-0.20532227,-0.925354,0.07342529,-8.0,2.671875,-3.65625
1695469506569,-0.19262695,-0.92144775,0.054138184,-4.953125,2.3125,-2.578125
1695469506609,-0.22387695,-0.91070557,0.0758667,-3.59375,-0.46875,-1.15625
1695469506649,-0.21606445,-0.9368286,0.11077881,-4.21875,-1.390625,-0.71875
1695469506689,-0.21508789,-0.9307251,0.11639404,-1.125,-3.078125,-0.671875
1695469506729,-0.21728516,-0.925354,0.10369873,-0.953125,-4.53125,-0.71875
1695469506769,-0.26391602,-0.9697876,0.16595459,-0.265625,-3.234375,0.078125
1695469506809,-0.25805664,-0.9763794,0.15057373,-0.984375,0.21875,-0.984375
1695469506849,-0.2614746,-0.9873657,0.16131592,2.109375,1.1875,-2.453125
1695469506889,-0.26782227,-0.99224854,0.1774292,1.46875,4.40625,-1.90625
1695469506929,-0.3149414,-0.9981079,0.17645264,1.703125,3.171875,-0.859375
1695469506969,-0.35473633,-0.98565674,0.17108154,3.6875,6.03125,2.0
1695469507009,-0.3557129,-0.9973755,0.16375732,2.546875,6.796875,4.6875
1695469507049,-0.33447266,-1.0601196,0.13372803,0.859375,6.203125,5.40625
1695469507089,-0.2878418,-1.0418091,0.17401123,-2.71875,6.15625,4.390625
1695469507129,-0.14477539,-0.95440674,0.12591553,1.34375,8.0625,1.03125
1695469507169,-0.17236328,-0.96832275,0.039733887,-5.96875,3.953125,1.484375
1695469507209,-0.17822266,-0.8982544,0.09539795,-5.65625,3.46875,3.53125
1695469507249,-0.14379883,-0.9055786,0.11419678,-0.734375,-2.296875,0.640625
1695469507289,-0.19384766,-0.9541626,0.078308105,-0.171875,-2.703125,0.5625
1695469507329,-0.19018555,-0.9277954,0.13494873,-10.015625,-2.796875,-1.640625
1695469507369,-0.19067383,-1.0056763,0.13568115,-12.0,-2.171875,-3.609375
1695469507409,-0.27001953,-0.97052,0.2033081,-24.375,0.421875,-2.484375
1695469507449,-0.34838867,-0.9458618,0.24188232,-13.90625,-0.109375,3.03125
1695469507489,-0.34155273,-1.0015259,0.2748413,-5.078125,1.125,2.828125
1695469507529,-0.31030273,-1.0164185,0.29266357,-2.71875,5.03125,4.859375
1695469507569,-0.3190918,-1.0261841,0.31463623,2.421875,5.078125,2.078125
1695469507609,-0.30566406,-1.0271606,0.26385498,2.0,5.65625,0.59375
1695469507649,-0.25439453,-0.9871216,0.26605225,2.65625,7.9375,-0.328125
1695469507689,-0.19580078,-0.9768677,0.20941162,1.21875,5.765625,-0.765625
1695469507729,-0.15356445,-0.9241333,0.16033936,-4.96875,5.796875,-2.765625
1695469507769,-0.16308594,-0.8352661,0.17059326,-6.796875,1.671875,0.234375
1695469507809,-0.14477539,-0.923645,0.16082764,-10.53125,-5.953125,1.046875
1695469507849,-0.21069336,-0.95318604,0.17181396,-7.71875,1.03125,0.34375
1695469507889,-0.15039062,-0.9055786,0.23162842,-6.765625,5.625,-0.453125
1695469507929,-0.18896484,-0.95513916,0.28826904,-6.1875,0.78125,0.296875
1695469507969,-0.2109375,-0.9351196,0.2579956,-14.25,0.40625,-1.3125
1695469508009,-0.25732422,-0.9290161,0.2909546,-11.53125,3.5,1.015625
1695469508049,-0.2626953,-0.9146118,0.31781006,-4.640625,9.609375,2.78125
1695469508089,-0.3017578,-0.9546509,0.38983154,-1.265625,6.828125,4.296875
1695469508129,-0.30639648,-1.0674438,0.41278076,4.3125,9.1875,3.171875
1695469508169,-0.3034668,-1.0388794,0.4171753,8.328125,13.84375,-0.96875
1695469508209,-0.27368164,-0.9944458,0.37615967,9.265625,9.984375,-1.96875
1695469508249,-0.22192383,-0.9290161,0.33343506,5.9375,3.28125,-1.0625
1695469508289,-0.15673828,-0.8921509,0.2675171,10.53125,1.59375,-0.34375
1695469508329,-0.06347656,-0.8748169,0.24090576,18.296875,-15.6875,-2.140625
1695469508369,-0.111328125,-0.9246216,0.1149292,19.84375,-18.953125,0.671875
1695469508409,-0.1706543,-0.9092407,0.14056396,25.671875,-20.484375,1.390625
1695469508449,-0.25732422,-1.0598755,-0.045959473,40.71875,-22.09375,0.234375
1695469508489,-0.28588867,-0.9439087,0.035827637,27.03125,2.40625,4.234375
1695469508529,-0.21459961,-1.0215454,0.08465576,3.796875,0.96875,6.140625
1695469508569,-0.16796875,-0.958313,0.055114746,5.84375,-1.125,2.078125
1695469508609,-0.17578125,-0.90631104,0.04510498,9.890625,0.09375,3.484375
1695469508649,-0.2631836,-0.99420166,0.035583496,11.015625,7.8125,4.203125
1695469508689,-0.39013672,-1.0823364,0.105895996,-0.09375,11.5,8.140625
1695469508729,-0.32055664,-1.217102,0.07269287,12.1875,28.453125,6.59375
1695469508769,-0.31982422,-1.1560669,0.08148193,-9.296875,16.78125,-10.40625
1695469508809,-0.23120117,-1.0100708,0.057800293,-7.71875,25.78125,-6.171875
1695469508849,-0.10498047,-0.93634033,0.0770874,-8.59375,19.921875,-8.84375
1695469508889,-0.13891602,-0.9014282,0.03729248,-12.828125,9.4375,-10.625
1695469508929,-0.18457031,-0.86431885,-6.1035156e-05,-10.3125,6.546875,-7.078125
1695469508969,-0.2211914,-0.93463135,0.041931152,-5.65625,0.546875,-2.828125
1695469509009,-0.24584961,-0.9710083,0.082458496,0.109375,-3.359375,-6.53125
1695469509049,-0.19042969,-0.93048096,0.11444092,-3.65625,-11.984375,-4.296875
1695469509089,-0.17871094,-0.90997314,0.10003662,-0.90625,-25.953125,3.734375
1695469509129,-0.16259766,-0.94903564,0.070007324,-0.125,-38.03125,8.875
1695469509169,-0.33666992,-0.9866333,0.022399902,-10.453125,-27.8125,6.734375
1695469509209,-0.29589844,-1.0003052,0.1161499,7.203125,-6.375,7.515625
1695469509249,-0.3334961,-1.1069946,0.19500732,4.421875,-1.453125,7.453125
1695469509289,-0.37719727,-1.0593872,0.113464355,-2.453125,3.59375,3.75
1695469509329,-0.29956055,-1.0481567,0.08392334,1.4375,4.28125,-0.625
1695469509369,-0.30932617,-1.0481567,0.105895996,-6.765625,2.390625,-9.0625
1695469509409,-0.29345703,-0.95562744,0.06463623,-0.765625,13.0625,-6.453125
1695469509449,-0.18652344,-0.9109497,0.054382324,-8.828125,7.0625,0.96875
1695469509489,-0.1928711,-1.0115356,0.08905029,-3.578125,0.234375,2.328125
1695469509529,-0.21118164,-0.9302368,0.0927124,-6.375,4.828125,2.984375
1695469509569,-0.18725586,-0.8953247,0.07196045,-2.859375,2.40625,4.71875
1695469509609,-0.16625977,-0.9006958,0.055603027,-0.015625,-0.578125,-0.9375
1695469509649,-0.15185547,-0.91485596,0.08343506,8.0625,-2.046875,-4.140625
1695469509689,-0.1706543,-0.9590454,0.13446045,1.078125,-15.640625,-2.703125
1695469509729,-0.18969727,-1.0757446,0.23260498,6.953125,-7.46875,-2.578125
1695469509769,-0.37890625,-0.9768677,0.09979248,12.109375,3.28125,1.59375
1695469509809,-0.30395508,-0.9680786,0.15374756,4.953125,-0.0625,4.40625
1695469509849,-0.19458008,-1.0471802,0.1449585,0.1875,-10.84375,6.578125
1695469509889,-0.28588867,-1.0281372,0.09881592,-7.890625,-10.5625,3.40625
1695469509929,-0.40893555,-0.9512329,0.061706543,-11.546875,4.59375,1.359375
1695469509969,-0.2775879,-1.0122681,0.07098389,-3.5625,12.515625,-3.9375
1695469510009,-0.1899414,-1.0142212,0.16107178,-5.4375,4.265625,-4.0625
1695469510049,-0.21972656,-0.960022,0.074645996,-14.03125,-3.25,-2.109375
1695469510089,-0.2368164,-0.8970337,0.11175537,-3.21875,2.625,-6.171875
1695469510129,-0.15673828,-0.9624634,0.13519287,-7.65625,1.1875,-3.5
1695469510169,-0.25732422,-0.87384033,0.10028076,-11.984375,-1.421875,1.03125
1695469510209,-0.22729492,-0.9209595,0.09906006,7.46875,10.3125,-4.921875
1695469510249,-0.13427734,-0.98687744,0.23724365,0.171875,-3.109375,-4.65625
1695469510289,-0.31274414,-0.9373169,0.07244873,7.65625,-4.09375,-1.890625
1695469510329,-0.20996094,-1.006897,0.093688965,4.390625,-6.671875,2.671875
1695469510369,-0.29296875,-0.98687744,0.15960693,3.359375,-15.609375,7.71875
1695469510409,-0.38452148,-1.0271606,0.13006592,-0.453125,-12.375,8.84375
1695469510449,-0.39013672,-1.0088501,0.13128662,2.21875,1.1875,3.703125
1695469510489,-0.3310547,-1.031311,0.117370605,-2.140625,8.5625,1.03125
1695469510529,-0.34204102,-1.0222778,0.16278076,-11.734375,-0.953125,-4.265625
1695469510569,-0.24951172,-0.98883057,0.023864746,15.0625,25.5,-8.484375
1695469510609,-0.38842773,-0.83135986,0.08026123,7.171875,11.5,-7.875
1695469510649,-0.02368164,-1.020813,0.14691162,-7.921875,0.234375,-1.0625
1695469510689,-0.1965332,-0.95928955,0.09124756,-8.859375,-8.625,3.75
1695469510729,-0.20288086,-0.96221924,0.089782715,-3.890625,-11.484375,5.734375
1695469510769,-0.30151367,-0.88897705,0.11199951,2.328125,-1.875,3.65625
1695469510809,-0.44555664,-0.93707275,0.13421631,2.265625,-3.15625,-8.21875
1695469510849,-0.27661133,-0.7908325,0.00579834,24.9375,19.484375,-4.40625
1695469510889,-0.05078125,-0.95880127,0.23724365,14.65625,-22.0625,5.203125
1695469510929,-0.25878906,-0.9885864,-0.0051879883,0.65625,-16.875,14.28125
1695469510969,-0.26953125,-1.1350708,0.09246826,10.59375,-8.59375,13.96875
1695469511009,-0.4140625,-1.0234985,0.030456543,4.359375,-0.265625,8.875
1695469511049,-0.38964844,-1.0786743,0.061462402,5.296875,6.015625,6.96875
1695469511089,-0.27514648,-1.0913696,0.054138184,-4.125,5.453125,3.046875
1695469511129,-0.23583984,-1.045227,0.086364746,-6.109375,8.109375,-2.484375
1695469511169,-0.18554688,-1.0195923,0.055847168,-5.34375,6.53125,-5.890625
1695469511209,-0.15454102,-0.9768677,0.04827881,-7.90625,3.328125,-2.359375
1695469511249,-0.19091797,-0.9570923,0.044128418,-11.875,2.765625,0.625
1695469511289,-0.19921875,-0.8557739,0.0119018555,-11.734375,-0.828125,-0.65625
1695469511329,-0.16870117,-0.91290283,0.043395996,-1.140625,-2.5625,-2.890625
1695469511369,-0.15917969,-0.9678345,0.082214355,6.09375,-2.03125,-1.15625
1695469511409,-0.1965332,-0.9758911,0.08001709,4.1875,-0.40625,1.796875
1695469511449,-0.18481445,-0.92315674,0.047546387,3.515625,-0.3125,4.015625
1695469511489,-0.17993164,-0.94073486,-0.013244629,5.25,-0.484375,3.890625
1695469511529,-0.16674805,-0.8670044,-0.06793213,14.3125,0.515625,2.578125
1695469511569,-0.15527344,-0.9126587,-0.0725708,16.28125,-9.40625,8.4375
1695469511609,-0.17016602,-0.94244385,-0.016418457,16.25,-12.890625,13.3125
1695469511649,-0.17138672,-0.97247314,0.024597168,20.65625,-5.671875,18.796875
1695469511689,-0.32495117,-1.1765747,0.042907715,15.765625,1.59375,20.921875
1695469511729,-0.37963867,-1.28302,-0.021057129,3.828125,1.015625,12.265625
1695469511769,-0.20263672,-1.3162231,0.010437012,-4.46875,4.71875,-2.984375
1695469511809,-0.09741211,-1.203186,0.035583496,-12.40625,4.234375,-12.453125
1695469511849,-0.14428711,-0.9663696,-0.058898926,-22.96875,3.859375,-13.90625
1695469511889,-0.13647461,-0.7786255,-0.054504395,-18.65625,3.21875,-10.5
1695469511929,-0.171875,-0.7481079,-0.10357666,-14.75,0.375,-5.015625
1695469511969,-0.0925293,-0.8596802,-0.10040283,-5.703125,-1.375,-2.140625
1695469512009,-0.06518555,-1.0444946,0.007507324,9.09375,-1.890625,0.984375
1695469512049,-0.1159668,-1.0540161,0.046325684,4.265625,1.484375,-0.921875
1695469512089,-0.140625,-0.92022705,-0.008361816,2.375,0.71875,-2.890625
1695469512129,-0.12890625,-0.79351807,-0.049621582,5.4375,-4.53125,-4.546875
1695469512169,-0.22509766,-0.8518677,-0.03765869,10.34375,-9.359375,3.140625
1695469512209,-0.3803711,-1.1941528,0.028503418,5.53125,-8.421875,11.046875
1695469512249,-0.46972656,-1.3621216,0.1005249,-13.921875,6.046875,9.734375
1695469512289,-0.27392578,-1.2058716,0.093444824,-12.953125,14.921875,-9.25
1695469512329,-0.14916992,-0.94659424,0.036315918,-17.09375,10.546875,-20.453125
1695469512369,-0.13110352,-0.9077759,-0.0076293945,-14.859375,2.65625,-20.96875
1695469512409,-0.24267578,-0.87628174,0.024597168,-15.984375,5.625,-10.828125
1695469512449,-0.19335938,-0.96417236,0.04925537,-13.46875,13.0625,-3.734375
1695469512489,-0.14038086,-0.97491455,0.029968262,-11.015625,4.71875,-7.015625
1695469512529,-0.18359375,-0.9221802,0.05291748,-3.9375,3.453125,-9.4375
1695469512569,-0.2043457,-0.8821411,0.10394287,-0.796875,4.484375,-2.265625
1695469512609,-0.17138672,-0.81988525,0.058776855,-3.5625,5.6875,3.71875
1695469512649,-0.21850586,-0.90826416,0.06488037,5.96875,-8.71875,6.921875
1695469512689,-0.23657227,-0.90948486,0.066589355,13.75,-13.859375,6.953125
1695469512729,-0.27026367,-1.0569458,0.1864624,19.75,-0.671875,10.71875
1695469512769,-0.4567871,-1.197815,0.14837646,0.078125,3.84375,15.234375
1695469512809,-0.44799805,-1.1694946,0.11444092,-12.25,3.703125,7.03125
1695469512849,-0.24511719,-1.1157837,0.11859131,-12.296875,5.515625,-2.71875
1695469512889,-0.20678711,-1.017395,0.14031982,-9.28125,4.59375,-11.6875
1695469512929,-0.23950195,-0.942688,0.08880615,-11.546875,9.921875,-10.90625
1695469512969,-0.28735352,-0.8477173,0.06439209,-12.671875,12.640625,-5.125
1695469513009,-0.24438477,-0.88360596,0.05609131,-9.625,14.375,-1.546875
1695469513049,-0.14331055,-0.94000244,0.1161499,-1.875,11.21875,-2.515625
1695469513089,-0.107910156,-0.94195557,0.15814209,0.875,3.59375,-3.203125
1695469513129,-0.14794922,-0.91119385,0.15423584,-1.53125,-1.875,1.453125
1695469513169,-0.14990234,-0.8711548,0.11468506,0.296875,-4.046875,3.78125
1695469513209,-0.18945312,-0.8735962,0.05218506,5.390625,-13.125,3.03125
1695469513249,-0.19702148,-0.90460205,0.098083496,12.390625,-16.90625,0.8125
1695469513289,-0.28881836,-1.0332642,0.16131592,18.03125,-7.453125,5.84375
1695469513329,-0.4711914,-1.166565,0.19281006,11.5625,0.4375,14.515625
1695469513369,-0.390625,-1.1228638,0.18328857,0.25,5.828125,6.546875
1695469513409,-0.25,-1.093811,0.1359253,-3.890625,3.53125,-1.3125
1695469513449,-0.18408203,-1.0432739,0.11981201,-4.734375,2.015625,-7.671875
1695469513489,-0.2277832,-0.9873657,0.1161499,-6.71875,1.46875,-6.3125
1695469513529,-0.2553711,-0.94732666,0.12200928,-9.484375,4.65625,-2.734375
1695469513569,-0.2397461,-0.88775635,0.055114746,-9.96875,4.953125,-2.53125
1695469513609,-0.20605469,-0.89068604,0.07537842,-2.03125,5.265625,-4.5
1695469513649,-0.15795898,-0.92803955,0.08099365,2.625,-1.0,-3.171875
1695469513689,-0.16455078,-0.92144775,0.10736084,0.8125,-4.59375,0.84375
1695469513729,-0.2253418,-0.9019165,0.09588623,1.609375,-6.171875,4.296875
1695469513769,-0.20141602,-0.8870239,0.06951904,0.296875,-10.234375,2.390625
1695469513809,-0.18945312,-0.87677,0.08514404,9.0,-14.5625,0.078125
1695469513849,-0.25097656,-1.0234985,0.12591553,16.5,-4.53125,1.328125
1695469513889,-0.51220703,-1.1289673,0.13641357,6.90625,-2.125,10.140625
1695469513929,-0.43847656,-1.1375122,0.1798706,0.4375,7.015625,9.796875
1695469513969,-0.3305664,-1.0855103,0.11859131,-5.21875,4.328125,-0.46875
1695469514009,-0.22265625,-1.0337524,0.10858154,-5.328125,0.703125,-9.5625
1695469514049,-0.2319336,-1.0286255,0.11981201,-5.09375,5.484375,-8.765625
1695469514089,-0.23413086,-0.9434204,0.07879639,-9.671875,6.9375,-7.078125
1695469514129,-0.20922852,-0.9019165,0.11785889,-5.5625,7.234375,-3.71875
1695469514169,-0.21679688,-0.9397583,0.09686279,-7.875,2.96875,-3.125
1695469514209,-0.2121582,-0.9319458,0.105895996,-7.6875,-2.484375,-5.15625
1695469514249,-0.23095703,-0.9553833,0.13397217,-6.1875,-2.96875,-1.75
1695469514289,-0.2319336,-0.93951416,0.113220215,-5.046875,2.984375,0.828125
1695469514329,-0.21777344,-0.8899536,0.08148193,-1.8125,7.78125,0.8125
1695469514369,-0.28442383,-0.91192627,0.0836792,2.90625,-1.453125,0.171875
1695469514409,-0.25317383,-0.9439087,0.12738037,4.21875,-3.40625,-1.25
1695469514449,-0.30029297,-0.9927368,0.13983154,0.734375,-4.15625,-0.6875
1695469514489,-0.3227539,-0.9812622,0.19891357,1.890625,-0.203125,0.0625
1695469514529,-0.37939453,-1.0545044,0.20355225,3.84375,0.796875,2.3125
1695469514569,-0.4152832,-1.0735474,0.17132568,-1.28125,2.515625,3.28125
1695469514609,-0.33642578,-1.00177,0.12298584,-5.625,1.34375,2.421875
1695469514649,-0.24951172,-0.92510986,0.15032959,-3.53125,1.484375,0.96875
1695469514689,-0.22631836,-0.8970337,0.1305542,-1.34375,1.890625,0.9375
1695469514729,-0.28149414,-0.95440674,0.12322998,-3.03125,1.25,-0.875
1695469514769,-0.29174805,-0.9751587,0.11541748,-2.40625,1.4375,-2.578125
1695469514809,-0.26904297,-0.9795532,0.1149292,-1.328125,6.0,-4.359375
1695469514849,-0.29125977,-0.9631958,0.14398193,-1.265625,7.9375,-4.375
1695469514889,-0.20898438,-0.9487915,0.14764404,3.203125,15.15625,-4.3125
1695469514929,-0.32055664,-0.9163208,0.11639404,-2.125,9.15625,-2.09375
1695469514969,-0.2915039,-0.86920166,0.12982178,-1.859375,2.59375,-4.09375
1695469515009,-0.23217773,-0.9585571,0.14959717,-1.734375,6.265625,-0.953125
1695469515049,-0.29223633,-0.9404907,0.17230225,-3.765625,2.125,-0.125
1695469515089,-0.33813477,-0.9783325,0.17327881,-7.515625,-2.921875,-0.25
1695469515129,-0.30297852,-1.0127563,0.24285889,-1.28125,-1.265625,3.1875
1695469515169,-0.31225586,-0.9968872,0.230896,-2.359375,-1.453125,2.25
1695469515209,-0.34277344,-0.9102173,0.25238037,2.46875,-6.15625,3.296875
1695469515249,-0.35864258,-1.0115356,0.14764404,0.015625,-11.515625,6.890625
1695469515289,-0.2397461,-0.96343994,0.15252686,-1.859375,-6.65625,1.390625
1695469515329,-0.2548828,-0.96661377,0.16448975,0.25,-5.859375,1.03125
1695469515369,-0.26489258,-0.93414307,0.1437378,-4.03125,-7.65625,-1.53125
1695469515409,-0.25317383,-0.93878174,0.16278076,-1.65625,-8.578125,-1.453125
1695469515449,-0.2685547,-0.9661255,0.11224365,-7.6875,-5.78125,-5.3125
1695469515489,-0.29003906,-0.9546509,0.13031006,-4.421875,-5.625,-4.09375
1695469515529,-0.23901367,-0.97491455,0.10760498,-7.9375,0.890625,-3.84375
1695469515569,-0.23632812,-0.9014282,0.18255615,-12.796875,-8.140625,-5.953125
1695469515609,-0.29614258,-0.9229126,0.20379639,-9.8125,-17.21875,-3.6875
1695469515649,-0.34692383,-0.9290161,0.24676514,-7.984375,-17.859375,0.015625
1695469515689,-0.42993164,-0.8855591,0.20257568,-4.203125,-14.9375,3.6875
1695469515729,-0.4152832,-0.9505005,0.19720459,-1.609375,-14.328125,3.78125
1695469515769,-0.4099121,-1.0432739,0.23162842,0.171875,-11.796875,4.71875
1695469515809,-0.35717773,-1.0025024,0.25091553,-1.234375,-10.3125,-1.21875
1695469515849,-0.3803711,-0.9812622,0.1930542,0.6875,-8.625,-1.203125
1695469515889,-0.34692383,-0.8599243,0.13665771,0.609375,-5.3125,2.125
1695469515929,-0.34643555,-0.85650635,0.117614746,4.53125,-5.765625,3.203125
1695469515969,-0.30566406,-0.8694458,0.1293335,8.953125,-4.15625,3.9375
1695469516009,-0.38134766,-0.97491455,0.18865967,8.0,-3.09375,7.328125
1695469516049,-0.36743164,-0.95928955,0.1762085,4.59375,-3.0625,9.203125
1695469516089,-0.2841797,-0.9163208,0.16888428,7.25,-2.625,11.65625
1695469516129,-0.14086914,-0.95025635,0.08782959,12.15625,-4.5,14.703125
1695469516169,-0.14233398,-0.9146118,0.093444824,11.765625,-10.6875,18.1875
1695469516209,-0.106933594,-0.91412354,0.117126465,11.125,-14.171875,16.75
1695469516249,-0.21044922,-1.0657349,0.17938232,7.8125,-19.453125,17.40625
1695469516289,-0.24584961,-1.1553345,0.23284912,-6.0625,-16.359375,6.328125
1695469516329,-0.2475586,-1.1482544,0.2296753,-4.875,-18.265625,-5.0
1695469516369,-0.25830078,-1.0317993,0.12249756,-5.21875,-13.28125,-12.4375
1695469516409,-0.1953125,-0.87677,0.113464355,-6.453125,-4.9375,-14.15625
1695469516449,-0.18969727,-0.9336548,0.09320068,-3.03125,-4.890625,-9.0625
1695469516489,-0.1875,-1.0740356,0.10247803,2.28125,1.21875,-1.34375
1695469516529,-0.2619629,-1.0286255,0.08416748,-4.40625,6.296875,1.421875
1695469516569,-0.29418945,-0.9031372,0.038024902,-3.921875,3.765625,-0.15625
1695469516609,-0.2915039,-0.8423462,-0.046447754,3.1875,1.109375,2.34375
1695469516649,-0.25854492,-0.8413696,-0.044006348,9.265625,3.796875,6.203125
1695469516689,-0.32641602,-0.96099854,-0.09112549,12.109375,-5.96875,8.46875
1695469516729,-0.33911133,-1.0366821,-0.08453369,12.125,-8.359375,6.53125
1695469516769,-0.4182129,-1.0969849,0.0040893555,7.78125,-7.53125,7.25
1695469516809,-0.4182129,-1.1104126,-0.032287598,-4.546875,-4.546875,3.578125
1695469516849,-0.3959961,-1.0261841,-0.06451416,-9.078125,-4.53125,-1.953125
1695469516889,-0.30444336,-0.9475708,-0.0491333,-12.75,-3.359375,-5.484375
1695469516929,-0.3034668,-0.85650635,-0.015930176,-12.859375,-3.109375,-5.46875
1695469516969,-0.30786133,-0.8245239,-0.038879395,-14.03125,-3.140625,-3.125
1695469517009,-0.24633789,-0.8381958,-0.047424316,-5.359375,-4.984375,1.390625
1695469517049,-0.30419922,-0.9133911,-0.04937744,-3.796875,-3.203125,8.234375
1695469517089,-0.30249023,-0.96417236,0.03753662,2.671875,-3.046875,11.375
1695469517129,-0.2434082,-1.0217896,0.07952881,8.671875,-3.015625,15.109375
1695469517169,-0.114746094,-0.99420166,0.057800293,8.15625,-3.953125,17.953125
1695469517209,-0.049072266,-0.9434204,0.03314209,8.953125,-8.53125,23.921875
1695469517249,-0.052978516,-0.89556885,0.0072631836,12.453125,-9.71875,27.90625
1695469517289,-0.16113281,-0.9404907,-0.015686035,12.09375,-13.71875,31.84375
1695469517329,-0.079833984,-1.0889282,0.017028809,14.1875,-4.078125,25.265625
1695469517369,0.037109375,-1.2127075,0.047058105,9.890625,-7.078125,15.234375
1695469517409,0.095458984,-1.2109985,0.043151855,0.71875,-11.640625,5.890625
1695469517449,0.06201172,-1.15094,-0.011291504,-10.296875,-19.125,-0.21875
1695469517489,0.03955078,-1.0408325,-0.028137207,-13.546875,-18.890625,-5.609375
1695469517529,0.03466797,-1.0308228,0.028259277,-15.53125,-15.359375,-7.5625
1695469517569,0.017333984,-0.96051025,0.010192871,-19.9375,-16.859375,-10.875
1695469517609,-0.010009766,-0.9429321,0.06585693,-11.046875,-16.546875,-9.21875
1695469517649,-0.017333984,-0.90948486,0.05657959,-10.5,-12.796875,-5.328125
1695469517689,-0.048095703,-0.88482666,0.06097412,-10.5,-12.78125,0.28125
1695469517729,-0.078125,-0.90826416,0.078063965,-5.828125,-10.484375,6.796875
1695469517769,-0.07446289,-0.95440674,0.07659912,-1.5625,-6.25,10.1875
1695469517809,-0.044921875,-0.94317627,0.08807373,5.890625,-2.859375,10.5
1695469517849,0.0048828125,-0.94488525,0.093933105,8.609375,-2.3125,11.765625
1695469517889,0.013427734,-0.94317627,0.066589355,10.0625,-0.40625,13.4375
1695469517929,0.032470703,-0.9771118,0.066101074,9.234375,0.6875,14.234375
1695469517969,0.0024414062,-1.102356,0.054138184,9.421875,2.109375,12.96875
1695469518009,0.053466797,-1.1030884,0.034606934,5.53125,-0.25,3.234375
1695469518049,0.099609375,-1.1209106,0.03387451,0.765625,-0.640625,-5.203125
1695469518089,0.051513672,-1.0681763,0.016296387,-4.578125,-1.34375,-8.78125
1695469518129,0.052490234,-1.0234985,0.018005371,-10.234375,-1.265625,-10.625
1695469518169,0.045654297,-1.0037231,0.04852295,-8.203125,-1.421875,-9.65625
1695469518209,0.0068359375,-0.9524536,0.051940918,-6.265625,-0.078125,-7.578125
1695469518249,0.0029296875,-0.9265747,0.04852295,-3.796875,-0.03125,-4.296875
1695469518289,0.0073242188,-0.90948486,0.04925537,-1.40625,2.4375,0.984375
1695469518329,0.029785156,-0.89727783,0.07611084,4.09375,5.28125,5.9375
1695469518369,0.03100586,-0.9224243,0.08001709,8.890625,10.65625,9.984375
1695469518409,0.016113281,-0.89190674,0.062194824,11.96875,11.5,8.9375
1695469518449,0.010253906,-1.0032349,0.0446167,15.78125,10.546875,7.453125
1695469518489,0.046875,-1.1746216,0.02923584,6.125,13.65625,-0.53125
1695469518529,0.022216797,-1.1970825,0.06414795,0.59375,12.734375,-10.421875
1695469518569,-0.043701172,-1.1594849,0.042419434,-3.203125,17.640625,-17.578125
1695469518609,-0.05883789,-1.1065063,0.0016479492,-4.4375,22.625,-22.046875
1695469518649,-0.060791016,-0.9824829,-0.03277588,-12.453125,24.28125,-26.078125
1695469518689,-0.0925293,-1.0049438,0.024841309,-13.421875,22.515625,-24.8125
1695469518729,-0.13208008,-1.0144653,0.007751465,-13.53125,17.609375,-21.796875
1695469518769,-0.16674805,-0.9192505,-0.03692627,-11.71875,19.78125,-17.21875
1695469518809,-0.14453125,-0.8501587,-0.027404785,-2.59375,18.34375,-12.671875
1695469518849,-0.22314453,-0.894104,0.0060424805,-3.828125,9.625,-5.109375
1695469518889,-0.24365234,-0.90289307,0.024108887,2.171875,8.375,0.03125
1695469518929,-0.14648438,-0.89727783,-0.02935791,3.734375,8.546875,2.25
1695469518969,-0.14208984,-0.9048462,-0.009338379,11.34375,7.515625,5.03125
1695469519009,-0.15332031,-0.9373169,0.02166748,16.640625,7.734375,10.15625
1695469519049,-0.25512695,-1.0115356,0.10247803,15.96875,11.734375,13.21875
1695469519089,-0.38867188,-1.144104,0.08123779,6.03125,13.171875,11.3125
1695469519129,-0.3383789,-1.2229614,0.038269043,8.21875,16.984375,2.125
1695469519169,-0.15527344,-1.190979,0.04559326,4.828125,22.59375,-9.359375
1695469519209,-0.14770508,-1.0420532,0.014099121,-4.34375,18.21875,-15.671875
1695469519249,-0.16333008,-0.9458618,-0.022033691,-9.109375,18.265625,-14.1875
1695469519289,-0.12133789,-0.91412354,-0.02520752,-9.59375,18.171875,-12.609375
1695469519329,-0.13793945,-0.92974854,-0.022521973,-8.46875,15.875,-12.59375
1695469519369,-0.15844727,-0.9495239,0.03704834,-3.859375,13.640625,-11.546875
1695469519409,-0.15673828,-0.925354,0.04827881,-3.140625,11.265625,-9.21875
1695469519449,-0.15185547,-0.91485596,0.08001709,2.0,9.5625,-3.59375
1695469519489,-0.19165039,-0.89068604,0.058776855,3.390625,7.0,2.796875
1695469519529,-0.19140625,-0.8982544,0.059753418,10.546875,6.796875,8.46875
1695469519569,-0.17675781,-0.94415283,0.055114746,11.09375,4.71875,11.8125
1695469519609,-0.23535156,-1.019104,0.074645996,12.328125,4.484375,15.875
1695469519649,-0.27490234,-1.1099243,0.057800293,7.453125,10.65625,14.859375
1695469519689,-0.28027344,-1.1448364,0.06756592,5.8125,12.703125,9.125
1695469519729,-0.21411133,-1.1521606,0.05706787,1.8125,13.78125,-0.328125
1695469519769,-0.16210938,-1.0640259,-0.0154418945,-6.265625,8.203125,-8.5
1695469519809,-0.13916016,-0.98150635,-0.0005493164,-9.671875,7.8125,-9.703125
1695469519849,-0.13500977,-0.9976196,0.008239746,-10.96875,8.671875,-8.015625
1695469519889,-0.18969727,-0.96295166,0.041931152,-9.8125,7.609375,-8.359375
1695469519929,-0.23217773,-0.8989868,0.009216309,-7.890625,6.296875,-9.015625
1695469519969,-0.15332031,-0.8550415,0.013122559,0.40625,5.9375,-7.15625
1695469520009,-0.11645508,-0.8657837,0.014587402,2.578125,2.0625,-0.84375
1695469520049,-0.16918945,-0.8755493,0.018981934,4.4375,-2.75,5.421875
1695469520089,-0.1730957,-0.91900635,0.023620605,8.46875,-2.5,8.203125
1695469520129,-0.24804688,-0.9898071,0.039001465,9.8125,-0.75,8.1875
1695469520169,-0.33618164,-1.0464478,0.062927246,11.765625,3.546875,9.390625
1695469520209,-0.28955078,-1.0122681,0.013366699,10.21875,8.390625,5.40625
1695469520249,-0.24047852,-0.96710205,0.014343262,15.90625,10.265625,4.421875
1695469520289,-0.27172852,-1.0215454,-0.032043457,12.625,7.75,5.578125
1695469520329,-0.30078125,-1.1367798,-0.04034424,9.390625,12.734375,2.59375
1695469520369,-0.2746582,-1.1502075,-0.012756348,5.609375,11.671875,-4.484375
1695469520409,-0.24047852,-1.0557251,-0.034973145,1.359375,9.09375,-9.953125
1695469520449,-0.21435547,-0.9692993,-0.043029785,-2.5625,4.578125,-8.625
1695469520489,-0.19189453,-0.9258423,-0.050598145,-7.734375,1.03125,-4.421875
1695469520529,-0.18896484,-0.92803955,-0.06549072,-12.421875,-0.8125,-0.0625
1695469520569,-0.18017578,-0.91778564,-0.04449463,-10.890625,-4.5625,-0.34375
1695469520609,-0.2121582,-0.90509033,-0.06842041,-8.515625,-11.109375,-0.125
1695469520649,-0.3161621,-0.9326782,-0.0569458,-1.34375,-12.5,2.515625
1695469520689,-0.29296875,-0.928772,-0.06842041,1.75,-9.578125,3.84375
1695469520729,-0.27929688,-0.9265747,-0.066711426,2.25,-6.96875,5.203125
1695469520769,-0.3618164,-0.97369385,-0.051330566,2.296875,-5.1875,9.8125
1695469520809,-0.4182129,-1.0542603,-0.027404785,-2.90625,-2.515625,8.21875
1695469520849,-0.4387207,-1.0996704,-0.022033691,-5.15625,0.6875,4.546875
1695469520889,-0.38012695,-1.0596313,-0.0635376,-9.046875,5.53125,-0.578125
1695469520929,-0.31201172,-1.0471802,-0.07159424,-10.828125,7.65625,-2.375
1695469520969,-0.19189453,-0.9631958,-0.020324707,-10.0625,7.234375,-4.046875
1695469521009,-0.13305664,-0.98394775,0.05340576,-5.484375,10.421875,-3.140625
1695469521049,-0.111572266,-0.9446411,0.06781006,-8.765625,6.609375,-5.703125
1695469521089,-0.122802734,-0.909729,0.015075684,-9.78125,1.28125,-5.265625
1695469521129,-0.123291016,-0.9170532,0.016784668,-1.046875,-2.0,-2.71875
1695469521169,-0.091796875,-0.9014282,0.023864746,5.234375,-0.84375,0.15625
1695469521209,-0.064697266,-0.8843384,0.032409668,4.375,-3.75,2.734375
1695469521249,-0.05517578,-0.8748169,0.055114746,9.265625,-9.765625,7.515625
1695469521289,0.017578125,-0.9505005,0.04901123,7.015625,-20.78125,10.265625
1695469521329,-0.13916016,-1.1680298,0.13861084,3.359375,-13.875,11.453125
1695469521369,-0.4321289,-1.2515259,0.24310303,-3.65625,-5.015625,12.53125
1695469521409,-0.26635742,-1.1685181,0.14813232,-4.1875,3.296875,-2.625
1695469521449,-0.1484375,-1.0518188,0.097595215,-3.71875,3.96875,-10.03125
1695469521489,-0.13549805,-1.0366821,0.10858154,-6.796875,6.28125,-12.03125
1695469521529,-0.123535156,-1.0720825,0.11151123,-16.3125,8.203125,-9.328125
1695469521569,-0.15600586,-0.9927368,0.109069824,-19.375,5.78125,-6.0
1695469521609,-0.15161133,-0.9170532,0.08782959,-14.96875,10.984375,-4.15625
1695469521649,-0.15698242,-0.8311157,0.042175293,-2.640625,8.171875,-4.09375
1695469521689,-0.09350586,-0.83599854,0.035339355,4.078125,2.859375,1.34375
1695469521729,-0.099121094,-0.90802,0.054382324,1.796875,-2.40625,5.84375
1695469521769,-0.1430664,-0.89019775,0.05682373,-0.5625,-8.765625,7.84375
1695469521809,-0.203125,-0.90460205,0.050720215,7.109375,-12.984375,8.140625
1695469521849,-0.23510742,-1.008606,0.10687256,13.546875,-0.984375,9.5
1695469521889,-0.36035156,-1.1189575,0.10418701,5.5625,0.59375,10.25
1695469521929,-0.3161621,-1.1607056,0.1281128,1.703125,4.640625,3.953125
1695469521969,-0.25268555,-1.1282349,0.08782959,-7.1875,3.96875,-1.921875
1695469522009,-0.23828125,-1.0374146,0.06756592,-7.203125,4.53125,-8.375
1695469522049,-0.25805664,-1.0352173,0.06414795,-5.046875,9.15625,-9.71875
1695469522089,-0.22363281,-0.9697876,0.011169434,-10.0625,8.0,-10.984375
1695469522129,-0.21044922,-0.94854736,0.043640137,-9.59375,10.875,-8.609375
1695469522169,-0.14331055,-0.928772,0.070739746,-8.1875,11.546875,-6.203125
1695469522209,-0.15771484,-0.9277954,0.10858154,-2.53125,3.765625,-3.828125
1695469522249,-0.15600586,-0.8897095,0.06390381,0.203125,0.671875,1.0
1695469522289,-0.16381836,-0.8245239,0.01776123,0.984375,-1.78125,4.84375
1695469522329,-0.17138672,-0.8208618,0.036315918,5.46875,-4.6875,7.875
1695469522369,-0.20532227,-0.9158325,0.077819824,13.46875,-9.984375,10.609375
1695469522409,-0.17529297,-1.0137329,0.073913574,12.515625,-6.671875,8.671875
1695469522449,-0.30908203,-1.142395,0.11907959,10.671875,-2.21875,11.453125
1695469522489,-0.31518555,-1.1287231,0.13275146,4.796875,4.5625,7.46875
1695469522529,-0.28759766,-1.1045532,0.09686279,0.171875,5.796875,1.03125
1695469522569,-0.2434082,-1.1321411,0.085632324,-1.578125,3.53125,-5.0625
1695469522609,-0.16601562,-1.0686646,0.06390381,-6.953125,2.421875,-10.046875
1695469522649,-0.21313477,-1.0025024,0.039245605,-8.515625,2.234375,-8.171875
1695469522689,-0.2211914,-0.93463135,0.032165527,-8.375,6.984375,-2.921875
1695469522729,-0.16772461,-0.8779907,0.016784668,-3.0,6.03125,-3.578125
1695469522769,-0.095458984,-0.9067993,0.030944824,0.640625,2.484375,-2.484375
1695469522809,-0.0925293,-0.8921509,0.030944824,0.484375,-2.203125,-0.21875
1695469522849,-0.14868164,-0.8513794,0.00091552734,1.65625,-6.703125,4.25
1695469522889,-0.17163086,-0.87579346,0.031433105,8.578125,-9.734375,7.609375
1695469522929,-0.18041992,-0.9834595,0.051940918,11.734375,-7.578125,8.359375
1695469522969,-0.26416016,-1.0862427,0.11834717,10.09375,-0.515625,8.734375
1695469523009,-0.3725586,-1.0794067,0.109558105,4.828125,-0.1875,6.8125
1695469523049,-0.26220703,-1.0635376,0.09490967,3.609375,5.859375,0.859375
1695469523089,-0.19482422,-1.1174927,0.059753418,-2.1875,1.578125,-1.0
1695469523129,-0.15332031,-1.0508423,-0.0017700195,-7.375,2.625,-5.921875
1695469523169,-0.17333984,-1.0481567,0.046569824,-9.515625,5.078125,-4.609375
1695469523209,-0.25097656,-1.0291138,0.046813965,-12.328125,7.0625,-5.6875
1695469523249,-0.18481445,-0.954895,0.0138549805,-7.40625,3.390625,-4.890625
1695469523289,-0.11743164,-0.89434814,0.019958496,-3.09375,4.890625,-4.6875
1695469523329,-0.16015625,-0.9109497,0.04168701,-4.453125,2.328125,-2.125
1695469523369,-0.14550781,-0.8633423,0.018493652,-4.015625,-2.515625,0.015625
1695469523409,-0.1652832,-0.9204712,0.061462402,-1.578125,-4.4375,4.046875
1695469523449,-0.17041016,-0.92388916,0.04949951,3.703125,-8.0,6.15625
1695469523489,-0.16870117,-0.956604,0.070495605,7.859375,-6.1875,5.640625
1695469523529,-0.2199707,-1.0410767,0.1317749,10.828125,0.484375,4.296875
1695469523569,-0.328125,-1.1028442,0.10491943,3.625,-0.171875,7.75
1695469523609,-0.27734375,-1.109436,0.105651855,0.0,3.046875,2.890625
1695469523649,-0.27441406,-1.1082153,0.09320068,-1.515625,3.671875,-0.953125
1695469523689,-0.16455078,-1.0420532,0.0006713867,-3.03125,4.46875,-8.359375
1695469523729,-0.11669922,-0.9541626,0.025817871,-4.671875,3.625,-7.671875
1695469523769,-0.17358398,-0.98028564,0.04852295,-10.296875,1.34375,-6.046875
1695469523809,-0.20776367,-0.95196533,0.024841309,-6.859375,1.578125,-5.296875
1695469523849,-0.17871094,-0.94122314,0.05682373,-3.9375,3.734375,-5.96875
1695469523889,-0.16235352,-0.9182739,0.041931152,-3.390625,0.890625,-4.609375
1695469523929,-0.19213867,-0.9048462,0.058288574,-3.546875,-0.1875,-0.390625
1695469523969,-0.1730957,-0.9216919,0.097351074,-0.03125,-2.8125,2.609375
1695469524009,-0.19873047,-0.960022,0.077819824,0.484375,-7.890625,4.59375
1695469524049,-0.16870117,-0.9561157,0.055603027,1.328125,-9.046875,2.453125
1695469524089,-0.3466797,-1.0159302,0.124694824,8.65625,-2.65625,5.34375
1695469524129,-0.3515625,-1.038147,0.13397217,3.53125,2.109375,6.5625
1695469524169,-0.2993164,-1.0720825,0.10443115,1.421875,3.140625,3.4375
1695469524209,-0.3125,-1.1065063,0.10247803,3.453125,4.4375,0.8125
1695469524249,-0.14575195,-1.0310669,0.026306152,3.78125,6.046875,-6.171875
1695469524289,-0.18041992,-0.97442627,0.04046631,0.6875,0.59375,-5.546875
1695469524329,-0.24780273,-0.93878174,0.011169434,-6.140625,4.15625,-1.8125
1695469524369,-0.2175293,-0.9595337,0.034362793,-0.4375,6.390625,-1.75
1695469524409,-0.18310547,-0.9241333,0.02142334,-1.59375,5.9375,-3.203125
1695469524449,-0.1640625,-0.92803955,0.031433105,-2.3125,0.09375,-1.890625
1695469524489,-0.17749023,-0.925354,0.015319824,-4.5,-3.671875,1.03125
1695469524529,-0.1730957,-0.9133911,0.059265137,1.671875,-6.390625,3.171875
1695469524569,-0.17138672,-0.92437744,0.04168701,2.25,-6.859375,5.5
1695469524609,-0.26708984,-1.0003052,0.08660889,3.296875,-4.6875,5.265625
1695469524649,-0.4272461,-1.085022,0.13079834,6.03125,-2.25,8.609375
1695469524689,-0.30395508,-1.098938,0.11077881,2.9375,7.359375,4.421875
1695469524729,-0.2854004,-1.0647583,0.061950684,-0.609375,5.34375,2.078125
1695469524769,-0.21777344,-1.0325317,0.031433105,-4.03125,7.8125,-2.125
1695469524809,-0.16674805,-1.0093384,0.025817871,-1.734375,9.046875,-2.03125
1695469524849,-0.16601562,-0.9829712,0.024353027,-6.09375,7.28125,-2.4375
1695469524889,-0.15771484,-0.9553833,0.03338623,-4.71875,6.6875,-2.171875
1695469524929,-0.15136719,-0.94488525,0.03338623,-2.953125,3.03125,-2.59375
1695469524969,-0.16113281,-0.89727783,0.018005371,-0.609375,-0.640625,-2.296875
1695469525009,-0.1472168,-0.89190674,0.01727295,-0.90625,-2.78125,-1.46875
1695469525049,-0.14672852,-0.9248657,0.048034668,0.15625,-6.90625,0.953125
1695469525089,-0.21875,-0.9751587,0.10467529,5.765625,-2.625,4.828125
1695469525129,-0.31030273,-1.015686,0.08538818,4.796875,-1.265625,8.765625
1695469525169,-0.24291992,-0.991272,0.06878662,4.171875,0.609375,5.21875
1695469525209,-0.21313477,-1.02594,0.09881592,6.484375,1.453125,6.59375
1695469525249,-0.22241211,-1.0671997,0.08709717,3.078125,0.625,5.046875
1695469525289,-0.22363281,-1.1065063,0.06756592,1.0625,4.671875,2.296875
1695469525329,-0.21191406,-1.0176392,-0.0020141602,-8.640625,3.734375,-2.0
1695469525369,-0.1887207,-1.0298462,0.034606934,-4.15625,5.171875,-3.5625
1695469525409,-0.18969727,-1.0349731,0.04437256,-7.59375,3.53125,-4.75
1695469525449,-0.17675781,-0.96710205,0.050231934,-9.6875,2.796875,-8.078125
1695469525489,-0.13647461,-0.91900635,0.030456543,-7.734375,4.453125,-8.765625
1695469525529,-0.13964844,-0.90411377,0.039489746,-6.984375,-0.21875,-5.75
1695469525569,-0.17504883,-0.88726807,0.055847168,-6.03125,-5.15625,-3.546875
1695469525609,-0.20727539,-0.90826416,0.08465576,-3.375,-5.34375,-0.046875
1695469525649,-0.21411133,-0.9343872,0.09637451,1.6875,-6.28125,2.1875
1695469525689,-0.21826172,-0.9678345,0.10418701,3.875,-4.0,2.640625
1695469525729,-0.26489258,-0.9985962,0.10076904,7.34375,-2.71875,5.125
1695469525769,-0.28515625,-1.022522,0.101745605,7.25,0.53125,7.21875
1695469525809,-0.23364258,-1.0100708,0.08343506,5.890625,3.265625,6.765625
1695469525849,-0.20410156,-1.050354,0.061706543,2.015625,3.015625,5.8125
1695469525889,-0.24023438,-1.1047974,0.10247803,-0.453125,5.34375,2.734375
1695469525929,-0.27026367,-1.06427,0.08148193,-1.828125,3.5,-1.125
1695469525969,-0.1887207,-0.98443604,0.035339355,-6.390625,4.703125,-6.109375
1695469526009,-0.16479492,-0.9661255,0.040222168,-3.375,2.859375,-5.1875
1695469526049,-0.15307617,-0.9495239,0.047058105,-6.484375,1.5,-4.75
1695469526089,-0.17895508,-0.90802,0.04437256,-5.140625,0.046875,-3.515625
1695469526129,-0.18774414,-0.8862915,0.03704834,-4.078125,-3.703125,-2.28125
1695469526169,-0.18701172,-0.95098877,0.06878662,2.140625,-4.0625,0.859375
1695469526209,-0.17749023,-0.9639282,0.08050537,4.140625,-4.078125,0.546875
1695469526249,-0.20361328,-0.93634033,0.07122803,6.59375,-6.296875,0.109375
1695469526289,-0.19677734,-1.02594,0.073913574,4.203125,-0.59375,0.3125
1695469526329,-0.3791504,-1.0584106,0.1227417,3.609375,1.390625,2.859375
1695469526369,-0.42456055,-1.0877075,0.14202881,-1.484375,7.6875,4.703125
1695469526409,-0.30273438,-1.019104,0.121032715,-0.6875,9.234375,-1.265625
1695469526449,-0.19702148,-1.0588989,0.058532715,-8.015625,7.171875,-4.65625
1695469526489,-0.16601562,-0.99176025,0.05316162,-7.578125,5.46875,-4.46875
1695469526529,-0.20361328,-0.9795532,0.0680542,-6.015625,6.21875,-1.796875
1695469526569,-0.21240234,-0.9006958,0.06878662,-5.3125,6.078125,-2.125
1695469526609,-0.16748047,-0.89556885,0.03656006,-2.328125,2.703125,-2.234375
1695469526649,-0.15185547,-0.92388916,0.058532715,-0.125,-2.671875,-1.65625
1695469526689,-0.17993164,-0.9380493,0.07537842,-0.171875,-7.484375,1.4375
1695469526729,-0.20336914,-0.9295044,0.085632324,3.03125,-6.40625,5.203125
1695469526769,-0.17333984,-0.92803955,0.043640137,3.796875,-8.859375,5.6875
1695469526809,-0.20507812,-0.9758911,0.09173584,7.15625,-6.90625,5.84375
1695469526849,-0.35742188,-1.0691528,0.10760498,6.109375,-2.828125,7.453125
1695469526889,-0.36889648,-1.0618286,0.13763428,3.78125,4.34375,5.703125
1695469526929,-0.2841797,-1.05719,0.07635498,-0.984375,3.6875,1.109375
1695469526969,-0.20751953,-1.052063,0.062683105,-0.6875,3.984375,-2.78125
1695469527009,-0.20800781,-1.0725708,0.098083496,-3.53125,3.71875,-4.703125
1695469527049,-0.23779297,-0.9907837,0.053894043,-7.421875,4.671875,-7.328125
1695469527089,-0.19213867,-0.9258423,0.020446777,-5.390625,3.203125,-6.296875
1695469527129,-0.19091797,-0.95684814,0.06512451,-1.96875,3.015625,-4.609375
1695469527169,-0.18334961,-0.9483032,0.054870605,-1.03125,0.21875,-4.953125
1695469527209,-0.19067383,-0.9031372,0.02532959,-2.984375,-3.0625,-3.15625
1695469527249,-0.18676758,-0.90289307,0.039978027,-2.625,-3.453125,0.53125
1695469527289,-0.24365234,-0.9187622,0.07122803,0.046875,-4.765625,3.265625
1695469527329,-0.2553711,-0.9590454,0.07952881,4.25,-4.15625,4.71875
1695469527369,-0.24072266,-0.9841919,0.07977295,7.09375,-2.140625,5.125
1695469527409,-0.27197266,-1.0117798,0.08270264,6.171875,-1.078125,7.71875
1695469527449,-0.28173828,-0.9990845,0.08050537,1.515625,2.703125,7.453125
1695469527489,-0.3010254,-1.0911255,0.09051514,-1.21875,5.984375,6.890625
1695469527529,-0.2770996,-1.0979614,0.09857178,-3.0625,5.34375,0.625
1695469527569,-0.19360352,-1.0462036,0.07977295,-3.34375,6.703125,-5.21875
1695469527609,-0.1784668,-1.0169067,0.07366943,-6.4375,2.4375,-6.734375
1695469527649,-0.22436523,-0.97662354,0.074401855,-5.84375,0.5625,-5.21875
1695469527689,-0.19897461,-0.9302368,0.074157715,-3.953125,2.671875,-3.953125
1695469527729,-0.21972656,-0.8936157,0.043151855,-4.390625,0.90625,-3.265625
1695469527769,-0.1743164,-0.88726807,0.023376465,-1.21875,-1.5625,-2.15625
1695469527809,-0.17529297,-0.9168091,0.04876709,-0.84375,-3.65625,0.484375
1695469527849,-0.23583984,-0.9365845,0.08441162,2.1875,-4.0,3.59375
1695469527889,-0.2722168,-0.95880127,0.08001709,4.421875,-2.390625,5.78125
1695469527929,-0.23022461,-0.9585571,0.05267334,7.84375,1.578125,5.8125
1695469527969,-0.23071289,-1.0037231,0.08343506,8.9375,3.546875,8.03125
1695469528009,-0.25610352,-1.036438,0.09075928,3.328125,3.03125,7.078125
1695469528049,-0.27514648,-1.0835571,0.09197998,0.921875,3.53125,6.578125
1695469528089,-0.23120117,-1.0715942,0.07244873,-1.53125,6.5625,0.375
1695469528129,-0.21533203,-1.0647583,0.04510498,3.34375,7.6875,-2.25
1695469528169,-0.16064453,-1.0046997,0.05682373,-0.390625,6.84375,-6.71875
1695469528209,-0.16015625,-0.95196533,0.027526855,-1.6875,5.21875,-6.9375
1695469528249,-0.17456055,-0.9331665,0.027038574,-2.65625,3.328125,-5.515625
1695469528289,-0.20239258,-0.93341064,0.027038574,-2.734375,0.1875,-5.234375
1695469528329,-0.20019531,-0.9277954,0.039978027,-2.625,-2.78125,-4.140625
1695469528369,-0.21118164,-0.92022705,0.059509277,-0.359375,-4.96875,-1.234375
1695469528409,-0.19995117,-0.91900635,0.058044434,3.390625,-5.390625,2.234375
1695469528449,-0.19140625,-0.9807739,0.04876709,7.296875,-5.40625,5.796875
1695469528489,-0.23706055,-0.9741821,0.04095459,7.03125,-2.65625,8.28125
1695469528529,-0.2993164,-1.0249634,0.05999756,6.859375,-1.28125,11.96875
1695469528569,-0.2692871,-1.0366821,0.043640137,5.0,1.625,10.875
1695469528609,-0.25,-1.0430298,0.035583496,4.671875,5.0625,9.828125
1695469528649,-0.21704102,-1.0652466,0.02557373,1.53125,2.34375,4.921875
1695469528689,-0.17919922,-1.046936,0.0079956055,-3.296875,3.59375,-0.078125
1695469528729,-0.17456055,-1.0005493,0.0065307617,-4.0,4.5625,-2.328125
1695469528769,-0.15014648,-1.000061,0.001159668,-4.125,4.3125,-4.5
1695469528809,-0.15991211,-0.99884033,0.005554199,-3.3125,1.890625,-6.203125
1695469528849,-0.18237305,-0.9602661,0.014343262,-4.390625,2.3125,-7.046875
1695469528889,-0.20141602,-0.9529419,0.011657715,-5.84375,1.046875,-6.421875
1695469528929,-0.21362305,-0.9192505,0.0138549805,-4.875,-0.265625,-5.015625
1695469528969,-0.18969727,-0.95318604,0.032165527,-1.71875,-0.9375,-1.328125
1695469529009,-0.19238281,-0.95684814,0.034606934,1.09375,-0.125,0.65625
1695469529049,-0.16308594,-0.98394775,0.026550293,4.09375,0.609375,2.4375
1695469529089,-0.2109375,-0.9758911,0.061462402,6.078125,2.6875,5.34375
1695469529129,-0.30249023,-1.0108032,0.034362793,2.578125,1.453125,9.8125
1695469529169,-0.2998047,-1.0371704,0.045837402,0.453125,4.75,8.1875
1695469529209,-0.24121094,-1.100647,0.070739746,1.828125,6.859375,3.953125
1695469529249,-0.16992188,-1.0479126,0.03265381,-5.328125,4.40625,-2.84375
1695469529289,-0.16333008,-0.98760986,0.007019043,-3.5,4.671875,-4.453125
1695469529329,-0.16845703,-0.9871216,0.042175293,-3.859375,4.21875,-4.296875
1695469529369,-0.17333984,-0.98028564,0.034851074,-7.40625,1.78125,-5.59375
1695469529409,-0.15234375,-0.9365845,0.04046631,-4.171875,0.28125,-4.828125
1695469529449,-0.1586914,-0.9258423,0.031921387,-4.015625,-2.953125,-4.609375
1695469529489,-0.1706543,-0.9109497,0.039489746,-0.671875,-4.921875,-1.28125
1695469529529,-0.18066406,-0.8989868,0.026794434,2.578125,-5.90625,3.078125
1695469529569,-0.18261719,-0.9014282,0.027526855,8.65625,-5.90625,8.140625
1695469529609,-0.20947266,-0.99664307,0.03289795,11.171875,-3.734375,11.65625
1695469529649,-0.22387695,-1.0422974,0.038269043,7.15625,-3.46875,11.046875
