timestamp,accel_x,accel_y,accel_z,gyro_x,gyro_y,gyro_z
1695471972450,-0.18432617,-0.9697876,0.031677246,-8.703125,-6.625,2.703125
1695471972490,-0.26245117,-0.96099854,0.049987793,-3.0,-2.890625,3.125
1695471972530,-0.18164062,-1.0183716,0.046813965,-0.421875,1.4375,1.015625
1695471972570,-0.0925293,-0.9993286,0.070495605,0.515625,3.265625,-2.125
1695471972610,-0.10864258,-0.9768677,0.06561279,0.984375,2.890625,0.25
1695471972650,-0.15625,-0.97540283,0.059265137,-5.6875,-0.15625,3.3125
1695471972690,-0.1953125,-0.958313,0.06488037,-6.21875,0.25,3.46875
1695471972730,-0.16088867,-1.0198364,0.07562256,-3.03125,1.96875,2.765625
1695471972770,-0.111816406,-1.0440063,0.09295654,-0.328125,4.609375,1.453125
1695471972810,-0.083984375,-0.9993286,0.07318115,-1.71875,2.71875,-0.96875
1695471972850,-0.095214844,-0.94659424,0.0770874,1.4375,-0.203125,-0.265625
1695471972890,-0.10595703,-1.0142212,0.08929443,0.734375,-0.4375,1.8125
1695471972930,-0.119628906,-1.0195923,0.08856201,-3.359375,-0.359375,1.078125
1695471972970,-0.115234375,-0.99786377,0.081726074,-3.484375,0.140625,0.8125
1695471973010,-0.1237793,-0.97662354,0.10784912,0.53125,1.484375,1.375
1695471973050,-0.15893555,-1.00177,0.09515381,-0.046875,1.796875,1.765625
1695471973090,-0.18481445,-0.9939575,0.0993042,0.578125,2.25,2.125
1695471973130,-0.15454102,-0.98931885,0.08392334,1.53125,3.71875,2.9375
1695471973170,-0.1274414,-0.960022,0.09295654,6.28125,2.734375,1.765625
1695471973210,-0.03149414,-1.013977,0.10223389,13.953125,2.359375,-1.125
1695471973250,-0.05834961,-1.0066528,0.020446777,9.921875,-5.96875,-4.15625
1695471973290,-0.10839844,-1.0232544,-0.015686035,5.171875,-7.984375,2.234375
1695471973330,-0.1418457,-1.0325317,0.0016479492,5.140625,0.84375,3.171875
1695471973370,-0.057617188,-1.022522,0.006286621,5.421875,10.484375,-0.28125
1695471973410,0.008300781,-0.93463135,0.020202637,2.28125,14.921875,-5.484375
1695471973450,-0.008544922,-0.9085083,0.018005371,-0.328125,5.53125,-7.453125
1695471973490,-0.16430664,-0.991272,-0.03375244,-11.5625,-8.5625,-1.578125
1695471973530,-0.27978516,-1.0706177,0.024108887,-6.390625,-6.921875,1.125
1695471973570,-0.1730957,-1.0606079,0.035827637,-3.3125,4.65625,-3.1875
1695471973610,-0.1381836,-0.9299927,0.07952881,6.109375,6.03125,-4.125
1695471973650,-0.18554688,-0.96417236,0.07904053,0.15625,4.953125,-0.015625
1695471973690,-0.12841797,-1.0039673,0.06829834,-8.8125,0.5625,0.5
1695471973730,-0.06591797,-1.0374146,0.03265381,-0.78125,-3.125,-0.5625
1695471973770,-0.12670898,-1.0401001,0.0016479492,-3.078125,-4.03125,2.015625
1695471973810,-0.19677734,-0.9717407,-0.0029907227,-3.5625,-0.75,1.828125
1695471973850,-0.15844727,-0.96759033,0.046081543,0.609375,-1.828125,-0.03125
1695471973890,-0.08081055,-0.9776001,0.03753662,0.453125,-3.5,-1.75
1695471973930,-0.12109375,-1.0171509,0.020690918,-5.046875,-4.375,-0.921875
1695471973970,-0.15942383,-0.98223877,0.007751465,-6.046875,-4.96875,0.453125
1695471974010,-0.20751953,-0.98565674,0.035827637,-4.53125,-2.03125,0.5625
1695471974050,-0.16870117,-1.0015259,0.113708496,-5.109375,-0.84375,4.109375
1695471974090,-0.11303711,-1.0466919,0.089782715,-0.28125,0.828125,3.5
1695471974130,-0.1274414,-0.98272705,0.078063965,-4.515625,2.09375,1.75
1695471974170,-0.1652832,-0.94488525,0.08050537,-2.765625,2.046875,0.4375
1695471974210,-0.1706543,-0.98394775,0.08050537,1.703125,2.890625,-1.03125
1695471974250,-0.140625,-1.0203247,0.07684326,-0.8125,1.875,-0.125
1695471974290,-0.14233398,-0.989563,0.051696777,-2.359375,0.265625,-1.125
1695471974330,-0.13061523,-0.9990845,0.05340576,-0.9375,0.0625,-1.0625
1695471974370,-0.09863281,-1.0137329,0.066833496,-1.34375,0.46875,1.40625
1695471974410,-0.12988281,-0.98321533,0.09124756,-0.9375,0.046875,2.578125
1695471974450,-0.13793945,-0.989563,0.09246826,-0.65625,0.0625,2.78125
1695471974490,-0.107177734,-0.98223877,0.06878662,-3.3125,1.34375,1.890625
1695471974530,-0.12548828,-1.0181274,0.07318115,-1.9375,0.96875,2.671875
1695471974570,-0.1394043,-1.0015259,0.07659912,-3.234375,-0.71875,1.0625
1695471974610,-0.14428711,-0.9915161,0.06488037,2.171875,-0.703125,2.203125
1695471974650,-0.10913086,-1.0125122,0.07366943,1.6875,1.1875,2.921875
1695471974690,-0.12084961,-0.9661255,0.078063965,-0.90625,2.203125,1.8125
1695471974730,-0.140625,-0.944397,0.09954834,1.671875,2.140625,1.953125
1695471974770,-0.17651367,-1.0217896,0.08319092,2.71875,1.125,3.796875
1695471974810,-0.107421875,-1.0044556,0.07952881,-4.515625,3.4375,1.6875
1695471974850,-0.02368164,-0.99102783,0.10662842,1.078125,4.140625,1.078125
1695471974890,0.0234375,-1.0791626,0.07928467,3.890625,2.78125,0.84375
1695471974930,-0.038085938,-1.048645,0.047058105,-1.78125,-1.234375,-0.859375
1695471974970,-0.1171875,-0.9483032,0.014343262,-8.265625,-3.828125,-1.5
1695471975010,-0.17871094,-0.90509033,0.08758545,-1.25,-1.8125,1.6875
1695471975050,-0.17358398,-1.0144653,0.06536865,-4.921875,-2.53125,3.984375
1695471975090,-0.1328125,-0.97491455,0.09857178,-5.75,-0.046875,-0.671875
1695471975130,-0.08227539,-1.0066528,0.12298584,-0.046875,1.859375,0.09375
1695471975170,-0.07104492,-1.0230103,0.12347412,0.078125,1.265625,1.96875
1695471975210,-0.09326172,-1.0254517,0.09906006,-3.0,-0.015625,-1.578125
1695471975250,-0.13842773,-0.9348755,0.08392334,-6.65625,-1.078125,-1.734375
1695471975290,-0.12915039,-0.94903564,0.124694824,8.671875,1.28125,3.34375
1695471975330,-0.08276367,-1.0667114,0.117126465,9.71875,-0.328125,4.234375
1695471975370,-0.08227539,-1.0476685,0.0680542,-3.796875,0.15625,0.265625
1695471975410,-0.1237793,-0.9307251,0.08026123,-1.296875,2.90625,-1.671875
1695471975450,-0.123291016,-0.9505005,0.08319092,3.171875,7.59375,-0.734375
1695471975490,-0.0715332,-1.0335083,0.08538818,-1.734375,9.53125,-0.6875
1695471975530,-0.07836914,-1.0442505,0.0758667,-4.359375,3.9375,-2.234375
1695471975570,-0.05444336,-0.9668579,0.11395264,1.828125,0.359375,-1.8125
1695471975610,-0.06933594,-1.039856,0.10296631,10.0625,-0.4375,0.765625
1695471975650,-0.087890625,-1.0200806,0.07318115,-3.53125,1.640625,-1.078125
1695471975690,-0.13500977,-0.94488525,0.0680542,-0.765625,-0.4375,-5.03125
1695471975730,-0.15454102,-0.97735596,0.09246826,3.21875,-1.09375,-1.734375
1695471975770,-0.15307617,-1.0264282,0.05731201,-3.203125,-1.40625,1.25
1695471975810,-0.13378906,-0.99346924,0.04095459,0.0,-0.53125,-0.265625
1695471975850,-0.10205078,-1.0100708,0.05633545,4.8125,1.390625,1.921875
1695471975890,-0.13110352,-1.0252075,0.078063965,4.375,3.09375,0.40625
1695471975930,-0.16235352,-0.97540283,0.07098389,1.984375,0.796875,-2.828125
1695471975970,-0.13916016,-0.9859009,0.062438965,-6.859375,-3.984375,-1.390625
1695471976010,-0.1418457,-0.99176025,0.057556152,-11.46875,-6.140625,2.3125
1695471976050,-0.079589844,-1.0811157,0.07196045,-4.171875,2.671875,3.34375
1695471976090,-0.09399414,-0.9776001,0.07635498,4.0625,3.703125,-0.578125
1695471976130,-0.1328125,-1.013977,0.07122803,11.234375,-0.640625,2.1875
1695471976170,-0.17944336,-0.97662354,0.04949951,-0.765625,1.609375,4.671875
1695471976210,-0.13085938,-0.9216919,0.042175293,1.234375,3.140625,5.078125
1695471976250,-0.020507812,-0.9807739,0.04095459,3.28125,5.203125,1.40625
1695471976290,-0.053466797,-0.99005127,0.07196045,8.015625,1.28125,-0.390625
1695471976330,-0.118652344,-1.0501099,0.05291748,-1.296875,-0.96875,1.15625
1695471976370,-0.071777344,-1.0056763,0.041931152,-5.984375,-1.40625,-0.09375
1695471976410,-0.08886719,-1.0012817,0.027526855,2.578125,-1.953125,0.890625
1695471976450,-0.11328125,-1.0093384,0.03753662,1.703125,-0.75,2.359375
1695471976490,-0.10522461,-1.0039673,0.042419434,-2.28125,0.609375,2.171875
1695471976530,-0.119140625,-0.9998169,0.07659912,2.40625,1.265625,3.046875
1695471976570,-0.11230469,-1.0115356,0.055847168,5.84375,1.328125,4.9375
1695471976610,-0.10058594,-0.9961548,0.015319824,-1.078125,0.453125,5.578125
1695471976650,-0.045654297,-0.9636841,0.005554199,-2.8125,1.09375,1.046875
1695471976690,-0.036132812,-0.97857666,0.038269043,2.0,1.28125,-0.640625
1695471976730,-0.040771484,-0.9990845,0.048034668,-1.4375,-2.34375,-0.296875
1695471976770,-0.09082031,-1.0066528,0.057556152,-4.453125,-5.140625,-0.90625
1695471976810,-0.13354492,-1.0493774,0.070495605,-5.25,-1.40625,0.9375
1695471976850,-0.06762695,-1.0527954,0.05267334,0.8125,4.796875,0.34375
1695471976890,-0.09448242,-0.9204712,0.04486084,6.984375,1.8125,-2.953125
1695471976930,-0.099365234,-1.003479,0.015075684,1.4375,2.3125,0.9375
1695471976970,-0.0546875,-1.0186157,0.018249512,-7.203125,4.40625,-0.40625
1695471977010,-0.06591797,-0.9751587,0.02142334,0.265625,-0.265625,-1.578125
1695471977050,-0.072509766,-1.0281372,0.026550293,-2.609375,-0.234375,0.4375
1695471977090,-0.100097656,-1.0171509,0.03314209,-6.203125,1.859375,-2.234375
1695471977130,-0.1574707,-0.96661377,0.0446167,1.6875,0.703125,-0.625
1695471977170,-0.12426758,-1.0054321,0.07293701,2.515625,-0.03125,2.3125
1695471977210,-0.091552734,-1.0276489,0.04510498,2.171875,-0.984375,1.171875
1695471977250,-0.0703125,-1.0093384,0.030700684,-0.359375,0.03125,0.234375
1695471977290,-0.061523438,-0.99176025,0.031433105,-0.984375,0.640625,-0.015625
1695471977330,-0.075683594,-0.9939575,0.044128418,-0.875,0.625,-0.5625
1695471977370,-0.099365234,-1.0090942,0.034606934,-1.828125,-2.0,-0.28125
1695471977410,-0.08325195,-1.0005493,0.046569824,-1.5625,0.9375,0.734375
1695471977450,-0.0715332,-1.0161743,0.035583496,-1.203125,2.703125,0.75
1695471977490,-0.06713867,-0.99053955,0.050231934,-2.0625,1.890625,-0.328125
1695471977530,-0.10424805,-0.98028564,0.059753418,-0.671875,2.375,-0.140625
1695471977570,-0.12402344,-0.9883423,0.0836792,0.296875,2.09375,0.0625
1695471977610,-0.10107422,-1.0308228,0.06854248,0.96875,1.28125,0.921875
1695471977650,-0.09692383,-1.0010376,0.04827881,-2.28125,1.609375,0.296875
1695471977690,-0.0625,-0.9788208,0.049743652,3.71875,1.625,0.0625
1695471977730,-0.071777344,-0.9841919,0.026794434,1.140625,0.75,-1.296875
1695471977770,-0.09472656,-1.0012817,0.050476074,1.078125,-0.9375,-1.421875
1695471977810,-0.10498047,-1.0342407,0.030212402,-0.25,-1.65625,-0.71875
1695471977850,-0.09643555,-0.98883057,0.032409668,3.265625,-0.8125,-0.03125
1695471977890,-0.12036133,-1.0291138,0.0006713867,5.484375,1.6875,2.1875
1695471977930,-0.123046875,-1.0046997,-0.0076293945,-4.703125,3.5625,0.640625
1695471977970,-0.09716797,-0.9939575,-0.019592285,-3.53125,1.625,1.734375
1695471978010,-0.075683594,-0.96099854,-0.0051879883,-1.921875,3.265625,0.09375
1695471978050,-0.07055664,-1.0247192,0.024597168,2.5625,3.28125,-0.84375
1695471978090,-0.099365234,-1.0186157,0.038269043,-2.484375,-0.1875,-0.90625
1695471978130,-0.11987305,-0.9939575,0.04901123,-2.03125,-0.015625,-0.578125
1695471978170,-0.10449219,-0.98443604,0.046325684,1.125,1.328125,0.703125
1695471978210,-0.11694336,-1.0281372,0.051208496,1.484375,3.296875,1.078125
1695471978250,-0.123535156,-1.0142212,0.046081543,-3.28125,3.375,0.859375
1695471978290,-0.12036133,-0.9595337,0.028747559,-4.265625,4.015625,1.203125
1695471978330,-0.09326172,-1.0049438,0.023864746,3.078125,3.875,1.734375
1695471978370,-0.049316406,-1.0100708,0.048034668,2.609375,2.328125,2.03125
1695471978410,-0.06713867,-1.0064087,0.04901123,2.578125,0.515625,2.703125
1695471978450,-0.07495117,-0.9937134,0.050720215,3.25,2.328125,2.109375
1695471978490,-0.080078125,-0.9771118,0.02557373,2.25,5.09375,2.578125
1695471978530,-0.08618164,-0.9697876,0.019470215,1.734375,6.6875,2.234375
1695471978570,-0.07788086,-0.9963989,0.024841309,1.265625,4.0625,1.546875
1695471978610,-0.07104492,-1.0286255,0.026550293,-1.953125,2.921875,-0.25
1695471978650,-0.088134766,-1.0244751,0.011657715,-1.859375,1.46875,-0.578125
1695471978690,-0.09692383,-1.0081177,0.012145996,2.359375,1.40625,-0.6875
1695471978730,-0.07836914,-0.99786377,0.003112793,2.34375,4.03125,-2.328125
1695471978770,-0.08935547,-0.9678345,0.0026245117,2.234375,5.375,-2.21875
1695471978810,-0.08325195,-0.95806885,-0.0029907227,-0.6875,3.015625,0.421875
1695471978850,-0.087402344,-1.0298462,0.0026245117,-3.140625,1.03125,2.546875
1695471978890,-0.07885742,-1.0457153,0.027038574,-3.453125,1.84375,1.375
1695471978930,-0.0637207,-1.0205688,0.015563965,1.953125,2.15625,1.484375
1695471978970,-0.08081055,-0.9800415,0.013122559,2.0,1.125,0.21875
1695471979010,-0.08984375,-0.99053955,0.00970459,-0.375,-0.453125,0.234375
1695471979050,-0.0625,-1.0144653,0.02142334,-2.140625,-0.703125,1.359375
1695471979090,-0.05883789,-1.0300903,-0.011779785,-4.21875,0.625,1.84375
1695471979130,-0.049560547,-0.9685669,-0.023986816,-4.234375,-1.5,1.28125
1695471979170,-0.060546875,-0.97979736,0.007507324,2.46875,-4.109375,1.484375
1695471979210,-0.09057617,-1.0093384,0.005065918,-1.078125,-3.171875,2.765625
1695471979250,-0.08691406,-1.0210571,0.048034668,-3.359375,-0.609375,2.0
1695471979290,-0.0637207,-1.0359497,0.03265381,-3.859375,2.265625,0.28125
1695471979330,-0.052490234,-0.958313,0.038024902,2.21875,0.796875,-3.046875
1695471979370,-0.07324219,-0.9824829,0.014831543,0.953125,-0.28125,-1.328125
1695471979410,-0.07080078,-0.9898071,0.012145996,-4.578125,0.765625,-1.078125
1695471979450,-0.084472656,-0.9907837,0.030212402,-1.03125,1.296875,-2.1875
1695471979490,-0.07739258,-1.0247192,0.049987793,-1.375,3.0,0.640625
1695471979530,-0.068847656,-1.0042114,0.036315918,-2.328125,3.453125,-1.890625
1695471979570,-0.07324219,-0.9883423,0.050720215,2.515625,1.953125,-1.5625
1695471979610,-0.08569336,-1.0281372,0.030212402,-0.828125,0.734375,0.109375
1695471979650,-0.09838867,-0.99884033,0.030456543,-2.03125,1.890625,-1.484375
1695471979690,-0.08691406,-0.9981079,0.028259277,0.421875,1.953125,-0.703125
1695471979730,-0.07910156,-0.99835205,0.031433105,0.734375,1.90625,-1.53125
1695471979770,-0.09863281,-0.98931885,0.016296387,-2.09375,-0.109375,-1.96875
1695471979810,-0.115478516,-0.9968872,0.034851074,-2.328125,-0.421875,-0.53125
1695471979850,-0.11035156,-1.0288696,0.032409668,-3.28125,1.109375,0.234375
1695471979890,-0.09350586,-1.0134888,0.022399902,-2.90625,2.171875,-0.515625
1695471979930,-0.10229492,-0.9834595,0.023376465,0.0625,0.046875,-0.890625
1695471979970,-0.11791992,-0.98931885,0.028015137,0.78125,0.03125,-0.21875
1695471980010,-0.119384766,-0.98760986,0.035583496,-2.34375,1.75,-0.640625
1695471980050,-0.10571289,-0.9951782,0.04144287,-0.640625,0.6875,-0.546875
1695471980090,-0.10571289,-1.0108032,0.036315918,-0.953125,-0.046875,-0.109375
1695471980130,-0.09423828,-1.0083618,0.04876709,-0.546875,0.15625,-0.171875
1695471980170,-0.10668945,-0.99224854,0.042663574,0.75,1.078125,0.875
1695471980210,-0.12402344,-0.9812622,0.042663574,0.28125,2.546875,1.28125
1695471980250,-0.106933594,-1.0042114,0.04852295,-0.546875,2.078125,0.921875
1695471980290,-0.09082031,-1.0093384,0.054626465,-1.546875,1.171875,0.0625
1695471980330,-0.103759766,-1.0025024,0.04119873,-0.9375,0.5,0.484375
1695471980370,-0.10864258,-1.000061,0.039245605,-1.953125,1.484375,-0.1875
1695471980410,-0.08569336,-1.0056763,0.034362793,-0.75,2.03125,0.46875
1695471980450,-0.09375,-0.9944458,0.022888184,-1.53125,1.984375,0.609375
1695471980490,-0.088378906,-0.99224854,0.039489746,0.515625,0.671875,0.546875
1695471980530,-0.10571289,-0.991272,0.046569824,1.03125,0.890625,0.796875
1695471980570,-0.10913086,-1.0095825,0.04046631,0.640625,1.78125,1.171875
1695471980610,-0.115722656,-1.0100708,0.03753662,-1.34375,0.109375,0.71875
1695471980650,-0.10131836,-0.99835205,0.04876709,0.25,-1.078125,0.296875
1695471980690,-0.08276367,-0.9981079,0.039978027,1.0625,-0.28125,0.15625
1695471980730,-0.08862305,-0.9973755,0.030456543,-0.8125,-0.6875,-0.34375
1695471980770,-0.095947266,-0.9871216,0.038757324,-1.546875,-0.78125,-0.34375
1695471980810,-0.114746094,-1.003479,0.031921387,-0.21875,-0.125,0.203125
1695471980850,-0.09033203,-1.0010376,0.043884277,-1.421875,1.296875,-0.15625
1695471980890,-0.09472656,-1.0039673,0.04437256,-2.484375,1.734375,-0.703125
1695471980930,-0.087890625,-0.9795532,0.05267334,-3.421875,0.796875,-0.609375
1695471980970,-0.10961914,-0.99005127,0.059265137,-1.046875,-0.3125,-0.796875
1695471981010,-0.11206055,-1.0151978,0.06414795,0.6875,0.5,-0.203125
1695471981050,-0.10473633,-1.0012817,0.04510498,-0.3125,1.828125,-0.78125
1695471981090,-0.10864258,-0.986145,0.03265381,-2.0,1.390625,-1.0625
1695471981130,-0.110839844,-0.99346924,0.049743652,-0.890625,1.140625,-0.40625
1695471981170,-0.11230469,-1.0227661,0.03387451,-0.625,0.421875,0.1875
1695471981210,-0.10986328,-0.989563,0.027526855,-0.90625,0.75,-0.609375
1695471981250,-0.11425781,-0.97076416,0.042175293,1.078125,0.8125,-0.375
1695471981290,-0.11791992,-1.0029907,0.042907715,0.0625,1.234375,-0.09375
1695471981330,-0.10913086,-1.015686,0.039001465,-2.953125,0.796875,-0.984375
1695471981370,-0.11791992,-0.9961548,0.06072998,-0.828125,1.625,-0.078125
1695471981410,-0.14111328,-0.9866333,0.061950684,0.671875,1.015625,0.96875
1695471981450,-0.15307617,-1.0188599,0.039733887,-1.34375,0.875,1.390625
1695471981490,-0.12475586,-0.9873657,0.054382324,-1.90625,2.375,0.65625
1695471981530,-0.099121094,-0.9985962,0.055847168,-1.640625,2.703125,0.59375
1695471981570,-0.12036133,-1.0066528,0.057800293,-3.125,2.5625,0.25
1695471981610,-0.14526367,-1.008606,0.055847168,-2.671875,5.046875,0.65625
1695471981650,-0.20605469,-0.9668579,0.039978027,0.453125,9.09375,-0.953125
1695471981690,-0.16918945,-0.9385376,0.10272217,0.453125,12.390625,-4.625
1695471981730,-0.049072266,-1.0435181,0.070251465,6.0,18.046875,-3.953125
1695471981770,-0.0625,-1.0647583,0.022644043,4.078125,13.046875,-1.625
1695471981810,-0.1274414,-0.9456177,0.04925537,1.96875,6.0625,-1.453125
1695471981850,-0.18603516,-0.96295166,0.021911621,4.359375,8.1875,2.359375
1695471981890,-0.15039062,-1.0298462,-0.004211426,4.03125,11.234375,4.671875
1695471981930,-0.07885742,-1.0142212,0.025817871,-0.953125,7.515625,3.5
1695471981970,-0.10253906,-1.0012817,0.015808105,-5.359375,3.796875,2.609375
1695471982010,-0.12402344,-0.98101807,0.06414795,2.828125,2.109375,1.03125
1695471982050,-0.123046875,-1.0059204,0.0289917,4.921875,3.875,-2.28125
1695471982090,-0.1159668,-0.9902954,-0.0032348633,2.40625,4.484375,-1.265625
1695471982130,-0.11669922,-1.029602,-0.010314941,-2.015625,0.96875,1.609375
1695471982170,-0.103027344,-1.0027466,0.015319824,-2.8125,-0.03125,2.03125
1695471982210,-0.11035156,-1.024231,0.045837402,1.734375,0.8125,1.203125
1695471982250,-0.080078125,-1.0198364,0.070495605,-0.421875,2.0625,0.609375
1695471982290,-0.06640625,-1.0032349,0.062683105,-4.15625,0.53125,2.3125
1695471982330,-0.084228516,-0.99664307,0.038757324,-8.0625,-0.21875,2.5625
1695471982370,-0.107910156,-0.9578247,0.058532715,-3.5625,-0.109375,-0.28125
1695471982410,-0.123291016,-0.9483032,0.07366943,1.875,0.21875,-2.984375
1695471982450,-0.1081543,-0.99468994,0.053894043,5.546875,-0.796875,-3.8125
1695471982490,-0.10620117,-1.003479,0.050964355,2.03125,-0.671875,-2.703125
1695471982530,-0.12060547,-0.99835205,0.046325684,-1.609375,1.84375,-0.640625
1695471982570,-0.12231445,-0.98101807,0.050720215,-0.8125,3.625,-0.90625
1695471982610,-0.115234375,-1.0056763,0.06121826,0.796875,4.140625,-1.515625
1695471982650,-0.103271484,-0.98516846,0.047790527,0.828125,4.84375,-2.203125
1695471982690,-0.107421875,-0.99053955,0.04144287,2.671875,2.625,-2.125
1695471982730,-0.09814453,-1.0020142,0.024597168,1.953125,1.359375,-2.0625
1695471982770,-0.107421875,-0.99468994,0.026550293,1.796875,0.609375,-2.84375
1695471982810,-0.13867188,-0.9902954,0.0036010742,0.765625,-0.015625,-3.109375
1695471982850,-0.15576172,-0.99957275,0.012878418,1.765625,-0.203125,-3.09375
1695471982890,-0.15649414,-1.0012817,0.016296387,1.5625,-1.640625,-3.1875
1695471982930,-0.16796875,-1.0122681,0.0053100586,0.765625,-1.296875,-3.046875
1695471982970,-0.20581055,-0.9829712,-0.007873535,0.484375,-0.484375,-2.71875
1695471983010,-0.18115234,-0.9871216,-0.0068969727,-0.1875,0.78125,-3.171875
1695471983050,-0.1796875,-0.9915161,0.0211792,0.71875,0.5625,-2.859375
1695471983090,-0.17016602,-1.0137329,0.014099121,-0.671875,-0.015625,-1.890625
1695471983130,-0.18652344,-1.0137329,-0.009094238,-2.015625,0.9375,-1.8125
1695471983170,-0.21972656,-0.9570923,-0.002746582,-1.984375,1.15625,-2.078125
1695471983210,-0.2590332,-0.98443604,0.016784668,1.0625,-0.453125,-0.453125
1695471983250,-0.20288086,-1.0010376,0.027526855,-1.3125,-0.234375,-0.375
1695471983290,-0.1538086,-1.0081177,0.016052246,1.34375,-0.21875,-1.34375
1695471983330,-0.16577148,-0.9981079,-0.039123535,-2.125,1.03125,-2.125
1695471983370,-0.16845703,-1.00177,-0.01373291,-1.6875,3.828125,-4.71875
1695471983410,-0.19677734,-0.9602661,0.034362793,-0.71875,2.109375,-3.859375
1695471983450,-0.16235352,-0.9692993,0.042419434,2.59375,3.875,-3.609375
1695471983490,-0.13427734,-1.0337524,0.042907715,-0.5,3.71875,-3.71875
1695471983530,-0.15527344,-0.9834595,0.034851074,-7.328125,0.53125,-2.828125
1695471983570,-0.20678711,-0.9702759,0.008239746,-1.703125,-0.140625,-4.421875
1695471983610,-0.25708008,-0.9788208,0.0138549805,1.375,-4.515625,-5.71875
1695471983650,-0.2824707,-0.9561157,0.020446777,-1.25,-3.734375,-6.03125
1695471983690,-0.3022461,-0.9680786,0.024597168,-1.28125,-0.546875,-4.703125
1695471983730,-0.24194336,-0.93878174,0.047058105,0.171875,-0.125,-4.359375
1695471983770,-0.25048828,-1.0042114,0.020446777,2.78125,-1.296875,-2.96875
1695471983810,-0.25,-1.010315,0.01727295,-1.859375,-0.375,1.515625
1695471983850,-0.26879883,-1.0059204,0.02947998,-2.875,0.484375,2.734375
1695471983890,-0.24707031,-1.0012817,0.035095215,-3.5625,2.671875,2.671875
1695471983930,-0.21435547,-0.9390259,0.038024902,-5.5,3.171875,2.890625
1695471983970,-0.08251953,-0.9866333,0.1671753,3.390625,-3.203125,9.984375
1695471984010,-0.15966797,-0.9990845,0.13739014,5.203125,-2.921875,10.953125
1695471984050,-0.1694336,-0.9612427,0.1359253,4.046875,3.375,8.421875
1695471984090,-0.059570312,-0.92559814,0.13153076,7.8125,4.5,3.84375
1695471984130,0.022705078,-1.0222778,0.1083374,11.953125,1.3125,1.328125
1695471984170,0.0009765625,-1.0288696,0.137146,9.578125,-1.390625,-2.03125
1695471984210,-0.05053711,-0.9846802,0.10882568,5.5,-5.171875,-0.46875
1695471984250,-0.12939453,-1.0342407,0.07220459,4.953125,-3.109375,5.640625
1695471984290,-0.09399414,-0.9558716,0.082458496,2.21875,2.15625,3.296875
1695471984330,-0.0024414062,-0.9546509,0.058044434,6.625,2.09375,0.984375
1695471984370,0.00048828125,-1.0449829,0.062927246,6.890625,-0.40625,-0.1875
1695471984410,-0.06518555,-1.0059204,0.06951904,6.28125,-3.140625,-4.46875
1695471984450,-0.060302734,-1.0039673,0.024353027,10.5,-0.625,-5.21875
1695471984490,-0.091552734,-1.0134888,-0.00079345703,2.859375,-1.84375,-2.546875
1695471984530,-0.12084961,-0.96466064,0.028503418,-3.96875,-1.921875,-0.796875
1695471984570,-0.13549805,-1.0044556,0.0033569336,-4.671875,-0.296875,0.234375
1695471984610,-0.1784668,-1.0144653,0.031921387,-0.171875,-0.9375,0.078125
1695471984650,-0.14233398,-1.0132446,0.040222168,5.375,2.359375,0.046875
1695471984690,-0.10107422,-1.0151978,0.01751709,7.0625,2.28125,0.84375
1695471984730,-0.06982422,-0.99298096,0.005065918,3.125,3.0,0.28125
1695471984770,-0.07055664,-1.0061646,-0.020812988,-1.0625,1.40625,1.40625
1695471984810,-0.07885742,-0.9890747,0.0006713867,-1.9375,-1.234375,1.015625
1695471984850,-0.12548828,-1.0366821,-0.01739502,-2.453125,-2.015625,1.703125
1695471984890,-0.13574219,-1.0044556,-0.039855957,-5.5625,-0.71875,1.0625
1695471984930,-0.111083984,-0.9690552,-0.019592285,1.015625,1.984375,-0.140625
1695471984970,-0.088378906,-0.9710083,-0.011291504,2.0,6.3125,-0.109375
1695471985010,-0.04345703,-1.020813,-0.005432129,-3.8125,7.0625,-0.578125
1695471985050,-0.03857422,-0.9961548,0.028259277,-6.625,4.90625,-1.578125
1695471985090,-0.076660156,-1.0061646,0.039489746,-5.640625,2.15625,-0.1875
1695471985130,-0.12963867,-0.92633057,0.0053100586,0.390625,3.578125,-4.46875
1695471985170,-0.18334961,-0.9434204,0.010681152,-4.953125,3.328125,-2.046875
1695471985210,-0.15966797,-0.9949341,0.043640137,-1.8125,4.34375,-0.96875
1695471985250,-0.122558594,-1.0361938,0.034362793,1.265625,5.421875,-0.703125
1695471985290,-0.13305664,-1.0078735,0.012634277,2.265625,5.21875,0.4375
1695471985330,-0.1081543,-1.0183716,0.024597168,2.4375,2.5625,2.546875
1695471985370,-0.09741211,-0.9976196,0.018493652,-1.96875,0.40625,2.4375
1695471985410,-0.11010742,-0.9763794,-0.002746582,-3.21875,-0.359375,1.3125
1695471985450,-0.091796875,-0.9771118,-0.015197754,-3.609375,-1.390625,-0.484375
1695471985490,-0.10620117,-1.0396118,-0.015930176,-8.078125,-3.453125,-0.140625
1695471985530,-0.118896484,-1.0227661,0.023620605,-8.734375,-2.9375,1.53125
1695471985570,-0.1472168,-0.9944458,0.0033569336,-8.796875,1.640625,1.546875
1695471985610,-0.19750977,-0.9241333,0.042663574,0.3125,4.953125,0.515625
1695471985650,-0.20922852,-0.9668579,0.061950684,-3.65625,2.734375,2.84375
1695471985690,-0.13232422,-1.0183716,0.070739746,-2.90625,2.03125,3.5625
1695471985730,-0.060302734,-1.078186,0.049987793,3.53125,5.046875,4.15625
1695471985770,-0.06762695,-1.0032349,0.034118652,2.0625,5.5,1.359375
1695471985810,-0.072265625,-0.9898071,0.014587402,0.703125,1.796875,0.4375
1695471985850,-0.038085938,-0.9663696,0.026550293,-5.34375,-0.265625,1.375
1695471985890,-0.0625,-0.9981079,0.036071777,-2.9375,-0.015625,3.140625
1695471985930,-0.0871582,-0.9885864,0.039733887,0.234375,-0.3125,0.875
1695471985970,-0.111328125,-1.0142212,0.030456543,5.21875,-1.125,0.203125
1695471986010,-0.11279297,-0.9951782,0.041931152,5.390625,-0.734375,1.5625
1695471986050,-0.08178711,-0.9956665,0.06488037,2.875,2.96875,2.078125
1695471986090,-0.031982422,-0.99468994,0.08856201,-2.65625,5.296875,-0.6875
1695471986130,-0.057617188,-1.0215454,0.049743652,-0.4375,-1.25,-0.1875
1695471986170,-0.11352539,-0.99224854,0.010437012,4.3125,0.8125,-0.09375
1695471986210,-0.15039062,-0.9873657,0.0026245117,-11.03125,-0.140625,-0.859375
1695471986250,-0.104003906,-0.91070557,0.08392334,3.625,0.25,1.421875
1695471986290,-0.0690918,-1.107727,-0.0049438477,12.96875,0.953125,1.203125
1695471986330,-0.026367188,-1.0327759,0.016784668,-4.203125,-0.015625,-0.15625
1695471986370,-0.02734375,-0.90826416,0.042419434,-5.78125,-5.5,-0.5625
1695471986410,-0.048828125,-0.96954346,0.01776123,0.09375,-9.96875,-1.46875
1695471986450,-0.083496094,-1.0650024,0.028015137,0.578125,-9.328125,-2.265625
1695471986490,-0.16015625,-0.9883423,0.028503418,3.5,-6.4375,0.5625
1695471986530,-0.1394043,-0.94781494,0.01776123,2.484375,-4.625,1.34375
1695471986570,-0.10498047,-0.98883057,0.02166748,6.25,-4.453125,0.671875
1695471986610,-0.09082031,-1.0049438,0.012145996,3.453125,-2.359375,0.390625
1695471986650,-0.09399414,-0.99957275,0.01727295,1.875,-2.5625,-0.578125
1695471986690,-0.109375,-1.019104,0.0033569336,1.40625,-2.953125,-0.53125
1695471986730,-0.08959961,-1.0288696,-0.030334473,-1.171875,-1.953125,0.0625
1695471986770,-0.07739258,-0.9529419,0.010437012,7.5625,-2.90625,-2.25
1695471986810,-0.060302734,-0.9883423,-0.0029907227,8.703125,-1.6875,-7.328125
1695471986850,-0.12988281,-1.0632935,-0.05279541,2.171875,0.453125,-7.84375
1695471986890,-0.13549805,-0.90802,-0.038146973,0.703125,3.359375,-6.125
1695471986930,-0.1875,-1.019104,-0.06011963,4.578125,2.125,1.671875
1695471986970,-0.19824219,-1.0742798,-0.07281494,-7.5625,3.9375,5.859375
1695471987010,-0.13964844,-1.0164185,-0.051818848,2.59375,0.875,4.734375
1695471987050,-0.08959961,-0.9734497,-0.0960083,3.53125,0.5625,1.3125
1695471987090,-0.09887695,-0.9627075,-0.09136963,1.8125,-3.046875,-1.109375
1695471987130,-0.12158203,-0.98931885,-0.07232666,-1.046875,-4.46875,-0.84375
1695471987170,-0.12719727,-1.0015259,-0.05230713,-1.390625,-3.90625,-0.703125
1695471987210,-0.13330078,-1.0037231,-0.05328369,0.484375,-3.84375,0.953125
1695471987250,-0.11279297,-1.0039673,-0.042541504,2.9375,-2.40625,2.125
1695471987290,-0.13232422,-0.9805298,-0.04864502,4.0625,-2.765625,2.5625
1695471987330,-0.13476562,-1.0115356,-0.06378174,3.640625,-2.09375,2.03125
1695471987370,-0.11425781,-1.0108032,-0.07232666,1.0625,0.609375,-0.078125
1695471987410,-0.09106445,-0.98883057,-0.07696533,-0.3125,2.8125,-0.65625
1695471987450,-0.09838867,-0.9993286,-0.06329346,-1.6875,4.265625,-0.203125
1695471987490,-0.12524414,-0.9990845,-0.06915283,-4.46875,6.296875,-0.53125
1695471987530,-0.14453125,-0.9751587,-0.07159424,-2.25,5.703125,-0.296875
1695471987570,-0.14770508,-0.9990845,-0.07965088,-4.5625,6.390625,-0.234375
1695471987610,-0.12670898,-1.0171509,-0.06768799,-1.9375,8.28125,-1.28125
1695471987650,-0.13574219,-0.99591064,-0.085998535,-3.234375,9.015625,-2.390625
1695471987690,-0.115722656,-1.0005493,-0.09088135,-2.78125,10.015625,-3.53125
1695471987730,-0.11010742,-0.99102783,-0.07183838,-4.578125,10.171875,-3.640625
1695471987770,-0.1159668,-0.99664307,-0.065979004,-3.5,8.125,-3.0
1695471987810,-0.115722656,-1.0029907,-0.06011963,-5.90625,6.765625,-2.109375
1695471987850,-0.1159668,-1.0183716,-0.0256958,-4.1875,4.796875,-1.125
1695471987890,-0.12915039,-0.99713135,-0.0064086914,-4.546875,1.4375,-0.96875
1695471987930,-0.16503906,-0.973938,0.028259277,-7.515625,-0.4375,-1.390625
1695471987970,-0.11206055,-0.99835205,0.030944824,-12.15625,-0.234375,-1.328125
1695471988010,-0.12890625,-1.0305786,0.025817871,-4.140625,-1.359375,0.96875
1695471988050,-0.13989258,-1.0484009,0.022644043,-5.875,-7.53125,2.375
1695471988090,-0.1159668,-0.9751587,-0.057434082,-9.0625,-19.125,1.140625
1695471988130,-0.18652344,-1.0930786,0.0021362305,-6.015625,-16.0625,-0.21875
1695471988170,-0.26123047,-0.97442627,0.03387451,-3.03125,-4.140625,-4.1875
1695471988210,-0.21508789,-0.93634033,-0.008117676,-0.3125,1.953125,-2.6875
1695471988250,-0.125,-0.9859009,-0.009338379,-1.765625,2.984375,1.6875
1695471988290,-0.15795898,-1.0083618,0.008239746,1.765625,3.34375,0.0
1695471988330,-0.2006836,-0.9500122,-0.024230957,0.453125,3.96875,-3.0625
1695471988370,-0.18530273,-0.96417236,-0.022033691,-1.703125,2.9375,-0.5
1695471988410,-0.0949707,-1.039856,0.011169434,-4.859375,-1.71875,-0.046875
1695471988450,-0.13867188,-1.0762329,-0.012512207,-5.765625,0.03125,-0.921875
1695471988490,-0.24121094,-0.9663696,-0.013244629,-11.453125,4.203125,-3.3125
1695471988530,-0.22973633,-0.8831177,0.010681152,-5.828125,4.671875,-2.109375
1695471988570,-0.23217773,-0.97979736,0.05340576,5.484375,5.078125,0.8125
1695471988610,-0.27001953,-1.0098267,0.034118652,1.484375,3.96875,1.625
1695471988650,-0.22241211,-0.975647,0.06707764,8.28125,1.046875,2.140625
1695471988690,-0.19799805,-1.02594,0.026794434,7.078125,-2.453125,1.578125
1695471988730,-0.15356445,-0.9990845,0.027526855,8.3125,-5.84375,1.578125
1695471988770,-0.15527344,-1.0476685,-0.0005493164,10.28125,-5.734375,2.390625
1695471988810,-0.15234375,-1.013977,-0.009338379,2.578125,-1.53125,0.625
1695471988850,-0.14453125,-0.9717407,-0.057922363,-2.53125,-0.125,-1.265625
1695471988890,-0.1508789,-0.92852783,-0.06329346,-4.671875,0.6875,-1.15625
1695471988930,-0.15209961,-0.9553833,-0.057434082,0.84375,-0.859375,-1.921875
1695471988970,-0.118896484,-1.0515747,-0.059143066,2.109375,-2.484375,-0.234375
1695471989010,-0.13476562,-1.0154419,-0.029846191,-1.109375,-2.21875,1.015625
1695471989050,-0.17480469,-1.0090942,-0.045959473,-4.34375,3.3125,1.671875
1695471989090,-0.22509766,-0.9951782,-0.065979004,-9.3125,11.015625,2.484375
1695471989130,-0.2866211,-0.9277954,-0.07305908,-6.640625,16.609375,0.796875
1695471989170,-0.26953125,-0.90826416,-0.025939941,5.03125,13.359375,2.1875
1695471989210,-0.19702148,-1.0510864,-0.054260254,3.328125,10.15625,6.921875
1695471989250,-0.18530273,-1.0960083,-0.03741455,-0.515625,3.96875,10.828125
1695471989290,-0.07324219,-0.9993286,0.042663574,4.046875,3.890625,8.09375
1695471989330,-0.01953125,-1.0269165,0.00091552734,8.375,2.609375,5.171875
1695471989370,-0.1184082,-0.9529419,-0.06500244,-1.828125,1.203125,3.09375
1695471989410,-0.18798828,-0.9031372,-0.05230713,-0.125,-0.921875,3.28125
1695471989450,-0.1418457,-0.9656372,-0.05206299,-1.453125,-2.71875,4.0625
1695471989490,-0.08251953,-1.0740356,-0.042541504,-3.921875,-4.5625,5.84375
1695471989530,-0.033935547,-1.060852,0.0018920898,1.640625,-0.25,7.140625
1695471989570,-0.011962891,-1.0217896,0.012390137,2.546875,3.8125,5.734375
1695471989610,-0.016601562,-0.9561157,-0.04815674,-5.59375,5.515625,3.578125
1695471989650,-0.12011719,-0.92437744,-0.026428223,-7.203125,4.796875,4.078125
1695471989690,-0.13330078,-0.9902954,0.027526855,-2.015625,7.375,3.53125
1695471989730,-0.12109375,-1.0527954,-0.030822754,-4.578125,10.65625,4.0625
1695471989770,-0.045654297,-0.99884033,0.026794434,-1.265625,8.640625,2.984375
1695471989810,0.0036621094,-0.9898071,0.047058105,2.28125,6.328125,2.671875
1695471989850,-0.049804688,-1.029602,0.038757324,1.40625,2.59375,2.234375
1695471989890,-0.052734375,-0.98272705,0.027770996,-0.515625,0.953125,-0.6875
1695471989930,-0.035888672,-1.0020142,-0.003967285,1.421875,0.53125,-1.453125
1695471989970,-0.04345703,-1.0012817,0.0040893555,-1.34375,-3.71875,-0.875
1695471990010,-0.072021484,-1.0352173,-0.024475098,-6.125,-2.09375,-0.40625
1695471990050,-0.08935547,-1.0176392,-0.02520752,-4.34375,1.890625,-1.28125
1695471990090,-0.103515625,-0.9990845,-0.0413208,-1.03125,7.875,-2.984375
1695471990130,-0.07104492,-0.9795532,-0.031066895,-1.84375,8.34375,-5.171875
1695471990170,-0.06958008,-0.9824829,-0.0335083,-0.921875,5.203125,-3.625
1695471990210,-0.05810547,-1.0234985,-0.0256958,-1.90625,3.4375,-1.03125
1695471990250,-0.080566406,-1.0244751,-0.02520752,-3.90625,3.375,-2.234375
1695471990290,-0.10595703,-1.0032349,-0.010559082,-1.046875,3.078125,-2.46875
1695471990330,-0.08325195,-1.0012817,-0.012268066,-0.53125,1.734375,-3.3125
1695471990370,-0.080078125,-0.9768677,0.012390137,0.578125,0.75,-4.625
1695471990410,-0.15136719,-1.0200806,0.00091552734,0.796875,2.71875,-1.484375
1695471990450,-0.22167969,-1.0234985,-0.0020141602,-4.90625,5.0625,1.1875
1695471990490,-0.07714844,-1.0046997,-0.035949707,-6.25,3.703125,-2.203125
1695471990530,0.011230469,-1.0166626,0.043151855,-0.84375,7.25,-1.5625
1695471990570,-0.037597656,-1.0093384,0.0368042,-7.546875,-0.78125,-0.21875
1695471990610,-0.07885742,-0.9470825,0.08514404,-4.984375,-8.390625,-2.9375
1695471990650,-0.09716797,-0.97052,0.09857178,-2.234375,-9.40625,-1.203125
1695471990690,-0.15771484,-1.0010376,0.098083496,-1.734375,-10.09375,0.625
1695471990730,-0.24609375,-1.0046997,0.062438965,-4.1875,-6.609375,2.125
1695471990770,-0.171875,-0.9817505,0.06317139,-4.828125,-0.5625,0.0
1695471990810,-0.09838867,-1.0042114,0.070251465,-2.734375,1.671875,-1.296875
1695471990850,-0.13110352,-0.9890747,0.08758545,-2.390625,-1.296875,1.09375
1695471990890,-0.12915039,-0.9998169,0.07952881,-4.703125,-1.953125,3.375
1695471990930,-0.11816406,-0.9558716,0.06707764,-2.609375,-0.484375,2.328125
1695471990970,-0.1616211,-0.9805298,0.051940918,1.984375,0.46875,1.578125
1695471991010,-0.1381836,-1.0286255,0.06732178,5.234375,4.78125,1.15625
1695471991050,-0.12670898,-1.0574341,0.022888184,-0.140625,4.515625,1.9375
1695471991090,-0.10668945,-0.90411377,0.06317139,-0.453125,4.859375,-0.296875
1695471991130,-0.104003906,-0.944397,0.057556152,4.203125,5.5,0.8125
1695471991170,-0.13989258,-1.0054321,0.047058105,-3.890625,2.65625,0.234375
1695471991210,-0.096191406,-1.0471802,0.086364746,-6.03125,2.484375,1.28125
1695471991250,-0.119140625,-0.9961548,0.09490967,2.125,-0.625,3.03125
1695471991290,-0.14282227,-1.0379028,0.059265137,4.890625,-2.34375,3.09375
1695471991330,-0.08911133,-1.0015259,0.05657959,0.28125,-1.734375,3.15625
1695471991370,-0.071777344,-0.9800415,0.059265137,-0.203125,-2.921875,2.890625
1695471991410,-0.08569336,-0.9932251,0.058532715,0.53125,-2.9375,2.234375
1695471991450,-0.09008789,-1.0269165,0.046813965,-3.25,-1.265625,2.609375
1695471991490,-0.07348633,-1.0025024,0.042907715,-3.109375,1.109375,2.75
1695471991530,-0.050048828,-0.97906494,0.02557373,-0.984375,-0.953125,2.5625
1695471991570,-0.061279297,-0.9976196,0.032409668,3.1875,-1.6875,2.203125
1695471991610,-0.07910156,-0.99835205,0.054626465,2.5,2.40625,0.140625
1695471991650,-0.052490234,-1.0161743,0.028015137,2.96875,5.484375,-1.40625
1695471991690,-0.06201172,-0.9873657,0.018005371,1.109375,5.40625,-1.484375
1695471991730,-0.09082031,-0.99957275,0.018005371,-1.9375,4.640625,-1.984375
1695471991770,-0.1027832,-1.017395,0.023132324,-1.375,4.515625,-2.453125
1695471991810,-0.103515625,-1.0025024,0.054870605,-0.34375,4.78125,-3.0625
1695471991850,-0.06713867,-1.0132446,0.04901123,0.890625,6.453125,-4.359375
1695471991890,-0.1027832,-0.9529419,0.07269287,2.65625,3.875,-3.84375
1695471991930,-0.14672852,-1.0098267,0.04949951,2.65625,1.84375,-3.890625
1695471991970,-0.119628906,-1.0432739,0.031188965,0.515625,3.59375,-3.515625
1695471992010,-0.14648438,-1.0178833,0.018737793,3.515625,5.84375,-2.703125
1695471992050,-0.16040039,-1.0012817,-0.0010375977,0.0625,6.203125,-4.109375
1695471992090,-0.1105957,-0.9968872,0.007019043,-3.359375,6.71875,-5.28125
1695471992130,-0.09106445,-0.991272,0.039978027,-1.03125,6.921875,-4.875
1695471992170,-0.13891602,-0.97320557,0.023620605,-0.453125,6.40625,-4.453125
1695471992210,-0.16064453,-0.95098877,0.046325684,3.59375,5.484375,-3.140625
1695471992250,-0.24975586,-1.0147095,0.015075684,5.890625,4.5625,-1.078125
1695471992290,-0.17675781,-1.0352173,0.0045776367,-1.40625,4.046875,-3.09375
1695471992330,-0.09838867,-1.0098267,0.04876709,1.234375,3.640625,-4.203125
1695471992370,-0.15258789,-1.0015259,0.047546387,-0.34375,1.921875,-3.65625
1695471992410,-0.18432617,-0.9602661,0.032165527,-1.953125,-0.015625,-5.0
1695471992450,-0.19262695,-0.9849243,0.02923584,-0.890625,-0.734375,-3.5
1695471992490,-0.19506836,-1.006897,0.03289795,-0.546875,0.734375,-1.3125
1695471992530,-0.19018555,-1.0071411,0.027526855,-2.484375,2.40625,-1.09375
1695471992570,-0.16455078,-0.9898071,0.030212402,-4.59375,5.015625,0.578125
1695471992610,-0.15698242,-0.9751587,0.03704834,-2.921875,3.46875,1.015625
1695471992650,-0.18139648,-0.95513916,0.06536865,-3.875,0.390625,1.40625
1695471992690,-0.23022461,-0.97369385,0.07928467,-1.734375,-2.515625,3.484375
1695471992730,-0.21362305,-1.0217896,0.061950684,-2.234375,-7.125,6.46875
1695471992770,-0.17236328,-1.0112915,0.07489014,-0.671875,-6.15625,5.421875
1695471992810,-0.18676758,-0.9771118,0.066833496,-0.15625,-5.328125,4.28125
1695471992850,-0.16625977,-0.9631958,0.06781006,0.03125,-6.5,1.90625
1695471992890,-0.16137695,-0.95562744,0.07904053,1.09375,-7.25,2.1875
1695471992930,-0.14916992,-1.0127563,0.06585693,0.234375,-8.171875,6.09375
1695471992970,-0.2006836,-1.0015259,0.03289795,-1.734375,-5.125,8.53125
1695471993010,-0.18530273,-1.0076294,0.011169434,-0.0625,-3.875,9.796875
1695471993050,-0.14453125,-1.0066528,0.0060424805,0.421875,0.28125,6.71875
1695471993090,-0.1184082,-0.9890747,0.05316162,2.5,2.109375,5.96875
1695471993130,-0.08862305,-0.986145,0.04852295,2.75,1.34375,4.203125
1695471993170,-0.09277344,-0.97076416,0.027526855,1.578125,2.125,2.90625
1695471993210,-0.10913086,-0.97906494,0.012145996,0.171875,0.625,3.578125
1695471993250,-0.100097656,-1.0300903,0.0018920898,0.546875,0.5625,4.703125
1695471993290,-0.051513672,-1.05719,0.020690918,3.875,-0.140625,5.125
1695471993330,-0.030517578,-1.0120239,0.015808105,0.515625,0.859375,4.375
1695471993370,-0.025146484,-0.9668579,-0.0005493164,2.0625,0.53125,2.671875
1695471993410,-0.028076172,-0.9937134,0.006286621,3.265625,0.734375,0.328125
1695471993450,-0.06542969,-0.99591064,0.0004272461,-1.125,0.609375,0.28125
1695471993490,-0.09472656,-0.9968872,-0.0071411133,-1.171875,1.21875,0.5625
1695471993530,-0.09106445,-1.0342407,-0.00982666,-0.359375,0.875,0.796875
1695471993570,-0.07128906,-1.0093384,-0.0056762695,1.828125,2.09375,1.0
1695471993610,-0.06665039,-1.003479,-0.02960205,1.625,1.859375,0.0625
1695471993650,-0.057617188,-1.0115356,-0.02960205,-2.5,1.015625,-0.484375
1695471993690,-0.0637207,-1.0056763,-0.015686035,-2.953125,0.015625,-1.03125
1695471993730,-0.09033203,-1.0064087,-0.004211426,-2.078125,-1.40625,-2.1875
1695471993770,-0.07788086,-1.0183716,-0.004211426,-2.6875,-1.0625,-2.375
1695471993810,-0.08129883,-1.0076294,0.00091552734,-1.375,-1.375,-2.09375
1695471993850,-0.09033203,-1.0093384,0.011413574,-2.15625,-1.421875,-2.203125
1695471993890,-0.087890625,-0.98809814,0.018981934,-4.203125,-0.21875,-1.890625
1695471993930,-0.09716797,-1.006897,0.03363037,-2.21875,0.46875,-1.421875
1695471993970,-0.119628906,-1.0032349,0.023376465,-4.5,0.6875,-1.578125
1695471994010,-0.095703125,-0.9907837,0.034118652,-3.640625,0.875,-1.5
1695471994050,-0.09277344,-1.0117798,0.0289917,-2.015625,0.375,-1.6875
1695471994090,-0.10131836,-0.98760986,0.036071777,-2.375,0.59375,-2.59375
1695471994130,-0.10180664,-0.99053955,0.03289795,-2.59375,0.15625,-2.171875
1695471994170,-0.123046875,-1.0025024,0.044128418,-2.890625,-0.171875,-1.765625
1695471994210,-0.123046875,-1.0010376,0.0446167,-2.359375,0.09375,-1.6875
1695471994250,-0.1184082,-0.98760986,0.0446167,0.609375,-1.03125,-1.421875
1695471994290,-0.106933594,-0.97906494,0.042663574,1.15625,-2.53125,-1.171875
1695471994330,-0.107910156,-0.9807739,0.0770874,5.8125,-5.84375,-0.71875
1695471994370,-0.13842773,-1.0130005,0.097839355,14.71875,-8.421875,1.265625
1695471994410,-0.16137695,-1.0090942,0.008728027,14.03125,-8.09375,2.59375
1695471994450,-0.14257812,-1.0117798,-0.061340332,7.015625,-1.96875,5.1875
1695471994490,-0.119628906,-0.97735596,-0.041809082,0.234375,-1.03125,4.390625
1695471994530,-0.1315918,-1.0020142,-0.04156494,0.875,-2.421875,1.6875
1695471994570,-0.11035156,-1.0164185,-0.03692627,-1.125,-1.984375,-0.375
1695471994610,-0.10229492,-0.98394775,-0.023986816,-9.1875,-2.046875,-1.125
1695471994650,-0.08129883,-0.9854126,-0.0037231445,-9.671875,-1.4375,-0.75
1695471994690,-0.08129883,-0.99224854,0.021911621,-5.5,-1.46875,-0.5625
1695471994730,-0.14550781,-1.0130005,0.019714355,-3.109375,-0.65625,1.15625
1695471994770,-0.13867188,-1.0066528,0.040222168,-0.171875,0.96875,2.796875
1695471994810,-0.12695312,-0.99420166,0.034606934,4.59375,2.0625,3.359375
1695471994850,-0.0769043,-1.0125122,0.02508545,5.40625,5.125,3.671875
1695471994890,-0.078125,-0.9949341,0.006286621,-3.75,2.25,3.203125
1695471994930,-0.09643555,-0.99591064,0.014587402,2.28125,0.828125,3.671875
1695471994970,-0.09350586,-1.0264282,-0.0115356445,-0.703125,0.265625,2.921875
1695471995010,-0.05517578,-0.9968872,-0.014709473,-0.5625,-1.34375,1.078125
1695471995050,-0.057861328,-0.9915161,-0.019592285,1.28125,0.0625,0.890625
1695471995090,-0.03955078,-0.97247314,-0.03253174,-4.703125,-2.59375,-1.84375
1695471995130,-0.030761719,-0.8845825,-0.028381348,-7.671875,-3.234375,-4.3125
1695471995170,-0.072753906,-1.0064087,0.027038574,4.21875,-2.375,-1.4375
1695471995210,-0.18017578,-1.0613403,0.031433105,-6.234375,-4.109375,0.203125
1695471995250,-0.15527344,-1.0142212,0.0016479492,-1.109375,0.3125,0.375
1695471995290,-0.0703125,-1.0261841,-0.009094238,8.8125,2.640625,0.859375
1695471995330,-0.043945312,-1.0044556,0.0014038086,2.4375,3.0625,0.4375
1695471995370,-0.068359375,-0.97003174,-0.012023926,-4.875,0.1875,-1.09375
1695471995410,-0.083496094,-0.9727173,0.0045776367,-6.421875,1.609375,-1.8125
1695471995450,-0.075927734,-1.0098267,0.010925293,-7.984375,1.28125,-1.578125
1695471995490,-0.09423828,-1.0261841,0.023620605,-10.28125,0.03125,-2.171875
1695471995530,-0.1472168,-1.010315,0.054138184,2.671875,0.96875,-0.375
1695471995570,-0.1875,-1.0112915,0.008239746,1.390625,-0.046875,1.5
1695471995610,-0.09790039,-0.9976196,-0.0005493164,1.3125,0.40625,1.609375
1695471995650,-0.076416016,-1.0007935,0.034606934,1.9375,0.296875,0.578125
1695471995690,-0.083496094,-0.9998169,0.029724121,-0.703125,0.953125,-1.59375
1695471995730,-0.099121094,-0.9915161,0.027770996,-4.6875,0.4375,-1.25
1695471995770,-0.11230469,-0.9854126,0.04510498,-1.203125,-0.5,0.515625
1695471995810,-0.10498047,-1.0081177,0.039489746,1.3125,1.390625,0.59375
1695471995850,-0.100097656,-1.006897,0.03338623,1.390625,1.75,-0.28125
1695471995890,-0.106933594,-0.991272,0.03753662,1.328125,1.859375,0.421875
1695471995930,-0.10058594,-0.9817505,0.024841309,-1.84375,1.015625,0.96875
1695471995970,-0.11010742,-1.0110474,0.035583496,-0.546875,0.890625,1.546875
1695471996010,-0.103515625,-1.0095825,0.025817871,-1.421875,1.28125,0.015625
1695471996050,-0.10839844,-0.9961548,0.020202637,-1.78125,0.828125,-0.46875
1695471996090,-0.103759766,-0.9834595,0.019958496,-2.046875,0.71875,-0.515625
1695471996130,-0.107666016,-0.9902954,0.012390137,-2.234375,0.375,0.34375
1695471996170,-0.08691406,-0.9927368,0.030944824,0.265625,0.96875,0.234375
1695471996210,-0.10864258,-1.0054321,0.030456543,-0.4375,-0.140625,0.484375
1695471996250,-0.115234375,-1.0025024,0.034362793,-0.390625,0.328125,0.34375
1695471996290,-0.11987305,-1.0076294,0.023620605,-0.921875,1.53125,0.359375
1695471996330,-0.091552734,-0.99664307,0.039733887,-1.484375,0.96875,0.140625
1695471996370,-0.1015625,-0.9890747,0.04437256,-0.40625,0.234375,0.078125
1695471996410,-0.09301758,-1.0325317,0.02532959,-1.90625,1.53125,0.90625
1695471996450,-0.10839844,-0.96539307,0.036071777,-3.6875,0.984375,-0.671875
1695471996490,-0.1015625,-1.0125122,0.03363037,-2.484375,1.78125,0.0625
1695471996530,-0.106933594,-0.9981079,0.047546387,-1.046875,2.25,0.21875
1695471996570,-0.09692383,-0.9824829,0.039245605,-3.1875,2.46875,-0.703125
1695471996610,-0.10864258,-0.9949341,0.055358887,-0.734375,2.375,-0.5
1695471996650,-0.12988281,-1.0154419,0.0602417,-2.328125,0.390625,0.78125
1695471996690,-0.12768555,-0.99664307,0.06561279,0.28125,1.625,0.90625
1695471996730,-0.115478516,-1.0027466,0.046081543,3.53125,1.703125,0.46875
1695471996770,-0.09301758,-0.99664307,0.031921387,0.890625,1.515625,0.0625
1695471996810,-0.106933594,-0.9951782,0.040222168,-2.046875,0.75,0.5
1695471996850,-0.106933594,-0.9834595,0.034118652,-0.546875,1.078125,0.578125
1695471996890,-0.09082031,-1.0078735,0.024353027,-1.046875,1.53125,0.65625
1695471996930,-0.111572266,-0.9949341,0.04168701,-0.03125,1.0625,0.40625
1695471996970,-0.11328125,-1.0117798,0.03729248,-0.5625,1.40625,0.671875
1695471997010,-0.104003906,-0.9937134,0.04876709,-2.140625,1.640625,0.3125
1695471997050,-0.107177734,-1.0005493,0.04046631,-0.34375,1.90625,0.375
1695471997090,-0.11328125,-0.9915161,0.04876709,0.328125,3.015625,-0.140625
1695471997130,-0.13061523,-1.0127563,0.04925537,0.109375,1.765625,-0.03125
1695471997170,-0.10595703,-0.99298096,0.04486084,-3.234375,2.28125,-0.1875
1695471997210,-0.09350586,-0.991272,0.047058105,-0.140625,2.46875,0.65625
1695471997250,-0.10424805,-1.0144653,0.043884277,-1.109375,1.96875,0.265625
1695471997290,-0.119384766,-0.98443604,0.05291748,0.765625,1.0,-0.765625
1695471997330,-0.095458984,-1.0056763,0.03314209,0.671875,1.46875,0.34375
1695471997370,-0.087402344,-1.0005493,0.047790527,-0.90625,1.609375,0.171875
1695471997410,-0.10668945,-0.9937134,0.043640137,-0.078125,0.296875,-0.25
1695471997450,-0.11621094,-1.0132446,0.041931152,-0.078125,0.5,0.296875
1695471997490,-0.10986328,-0.98883057,0.04827881,0.265625,0.015625,-0.046875
1695471997530,-0.1027832,-1.0044556,0.039245605,0.265625,1.390625,-0.09375
1695471997570,-0.1171875,-0.99298096,0.038269043,-1.90625,0.953125,0.265625
1695471997610,-0.123291016,-0.9973755,0.046325684,-1.046875,0.796875,0.375
1695471997650,-0.115234375,-0.9944458,0.044128418,-0.109375,0.8125,0.359375
1695471997690,-0.100097656,-1.0154419,0.039978027,-0.8125,1.578125,0.1875
1695471997730,-0.12231445,-0.9924927,0.034118652,0.234375,1.1875,-0.015625
1695471997770,-0.11450195,-0.9824829,0.04510498,-0.96875,2.078125,0.03125
1695471997810,-0.11669922,-1.0137329,0.035827637,-1.40625,1.046875,0.671875
1695471997850,-0.115722656,-0.9866333,0.039733887,-2.0625,0.90625,0.125
1695471997890,-0.111328125,-0.9973755,0.043395996,2.859375,-0.109375,0.578125
1695471997930,-0.09106445,-0.9998169,0.034851074,-0.078125,0.296875,0.25
1695471997970,-0.1027832,-0.9949341,0.039001465,0.84375,-0.5625,-0.125
1695471998010,-0.107910156,-1.0125122,0.039001465,-1.203125,-0.75,0.515625
1695471998050,-0.095947266,-0.9944458,0.042419434,-2.859375,0.640625,0.109375
1695471998090,-0.10571289,-0.98883057,0.042419434,-1.6875,0.765625,0.125
1695471998130,-0.12548828,-0.9924927,0.061706543,-1.875,0.234375,1.0
1695471998170,-0.119140625,-0.9939575,0.06488037,-0.8125,1.265625,0.65625
1695471998210,-0.114990234,-1.0029907,0.0524292,1.890625,0.859375,0.640625
1695471998250,-0.10449219,-1.0064087,0.038269043,1.109375,1.625,0.703125
1695471998290,-0.099121094,-0.9981079,0.031188965,0.171875,2.375,0.484375
1695471998330,-0.0847168,-0.99957275,0.03314209,0.484375,2.921875,-0.453125
1695471998370,-0.11279297,-0.9976196,0.03289795,3.40625,2.78125,-0.171875
1695471998410,-0.107177734,-0.9973755,0.038513184,1.296875,2.46875,-0.71875
1695471998450,-0.09326172,-1.0164185,0.023864746,-1.265625,0.953125,-0.875
1695471998490,-0.09423828,-1.0003052,0.03314209,-0.9375,0.453125,-0.84375
1695471998530,-0.14916992,-0.9993286,0.026794434,0.234375,0.828125,0.046875
1695471998570,-0.12597656,-0.9937134,0.02508545,-3.125,2.109375,-0.671875
1695471998610,-0.111328125,-0.9932251,0.042663574,-2.53125,1.5,-0.328125
1695471998650,-0.12451172,-0.9939575,0.04534912,-0.71875,-0.796875,0.5625
1695471998690,-0.11230469,-1.0073853,0.050476074,-1.046875,0.21875,-0.28125
1695471998730,-0.12963867,-0.99346924,0.038269043,-0.5,-1.046875,-1.234375
1695471998770,-0.10913086,-0.9805298,0.05218506,4.0,0.765625,-2.140625
1695471998810,-0.099365234,-1.0391235,0.04095459,2.0625,1.859375,-1.421875
1695471998850,-0.10253906,-0.989563,0.04071045,-1.203125,2.5,-1.28125
1695471998890,-0.13891602,-0.97052,0.04095459,0.984375,1.6875,0.890625
1695471998930,-0.20507812,-0.9944458,0.011657715,-5.109375,1.609375,3.03125
1695471998970,-0.17358398,-0.98760986,0.024108887,-3.5,3.015625,1.125
1695471999010,-0.09643555,-0.9793091,0.04901123,5.625,2.40625,-0.1875
1695471999050,-0.109375,-1.0254517,0.02923584,5.609375,2.515625,-0.953125
1695471999090,-0.12988281,-0.9807739,0.030456543,-1.0625,2.640625,-0.71875
1695471999130,-0.11425781,-1.006897,0.038269043,-2.875,1.78125,1.1875
1695471999170,-0.115234375,-1.0166626,0.046813965,-4.21875,2.234375,1.625
1695471999210,-0.13842773,-0.99591064,0.027038574,-2.265625,2.171875,0.328125
1695471999250,-0.088134766,-0.9898071,0.022888184,1.15625,2.28125,-1.3125
1695471999290,-0.07446289,-0.9776001,0.026306152,-1.8125,1.265625,-0.375
1695471999330,-0.13745117,-1.0012817,0.027038574,-4.609375,-0.15625,1.34375
1695471999370,-0.15039062,-0.99420166,0.04827881,-3.546875,-0.890625,1.578125
1695471999410,-0.14086914,-1.0003052,0.055847168,-0.484375,-1.53125,0.671875
1695471999450,-0.1262207,-1.0198364,0.06121826,0.859375,-0.34375,-0.328125
1695471999490,-0.13354492,-0.9859009,0.059020996,-1.828125,1.296875,-0.375
1695471999530,-0.16381836,-0.98638916,0.047058105,-0.96875,0.765625,0.46875
1695471999570,-0.10839844,-0.9990845,0.038513184,-4.25,0.765625,0.265625
1695471999610,-0.10839844,-1.0166626,0.046081543,-1.546875,0.609375,-0.265625
1695471999650,-0.12084961,-0.9890747,0.044128418,0.40625,-0.046875,-0.234375
1695471999690,-0.13208008,-0.99102783,0.042419434,0.25,0.546875,0.296875
1695471999730,-0.10986328,-0.99298096,0.051940918,-2.4375,1.734375,0.28125
1695471999770,-0.1237793,-0.9846802,0.06317139,-0.734375,1.46875,-0.3125
1695471999810,-0.12695312,-1.0227661,0.06561279,-0.40625,-0.296875,0.71875
1695471999850,-0.119628906,-1.0144653,0.07537842,-5.0,-0.65625,0.40625
1695471999890,-0.12988281,-1.0176392,0.06829834,-3.171875,-0.546875,0.796875
1695471999930,-0.14013672,-0.9841919,0.055603027,-1.75,-0.15625,0.859375
1695471999970,-0.12158203,-0.9776001,0.0446167,-1.8125,1.734375,0.171875
1695472000010,-0.091796875,-0.98516846,0.05316162,-1.34375,1.90625,-0.171875
1695472000050,-0.13647461,-0.99346924,0.051208496,-2.5,0.53125,0.765625
1695472000090,-0.14331055,-0.98394775,0.06561279,-3.078125,1.203125,-0.21875
1695472000130,-0.123535156,-0.99835205,0.07562256,1.421875,1.578125,-0.25
1695472000170,-0.12402344,-1.000061,0.07537842,-0.046875,2.6875,-0.515625
1695472000210,-0.12158203,-0.99664307,0.078552246,-2.0625,3.3125,-1.40625
1695472000250,-0.10986328,-1.005188,0.07928467,-4.390625,3.4375,-1.8125
1695472000290,-0.10449219,-1.008606,0.101989746,-6.859375,2.96875,-1.484375
1695472000330,-0.14111328,-0.9734497,0.12860107,-0.96875,3.0625,-1.0625
1695472000370,-0.2097168,-1.0015259,0.11004639,2.09375,-1.734375,1.546875
1695472000410,-0.13256836,-1.0134888,0.093933105,-0.28125,-1.921875,2.375
1695472000450,-0.11669922,-0.9932251,0.09100342,4.875,-0.359375,2.328125
1695472000490,-0.14208984,-0.98809814,0.059509277,0.4375,1.375,1.203125
1695472000530,-0.12060547,-0.9837036,0.047302246,-2.671875,0.59375,-0.125
1695472000570,-0.107910156,-0.9837036,0.062683105,-5.6875,0.90625,0.359375
1695472000610,-0.14648438,-0.98809814,0.07928467,-3.03125,1.0,1.0625
1695472000650,-0.15332031,-0.9727173,0.10101318,0.40625,0.5625,1.578125
1695472000690,-0.14013672,-1.0108032,0.094177246,1.390625,0.78125,2.0625
1695472000730,-0.118652344,-0.99298096,0.09613037,-2.65625,2.234375,0.1875
1695472000770,-0.080322266,-0.9866333,0.10467529,0.1875,3.234375,-1.390625
1695472000810,-0.083496094,-0.9849243,0.11834717,-1.546875,1.515625,-3.265625
1695472000850,-0.12109375,-1.0193481,0.12860107,-0.84375,0.703125,-2.4375
1695472000890,-0.14477539,-1.0300903,0.11151123,-1.046875,0.8125,-0.25
1695472000930,-0.12841797,-0.9968872,0.08416748,0.1875,1.734375,0.28125
1695472000970,-0.14038086,-0.97491455,0.06756592,-0.3125,2.625,0.484375
1695472001010,-0.12573242,-0.9859009,0.06488037,-2.984375,1.734375,-0.59375
1695472001050,-0.079589844,-0.93878174,0.124938965,-0.25,1.90625,-2.34375
1695472001090,-0.17089844,-1.0083618,0.097351074,2.4375,3.03125,-3.734375
1695472001130,-0.21655273,-0.98443604,0.10687256,1.859375,3.59375,-4.0
1695472001170,-0.25878906,-1.0220337,0.08319092,9.734375,6.546875,-1.578125
1695472001210,-0.16577148,-0.99005127,0.06463623,4.34375,7.71875,-1.921875
1695472001250,-0.14892578,-0.98565674,0.039489746,3.875,3.421875,-0.28125
1695472001290,-0.16967773,-1.0286255,0.06439209,-1.875,2.265625,1.671875
1695472001330,-0.10449219,-1.0234985,0.066589355,-3.0625,2.421875,1.234375
1695472001370,-0.114746094,-0.9898071,0.043395996,2.546875,1.015625,-0.25
1695472001410,-0.14990234,-0.956604,0.04510498,-0.0625,0.71875,-1.859375
1695472001450,-0.1315918,-0.9924927,0.08148193,-1.046875,0.828125,-0.828125
1695472001490,-0.1171875,-0.98883057,0.09686279,-0.375,0.96875,0.90625
1695472001530,-0.14941406,-0.9795532,0.070739746,-0.046875,-0.390625,1.46875
1695472001570,-0.20117188,-0.9998169,0.055847168,1.359375,-1.75,0.734375
1695472001610,-0.10668945,-1.0130005,0.066833496,4.546875,-1.078125,-0.5625
1695472001650,-0.1940918,-1.015686,0.04876709,1.828125,-0.265625,-1.171875
1695472001690,-0.21875,-0.96539307,0.049987793,-1.6875,1.125,-1.484375
1695472001730,-0.17578125,-1.0071411,0.066345215,-0.09375,3.828125,0.328125
1695472001770,-0.16918945,-1.0161743,0.039245605,-2.203125,4.265625,-0.15625
1695472001810,-0.16503906,-0.9512329,0.07269287,3.03125,2.5,-0.75
1695472001850,-0.1640625,-1.0042114,0.043395996,4.828125,2.015625,0.328125
1695472001890,-0.14697266,-0.9751587,0.06732178,4.59375,0.734375,-2.1875
1695472001930,-0.15112305,-1.010315,0.031677246,0.609375,-0.203125,-2.78125
1695472001970,-0.15991211,-1.0171509,-0.0005493164,1.828125,-0.65625,-3.859375
1695472002010,-0.1772461,-1.0105591,-0.0049438477,-1.359375,0.953125,-4.0625
1695472002050,-0.17749023,-0.9505005,0.031188965,-4.890625,2.25,-0.546875
1695472002090,-0.16455078,-0.98516846,0.031433105,-5.671875,2.21875,2.171875
1695472002130,-0.16040039,-0.97906494,0.074401855,-4.984375,0.5,3.03125
1695472002170,-0.123046875,-0.9920044,0.09100342,-2.75,0.6875,0.890625
1695472002210,-0.18701172,-1.0088501,0.08319092,-0.375,-1.140625,0.34375
1695472002250,-0.19555664,-0.97979736,0.09075928,-0.28125,-1.1875,1.21875
1695472002290,-0.22045898,-0.99102783,0.08343506,1.5625,-0.78125,1.4375
1695472002330,-0.23095703,-0.9710083,0.05731201,2.609375,0.09375,2.375
1695472002370,-0.23168945,-0.97662354,0.02947998,10.296875,-1.140625,2.671875
1695472002410,-0.19995117,-1.0108032,0.011169434,10.625,-1.640625,1.921875
