,timestamp,accel_x,accel_y,accel_z,gyro_x,gyro_y,gyro_z
0,1697605965,-0.98046875,0.051757812,0.00390625,-36.34375,5.96875,-4.125
1,1697606005,-0.95996094,0.18066406,0.0048828125,-19.3125,4.40625,2.15625
2,1697606045,-0.96484375,0.21191406,-0.041992188,10.0625,-0.375,14.3125
3,1697606085,-0.9580078,0.19824219,-0.06347656,10.46875,3.90625,23.4375
4,1697606125,-1.03125,0.16796875,0.047851562,-14.1875,10.6875,26.625
5,1697606165,-1.0634766,0.22460938,0.08203125,-16.4375,4.09375,23.28125
6,1697606205,-1.046875,0.27929688,0.033203125,-26.4375,-3.125,23.28125
7,1697606245,-0.9892578,0.3095703,-0.08203125,-57.28125,-6.84375,24.3125
8,1697606285,-0.97265625,0.28027344,-0.07714844,-76.3125,-1.21875,22.0
9,1697606325,-0.9199219,0.1484375,-0.09765625,-80.90625,-3.96875,18.75
10,1697606365,-0.89160156,0.13574219,-0.15136719,-65.875,-5.5,14.84375
11,1697606405,-0.81347656,0.15234375,-0.08886719,-52.375,-1.46875,9.96875
12,1697606445,-0.83496094,0.15332031,-0.059570312,-47.6875,-21.84375,6.125
13,1697606485,-1.0185547,-0.0703125,-0.17089844,-34.125,-35.84375,-5.71875
14,1697606525,-1.1601562,-0.24121094,-0.043945312,-51.78125,-17.28125,-29.59375
15,1697606565,-1.1591797,-0.064453125,-0.09765625,-94.6875,-24.28125,-46.8125
16,1697606605,-1.3417969,-0.21679688,-0.06738281,-86.375,-14.96875,-41.375
17,1697606645,-0.80566406,-0.75097656,0.024414062,-112.3125,-40.40625,-49.1875
18,1697606685,-1.2275391,0.1796875,-0.17089844,-138.1875,-32.34375,-67.96875
19,1697606725,-0.8330078,0.3125,-0.1953125,-22.25,-29.375,-23.375
20,1697606765,-0.9746094,-0.3330078,-0.12109375,-50.0,1.875,-4.5
21,1697606805,-0.98339844,-0.4267578,-0.1171875,-179.71875,27.9375,-32.75
22,1697606845,-0.9667969,-0.12597656,0.13085938,-172.375,10.1875,-53.28125
23,1697606885,-1.0322266,-0.04296875,-0.15234375,-59.21875,-17.03125,-49.4375
24,1697606925,-0.78027344,-0.25390625,-0.06640625,-93.59375,-2.375,-34.65625
25,1697606965,-0.9511719,-0.38085938,0.14746094,-149.90625,-6.65625,-55.53125
26,1697607005,-1.0087891,-0.40722656,-0.1015625,-90.40625,-22.40625,-49.84375
27,1697607045,-0.7841797,-0.49121094,-0.056640625,-71.1875,-22.40625,-53.875
28,1697607085,-0.76660156,-0.20996094,0.0146484375,-105.0,-35.59375,-71.6875
29,1697607125,-0.87109375,-0.5996094,0.080078125,-136.5625,-30.34375,-71.46875
30,1697607165,-0.83203125,-0.48535156,0.119140625,-21.5625,-45.84375,-74.03125
31,1697607205,-0.8876953,-0.7890625,0.22167969,55.46875,-48.53125,-52.40625
32,1697607245,-1.2353516,-1.4541016,0.5761719,49.34375,-40.59375,-47.40625
33,1697607285,-1.1796875,-1.0351562,0.375,50.59375,-105.09375,-48.09375
34,1697607325,-0.7441406,-0.3076172,0.39257812,69.0,-131.59375,-52.65625
35,1697607365,-0.5957031,-0.27246094,0.1171875,-8.875,-113.90625,-51.1875
36,1697607405,-0.36621094,-0.54296875,-0.0087890625,-63.96875,-50.96875,-45.59375
37,1697607445,-0.7890625,-1.109375,0.21875,-60.0625,-44.6875,-53.15625
38,1697607485,-0.79785156,-0.9375,0.4296875,-46.28125,-53.71875,-63.8125
39,1697607525,-0.58984375,-0.6591797,0.3876953,-44.6875,-61.90625,-56.4375
40,1697607565,-0.45507812,-0.46289062,0.42578125,-54.09375,-60.5,-49.53125
41,1697607605,-0.46484375,-0.56640625,0.359375,-50.3125,-59.75,-43.5625
42,1697607645,-0.4638672,-0.7675781,0.36035156,-46.96875,-83.25,-30.5625
43,1697607685,-0.36621094,-0.8378906,0.42089844,-24.8125,-97.34375,-13.71875
44,1697607725,-0.2783203,-0.8857422,0.34765625,12.0,-103.46875,-6.28125
45,1697607765,-0.28222656,-0.85253906,0.2841797,12.5,-103.6875,0.5
46,1697607805,-0.21191406,-0.76171875,0.22265625,-10.03125,-73.625,12.46875
47,1697607845,-0.24121094,-0.7207031,0.22070312,-32.84375,-57.375,20.71875
48,1697607885,-0.29003906,-0.6894531,0.2763672,-61.90625,-35.9375,35.0
49,1697607925,-0.32617188,-1.0175781,0.14453125,-42.375,-23.0,41.875
50,1697607965,-0.3935547,-1.2949219,0.19335938,-68.125,-15.03125,20.53125
51,1697608005,-0.20898438,-0.5966797,0.3544922,-46.21875,-22.65625,40.65625
52,1697608045,-0.47265625,-0.9189453,0.09472656,-65.15625,12.5,54.15625
53,1697608085,-0.31933594,-1.2080078,0.0546875,-52.625,11.59375,43.90625
54,1697608125,-0.4189453,-1.0175781,0.19042969,-26.4375,16.78125,31.3125
55,1697608165,-0.49804688,-0.765625,0.16992188,-34.03125,15.25,40.25
56,1697608205,-0.49804688,-0.7871094,0.07128906,-44.28125,14.9375,33.21875
57,1697608245,-0.5205078,-0.83496094,0.11816406,-60.25,7.75,39.4375
58,1697608285,-0.61816406,-0.82714844,0.059570312,-44.8125,5.3125,35.46875
59,1697608325,-0.63378906,-0.7363281,0.06347656,-62.15625,3.28125,36.875
60,1697608365,-0.65722656,-0.7753906,-0.06738281,-56.0625,-0.3125,38.21875
61,1697608405,-0.64941406,-0.75878906,-0.11328125,-46.21875,1.09375,37.4375
62,1697608445,-0.66796875,-0.7109375,-0.13085938,-33.34375,-9.28125,42.625
63,1697608485,-0.68359375,-0.75878906,-0.14453125,-24.8125,-8.0,47.25
64,1697608525,-0.68066406,-0.81933594,-0.083984375,-24.5,-8.5625,46.9375
65,1697608565,-0.67285156,-0.8388672,-0.05859375,-31.4375,-14.78125,43.59375
66,1697608605,-0.7529297,-0.7841797,-0.0625,-14.1875,-30.6875,38.15625
67,1697608645,-0.828125,-0.7792969,-0.08691406,-21.25,-17.46875,37.0625
68,1697608685,-0.96191406,-1.0537109,-0.087890625,-4.21875,-12.34375,18.15625
69,1697608725,-0.88183594,-0.4892578,-0.038085938,6.09375,-31.125,13.0
70,1697608765,-0.95410156,-0.5761719,0.030273438,-10.75,-29.59375,24.3125
71,1697608805,-1.046875,-0.55566406,0.10644531,-23.625,-32.53125,41.8125
72,1697608845,-1.0244141,-0.7636719,0.068359375,-25.59375,-27.84375,56.96875
73,1697608885,-0.9902344,-0.6386719,0.23242188,-45.75,-24.125,65.6875
74,1697608925,-0.89453125,-0.4658203,0.021484375,-23.875,-25.09375,78.875
75,1697608965,-0.9013672,-0.30371094,0.07519531,-6.96875,-7.6875,90.40625
76,1697609005,-0.75390625,-0.17382812,-0.0078125,-47.3125,4.8125,85.71875
77,1697609045,-0.8300781,-0.24609375,0.015625,-63.3125,15.0625,80.65625
78,1697609085,-0.8847656,-0.30273438,-0.0146484375,-78.5,28.125,66.65625
79,1697609125,-0.8564453,-0.09082031,-0.06640625,-64.34375,10.125,55.75
80,1697609165,-0.8808594,-0.026367188,-0.16894531,-41.875,-10.25,54.15625
81,1697609205,-0.68652344,-0.10058594,-0.16210938,6.6875,-24.46875,43.15625
82,1697609245,-0.83203125,0.043945312,-0.28222656,-62.09375,-35.15625,18.375
83,1697609285,-0.9716797,-0.14257812,-0.28710938,-138.625,-10.375,17.84375
84,1697609325,-0.92871094,-0.19140625,-0.24316406,-136.25,2.25,8.75
85,1697609365,-0.96777344,-0.2109375,-0.234375,-110.4375,10.96875,0.375
86,1697609405,-0.9941406,-0.15332031,-0.21386719,-86.1875,6.90625,-11.59375
87,1697609445,-0.97265625,-0.038085938,-0.21484375,-132.59375,3.71875,-18.46875
88,1697609485,-1.0224609,0.038085938,-0.19335938,-139.65625,3.71875,-19.53125
89,1697609525,-1.0166016,0.055664062,-0.16503906,-163.28125,2.5625,-14.5625
90,1697609565,-0.9941406,-0.07910156,-0.17871094,-170.96875,-2.5,-2.4375
91,1697609605,-1.0039062,-0.12792969,-0.25390625,-126.71875,-9.21875,10.40625
92,1697609645,-0.99121094,-0.171875,-0.24121094,-92.0625,-1.78125,14.0625
93,1697609685,-0.9638672,-0.17089844,-0.20800781,-122.75,2.3125,13.0
94,1697609725,-0.94628906,-0.21386719,-0.15039062,-125.3125,14.15625,5.9375
95,1697609765,-0.8730469,-0.1328125,-0.095703125,-150.46875,19.34375,-3.9375
96,1697609805,-0.9453125,-0.1015625,-0.11230469,-182.6875,24.28125,-7.1875
97,1697609845,-0.9902344,-0.23046875,-0.12695312,-118.375,36.25,6.4375
98,1697609885,-1.0517578,-0.36816406,-0.13574219,-88.8125,62.0,3.0625
99,1697609925,-1.1308594,-0.29882812,-0.068359375,-43.84375,68.0,-18.53125
100,1697609965,-1.1767578,-0.20117188,0.005859375,-30.84375,23.375,-31.0
101,1697610005,-1.1650391,0.11035156,0.14160156,-19.5625,-28.25,-33.625
102,1697610045,-1.2753906,0.3876953,-0.045898438,-115.5,-144.03125,-67.0
103,1697610085,-1.5146484,0.23632812,-0.22851562,-217.90625,-126.09375,-102.84375
104,1697610125,-1.8847656,0.22558594,-0.2919922,-71.5,-106.3125,-90.875
105,1697610165,-1.4580078,-0.123046875,-0.66796875,-40.96875,-2.375,-58.09375
106,1697610205,-1.3662109,-0.70410156,0.19140625,-230.375,123.53125,-18.34375
107,1697610245,-0.7871094,-0.049804688,0.4345703,-131.71875,45.46875,6.59375
108,1697610285,0.005859375,0.26464844,-0.022460938,82.125,-48.78125,16.875
109,1697610325,0.5830078,0.48632812,-0.35253906,3.75,-48.71875,34.8125
110,1697610365,0.5058594,0.18164062,-0.13085938,-145.34375,34.125,19.59375
111,1697610405,0.39746094,-0.3701172,0.2685547,-12.59375,52.0,-17.375
112,1697610445,-1.0136719,0.020507812,0.4482422,-42.25,23.3125,-88.5625
113,1697610485,-1.9902344,0.07519531,-0.79589844,-188.3125,61.65625,-44.0
114,1697610525,0.6220703,-0.51953125,-0.3046875,98.0,-197.8125,36.9375
115,1697610565,-1.9189453,-0.5917969,-0.036132812,17.875,94.71875,-56.625
116,1697610605,-1.1738281,0.5283203,-0.35058594,9.25,-88.4375,-6.75
117,1697610645,-1.1523438,0.58496094,-0.48828125,-142.15625,-72.21875,-18.46875
118,1697610685,-0.86816406,0.47753906,-0.6455078,-126.1875,5.5625,22.84375
119,1697610725,-1.0419922,-0.23339844,-0.4091797,56.6875,37.15625,51.03125
120,1697610765,-1.2441406,-1.4589844,-0.0029296875,-238.90625,249.75,43.28125
121,1697610805,-0.9042969,-0.28320312,0.56933594,-343.34375,-35.84375,-41.96875
122,1697610845,-1.0039062,-0.06738281,-0.005859375,37.53125,-82.78125,-22.625
123,1697610885,-1.0878906,-0.047851562,-0.2705078,11.21875,-96.375,-12.75
124,1697610925,-1.1083984,0.16601562,-0.28320312,-85.78125,-69.59375,-8.28125
125,1697610965,-1.2050781,0.20214844,-0.23144531,-135.34375,-33.6875,-13.71875
126,1697611005,-1.2431641,0.08691406,-0.03515625,-189.21875,7.3125,-4.75
127,1697611045,-1.2607422,0.026367188,0.4580078,-184.71875,-14.34375,11.1875
128,1697611085,-0.94433594,-0.53515625,0.12792969,-99.375,-45.34375,31.5
129,1697611125,-0.8496094,-0.4140625,0.0048828125,-61.0625,-25.21875,14.125
130,1697611165,-0.8232422,0.046875,-0.015625,-45.125,-6.78125,10.8125
131,1697611205,-0.8017578,0.1015625,0.0009765625,-13.09375,-0.78125,24.4375
132,1697611245,-0.9716797,0.013671875,0.053710938,-46.15625,2.0625,28.53125
133,1697611285,-1.0009766,-0.234375,0.08105469,-143.75,-2.25,15.53125
134,1697611325,-0.98828125,-0.0625,0.11035156,-129.78125,-7.875,13.5
135,1697611365,-1.0068359,-0.109375,0.068359375,-98.21875,-26.4375,15.46875
136,1697611405,-0.99902344,-0.16796875,0.115234375,-101.40625,-27.40625,13.25
137,1697611445,-0.9082031,-0.125,0.1171875,-85.65625,-33.625,8.5625
138,1697611485,-0.9189453,-0.12011719,-0.01171875,-81.25,-34.84375,4.65625
139,1697611525,-0.9472656,-0.17578125,0.06738281,-106.65625,-13.25,4.28125
140,1697611565,-0.984375,-0.20507812,0.19335938,-101.71875,-2.5,5.3125
141,1697611605,-0.9814453,-0.20214844,0.24511719,-94.4375,3.84375,3.5
142,1697611645,-0.984375,-0.11230469,0.22460938,-88.53125,8.0625,1.34375
143,1697611685,-0.9199219,-0.0546875,0.10839844,-71.5,24.78125,7.34375
144,1697611725,-0.9746094,-0.07324219,0.061523438,-67.53125,47.65625,11.5
145,1697611765,-1.5,-0.15820312,0.06542969,-89.4375,67.625,4.53125
146,1697611805,-0.9482422,-0.19140625,0.036132812,-80.65625,34.96875,5.5
147,1697611845,-0.9511719,0.24902344,-0.1796875,-53.125,5.1875,-10.59375
148,1697611885,-0.8925781,0.25683594,-0.3623047,-32.5,8.46875,5.375
149,1697611925,-1.0244141,-0.0126953125,-0.33789062,-52.8125,26.5,9.59375
150,1697611965,-0.9824219,0.13476562,-0.29785156,-66.84375,26.375,4.78125
151,1697612005,-0.99902344,-0.064453125,-0.171875,-54.34375,25.15625,11.3125
152,1697612045,-1.0292969,-0.15625,-0.15917969,-53.375,19.90625,14.1875
153,1697612085,-0.93359375,-0.043945312,-0.16601562,-43.59375,17.28125,18.375
154,1697612125,-0.9746094,-0.0087890625,-0.20898438,-35.34375,13.71875,15.75
155,1697612165,-0.921875,0.00390625,-0.12988281,-47.875,22.53125,15.09375
156,1697612205,-1.0146484,0.0146484375,-0.07910156,-45.84375,26.3125,19.71875
157,1697612245,-1.0273438,-0.15039062,-0.15917969,-5.34375,11.21875,18.25
158,1697612285,-1.0087891,-0.20117188,-0.25585938,-5.28125,21.53125,18.09375
159,1697612325,-0.9873047,-0.15820312,-0.13867188,-54.84375,30.21875,10.21875
160,1697612365,-1.0800781,-0.12597656,0.076171875,-39.75,41.9375,7.40625
161,1697612405,-1.1035156,-0.24511719,0.12695312,-20.28125,9.09375,1.46875
162,1697612445,-0.9892578,-0.32226562,0.119140625,-2.71875,-20.03125,-17.8125
163,1697612485,-0.9609375,-0.27441406,0.037109375,55.03125,-84.0,-55.53125
164,1697612525,-0.890625,0.040039062,-0.025390625,95.5,-122.0625,-83.34375
165,1697612565,-1.6494141,0.24023438,-0.3388672,24.875,-175.53125,-119.0625
166,1697612605,-1.1367188,0.22460938,-0.30664062,-136.3125,-100.40625,-75.125
167,1697612645,-1.0751953,-0.046875,-0.35058594,18.90625,-46.5,-67.96875
168,1697612685,-0.98339844,-0.27246094,-0.3173828,-38.78125,40.21875,-80.3125
169,1697612725,-0.81640625,-0.41992188,0.25976562,-287.75,64.5,-79.625
170,1697612765,-0.9121094,-0.18847656,0.22167969,23.28125,-18.625,-63.21875
171,1697612805,-0.7636719,0.06738281,-0.10546875,103.875,-65.375,-37.15625
172,1697612845,-0.54296875,-0.016601562,-0.09667969,17.0625,-30.15625,-13.34375
173,1697612885,-1.2607422,-1.6933594,0.26660156,-115.125,-36.6875,-62.375
174,1697612925,-0.56640625,0.734375,-0.001953125,34.21875,-30.15625,-35.3125
175,1697612965,-0.7919922,-0.051757812,-0.47851562,88.46875,-31.375,42.0625
176,1697613005,-1.78125,-0.6669922,0.25683594,96.96875,44.5,29.5
177,1697613045,-1.2714844,-0.5732422,0.84277344,-195.5625,22.6875,-5.40625
178,1697613085,-0.62109375,-0.036132812,-0.059570312,321.34375,-78.1875,-4.25
179,1697613125,-0.8779297,0.0029296875,-0.01171875,192.65625,-3.0625,36.03125
180,1697613165,-1.2792969,-0.32714844,0.16796875,101.71875,31.75,56.84375
181,1697613205,-0.89160156,-0.59277344,0.17578125,56.3125,36.0,75.875
182,1697613245,-0.66503906,-0.70703125,0.09375,76.03125,34.0625,68.0
183,1697613285,-1.0302734,-0.6689453,0.115234375,43.5,48.03125,46.34375
184,1697613325,-1.8183594,-0.40234375,0.08300781,120.46875,30.40625,-19.8125
185,1697613365,-1.5888672,0.4296875,-0.23535156,316.375,-48.71875,-10.46875
186,1697613405,-0.99609375,0.28125,-0.15332031,90.3125,20.5625,-13.96875
187,1697613445,-1.0742188,0.15332031,0.09765625,33.6875,17.09375,-23.125
188,1697613485,-0.9716797,0.053710938,0.06933594,19.6875,-13.25,-27.8125
189,1697613525,-0.79785156,0.5292969,-0.23144531,98.96875,-65.3125,-39.09375
190,1697613565,-0.41992188,0.22363281,-0.14941406,27.09375,-17.03125,-17.9375
191,1697613605,-0.7988281,-0.076171875,-0.13964844,4.0,-1.90625,16.125
192,1697613645,-1.1357422,-0.34179688,-0.022460938,79.625,-12.28125,27.71875
193,1697613685,-1.0175781,-0.11328125,-0.05859375,137.4375,-19.34375,-9.9375
194,1697613725,-1.0273438,0.26367188,-0.14550781,50.8125,23.875,-42.53125
195,1697613765,-1.1162109,0.39453125,0.13769531,0.15625,47.125,-34.90625
196,1697613805,-0.9277344,0.4345703,0.39160156,39.71875,14.28125,-31.84375
197,1697613845,-0.7890625,0.48535156,0.39160156,8.34375,4.34375,-43.4375
198,1697613885,-1.2128906,0.5361328,0.28808594,-73.03125,1.03125,-41.1875
199,1697613925,-1.1865234,0.6845703,0.17578125,-100.90625,-50.96875,-15.78125
200,1697613965,-1.0683594,0.66308594,0.0859375,-129.34375,-73.71875,19.5
201,1697614005,-1.1269531,0.3779297,-0.11328125,-106.84375,-90.15625,65.75
202,1697614045,-1.1972656,-0.013671875,-0.33984375,-22.125,-62.625,98.78125
203,1697614085,-1.2851562,-0.5517578,-0.3564453,-3.25,19.40625,71.1875
204,1697614125,-0.8417969,-1.3525391,-0.36035156,-111.96875,65.0,-18.125
205,1697614165,-1.3339844,-1.3818359,0.5048828,-578.03125,73.25,-111.3125
206,1697614205,-0.79003906,-1.1884766,1.6171875,-582.90625,116.8125,-97.9375
207,1697614245,-0.44140625,0.14355469,-0.1015625,225.9375,-86.84375,-79.5
208,1697614285,-0.40820312,0.083984375,-0.4609375,132.0,-51.46875,-33.5
209,1697614325,-0.49804688,-0.40625,-0.50683594,-110.96875,47.4375,-36.0625
210,1697614365,-1.3134766,-1.8203125,0.10058594,-386.75,60.375,-106.90625
211,1697614405,-0.7373047,-0.89160156,0.33496094,-85.71875,61.75,-49.65625
212,1697614445,-0.7207031,-0.9404297,0.0078125,40.625,33.5625,3.5
213,1697614485,-1.546875,-0.9658203,0.08203125,70.34375,67.9375,33.9375
214,1697614525,-0.8935547,-0.63671875,0.31347656,173.3125,33.9375,25.21875
215,1697614565,-0.70996094,-0.4140625,0.44335938,100.25,9.75,34.125
216,1697614605,-0.92089844,-0.3857422,0.203125,146.46875,-29.0,32.25
217,1697614645,-0.9658203,-0.3408203,0.08105469,106.3125,-28.875,25.65625
218,1697614685,-0.8925781,-0.5751953,0.059570312,54.90625,-32.34375,12.65625
219,1697614725,-0.9375,-0.85058594,0.17285156,25.96875,-20.21875,-15.5
220,1697614765,-0.8886719,-0.48632812,0.16308594,29.53125,-32.46875,-34.59375
221,1697614805,-0.8417969,-0.49121094,0.115234375,47.90625,-35.09375,-37.71875
222,1697614845,-0.7753906,-0.33398438,0.15234375,14.6875,-29.84375,-44.28125
223,1697614885,-0.6123047,-0.22070312,0.09082031,-8.25,-19.40625,-33.3125
224,1697614925,-0.6826172,-0.33496094,0.1484375,-0.09375,7.0625,-8.40625
225,1697614965,-0.76464844,-0.47753906,0.25195312,5.40625,22.46875,9.53125
226,1697615005,-0.7421875,-0.54589844,0.24804688,16.8125,21.96875,17.71875
227,1697615045,-0.76171875,-0.5019531,0.25,22.4375,24.40625,19.84375
228,1697615085,-0.85546875,-0.53222656,0.36914062,2.1875,39.3125,22.28125
229,1697615125,-0.9550781,-0.6328125,0.48242188,22.25,22.40625,17.28125
230,1697615165,-0.89941406,-0.3857422,0.2421875,22.6875,-14.03125,16.90625
231,1697615205,-0.8886719,-0.46289062,0.21484375,41.71875,-6.40625,27.25
232,1697615245,-0.8261719,-0.51660156,0.3955078,23.53125,-10.125,26.6875
233,1697615285,-0.9189453,-0.27441406,0.27148438,24.15625,-35.34375,17.53125
234,1697615325,-0.9091797,-0.2265625,0.20214844,15.96875,-25.5625,29.375
235,1697615365,-0.99902344,-0.27246094,0.21484375,-9.125,-16.65625,31.75
236,1697615405,-0.9980469,-0.51171875,0.18164062,-28.71875,-10.875,9.21875
237,1697615445,-1.0253906,-0.8564453,0.24707031,-47.6875,-9.84375,-19.09375
238,1697615485,-0.78808594,-0.7421875,0.36035156,-64.71875,-35.09375,-70.125
239,1697615525,-0.6220703,0.045898438,0.1640625,-12.53125,-50.71875,-79.875
240,1697615565,-0.41796875,-0.09765625,-0.0087890625,5.0,8.84375,-17.625
241,1697615605,-0.7011719,-0.3701172,0.7060547,-27.375,16.125,34.75
242,1697615645,-0.7011719,-0.43652344,0.47753906,-32.84375,-18.375,48.71875
243,1697615685,-0.6191406,-0.66503906,0.47753906,27.4375,-4.40625,51.53125
244,1697615725,-0.3779297,-0.578125,0.23632812,39.96875,-6.28125,37.90625
245,1697615765,-0.81933594,-0.64453125,0.6357422,-34.5625,-15.75,28.53125
246,1697615805,-1.7802734,-0.8388672,0.025390625,177.28125,-22.84375,38.71875
247,1697615845,-1.265625,-0.68652344,0.50097656,56.1875,-15.03125,-26.15625
248,1697615885,-0.9794922,-0.57910156,0.21875,70.15625,-18.6875,-45.40625
249,1697615925,-0.28808594,0.0234375,0.23730469,180.875,1.875,17.28125
250,1697615965,-0.7998047,-0.061523438,0.07421875,159.03125,14.78125,45.90625
251,1697616005,-1.4863281,0.09863281,0.359375,58.21875,66.15625,45.84375
252,1697616045,-1.1220703,-0.13671875,0.70703125,35.6875,49.8125,52.9375
253,1697616085,-0.9765625,-0.2109375,0.46972656,132.5625,12.9375,43.90625
254,1697616125,-0.9296875,0.09472656,0.31152344,122.90625,10.125,22.0
255,1697616165,-0.9355469,0.11230469,0.3701172,102.75,31.96875,31.625
256,1697616205,-0.8671875,-0.12402344,0.4814453,131.09375,29.21875,38.59375
257,1697616245,-0.9433594,-0.12011719,0.40429688,146.65625,22.28125,13.6875
258,1697616285,-0.8652344,0.016601562,0.24414062,146.59375,15.0,-12.0
259,1697616325,-0.7832031,0.10253906,0.026367188,76.9375,40.40625,-18.59375
260,1697616365,-0.69628906,0.11816406,0.1328125,50.875,52.84375,-0.34375
261,1697616405,-0.8222656,-0.08886719,0.06933594,33.0625,73.3125,7.46875
262,1697616445,-1.2011719,-0.3046875,0.3330078,17.25,74.9375,-6.21875
263,1697616485,-1.2988281,0.05078125,0.0048828125,72.5,21.1875,-42.59375
264,1697616525,-1.2314453,0.7841797,-0.25195312,54.3125,4.75,-28.84375
265,1697616565,-0.88378906,0.625,0.0087890625,46.0625,40.09375,-27.875
266,1697616605,-0.9433594,0.20410156,0.020507812,66.625,28.75,-13.09375
267,1697616645,-0.9482422,-0.072265625,-0.0859375,109.78125,6.21875,-20.4375
268,1697616685,-1.0136719,-0.034179688,-0.15722656,47.34375,-4.15625,-52.40625
269,1697616725,-0.7597656,0.3125,-0.17773438,-9.84375,7.625,-61.9375
270,1697616765,-0.82128906,0.5371094,-0.15917969,-90.40625,28.9375,-52.96875
271,1697616805,-0.7392578,0.29296875,0.07421875,8.09375,37.65625,-20.84375
272,1697616845,-0.7871094,0.11425781,-0.09082031,64.375,-27.09375,-15.1875
273,1697616885,-0.9248047,0.14453125,-0.22460938,77.6875,-21.78125,-12.625
274,1697616925,-0.99316406,0.16113281,-0.2265625,36.65625,2.5625,-11.65625
275,1697616965,-1.1494141,0.22753906,-0.22753906,4.375,16.65625,-12.4375
276,1697617005,-1.2119141,0.20800781,-0.22070312,35.75,17.6875,-12.875
277,1697617045,-1.3710938,0.21972656,-0.28515625,88.78125,14.59375,-21.15625
278,1697617085,-1.8867188,0.4794922,-0.2626953,20.625,33.4375,-23.46875
279,1697617125,-0.9785156,0.20214844,0.16796875,-85.59375,52.125,1.34375
280,1697617165,-0.5175781,-0.095703125,0.0390625,4.0,-6.65625,21.0625
281,1697617205,-0.8261719,-0.12597656,-0.34960938,32.375,1.875,21.0625
282,1697617245,-1.2724609,-0.47460938,-0.41796875,83.28125,11.53125,19.4375
283,1697617285,-1.2890625,-0.25097656,-0.12988281,-34.03125,21.25,-1.09375
284,1697617325,-1.0048828,0.16210938,0.39257812,-261.0,-21.5625,-16.34375
285,1697617365,-1.0439453,-0.32128906,-0.19628906,-14.25,-58.03125,16.25
286,1697617405,-1.140625,-0.5595703,-0.29296875,-14.65625,-16.96875,41.09375
287,1697617445,-0.97265625,-0.41210938,-0.3125,57.78125,6.09375,38.34375
288,1697617485,-1.0615234,0.123046875,-0.16015625,94.59375,6.15625,8.9375
289,1697617525,-0.6220703,0.60839844,0.88183594,-214.5625,-33.5625,-39.78125
290,1697617565,-0.48046875,0.19042969,-0.07519531,-92.3125,-39.625,-51.0
291,1697617605,0.6591797,-0.7753906,-1.0488281,177.96875,24.03125,-25.125
292,1697617645,0.31933594,-1.1318359,0.26757812,1.09375,-8.0,-90.0
293,1697617685,-0.7988281,0.59765625,-1.140625,110.21875,96.1875,-105.875
294,1697617725,-1.9902344,0.53808594,-0.41308594,344.9375,34.71875,200.28125
295,1697617765,-0.78222656,-0.51953125,0.4794922,-218.53125,40.65625,-25.1875
296,1697617805,-1.8027344,-0.036132812,0.08984375,-14.125,27.03125,-9.125
297,1697617845,-1.4902344,-0.23144531,0.328125,-16.4375,-14.96875,-23.4375
298,1697617885,-1.1425781,0.020507812,0.009765625,-49.28125,-48.28125,-26.34375
299,1697617925,-0.9296875,0.09667969,-0.17578125,-116.34375,-48.59375,-13.96875
300,1697617965,-0.58496094,-0.013671875,-0.17089844,-70.46875,-44.1875,24.90625
301,1697618005,-0.6376953,-0.38085938,0.047851562,-25.90625,-27.96875,49.8125
302,1697618045,-0.7998047,-0.68847656,-0.08300781,-13.4375,-13.25,61.65625
303,1697618085,-0.8457031,-0.46875,-0.06347656,46.6875,-26.78125,38.53125
304,1697618125,-0.953125,0.021484375,-0.032226562,85.78125,4.40625,7.28125
305,1697618165,-1.2451172,0.21191406,-0.020507812,77.1875,17.5625,-7.1875
306,1697618205,-1.2255859,0.13867188,-0.171875,-68.1875,0.59375,-20.84375
307,1697618245,-1.0029297,-0.12890625,-0.26757812,27.6875,-4.59375,0.75
308,1697618285,-0.9042969,-0.32128906,-0.07519531,25.5,28.5625,12.71875
309,1697618325,-1.0517578,-0.22460938,-0.029296875,63.75,10.75,19.53125
310,1697618365,-0.86035156,-0.0703125,-0.22265625,88.0625,-38.40625,6.84375
311,1697618405,-1.0722656,-0.049804688,-0.44140625,-54.875,-37.40625,-18.125
312,1697618445,-0.984375,0.14453125,-0.25683594,-58.6875,32.21875,-5.46875
313,1697618485,-0.9033203,0.123046875,-0.16015625,-39.9375,36.8125,14.25
314,1697618525,-1.015625,-0.08300781,-0.12011719,-13.25,30.09375,22.21875
315,1697618565,-0.99121094,-0.20703125,-0.076171875,22.6875,27.46875,30.09375
316,1697618605,-0.96191406,-0.14746094,-0.051757812,-15.9375,8.0625,19.96875
317,1697618645,-0.95703125,-0.068359375,-0.19824219,-36.8125,-13.25,15.34375
318,1697618685,-0.9716797,0.0068359375,-0.26171875,-56.15625,-2.125,17.40625
319,1697618725,-0.953125,0.07324219,-0.1953125,-13.4375,-2.875,22.40625
320,1697618765,-0.8847656,0.052734375,-0.32714844,1.4375,-28.9375,22.71875
321,1697618805,-0.79785156,-0.0146484375,-0.51171875,-29.75,-34.96875,17.15625
322,1697618845,-0.7548828,-0.09765625,-0.4716797,-45.25,-9.53125,15.46875
323,1697618885,-1.0517578,-0.15820312,0.041992188,-36.8125,26.3125,-20.5625
324,1697618925,-1.9902344,0.25878906,-0.07910156,-58.90625,-35.71875,-115.71875
325,1697618965,-1.2041016,0.46484375,0.12402344,-168.0625,-73.90625,-50.40625
326,1697619005,-1.0703125,0.016601562,0.20996094,-267.53125,-4.875,-35.4375
327,1697619045,-0.9013672,0.13085938,0.22265625,-285.90625,16.53125,-55.90625
328,1697619085,-0.84375,0.22851562,0.08984375,-128.25,9.28125,-58.53125
329,1697619125,-1.0566406,0.21289062,-0.041992188,-71.5,9.21875,1.28125
330,1697619165,-0.79589844,-0.0009765625,0.056640625,-45.6875,3.125,30.28125
331,1697619205,-0.96972656,-0.3408203,-0.115234375,-12.53125,18.625,13.0
332,1697619245,-0.8300781,-0.13671875,0.009765625,-86.25,14.71875,-18.65625
333,1697619285,-0.9482422,0.18457031,-0.19140625,-101.15625,24.78125,-8.53125
334,1697619325,-0.9580078,0.11425781,-0.25,-54.9375,32.78125,21.375
335,1697619365,-0.97558594,-0.038085938,-0.14648438,-34.9375,44.0,34.4375
336,1697619405,-1.0058594,-0.10644531,0.08203125,-74.71875,50.03125,31.21875
337,1697619445,-1.0029297,-0.0009765625,-0.009765625,-86.125,9.28125,11.125
338,1697619485,-1.0019531,0.17285156,-0.15625,-8.9375,-22.875,12.53125
339,1697619525,-1.0771484,0.043945312,-0.18359375,-28.9375,-22.84375,2.46875
340,1697619565,-1.0673828,-0.076171875,-0.17382812,-60.25,-9.40625,-27.4375
341,1697619605,-1.0048828,-0.111328125,0.013671875,-164.8125,-4.46875,-55.90625
342,1697619645,-0.83496094,0.057617188,-0.052734375,-189.03125,-13.25,-70.53125
343,1697619685,-0.8984375,-0.0029296875,-0.18359375,-19.0,-56.71875,-51.0
344,1697619725,-0.9345703,-0.18066406,-0.21875,-47.1875,-40.28125,-45.53125
345,1697619765,-0.8808594,-0.33789062,-0.19921875,-113.25,-9.71875,-59.4375
346,1697619805,-0.92285156,-0.42089844,-0.0859375,-131.90625,-6.90625,-72.875
347,1697619845,-0.921875,-0.32128906,-0.0546875,-90.09375,-19.03125,-72.75
348,1697619885,-0.95703125,-0.23242188,-0.20019531,-55.0,-20.875,-56.9375
349,1697619925,-0.88378906,-0.25878906,-0.2421875,-43.53125,-11.34375,-44.90625
350,1697619965,-1.0878906,-0.36816406,-0.13964844,-102.75,15.625,-47.65625
351,1697620005,-1.0,-0.45703125,-0.08300781,-98.71875,5.125,-62.0625
352,1697620045,-0.98535156,-0.35742188,-0.0107421875,-77.96875,-22.28125,-74.8125
353,1697620085,-1.0644531,-0.5019531,0.038085938,-92.625,-16.40625,-73.96875
354,1697620125,-0.9355469,-0.43359375,0.005859375,-18.9375,-58.71875,-79.21875
355,1697620165,-0.8808594,-0.7392578,-0.16894531,-42.125,-43.65625,-85.375
356,1697620205,-0.72558594,-0.61816406,-0.07910156,-75.34375,-40.09375,-118.09375
357,1697620245,-0.71191406,-0.5439453,-0.27734375,-36.75,-42.59375,-89.53125
358,1697620285,-0.7138672,-0.82910156,-0.16210938,-70.5,-14.46875,-89.15625
359,1697620325,-0.6357422,-0.7578125,-0.18457031,-50.0,-1.59375,-79.09375
360,1697620365,-0.18652344,1.0283203,-0.2763672,-40.53125,-72.875,-517.0
361,1697620405,0.041992188,-1.9853516,-0.15820312,-20.40625,-8.5,-40.5
362,1697620445,-0.34472656,-0.048828125,-0.07421875,110.5,-55.59375,-57.96875
363,1697620485,-0.47265625,-1.5322266,-0.083984375,109.71875,-12.5625,-5.21875
364,1697620525,-0.5654297,-0.83984375,-0.12792969,-18.5625,37.28125,-39.0625
365,1697620565,-0.43652344,-0.8808594,-0.030273438,20.3125,11.84375,-34.84375
366,1697620605,-0.40625,-0.9140625,-0.055664062,-10.8125,30.03125,-22.625
367,1697620645,-0.4091797,-0.8574219,-0.14257812,7.0,29.0625,2.03125
368,1697620685,-0.3671875,-0.8886719,-0.14355469,5.21875,50.09375,18.6875
369,1697620725,-0.38867188,-1.0107422,-0.14941406,29.28125,32.03125,20.15625
370,1697620765,-0.44140625,-0.9355469,-0.072265625,37.28125,18.6875,17.90625
371,1697620805,-0.4638672,-0.7685547,-0.06640625,24.5625,-1.28125,17.84375
372,1697620845,-0.6035156,-0.8466797,0.083984375,-23.09375,19.65625,27.34375
373,1697620885,-0.6777344,-0.73828125,0.0390625,1.375,-1.84375,17.59375
374,1697620925,-0.640625,-0.85058594,-0.001953125,4.625,2.625,15.03125
375,1697620965,-0.6308594,-0.7324219,0.0029296875,-18.875,-7.8125,24.625
376,1697621005,-0.6386719,-0.7236328,0.0146484375,-37.25,-4.53125,24.0
377,1697621045,-0.6542969,-0.7480469,0.0068359375,-25.21875,-14.03125,32.59375
378,1697621085,-0.70214844,-0.76953125,-0.06640625,-15.59375,-22.71875,46.28125
379,1697621125,-0.6933594,-0.8222656,0.04296875,20.78125,-29.90625,61.71875
380,1697621165,-0.6953125,-0.7890625,-0.0546875,49.0625,-53.34375,67.59375
381,1697621205,-0.7832031,-0.8046875,-0.026367188,50.75,-24.0625,80.40625
382,1697621245,-0.76171875,-0.6386719,-0.115234375,49.34375,-1.59375,88.28125
383,1697621285,-1.2158203,-0.8652344,-0.20703125,34.28125,49.125,60.625
384,1697621325,-1.1689453,-0.7529297,0.45214844,-123.375,58.96875,51.71875
385,1697621365,-1.0058594,-0.359375,0.16113281,33.4375,9.9375,78.75
386,1697621405,-0.7705078,-0.390625,-0.059570312,79.625,1.84375,81.8125
387,1697621445,-0.8847656,-0.31445312,-0.020507812,24.75,25.03125,74.0625
388,1697621485,-0.91503906,-0.2578125,-0.055664062,0.53125,18.84375,76.3125
389,1697621525,-0.84375,-0.3173828,-0.033203125,-10.40625,23.4375,86.6875
390,1697621565,-0.8378906,-0.375,-0.0107421875,10.90625,23.3125,80.71875
391,1697621605,-0.8955078,-0.3701172,-0.037109375,67.125,17.46875,70.625
392,1697621645,-0.79785156,-0.29882812,-0.057617188,111.8125,22.75,51.71875
393,1697621685,-0.8466797,-0.021484375,0.048828125,119.90625,33.875,29.125
394,1697621725,-0.97265625,0.049804688,0.12890625,69.875,20.3125,15.8125
395,1697621765,-1.0205078,0.009765625,0.001953125,68.15625,8.0,3.5
396,1697621805,-0.9902344,0.068359375,0.00390625,32.4375,-0.96875,-15.4375
397,1697621845,-1.0097656,0.14648438,-0.056640625,-8.4375,3.15625,-22.875
398,1697621885,-1.0654297,0.23242188,0.11230469,-0.6875,6.15625,-15.5625
399,1697621925,-1.0576172,0.08691406,0.13964844,2.375,-8.59375,0.9375
400,1697621965,-0.9716797,-0.11230469,0.055664062,-1.53125,-22.15625,1.125
401,1697622005,-0.9550781,-0.25683594,0.053710938,-28.59375,-20.21875,-6.28125
402,1697622045,-0.9921875,-0.38671875,0.13964844,-54.46875,-21.71875,-20.84375
403,1697622085,-0.9033203,-0.16210938,0.19238281,4.25,-21.84375,-14.4375
404,1697622125,-0.90722656,-0.0126953125,0.10546875,34.34375,-10.8125,6.0625
405,1697622165,-0.90527344,-0.016601562,0.17675781,11.6875,14.15625,23.4375
406,1697622205,-0.96191406,0.0029296875,0.0546875,36.46875,12.6875,29.96875
407,1697622245,-1.2070312,0.04296875,-0.06640625,36.0,28.375,20.65625
408,1697622285,-1.0068359,0.20703125,-0.018554688,-24.25,15.0,-3.9375
409,1697622325,-0.9140625,0.22558594,-0.08300781,-16.3125,-10.4375,-0.53125
410,1697622365,-0.9667969,-0.0703125,-0.18261719,-46.53125,-32.03125,-0.15625
411,1697622405,-1.0351562,0.27734375,-0.37304688,46.96875,-11.28125,20.53125
412,1697622445,-1.1689453,-0.2265625,-0.49023438,-16.875,10.5625,45.65625
413,1697622485,-1.1591797,-0.3251953,-0.28027344,-72.53125,63.90625,57.75
414,1697622525,-1.1748047,-0.23535156,-0.20898438,-29.6875,81.71875,46.9375
415,1697622565,-1.0478516,-0.27929688,-0.12207031,-83.625,75.125,12.78125
416,1697622605,-0.8779297,-0.07910156,0.11621094,-80.53125,101.9375,12.96875
417,1697622645,-0.63183594,-0.06542969,0.38964844,-12.40625,-25.34375,23.28125
418,1697622685,-0.6542969,-0.40234375,-0.09277344,-64.46875,-35.78125,-7.8125
419,1697622725,-0.6748047,-0.5283203,-0.16894531,-5.21875,-20.625,-12.125
420,1697622765,-0.56152344,-0.7734375,-0.23242188,85.90625,-0.625,-12.6875
421,1697622805,-1.5820312,-0.7392578,0.17578125,-9.78125,23.4375,-85.5
422,1697622845,-1.9902344,0.016601562,-0.111328125,-91.3125,-115.0625,-181.0
423,1697622885,-1.9902344,0.8613281,-0.28125,-120.0,-138.0625,-114.3125
424,1697622925,-1.7861328,0.33691406,-0.043945312,-70.5625,29.78125,-66.625
425,1697622965,-1.8847656,-0.087890625,-0.23144531,75.3125,8.78125,-27.03125
426,1697623005,-1.1865234,-0.14941406,-0.20703125,102.28125,-20.15625,-15.5625
427,1697623045,-0.5332031,0.3203125,-0.25585938,9.75,5.125,-10.84375
428,1697623085,0.2109375,0.359375,0.0087890625,27.625,31.1875,24.96875
429,1697623125,0.63671875,0.33203125,-0.0234375,30.875,9.28125,36.28125
430,1697623165,0.4482422,0.091796875,0.17089844,32.15625,32.53125,15.75
431,1697623205,0.076171875,-0.31054688,0.080078125,-16.4375,24.34375,-9.375
432,1697623245,-0.4140625,-0.45898438,-0.1875,15.84375,4.46875,-20.3125
433,1697623285,-0.27929688,-0.17382812,-0.048828125,35.75,2.375,-40.875
434,1697623325,-1.8232422,0.62890625,-0.28222656,59.96875,-87.96875,-73.53125
435,1697623365,-1.9902344,-0.5214844,-0.56152344,3.09375,110.96875,80.875
436,1697623405,-1.1259766,-1.6308594,0.70703125,-48.25,115.53125,74.59375
437,1697623445,-1.4082031,-0.6298828,0.34570312,51.4375,-51.46875,-20.5625
438,1697623485,-1.3134766,0.24023438,-0.4658203,121.5,-4.03125,5.3125
439,1697623525,-0.43164062,0.16015625,-0.15429688,158.5,-20.28125,19.96875
440,1697623565,-0.75878906,-0.06542969,-0.16210938,43.875,-10.75,19.0
441,1697623605,-1.2041016,0.10546875,-0.2861328,125.53125,-18.3125,19.25
442,1697623645,-1.0634766,-0.0146484375,-0.16113281,140.375,5.4375,34.375
443,1697623685,-0.89453125,-0.18847656,-0.20703125,174.1875,6.84375,46.03125
444,1697623725,-0.89160156,-0.23242188,-0.22265625,181.6875,14.28125,46.46875
445,1697623765,-0.92871094,-0.111328125,-0.25390625,170.6875,16.0,29.0625
446,1697623805,-1.0292969,-0.080078125,-0.24804688,137.0,21.0625,5.25
447,1697623845,-1.0488281,-0.06347656,-0.06933594,94.28125,27.71875,-3.53125
448,1697623885,-1.0234375,-0.10839844,-0.140625,120.09375,-0.3125,7.65625
449,1697623925,-1.0634766,-0.13867188,-0.20996094,175.75,-2.5625,19.125
450,1697623965,-1.0029297,-0.09375,-0.28808594,176.96875,-4.75,19.125
451,1697624005,-0.9814453,0.028320312,-0.3408203,151.40625,-3.46875,13.9375
452,1697624045,-0.9921875,0.07324219,-0.19335938,132.96875,8.40625,16.1875
453,1697624085,-0.9970703,0.0107421875,-0.19335938,129.625,-4.46875,25.71875
454,1697624125,-0.9785156,-0.07910156,-0.31054688,149.21875,-3.96875,32.71875
455,1697624165,-0.9941406,-0.13476562,-0.17871094,131.6875,-8.125,27.3125
456,1697624205,-0.9277344,-0.19238281,-0.2548828,119.3125,-23.0625,12.78125
457,1697624245,-0.88378906,-0.26171875,-0.14160156,146.46875,-30.28125,0.625
458,1697624285,-0.9658203,-0.24121094,-0.1015625,176.5625,-55.3125,-25.125
459,1697624325,-1.3271484,-0.10058594,-0.26171875,70.65625,-54.03125,-60.28125
460,1697624365,-1.0849609,-0.09863281,0.095703125,-44.5625,-3.0625,-63.53125
461,1697624405,-1.0761719,0.0625,-0.041015625,97.15625,11.65625,-56.375
462,1697624445,-0.9550781,0.17578125,-0.10253906,117.28125,35.46875,-48.09375
463,1697624485,-0.9873047,0.005859375,-0.30371094,186.125,83.0625,-35.875
464,1697624525,-1.1484375,-0.390625,0.0234375,102.8125,78.90625,-49.5
465,1697624565,-1.1552734,0.12890625,0.14160156,72.5625,57.6875,-64.6875
466,1697624605,-1.0224609,0.04296875,-0.0009765625,110.5,25.5,-53.875
467,1697624645,-0.86816406,-0.099609375,-0.16015625,15.25,40.09375,-44.46875
468,1697624685,-0.8652344,-0.040039062,0.0703125,8.84375,32.15625,-23.90625
469,1697624725,-0.7783203,-0.09765625,0.017578125,39.09375,7.125,1.84375
470,1697624765,-0.8330078,-0.21679688,-0.02734375,13.65625,14.09375,20.28125
471,1697624805,-1.0214844,-0.41796875,-0.08886719,44.0625,7.1875,34.0625
472,1697624845,-0.9951172,-0.32128906,0.076171875,41.4375,-15.75,37.90625
473,1697624885,-0.89746094,-0.0146484375,-0.16210938,34.28125,-12.28125,46.03125
474,1697624925,-1.1240234,0.032226562,-0.16992188,53.15625,18.84375,55.3125
475,1697624965,-1.5996094,-0.6376953,-0.2763672,47.71875,34.59375,35.90625
476,1697625005,-0.7675781,-0.20800781,0.1015625,-175.1875,6.90625,-1.6875
477,1697625045,-0.8808594,0.091796875,0.09765625,-161.15625,32.15625,-28.71875
478,1697625085,-0.9980469,0.19335938,-0.1328125,2.84375,-43.34375,10.75
479,1697625125,-1.0224609,0.045898438,-0.18554688,31.0625,-29.65625,25.59375
480,1697625165,-0.9345703,-0.043945312,-0.3310547,-8.6875,-20.625,17.65625
481,1697625205,-0.9941406,-0.15917969,-0.24804688,-24.875,7.5,13.8125
482,1697625245,-0.9746094,-0.27148438,-0.08496094,25.375,25.375,22.78125
483,1697625285,-0.97753906,-0.13574219,-0.033203125,45.5,28.375,25.65625
484,1697625325,-0.9824219,-0.037109375,-0.07910156,-20.71875,7.125,14.59375
485,1697625365,-0.9921875,-0.20605469,-0.12988281,-25.09375,5.3125,9.65625
486,1697625405,-0.9189453,-0.19824219,-0.09277344,-5.5625,11.65625,13.1875
487,1697625445,-0.9326172,-0.32226562,-0.12890625,58.6875,16.21875,21.9375
488,1697625485,-0.85253906,-0.2783203,-0.037109375,111.4375,40.90625,21.3125
489,1697625525,-0.80371094,-0.10449219,0.034179688,86.71875,10.875,-2.78125
490,1697625565,-1.5527344,-0.35742188,-0.12207031,36.90625,-58.96875,-57.90625
491,1697625605,-0.9824219,-0.005859375,-0.10839844,-92.96875,-76.25,-80.5625
492,1697625645,-1.1210938,0.14648438,-0.12207031,-154.8125,-65.90625,-90.625
493,1697625685,-1.3710938,0.28222656,-0.21679688,-127.53125,-13.96875,-91.0
494,1697625725,-0.8232422,0.28710938,-0.1796875,-88.75,36.4375,-41.5
495,1697625765,-0.8828125,-0.41601562,0.0126953125,-93.34375,34.71875,-27.5625
496,1697625805,-1.0429688,-0.6015625,-0.045898438,-125.25,32.90625,-63.71875
497,1697625845,-0.8798828,-0.27246094,0.064453125,-30.71875,4.40625,-44.0625
498,1697625885,-0.7949219,-0.26464844,-0.22558594,90.125,-31.125,-24.40625
499,1697625925,-0.9042969,-0.18554688,-0.22167969,56.8125,-9.09375,-9.75
500,1697625965,-0.86816406,-0.21386719,-0.032226562,31.59375,3.46875,7.78125
501,1697626005,-0.8925781,-0.19824219,0.21582031,27.6875,-2.375,25.46875
502,1697626045,-0.9560547,-0.109375,0.16992188,83.125,-20.21875,54.40625
503,1697626085,-1.2138672,-0.12011719,-0.01953125,101.53125,-20.5625,62.8125
504,1697626125,-1.1347656,-0.07519531,-0.33496094,111.125,-18.875,38.15625
505,1697626165,-0.78222656,-0.5673828,-0.4033203,125.78125,-1.34375,-15.5
506,1697626205,-0.79785156,-0.07714844,-0.13378906,-66.71875,29.0,-48.875
507,1697626245,-1.1591797,-0.18847656,-0.08691406,32.875,38.4375,-15.5
508,1697626285,-1.0263672,-0.119140625,-0.15332031,69.6875,9.09375,-26.46875
509,1697626325,-1.0507812,-0.23730469,-0.052734375,-20.65625,20.875,-33.5625
510,1697626365,-0.90234375,-0.29101562,-0.080078125,10.0625,7.375,-32.15625
511,1697626405,-0.8535156,-0.31347656,-0.06640625,-36.875,27.71875,-30.0625
512,1697626445,-1.0820312,-1.1806641,-0.24414062,-68.5,39.90625,-61.09375
513,1697626485,-0.6425781,-0.234375,-0.18261719,-70.6875,58.03125,-57.40625
514,1697626525,-0.84472656,-0.68652344,-0.033203125,80.5625,40.59375,64.40625
515,1697626565,-0.7861328,-0.38378906,0.045898438,25.3125,55.46875,21.375
516,1697626605,-0.68652344,-0.16503906,-0.045898438,22.0625,70.625,6.96875
517,1697626645,-0.78808594,-0.29296875,0.001953125,33.625,83.5,6.4375
518,1697626685,-0.88671875,-0.36816406,-0.099609375,61.375,85.6875,-0.84375
519,1697626725,-0.9394531,-0.48535156,-0.15234375,133.15625,80.4375,-11.09375
520,1697626765,-1.0957031,-0.23925781,-0.020507812,38.3125,94.59375,-23.53125
521,1697626805,-0.9433594,-0.07910156,0.08105469,101.40625,75.0625,-17.8125
522,1697626845,-1.0058594,-0.18164062,-0.03515625,98.96875,58.40625,-8.21875
523,1697626885,-0.8984375,-0.15917969,0.0048828125,40.9375,50.21875,-3.46875
524,1697626925,-0.8671875,-0.13085938,0.06933594,33.25,17.21875,6.3125
525,1697626965,-0.8066406,-0.119140625,-0.11035156,24.8125,0.125,22.65625
526,1697627005,-0.7734375,-0.12597656,-0.29492188,31.28125,-3.34375,52.375
527,1697627045,-0.95703125,-0.33203125,-0.30859375,49.65625,0.375,69.53125
528,1697627085,-0.8808594,-0.41308594,-0.31152344,32.9375,6.03125,77.28125
529,1697627125,-0.87109375,-0.2861328,-0.22851562,-40.0625,5.78125,61.46875
530,1697627165,-1.9902344,-0.32128906,-0.38183594,2.1875,0.71875,40.125
531,1697627205,-0.9296875,-0.07714844,0.14355469,-103.65625,80.8125,0.5
532,1697627245,-1.1220703,-0.06640625,0.57910156,-250.25,66.65625,5.03125
533,1697627285,-0.90234375,0.28222656,-0.19726562,125.28125,-82.71875,21.875
534,1697627325,-0.97753906,0.23144531,-0.58984375,-85.96875,-36.6875,3.375
535,1697627365,-0.99121094,0.35839844,-0.4814453,-200.75,18.5625,15.46875
536,1697627405,-0.8535156,0.1875,-0.14257812,-62.46875,16.59375,43.71875
537,1697627445,-0.9707031,-0.11816406,-0.119140625,78.59375,-0.25,37.3125
538,1697627485,-0.9560547,-0.24609375,-0.16894531,-8.875,-9.71875,30.15625
539,1697627525,-0.9423828,-0.20800781,-0.23925781,-57.40625,-4.9375,22.125
540,1697627565,-0.91015625,-0.24121094,-0.22070312,-54.46875,-13.84375,13.3125
541,1697627605,-0.9765625,-0.22460938,-0.20117188,-48.65625,-16.3125,7.9375
542,1697627645,-0.9628906,-0.3623047,-0.21582031,-6.375,-18.9375,10.6875
543,1697627685,-0.8408203,-0.36523438,-0.13671875,35.75,6.21875,3.1875
544,1697627725,-0.7441406,-0.25097656,-0.059570312,26.15625,6.40625,-30.0
545,1697627765,-1.3349609,-0.22460938,-0.14941406,30.875,-8.84375,-88.96875
546,1697627805,-1.0556641,-0.10058594,-0.07910156,-74.96875,-11.28125,-114.4375
547,1697627845,-1.8291016,0.059570312,0.14160156,-126.84375,-13.3125,-138.71875
548,1697627885,-1.2451172,0.60546875,0.30664062,-209.1875,-36.8125,-97.65625
549,1697627925,-0.9003906,0.2265625,-0.095703125,-92.71875,-56.8125,-54.375
550,1697627965,-0.81933594,-0.0078125,-0.31445312,45.40625,-73.0,-17.0
551,1697628005,-0.9765625,-0.8496094,0.1015625,-67.03125,24.59375,-16.84375
552,1697628045,-0.8144531,0.13378906,0.15332031,-160.71875,7.1875,-50.15625
553,1697628085,-0.62597656,0.38671875,-0.08691406,-18.6875,-20.6875,-1.28125
554,1697628125,-0.69628906,0.024414062,-0.5185547,-45.6875,-14.15625,58.65625
555,1697628165,-0.8935547,-0.19726562,-0.2607422,-21.5,15.6875,60.6875
556,1697628205,-1.0478516,-0.5966797,-0.32421875,-122.46875,52.25,32.0625
557,1697628245,-1.21875,-0.49902344,-0.26757812,-99.875,34.125,16.25
558,1697628285,-1.6894531,-0.37109375,0.018554688,-134.125,72.1875,-17.3125
559,1697628325,-0.9140625,0.1484375,0.56640625,-220.90625,26.90625,-23.78125
560,1697628365,-0.9589844,0.6777344,-0.37597656,15.90625,-89.90625,-28.84375
561,1697628405,-0.9277344,0.33984375,-0.6904297,-128.25,-44.375,-11.40625
562,1697628445,-1.0517578,0.051757812,-0.4873047,-184.96875,-2.875,4.78125
563,1697628485,-0.94433594,0.11230469,-0.26367188,-86.8125,1.71875,6.3125
564,1697628525,-0.9765625,-0.0048828125,-0.21191406,-91.21875,-31.4375,-0.96875
565,1697628565,-1.0039062,-0.203125,-0.40820312,-89.0625,-44.8125,11.25
566,1697628605,-1.0,-0.2998047,-0.30859375,-64.65625,-10.5625,15.59375
567,1697628645,-0.92871094,-0.3330078,-0.19140625,-61.59375,4.40625,1.78125
568,1697628685,-0.8076172,-0.38183594,-0.15527344,-43.40625,11.65625,-11.21875
569,1697628725,-0.5839844,-0.41992188,-0.12207031,1.25,16.40625,-23.0
570,1697628765,-0.46679688,-0.609375,-0.20605469,115.46875,33.25,-45.09375
571,1697628805,-0.60839844,-1.0185547,0.49316406,-623.90625,5.96875,-164.90625
572,1697628845,-1.7060547,-0.15722656,0.3955078,-290.96875,5.375,-245.53125
573,1697628885,-1.9902344,0.33007812,-0.017578125,234.40625,-96.5,-100.15625
574,1697628925,-1.2929688,-0.045898438,-0.38671875,-48.125,-78.1875,-77.125
575,1697628965,-1.5341797,0.0078125,-0.35839844,-89.125,-6.84375,-56.125
576,1697629005,-0.99121094,-0.6425781,0.16992188,-196.75,49.4375,-9.09375
577,1697629045,-1.0664062,-0.14550781,0.3388672,-71.5,-11.78125,6.53125
578,1697629085,-0.64746094,0.2841797,-0.25,89.40625,-64.53125,62.625
579,1697629125,-0.60058594,0.12207031,-0.38378906,25.90625,-22.84375,85.90625
580,1697629165,-0.5605469,-0.1171875,-0.2734375,-4.46875,29.125,83.75
581,1697629205,-0.6123047,-0.32421875,-0.11816406,10.59375,45.15625,44.9375
582,1697629245,-0.9794922,-0.4453125,-0.19433594,-126.59375,19.53125,7.59375
583,1697629285,-1.4013672,-0.33007812,-0.28320312,-97.1875,21.78125,-17.625
584,1697629325,-1.1386719,0.14355469,-0.13476562,-79.1875,28.5625,-20.90625
585,1697629365,-0.9277344,-0.03125,0.026367188,-30.78125,-15.5,-10.90625
586,1697629405,-1.078125,-0.036132812,-0.19628906,-60.9375,-51.53125,-27.5
587,1697629445,-1.1972656,0.0126953125,-0.27734375,-78.9375,-53.59375,-12.3125
588,1697629485,-1.0195312,0.12792969,-0.26660156,-122.6875,-23.8125,-4.5625
589,1697629525,-0.93066406,0.0859375,-0.3203125,-92.125,-24.96875,14.59375
590,1697629565,-0.94921875,-0.17578125,-0.29882812,4.875,-14.21875,32.65625
591,1697629605,-0.9277344,-0.3857422,-0.18847656,-7.34375,10.1875,33.78125
592,1697629645,-0.9453125,-0.37109375,-0.08300781,-62.875,9.15625,16.375
593,1697629685,-0.8574219,-0.24707031,-0.07714844,-56.0625,-15.1875,-0.84375
594,1697629725,-0.9589844,-0.27148438,-0.16113281,-23.28125,-19.15625,0.5
595,1697629765,-0.9736328,-0.23046875,-0.10644531,-4.78125,-6.65625,-9.625
596,1697629805,-1.2363281,-0.06640625,-0.11621094,-52.75,-22.65625,-31.40625
597,1697629845,-1.3222656,-0.09667969,-0.18945312,-98.53125,-31.3125,-48.25
598,1697629885,-1.0986328,-0.30664062,-0.17578125,-82.71875,-10.4375,-64.9375
599,1697629925,-1.3427734,-0.13574219,0.12695312,-135.6875,37.53125,-84.8125
600,1697629965,-1.0292969,0.06347656,0.12695312,-89.6875,-16.78125,-78.28125
601,1697630005,-0.7089844,-0.14648438,-0.24707031,-98.53125,2.25,-77.25
602,1697630045,-0.45898438,-0.125,0.015625,-101.03125,46.5625,-70.0625
603,1697630085,-0.6191406,-0.16699219,0.076171875,-57.09375,43.15625,-47.34375
604,1697630125,-0.87890625,-0.12890625,-0.12011719,31.96875,12.09375,-28.84375
605,1697630165,-0.921875,-0.024414062,-0.24609375,22.5625,1.9375,-11.75
606,1697630205,-0.78125,-0.1015625,-0.2861328,25.96875,3.28125,10.6875
607,1697630245,-1.1835938,-0.15527344,-0.049804688,-55.4375,-18.4375,23.34375
608,1697630285,-0.9082031,-0.5839844,0.0009765625,67.96875,-17.46875,58.71875
609,1697630325,-0.9482422,-0.048828125,-0.29296875,3.15625,-2.5,24.0
610,1697630365,-1.1708984,-0.07519531,-0.19628906,5.59375,-5.1875,30.96875
611,1697630405,-1.125,0.18457031,-0.13671875,-34.0625,-37.125,34.4375
612,1697630445,-1.0585938,0.095703125,-0.07324219,-59.65625,-71.34375,51.53125
613,1697630485,-1.3173828,-0.12695312,-0.3076172,-21.8125,-139.21875,62.8125
614,1697630525,-1.0664062,-0.00390625,-0.015625,-32.6875,-72.28125,43.03125
615,1697630565,-0.9355469,-0.23242188,0.3701172,193.71875,-39.125,10.4375
616,1697630605,-1.0214844,0.06738281,0.37402344,421.78125,-27.46875,-11.28125
617,1697630645,-1.1464844,0.12597656,-0.2783203,133.84375,-36.4375,101.875
618,1697630685,-0.6386719,0.9140625,-0.2607422,-172.125,27.21875,19.3125
619,1697630725,-1.3154297,-0.12792969,-0.032226562,-222.0,175.15625,143.9375
620,1697630765,-0.94140625,-0.15722656,-0.018554688,2.375,27.03125,51.96875
621,1697630805,-0.8808594,0.22753906,0.107421875,43.625,11.21875,32.78125
622,1697630845,-0.9013672,0.32128906,-0.033203125,-14.0,-8.375,55.4375
623,1697630885,-1.1953125,0.3330078,-0.11328125,24.75,13.375,36.625
624,1697630925,-0.9921875,0.28125,-0.19433594,25.96875,1.34375,33.09375
625,1697630965,-0.99609375,0.29882812,-0.19726562,-1.46875,16.78125,34.375
626,1697631005,-0.90527344,0.22851562,-0.06542969,-25.03125,47.53125,38.21875
627,1697631045,-1.0175781,0.2578125,0.0068359375,29.34375,29.0,16.96875
628,1697631085,-0.9091797,0.34375,-0.005859375,-31.4375,18.125,4.53125
629,1697631125,-0.8769531,0.38867188,-0.09082031,-112.4375,9.65625,-12.875
630,1697631165,-0.7792969,0.4267578,-0.08496094,-93.03125,12.28125,-20.3125
631,1697631205,-0.69433594,0.4296875,-0.12890625,-48.3125,30.28125,-16.40625
632,1697631245,-0.9501953,0.5625,-0.31054688,-31.9375,33.1875,-31.84375
633,1697631285,-1.7021484,1.0380859,-0.17089844,88.84375,44.1875,34.0
634,1697631325,-0.8359375,0.71191406,0.09863281,-8.0625,22.9375,37.1875
635,1697631365,-1.40625,0.21582031,-0.2421875,20.84375,-60.5625,-11.46875
636,1697631405,-1.3193359,-0.119140625,-0.5214844,31.09375,-54.125,-18.40625
637,1697631445,-0.84765625,-0.17089844,-0.34960938,-69.53125,0.4375,-28.84375
638,1697631485,-0.95703125,-0.060546875,-0.15625,-19.78125,0.0,-40.875
639,1697631525,-0.80371094,0.036132812,-0.15917969,-24.375,-9.78125,-43.9375
640,1697631565,-0.8857422,0.076171875,-0.09082031,-54.09375,-1.71875,-43.375
641,1697631605,-0.8310547,0.17480469,-0.0546875,-55.4375,7.5625,-32.40625
642,1697631645,-0.95996094,0.041015625,-0.048828125,-22.90625,7.5625,-14.09375
643,1697631685,-0.9501953,-0.06640625,-0.08886719,50.53125,-4.21875,-0.71875
644,1697631725,-0.9267578,-0.03515625,-0.12207031,73.96875,7.5625,5.5
645,1697631765,-0.97558594,-0.038085938,-0.22949219,48.8125,5.125,4.34375
646,1697631805,-0.9873047,-0.00390625,-0.21484375,28.0,30.625,6.4375
647,1697631845,-0.9970703,0.051757812,0.111328125,22.75,29.34375,18.3125
648,1697631885,-1.0087891,-0.15527344,-0.19335938,43.6875,-8.84375,22.71875
649,1697631925,-0.9121094,-0.1953125,-0.15234375,25.5,-6.53125,10.21875
650,1697631965,-0.9667969,-0.13671875,-0.18359375,12.8125,-8.0625,-2.3125
651,1697632005,-1.0498047,-0.07421875,-0.20996094,-19.25,-0.625,-3.9375
652,1697632045,-1.046875,-0.0703125,-0.23925781,-58.84375,-3.40625,-3.65625
653,1697632085,-0.91308594,-0.15332031,-0.19042969,7.78125,14.40625,-13.03125
654,1697632125,-1.0703125,-0.037109375,-0.017578125,91.65625,19.78125,-57.96875
655,1697632165,-1.3076172,0.057617188,0.10058594,23.28125,-40.09375,-102.9375
656,1697632205,-1.3398438,0.21484375,0.021484375,-104.5,-40.78125,-129.0625
657,1697632245,-1.2392578,0.3125,0.08691406,-178.4375,5.6875,-127.3125
658,1697632285,-1.0820312,0.390625,0.11035156,-73.75,0.375,-97.09375
659,1697632325,-0.8925781,0.40039062,-0.14257812,43.6875,-25.875,-44.40625
660,1697632365,-0.8105469,0.171875,-0.11425781,77.0625,-4.59375,-7.4375
661,1697632405,-0.89160156,-0.018554688,-0.13085938,125.84375,-6.03125,6.65625
662,1697632445,-1.0273438,-0.6660156,-0.123046875,-39.8125,-1.46875,-0.46875
663,1697632485,-0.9375,-0.29492188,0.07519531,-93.78125,29.71875,-46.5625
664,1697632525,-0.9111328,0.18066406,0.047851562,5.78125,6.46875,-14.9375
665,1697632565,-0.9316406,-0.21582031,-0.076171875,86.21875,-15.8125,7.78125
666,1697632605,-1.0048828,-0.18652344,-0.0009765625,17.3125,-4.09375,-0.84375
667,1697632645,-0.90527344,-0.12109375,0.0087890625,40.375,-15.375,9.15625
668,1697632685,-0.9667969,-0.23242188,0.009765625,69.4375,-22.28125,16.0625
669,1697632725,-1.0458984,-0.22949219,0.06640625,45.9375,-11.78125,11.4375
670,1697632765,-0.9785156,-0.2939453,0.08105469,49.0625,-17.8125,5.625
671,1697632805,-0.9296875,-0.18261719,0.095703125,34.59375,-19.03125,0.25
672,1697632845,-0.8388672,-0.19921875,0.041992188,32.5625,-18.6875,8.0625
673,1697632885,-0.89160156,-0.23632812,0.09472656,45.625,-13.375,16.90625
674,1697632925,-0.9082031,-0.19140625,0.12109375,58.03125,-10.5,24.0
675,1697632965,-0.89746094,-0.107421875,0.12695312,44.59375,2.0625,27.40625
676,1697633005,-0.99609375,-0.14648438,0.07519531,21.34375,11.90625,31.375
677,1697633045,-1.2392578,-0.15332031,0.052734375,14.8125,38.15625,25.03125
678,1697633085,-1.9902344,-0.28710938,0.0390625,-2.59375,34.3125,0.8125
679,1697633125,-0.6738281,-0.21191406,0.049804688,-23.34375,-11.40625,-13.28125
680,1697633165,-0.8125,0.4326172,-0.2607422,0.40625,-15.125,-38.125
681,1697633205,-0.9892578,0.21191406,-0.20703125,11.15625,3.78125,13.125
682,1697633245,-0.99121094,0.10058594,-0.25195312,34.65625,2.0,24.625
683,1697633285,-0.9892578,0.1875,-0.35058594,27.9375,7.3125,15.34375
684,1697633325,-1.0126953,0.06640625,-0.23632812,-31.6875,30.875,13.0625
685,1697633365,-1.0449219,-0.08984375,-0.119140625,-17.59375,40.90625,22.40625
686,1697633405,-1.0322266,-0.15234375,-0.001953125,25.90625,49.375,26.6875
687,1697633445,-0.9892578,-0.31347656,0.048828125,-47.9375,23.3125,15.9375
688,1697633485,-1.0087891,-0.047851562,-0.056640625,33.71875,-1.84375,8.0625
689,1697633525,-0.99902344,-0.044921875,-0.12207031,54.96875,-8.71875,10.4375
690,1697633565,-1.0048828,0.0107421875,-0.19726562,30.875,-3.125,4.28125
691,1697633605,-0.9609375,0.06933594,-0.15527344,6.15625,6.40625,-0.34375
692,1697633645,-0.9609375,0.07128906,-0.14355469,-20.40625,10.1875,-2.3125
693,1697633685,-1.0507812,-0.036132812,-0.14355469,-3.75,10.4375,-0.21875
694,1697633725,-0.99902344,-0.047851562,-0.115234375,17.875,8.40625,-1.03125
695,1697633765,-1.0205078,0.0,-0.12402344,13.53125,3.21875,-0.09375
696,1697633805,-1.0214844,0.03125,-0.16210938,8.46875,1.15625,1.28125
697,1697633845,-0.98828125,0.01953125,-0.12695312,4.1875,5.84375,5.875
698,1697633885,-0.9863281,0.046875,-0.10546875,4.0625,6.71875,4.65625
699,1697633925,-0.9873047,0.053710938,-0.08105469,-10.75,3.84375,3.75
700,1697633965,-0.99121094,-0.076171875,-0.12207031,-14.78125,1.84375,3.90625
701,1697634005,-0.97558594,-0.10644531,-0.12792969,-7.34375,4.28125,3.1875
702,1697634045,-0.9941406,-0.076171875,-0.11328125,7.125,3.0625,1.34375
703,1697634085,-1.0058594,-0.03125,-0.11621094,-3.3125,2.0625,-4.875
704,1697634125,-0.9736328,0.0048828125,-0.14453125,-15.15625,0.1875,-7.4375
705,1697634165,-0.9892578,-0.0107421875,-0.16113281,1.09375,0.125,-3.71875
706,1697634205,-1.0185547,-0.037109375,-0.15136719,5.28125,-0.4375,-1.03125
707,1697634245,-1.0039062,-0.03125,-0.17285156,9.5625,-1.28125,0.25
708,1697634285,-1.0224609,0.018554688,-0.17578125,2.84375,1.9375,1.34375
709,1697634325,-1.0107422,0.0048828125,-0.15625,-0.03125,2.875,3.5
710,1697634365,-1.0068359,0.0146484375,-0.14941406,-5.8125,0.25,4.65625
711,1697634405,-0.99121094,-0.01953125,-0.18359375,-2.09375,-1.40625,6.0625
712,1697634445,-0.9951172,0.021484375,-0.15820312,-19.5,5.96875,6.0
713,1697634485,-0.9980469,-0.0048828125,-0.11816406,-18.875,6.34375,9.15625
714,1697634525,-1.0048828,-0.044921875,-0.140625,-18.03125,-0.1875,8.3125
715,1697634565,-1.0048828,-0.061523438,-0.12402344,-21.6875,4.21875,0.0
716,1697634605,-1.0654297,0.0146484375,-0.10839844,-18.5,5.125,-17.25
717,1697634645,-1.0683594,0.0859375,-0.10058594,-46.09375,3.65625,-22.25
718,1697634685,-0.9277344,-0.028320312,-0.07910156,-26.875,-3.0625,-9.4375
719,1697634725,-0.87109375,-0.095703125,-0.099609375,5.34375,-27.90625,-7.6875
720,1697634765,-0.9394531,-0.29492188,-0.5966797,147.25,-39.5625,-19.53125
721,1697634805,-1.0527344,-0.56347656,0.04296875,-170.78125,8.96875,-45.46875
722,1697634845,-1.0341797,-0.203125,-0.061523438,7.0625,-11.46875,-43.4375
723,1697634885,-0.9970703,0.25878906,-0.19335938,55.28125,-14.28125,-14.5625
724,1697634925,-0.85058594,0.2607422,-0.061523438,54.0625,-2.6875,17.15625
725,1697634965,-0.921875,-0.0087890625,-0.0703125,45.40625,8.65625,29.96875
726,1697635005,-1.0283203,0.09082031,0.107421875,17.0,18.6875,22.65625
727,1697635045,-1.203125,0.06347656,-0.076171875,40.5,-26.96875,23.03125
728,1697635085,-0.9667969,0.0546875,-0.171875,-2.53125,-12.875,21.1875
729,1697635125,-0.9033203,-0.1796875,-0.1640625,-20.90625,4.21875,15.6875
730,1697635165,-1.1054688,-0.2841797,-0.20898438,4.0625,0.4375,-1.5
731,1697635205,-0.97265625,-0.19140625,-0.005859375,-31.6875,21.40625,-12.5625
732,1697635245,-0.9716797,0.016601562,-0.030273438,0.71875,-2.625,-8.28125
733,1697635285,-0.98046875,-0.038085938,-0.16210938,51.4375,-13.625,2.59375
