# Sensor type: Respeck
# Activity type: Sitting
# Activity subtype: Eating
# Subject id: s1929139
# Notes: 
timestamp,accel_x,accel_y,accel_z,gyro_x,gyro_y,gyro_z
1695737106928,-0.2512207,-0.7156372,0.70965576,2.203125,0.359375,0.78125
1695737106963,-0.23339844,-0.7070923,0.7147827,2.671875,1.296875,0.625
1695737107008,-0.24682617,-0.70196533,0.71307373,3.09375,1.578125,0.6875
1695737107043,-0.24633789,-0.7217407,0.71258545,3.609375,1.609375,0.375
1695737107087,-0.24023438,-0.7227173,0.70770264,1.890625,2.15625,0.296875
1695737107120,-0.21728516,-0.70391846,0.6972046,0.625,1.046875,-0.234375
1695737107165,-0.234375,-0.70758057,0.70306396,2.171875,0.46875,-0.25
1695737107200,-0.23852539,-0.71954346,0.7260132,3.640625,2.140625,0.265625
1695737107245,-0.23266602,-0.73565674,0.7003784,2.859375,1.546875,0.828125
1695737107278,-0.2241211,-0.7151489,0.7015991,3.078125,2.796875,0.171875
1695737107357,-0.22216797,-0.7070923,0.70111084,2.65625,2.53125,0.234375
1695737107362,-0.21240234,-0.73223877,0.69696045,3.828125,2.28125,0.59375
1695737107402,-0.2055664,-0.73516846,0.6871948,0.484375,-0.1875,0.0
1695737107436,-0.21264648,-0.7197876,0.69525146,1.4375,0.09375,0.0625
1695737107481,-0.22094727,-0.73028564,0.6925659,0.5,-1.125,0.3125
1695737107515,-0.22143555,-0.7334595,0.68670654,-0.015625,-1.96875,0.328125
1695737107547,-0.21362305,-0.7398071,0.6828003,-0.515625,-1.703125,0.0625
1695737107595,-0.21386719,-0.7217407,0.696228,-1.0625,-2.25,0.15625
1695737107626,-0.22363281,-0.73565674,0.6950073,0.1875,-1.890625,0.109375
1695737107672,-0.20263672,-0.72784424,0.68621826,-1.765625,-2.34375,0.171875
1695737107705,-0.22192383,-0.722229,0.6991577,1.03125,-0.84375,0.28125
1695737107752,-0.21777344,-0.7373657,0.68304443,-2.578125,-2.375,0.046875
1695737107785,-0.22167969,-0.7334595,0.69696045,-1.9375,-1.25,-0.328125
1695737107829,-0.22631836,-0.72491455,0.69744873,-1.296875,-0.34375,-0.109375
1695737107863,-0.22143555,-0.7190552,0.6950073,-1.171875,-0.5,0.15625
1695737107908,-0.22192383,-0.7214966,0.7033081,-0.625,-0.59375,0.15625
1695737107943,-0.22216797,-0.7334595,0.69940186,-0.234375,-0.21875,0.1875
1695737107986,-0.22387695,-0.71832275,0.71136475,0.390625,-0.40625,0.359375
1695737108021,-0.1965332,-0.73101807,0.6967163,-0.96875,-0.890625,0.25
1695737108065,-0.22680664,-0.71710205,0.7069702,-0.828125,-0.15625,0.109375
1695737108099,-0.22021484,-0.7307739,0.7028198,-0.8125,0.171875,0.109375
1695737108145,-0.2121582,-0.7168579,0.7133179,0.0,0.421875,0.21875
1695737108180,-0.21313477,-0.72735596,0.6925659,0.28125,0.21875,0.34375
1695737108223,-0.20776367,-0.7178345,0.7055054,-1.0,-0.03125,0.15625
1695737108257,-0.21289062,-0.72247314,0.7079468,0.03125,-0.453125,0.078125
1695737108301,-0.21606445,-0.7354126,0.7128296,-0.359375,-0.421875,0.34375
1695737108336,-0.22265625,-0.71417236,0.72991943,2.484375,0.421875,0.421875
1695737108382,-0.21801758,-0.72906494,0.69940186,2.125,0.328125,0.40625
1695737108414,-0.20117188,-0.723938,0.71307373,2.046875,3.609375,0.390625
1695737108460,-0.2055664,-0.7337036,0.6989136,4.03125,3.109375,1.046875
1695737108492,-0.19921875,-0.725647,0.7028198,4.1875,5.765625,1.125
1695737108538,-0.18383789,-0.7485962,0.6742554,5.046875,3.984375,2.375
1695737108572,-0.18261719,-0.7312622,0.70526123,4.328125,4.703125,1.34375
1695737108617,-0.17089844,-0.7554321,0.66986084,4.40625,2.28125,2.109375
1695737108651,-0.16259766,-0.7642212,0.6791382,4.09375,3.203125,1.671875
1695737108695,-0.16333008,-0.7683716,0.6744995,2.328125,0.796875,1.5
1695737108732,-0.1665039,-0.7649536,0.69940186,2.578125,0.953125,1.53125
1695737108775,-0.16430664,-0.76446533,0.66986084,0.65625,0.3125,1.375
1695737108808,-0.14990234,-0.74420166,0.6727905,0.71875,-0.34375,1.578125
1695737108853,-0.16577148,-0.7571411,0.70599365,4.109375,2.53125,1.046875
1695737108886,-0.15942383,-0.7703247,0.682312,1.28125,1.796875,0.8125
1695737108932,-0.15283203,-0.7449341,0.6832886,4.171875,3.984375,1.78125
1695737108965,-0.13745117,-0.77178955,0.6637573,4.625,3.421875,1.75
1695737109010,-0.13427734,-0.7835083,0.68133545,5.890625,6.78125,1.21875
1695737109044,-0.13134766,-0.79693604,0.6342163,7.8125,6.53125,3.0625
1695737109090,-0.10595703,-0.81427,0.6359253,6.5625,6.203125,2.125
1695737109122,-0.08691406,-0.80718994,0.6185913,4.484375,4.3125,1.96875
1695737109168,-0.10961914,-0.78863525,0.6220093,5.625,5.21875,2.171875
1695737109202,-0.10205078,-0.80474854,0.6310425,4.75,4.140625,1.71875
1695737109247,-0.095703125,-0.78985596,0.65618896,6.34375,5.15625,0.625
1695737109280,-0.08251953,-0.7913208,0.64056396,4.4375,2.859375,1.0
1695737109325,-0.060058594,-0.7776489,0.61224365,1.625,-0.578125,-0.078125
1695737109360,-0.08129883,-0.7786255,0.59198,4.140625,-0.1875,0.0
1695737109405,-0.046142578,-0.81207275,0.5927124,3.609375,-2.171875,-0.46875
1695737109437,-0.079589844,-0.8147583,0.5807495,-1.84375,-4.875,-1.078125
1695737109482,-0.044921875,-0.8262329,0.5922241,1.53125,-4.203125,-1.75
1695737109517,-0.07373047,-0.8447876,0.58880615,4.671875,-3.25,-0.375
1695737109554,-0.063964844,-0.7893677,0.5956421,3.265625,-3.328125,-1.96875
1695737109596,-0.11328125,-0.86260986,0.61224365,-2.109375,-6.984375,-2.453125
1695737109631,-0.12475586,-0.7905884,0.6066284,-4.953125,-7.265625,-2.53125
1695737109675,-0.14916992,-0.7815552,0.63568115,-1.71875,-8.578125,-3.296875
1695737109708,-0.17700195,-0.8128052,0.62371826,-2.4375,-10.296875,-3.5
1695737109753,-0.19750977,-0.80303955,0.6588745,-2.078125,-6.34375,-4.09375
1695737109787,-0.17675781,-0.78790283,0.62420654,-2.9375,-10.359375,-3.796875
1695737109832,-0.14819336,-0.8135376,0.5968628,-7.46875,-12.40625,-4.765625
1695737109866,-0.15844727,-0.8140259,0.5934448,-5.515625,-6.578125,-3.484375
1695737109910,-0.16723633,-0.81329346,0.6010132,-1.4375,-4.75,-1.671875
1695737109944,-0.19921875,-0.8286743,0.5985718,-0.609375,-3.3125,-0.65625
1695737109990,-0.21533203,-0.80963135,0.61151123,-2.984375,-1.765625,-0.296875
1695737110022,-0.19750977,-0.79644775,0.635437,-2.890625,-0.90625,0.265625
1695737110069,-0.16967773,-0.7930298,0.6334839,-2.3125,-0.875,0.6875
1695737110102,-0.16772461,-0.78863525,0.638855,-2.53125,-1.09375,0.6875
1695737110148,-0.17211914,-0.7756958,0.6342163,-3.875,-1.5625,0.328125
1695737110181,-0.17822266,-0.76226807,0.6376343,-3.421875,-2.453125,0.1875
1695737110226,-0.17504883,-0.7761841,0.64227295,-2.4375,-1.828125,0.5
1695737110260,-0.17626953,-0.7756958,0.65911865,0.265625,-1.578125,-0.484375
1695737110305,-0.19165039,-0.7930298,0.6322632,-0.828125,-2.203125,-0.359375
1695737110338,-0.18383789,-0.78375244,0.6334839,-4.5,-2.734375,-1.53125
1695737110383,-0.20214844,-0.7810669,0.65667725,-2.515625,-2.40625,-1.40625
1695737110416,-0.20385742,-0.7842407,0.64398193,-3.0,-1.796875,-1.421875
1695737110462,-0.2109375,-0.7593384,0.6547241,-3.921875,-1.28125,-1.265625
1695737110496,-0.21411133,-0.7671509,0.6613159,-3.0,-1.375,-0.546875
1695737110542,-0.2097168,-0.7752075,0.6605835,-3.171875,-1.140625,-0.203125
1695737110574,-0.20166016,-0.7451782,0.6720581,-2.5625,-0.625,-0.34375
1695737110620,-0.19824219,-0.7522583,0.67059326,-1.375,-1.96875,0.328125
1695737110653,-0.19921875,-0.77178955,0.6774292,-2.484375,-2.078125,-0.09375
1695737110698,-0.1953125,-0.74005127,0.6749878,-1.84375,-1.203125,-0.28125
1695737110732,-0.19042969,-0.76226807,0.66326904,1.328125,-1.296875,0.75
1695737110777,-0.19677734,-0.7752075,0.67059326,-0.46875,-0.984375,-0.09375
1695737110811,-0.20996094,-0.7605591,0.67059326,0.28125,-0.0625,-0.234375
1695737110856,-0.21313477,-0.77349854,0.6622925,0.640625,0.0,0.140625
1695737110890,-0.2109375,-0.7752075,0.6598511,-0.640625,0.75,-0.234375
1695737110935,-0.19677734,-0.74542236,0.6610718,-1.28125,-0.046875,-0.53125
1695737110970,-0.2097168,-0.7432251,0.68255615,0.3125,-0.25,-0.046875
1695737111012,-0.20922852,-0.76397705,0.670105,-0.421875,-0.703125,0.265625
1695737111047,-0.19091797,-0.73150635,0.6732788,-0.578125,-0.625,0.015625
1695737111092,-0.19702148,-0.74884033,0.680603,1.359375,-0.71875,0.6875
1695737111131,-0.18554688,-0.7642212,0.6737671,2.0625,-1.234375,0.765625
1695737111170,-0.18408203,-0.76763916,0.66815186,1.171875,-0.8125,0.453125
1695737111205,-0.19311523,-0.7632446,0.65057373,-0.921875,-1.75,-0.046875
1695737111251,-0.20263672,-0.7661743,0.6742554,-1.09375,-0.578125,-0.296875
1695737111284,-0.19921875,-0.7678833,0.66619873,0.6875,0.078125,0.046875
1695737111329,-0.19799805,-0.7490845,0.6688843,0.015625,0.359375,-0.25
1695737111363,-0.1977539,-0.76153564,0.6642456,1.0625,-0.484375,0.265625
1695737111406,-0.19384766,-0.7620239,0.6676636,-0.15625,-0.875,0.125
1695737111440,-0.19458008,-0.75323486,0.67230225,0.265625,-0.4375,0.046875
1695737111485,-0.18969727,-0.7493286,0.66204834,-0.546875,-1.546875,0.15625
1695737111519,-0.20507812,-0.76153564,0.6715698,-0.765625,-1.34375,0.15625
1695737111565,-0.19677734,-0.7527466,0.6600952,-0.90625,-1.15625,0.46875
1695737111597,-0.19433594,-0.7481079,0.6600952,-1.515625,-2.25,0.234375
1695737111633,-0.19506836,-0.7571411,0.6637573,-2.6875,-3.1875,0.015625
1695737111677,-0.19140625,-0.74224854,0.66864014,-4.609375,-3.890625,-0.5625
1695737111710,-0.2133789,-0.74176025,0.6779175,-4.46875,-4.875,-0.53125
1695737111755,-0.21557617,-0.7493286,0.6810913,-4.765625,-5.078125,-0.46875
1695737111789,-0.20092773,-0.7305298,0.66156006,2.984375,-5.5625,-0.46875
1695737111835,-0.19042969,-0.72052,0.638855,18.0625,7.65625,2.8125
1695737111869,-0.23095703,-0.7559204,0.63446045,18.984375,4.234375,3.21875
1695737111913,-0.17700195,-0.85162354,0.6090698,15.5,4.546875,2.71875
1695737111948,-0.22314453,-0.76397705,0.67059326,-3.125,-6.609375,0.390625
1695737111994,-0.23754883,-0.7349243,0.6893921,-6.5625,-11.09375,1.078125
1695737112027,-0.23266602,-0.7498169,0.73553467,-1.75,-10.359375,0.3125
1695737112072,-0.2619629,-0.75323486,0.6898804,0.828125,-4.640625,4.875
1695737112104,-0.24169922,-0.78009033,0.651062,6.03125,0.6875,3.875
1695737112150,-0.21484375,-0.8052368,0.66033936,0.03125,3.8125,4.140625
1695737112185,-0.16259766,-0.8242798,0.649353,9.9375,3.65625,5.421875
1695737112230,-0.16870117,-0.83673096,0.61932373,15.328125,3.125,4.546875
1695737112262,-0.19580078,-0.81451416,0.6100464,17.859375,4.390625,4.203125
1695737112307,-0.16723633,-0.7852173,0.64178467,19.640625,7.671875,5.65625
1695737112342,-0.15771484,-0.800354,0.5946655,21.375,8.71875,7.65625
1695737112386,-0.15234375,-0.8430786,0.5602417,21.4375,5.609375,7.71875
1695737112419,-0.11279297,-0.8677368,0.54315186,21.0625,7.0625,8.40625
1695737112464,-0.10180664,-0.86724854,0.4701538,22.796875,6.25,9.703125
1695737112498,-0.08691406,-0.8933716,0.4484253,20.734375,4.75,9.75
1695737112544,-0.07397461,-0.89190674,0.4069214,21.671875,2.0625,10.421875
1695737112576,-0.06738281,-0.9192505,0.3973999,18.90625,0.015625,9.40625
1695737112622,-0.061767578,-0.923645,0.37127686,18.359375,0.6875,9.828125
1695737112656,-0.07006836,-0.92803955,0.38275146,18.234375,-0.90625,10.046875
1695737112701,-0.05859375,-0.9717407,0.34197998,18.328125,-0.34375,10.015625
1695737112735,0.009277344,-1.0247192,0.29608154,12.328125,-1.796875,7.015625
1695737112780,0.040771484,-0.99176025,0.2662964,10.453125,-0.203125,4.6875
1695737112813,0.057128906,-0.960022,0.23114014,6.46875,-3.796875,3.203125
1695737112857,0.047607422,-0.9487915,0.23114014,6.828125,-2.578125,2.75
1695737112893,0.037353516,-0.9885864,0.16741943,1.359375,-8.25,2.46875
1695737112938,0.05859375,-0.9985962,0.17449951,-1.765625,-6.65625,1.921875
1695737112969,0.053710938,-1.0132446,0.19403076,-1.28125,-1.890625,0.84375
1695737113017,0.05908203,-1.0064087,0.19866943,-3.078125,1.0625,-0.046875
1695737113050,0.059326172,-1.0039673,0.21844482,-5.125,-0.0625,-1.078125
1695737113094,0.06958008,-0.9885864,0.22088623,-9.328125,-2.390625,-2.34375
1695737113128,0.045654297,-0.989563,0.22503662,-10.09375,-3.0625,-3.6875
1695737113175,0.045166016,-0.98101807,0.2658081,-13.796875,-3.1875,-4.609375
1695737113209,0.037353516,-0.97442627,0.27215576,-16.625,-5.578125,-4.78125
1695737113252,0.017578125,-0.9434204,0.30584717,-19.453125,-5.921875,-6.828125
1695737113289,-0.0146484375,-0.94854736,0.34710693,-19.734375,-4.9375,-8.15625
1695737113331,-0.056640625,-0.94976807,0.3768921,-26.53125,-7.671875,-11.109375
1695737113365,-0.025146484,-0.9031372,0.47161865,-24.078125,-3.46875,-12.3125
1695737113409,-0.06982422,-0.89971924,0.4772339,-13.0625,6.53125,-8.234375
1695737113443,-0.044189453,-0.8921509,0.45257568,-22.546875,-4.390625,-10.984375
1695737113488,-0.064941406,-0.866272,0.52801514,-24.515625,-10.796875,-11.390625
1695737113523,-0.19360352,-0.8543091,0.55023193,-25.8125,-9.390625,-8.6875
1695737113568,-0.20288086,-0.77789307,0.6173706,-23.234375,-6.71875,-10.734375
1695737113601,-0.19189453,-0.7593384,0.6342163,-19.09375,-3.140625,-10.328125
1695737113635,-0.19165039,-0.7852173,0.7055054,-14.09375,1.875,-8.71875
1695737113680,-0.23510742,-0.7151489,0.81414795,4.078125,9.703125,-3.640625
1695737113713,-0.18457031,-0.8069458,0.7316284,-0.203125,14.1875,-0.515625
1695737113760,-0.18896484,-0.77227783,0.68255615,-5.5,7.046875,-1.078125
1695737113793,-0.11328125,-0.66851807,0.6586304,-5.640625,1.015625,-1.28125
1695737113837,-0.115234375,-0.68634033,0.6173706,-8.109375,-4.859375,-0.859375
1695737113871,-0.1809082,-0.74298096,0.6244507,-7.984375,-10.140625,-1.9375
1695737113916,-0.2668457,-0.77545166,0.65545654,-4.046875,-4.734375,-2.453125
1695737113949,-0.20629883,-0.82818604,0.6610718,-2.171875,0.5,-0.9375
1695737113994,-0.13330078,-0.8233032,0.6276245,-0.265625,2.625,2.0
1695737114028,-0.09375,-0.75567627,0.61639404,0.203125,-3.46875,1.015625
1695737114073,-0.14233398,-0.7402954,0.6425171,2.734375,-6.828125,0.3125
1695737114153,-0.23779297,-0.7637329,0.682312,2.53125,-2.0625,-0.484375
1695737114156,-0.19628906,-0.76397705,0.68865967,2.171875,0.40625,-1.921875
1695737114185,-0.15209961,-0.76763916,0.6803589,1.96875,-1.140625,-2.359375
1695737114231,-0.15209961,-0.7781372,0.6400757,3.484375,-0.5625,-0.046875
1695737114264,-0.16967773,-0.7871704,0.6408081,2.625,-1.5,0.0625
1695737114309,-0.18481445,-0.77008057,0.62493896,4.5,0.546875,1.15625
1695737114344,-0.17407227,-0.7908325,0.60687256,2.5625,-0.84375,0.953125
1695737114389,-0.19726562,-0.8052368,0.670105,5.59375,1.09375,1.296875
1695737114422,-0.17871094,-0.8076782,0.6107788,2.15625,-1.046875,2.21875
1695737114469,-0.15917969,-0.8130493,0.62054443,0.171875,-1.046875,0.453125
1695737114501,-0.17236328,-0.8130493,0.6239624,-0.34375,-0.328125,1.375
1695737114546,-0.15209961,-0.81451416,0.60931396,-0.9375,-0.859375,0.359375
1695737114580,-0.15185547,-0.8093872,0.6300659,-3.203125,-1.421875,-0.515625
1695737114624,-0.16235352,-0.7893677,0.6432495,-2.859375,-1.59375,-0.28125
1695737114658,-0.171875,-0.79034424,0.6456909,-2.09375,-1.109375,-0.328125
1695737114704,-0.1586914,-0.7659302,0.6432495,-2.3125,-0.5,-0.390625
1695737114736,-0.18237305,-0.75079346,0.6491089,-1.296875,-0.5,-0.4375
1695737114782,-0.16967773,-0.76885986,0.63690186,0.21875,-0.59375,-0.46875
1695737114817,-0.16967773,-0.77667236,0.6425171,0.828125,-1.140625,-0.3125
1695737114860,-0.1628418,-0.78741455,0.6288452,1.453125,-2.140625,-0.171875
1695737114895,-0.15576172,-0.82232666,0.63153076,-0.21875,-2.671875,-0.703125
1695737114940,-0.17382812,-0.7781372,0.6432495,1.609375,-3.734375,0.578125
1695737114973,-0.19042969,-0.800354,0.64642334,2.140625,-2.484375,1.40625
1695737115018,-0.18676758,-0.8123169,0.6178589,0.734375,-1.75,1.296875
1695737115053,-0.17504883,-0.8147583,0.63079834,2.015625,-0.140625,0.1875
1695737115098,-0.16992188,-0.80352783,0.62249756,0.5,0.828125,0.359375
1695737115131,-0.1628418,-0.81573486,0.62176514,-0.140625,-0.953125,0.15625
1695737115176,-0.1665039,-0.8291626,0.6154175,-1.890625,-0.46875,0.0
1695737115209,-0.16357422,-0.79522705,0.6268921,-2.96875,-0.4375,-0.625
1695737115254,-0.16748047,-0.7893677,0.65179443,-2.453125,-0.8125,-0.046875
1695737115288,-0.16015625,-0.7764282,0.64471436,-2.203125,-1.234375,-0.03125
1695737115333,-0.17773438,-0.7666626,0.6491089,-0.953125,-0.4375,0.5625
1695737115367,-0.17114258,-0.7554321,0.64056396,-0.875,-0.625,0.53125
1695737115446,-0.17407227,-0.7659302,0.64959717,1.390625,-0.734375,0.796875
1695737115449,-0.16357422,-0.7822876,0.63616943,0.640625,-1.875,0.671875
1695737115490,-0.16674805,-0.7908325,0.6286011,0.921875,-1.484375,0.25
1695737115525,-0.16821289,-0.79644775,0.6334839,1.40625,-1.265625,0.390625
1695737115570,-0.15332031,-0.80670166,0.63079834,0.765625,-1.375,0.421875
1695737115604,-0.15771484,-0.7905884,0.6317749,-0.046875,-1.0625,0.171875
1695737115636,-0.16455078,-0.7974243,0.64178467,-0.4375,-1.8125,0.15625
1695737115685,-0.16552734,-0.8008423,0.63934326,-1.671875,-1.984375,0.046875
1695737115721,-0.16210938,-0.78741455,0.6351929,-2.78125,-1.953125,-0.484375
1695737115761,-0.17333984,-0.78863525,0.63323975,-4.453125,-1.828125,-1.0625
1695737115795,-0.16699219,-0.7781372,0.65667725,-5.84375,-2.390625,-1.75
1695737115840,-0.17675781,-0.77178955,0.6691284,-3.296875,0.265625,-1.03125
1695737115874,-0.17285156,-0.75860596,0.6762085,-0.140625,2.0,-0.484375
1695737115919,-0.1730957,-0.7776489,0.6449585,0.421875,3.25,0.140625
1695737115952,-0.16870117,-0.767395,0.65740967,-0.578125,0.96875,-0.078125
1695737115998,-0.17407227,-0.7817993,0.66278076,1.140625,1.0,0.140625
1695737116031,-0.15478516,-0.77471924,0.651062,-0.03125,0.109375,0.328125
1695737116075,-0.15576172,-0.7720337,0.65911865,0.25,-0.078125,0.375
1695737116110,-0.16772461,-0.7695923,0.6581421,0.109375,-0.359375,0.296875
1695737116156,-0.1586914,-0.7842407,0.6613159,0.03125,-0.453125,0.28125
1695737116188,-0.15136719,-0.7749634,0.65618896,-0.5,-1.3125,0.515625
1695737116233,-0.15771484,-0.7654419,0.6508179,-1.03125,-1.6875,0.015625
1695737116267,-0.16455078,-0.77960205,0.66693115,-0.25,-1.421875,-0.234375
1695737116312,-0.15771484,-0.76641846,0.66033936,0.40625,-2.921875,-0.0625
1695737116346,-0.16577148,-0.77593994,0.64837646,1.109375,-4.25,0.1875
1695737116391,-0.17138672,-0.77227783,0.65301514,-0.40625,-3.984375,-0.09375
1695737116425,-0.18139648,-0.76226807,0.65374756,-0.828125,-5.953125,0.328125
1695737116469,-0.17871094,-0.7744751,0.65301514,-2.578125,-8.515625,0.234375
1695737116504,-0.17871094,-0.77838135,0.65252686,-3.375,-7.078125,-0.0625
1695737116550,-0.1940918,-0.7678833,0.6559448,-2.25,-4.421875,0.34375
1695737116583,-0.18823242,-0.7373657,0.668396,-1.4375,-3.71875,-0.03125
1695737116628,-0.19824219,-0.78375244,0.6498413,-0.484375,-2.84375,0.46875
1695737116661,-0.18896484,-0.7654419,0.66278076,-3.359375,-2.78125,-0.15625
1695737116706,-0.20800781,-0.7654419,0.664978,-0.953125,-1.765625,0.390625
1695737116742,-0.1862793,-0.767395,0.67352295,-1.5,-1.359375,0.234375
1695737116785,-0.18408203,-0.77471924,0.6798706,0.609375,2.875,0.734375
1695737116818,-0.18969727,-0.75738525,0.6535034,-1.671875,0.671875,0.390625
1695737116865,-0.1784668,-0.75616455,0.67718506,0.5625,1.0,-0.015625
1695737116898,-0.17993164,-0.7630005,0.6691284,1.171875,0.265625,0.84375
1695737116947,-0.18164062,-0.7451782,0.66815186,0.4375,-0.65625,0.375
1695737116975,-0.18188477,-0.7756958,0.6676636,1.109375,-1.015625,0.515625
1695737117021,-0.17285156,-0.7510376,0.6630249,-0.65625,-3.25,0.390625
1695737117058,-0.19506836,-0.7559204,0.67889404,1.828125,-2.6875,0.40625
1695737117100,-0.19946289,-0.7625122,0.6737671,1.4375,-2.015625,0.75
1695737117132,-0.18457031,-0.755188,0.66619873,1.078125,-2.25,0.6875
1695737117179,-0.19458008,-0.7698364,0.65960693,0.546875,-2.546875,0.578125
1695737117213,-0.19726562,-0.7666626,0.6535034,-1.1875,-4.171875,0.28125
1695737117258,-0.19042969,-0.772522,0.65496826,-1.265625,-4.25,0.078125
1695737117290,-0.19799805,-0.7485962,0.6703491,0.625,-3.984375,0.203125
1695737117336,-0.19824219,-0.7788696,0.6442261,-0.84375,-3.3125,0.609375
1695737117369,-0.17919922,-0.7600708,0.63494873,-5.125,-3.328125,-1.03125
1695737117448,-0.20727539,-0.75177,0.6757202,2.28125,-0.1875,-0.53125
1695737117451,-0.24389648,-0.77178955,0.6793823,2.03125,1.34375,0.6875
1695737117493,-0.16723633,-0.76812744,0.6342163,-3.09375,-2.09375,0.75
1695737117527,-0.18725586,-0.75665283,0.66204834,-0.140625,-0.234375,-0.09375
1695737117573,-0.21777344,-0.7739868,0.6757202,0.984375,0.515625,0.109375
1695737117607,-0.18676758,-0.77423096,0.6630249,0.078125,0.828125,0.59375
1695737117641,-0.1796875,-0.75177,0.6671753,-0.125,0.328125,0.96875
1695737117684,-0.18115234,-0.7588501,0.6679077,2.28125,1.171875,0.78125
1695737117719,-0.19140625,-0.7715454,0.66400146,0.78125,0.953125,1.28125
1695737117763,-0.18798828,-0.76153564,0.6610718,1.25,0.5625,0.375
1695737117798,-0.19799805,-0.77349854,0.65667725,1.171875,-0.453125,0.390625
1695737117843,-0.18774414,-0.7744751,0.65252686,0.21875,-0.296875,-0.03125
1695737117876,-0.18237305,-0.7642212,0.6564331,-0.328125,-1.109375,-0.515625
1695737117921,-0.18847656,-0.7632446,0.6552124,0.0,-1.046875,-0.140625
1695737117956,-0.18188477,-0.7620239,0.66986084,-0.65625,-1.328125,-0.296875
1695737118000,-0.19238281,-0.7654419,0.66033936,-1.5,-1.5,-0.109375
1695737118033,-0.1965332,-0.75909424,0.6535034,-4.515625,-2.640625,-0.265625
1695737118079,-0.19873047,-0.75787354,0.6832886,-0.75,-0.765625,0.140625
1695737118110,-0.15966797,-0.77056885,0.67962646,-3.0,-1.796875,-0.015625
1695737118156,-0.18115234,-0.7749634,0.6749878,-1.625,-0.96875,1.0
1695737118192,-0.1875,-0.76397705,0.66986084,-2.6875,-0.703125,1.078125
1695737118237,-0.16992188,-0.7605591,0.67645264,-1.59375,-0.828125,1.84375
1695737118270,-0.18041992,-0.75616455,0.6815796,-0.234375,-1.84375,2.09375
1695737118315,-0.19848633,-0.74053955,0.6793823,-1.09375,-1.78125,1.703125
1695737118348,-0.19506836,-0.7481079,0.67718506,-0.671875,-2.125,1.125
1695737118394,-0.19091797,-0.7444458,0.68084717,-0.34375,-1.59375,0.5625
1695737118427,-0.1875,-0.7559204,0.680603,-1.890625,-2.109375,0.25
1695737118472,-0.19262695,-0.7581177,0.6715698,-3.5,-2.015625,-0.125
1695737118506,-0.1821289,-0.7390747,0.71014404,-1.03125,-1.203125,-0.453125
1695737118551,-0.19360352,-0.7710571,0.6727905,-1.5,-2.046875,1.359375
1695737118584,-0.19091797,-0.73760986,0.6947632,-0.484375,0.484375,0.375
1695737118630,-0.19262695,-0.753479,0.6954956,2.609375,2.03125,1.734375
1695737118663,-0.1772461,-0.7625122,0.67889404,2.5625,1.171875,1.75
1695737118709,-0.16455078,-0.7710571,0.65911865,0.234375,1.125,1.390625
1695737118742,-0.16821289,-0.7317505,0.69329834,-0.578125,0.859375,0.671875
1695737118786,-0.18261719,-0.7678833,0.7040405,3.640625,2.859375,1.328125
1695737118821,-0.18041992,-0.7620239,0.680603,2.375,3.9375,2.84375
1695737118866,-0.15185547,-0.74224854,0.6676636,1.125,2.71875,2.75
1695737118901,-0.14990234,-0.75079346,0.67059326,1.546875,1.609375,1.0
1695737118945,-0.13549805,-0.77227783,0.68133545,0.203125,0.375,1.59375
1695737118978,-0.13793945,-0.77056885,0.6688843,-0.078125,0.34375,1.53125
1695737119023,-0.1472168,-0.75909424,0.69085693,2.796875,2.234375,1.453125
1695737119057,-0.1303711,-0.7683716,0.66741943,0.625,1.0,1.3125
1695737119102,-0.13256836,-0.7539673,0.6725464,2.046875,1.3125,1.15625
1695737119135,-0.12963867,-0.7642212,0.6691284,2.546875,1.90625,0.828125
1695737119180,-0.12060547,-0.7896118,0.6720581,3.375,3.515625,0.984375
1695737119215,-0.12475586,-0.7737427,0.6564331,2.015625,2.140625,0.890625
1695737119259,-0.1303711,-0.76934814,0.6635132,3.21875,4.390625,0.890625
1695737119293,-0.11645508,-0.7608032,0.6642456,2.109375,2.046875,0.5
1695737119338,-0.10058594,-0.7786255,0.65130615,1.0,0.453125,0.28125
1695737119372,-0.118652344,-0.7876587,0.65448,1.984375,0.171875,0.265625
1695737119417,-0.122558594,-0.7715454,0.6478882,-1.421875,-1.84375,0.171875
1695737119452,-0.119140625,-0.78619385,0.6588745,0.515625,-1.4375,0.15625
1695737119494,-0.111572266,-0.78009033,0.66033936,-1.34375,-1.359375,-0.09375
1695737119530,-0.119384766,-0.7805786,0.6532593,-0.65625,-1.71875,0.015625
1695737119574,-0.12524414,-0.7896118,0.666687,1.296875,1.609375,-0.328125
1695737119608,-0.11206055,-0.79522705,0.6720581,3.140625,3.109375,0.28125
1695737119654,-0.0925293,-0.77008057,0.6178589,-3.5625,-3.125,1.09375
1695737119688,-0.091552734,-0.75665283,0.63861084,-5.46875,-5.234375,-0.203125
1695737119721,-0.12036133,-0.769104,0.67645264,-5.171875,-7.03125,-1.09375
1695737119765,-0.12207031,-0.77008057,0.68573,-3.5,-5.265625,-0.859375
1695737119800,-0.14135742,-0.741272,0.69158936,-1.953125,-5.546875,-0.71875
1695737119845,-0.14892578,-0.72198486,0.68743896,-3.59375,-3.796875,-0.609375
1695737119881,-0.15551758,-0.7468872,0.6984253,0.375,-4.0625,-0.59375
1695737119924,-0.11791992,-0.7954712,0.65545654,-2.015625,-5.765625,-1.015625
1695737119957,-0.13720703,-0.7678833,0.6781616,-1.75,-4.953125,-1.203125
1695737120003,-0.12890625,-0.7942505,0.6598511,-1.65625,-5.515625,-0.28125
1695737120038,-0.14672852,-0.7451782,0.6828003,-4.0,-3.90625,-1.875
1695737120080,-0.15722656,-0.76348877,0.67962646,-1.84375,-3.359375,-0.90625
1695737120115,-0.16845703,-0.73150635,0.70428467,-1.15625,0.078125,-0.9375
1695737120159,-0.14550781,-0.7720337,0.65130615,2.515625,4.125,-0.1875
1695737120194,-0.15136719,-0.7293091,0.684021,2.53125,3.984375,-0.140625
1695737120238,-0.14697266,-0.7642212,0.6586304,4.9375,5.40625,0.0
1695737120275,-0.15258789,-0.75494385,0.7045288,1.0,-0.5625,-0.984375
1695737120318,-0.16088867,-0.753479,0.70111084,-1.0625,-6.296875,-1.1875
1695737120351,-0.15649414,-0.7595825,0.6918335,-0.828125,-6.71875,-0.234375
1695737120396,-0.16577148,-0.7737427,0.68743896,1.9375,-6.65625,0.9375
1695737120430,-0.17749023,-0.767395,0.680603,3.125,-4.28125,0.734375
1695737120475,-0.16113281,-0.79351807,0.6688843,5.40625,-1.875,1.65625
1695737120507,-0.13256836,-0.79815674,0.6322632,3.234375,-2.953125,0.671875
1695737120554,-0.15014648,-0.8023071,0.6442261,3.859375,-1.03125,-0.046875
1695737120587,-0.14379883,-0.7893677,0.60321045,2.34375,1.15625,0.09375
1695737120637,-0.13964844,-0.7876587,0.63323975,4.546875,4.234375,-0.34375
1695737120677,-0.15844727,-0.8206177,0.6264038,7.03125,5.8125,0.5
1695737120710,-0.1640625,-0.81451416,0.62786865,3.046875,5.0,-0.28125
1695737120745,-0.15307617,-0.7984009,0.6535034,4.46875,7.0,-0.0625
1695737120790,-0.14941406,-0.8154907,0.635437,3.75,7.5625,0.296875
1695737120824,-0.1418457,-0.80059814,0.6347046,3.34375,8.25,0.71875
1695737120868,-0.1352539,-0.7559204,0.6535034,9.28125,11.84375,0.9375
1695737120902,-0.1015625,-0.79351807,0.63201904,15.484375,14.1875,2.390625
1695737120947,-0.084228516,-0.8093872,0.6132202,16.15625,11.96875,1.25
1695737120981,-0.07397461,-0.8291626,0.5939331,13.140625,10.703125,0.421875
1695737121026,-0.07006836,-0.8279419,0.5680542,8.125,6.40625,-0.1875
1695737121060,-0.05102539,-0.86065674,0.5817261,6.34375,5.609375,-1.0625
1695737121105,-0.02709961,-0.9014282,0.496521,-0.015625,-1.71875,1.515625
1695737121139,-0.0056152344,-0.83551025,0.52801514,-5.65625,-8.65625,-0.125
1695737121183,-0.04711914,-0.82354736,0.54364014,-6.1875,-11.28125,-0.1875
1695737121217,-0.1184082,-0.8674927,0.5114136,-11.546875,-15.71875,-1.5
1695737121262,-0.125,-0.80718994,0.6100464,-11.171875,-17.578125,-2.15625
1695737121295,-0.13183594,-0.8218384,0.58270264,-13.75,-13.90625,-1.515625
1695737121341,-0.16577148,-0.7659302,0.65130615,-2.25,-7.796875,-2.234375
1695737121374,-0.2097168,-0.8074341,0.65740967,-0.09375,-2.296875,-2.484375
1695737121419,-0.14355469,-0.8213501,0.6017456,-1.84375,-1.484375,-3.125
1695737121454,-0.12231445,-0.784729,0.5790405,-1.015625,-2.75,-2.4375
1695737121497,-0.13745117,-0.800354,0.59246826,-0.125,-2.1875,-2.015625
1695737121533,-0.16479492,-0.82403564,0.62835693,0.78125,-1.671875,-2.609375
1695737121577,-0.16186523,-0.85650635,0.6144409,-1.8125,-4.703125,-2.71875
1695737121611,-0.15625,-0.84869385,0.6168823,-4.21875,-4.015625,-2.234375
1695737121655,-0.16308594,-0.78912354,0.6078491,-5.3125,-2.25,-1.328125
1695737121690,-0.1616211,-0.7786255,0.637146,-1.1875,0.34375,-0.890625
1695737121722,-0.15625,-0.81915283,0.62713623,0.578125,0.484375,0.8125
1695737121768,-0.16186523,-0.8045044,0.62664795,-1.25,-0.265625,1.046875
1695737121802,-0.16259766,-0.7835083,0.6264038,-1.359375,-0.453125,1.3125
1695737121848,-0.15527344,-0.7913208,0.6234741,-0.5,-0.5625,1.640625
1695737121880,-0.14672852,-0.80426025,0.6288452,-0.546875,-0.546875,1.375
1695737121927,-0.15185547,-0.7925415,0.6329956,-0.40625,-0.171875,1.0625
1695737121959,-0.14990234,-0.7996216,0.60736084,-0.171875,-0.40625,0.734375
1695737122004,-0.14379883,-0.80133057,0.62835693,-0.015625,-0.8125,0.296875
1695737122038,-0.14526367,-0.79107666,0.6347046,-0.328125,-0.375,-0.03125
1695737122083,-0.15673828,-0.8135376,0.63031006,1.75,0.21875,0.65625
1695737122117,-0.13452148,-0.7991333,0.60931396,-1.578125,-1.0625,0.078125
1695737122164,-0.14428711,-0.7888794,0.6378784,-1.234375,0.21875,-0.375
1695737122241,-0.15527344,-0.78863525,0.63934326,-0.046875,-0.75,-0.03125
1695737122246,-0.15063477,-0.7966919,0.6300659,0.265625,-1.078125,0.296875
1695737122274,-0.14868164,-0.8115845,0.6376343,0.03125,-1.265625,0.03125
1695737122320,-0.14379883,-0.82476807,0.680603,1.453125,-0.203125,1.390625
1695737122353,-0.15283203,-0.84869385,0.6461792,0.0625,-3.40625,2.5625
1695737122399,-0.1508789,-0.7888794,0.58880615,-0.671875,-4.046875,2.453125
1695737122432,-0.11694336,-0.6951294,0.5831909,13.421875,7.609375,5.34375
1695737122478,-0.111083984,-0.8286743,0.5734253,8.59375,4.109375,4.15625
1695737122510,-0.12475586,-0.82818604,0.6046753,-0.15625,-2.203125,2.0625
1695737122557,-0.14013672,-0.8008423,0.6000366,1.84375,-0.546875,1.53125
1695737122590,-0.104003906,-0.8123169,0.62005615,4.96875,3.71875,2.0
1695737122635,-0.11206055,-0.8225708,0.604187,2.09375,-0.671875,1.015625
1695737122668,-0.12866211,-0.83380127,0.60076904,-1.046875,-3.015625,-0.515625
1695737122714,-0.10986328,-0.82159424,0.58929443,-4.015625,-5.359375,-1.203125
1695737122747,-0.12231445,-0.8106079,0.60736084,-3.953125,-5.21875,-1.328125
1695737122792,-0.14208984,-0.847229,0.6017456,-5.203125,-4.53125,-2.109375
1695737122825,-0.11669922,-0.83966064,0.59490967,-4.75,-3.5,-2.328125
1695737122870,-0.1459961,-0.81744385,0.5824585,-1.96875,-4.0,-2.3125
1695737122905,-0.15429688,-0.8167114,0.5985718,-2.8125,-5.421875,-4.390625
1695737122950,-0.17114258,-0.7852173,0.64886475,-4.390625,-2.84375,-2.484375
1695737122982,-0.13110352,-0.7937622,0.6520386,-5.421875,0.296875,0.53125
1695737123028,-0.17700195,-0.78375244,0.66619873,-3.875,-2.25,-0.09375
1695737123061,-0.18261719,-0.77667236,0.6166382,-2.078125,-1.34375,-1.484375
1695737123106,-0.122558594,-0.8093872,0.5866089,-4.40625,-3.703125,-2.78125
1695737123141,-0.13623047,-0.78912354,0.66033936,-3.0625,-3.515625,-2.453125
1695737123185,-0.15820312,-0.75860596,0.6486206,-0.796875,-3.5,-1.5
1695737123219,-0.1628418,-0.8152466,0.65789795,-2.84375,-4.671875,-1.6875
1695737123265,-0.18261719,-0.8555298,0.6469116,-3.171875,-2.703125,-0.90625
1695737123298,-0.14477539,-0.7817993,0.65496826,1.53125,0.234375,1.1875
1695737123343,-0.14892578,-0.76763916,0.6334839,5.1875,0.828125,2.578125
1695737123377,-0.1821289,-0.7966919,0.61932373,6.40625,-0.109375,2.03125
1695737123422,-0.15820312,-0.7896118,0.63323975,7.875,6.296875,1.578125
1695737123455,-0.17749023,-0.77471924,0.6100464,3.390625,3.390625,1.46875
1695737123535,-0.16308594,-0.7774048,0.60614014,-0.328125,-2.140625,0.515625
1695737123537,-0.15283203,-0.786438,0.63983154,-2.984375,-2.96875,-1.671875
1695737123613,-0.18457031,-0.7798462,0.6273804,-2.328125,-1.421875,-2.234375
1695737123616,-0.15649414,-0.79888916,0.6376343,-3.515625,-3.328125,-2.828125
1695737123658,-0.16552734,-0.7959595,0.6395874,-5.296875,-5.671875,-3.140625
1695737123692,-0.20678711,-0.80426025,0.65179443,-1.140625,-4.375,-2.15625
1695737123726,-0.14916992,-0.8533325,0.638855,-1.640625,-2.40625,-0.625
1695737123770,-0.14038086,-0.8052368,0.63397217,0.109375,0.796875,0.734375
1695737123805,-0.14941406,-0.788147,0.5927124,2.375,1.140625,1.9375
1695737123850,-0.13574219,-0.8101196,0.6293335,1.859375,-0.328125,1.515625
1695737123884,-0.123535156,-0.7817993,0.65301514,0.3125,0.90625,1.40625
1695737123927,-0.19604492,-0.73321533,0.63934326,0.171875,0.40625,0.234375
1695737123962,-0.20727539,-0.77667236,0.64227295,-2.015625,-1.765625,-0.125
1695737124007,-0.17260742,-0.7920532,0.65374756,-2.109375,-3.046875,-0.453125
1695737124040,-0.2006836,-0.7817993,0.6408081,-0.703125,-1.703125,-0.640625
1695737124085,-0.20507812,-0.7944946,0.61761475,0.078125,-1.859375,-0.8125
1695737124119,-0.15527344,-0.79644775,0.6185913,1.328125,-1.234375,-0.71875
1695737124165,-0.16015625,-0.77545166,0.60858154,2.1875,-0.796875,-0.25
1695737124198,-0.17211914,-0.81573486,0.6449585,0.828125,-0.28125,-0.28125
1695737124242,-0.16748047,-0.80548096,0.6425171,0.078125,0.1875,-0.0625
1695737124277,-0.16723633,-0.7788696,0.64178467,0.1875,0.109375,0.3125
1695737124323,-0.15893555,-0.78326416,0.635437,0.75,-1.390625,0.8125
1695737124357,-0.1706543,-0.7781372,0.62786865,-0.53125,-2.140625,0.359375
1695737124401,-0.18359375,-0.77056885,0.63690186,-1.125,-2.46875,0.109375
1695737124435,-0.18139648,-0.7944946,0.6449585,-0.515625,-4.0625,0.46875
1695737124481,-0.20019531,-0.7930298,0.6420288,-1.15625,-3.140625,0.03125
1695737124513,-0.19946289,-0.76934814,0.6273804,-0.109375,-0.21875,0.28125
1695737124559,-0.13720703,-0.76519775,0.62005615,-0.140625,-1.953125,1.03125
1695737124592,-0.1899414,-0.7817993,0.6342163,-0.9375,-0.28125,0.5625
1695737124637,-0.15722656,-0.8057251,0.6430054,-4.25,-3.609375,0.921875
1695737124671,-0.18334961,-0.79156494,0.6576538,-1.734375,-1.859375,0.390625
1695737124716,-0.18481445,-0.80426025,0.6063843,-1.9375,-2.71875,0.9375
1695737124750,-0.1484375,-0.7954712,0.6220093,0.234375,-3.578125,1.078125
1695737124794,-0.17382812,-0.7918091,0.6522827,0.0625,-3.0625,0.890625
1695737124829,-0.17822266,-0.7984009,0.64105225,-0.140625,-1.046875,1.765625
1695737124873,-0.15649414,-0.77593994,0.6359253,-0.953125,-3.0,1.28125
1695737124907,-0.21801758,-0.76568604,0.66326904,-0.609375,-3.96875,0.796875
1695737124952,-0.2241211,-0.7769165,0.6469116,-1.046875,-5.296875,-0.46875
1695737124986,-0.17456055,-0.77423096,0.6600952,0.0625,-1.375,0.484375
1695737125030,-0.1743164,-0.77960205,0.6378784,-1.484375,-3.4375,-0.78125
1695737125064,-0.18798828,-0.76519775,0.62786865,-0.03125,-1.703125,-0.6875
1695737125110,-0.1977539,-0.79693604,0.6149292,1.609375,-1.375,0.203125
1695737125143,-0.17626953,-0.8106079,0.6625366,1.703125,0.40625,-0.421875
1695737125192,-0.19677734,-0.8045044,0.64642334,1.546875,1.0,-0.453125
1695737125222,-0.14648438,-0.81427,0.62127686,0.484375,-1.484375,0.5625
1695737125267,-0.1850586,-0.753479,0.64056396,1.03125,0.546875,1.375
1695737125302,-0.21777344,-0.77227783,0.6264038,2.0,-0.703125,1.609375
1695737125347,-0.16479492,-0.800354,0.66082764,-1.28125,-0.96875,0.734375
1695737125381,-0.18725586,-0.77545166,0.6412964,0.34375,-0.4375,-0.328125
1695737125424,-0.18530273,-0.7449341,0.6557007,-1.75,-1.171875,0.4375
1695737125459,-0.1809082,-0.7842407,0.6420288,0.28125,-2.78125,-0.125
1695737125538,-0.17749023,-0.78253174,0.62542725,2.84375,0.796875,0.546875
1695737125541,-0.18603516,-0.7896118,0.62249756,2.734375,0.9375,0.71875
1695737125582,-0.203125,-0.7866821,0.619812,0.578125,0.4375,-0.6875
1695737125616,-0.19165039,-0.76568604,0.6286011,0.28125,0.5,-1.28125
1695737125661,-0.14672852,-0.82159424,0.63201904,-0.75,-2.546875,-1.03125
1695737125696,-0.20092773,-0.77545166,0.6564331,1.453125,0.5625,-0.578125
1695737125728,-0.16601562,-0.7996216,0.6207886,1.3125,-1.375,0.515625
1695737125773,-0.1628418,-0.7954712,0.6305542,1.1875,-0.359375,0.953125
1695737125807,-0.19580078,-0.80548096,0.6210327,2.046875,-2.84375,0.59375
1695737125852,-0.17333984,-0.80133057,0.62542725,-2.96875,-3.828125,1.3125
1695737125887,-0.1862793,-0.78253174,0.61883545,0.484375,-4.140625,1.671875
1695737125932,-0.1821289,-0.7888794,0.6322632,0.5625,-1.703125,1.28125
1695737125965,-0.14672852,-0.82110596,0.61224365,-1.96875,-4.328125,1.40625
1695737126011,-0.20703125,-0.7883911,0.6281128,0.3125,-0.75,0.78125
1695737126044,-0.14990234,-0.79888916,0.62323,0.296875,-2.84375,1.828125
1695737126090,-0.19970703,-0.80596924,0.6400757,0.734375,-2.640625,0.15625
1695737126124,-0.2133789,-0.78375244,0.5973511,-0.9375,0.921875,1.328125
1695737126168,-0.16699219,-0.7918091,0.6334839,1.265625,1.109375,-0.4375
1695737126201,-0.2084961,-0.835022,0.6210327,1.0,0.125,-1.421875
1695737126246,-0.15209961,-0.8164673,0.62664795,2.359375,1.21875,0.671875
1695737126279,-0.16015625,-0.7905884,0.5866089,0.828125,-1.65625,0.78125
1695737126325,-0.15356445,-0.80181885,0.64056396,2.53125,-0.265625,1.46875
1695737126365,-0.18383789,-0.7971802,0.6154175,0.875,0.6875,1.875
1695737126405,-0.15112305,-0.7930298,0.6325073,-2.046875,-1.390625,0.4375
1695737126437,-0.17993164,-0.7852173,0.6329956,-0.828125,-0.046875,0.453125
1695737126482,-0.1899414,-0.77471924,0.6210327,-0.421875,1.765625,0.40625
1695737126516,-0.17602539,-0.7871704,0.6144409,1.15625,0.484375,-0.5
1695737126561,-0.16870117,-0.79400635,0.61273193,0.6875,-0.828125,-0.421875
1695737126595,-0.16723633,-0.8074341,0.6207886,0.890625,-2.015625,-0.5625
1695737126640,-0.18237305,-0.8081665,0.62371826,0.125,-0.125,0.6875
1695737126672,-0.15893555,-0.8008423,0.62298584,-0.328125,-2.09375,0.828125
1695737126718,-0.1652832,-0.8171997,0.6095581,1.0,-1.859375,1.0
1695737126753,-0.13647461,-0.77789307,0.6227417,-0.75,-3.796875,1.234375
1695737126798,-0.17602539,-0.81573486,0.6095581,-1.234375,-1.0625,0.53125
1695737126841,-0.14428711,-0.7732544,0.62908936,-1.734375,-0.09375,1.21875
1695737126875,-0.18017578,-0.8218384,0.6220093,-1.328125,-2.953125,-0.484375
1695737126909,-0.19213867,-0.84381104,0.61834717,-0.09375,-1.15625,-0.90625
1695737126960,-0.15258789,-0.80792236,0.6107788,-0.875,-2.234375,0.5625
1695737126988,-0.1706543,-0.8093872,0.60931396,0.3125,-2.359375,0.671875
1695737127033,-0.18945312,-0.8027954,0.60369873,1.09375,-1.125,0.671875
1695737127070,-0.17114258,-0.80718994,0.6154175,1.015625,-1.96875,0.609375
1695737127111,-0.17333984,-0.79937744,0.638855,-0.09375,-2.3125,0.15625
1695737127146,-0.18896484,-0.7815552,0.6442261,-0.578125,-0.671875,-0.0625
1695737127190,-0.18896484,-0.7774048,0.62371826,-0.484375,-0.171875,-0.625
1695737127225,-0.1743164,-0.798645,0.6268921,-0.59375,-1.0,-1.1875
1695737127269,-0.18798828,-0.8069458,0.6293335,0.203125,-0.71875,-0.984375
1695737127306,-0.13989258,-0.82818604,0.6220093,-0.265625,-2.9375,0.15625
1695737127349,-0.13574219,-0.81256104,0.60614014,0.828125,-1.640625,1.875
1695737127382,-0.17504883,-0.79693604,0.6124878,2.1875,1.078125,2.078125
1695737127427,-0.16992188,-0.7949829,0.6154175,-1.1875,0.53125,1.296875
1695737127462,-0.18676758,-0.7913208,0.6234741,-3.40625,0.34375,-0.796875
1695737127505,-0.1706543,-0.7654419,0.6444702,-3.875,0.171875,-0.203125
1695737127540,-0.19018555,-0.8015747,0.64227295,-2.03125,-0.0625,-0.90625
1695737127585,-0.1821289,-0.802063,0.604187,-0.78125,0.375,-0.953125
1695737127630,-0.16210938,-0.7805786,0.64105225,0.265625,1.890625,-1.171875
1695737127667,-0.14404297,-0.7793579,0.6083374,-1.4375,0.484375,-0.5
1695737127701,-0.15917969,-0.80718994,0.60736084,0.234375,-1.640625,-0.015625
1695737127731,-0.1899414,-0.83477783,0.6515503,-0.0625,0.46875,-0.546875
1695737127776,-0.1796875,-0.7817993,0.6222534,0.65625,0.34375,-0.5625
1695737127810,-0.14038086,-0.7908325,0.60028076,0.796875,-2.0,-0.453125
1695737127854,-0.16113281,-0.7727661,0.637146,2.40625,-2.15625,0.171875
1695737127889,-0.19726562,-0.7888794,0.6552124,0.859375,-1.4375,1.78125
1695737127933,-0.16796875,-0.8115845,0.6610718,-0.71875,-0.765625,-0.734375
1695737127967,-0.1472168,-0.8164673,0.6298218,-1.125,-1.71875,0.65625
1695737128018,-0.14819336,-0.798645,0.5866089,-1.09375,-3.625,0.09375
1695737128047,-0.16235352,-0.77838135,0.6149292,1.234375,-3.5625,1.78125
1695737128090,-0.18310547,-0.77593994,0.618103,-2.046875,-3.25,0.671875
1695737128128,-0.17651367,-0.77301025,0.61590576,-7.046875,-2.953125,-1.15625
1695737128169,-0.16699219,-0.76934814,0.67645264,-5.0,-2.09375,-1.234375
1695737128204,-0.2265625,-0.77545166,0.6630249,-6.984375,-2.75,-2.078125
1695737128249,-0.17675781,-0.80914307,0.66619873,-12.109375,-3.703125,-2.53125
1695737128283,-0.18383789,-0.7744751,0.66033936,-11.8125,-6.28125,-2.265625
1695737128327,-0.17358398,-0.73687744,0.6820679,-3.3125,-4.953125,-0.140625
1695737128361,-0.18530273,-0.76446533,0.6810913,0.078125,-3.8125,1.46875
1695737128407,-0.2097168,-0.76397705,0.6793823,-2.921875,-1.984375,1.078125
1695737128439,-0.19995117,-0.75006104,0.6820679,-3.09375,0.078125,0.421875
1695737128485,-0.19433594,-0.74591064,0.7025757,-1.421875,0.140625,0.828125
1695737128519,-0.20629883,-0.7319946,0.6793823,-0.515625,-1.03125,1.640625
1695737128563,-0.20581055,-0.72735596,0.6786499,0.171875,-1.21875,1.1875
1695737128610,-0.20263672,-0.74542236,0.67767334,0.484375,-1.734375,0.59375
1695737128642,-0.1862793,-0.7522583,0.67645264,-0.921875,-2.28125,-0.171875
1695737128676,-0.17456055,-0.7444458,0.6803589,-0.59375,-2.0,-0.296875
1695737128720,-0.18701172,-0.77056885,0.67645264,0.203125,-1.515625,-0.8125
1695737128757,-0.20581055,-0.73687744,0.6925659,0.515625,0.125,-0.40625
1695737128800,-0.19482422,-0.7571411,0.6642456,-1.3125,0.4375,0.484375
1695737128834,-0.1887207,-0.7427368,0.6898804,-0.828125,0.84375,-0.265625
1695737128879,-0.19580078,-0.74346924,0.6967163,0.203125,1.40625,0.25
1695737128912,-0.19091797,-0.7449341,0.6832886,-0.25,1.890625,0.421875
1695737128957,-0.18383789,-0.7251587,0.69036865,0.6875,-0.453125,0.421875
1695737128992,-0.19262695,-0.75323486,0.6845093,1.140625,-0.890625,-0.078125
1695737129036,-0.2006836,-0.7481079,0.6881714,1.421875,-1.46875,0.640625
1695737129069,-0.1862793,-0.7542114,0.67767334,1.609375,-1.140625,0.328125
1695737129115,-0.1928711,-0.7593384,0.6918335,2.078125,0.984375,0.296875
1695737129148,-0.18725586,-0.74786377,0.6869507,3.796875,2.546875,0.921875
1695737129193,-0.18066406,-0.7485962,0.67401123,5.46875,3.03125,1.34375
1695737129227,-0.1652832,-0.77008057,0.66937256,6.140625,2.359375,0.90625
1695737129271,-0.17602539,-0.7788696,0.6598511,5.984375,3.40625,0.953125
1695737129306,-0.15283203,-0.79034424,0.65130615,5.625,2.765625,0.9375
1695737129351,-0.15209961,-0.7866821,0.6325073,3.0625,1.4375,0.984375
1695737129384,-0.16088867,-0.74102783,0.65618896,-0.546875,0.265625,0.296875
1695737129429,-0.14916992,-0.75494385,0.6415405,2.3125,0.8125,0.125
1695737129463,-0.1538086,-0.7817993,0.6430054,2.34375,-0.9375,0.0625
1695737129509,-0.17944336,-0.76397705,0.63983154,0.671875,-1.171875,0.0
1695737129541,-0.16601562,-0.75006104,0.61224365,-0.359375,-2.0625,0.171875
1695737129588,-0.15820312,-0.75860596,0.6432495,-0.921875,-4.21875,-0.265625
1695737129621,-0.12573242,-0.78790283,0.6532593,-3.234375,-6.90625,-2.453125
1695737129665,-0.13183594,-0.7944946,0.6881714,-2.796875,-6.46875,-2.515625
1695737129699,-0.17211914,-0.79034424,0.67059326,-1.78125,-4.21875,-1.40625
1695737129745,-0.21264648,-0.753479,0.6737671,-2.359375,-0.25,-0.625
1695737129777,-0.20263672,-0.77056885,0.6605835,-0.53125,1.375,0.453125
1695737129817,-0.16235352,-0.78253174,0.65374756,1.65625,-0.21875,0.71875
1695737129857,-0.18457031,-0.7698364,0.6220093,-3.453125,-5.359375,0.640625
1695737129891,-0.21533203,-0.7493286,0.64349365,-3.1875,-3.515625,0.015625
1695737129936,-0.20092773,-0.78985596,0.6600952,-0.84375,-2.625,-0.296875
1695737129969,-0.19921875,-0.7678833,0.6715698,-1.875,-2.296875,-0.453125
1695737130014,-0.18286133,-0.7476196,0.6935425,-0.015625,-0.3125,-0.609375
1695737130048,-0.18798828,-0.7703247,0.6781616,-0.0625,-0.765625,0.21875
1695737130093,-0.17407227,-0.73516846,0.6757202,-3.828125,-2.828125,-0.515625
1695737130129,-0.19946289,-0.753479,0.6791382,-1.90625,-4.75,0.359375
1695737130174,-0.18383789,-0.767395,0.65789795,-3.609375,-5.546875,-0.234375
1695737130207,-0.1850586,-0.7588501,0.66033936,-0.75,-3.734375,-0.25
1695737130250,-0.20727539,-0.755188,0.6664429,0.15625,-2.953125,0.015625
1695737130285,-0.2055664,-0.75787354,0.69036865,-0.140625,-1.28125,-0.125
1695737130330,-0.18457031,-0.7695923,0.68011475,-1.09375,-2.21875,-0.4375
1695737130363,-0.19848633,-0.737854,0.6774292,-0.28125,-0.90625,-0.25
1695737130409,-0.20703125,-0.75372314,0.6884155,1.578125,0.125,-0.0625
1695737130442,-0.20751953,-0.7490845,0.66278076,0.0,-0.625,0.140625
1695737130491,-0.20117188,-0.74420166,0.682312,1.1875,-0.875,-0.390625
1695737130522,-0.21875,-0.75567627,0.666687,-0.40625,-2.5625,-0.171875
1695737130566,-0.21240234,-0.7359009,0.65545654,-3.390625,-3.828125,-0.90625
1695737130599,-0.20483398,-0.73394775,0.6762085,-4.046875,-5.25,-1.234375
1695737130644,-0.20751953,-0.7515259,0.67596436,-4.421875,-4.96875,-1.03125
1695737130678,-0.22216797,-0.74835205,0.69281006,-1.984375,-3.921875,-0.328125
1695737130722,-0.23999023,-0.72857666,0.666687,-5.765625,-4.390625,-0.9375
1695737130757,-0.21826172,-0.7124634,0.6893921,-3.859375,-3.078125,-0.953125
1695737130802,-0.2331543,-0.7608032,0.7003784,0.78125,-0.15625,0.671875
1695737130835,-0.2434082,-0.7449341,0.6793823,-0.828125,-0.9375,0.84375
1695737130882,-0.2355957,-0.73272705,0.6754761,-0.25,-0.84375,1.09375
1695737130915,-0.22485352,-0.7359009,0.68182373,-0.96875,-0.859375,0.671875
1695737130959,-0.22924805,-0.74224854,0.69281006,-2.265625,-1.28125,0.515625
1695737130994,-0.20263672,-0.72857666,0.71502686,-0.265625,-0.875,0.515625
1695737131037,-0.2097168,-0.73809814,0.7184448,1.3125,0.578125,0.5625
1695737131072,-0.2055664,-0.72320557,0.7055054,2.140625,2.0625,1.34375
1695737131118,-0.21875,-0.72662354,0.6715698,1.609375,1.015625,1.296875
1695737131151,-0.21557617,-0.7163696,0.67645264,0.375,-0.25,0.734375
1695737131196,-0.21313477,-0.7354126,0.696228,0.65625,-0.46875,0.671875
1695737131230,-0.21069336,-0.75006104,0.69207764,1.109375,0.03125,0.765625
1695737131275,-0.20776367,-0.7461548,0.6864624,0.953125,0.09375,0.21875
1695737131307,-0.20800781,-0.7276001,0.6744995,1.046875,0.5625,0.296875
1695737131353,-0.20874023,-0.74224854,0.68255615,0.390625,-1.109375,0.359375
1695737131387,-0.20458984,-0.74102783,0.68621826,1.546875,-0.546875,0.390625
1695737131432,-0.20727539,-0.7476196,0.6774292,-1.828125,-1.03125,-0.3125
1695737131466,-0.21411133,-0.7300415,0.70843506,2.015625,-0.5,0.65625
1695737131511,-0.19848633,-0.755188,0.67840576,-0.546875,-1.71875,0.6875
1695737131544,-0.20825195,-0.7324829,0.68255615,-0.859375,-0.53125,0.421875
1695737131589,-0.2097168,-0.7383423,0.6893921,-1.75,-1.84375,0.734375
1695737131624,-0.20874023,-0.7402954,0.70599365,1.28125,-1.453125,0.984375
1695737131668,-0.19042969,-0.7485962,0.6923218,0.421875,-2.828125,1.3125
1695737131702,-0.18554688,-0.70513916,0.69281006,-0.21875,-1.953125,1.078125
1695737131746,-0.2421875,-0.73101807,0.69989014,1.0625,-1.96875,0.4375
1695737131780,-0.2006836,-0.739563,0.6708374,0.515625,-2.46875,0.46875
1695737131815,-0.19262695,-0.75006104,0.67474365,0.75,-2.3125,-0.3125
1695737131859,-0.21777344,-0.7608032,0.6742554,2.109375,-2.34375,-0.28125
1695737131893,-0.21264648,-0.7503052,0.6715698,3.828125,-0.640625,0.6875
1695737131938,-0.20581055,-0.7439575,0.6610718,10.046875,2.765625,0.671875
1695737131973,-0.2133789,-0.7600708,0.6622925,8.28125,2.984375,0.28125
1695737132017,-0.22729492,-0.74786377,0.6654663,9.265625,6.34375,0.25
1695737132051,-0.18603516,-0.77911377,0.6557007,-0.203125,0.875,-1.21875
1695737132097,-0.1875,-0.74835205,0.6647339,-0.15625,-1.015625,-1.1875
1695737132130,-0.2121582,-0.7659302,0.6449585,-1.078125,-1.34375,-1.5
1695737132175,-0.21362305,-0.7842407,0.6564331,-3.390625,-2.03125,-1.921875
1695737132209,-0.19262695,-0.7839966,0.66741943,-2.0625,-2.4375,-1.640625
1695737132252,-0.203125,-0.77838135,0.6598511,-1.96875,-1.53125,-0.578125
1695737132287,-0.20581055,-0.7546997,0.64764404,0.40625,-0.59375,-0.25
1695737132332,-0.18261719,-0.7678833,0.6547241,0.625,-0.359375,0.046875
1695737132367,-0.2019043,-0.7503052,0.64886475,-0.015625,0.25,-0.21875
1695737132411,-0.2019043,-0.74420166,0.6754761,0.234375,-0.921875,-1.3125
1695737132445,-0.20483398,-0.7505493,0.6859741,2.4375,1.75,0.234375
1695737132490,-0.22021484,-0.7859497,0.666687,6.3125,4.625,0.875
1695737132524,-0.15966797,-0.8057251,0.64227295,1.921875,-0.328125,-1.265625
1695737132569,-0.18676758,-0.7463989,0.6117554,4.09375,0.171875,-0.65625
1695737132606,-0.20483398,-0.7710571,0.6259155,2.515625,-0.796875,-1.484375
1695737132647,-0.20458984,-0.8093872,0.64764404,-1.0,-2.96875,-0.546875
1695737132681,-0.21777344,-0.79156494,0.6522827,-3.09375,-2.125,-1.234375
1695737132725,-0.21582031,-0.77056885,0.6630249,-3.953125,-3.8125,-1.109375
1695737132760,-0.22924805,-0.74835205,0.6444702,-0.734375,-1.296875,0.328125
1695737132804,-0.19799805,-0.7769165,0.6557007,-3.65625,-6.953125,0.28125
1695737132837,-0.20410156,-0.74884033,0.6791382,0.21875,-1.15625,1.921875
1695737132883,-0.24804688,-0.723938,0.6654663,5.390625,7.109375,3.09375
1695737132922,-0.21020508,-0.8272095,0.6310425,1.25,-0.046875,-0.546875
1695737132963,-0.13745117,-0.79693604,0.59832764,4.328125,2.75,0.03125
1695737132996,-0.14575195,-0.7617798,0.63739014,4.109375,1.234375,1.96875
1695737133041,-0.19042969,-0.79571533,0.664978,-0.15625,-1.65625,2.125
1695737133074,-0.18823242,-0.7893677,0.6420288,-5.4375,-4.828125,-2.140625
1695737133120,-0.20605469,-0.74786377,0.69036865,-3.34375,-1.8125,0.25
1695737133153,-0.25878906,-0.72979736,0.65130615,2.140625,5.453125,1.21875
1695737133198,-0.23535156,-0.86383057,0.60980225,-2.96875,-4.859375,-1.109375
1695737133233,-0.07836914,-0.81207275,0.6779175,0.203125,-4.796875,0.609375
1695737133278,-0.18701172,-0.66729736,0.62249756,8.75,4.96875,5.25
1695737133312,-0.20947266,-0.7835083,0.6725464,3.984375,1.15625,2.984375
1695737133356,-0.16430664,-0.81866455,0.6478882,0.484375,-2.6875,0.046875
1695737133391,-0.18115234,-0.7744751,0.62323,4.21875,-0.859375,-1.515625
1695737133433,-0.15527344,-0.83062744,0.6095581,0.515625,-4.03125,0.625
1695737133468,-0.14868164,-0.8220825,0.66082764,-3.9375,-5.171875,1.734375
1695737133516,-0.21972656,-0.7371216,0.6246948,6.09375,3.8125,2.46875
1695737133547,-0.20092773,-0.8101196,0.6515503,6.96875,2.625,0.890625
1695737133627,-0.15039062,-0.8220825,0.61102295,-1.53125,-0.875,-1.578125
1695737133630,-0.21923828,-0.74713135,0.6366577,-0.703125,-1.171875,-3.03125
1695737133671,-0.22949219,-0.7564087,0.6491089,0.25,1.15625,-1.96875
1695737133704,-0.18383789,-0.79278564,0.60028076,-4.890625,-4.546875,-2.203125
1695737133749,-0.18579102,-0.82037354,0.62323,-4.90625,-6.828125,-2.453125
1695737133783,-0.21704102,-0.8052368,0.63690186,-0.546875,-3.078125,-0.21875
1695737133818,-0.21264648,-0.7871704,0.61151123,1.21875,-1.1875,-1.421875
1695737133862,-0.18920898,-0.79815674,0.6005249,-3.3125,-5.046875,-2.296875
1695737133895,-0.18969727,-0.7930298,0.62786865,-6.53125,-7.21875,-3.453125
1695737133940,-0.20678711,-0.77789307,0.64227295,-7.09375,-4.546875,-1.578125
1695737133975,-0.22998047,-0.7527466,0.66278076,-5.703125,-0.875,0.828125
1695737134019,-0.23388672,-0.7439575,0.7037964,-4.515625,-0.09375,0.328125
1695737134053,-0.2319336,-0.75494385,0.67596436,-3.703125,-4.5,0.234375
1695737134097,-0.23828125,-0.74468994,0.6774292,-0.28125,-2.640625,0.484375
1695737134132,-0.24365234,-0.74835205,0.6581421,0.65625,-0.34375,0.53125
1695737134177,-0.20288086,-0.7620239,0.62005615,0.15625,-3.34375,0.109375
1695737134211,-0.19433594,-0.772522,0.66400146,1.765625,-0.890625,0.265625
1695737134255,-0.21289062,-0.7998657,0.65496826,-0.78125,-1.640625,0.65625
1695737134290,-0.22851562,-0.76348877,0.66448975,0.140625,0.265625,0.453125
1695737134336,-0.22705078,-0.74176025,0.6503296,-0.8125,0.765625,0.640625
1695737134367,-0.2319336,-0.74468994,0.66326904,0.328125,0.640625,0.25
1695737134414,-0.2421875,-0.75738525,0.66033936,-0.28125,-0.484375,0.3125
1695737134448,-0.203125,-0.7588501,0.6454468,-2.5625,-2.984375,0.71875
1695737134493,-0.22192383,-0.75616455,0.6732788,-1.4375,-3.796875,1.0625
1695737134524,-0.24682617,-0.737854,0.67962646,2.859375,0.015625,1.578125
1695737134571,-0.26367188,-0.7402954,0.6715698,3.828125,5.0625,0.5625
1695737134615,-0.23999023,-0.78375244,0.65252686,7.171875,6.734375,-0.15625
1695737134650,-0.18774414,-0.76446533,0.6793823,4.3125,4.421875,1.28125
1695737134683,-0.19799805,-0.73638916,0.64642334,8.671875,4.8125,3.6875
1695737134728,-0.17944336,-0.7810669,0.61273193,5.90625,6.84375,1.09375
1695737134762,-0.19213867,-0.79644775,0.59832764,0.203125,-0.046875,-2.34375
1695737134806,-0.18530273,-0.7793579,0.64520264,-1.1875,-1.109375,-1.78125
1695737134841,-0.2211914,-0.7959595,0.66571045,3.015625,2.125,-1.59375
1695737134886,-0.18725586,-0.8045044,0.6119995,2.796875,3.453125,-1.8125
1695737134920,-0.15258789,-0.8284302,0.6124878,4.21875,3.6875,0.0625
1695737134970,-0.16186523,-0.8196411,0.6251831,4.21875,2.609375,-0.296875
1695737134998,-0.13354492,-0.7971802,0.6227417,4.390625,3.296875,2.421875
1695737135043,-0.16040039,-0.8128052,0.6286011,5.65625,3.734375,3.265625
1695737135077,-0.13867188,-0.81988525,0.6334839,0.6875,-0.1875,2.46875
1695737135123,-0.14794922,-0.81573486,0.6156616,0.359375,0.28125,2.4375
1695737135157,-0.17822266,-0.7925415,0.61395264,1.203125,1.375,1.84375
1695737135202,-0.14233398,-0.81085205,0.59417725,0.203125,-1.671875,2.609375
1695737135235,-0.14916992,-0.8296509,0.6088257,-0.5625,-2.9375,1.3125
1695737135280,-0.17749023,-0.7732544,0.61053467,-0.84375,-0.171875,0.03125
1695737135315,-0.14916992,-0.7962036,0.60858154,-4.109375,-3.75,-0.234375
1695737135358,-0.15063477,-0.78497314,0.6383667,-7.1875,-5.5625,-2.6875
1695737135392,-0.19726562,-0.77960205,0.6317749,-5.625,-3.453125,-2.28125
1695737135438,-0.17089844,-0.8320923,0.65838623,-7.28125,-6.9375,-2.65625
1695737135472,-0.18164062,-0.77349854,0.635437,-1.8125,-2.390625,-0.765625
1695737135517,-0.16625977,-0.8123169,0.6351929,-0.34375,-3.203125,-1.953125
1695737135550,-0.18041992,-0.78131104,0.6276245,-0.328125,-1.578125,-2.390625
1695737135594,-0.17358398,-0.7654419,0.61468506,0.90625,-0.859375,-0.34375
1695737135629,-0.14135742,-0.79766846,0.65252686,-0.828125,-2.203125,1.203125
1695737135674,-0.1875,-0.7774048,0.6466675,0.828125,0.59375,1.96875
1695737135707,-0.20117188,-0.7786255,0.6412964,1.203125,-1.15625,-0.03125
1695737135752,-0.19018555,-0.78570557,0.63812256,-0.296875,0.75,-1.296875
1695737135787,-0.17089844,-0.7761841,0.62542725,-1.390625,-3.5,-2.421875
1695737135820,-0.15942383,-0.77301025,0.6559448,-5.390625,-6.3125,-1.3125
1695737135865,-0.23901367,-0.79034424,0.65301514,-6.890625,-4.96875,-0.453125
1695737135898,-0.1899414,-0.8123169,0.64593506,-7.40625,-8.1875,-0.765625
1695737135943,-0.17529297,-0.7390747,0.6547241,-3.53125,-4.78125,0.6875
1695737135977,-0.23852539,-0.7510376,0.65179443,-1.21875,-2.84375,0.984375
1695737136027,-0.21411133,-0.7439575,0.6647339,-4.65625,-3.234375,-0.328125
1695737136062,-0.21044922,-0.7329712,0.680603,-3.765625,-4.1875,0.0625
1695737136101,-0.23291016,-0.75128174,0.6732788,-4.25,-4.046875,-0.328125
1695737136135,-0.22851562,-0.7617798,0.6725464,-3.96875,-2.859375,-0.3125
1695737136180,-0.22216797,-0.7581177,0.68182373,-1.015625,-2.859375,0.234375
1695737136213,-0.22338867,-0.75665283,0.6720581,1.015625,0.671875,1.1875
1695737136259,-0.22485352,-0.73272705,0.6679077,0.484375,-0.421875,0.421875
1695737136298,-0.21264648,-0.7383423,0.66571045,0.171875,-0.0625,0.515625
1695737136337,-0.21679688,-0.76226807,0.68573,-1.890625,-1.125,-0.71875
1695737136374,-0.22021484,-0.7449341,0.69647217,-0.640625,-0.546875,0.125
1695737136416,-0.19946289,-0.7498169,0.6803589,-0.921875,-0.640625,0.359375
1695737136450,-0.19995117,-0.7432251,0.6742554,-1.9375,-1.25,0.296875
1695737136494,-0.21044922,-0.73394775,0.6901245,0.0625,0.296875,0.359375
1695737136528,-0.2084961,-0.7427368,0.6864624,-2.046875,-1.609375,0.234375
1695737136573,-0.2241211,-0.7407837,0.69281006,-1.0,-0.9375,-0.078125
1695737136607,-0.21972656,-0.7427368,0.68182373,-1.046875,-1.203125,0.109375
1695737136652,-0.21240234,-0.7366333,0.6676636,-1.140625,-0.890625,-0.171875
1695737136686,-0.21972656,-0.7427368,0.6774292,-1.828125,-1.4375,-0.328125
1695737136731,-0.22290039,-0.73809814,0.69207764,-0.78125,-0.390625,0.03125
1695737136765,-0.20678711,-0.74542236,0.6954956,0.15625,-1.09375,0.421875
1695737136810,-0.20776367,-0.7312622,0.6876831,-1.484375,-0.5625,0.34375
1695737136843,-0.21264648,-0.7371216,0.6959839,-0.703125,0.21875,0.40625
1695737136889,-0.19995117,-0.7359009,0.6954956,0.578125,-0.03125,0.890625
1695737136922,-0.20581055,-0.7437134,0.6852417,0.125,-0.53125,0.71875
1695737136967,-0.2109375,-0.7415161,0.70233154,2.421875,-0.359375,0.96875
1695737137001,-0.2006836,-0.74102783,0.6798706,0.03125,-2.046875,0.65625
1695737137051,-0.19970703,-0.7329712,0.6793823,-0.234375,-1.453125,0.59375
1695737137079,-0.21118164,-0.74102783,0.6942749,-0.3125,-1.65625,0.0625
1695737137125,-0.21191406,-0.7415161,0.6893921,-0.03125,-0.75,0.1875
1695737137160,-0.19995117,-0.7451782,0.6864624,0.3125,-0.578125,0.078125
1695737137202,-0.21362305,-0.7456665,0.6791382,-1.3125,-0.21875,0.125
1695737137238,-0.19458008,-0.74346924,0.6852417,-0.828125,-0.6875,-0.03125
1695737137282,-0.20874023,-0.7373657,0.6947632,-0.71875,-0.421875,0.03125
1695737137316,-0.21240234,-0.7210083,0.6930542,-0.96875,-0.75,0.125
1695737137361,-0.21142578,-0.739563,0.69281006,0.234375,-0.671875,0.421875
1695737137397,-0.21069336,-0.73394775,0.69036865,-0.765625,-1.5,0.421875
1695737137440,-0.19921875,-0.7383423,0.68426514,1.421875,-1.3125,0.65625
1695737137474,-0.2019043,-0.7398071,0.6820679,-0.625,-2.65625,0.609375
1695737137518,-0.2084961,-0.7283325,0.6925659,1.1875,-1.71875,0.671875
1695737137553,-0.19238281,-0.75250244,0.6779175,1.234375,-1.578125,0.71875
1695737137596,-0.19580078,-0.73760986,0.6754761,0.671875,-0.859375,-0.015625
1695737137632,-0.2133789,-0.7234497,0.6898804,1.078125,-1.203125,0.109375
1695737137676,-0.21142578,-0.74346924,0.6942749,2.28125,-1.890625,0.515625
1695737137709,-0.20288086,-0.7542114,0.6754761,0.859375,-1.59375,0.359375
1695737137755,-0.20288086,-0.74102783,0.6791382,0.65625,-0.4375,0.296875
1695737137788,-0.20727539,-0.7490845,0.670105,0.703125,-1.1875,0.34375
1695737137833,-0.2055664,-0.7317505,0.6781616,0.5625,-1.671875,0.1875
1695737137868,-0.2055664,-0.75787354,0.6737671,-0.40625,-1.390625,0.25
1695737137901,-0.20117188,-0.7461548,0.6847534,-0.671875,-1.09375,-0.265625
1695737137946,-0.2199707,-0.7432251,0.6913452,0.1875,-0.53125,0.3125
1695737137979,-0.203125,-0.73150635,0.6762085,-1.0,-1.0625,0.046875
1695737138025,-0.20947266,-0.73394775,0.684021,-0.046875,-1.09375,0.203125
1695737138060,-0.20385742,-0.7522583,0.68304443,-0.046875,-1.359375,-0.015625
1695737138104,-0.20703125,-0.73321533,0.6889038,0.53125,-0.84375,-0.078125
1695737138138,-0.21118164,-0.74468994,0.68573,0.734375,-1.484375,0.21875
1695737138182,-0.20629883,-0.74346924,0.6820679,-0.546875,-1.015625,0.25
1695737138217,-0.20898438,-0.737854,0.6835327,-0.375,-1.65625,0.03125
1695737138260,-0.20166016,-0.74468994,0.6893921,0.09375,-1.578125,0.046875
1695737138295,-0.20825195,-0.7415161,0.6810913,-0.125,-2.296875,-0.140625
1695737138340,-0.21240234,-0.7349243,0.68621826,0.71875,-1.828125,0.078125
1695737138373,-0.20898438,-0.75494385,0.682312,0.0,-2.140625,0.09375
1695737138417,-0.21166992,-0.7337036,0.6791382,-0.921875,-1.1875,-0.0625
1695737138453,-0.21533203,-0.741272,0.68621826,0.3125,-1.390625,0.59375
1695737138498,-0.20507812,-0.75616455,0.6703491,-1.265625,-1.234375,0.046875
1695737138543,-0.2175293,-0.7354126,0.69036865,0.140625,-0.59375,0.28125
1695737138577,-0.21777344,-0.75079346,0.6774292,-1.375,-1.765625,0.078125
1695737138612,-0.21166992,-0.74591064,0.6881714,-1.171875,-0.859375,-0.078125
1695737138667,-0.21972656,-0.74005127,0.6942749,0.125,-0.78125,0.28125
1695737138688,-0.19995117,-0.73809814,0.68548584,-0.203125,-1.03125,0.21875
1695737138732,-0.21801758,-0.74835205,0.68133545,-0.46875,-1.109375,0.078125
1695737138767,-0.21655273,-0.7439575,0.68133545,-0.140625,-1.59375,-0.015625
1695737138812,-0.21459961,-0.7451782,0.6852417,1.03125,-0.84375,0.359375
1695737138845,-0.20727539,-0.7461548,0.67962646,0.171875,-0.90625,-0.03125
