timestamp,accel_x,accel_y,accel_z,gyro_x,gyro_y,gyro_z
1695388509447,-0.28930664,-0.89385986,0.015075684,3.1875,-10.921875,6.546875
1695388509492,-0.3623047,-1.0391235,0.046081543,7.953125,-6.421875,3.8125
1695388509523,-0.28393555,-0.9627075,-0.05328369,-5.46875,-7.640625,1.96875
1695388509567,-0.3942871,-0.9680786,-0.02154541,-9.015625,-6.203125,2.90625
1695388509642,-0.5266113,-0.9751587,0.09075928,-12.234375,-7.640625,-3.28125
1695388509646,-0.4008789,-0.9234009,-0.08306885,-5.53125,2.40625,-10.21875
1695388509687,-0.2644043,-0.9729614,0.031677246,-4.53125,-7.28125,-0.46875
1695388509719,-0.40698242,-0.9805298,0.011169434,-0.734375,0.03125,-0.453125
1695388509765,-0.31713867,-0.9121704,-0.012756348,-2.328125,0.953125,3.046875
1695388509807,-0.30737305,-0.99102783,0.035827637,-8.3125,-1.953125,3.390625
1695388509837,-0.36572266,-0.94317627,-0.028869629,-4.984375,0.234375,5.328125
1695388509884,-0.36499023,-0.92852783,0.020935059,-1.59375,0.015625,2.40625
1695388509927,-0.35327148,-0.96051025,0.038024902,-0.234375,0.015625,0.21875
1695388509957,-0.34985352,-0.9873657,0.035339355,-0.734375,0.046875,1.203125
1695388510003,-0.34033203,-0.9421997,0.04071045,-2.03125,-0.34375,1.046875
1695388510047,-0.34277344,-0.94122314,0.03289795,-2.65625,-0.4375,1.5
1695388510078,-0.36621094,-0.9668579,0.027526855,-2.515625,-0.078125,1.6875
1695388510122,-0.3310547,-0.9500122,0.024108887,-3.15625,1.0625,0.96875
1695388510167,-0.33691406,-0.9612427,0.026062012,-3.265625,0.125,-0.203125
1695388510197,-0.3232422,-0.95025635,0.035827637,-1.5625,0.265625,0.234375
1695388510242,-0.3251953,-0.9595337,0.0368042,-1.9375,1.875,-0.453125
1695388510287,-0.3466797,-0.9534302,0.04119873,-2.671875,3.375,0.03125
1695388510317,-0.35839844,-0.97247314,0.097351074,-2.90625,5.03125,0.234375
1695388510363,-0.36157227,-0.972229,0.10296631,-5.8125,7.046875,-0.734375
1695388510392,-0.36547852,-0.9717407,0.09051514,-6.53125,8.5625,-0.828125
1695388510438,-0.36694336,-0.9541626,0.07196045,-4.328125,4.625,-1.59375
1695388510482,-0.33862305,-0.9470825,0.06756592,0.390625,0.578125,0.03125
1695388510512,-0.30126953,-0.90093994,-0.042053223,7.609375,-9.71875,4.171875
1695388510558,-0.42358398,-0.98931885,0.043640137,14.28125,-15.71875,7.34375
1695388510602,-0.22802734,-0.9343872,-0.020324707,11.640625,0.078125,9.921875
1695388510632,-0.29492188,-1.0222778,0.07952881,-4.125,-1.5,-3.0625
1695388510677,-0.29711914,-0.9192505,0.028259277,-7.75,3.328125,-6.515625
1695388510723,-0.3305664,-0.9780884,0.04046631,-4.34375,4.21875,-5.171875
1695388510752,-0.37768555,-0.93634033,0.07659912,-3.375,5.359375,-4.0625
1695388510798,-0.37158203,-0.99786377,0.031433105,3.4375,-3.84375,2.078125
1695388510842,-0.53466797,-1.0567017,-0.012512207,5.40625,-8.078125,8.09375
1695388510872,-0.2421875,-0.9260864,0.08026123,-0.78125,3.109375,4.546875
1695388510917,-0.33666992,-0.9429321,0.032165527,-7.015625,5.75,-2.21875
1695388510962,-0.27368164,-0.93927,0.025817871,-7.09375,5.5,-4.359375
1695388510993,-0.2866211,-0.89190674,0.012634277,-7.265625,-0.1875,-3.90625
1695388511037,-0.28051758,-0.9187622,-0.04815674,1.109375,-7.046875,-0.359375
1695388511082,-0.37060547,-1.0130005,0.19989014,6.859375,-7.8125,1.6875
1695388511112,-0.38623047,-1.0737915,0.07269287,9.0625,-11.796875,8.421875
1695388511157,-0.39379883,-0.9981079,0.06341553,0.28125,-0.859375,3.296875
1695388511187,-0.33520508,-0.9390259,0.032409668,-5.546875,4.671875,0.671875
1695388511232,-0.3095703,-0.92071533,0.027038574,-10.5,8.59375,-2.078125
1695388511277,-0.28320312,-0.93951416,0.03289795,-13.171875,20.421875,-1.5
1695388511307,-0.29174805,-0.97613525,0.090026855,-5.9375,23.78125,-0.09375
1695388511353,-0.37768555,-1.0203247,0.15545654,2.359375,9.921875,2.859375
1695388511398,-0.35131836,-0.93927,0.011169434,4.015625,-6.828125,5.28125
1695388511428,-0.42919922,-0.8862915,-0.050109863,11.84375,-34.6875,9.359375
1695388511472,-0.14257812,-0.8467407,-0.026428223,1.578125,0.171875,8.328125
1695388511517,-0.36791992,-1.0427856,0.15423584,-2.5625,-9.78125,-2.609375
1695388511547,-0.28344727,-0.9182739,-0.0049438477,-6.40625,1.40625,-5.71875
1695388511592,-0.33740234,-0.9500122,0.066101074,-7.578125,6.5625,-8.46875
1695388511637,-0.33374023,-0.94122314,0.17449951,-4.21875,5.03125,-5.71875
1695388511668,-0.36523438,-1.0181274,0.06585693,4.34375,-9.46875,1.796875
1695388511712,-0.33862305,-1.0447388,0.05291748,-1.78125,-7.359375,5.890625
1695388511757,-0.33520508,-0.9624634,0.08319092,-4.4375,-0.171875,1.140625
1695388511788,-0.2836914,-0.93707275,0.06341553,-0.25,3.875,0.484375
1695388511832,-0.2697754,-0.94000244,0.016784668,-0.6875,0.015625,-3.515625
1695388511877,-0.3046875,-0.91485596,0.113464355,-2.890625,-0.359375,-2.859375
1695388511908,-0.31567383,-0.95684814,0.082214355,0.15625,-4.546875,-1.578125
1695388511952,-0.51953125,-1.0674438,0.0770874,5.015625,-17.703125,4.625
1695388511983,-0.3173828,-1.0003052,0.055847168,1.296875,4.296875,6.375
1695388512028,-0.33764648,-0.9795532,0.041931152,0.53125,10.125,4.390625
1695388512072,-0.2536621,-0.8897095,-0.018615723,-4.203125,6.015625,-1.265625
1695388512104,-0.24438477,-0.8982544,0.017028809,-6.71875,3.109375,-4.640625
1695388512148,-0.28637695,-0.97442627,-0.015197754,2.765625,-2.21875,0.015625
1695388512192,-0.3125,-0.9546509,0.113220215,2.125,-1.03125,0.078125
1695388512223,-0.42749023,-1.0601196,0.13104248,1.421875,3.546875,0.578125
1695388512267,-0.37353516,-1.0081177,0.09466553,0.59375,3.625,2.15625
1695388512312,-0.2849121,-0.91290283,0.054870605,-2.40625,5.9375,0.90625
1695388512343,-0.26831055,-0.9343872,-0.016662598,-1.140625,6.6875,0.4375
1695388512387,-0.2578125,-0.90509033,0.07904053,-2.546875,4.171875,-1.40625
1695388512432,-0.32861328,-0.9944458,0.07293701,0.78125,1.6875,-2.203125
1695388512462,-0.3786621,-1.0239868,0.10760498,7.765625,0.96875,0.828125
1695388512507,-0.36621094,-0.9873657,0.05316162,7.671875,-0.640625,2.140625
1695388512552,-0.3395996,-0.9729614,0.053894043,5.5,1.25,3.65625
1695388512583,-0.29736328,-0.9265747,0.016540527,0.359375,5.171875,2.40625
1695388512627,-0.26904297,-0.93927,0.049743652,-4.25,10.734375,-0.03125
1695388512658,-0.32104492,-0.9507446,0.06048584,-7.390625,16.875,-0.890625
1695388512702,-0.33862305,-0.98028564,0.04827881,-6.3125,25.4375,-1.359375
1695388512747,-0.38012695,-1.0464478,0.14666748,-2.296875,11.296875,-0.1875
1695388512779,-0.28930664,-0.9758911,0.094177246,2.671875,-0.4375,3.71875
1695388512825,-0.19970703,-0.8960571,-0.14923096,15.84375,-12.5625,10.984375
1695388512869,-0.23217773,-0.82940674,-0.121398926,12.421875,-15.078125,11.59375
1695388512898,-0.25317383,-0.9678345,0.13739014,8.1875,-7.265625,3.125
1695388512948,-0.296875,-1.0237427,0.06561279,-4.375,-7.109375,-1.828125
1695388512987,-0.35327148,-1.0105591,0.040222168,-6.65625,-3.78125,-4.03125
1695388513019,-0.35473633,-0.95977783,0.027282715,-2.28125,-1.390625,-0.59375
1695388513063,-0.28051758,-0.95635986,0.054138184,-3.015625,4.125,1.828125
1695388513107,-0.2697754,-0.99713135,0.066589355,-5.90625,2.203125,0.75
1695388513140,-0.26123047,-0.94659424,-0.008605957,-7.40625,-0.828125,0.09375
1695388513184,-0.28173828,-0.94415283,0.109069824,-7.375,1.84375,-4.78125
1695388513229,-0.24023438,-0.90875244,0.007751465,-8.671875,7.875,-9.015625
1695388513259,-0.28466797,-0.91363525,0.010192871,1.328125,-2.140625,-4.3125
1695388513303,-0.40454102,-1.1240845,0.101745605,10.703125,-22.78125,3.046875
1695388513347,-0.30371094,-1.0647583,0.030456543,1.5625,2.953125,12.109375
1695388513378,-0.34985352,-0.958313,0.078063965,-8.671875,7.375,5.546875
1695388513423,-0.27612305,-0.91485596,0.061706543,-8.09375,9.0,1.140625
1695388513452,-0.2368164,-0.91192627,0.047302246,-4.046875,13.34375,0.53125
1695388513497,-0.24804688,-0.92803955,0.047546387,-1.546875,3.59375,2.078125
1695388513544,-0.28515625,-0.9326782,0.12176514,3.625,3.15625,2.609375
1695388513573,-0.3659668,-1.0630493,0.14544678,11.234375,3.71875,2.765625
1695388513619,-0.3347168,-1.0266724,0.06854248,7.53125,-2.09375,1.0625
1695388513663,-0.22070312,-0.9282837,0.020446777,-1.390625,2.0625,2.171875
1695388513692,-0.17016602,-0.9417114,-0.00982666,-0.65625,7.6875,-2.328125
1695388513738,-0.10864258,-0.92315674,-0.14239502,1.140625,2.1875,-3.15625
1695388513782,-0.16333008,-0.98028564,0.078063965,1.5625,-4.8125,-2.90625
1695388513813,-0.32202148,-1.017395,0.07611084,-2.546875,-7.375,-3.828125
1695388513860,-0.40356445,-1.0820923,0.14129639,-2.5,0.265625,-1.09375
1695388513903,-0.34350586,-0.9829712,0.121520996,-4.703125,0.03125,0.859375
1695388513933,-0.36816406,-1.0501099,0.19891357,-9.6875,23.4375,5.46875
1695388513978,-0.30322266,-1.0403442,0.038513184,-10.46875,30.34375,3.65625
1695388514023,-0.20654297,-1.0020142,0.07171631,-16.046875,18.84375,-4.296875
1695388514052,-0.13061523,-0.8284302,-0.08062744,-13.984375,-0.1875,-2.578125
1695388514097,-0.008300781,-0.7168579,-0.2053833,9.8125,-28.0,3.421875
1695388514127,-0.3149414,-0.99786377,0.2255249,24.21875,-42.984375,7.90625
1695388514173,-0.32836914,-0.87677,-0.0115356445,-1.34375,-26.8125,2.34375
1695388514218,-0.4501953,-1.1270142,0.18572998,-1.796875,6.25,-4.046875
1695388514247,-0.4321289,-1.1431274,0.1828003,2.15625,11.609375,-3.03125
1695388514292,-0.3215332,-1.0205688,0.16986084,-1.0625,18.25,1.609375
1695388514338,-0.2619629,-0.8948364,0.11004639,-0.5,8.25,3.84375
1695388514367,-0.23852539,-0.9956665,0.20062256,-5.0,17.0,2.625
1695388514413,-0.2939453,-1.0230103,-0.0635376,-14.234375,22.21875,-5.546875
1695388514457,-0.17114258,-0.8858032,0.070007324,-17.796875,22.59375,-6.8125
1695388514487,-0.33081055,-1.0100708,0.24383545,-3.875,7.65625,-1.703125
1695388514533,-0.27807617,-0.88531494,-0.044006348,2.578125,-1.390625,5.296875
1695388514578,-0.16137695,-0.75445557,-0.08404541,11.15625,5.953125,7.8125
1695388514607,-0.22949219,-0.9824829,0.34246826,32.828125,-21.53125,8.421875
1695388514653,-0.26342773,-0.97662354,0.0067749023,11.90625,-23.984375,2.0
1695388514698,-0.34448242,-1.0317993,0.043151855,0.84375,1.984375,-3.453125
1695388514727,-0.37231445,-1.1216431,0.13372803,-2.34375,9.65625,-1.125
1695388514772,-0.2434082,-1.0151978,0.1473999,-4.15625,6.953125,0.53125
1695388514818,-0.24414062,-0.9224243,0.040222168,-5.0,6.65625,1.609375
1695388514847,-0.23779297,-0.9265747,0.050720215,-0.640625,1.390625,-0.796875
1695388514893,-0.23413086,-0.9644165,0.050964355,1.328125,0.03125,-2.203125
1695388514923,-0.2680664,-0.9932251,0.086364746,-0.1875,0.453125,-1.0
1695388514967,-0.27075195,-0.9998169,0.085876465,-1.484375,0.0625,-0.6875
1695388515012,-0.30932617,-0.9998169,0.11029053,-1.203125,0.484375,-0.296875
1695388515043,-0.28076172,-0.96539307,0.06097412,-0.375,-0.5625,-0.203125
1695388515088,-0.2722168,-0.92681885,0.077819824,-0.203125,-0.390625,-0.546875
1695388515133,-0.27441406,-0.95513916,0.061706543,1.5625,-0.296875,0.03125
1695388515163,-0.27685547,-0.9746704,0.09466553,0.96875,-0.09375,-0.75
1695388515207,-0.30419922,-1.0042114,0.06732178,0.359375,1.125,-0.890625
1695388515252,-0.27026367,-0.98931885,0.074645996,-1.453125,3.578125,-0.078125
1695388515284,-0.25317383,-0.97369385,0.08856201,-1.453125,1.28125,-1.78125
1695388515327,-0.28393555,-0.97198486,0.046081543,-2.203125,1.484375,-2.515625
1695388515373,-0.2836914,-0.9446411,0.05999756,-1.046875,0.203125,-2.046875
1695388515403,-0.2487793,-0.9907837,0.09051514,1.03125,-1.71875,-0.609375
1695388515448,-0.3408203,-0.9512329,0.066345215,0.421875,1.9375,0.140625
1695388515492,-0.3173828,-0.94122314,0.10272217,-1.5,3.203125,0.171875
1695388515523,-0.27954102,-0.9578247,0.06976318,-1.84375,1.328125,-0.3125
1695388515568,-0.29541016,-0.973938,0.06829834,-5.015625,1.703125,-0.25
1695388515613,-0.2980957,-0.96099854,0.12591553,-7.578125,-8.96875,-0.46875
1695388515643,-0.29492188,-0.9627075,0.051208496,-13.484375,-13.8125,-3.609375
1695388515688,-0.25073242,-0.9351196,0.089538574,-11.890625,1.1875,-5.5
1695388515717,-0.34545898,-0.97369385,0.14007568,-7.140625,-1.484375,-5.3125
1695388515762,-0.3034668,-0.9541626,0.13006592,-4.609375,-3.703125,-5.796875
1695388515807,-0.29711914,-0.9780884,0.17181396,-3.140625,-3.4375,-4.234375
1695388515884,-0.31420898,-0.9837036,0.105163574,1.28125,-7.390625,-0.015625
1695388515886,-0.3395996,-0.9561157,0.15447998,1.734375,-3.953125,1.046875
1695388515927,-0.36206055,-0.95635986,0.11932373,1.125,-6.03125,2.265625
1695388515957,-0.33618164,-0.9849243,0.17376709,0.75,-5.203125,4.984375
1695388516002,-0.25878906,-0.93292236,-0.02960205,-1.1875,2.453125,3.921875
1695388516047,-0.29638672,-0.9343872,0.10736084,-2.1875,1.25,-0.171875
1695388516077,-0.29760742,-0.911438,0.08148193,-4.25,-3.171875,-3.953125
1695388516122,-0.3552246,-0.97052,0.19110107,-3.09375,2.90625,-3.234375
1695388516167,-0.38598633,-1.0098267,0.2020874,-4.5625,7.390625,-1.6875
1695388516197,-0.4255371,-1.0532837,0.26361084,-1.6875,15.8125,0.78125
1695388516242,-0.3474121,-1.0166626,0.12542725,-1.8125,23.796875,0.03125
1695388516317,-0.32617188,-0.95098877,0.16571045,0.15625,11.6875,0.421875
1695388516332,-0.23828125,-0.8599243,0.089782715,0.15625,4.234375,2.1875
1695388516363,-0.19921875,-0.79937744,0.031921387,9.078125,-10.109375,4.75
1695388516392,-0.28857422,-0.8665161,0.078552246,15.5625,-24.28125,6.0625
1695388516437,-0.3696289,-0.9011841,0.016296387,1.765625,-22.34375,1.09375
1695388516483,-0.3239746,-0.9985962,0.03387451,-6.84375,-10.40625,-4.765625
1695388516512,-0.31958008,-1.0327759,0.090026855,-6.59375,0.765625,-5.6875
1695388516557,-0.43066406,-1.0530396,0.21136475,0.4375,2.828125,-2.359375
1695388516603,-0.39916992,-1.0332642,0.22064209,1.34375,0.765625,1.21875
1695388516632,-0.44580078,-1.0125122,0.23553467,-7.890625,-2.3125,-1.046875
1695388516677,-0.36083984,-0.92388916,0.06903076,-21.328125,2.140625,-4.390625
1695388516723,-0.17602539,-0.8648071,0.08074951,-13.765625,9.71875,-3.171875
1695388516752,-0.29101562,-0.9356079,0.019714355,0.375,-2.5625,0.984375
1695388516797,-0.1928711,-0.8843384,0.1630249,5.34375,-2.578125,5.453125
1695388516842,-0.36328125,-1.0513306,0.23797607,7.765625,-8.828125,5.046875
1695388516872,-0.37646484,-0.9602661,0.19915771,-3.84375,0.4375,-1.0625
1695388516917,-0.4440918,-0.9639282,0.2255249,-3.3125,6.453125,-3.59375
1695388516962,-0.28466797,-0.9260864,0.101257324,-1.625,6.4375,-2.0
1695388516992,-0.37426758,-1.0027466,0.17547607,1.0625,-2.1875,2.84375
1695388517037,-0.18359375,-0.99346924,-0.085510254,1.890625,9.203125,15.578125
1695388517083,-0.52001953,-0.99468994,0.36444092,4.40625,-1.296875,-4.828125
1695388517112,-0.19921875,-0.8726196,0.15618896,-3.609375,14.90625,5.625
1695388517158,-0.068847656,-0.8152466,-0.11773682,3.390625,7.375,6.09375
1695388517188,-0.3696289,-0.95880127,0.1618042,7.265625,2.375,5.171875
1695388517232,-0.3791504,-1.0269165,0.21209717,10.734375,1.0,5.9375
1695388517277,-0.29956055,-0.9829712,0.1383667,16.640625,1.40625,8.921875
1695388517311,-0.32202148,-0.9898071,0.116882324,1.984375,3.28125,2.90625
1695388517352,-0.29589844,-0.9927368,0.05682373,1.34375,0.625,2.140625
1695388517397,-0.20654297,-0.8755493,0.04437256,8.53125,4.359375,6.734375
1695388517428,-0.24291992,-1.0256958,0.1071167,7.921875,-3.09375,6.25
1695388517472,-0.3244629,-1.02594,0.1281128,6.296875,-0.609375,2.5625
1695388517517,-0.34716797,-1.065979,0.15692139,3.984375,-3.453125,0.4375
1695388517550,-0.21704102,-0.92510986,-0.0015258789,-0.859375,-1.1875,-2.40625
1695388517592,-0.18847656,-0.96221924,-0.07110596,-4.40625,3.140625,-5.28125
1695388517638,-0.1003418,-0.80426025,0.039733887,-5.34375,0.890625,-3.234375
1695388517668,-0.2121582,-0.9595337,0.059509277,-6.0,-7.734375,-6.1875
1695388517712,-0.34692383,-1.0437622,0.12762451,1.640625,-8.671875,-2.03125
1695388517757,-0.29492188,-1.0623169,0.14447021,2.390625,-4.0625,0.390625
1695388517788,-0.32958984,-1.0274048,0.045837402,2.359375,-7.0,-1.359375
1695388517833,-0.30615234,-0.9204712,0.053894043,-2.671875,6.546875,-1.953125
1695388517864,-0.22729492,-0.92144775,0.062438965,-5.28125,3.265625,-1.625
1695388517909,-0.28271484,-0.9487915,0.06121826,-3.515625,-2.125,-1.84375
1695388517953,-0.28051758,-0.9500122,0.089538574,-1.984375,-5.34375,-1.625
1695388517983,-0.29248047,-0.95196533,0.073913574,-4.09375,-2.328125,-1.40625
1695388518028,-0.3251953,-1.00177,0.097595215,1.265625,-4.609375,-0.6875
1695388518072,-0.43041992,-1.0332642,-0.031066895,7.171875,-5.859375,5.34375
1695388518103,-0.2434082,-1.0447388,0.11444092,3.046875,6.078125,6.78125
1695388518147,-0.31567383,-0.9927368,0.113708496,-2.140625,2.46875,1.40625
1695388518192,-0.24365234,-0.8833618,0.054382324,-4.859375,0.859375,-1.6875
1695388518223,-0.2487793,-0.8916626,-0.027893066,-3.9375,5.703125,-3.859375
1695388518269,-0.2434082,-0.9092407,0.0036010742,-3.9375,1.21875,-1.453125
1695388518313,-0.24267578,-0.9331665,0.08538818,-3.1875,1.421875,0.15625
1695388518343,-0.3466797,-1.00177,0.15496826,1.9375,2.3125,-1.0625
1695388518391,-0.36206055,-1.0474243,0.17132568,8.671875,-1.5625,-2.390625
1695388518432,-0.38012695,-1.0239868,0.06781006,11.203125,-1.28125,3.6875
1695388518463,-0.27612305,-0.94854736,-0.031066895,-1.15625,1.796875,3.359375
1695388518507,-0.22363281,-0.9072876,0.039001465,-5.59375,2.640625,3.40625
1695388518552,-0.25976562,-0.93218994,0.036315918,-4.609375,0.140625,2.609375
1695388518583,-0.3005371,-0.9807739,0.08465576,1.515625,-5.59375,-0.59375
1695388518629,-0.3010254,-0.99786377,0.09906006,-0.28125,-2.6875,-0.453125
1695388518657,-0.39257812,-1.0215454,0.21429443,-4.046875,1.953125,3.84375
1695388518703,-0.2956543,-1.0120239,0.13006592,-0.390625,17.171875,8.625
1695388518748,-0.2626953,-1.0005493,0.0060424805,-3.078125,24.40625,0.21875
1695388518777,-0.15161133,-0.90753174,-0.07159424,2.28125,-1.734375,0.484375
1695388518823,-0.22314453,-0.9006958,0.008483887,9.296875,-25.921875,4.640625
1695388518868,-0.24243164,-0.8596802,0.06707764,-3.40625,-10.6875,0.15625
1695388518897,-0.48217773,-1.1494751,0.21551514,-3.359375,-5.390625,-4.1875
1695388518943,-0.31079102,-1.0151978,0.06414795,-7.5625,7.015625,-2.71875
1695388518989,-0.24316406,-0.9624634,-0.04547119,-10.203125,26.796875,-5.5
1695388519018,-0.09790039,-0.8308716,0.035095215,-14.5625,0.078125,-0.09375
1695388519063,-0.30444336,-0.9182739,0.18450928,-5.109375,-8.828125,-0.5
1695388519108,-0.4038086,-1.1133423,0.2243042,0.65625,-3.953125,6.453125
1695388519137,-0.26171875,-1.050354,0.13568115,-6.15625,2.703125,6.34375
1695388519183,-0.28930664,-0.95391846,0.13201904,-3.125,2.890625,3.4375
1695388519228,-0.17822266,-0.8777466,0.08929443,-3.671875,-3.203125,0.125
1695388519257,-0.22021484,-0.93048096,0.07293701,1.3125,-7.578125,-0.109375
1695388519303,-0.22949219,-0.9277954,0.08001709,2.78125,-8.890625,-0.046875
1695388519349,-0.31591797,-0.9927368,0.15447998,4.25,-10.46875,-1.03125
1695388519377,-0.34057617,-1.1270142,0.20916748,-3.0625,6.921875,1.15625
1695388519423,-0.27368164,-0.9890747,0.09881592,-3.40625,2.96875,0.640625
1695388519452,-0.2692871,-0.93292236,0.11395264,2.5,0.203125,3.0
1695388519497,-0.15161133,-0.9517212,0.046569824,4.578125,1.046875,2.671875
1695388519542,-0.22705078,-0.942688,0.078308105,4.953125,-6.75,1.171875
1695388519617,-0.3190918,-0.98565674,0.14349365,7.71875,-9.109375,1.890625
1695388519620,-0.3088379,-1.0440063,0.15985107,1.921875,-1.09375,2.734375
1695388519663,-0.30395508,-0.9871216,0.1281128,-2.671875,6.96875,-0.078125
1695388519692,-0.24243164,-0.9390259,0.07977295,-1.03125,5.234375,-0.171875
1695388519737,-0.17382812,-0.92559814,0.042663574,-2.109375,8.390625,-0.4375
1695388519783,-0.21557617,-0.9138794,-0.0010375977,-1.859375,-3.0,-1.109375
1695388519812,-0.2709961,-0.9859009,0.113464355,0.765625,-1.78125,-1.46875
1695388519857,-0.30029297,-1.0007935,0.14056396,1.375,-0.046875,-1.921875
1695388519902,-0.32714844,-1.0418091,0.121032715,3.5625,0.40625,-0.203125
1695388519932,-0.25805664,-1.0061646,0.07879639,2.125,7.40625,-0.328125
1695388519977,-0.24951172,-0.9404907,0.10809326,-2.96875,4.234375,-1.09375
1695388520052,-0.2331543,-0.9536743,0.034606934,-3.59375,3.8125,-2.140625
1695388520070,-0.23144531,-0.95513916,0.059509277,-3.28125,1.0625,-2.5
1695388520097,-0.24389648,-0.9146118,0.074157715,-3.296875,0.1875,-2.1875
1695388520127,-0.32080078,-0.9702759,0.18231201,2.265625,-0.1875,-2.328125
1695388520173,-0.3479004,-1.0784302,0.07537842,4.5,-4.140625,-0.015625
1695388520217,-0.27929688,-1.0120239,0.11419678,-1.984375,5.53125,0.796875
1695388520247,-0.25268555,-0.96417236,0.039001465,-3.40625,4.75,1.75
1695388520292,-0.20166016,-0.8635864,0.04534912,-5.46875,0.421875,-0.171875
1695388520337,-0.24023438,-0.8977661,0.08270264,-2.109375,-2.109375,-3.015625
1695388520367,-0.32373047,-0.9998169,0.12860107,2.8125,-3.046875,-1.515625
1695388520412,-0.31591797,-1.0386353,0.117370605,2.59375,-4.21875,1.296875
1695388520457,-0.33764648,-1.0393677,0.18743896,4.9375,8.234375,4.328125
1695388520487,-0.30126953,-1.0447388,0.05218506,4.15625,14.578125,8.9375
1695388520532,-0.18603516,-0.9273071,-0.023010254,-2.484375,22.140625,3.890625
1695388520577,-0.203125,-0.9024048,0.07171631,4.078125,6.34375,-1.578125
1695388520607,-0.18969727,-0.94366455,0.021911621,8.4375,-9.078125,-0.109375
1695388520652,-0.29248047,-1.1104126,0.013366699,5.375,-28.875,-0.515625
1695388520697,-0.22265625,-0.9795532,0.055603027,-13.890625,-4.046875,-4.859375
1695388520727,-0.38745117,-0.9956665,0.1786499,-5.0,-1.53125,-3.4375
1695388520772,-0.24707031,-0.95440674,0.036315918,0.078125,7.59375,-1.484375
1695388520817,-0.26635742,-0.95635986,0.109313965,2.734375,4.5,-2.078125
1695388520847,-0.27124023,-0.9771118,-0.0012817383,6.359375,-6.984375,2.03125
1695388520892,-0.32714844,-0.99786377,0.18719482,2.40625,-5.390625,2.515625
1695388520922,-0.31860352,-1.0176392,0.062194824,-3.03125,2.0625,4.28125
1695388520967,-0.2668457,-0.9661255,0.062438965,-5.546875,6.9375,1.90625
1695388521012,-0.23754883,-0.9299927,0.06439209,-3.59375,8.234375,-0.359375
1695388521042,-0.20654297,-0.91729736,0.04437256,-4.890625,4.46875,-1.921875
1695388521088,-0.19873047,-0.9258423,0.028259277,-2.90625,-3.03125,-3.65625
1695388521132,-0.27539062,-0.9734497,0.1161499,-0.65625,-6.640625,-2.171875
1695388521162,-0.37402344,-1.0650024,0.17596436,2.640625,-3.265625,-0.625
1695388521207,-0.32202148,-1.0203247,0.13519287,1.0625,0.21875,-0.328125
1695388521252,-0.2763672,-0.93756104,0.09564209,1.390625,2.234375,-1.078125
1695388521282,-0.22851562,-0.90997314,0.026306152,0.21875,2.1875,-3.015625
1695388521327,-0.23779297,-0.9168091,0.019714355,-1.078125,-1.140625,-4.8125
1695388521372,-0.29614258,-0.95758057,0.06488037,-0.796875,-2.0,-5.34375
1695388521402,-0.32666016,-0.99176025,0.09075928,0.46875,-0.84375,-4.109375
1695388521447,-0.3581543,-1.0195923,0.109069824,1.015625,3.71875,-3.453125
1695388521492,-0.34643555,-1.0076294,0.14520264,0.15625,18.265625,-0.828125
1695388521522,-0.3388672,-1.0459595,0.1749878,1.09375,27.828125,-0.6875
1695388521567,-0.3166504,-0.99102783,0.061462402,-0.203125,26.765625,0.109375
1695388521597,-0.28076172,-0.93536377,0.047302246,0.796875,11.078125,0.671875
1695388521642,-0.25170898,-0.8345337,-0.03375244,4.578125,0.203125,2.828125
1695388521687,-0.2866211,-0.9031372,0.007019043,10.078125,-15.0625,2.765625
1695388521717,-0.33935547,-0.9663696,0.10858154,8.703125,-28.890625,2.34375
1695388521762,-0.3095703,-0.93927,0.047058105,-7.109375,-19.703125,0.9375
1695388521807,-0.36206055,-1.0515747,0.09832764,-4.90625,-1.765625,-1.25
1695388521838,-0.34399414,-1.0559692,0.124938965,2.046875,6.21875,3.203125
1695388521882,-0.28393555,-0.9553833,0.012878418,2.546875,7.765625,3.28125
1695388521927,-0.2902832,-0.9331665,0.014099121,1.5,3.375,1.1875
1695388521957,-0.2614746,-0.93414307,-0.029846191,-5.546875,1.625,-0.890625
1695388522002,-0.26220703,-0.91192627,0.08734131,-5.65625,1.1875,-2.90625
1695388522048,-0.34960938,-1.0276489,0.1161499,2.15625,1.234375,-1.8125
1695388522077,-0.3322754,-1.0274048,0.12445068,6.109375,2.296875,2.65625
1695388522122,-0.34277344,-0.99420166,0.07098389,5.390625,3.28125,1.953125
1695388522167,-0.28344727,-0.9475708,0.027038574,2.453125,2.109375,2.90625
1695388522197,-0.2524414,-0.93414307,0.00018310547,-0.46875,1.421875,1.5625
1695388522242,-0.2590332,-0.92926025,0.009460449,-2.734375,-0.4375,-1.03125
1695388522287,-0.28198242,-0.9434204,0.018005371,-1.4375,1.453125,-2.0
1695388522317,-0.30737305,-1.0046997,0.082458496,1.78125,4.09375,-0.1875
1695388522362,-0.3630371,-1.0628052,0.12884521,2.265625,6.296875,1.5625
1695388522393,-0.34838867,-1.0244751,0.07366943,-1.859375,10.21875,0.375
1695388522437,-0.29516602,-0.98223877,0.02557373,-6.953125,14.328125,-0.625
1695388522482,-0.22802734,-0.9116821,0.023132324,-4.171875,6.625,0.203125
1695388522513,-0.22436523,-0.88238525,-0.03253174,3.78125,-6.046875,3.53125
1695388522557,-0.24438477,-0.9092407,-0.042053223,9.03125,-16.546875,5.515625
1695388522602,-0.3239746,-0.9834595,0.06365967,3.65625,-23.734375,2.578125
1695388522634,-0.30029297,-0.956604,-0.00079345703,-5.0,-11.46875,-0.46875
1695388522677,-0.33984375,-1.0252075,0.08685303,-8.53125,-3.90625,-3.59375
1695388522722,-0.30249023,-1.0647583,0.07318115,-4.453125,2.734375,-0.28125
1695388522753,-0.2692871,-0.97003174,0.061462402,-2.125,4.34375,1.046875
1695388522797,-0.25512695,-0.9326782,0.039001465,1.09375,12.46875,0.859375
1695388522842,-0.26513672,-0.91534424,0.010681152,1.375,7.109375,-2.359375
1695388522872,-0.23852539,-0.9446411,-0.051818848,0.78125,-1.90625,1.625
1695388522917,-0.2866211,-0.97662354,0.12054443,-0.125,-7.375,2.65625
1695388522967,-0.3557129,-1.0610962,0.101257324,-2.375,-6.859375,2.484375
1695388522993,-0.32177734,-1.048645,0.116882324,-1.9375,7.765625,2.671875
1695388523037,-0.2722168,-0.93756104,0.013122559,-2.078125,6.734375,2.84375
1695388523082,-0.20996094,-0.9060669,-0.043029785,-1.296875,5.46875,3.609375
1695388523113,-0.2097168,-0.8323364,0.059509277,-5.359375,0.65625,4.46875
1695388523157,-0.2709961,-1.0459595,0.10394287,-1.484375,-1.234375,-3.671875
1695388523188,-0.34399414,-1.0823364,0.16082764,1.1875,-3.125,-0.5625
1695388523232,-0.32177734,-1.0042114,0.081726074,4.375,0.390625,3.625
1695388523277,-0.27197266,-0.95391846,0.0028686523,2.09375,7.578125,3.0625
1695388523353,-0.23535156,-0.91412354,0.051208496,1.078125,5.71875,1.8125
1695388523357,-0.22631836,-0.9717407,0.019470215,4.484375,2.890625,1.953125
1695388523398,-0.23950195,-0.88653564,-0.0071411133,5.984375,-6.765625,5.359375
1695388523428,-0.24926758,-1.0891724,0.08465576,9.5,-1.796875,1.625
1695388523473,-0.2878418,-1.0947876,0.08734131,3.71875,-0.640625,-1.125
1695388523517,-0.26879883,-0.96710205,0.066101074,2.359375,2.3125,1.21875
1695388523547,-0.24291992,-0.88531494,-0.026428223,2.515625,6.765625,-2.5625
1695388523592,-0.23144531,-0.91900635,-0.128479,0.796875,3.828125,-3.65625
1695388523637,-0.19824219,-0.9800415,-0.018859863,-1.671875,5.140625,-3.625
1695388523669,-0.27661133,-1.065979,0.058776855,-1.53125,0.84375,-5.59375
1695388523715,-0.30371094,-1.0484009,0.07733154,-0.328125,2.65625,-1.015625
1695388523788,-0.3305664,-0.97906494,-0.006164551,3.375,1.328125,2.765625
1695388523802,-0.33618164,-0.95440674,0.12176514,4.359375,8.671875,3.515625
1695388523832,-0.2758789,-0.9780884,0.008239746,6.1875,10.359375,1.640625
1695388523862,-0.17358398,-0.9273071,-0.09942627,2.515625,4.53125,-2.9375
1695388523907,-0.20410156,-0.9692993,-0.06109619,-3.90625,6.046875,-3.875
1695388523954,-0.20727539,-0.9260864,-0.069885254,-5.03125,-0.09375,-3.671875
1695388523982,-0.24707031,-0.96954346,-0.090148926,-2.390625,-3.828125,-3.296875
1695388524028,-0.25463867,-0.95098877,0.038024902,-6.96875,-2.125,-3.59375
1695388524073,-0.4321289,-1.0881958,0.14886475,-0.421875,2.796875,-2.046875
1695388524103,-0.33862305,-1.050354,0.13519287,-4.71875,3.9375,-0.109375
1695388524149,-0.3713379,-1.0195923,0.08782959,-15.546875,24.0,-1.453125
1695388524195,-0.27563477,-0.96051025,0.048034668,-7.25,24.765625,-0.578125
1695388524222,-0.21875,-0.9031372,0.046081543,-4.421875,10.46875,0.5
1695388524269,-0.18823242,-0.81207275,-0.097717285,3.90625,-7.109375,5.0
1695388524313,-0.21728516,-0.88165283,-0.011779785,13.21875,-20.71875,6.984375
1695388524342,-0.33984375,-0.95391846,0.008483887,4.875,-25.078125,3.6875
1695388524389,-0.31811523,-0.9883423,0.11541748,-0.515625,-8.40625,0.0
1695388524433,-0.36206055,-1.0796509,0.10491943,-0.59375,6.421875,-0.796875
1695388524462,-0.32470703,-1.0588989,0.12957764,1.0,7.546875,2.140625
1695388524508,-0.29736328,-1.0012817,0.08831787,1.25,6.0,2.875
1695388524553,-0.26171875,-0.9155884,-0.03717041,-2.6875,6.140625,-0.71875
1695388524583,-0.23095703,-0.9170532,-0.04425049,-2.15625,6.984375,-0.171875
1695388524627,-0.23217773,-0.92559814,-0.026916504,2.375,-5.40625,0.875
1695388524657,-0.26611328,-0.93951416,-0.033996582,-5.390625,-15.0,0.828125
1695388524703,-0.27612305,-0.9915161,0.078552246,-20.203125,-20.140625,-7.03125
1695388524748,-0.3852539,-1.0442505,0.22723389,-12.984375,-0.71875,-5.890625
1695388524778,-0.27490234,-0.97247314,0.062194824,0.203125,2.984375,-0.640625
1695388524822,-0.26538086,-0.9680786,-0.0095825195,3.03125,1.1875,1.40625
1695388524871,-0.28515625,-0.9336548,0.032409668,-2.9375,2.390625,-1.53125
1695388524897,-0.28393555,-0.94415283,0.030212402,-2.78125,0.59375,-1.53125
1695388524942,-0.29638672,-0.98028564,0.11785889,-0.78125,-0.03125,-1.515625
1695388524987,-0.35229492,-1.0264282,0.13250732,0.21875,-1.125,-1.03125
1695388525017,-0.32128906,-0.9793091,0.08685303,0.390625,0.1875,0.625
1695388525062,-0.30395508,-0.9619751,0.06488037,-0.625,0.015625,1.3125
1695388525108,-0.3046875,-0.95684814,0.07635498,-0.34375,1.703125,0.65625
1695388525137,-0.2841797,-0.9380493,0.043395996,-1.734375,1.953125,0.84375
1695388525183,-0.3005371,-0.9627075,0.062927246,-0.5,-0.609375,0.375
1695388525229,-0.3071289,-0.9710083,0.08026123,1.3125,-0.984375,1.1875
1695388525257,-0.30297852,-0.9717407,0.074401855,0.28125,0.328125,1.09375
1695388525302,-0.3330078,-0.9927368,0.09564209,2.921875,-1.765625,1.953125
1695388525333,-0.29638672,-0.9727173,0.066345215,1.875,1.984375,1.46875
1695388525377,-0.29248047,-0.93634033,0.042907715,-0.203125,5.484375,0.109375
1695388525422,-0.26660156,-0.9397583,0.05633545,-0.40625,4.84375,-0.796875
1695388525453,-0.27246094,-0.9585571,0.034362793,-1.71875,1.46875,-0.4375
1695388525497,-0.28222656,-0.96466064,0.06439209,-1.25,-1.625,-0.328125
1695388525543,-0.32836914,-0.98150635,0.097839355,1.9375,-2.4375,1.203125
1695388525573,-0.3540039,-0.9924927,0.09490967,3.203125,-0.34375,3.015625
1695388525617,-0.3251953,-1.0025024,0.070007324,4.59375,1.890625,3.28125
1695388525662,-0.28564453,-0.9727173,0.026794434,4.59375,4.453125,2.78125
1695388525693,-0.25390625,-0.86383057,-0.012268066,2.03125,9.703125,2.21875
1695388525737,-0.20166016,-0.9639282,0.035095215,-0.625,5.375,1.96875
1695388525782,-0.29248047,-0.9924927,0.061950684,-1.484375,-0.265625,-2.15625
1695388525812,-0.34106445,-1.0317993,0.13568115,3.90625,4.75,0.578125
1695388525857,-0.3642578,-1.0266724,0.05218506,6.609375,2.375,1.09375
1695388525902,-0.2841797,-0.987854,0.034606934,5.921875,0.515625,4.484375
1695388525933,-0.2614746,-0.92755127,-0.0335083,5.65625,3.984375,4.09375
1695388525977,-0.17749023,-0.89727783,-0.043029785,-4.28125,7.796875,3.0
1695388526022,-0.2536621,-0.9529419,0.03314209,-3.484375,-2.34375,-2.1875
1695388526052,-0.25683594,-0.9973755,0.04071045,-2.078125,-2.71875,-1.796875
1695388526097,-0.31860352,-1.0200806,0.07244873,2.03125,-5.359375,-0.65625
1695388526127,-0.34375,-1.0484009,0.046813965,5.09375,-7.578125,3.1875
1695388526173,-0.29858398,-0.98931885,0.043884277,2.265625,-1.65625,1.65625
1695388526217,-0.2434082,-0.93170166,-0.040100098,-2.71875,6.15625,-0.015625
1695388526247,-0.23852539,-0.9312134,0.0138549805,-6.671875,3.578125,-1.515625
1695388526292,-0.19213867,-0.9024048,-0.09844971,-11.1875,0.296875,0.640625
1695388526337,-0.2368164,-0.940979,-0.020812988,-4.46875,-7.125,6.578125
1695388526367,-0.35839844,-1.0703735,0.09320068,4.421875,-4.40625,7.078125
1695388526412,-0.3088379,-1.0984497,0.13031006,0.375,-0.015625,7.46875
1695388526457,-0.29663086,-0.97076416,0.057556152,-0.3125,1.140625,5.84375
1695388526487,-0.18676758,-0.9043579,0.0038452148,0.3125,2.28125,3.640625
1695388526533,-0.21044922,-0.97076416,-0.025939941,0.234375,6.9375,0.34375
1695388526577,-0.16259766,-0.8609009,-0.0178833,-1.203125,4.21875,1.21875
1695388526607,-0.15698242,-0.9151001,-0.1350708,1.765625,6.484375,0.703125
1695388526652,-0.1472168,-0.9492798,0.009216309,4.6875,-1.375,2.4375
1695388526697,-0.43701172,-1.1199341,0.18450928,10.953125,-0.265625,1.015625
1695388526727,-0.2734375,-1.112854,0.043640137,12.046875,-1.515625,10.03125
1695388526772,-0.23876953,-1.0154419,-0.013977051,7.0,11.515625,10.0625
1695388526817,-0.16503906,-0.850647,-0.009094238,1.640625,10.59375,3.953125
1695388526847,-0.13989258,-0.94366455,-0.047668457,4.5625,7.5625,-0.03125
1695388526892,-0.15917969,-0.97491455,-0.027893066,5.078125,2.828125,-0.859375
1695388526922,-0.19018555,-1.0059204,-0.034973145,2.265625,0.21875,-1.078125
1695388526967,-0.23901367,-1.0276489,-0.054748535,1.328125,1.25,-0.046875
1695388527013,-0.2290039,-0.9871216,-0.0178833,-1.4375,2.796875,-0.046875
1695388527042,-0.21484375,-1.0108032,-0.019592285,-1.125,2.203125,-0.265625
1695388527087,-0.16967773,-1.0110474,-0.07159424,-0.046875,4.140625,1.421875
1695388527133,-0.22070312,-0.9873657,-0.07940674,10.25,4.578125,6.453125
1695388527162,-0.26489258,-1.0828247,-0.08062744,4.1875,-6.65625,4.65625
1695388527207,-0.13598633,-1.0090942,-0.07965088,-10.109375,7.65625,1.578125
1695388527254,-0.16821289,-0.99884033,-0.0051879883,-12.953125,2.640625,-3.625
1695388527283,-0.20141602,-0.9873657,-0.012023926,-5.34375,3.59375,0.5625
1695388527327,-0.1875,-0.94073486,-0.043762207,-5.6875,1.3125,1.390625
1695388527372,-0.17944336,-0.9883423,-0.030334473,-0.84375,-1.890625,2.171875
1695388527402,-0.20117188,-1.0142212,0.0067749023,3.09375,-5.171875,1.53125
1695388527447,-0.21264648,-1.0298462,0.0038452148,2.578125,-5.703125,3.5
1695388527522,-0.19433594,-1.03302,0.013366699,0.046875,-0.359375,2.78125
1695388527537,-0.1899414,-0.9612427,-0.007385254,-3.1875,1.9375,0.015625
1695388527566,-0.17382812,-0.9602661,-0.02545166,-3.5625,1.171875,-2.15625
1695388527597,-0.16040039,-0.94122314,-0.070373535,-2.984375,3.390625,-2.8125
1695388527642,-0.15405273,-0.98272705,-0.06427002,-3.0,2.296875,-3.109375
1695388527687,-0.15795898,-0.9019165,-0.0010375977,-7.921875,-1.421875,-1.71875
1695388527719,-0.24291992,-1.038147,0.05609131,-3.0,-1.40625,-4.65625
1695388527762,-0.2409668,-1.0474243,0.05633545,2.46875,-1.90625,-0.734375
1695388527807,-0.19335938,-1.0083618,0.0028686523,-0.96875,0.328125,1.4375
1695388527837,-0.17895508,-0.9680786,0.017028809,-2.796875,4.46875,-1.765625
1695388527882,-0.18530273,-0.94488525,-0.049865723,-0.9375,0.546875,-1.671875
1695388527927,-0.1550293,-0.9351196,-0.023498535,1.1875,-1.609375,-1.171875
1695388527958,-0.18798828,-0.9961548,-0.0335083,-0.328125,-1.953125,-1.4375
1695388528002,-0.25878906,-1.0454712,0.06317139,0.515625,-1.1875,-1.140625
1695388528047,-0.25268555,-1.0325317,0.03729248,3.78125,-1.171875,2.734375
1695388528078,-0.24047852,-0.99420166,-0.0051879883,4.984375,-2.25,4.5
1695388528122,-0.19018555,-0.960022,0.00091552734,3.234375,2.4375,3.09375
1695388528167,-0.18115234,-0.9981079,-0.025939941,-0.25,2.140625,0.4375
1695388528198,-0.16772461,-0.9702759,-0.02545166,-0.84375,-0.21875,0.390625
1695388528242,-0.21655273,-0.94976807,-0.019348145,-7.28125,5.453125,-0.140625
1695388528287,-0.234375,-1.0029907,0.024108887,-8.5625,9.484375,-3.65625
1695388528318,-0.28198242,-1.060852,0.05999756,-7.015625,13.1875,-1.71875
1695388528362,-0.2241211,-1.02594,0.019714355,-2.390625,10.03125,2.4375
1695388528394,-0.16699219,-0.9651489,-0.020568848,-0.828125,7.859375,3.15625
1695388528438,-0.16015625,-0.91656494,-0.06719971,6.875,-3.65625,3.59375
1695388528482,-0.21313477,-0.9673462,-0.018859863,14.5,-20.71875,3.03125
1695388528513,-0.15307617,-0.9570923,0.15325928,-0.875,-6.40625,-0.53125
1695388528557,-0.22631836,-1.0252075,0.011169434,-6.125,-0.90625,-3.453125
1695388528602,-0.18041992,-0.9307251,-0.043518066,-4.78125,1.609375,-5.9375
1695388528632,-0.21582031,-0.9783325,-0.0134887695,0.171875,4.4375,-5.0
1695388528679,-0.15966797,-0.94732666,-0.07476807,-0.671875,-3.0625,-3.671875
1695388528722,-0.2487793,-1.0403442,0.049987793,2.53125,-4.125,-0.65625
1695388528753,-0.25952148,-1.0401001,0.03338623,-2.984375,-3.5,0.75
1695388528799,-0.21166992,-0.9807739,0.025817871,-3.734375,0.953125,0.328125
1695388528842,-0.21362305,-0.9397583,-0.0032348633,-2.59375,1.71875,-1.6875
1695388528873,-0.17382812,-0.923645,-0.009094238,-2.125,-0.203125,-3.0625
1695388528921,-0.18334961,-0.94903564,-0.058654785,-0.75,-4.921875,-1.828125
1695388528962,-0.20703125,-0.9714966,0.038757324,1.296875,-6.984375,-2.625
1695388528992,-0.29907227,-1.0305786,0.0758667,3.171875,-6.0625,0.265625
1695388529037,-0.29370117,-1.0371704,0.04949951,-2.265625,1.0625,1.984375
1695388529067,-0.26831055,-1.0049438,0.030700684,-5.671875,5.609375,-0.078125
1695388529114,-0.24316406,-0.9883423,0.012390137,-4.96875,5.953125,-1.09375
1695388529159,-0.21289062,-0.9776001,-0.030334473,-2.703125,9.421875,-0.875
1695388529187,-0.2006836,-0.975647,0.008972168,-0.859375,7.890625,-1.359375
1695388529233,-0.20336914,-0.94781494,-0.02178955,2.671875,0.828125,0.75
1695388529278,-0.22949219,-0.9649048,-0.0635376,9.28125,-8.875,2.671875
1695388529307,-0.26049805,-0.9805298,0.070007324,6.53125,-12.890625,2.625
1695388529352,-0.25341797,-1.0298462,-0.024963379,-5.421875,-3.984375,-3.0625
1695388529397,-0.22875977,-0.92633057,0.03656006,-4.765625,4.875,-3.640625
1695388529427,-0.26098633,-1.0095825,0.0053100586,3.078125,2.265625,-2.5625
1695388529473,-0.24926758,-1.0046997,0.008239746,5.484375,2.515625,-0.25
1695388529519,-0.25146484,-0.98638916,-0.032287598,3.109375,-0.03125,-0.140625
1695388529547,-0.26513672,-0.9627075,-0.06011963,-1.515625,3.4375,0.875
1695388529593,-0.1694336,-0.94000244,-0.01739502,-4.46875,4.03125,-0.125
1695388529638,-0.2619629,-1.0078735,0.015319824,0.03125,-0.609375,-2.265625
1695388529667,-0.24414062,-1.0120239,0.0067749023,1.5625,-1.203125,0.359375
1695388529712,-0.27856445,-0.9793091,-0.023742676,1.921875,-4.375,0.5
1695388529757,-0.25683594,-0.9927368,-0.009338379,2.265625,-2.640625,-0.171875
1695388529787,-0.2253418,-0.9639282,-0.030090332,0.171875,0.625,-0.890625
1695388529833,-0.21704102,-0.9553833,-0.040100098,-1.0625,0.984375,-1.328125
1695388529862,-0.24194336,-0.95440674,-0.025939941,-2.46875,1.171875,-1.75
1695388529907,-0.25878906,-0.986145,0.0048217773,-3.171875,4.78125,-1.734375
1695388529952,-0.27294922,-1.0144653,0.023376465,-4.3125,5.296875,-1.734375
1695388529982,-0.28955078,-1.0237427,0.020935059,-5.5,7.0625,-0.90625
1695388530027,-0.26660156,-0.9795532,0.005065918,-5.4375,9.109375,-0.734375
1695388530072,-0.27416992,-0.9578247,0.00018310547,-3.984375,5.734375,-1.15625
1695388530103,-0.23413086,-0.9507446,-0.020080566,0.3125,-0.5625,1.015625
1695388530147,-0.24438477,-0.9553833,-0.030334473,2.640625,-4.046875,1.921875
1695388530196,-0.2409668,-0.96539307,-0.038635254,3.4375,-10.59375,2.828125
1695388530222,-0.2849121,-0.98760986,0.00970459,-1.15625,-13.6875,3.890625
1695388530267,-0.27368164,-1.0003052,0.04510498,-4.203125,-5.203125,-0.0625
1695388530312,-0.27954102,-0.975647,0.03656006,-4.203125,-1.046875,-1.109375
1695388530342,-0.2541504,-0.9614868,0.005065918,-1.953125,1.0,-1.90625
1695388530387,-0.26171875,-0.9780884,0.0053100586,1.3125,6.234375,-1.09375
1695388530432,-0.25463867,-0.9734497,0.0067749023,2.984375,3.34375,-0.078125
1695388530462,-0.2631836,-0.97442627,0.020690918,1.9375,4.265625,0.15625
1695388530507,-0.27514648,-0.98394775,-0.0025024414,0.0,5.34375,0.234375
1695388530552,-0.2734375,-0.9837036,0.015319824,-0.78125,6.125,-0.046875
1695388530582,-0.27783203,-0.9898071,0.03729248,-0.34375,5.171875,0.421875
1695388530627,-0.26635742,-0.98516846,0.017028809,-1.796875,6.03125,-0.375
1695388530657,-0.2668457,-0.98687744,0.020202637,-2.765625,5.828125,-0.78125
1695388530702,-0.27001953,-0.986145,0.03704834,-2.8125,6.28125,-0.703125
1695388530747,-0.26831055,-0.9673462,0.0038452148,-2.828125,5.21875,-0.828125
1695388530822,-0.25585938,-0.9690552,0.017028809,-1.65625,6.109375,-0.203125
1695388530825,-0.24291992,-0.9573364,-0.013977051,2.046875,1.859375,1.453125
1695388530867,-0.23876953,-0.9414673,-0.06378174,7.40625,-6.421875,4.1875
1695388530897,-0.2524414,-0.9595337,0.02923584,5.59375,-12.734375,3.078125
1695388530942,-0.26367188,-0.97442627,0.003112793,1.453125,-14.84375,1.171875
1695388530987,-0.27026367,-0.9763794,-0.01373291,-5.40625,-1.21875,-2.984375
1695388531017,-0.23413086,-0.9714966,0.0053100586,-4.859375,1.578125,-2.140625
1695388531062,-0.24902344,-0.9673462,0.0060424805,-3.828125,0.96875,-1.984375
1695388531107,-0.25952148,-0.942688,0.029724121,1.96875,-1.046875,-0.703125
1695388531137,-0.30786133,-1.0120239,0.042907715,5.125,-1.84375,1.078125
1695388531182,-0.30859375,-1.0430298,0.028015137,6.125,-2.9375,3.640625
1695388531257,-0.28076172,-1.0105591,-0.05230713,2.125,2.40625,3.0
1695388531272,-0.2109375,-0.8887329,-0.03277588,-1.0625,7.15625,3.75
1695388531302,-0.2175293,-0.940979,0.011657715,-2.78125,1.484375,0.015625
1695388531332,-0.25219727,-1.0115356,0.014099121,-3.140625,-0.109375,-0.8125
1695388531377,-0.24584961,-0.9866333,-0.004699707,-1.09375,0.890625,-1.0625
1695388531422,-0.3100586,-1.0137329,0.007507324,0.609375,1.28125,1.53125
1695388531452,-0.26342773,-0.94781494,-0.04473877,-0.703125,4.625,3.796875
1695388531497,-0.22802734,-0.9898071,0.03387451,-4.21875,1.765625,0.921875
1695388531542,-0.21289062,-0.97198486,-0.030822754,-5.171875,0.078125,-2.90625
1695388531572,-0.22607422,-0.96954346,-0.014465332,-3.953125,0.96875,-4.84375
1695388531617,-0.27978516,-0.9541626,0.011657715,4.546875,-2.34375,-0.703125
1695388531662,-0.31567383,-1.0410767,0.030212402,7.25,-4.421875,2.640625
1695388531692,-0.27978516,-1.0112915,-0.06109619,0.40625,6.140625,5.28125
1695388531737,-0.17749023,-0.9102173,-0.014709473,-4.96875,7.578125,5.328125
1695388531782,-0.21923828,-0.9631958,0.005554199,-4.0,0.984375,-2.765625
1695388531812,-0.21362305,-0.9834595,-0.010070801,-0.578125,-1.640625,-2.65625
1695388531858,-0.2722168,-0.97979736,0.017028809,0.984375,-2.734375,-2.515625
1695388531902,-0.3022461,-1.0071411,0.031677246,4.96875,-4.8125,1.46875
1695388531932,-0.29125977,-1.020813,0.0065307617,3.421875,-0.71875,3.265625
1695388531977,-0.24438477,-0.9710083,-0.028137207,-1.59375,4.953125,0.875
1695388532022,-0.2121582,-0.94073486,-0.038879395,-1.765625,2.953125,-0.6875
1695388532052,-0.2368164,-0.9475708,-0.028869629,-1.421875,1.5625,-1.4375
1695388532097,-0.25048828,-0.9668579,-0.003967285,-2.15625,2.125,-0.328125
1695388532127,-0.24511719,-0.9927368,0.02947998,-1.234375,3.25,-1.046875
1695388532172,-0.27734375,-1.0015259,0.01361084,-0.078125,5.828125,1.234375
1695388532217,-0.28344727,-1.0003052,0.03729248,0.796875,2.859375,1.8125
1695388532247,-0.27905273,-1.0003052,-0.01373291,-3.03125,5.546875,-0.453125
1695388532292,-0.25634766,-0.97662354,0.017028809,-6.203125,10.03125,-0.9375
1695388532337,-0.25341797,-0.97979736,0.010925293,-4.90625,8.296875,-1.296875
1695388532367,-0.23901367,-0.9907837,0.007507324,-2.75,5.0,-0.828125
1695388532412,-0.2614746,-0.98028564,0.0289917,-0.53125,1.203125,0.5
1695388532457,-0.26293945,-0.96295166,0.003112793,0.75,0.1875,0.640625
1695388532487,-0.26220703,-0.97906494,-0.0032348633,1.828125,-2.09375,1.578125
1695388532532,-0.22509766,-0.9553833,-0.022766113,3.09375,-3.421875,3.0
1695388532577,-0.25048828,-0.95025635,0.00970459,2.1875,-12.234375,3.46875
1695388532607,-0.24780273,-0.9805298,0.020935059,-2.53125,-10.984375,1.625
1695388532652,-0.26586914,-0.98687744,0.051208496,-3.625,-3.625,-1.359375
1695388532697,-0.2607422,-0.98809814,0.010192871,-2.625,-1.15625,-1.5
1695388532727,-0.24609375,-0.9807739,-0.0017700195,-0.3125,0.78125,-0.453125
1695388532772,-0.2692871,-0.9846802,0.042907715,0.546875,-0.703125,0.140625
1695388532804,-0.2578125,-0.9768677,0.019714355,-0.984375,1.375,-0.25
1695388532847,-0.25195312,-0.9783325,0.014343262,-1.640625,4.265625,-0.328125
1695388532892,-0.25317383,-0.96710205,0.010192871,-0.5625,2.15625,-0.140625
1695388532922,-0.26220703,-0.9817505,0.016540527,-0.390625,2.5,-0.0625
1695388532967,-0.26904297,-0.9854126,0.018005371,-0.25,5.546875,0.40625
1695388533011,-0.2614746,-0.99835205,0.035095215,-0.640625,6.515625,0.765625
1695388533042,-0.25927734,-0.97784424,0.03363037,-1.609375,6.40625,0.625
1695388533087,-0.2512207,-0.9788208,0.02166748,-2.015625,5.796875,-0.234375
1695388533132,-0.25610352,-0.9741821,0.0446167,-2.9375,6.15625,-0.953125
1695388533163,-0.25927734,-0.9924927,0.036315918,-1.234375,3.34375,-0.140625
1695388533207,-0.24072266,-0.9602661,0.02557373,-0.40625,2.671875,-0.03125
1695388533252,-0.24584961,-0.96832275,-0.026672363,1.6875,0.078125,0.96875
1695388533282,-0.22924805,-0.9434204,-0.06549072,6.828125,-6.09375,3.40625
1695388533327,-0.23925781,-0.9143677,0.058044434,8.1875,-16.25,3.78125
1695388533371,-0.3383789,-0.9373169,0.077819824,2.375,-15.765625,0.296875
1695388533402,-0.22265625,-1.0337524,-0.03326416,-2.1875,0.265625,0.765625
1695388533447,-0.25146484,-1.0256958,0.009460449,-2.078125,-0.859375,-2.484375
1695388533492,-0.20703125,-0.9661255,-0.050109863,2.5,1.890625,1.1875
1695388533524,-0.2397461,-0.9944458,0.031433105,-1.234375,0.8125,1.8125
1695388533567,-0.2512207,-0.96759033,-0.014709473,-3.953125,0.078125,0.53125
1695388533598,-0.2536621,-0.9780884,-0.0068969727,-4.0,2.1875,-2.890625
1695388533642,-0.23095703,-0.9834595,0.014099121,-2.515625,2.40625,-1.453125
1695388533687,-0.25073242,-0.9788208,0.027282715,-2.671875,0.671875,-1.703125
1695388533717,-0.25708008,-0.9612427,0.0028686523,-2.46875,2.21875,-1.65625
1695388533762,-0.25195312,-0.9673462,0.0053100586,-1.78125,-0.015625,-0.875
1695388533807,-0.27172852,-0.9661255,0.04095459,-0.6875,1.421875,0.59375
1695388533838,-0.29296875,-1.0181274,0.066345215,2.484375,-0.359375,1.671875
1695388533884,-0.28710938,-1.015686,0.036071777,1.890625,2.296875,3.625
1695388533928,-0.24560547,-0.9380493,-0.034973145,-3.234375,6.703125,5.5625
1695388533958,-0.18798828,-0.95025635,0.03387451,-3.9375,0.1875,-0.828125
1695388534005,-0.19677734,-0.99298096,-0.0413208,-0.171875,1.046875,-0.78125
1695388534047,-0.24194336,-1.0142212,-0.028869629,-0.9375,1.03125,-0.0625
1695388534077,-0.25561523,-0.9578247,0.035583496,-1.953125,1.71875,0.125
1695388534122,-0.27563477,-1.0200806,0.042663574,-0.03125,1.515625,0.03125
1695388534166,-0.2644043,-1.0164185,0.04949951,-0.59375,2.734375,3.828125
1695388534199,-0.2602539,-0.97735596,0.090270996,-4.5,0.0,-0.96875
1695388534243,-0.23730469,-0.9404907,0.027526855,0.0625,3.59375,0.734375
1695388534287,-0.22167969,-0.94537354,-0.006652832,-3.75,-0.90625,-1.578125
1695388534318,-0.23999023,-0.9837036,0.0018920898,-4.703125,-0.921875,-1.09375
1695388534363,-0.20483398,-0.92266846,0.039733887,-4.0625,-0.59375,-0.578125
1695388534392,-0.30810547,-1.0369263,0.10467529,1.515625,0.234375,-0.359375
1695388534438,-0.2866211,-1.0569458,0.07928467,3.515625,-0.859375,1.6875
1695388534482,-0.2705078,-0.97735596,0.035583496,1.9375,-1.03125,1.890625
1695388534512,-0.2265625,-0.923645,-0.009338379,-2.890625,0.578125,1.21875
1695388534559,-0.20166016,-0.91729736,-0.007873535,-4.796875,-2.03125,-2.65625
1695388534603,-0.23657227,-0.98687744,0.020202637,-3.484375,-2.234375,-4.4375
1695388534632,-0.25854492,-0.98028564,0.048034668,-1.515625,-1.984375,-2.84375
1695388534682,-0.29614258,-1.0003052,0.0079956055,0.8125,-3.25,-1.03125
1695388534723,-0.33666992,-1.0061646,0.10443115,0.09375,-0.765625,0.265625
1695388534751,-0.2722168,-1.0073853,0.016296387,-0.40625,4.0,1.84375
1695388534797,-0.23266602,-0.9429321,0.06756592,-3.546875,3.515625,-0.21875
1695388534842,-0.23852539,-0.96466064,0.030944824,-1.796875,2.703125,-3.609375
1695388534872,-0.2854004,-0.98638916,0.038024902,-0.328125,-0.046875,-3.890625
1695388534917,-0.2722168,-0.9871216,0.01776123,-1.71875,3.1875,-4.640625
1695388534992,-0.29833984,-0.9324341,0.09490967,-2.875,5.375,-3.890625
1695388535007,-0.3161621,-0.98516846,0.07171631,0.078125,4.015625,-0.75
1695388535039,-0.3100586,-0.98028564,0.10247803,-2.046875,4.875,2.125
1695388535067,-0.25756836,-0.9727173,0.043884277,-1.171875,2.78125,1.265625
1695388535112,-0.26391602,-0.9546509,0.06903076,-1.765625,0.078125,-1.203125
1695388535157,-0.2626953,-0.93756104,0.046813965,-0.359375,-1.53125,-1.578125
1695388535187,-0.28564453,-0.9429321,0.03289795,-1.15625,-0.734375,-2.0625
1695388535236,-0.2697754,-0.9507446,0.04486084,-1.796875,-1.234375,-0.796875
1695388535278,-0.3347168,-0.9871216,0.14837646,3.0,-1.0625,1.1875
1695388535307,-0.453125,-1.1912231,0.24261475,11.625,-1.875,2.09375
1695388535352,-0.3618164,-1.0928345,0.12005615,-3.40625,-3.453125,5.828125
1695388535398,-0.25585938,-0.8858032,-0.04449463,-7.8125,2.296875,2.296875
1695388535427,-0.14013672,-0.69488525,-0.08502197,-9.234375,5.25,-0.59375
1695388535472,-0.22729492,-0.8518677,-0.022277832,-5.984375,-1.65625,-2.96875
1695388535517,-0.2631836,-0.9807739,0.043151855,-3.046875,-6.9375,-3.421875
1695388535547,-0.3190918,-1.1253052,0.093688965,-6.296875,-4.578125,-2.5625
1695388535592,-0.35620117,-1.0444946,0.1251831,-8.28125,-0.375,0.796875
1695388535639,-0.33374023,-0.92510986,0.10296631,-1.796875,1.734375,2.5625
1695388535673,-0.26293945,-0.91778564,0.08782959,0.671875,2.59375,3.046875
1695388535712,-0.23779297,-0.96173096,0.09173584,1.515625,0.015625,0.734375
1695388535757,-0.29614258,-1.0088501,0.11932373,0.890625,-2.625,-0.078125
1695388535787,-0.28076172,-0.9446411,0.09197998,-4.21875,-3.140625,-1.09375
1695388535832,-0.3227539,-0.9907837,0.09197998,0.171875,-2.5625,0.265625
1695388535862,-0.2783203,-0.9741821,0.051940918,2.453125,-0.546875,1.984375
1695388535907,-0.25170898,-0.9085083,0.043884277,0.5,1.46875,0.421875
1695388535951,-0.24804688,-0.9390259,0.05609131,1.921875,0.3125,-0.8125
1695388535982,-0.24633789,-0.9829712,0.043640137,0.375,-1.921875,-0.34375
1695388536027,-0.2980957,-0.99591064,0.15472412,-3.0625,2.203125,-1.765625
1695388536072,-0.3395996,-1.0088501,0.16546631,-4.40625,6.734375,-1.640625
1695388536102,-0.34350586,-1.0447388,0.14959717,-3.5,12.515625,-1.078125
1695388536147,-0.28881836,-0.98931885,0.070007324,-1.8125,10.015625,-0.3125
1695388536191,-0.27978516,-0.93536377,0.066345215,0.296875,6.4375,-0.421875
1695388536222,-0.24194336,-0.90826416,0.004333496,4.203125,0.5,0.71875
1695388536267,-0.23413086,-0.91485596,-0.008117676,10.421875,-6.546875,2.53125
1695388536312,-0.29345703,-0.9690552,0.0927124,7.328125,-8.734375,3.453125
1695388536343,-0.2512207,-0.94903564,0.047790527,-2.5,-4.484375,1.625
1695388536387,-0.3371582,-0.9951782,0.13006592,-5.34375,-3.3125,-1.4375
1695388536432,-0.36132812,-0.9529419,0.09320068,-0.21875,1.15625,-4.953125
1695388536462,-0.4411621,-1.2180786,0.2008667,0.03125,-1.34375,-7.9375
1695388536507,-0.29077148,-1.053772,0.0836792,4.25,-0.609375,3.734375
1695388536537,-0.3305664,-0.89385986,0.038269043,-1.25,4.96875,4.21875
1695388536582,-0.27075195,-0.7029419,0.01361084,0.65625,10.359375,4.125
1695388536627,-0.203125,-0.9702759,0.006286621,3.484375,0.578125,-1.578125
1695388536657,-0.28735352,-1.2075806,0.022155762,-5.125,1.5625,1.21875
1695388536702,-0.32543945,-0.9619751,0.07366943,-11.328125,8.921875,-2.75
1695388536747,-0.22973633,-0.8513794,0.031188965,-4.375,0.59375,-2.625
1695388536777,-0.26879883,-0.89971924,0.062438965,-0.015625,-0.375,-1.640625
1695388536822,-0.29174805,-1.0044556,0.13494873,0.484375,-2.125,-1.71875
1695388536866,-0.36865234,-1.0515747,0.116882324,-3.140625,-0.8125,-2.1875
1695388536897,-0.30004883,-0.9763794,0.08026123,-2.5,5.59375,-0.046875
1695388536942,-0.28393555,-0.9585571,0.094177246,-6.0,6.09375,-1.75
1695388536987,-0.2836914,-0.86138916,0.08123779,-1.875,1.09375,-1.59375
1695388537017,-0.29956055,-0.93096924,0.09613037,1.453125,-3.390625,-1.46875
1695388537062,-0.3322754,-0.9522095,0.0927124,-0.625,-7.078125,-0.28125
1695388537107,-0.3605957,-1.0100708,0.13641357,-1.421875,-9.375,0.3125
1695388537137,-0.37475586,-0.98687744,0.07952881,-3.203125,-2.640625,-0.125
1695388537182,-0.34545898,-0.95269775,0.1071167,-4.359375,3.0625,-1.640625
1695388537227,-0.2902832,-0.92974854,0.082458496,-4.484375,7.78125,-1.984375
1695388537257,-0.3149414,-0.94732666,0.1984253,0.171875,6.671875,-0.484375
1695388537302,-0.3515625,-0.98760986,0.1852417,1.453125,13.375,0.671875
1695388537332,-0.33569336,-1.0039673,0.116882324,-1.75,13.484375,-1.1875
1695388537377,-0.34423828,-0.94610596,0.08734131,-2.203125,11.3125,-1.578125
1695388537423,-0.30859375,-0.87457275,0.086120605,-1.90625,1.09375,-2.359375
1695388537452,-0.3232422,-0.9326782,0.10491943,-0.046875,-3.90625,-1.625
1695388537497,-0.3244629,-0.94610596,0.10321045,5.328125,-11.546875,1.984375
1695388537542,-0.3305664,-0.95684814,0.0993042,6.96875,-17.453125,5.921875
1695388537572,-0.35473633,-0.9612427,0.11566162,-2.859375,-12.5,4.578125
1695388537617,-0.26416016,-0.9036255,0.1251831,-7.859375,8.015625,0.96875
1695388537663,-0.3293457,-0.84259033,0.08905029,-2.359375,-4.71875,-5.03125
1695388537691,-0.4260254,-1.0252075,0.1005249,1.453125,-3.515625,-2.265625
1695388537737,-0.30664062,-1.0891724,0.1449585,0.59375,-1.203125,1.609375
1695388537782,-0.29907227,-0.9534302,0.12567139,-2.25,4.796875,3.828125
1695388537811,-0.30200195,-0.9168091,0.078308105,1.828125,2.421875,2.78125
1695388537857,-0.34155273,-0.9260864,0.08856201,3.890625,-3.09375,1.4375
1695388537902,-0.33544922,-0.9636841,0.10369873,2.625,-2.90625,-0.03125
1695388537932,-0.33666992,-0.96588135,0.105163574,-1.234375,-0.15625,-0.015625
1695388537977,-0.3166504,-0.96051025,0.08758545,-2.5625,-0.203125,0.484375
1695388538022,-0.33520508,-0.9585571,0.1317749,-2.8125,-0.203125,0.015625
1695388538052,-0.35961914,-0.9829712,0.15618896,-1.71875,9.3125,1.640625
1695388538097,-0.34301758,-1.0029907,0.15765381,-5.0625,12.328125,1.015625
1695388538126,-0.34448242,-1.0025024,0.15325928,-4.6875,14.234375,0.734375
1695388538171,-0.2668457,-0.9170532,0.07684326,-3.71875,11.109375,0.71875
1695388538217,-0.25634766,-0.9060669,0.05267334,2.375,1.203125,2.015625
1695388538248,-0.2409668,-0.9092407,0.044128418,8.59375,-5.9375,4.8125
1695388538292,-0.34765625,-0.93585205,0.09490967,12.234375,-18.0,7.109375
1695388538337,-0.3095703,-1.0149536,0.08319092,5.984375,-9.625,4.25
1695388538366,-0.31176758,-1.0042114,0.09051514,-2.90625,-3.203125,0.5
1695388538411,-0.28515625,-0.95635986,0.11468506,-0.875,0.578125,0.265625
1695388538457,-0.2932129,-0.958313,0.08685303,-0.390625,-1.3125,-1.296875
1695388538487,-0.31445312,-0.9824829,0.08831787,-0.375,1.625,-0.578125
1695388538531,-0.30566406,-0.9788208,0.07659912,2.015625,4.984375,2.65625
1695388538577,-0.28173828,-0.9458618,0.10662842,2.625,6.34375,3.703125
1695388538608,-0.27490234,-0.991272,0.098083496,2.765625,2.453125,2.109375
1695388538652,-0.30151367,-0.98321533,0.09979248,2.65625,2.390625,2.625
1695388538727,-0.2775879,-0.99664307,0.0065307617,4.453125,6.890625,4.234375
1695388538741,-0.23632812,-0.9380493,0.057556152,-0.59375,11.0,4.765625
1695388538772,-0.24072266,-0.99346924,0.05633545,-3.0,2.390625,0.796875
1695388538802,-0.27392578,-0.9956665,0.062438965,-2.53125,2.25,-0.375
1695388538846,-0.29858398,-1.0095825,0.14764404,2.125,4.921875,0.09375
1695388538892,-0.27661133,-0.9973755,0.039489746,5.3125,-1.703125,4.28125
1695388538924,-0.26416016,-0.9907837,0.047546387,6.796875,-0.84375,5.546875
1695388538968,-0.118652344,-0.85040283,0.011169434,1.453125,8.25,7.65625
1695388539011,-0.2668457,-0.96417236,0.093444824,-2.453125,-4.984375,-1.09375
1695388539043,-0.26245117,-1.0032349,0.06732178,-2.9375,-5.65625,-0.734375
1695388539087,-0.2487793,-1.0508423,0.06976318,2.140625,-3.953125,0.484375
1695388539131,-0.28295898,-1.0117798,0.051940918,3.484375,-7.78125,2.296875
1695388539162,-0.25708008,-1.0049438,0.02532959,4.28125,-0.5,3.015625
1695388539207,-0.17797852,-0.90826416,0.024353027,-0.046875,7.375,5.6875
1695388539251,-0.23803711,-0.9898071,0.059753418,-2.46875,-2.703125,-1.921875
1695388539282,-0.24633789,-1.0115356,0.016540527,-0.578125,-1.84375,0.859375
1695388539328,-0.24951172,-0.9795532,0.066833496,0.15625,-2.34375,-0.390625
1695388539371,-0.27661133,-0.9939575,0.038757324,3.75,-5.65625,0.71875
1695388539403,-0.2626953,-1.0003052,0.058288574,4.484375,-3.671875,2.140625
1695388539447,-0.25732422,-1.0115356,0.015319824,1.9375,1.234375,2.96875
1695388539492,-0.23950195,-0.94366455,0.023376465,-1.421875,5.375,2.0
1695388539522,-0.25195312,-0.96881104,-0.020568848,-1.796875,5.203125,1.0625
1695388539567,-0.21484375,-0.9685669,-0.010314941,-3.703125,7.578125,2.625
1695388539597,-0.20703125,-0.9920044,0.046813965,-4.171875,3.765625,-1.0625
1695388539643,-0.21899414,-1.003479,0.05316162,-2.078125,-1.34375,-1.8125
1695388539688,-0.2685547,-1.0037231,0.08831787,-0.03125,-3.640625,-3.375
1695388539717,-0.26220703,-0.9768677,0.08050537,-1.203125,0.03125,-0.25
1695388539763,-0.26660156,-0.9649048,0.028015137,-1.125,2.984375,-1.234375
1695388539810,-0.26831055,-0.94659424,0.01776123,-1.640625,5.40625,-1.734375
1695388539837,-0.234375,-0.97320557,0.022399902,-2.328125,5.296875,-1.546875
1695388539882,-0.24804688,-0.9793091,0.048034668,-3.78125,3.96875,-1.59375
1695388539927,-0.2536621,-0.99713135,0.081726074,-3.40625,3.59375,-1.234375
1695388539957,-0.24658203,-0.9883423,0.08660889,-0.953125,1.6875,-0.28125
1695388540003,-0.25268555,-0.9985962,0.093933105,-2.28125,1.078125,-1.25
1695388540049,-0.23388672,-0.97735596,0.055358887,-1.625,-0.203125,-2.90625
1695388540077,-0.23242188,-0.96832275,0.050964355,0.03125,-1.578125,-1.96875
1695388540123,-0.24145508,-0.9561157,0.05706787,-2.59375,-1.28125,-2.40625
1695388540167,-0.26733398,-0.95440674,0.035095215,-1.609375,-2.59375,-2.0625
1695388540197,-0.2602539,-0.9483032,0.057800293,-2.171875,-1.1875,-2.390625
1695388540242,-0.27856445,-0.9819946,0.08734131,-4.40625,1.171875,-2.390625
1695388540271,-0.3076172,-1.0151978,0.109558105,-4.140625,5.78125,-2.140625
1695388540317,-0.27954102,-1.0015259,0.14129639,-2.625,5.921875,-0.4375
1695388540363,-0.30615234,-0.9817505,0.13128662,-3.125,9.125,-0.796875
1695388540392,-0.2919922,-0.97857666,0.13006592,-3.328125,11.296875,-1.5
1695388540437,-0.3178711,-0.9751587,0.097839355,0.3125,10.859375,0.171875
1695388540482,-0.2709961,-0.97198486,0.061706543,0.046875,8.203125,1.125
1695388540512,-0.22045898,-0.9187622,0.026306152,0.140625,2.46875,-0.046875
1695388540557,-0.23925781,-0.92022705,0.02947998,5.0,-6.390625,1.671875
1695388540602,-0.25732422,-0.9692993,0.08270264,2.328125,-14.359375,1.953125
1695388540632,-0.2705078,-0.95391846,0.10638428,-4.265625,-11.34375,-0.03125
1695388540677,-0.29858398,-0.98150635,0.12762451,-3.4375,-3.734375,-2.34375
1695388540723,-0.3388672,-1.0142212,0.13250732,0.03125,-4.109375,-1.84375
1695388540752,-0.27514648,-0.9788208,0.08782959,2.1875,-0.328125,0.265625
1695388540797,-0.27490234,-0.9612427,0.019226074,-0.625,-0.765625,-2.0625
1695388540842,-0.24902344,-0.90582275,0.054382324,-1.0,-3.078125,-4.765625
1695388540871,-0.27416992,-0.9470825,0.06048584,-1.234375,-0.3125,-2.828125
1695388540917,-0.3071289,-1.0195923,0.08856201,-3.703125,2.140625,-2.890625
1695388540962,-0.34057617,-0.98565674,0.12640381,-5.09375,2.5,-1.90625
1695388540992,-0.38378906,-0.98101807,0.19085693,-1.6875,0.125,-0.421875
1695388541037,-0.3552246,-0.9944458,0.06976318,0.109375,1.796875,2.078125
1695388541067,-0.25854492,-0.96173096,0.09442139,-0.421875,6.03125,1.109375
1695388541112,-0.22973633,-0.9295044,0.029724121,-0.90625,7.25,0.796875
1695388541157,-0.21362305,-0.8911743,0.057800293,-2.828125,1.5,-1.0
1695388541187,-0.2775879,-0.94415283,0.086120605,-2.515625,-2.09375,-2.5
1695388541232,-0.32763672,-0.99884033,0.11566162,-1.53125,-1.40625,-2.21875
1695388541277,-0.32299805,-0.989563,0.12298584,0.9375,0.9375,-1.140625
1695388541307,-0.35229492,-0.97442627,0.11444092,2.109375,-1.59375,0.359375
1695388541352,-0.32641602,-0.97247314,0.11566162,0.3125,1.015625,2.171875
1695388541397,-0.31860352,-0.9644165,0.124938965,-0.765625,5.125,2.28125
1695388541427,-0.28466797,-0.9612427,0.09490967,-2.609375,7.90625,0.328125
1695388541472,-0.30737305,-0.9534302,0.10687256,-3.359375,5.84375,-1.859375
1695388541517,-0.33081055,-0.9680786,0.121276855,-2.328125,4.4375,0.171875
1695388541546,-0.33081055,-0.97052,0.113708496,-0.734375,2.1875,0.375
1695388541593,-0.3149414,-0.9468384,0.101989746,1.28125,2.0,2.578125
1695388541637,-0.27685547,-0.92633057,0.050231934,6.703125,-0.703125,5.546875
1695388541667,-0.27001953,-0.9168091,0.061462402,8.671875,-8.0,6.46875
1695388541712,-0.3125,-0.97491455,0.062438965,6.5625,-13.34375,4.296875
1695388541757,-0.29296875,-0.92755127,0.10662842,2.296875,-3.609375,2.765625
1695388541786,-0.29833984,-1.0286255,0.09320068,2.5,1.15625,1.53125
1695388541831,-0.28320312,-0.98394775,0.08465576,0.171875,-1.328125,-0.078125
1695388541862,-0.2902832,-0.9495239,0.04534912,-1.375,0.125,-0.109375
1695388541907,-0.26782227,-0.95318604,0.05633545,-0.53125,3.8125,-1.625
1695388541951,-0.24731445,-0.92633057,0.05731201,-0.15625,1.484375,-1.171875
1695388542027,-0.28979492,-0.9776001,0.078552246,0.421875,-1.515625,-0.8125
1695388542029,-0.33764648,-1.019104,0.13128662,3.1875,0.09375,0.71875
1695388542071,-0.33520508,-1.019104,0.04925537,2.5,3.34375,2.15625
1695388542102,-0.26171875,-0.92315674,0.05657959,4.03125,4.609375,3.609375
1695388542146,-0.24414062,-0.9483032,0.042907715,0.21875,0.984375,-1.328125
1695388542191,-0.26049805,-0.9812622,0.02557373,-0.703125,0.453125,-1.875
1695388542222,-0.2915039,-0.97857666,-0.019836426,-0.015625,1.453125,-0.34375
1695388542267,-0.27539062,-0.9182739,0.038024902,1.375,-1.390625,0.9375
1695388542312,-0.31567383,-1.0088501,0.11444092,2.40625,-1.921875,0.0
1695388542343,-0.34570312,-1.0234985,0.116882324,0.890625,-0.21875,0.109375
1695388542387,-0.33520508,-0.99884033,0.06488037,0.828125,-0.5,0.765625
1695388542462,-0.23364258,-0.9463501,0.007507324,1.671875,3.546875,1.328125
1695388542476,-0.26538086,-0.9468384,-0.070617676,-3.109375,10.171875,-0.640625
1695388542507,-0.24682617,-0.9434204,0.059265137,-5.59375,7.953125,1.0
1695388542537,-0.31445312,-1.0115356,0.09515381,-2.15625,0.125,-2.171875
1695388542582,-0.32666016,-1.0505981,0.109313965,2.53125,0.5625,1.5625
1695388542627,-0.3203125,-0.9595337,0.057800293,1.390625,3.859375,1.375
1695388542657,-0.25170898,-0.9143677,0.02557373,0.09375,4.46875,0.625
1695388542702,-0.2409668,-0.95880127,-0.00079345703,0.328125,1.15625,-1.78125
1695388542747,-0.25341797,-1.00177,0.011657715,-0.46875,-1.875,-1.765625
1695388542777,-0.26733398,-0.9741821,0.03289795,-2.703125,-3.375,-1.546875
1695388542821,-0.2980957,-0.95977783,0.062927246,-0.9375,-3.03125,-1.0
1695388542867,-0.35424805,-0.99468994,0.0927124,3.75,-0.171875,1.578125
1695388542896,-0.3322754,-1.031311,0.06829834,2.84375,0.34375,2.84375
1695388542942,-0.27612305,-0.9480591,0.020935059,0.453125,5.078125,3.921875
1695388542987,-0.27856445,-0.9368286,0.047058105,2.359375,3.921875,3.3125
1695388543017,-0.29223633,-0.9290161,0.038757324,0.296875,3.9375,1.171875
1695388543062,-0.29101562,-0.9834595,0.022644043,-2.0625,3.171875,-0.59375
1695388543107,-0.29052734,-0.9866333,0.046325684,-2.25,3.859375,-1.875
1695388543137,-0.27685547,-0.9717407,0.062927246,-4.671875,4.046875,-1.140625
1695388543182,-0.3046875,-0.9746704,0.09100342,-6.546875,2.46875,-0.3125
1695388543227,-0.31713867,-1.0108032,0.09320068,-7.75,8.859375,0.34375
1695388543257,-0.27319336,-0.94659424,0.047302246,-6.359375,14.0625,-1.453125
1695388543302,-0.3083496,-0.99957275,0.070007324,-1.640625,6.75,-1.984375
1695388543333,-0.24414062,-0.9500122,0.047790527,3.046875,-2.265625,1.921875
1695388543376,-0.26489258,-0.92559814,-0.026672363,7.65625,-7.75,4.90625
1695388543422,-0.2861328,-0.9741821,0.09515381,2.53125,-11.015625,5.890625
1695388543452,-0.2253418,-0.9614868,0.038513184,-5.28125,-5.203125,-0.0625
1695388543496,-0.28295898,-0.9421997,0.08392334,-4.125,-8.46875,-3.609375
1695388543542,-0.33911133,-0.960022,0.07366943,1.421875,-3.78125,-1.484375
1695388543571,-0.3269043,-1.0227661,0.09832764,6.40625,1.15625,0.859375
1695388543617,-0.33251953,-1.0093384,0.043395996,4.90625,-0.828125,2.5625
1695388543662,-0.23950195,-0.9385376,0.043884277,1.71875,6.28125,1.90625
1695388543693,-0.22973633,-0.92755127,-0.017150879,-2.3125,0.609375,0.78125
1695388543737,-0.26342773,-0.93878174,0.04095459,-2.96875,-0.734375,-1.984375
1695388543782,-0.3227539,-1.029602,0.07733154,-0.21875,-1.59375,-2.09375
1695388543811,-0.31835938,-1.0056763,0.07879639,0.046875,-2.703125,0.453125
1695388543857,-0.2993164,-0.9380493,0.055847168,0.484375,0.125,1.46875
1695388543902,-0.26904297,-0.9446411,0.015563965,-1.296875,3.078125,1.390625
1695388543932,-0.2397461,-0.9795532,0.04534912,-2.9375,1.1875,-1.375
1695388543977,-0.2841797,-0.97784424,0.029968262,-0.34375,-1.328125,-0.921875
1695388544009,-0.32788086,-0.9873657,0.070739746,0.578125,-2.265625,-2.375
1695388544054,-0.33447266,-0.99346924,0.04510498,2.5,-1.859375,-0.5
1695388544097,-0.2841797,-0.93829346,0.062927246,0.578125,3.390625,1.0625
1695388544128,-0.23266602,-0.9614868,0.023376465,-2.21875,2.015625,-0.203125
1695388544172,-0.24243164,-0.95880127,0.022399902,-1.78125,-0.84375,-0.484375
1695388544216,-0.2841797,-0.97735596,0.02508545,-2.8125,-2.375,-1.890625
1695388544247,-0.27026367,-0.9578247,0.028015137,-4.90625,-1.8125,-2.1875
1695388544292,-0.28393555,-0.9524536,0.101501465,-2.03125,2.6875,-0.859375
1695388544336,-0.36450195,-0.9854126,0.1329956,0.859375,2.109375,0.96875
1695388544368,-0.36035156,-1.024231,0.12664795,-1.171875,6.0625,1.4375
1695388544414,-0.32763672,-1.0066528,0.05657959,-2.078125,9.421875,1.640625
1695388544457,-0.27392578,-0.944397,0.028015137,-0.859375,5.890625,1.328125
1695388544487,-0.25561523,-0.9343872,-0.003479004,3.15625,0.078125,2.046875
1695388544532,-0.2553711,-0.93829346,-0.0049438477,9.203125,-7.015625,4.546875
1695388544576,-0.24926758,-0.9651489,0.039489746,3.0625,-8.296875,4.140625
1695388544607,-0.24975586,-0.98565674,0.04486084,-2.90625,-4.796875,-0.5625
1695388544652,-0.25756836,-0.95635986,0.026306152,-4.59375,-2.03125,-2.84375
1695388544697,-0.32104492,-0.98565674,0.059509277,-1.96875,-1.546875,-3.296875
1695388544729,-0.2944336,-0.9968872,0.039489746,-2.65625,1.328125,-1.578125
1695388544773,-0.32104492,-0.96710205,0.07196045,-3.765625,4.734375,0.96875
1695388544802,-0.30249023,-0.97784424,0.039245605,0.734375,5.546875,4.09375
1695388544848,-0.2854004,-0.972229,0.081970215,0.09375,3.75,1.453125
1695388544892,-0.28759766,-0.9819946,0.054626465,-0.921875,5.6875,2.28125
1695388544922,-0.2783203,-0.9981079,0.046081543,0.21875,7.84375,1.90625
1695388544967,-0.26513672,-0.9595337,0.03656006,3.625,2.1875,3.078125
1695388545012,-0.2866211,-0.92633057,0.055114746,4.953125,0.859375,3.984375
1695388545042,-0.25024414,-0.9619751,-0.0115356445,4.546875,5.625,5.78125
1695388545088,-0.28515625,-1.0574341,0.08270264,3.421875,1.328125,4.203125
1695388545133,-0.27978516,-0.98760986,0.0848999,-1.421875,3.921875,3.890625
1695388545162,-0.23779297,-0.93536377,0.0067749023,-2.953125,5.390625,4.125
1695388545208,-0.20727539,-0.9260864,-0.021057129,-2.53125,5.578125,1.296875
1695388545253,-0.23364258,-0.95196533,0.022155762,1.65625,1.6875,1.34375
1695388545281,-0.24023438,-0.9939575,0.050720215,4.1875,0.265625,0.75
1695388545327,-0.28271484,-1.0476685,0.06756592,1.90625,1.78125,2.515625
1695388545372,-0.27246094,-1.0007935,0.10296631,0.90625,5.21875,4.25
1695388545402,-0.2626953,-0.956604,0.06903076,-3.078125,6.328125,0.984375
1695388545448,-0.24584961,-1.0169067,-0.018859863,-0.328125,6.734375,-0.46875
1695388545492,-0.16992188,-0.95318604,-0.044006348,0.90625,2.75,0.609375
1695388545522,-0.22436523,-1.008606,0.010925293,6.21875,-6.171875,3.296875
1695388545568,-0.23828125,-0.9727173,-0.0056762695,5.46875,-13.9375,3.703125
1695388545596,-0.24316406,-0.98101807,0.031921387,-0.140625,-9.421875,3.8125
1695388545642,-0.22680664,-0.96417236,0.0446167,-3.96875,-3.53125,-1.1875
1695388545688,-0.25317383,-0.9915161,0.030212402,-2.078125,-2.109375,-2.078125
1695388545716,-0.20385742,-0.99713135,0.0060424805,-0.625,2.71875,-1.03125
1695388545762,-0.20629883,-0.9480591,-0.009338379,-0.28125,2.65625,-1.640625
1695388545808,-0.24487305,-0.9631958,0.03265381,-0.234375,-3.375,-1.375
1695388545837,-0.2109375,-0.98687744,-0.009094238,-3.28125,-4.765625,-2.0
1695388545882,-0.24731445,-1.0623169,0.03265381,-8.15625,-10.859375,-0.234375
1695388545927,-0.25976562,-1.1712036,0.1317749,1.8125,-7.609375,6.234375
1695388545957,-0.15893555,-0.77349854,0.0033569336,-12.609375,0.078125,2.34375
1695388546002,-0.24365234,-0.87872314,0.05218506,-4.609375,0.453125,-4.9375
1695388546048,-0.3125,-0.96832275,0.058288574,8.09375,-0.125,-3.265625
1695388546077,-0.26171875,-0.99835205,-0.012268066,-3.46875,3.71875,-5.171875
1695388546122,-0.20117188,-0.97613525,0.026306152,-10.625,8.859375,-2.671875
1695388546197,-0.24511719,-1.0044556,0.0680542,-5.890625,4.828125,1.6875
1695388546212,-0.26464844,-0.9968872,0.10272217,-3.359375,4.640625,3.0625
1695388546242,-0.30517578,-0.99053955,0.11444092,-0.671875,6.8125,1.1875
1695388546273,-0.25170898,-0.98760986,0.04925537,-2.796875,10.640625,-1.5
1695388546316,-0.22265625,-0.9714966,0.045837402,-1.703125,10.328125,-2.234375
1695388546362,-0.22558594,-0.94732666,0.034606934,2.4375,3.9375,-0.890625
1695388546393,-0.20385742,-0.95806885,0.014587402,7.859375,-5.421875,1.53125
1695388546436,-0.25317383,-0.95635986,0.07220459,5.1875,-8.28125,3.15625
1695388546482,-0.24829102,-0.99713135,-0.003479004,-2.703125,-9.625,0.234375
1695388546512,-0.27685547,-1.034729,0.11956787,-4.828125,-6.4375,0.09375
1695388546557,-0.25683594,-0.97857666,0.07928467,-4.9375,-1.5625,1.4375
1695388546602,-0.23779297,-0.95098877,0.05731201,-1.21875,-2.296875,0.0625
1695388546631,-0.3244629,-0.96881104,0.0368042,6.4375,-3.046875,1.1875
1695388546676,-0.21777344,-0.9663696,0.06829834,5.546875,0.21875,-2.078125
1695388546721,-0.25097656,-0.9468384,0.06097412,1.625,1.984375,-2.359375
1695388546752,-0.22998047,-1.0029907,0.030700684,1.0,2.203125,0.625
1695388546796,-0.25634766,-1.0130005,0.04852295,3.40625,-0.5,1.71875
1695388546842,-0.25878906,-0.9505005,0.048034668,1.734375,0.671875,0.53125
1695388546872,-0.25756836,-0.9714966,0.043395996,-2.234375,1.40625,-2.53125
1695388546916,-0.24829102,-0.9949341,0.046813965,-0.671875,0.4375,-0.96875
1695388546961,-0.28027344,-0.9819946,0.047790527,2.28125,-1.296875,1.3125
1695388546992,-0.28149414,-1.0256958,-0.032287598,2.53125,2.75,1.09375
1695388547037,-0.25341797,-0.96295166,0.038269043,-2.03125,5.125,-0.109375
1695388547066,-0.2541504,-0.97442627,0.059265137,-4.453125,5.890625,-0.21875
1695388547111,-0.21557617,-0.94976807,0.0028686523,-5.140625,3.75,-2.0
1695388547156,-0.22729492,-0.9780884,0.024353027,-4.890625,3.015625,-2.3125
1695388547202,-0.2524414,-0.9649048,0.055847168,-0.546875,-1.703125,-1.453125
1695388547232,-0.30664062,-0.98687744,0.061462402,4.28125,-0.984375,2.65625
1695388547276,-0.32006836,-1.0200806,0.047546387,4.765625,-0.390625,3.09375
1695388547307,-0.23120117,-0.93536377,0.06439209,1.09375,6.609375,4.5625
1695388547352,-0.21289062,-0.9492798,-0.0044555664,-2.640625,4.09375,-0.015625
1695388547397,-0.22924805,-1.0061646,0.015319824,-2.625,-0.53125,-0.734375
1695388547427,-0.18969727,-0.99420166,0.018493652,-4.609375,3.15625,1.796875
1695388547472,-0.2614746,-0.9558716,0.07244873,-0.8125,-0.28125,2.125
1695388547517,-0.32226562,-0.98150635,0.07513428,2.859375,-1.5,4.078125
1695388547548,-0.27148438,-1.0154419,0.06536865,1.71875,1.984375,4.203125
1695388547591,-0.24584961,-0.97613525,-0.007873535,-3.734375,2.84375,1.234375
1695388547637,-0.15039062,-0.9102173,0.018005371,-0.9375,-2.890625,-3.4375
1695388547666,-0.37280273,-1.0459595,0.030456543,6.171875,1.296875,2.6875
1695388547712,-0.22436523,-0.9710083,0.042175293,0.03125,3.34375,-0.0625
1695388547742,-0.2121582,-0.9656372,0.024841309,5.21875,0.390625,0.90625
1695388547787,-0.24194336,-1.0115356,0.009216309,7.21875,-1.40625,1.984375
1695388547832,-0.21044922,-1.0344849,0.047302246,7.390625,-2.65625,5.046875
1695388547862,-0.26391602,-1.0401001,0.07635498,-7.65625,5.59375,3.65625
1695388547907,-0.2800293,-0.98565674,0.043884277,-11.078125,11.078125,0.765625
1695388547951,-0.18945312,-0.9529419,-0.046447754,-6.859375,8.5625,-1.4375
1695388547981,-0.19140625,-0.89141846,-0.023986816,2.671875,-6.421875,-0.6875
1695388548026,-0.20581055,-1.0037231,0.018493652,7.015625,-9.734375,4.171875
1695388548071,-0.24926758,-0.9780884,-0.0037231445,2.734375,-8.53125,1.0625
1695388548101,-0.2841797,-0.95513916,0.031677246,3.46875,-1.5,-2.828125
1695388548147,-0.21728516,-1.0484009,0.0040893555,-3.3125,-0.125,-4.609375
1695388548192,-0.2397461,-1.0845337,0.019958496,-1.25,8.171875,-2.6875
1695388548221,-0.20263672,-0.9800415,-0.03765869,-3.5,3.5,-1.671875
1695388548266,-0.095703125,-0.8670044,-0.027404785,-0.796875,-4.421875,0.015625
1695388548312,-0.30273438,-1.0449829,0.020690918,-4.625,-10.21875,-1.734375
1695388548341,-0.31298828,-0.9651489,0.046569824,-5.265625,-6.640625,0.859375
1695388548386,-0.2841797,-0.90338135,0.09881592,-2.640625,-5.0625,0.828125
1695388548431,-0.28564453,-1.0401001,0.07244873,-0.84375,2.21875,-0.546875
1695388548462,-0.2578125,-0.97198486,0.066345215,-1.703125,6.15625,0.65625
1695388548507,-0.22460938,-1.0286255,0.016784668,3.3125,8.453125,7.015625
1695388548536,-0.19873047,-0.88653564,0.008972168,0.78125,7.03125,1.09375
1695388548581,-0.21533203,-1.0195923,-0.0413208,0.140625,7.234375,-1.203125
1695388548627,-0.24682617,-0.9871216,0.0758667,-1.15625,7.78125,-0.640625
1695388548657,-0.22729492,-1.0320435,0.0021362305,-6.875,9.234375,-1.6875
1695388548701,-0.25439453,-0.9043579,0.09075928,-5.25,5.40625,-3.609375
1695388548746,-0.29345703,-1.0427856,0.029968262,0.0625,8.953125,-3.015625
1695388548778,-0.14672852,-0.95147705,-0.0037231445,0.28125,5.078125,-1.953125
1695388548822,-0.1665039,-1.0108032,-0.13336182,-3.40625,-5.203125,-2.234375
1695388548867,-0.22241211,-0.9685669,0.01727295,4.109375,-13.109375,-0.390625
1695388548896,-0.32885742,-0.9920044,0.047058105,-3.15625,-11.046875,1.8125
1695388548941,-0.30810547,-0.8936157,0.06707764,-2.71875,-7.6875,-2.09375
1695388548986,-0.31396484,-1.017395,0.098083496,0.234375,-1.375,-2.046875
1695388549018,-0.2841797,-1.0042114,0.08660889,3.765625,5.390625,-0.6875
1695388549061,-0.35961914,-0.9788208,0.046813965,13.0625,7.4375,2.671875
1695388549106,-0.24438477,-0.9524536,0.04827881,7.59375,12.65625,4.171875
1695388549137,-0.19897461,-0.9915161,-0.0178833,4.015625,11.90625,1.609375
1695388549182,-0.18408203,-0.96466064,0.0033569336,-1.078125,8.421875,-2.28125
1695388549227,-0.22192383,-1.0125122,-0.046936035,-3.203125,8.953125,-1.90625
1695388549257,-0.28515625,-0.9690552,0.07318115,-0.5,4.40625,-4.625
1695388549301,-0.16723633,-0.9873657,-0.13018799,0.65625,1.203125,-2.484375
1695388549332,-0.29223633,-0.95928955,0.028747559,4.375,-3.640625,0.453125
1695388549377,-0.29833984,-1.0029907,-0.05670166,4.390625,-2.703125,3.359375
1695388549421,-0.29248047,-0.94781494,-0.11383057,4.265625,1.859375,7.1875
1695388549454,-0.17797852,-0.98931885,-0.0012817383,-4.078125,2.671875,-1.8125
1695388549498,-0.24194336,-0.9805298,-0.022521973,-5.0625,-4.015625,-0.296875
1695388549542,-0.29492188,-0.9800415,-0.0178833,-0.53125,-3.625,-1.9375
1695388549572,-0.28930664,-1.015686,0.022155762,3.171875,-1.84375,0.71875
1695388549617,-0.18725586,-0.91119385,-0.042785645,1.09375,-1.046875,1.65625
1695388549661,-0.22924805,-1.003479,-0.019348145,-1.234375,-2.34375,0.75
1695388549692,-0.22363281,-0.9680786,-0.023742676,-4.765625,-1.921875,-0.84375
1695388549736,-0.27026367,-0.9890747,0.02532959,-2.953125,-1.765625,-0.78125
1695388549781,-0.27929688,-1.0005493,0.012145996,1.765625,-8.015625,-0.9375
1695388549814,-0.28100586,-1.050354,-0.003479004,0.78125,-5.28125,1.84375
1695388549857,-0.21435547,-0.8508911,-0.07745361,1.171875,-3.5625,3.734375
1695388549932,-0.22631836,-1.0098267,-0.0049438477,-0.109375,1.234375,1.8125
1695388549947,-0.22802734,-1.0166626,-0.018615723,-7.984375,-0.21875,-1.4375
1695388549977,-0.29223633,-0.9541626,0.027526855,-2.671875,-0.625,-0.328125
1695388550008,-0.27416992,-0.99713135,0.029968262,0.671875,-1.28125,1.609375
1695388550052,-0.2800293,-1.0066528,0.015075684,-0.4375,-0.5,0.859375
1695388550096,-0.22094727,-0.94122314,-0.0051879883,0.390625,-0.21875,0.734375
1695388550127,-0.23217773,-0.96588135,-0.031799316,-0.96875,1.03125,-0.359375
1695388550173,-0.2397461,-0.97003174,-0.031066895,-2.5,1.109375,-0.984375
1695388550218,-0.23095703,-0.9631958,-0.0115356445,-2.59375,1.484375,-1.734375
1695388550246,-0.29345703,-0.9990845,0.039245605,-0.453125,0.984375,-2.34375
1695388550292,-0.20727539,-0.9439087,-0.023742676,-1.859375,1.421875,2.03125
1695388550337,-0.31835938,-0.94781494,0.031921387,5.265625,-1.734375,3.140625
1695388550367,-0.2927246,-1.0640259,0.06317139,4.828125,2.703125,0.203125
1695388550412,-0.2512207,-0.99957275,-0.027648926,-1.6875,2.921875,0.34375
1695388550456,-0.2241211,-0.90338135,-0.05255127,-1.09375,1.296875,-0.734375
1695388550487,-0.24536133,-0.98223877,-0.034729004,-0.734375,1.5625,-1.578125
1695388550533,-0.21850586,-0.9495239,-0.033996582,-2.046875,-0.28125,0.515625
1695388550578,-0.3046875,-1.008606,0.04437256,0.90625,0.40625,1.6875
1695388550607,-0.2993164,-1.0305786,0.04046631,1.921875,1.0625,1.328125
1695388550653,-0.25708008,-0.9866333,0.001159668,0.625,0.109375,1.421875
1695388550697,-0.23364258,-0.923645,-0.032043457,1.6875,1.6875,0.3125
1695388550727,-0.23486328,-0.97076416,-0.04815674,0.1875,1.03125,-0.0625
1695388550772,-0.24560547,-0.98394775,-0.04058838,-1.03125,2.125,-0.546875
1695388550801,-0.23168945,-0.9385376,-0.0020141602,-0.515625,3.71875,2.140625
1695388550847,-0.27294922,-1.0120239,0.024597168,2.4375,1.4375,2.078125
1695388550893,-0.2685547,-1.0454712,0.0067749023,2.09375,0.9375,2.03125
1695388550922,-0.25756836,-0.97125244,-0.018127441,0.5625,2.21875,1.265625
1695388550967,-0.2084961,-0.92266846,-0.054260254,0.1875,1.109375,0.546875
1695388551012,-0.21801758,-0.9795532,-0.038391113,-0.34375,-0.046875,0.015625
1695388551041,-0.21679688,-0.9758911,-0.03277588,-2.15625,-1.859375,0.609375
1695388551086,-0.2121582,-0.93585205,-0.02130127,0.203125,-2.171875,2.265625
1695388551132,-0.28295898,-1.0408325,0.014831543,2.0625,-2.140625,2.078125
1695388551161,-0.30810547,-1.0164185,-0.0012817383,-0.703125,1.625,3.015625
1695388551206,-0.2421875,-0.944397,-0.034240723,-0.875,0.59375,2.8125
