timestamp,accel_x,accel_y,accel_z,gyro_x,gyro_y,gyro_z
1695390494681,-0.5305176,-0.8513794,0.18255615,-1.875,2.796875,-0.203125
1695390494734,-0.54345703,-0.8648071,0.20379639,-0.1875,1.015625,-0.234375
1695390494774,-0.5358887,-0.85479736,0.19598389,-0.875,0.890625,-0.5
1695390494801,-0.5354004,-0.8496704,0.19281006,-1.6875,2.171875,-0.390625
1695390494846,-0.54711914,-0.8467407,0.19012451,-1.671875,1.578125,0.3125
1695390494892,-0.53222656,-0.8584595,0.1984253,-1.453125,1.59375,-0.5
1695390494920,-0.54663086,-0.8452759,0.20428467,-0.53125,0.8125,-0.75
1695390494966,-0.53637695,-0.850647,0.2033081,-1.03125,0.671875,-0.90625
1695390495011,-0.5222168,-0.8369751,0.19158936,-1.421875,0.703125,-0.6875
1695390495041,-0.53808594,-0.8401489,0.20452881,-0.703125,0.4375,0.015625
1695390495086,-0.5419922,-0.8587036,0.1984253,0.4375,-1.0,0.015625
1695390495133,-0.5522461,-0.87286377,0.1984253,0.140625,-1.359375,-0.59375
1695390495161,-0.5292969,-0.8452759,0.19329834,-1.65625,1.234375,-0.78125
1695390495206,-0.529541,-0.8587036,0.18182373,-2.53125,1.421875,-0.90625
1695390495236,-0.5332031,-0.8201294,0.17938232,-1.5,1.03125,-1.171875
1695390495281,-0.5527344,-0.85650635,0.22039795,0.90625,-1.296875,-1.0625
1695390495326,-0.5300293,-0.8357544,0.20159912,-0.28125,0.046875,-1.078125
1695390495358,-0.5563965,-0.84820557,0.20526123,-0.5625,1.109375,-0.53125
1695390495401,-0.5439453,-0.8320923,0.2033081,0.0625,0.46875,-0.46875
1695390495446,-0.56518555,-0.83135986,0.19744873,-0.4375,0.859375,-0.03125
1695390495477,-0.55859375,-0.83966064,0.18353271,0.8125,-0.6875,0.265625
1695390495521,-0.54956055,-0.8591919,0.19525146,1.203125,-0.359375,-0.25
1695390495566,-0.545166,-0.8428345,0.18499756,0.015625,-0.3125,-0.765625
1695390495595,-0.5661621,-0.8464966,0.19793701,-0.921875,0.671875,-1.265625
1695390495641,-0.5488281,-0.8496704,0.1876831,-0.734375,1.34375,-1.03125
1695390495686,-0.57055664,-0.8491821,0.1954956,0.0,-0.1875,0.15625
1695390495716,-0.5566406,-0.84552,0.2074585,0.0625,0.25,0.5
1695390495761,-0.55737305,-0.8208618,0.1539917,-1.515625,3.015625,1.015625
1695390495806,-0.5683594,-0.84576416,0.19403076,-0.375,1.65625,1.4375
1695390495837,-0.5588379,-0.8484497,0.1749878,-0.421875,0.546875,0.796875
1695390495880,-0.5332031,-0.829895,0.1918335,-0.515625,1.3125,0.5
1695390495911,-0.5637207,-0.85772705,0.19525146,-0.34375,0.328125,0.671875
1695390495958,-0.54125977,-0.8616333,0.18426514,-0.078125,-0.390625,0.15625
1695390496001,-0.5480957,-0.8518677,0.19158936,-0.890625,1.15625,0.40625
1695390496031,-0.54956055,-0.8435669,0.18719482,0.359375,-0.203125,0.59375
1695390496076,-0.55078125,-0.84625244,0.20013428,0.078125,1.0625,0.703125
1695390496121,-0.5551758,-0.84942627,0.19769287,-0.484375,0.71875,1.015625
1695390496151,-0.55737305,-0.8335571,0.18255615,-1.0,0.953125,0.125
1695390496197,-0.5644531,-0.84332275,0.1876831,-0.046875,0.078125,0.28125
1695390496241,-0.55908203,-0.83380127,0.18572998,-0.421875,0.796875,0.1875
1695390496271,-0.56225586,-0.8513794,0.17791748,-0.25,0.71875,1.234375
1695390496318,-0.55322266,-0.8418579,0.18182373,-0.921875,2.546875,1.3125
1695390496361,-0.546875,-0.8423462,0.19232178,-0.03125,1.265625,0.59375
1695390496392,-0.5444336,-0.8389282,0.19158936,-0.53125,0.984375,0.765625
1695390496437,-0.5463867,-0.8591919,0.18548584,-0.15625,0.453125,0.46875
1695390496481,-0.5488281,-0.85284424,0.19134521,-0.6875,0.84375,0.625
1695390496511,-0.54418945,-0.8460083,0.19158936,-0.609375,0.984375,0.609375
1695390496557,-0.55322266,-0.85357666,0.2020874,-0.703125,0.96875,0.90625
1695390496601,-0.5534668,-0.848938,0.18304443,-0.46875,0.9375,0.5
1695390496632,-0.53686523,-0.84576416,0.19378662,-0.390625,1.140625,0.828125
1695390496678,-0.5427246,-0.84942627,0.19085693,-0.6875,0.96875,0.28125
1695390496706,-0.54248047,-0.8401489,0.20184326,-0.125,0.53125,0.484375
1695390496751,-0.5480957,-0.8513794,0.17523193,-0.015625,0.5,0.515625
1695390496796,-0.53808594,-0.85406494,0.20550537,0.390625,-0.28125,0.484375
1695390496826,-0.54248047,-0.8484497,0.17010498,-0.734375,1.078125,0.296875
1695390496871,-0.5422363,-0.8477173,0.2020874,-0.78125,1.078125,0.390625
1695390496916,-0.5395508,-0.8447876,0.18841553,0.109375,-0.15625,0.3125
1695390496946,-0.5385742,-0.84698486,0.19866943,0.0625,-0.515625,0.640625
1695390496993,-0.56347656,-0.8689575,0.1852417,0.0,0.0625,0.65625
1695390497037,-0.54125977,-0.85528564,0.18231201,-0.046875,-0.140625,0.546875
1695390497066,-0.5432129,-0.84698486,0.18255615,-0.6875,0.5,0.46875
1695390497112,-0.53759766,-0.84332275,0.18133545,-0.203125,0.5625,0.0625
1695390497156,-0.545166,-0.8533325,0.17889404,-0.34375,0.0,0.203125
1695390497186,-0.5305176,-0.8428345,0.18499756,-0.0625,0.109375,0.171875
1695390497231,-0.5493164,-0.83673096,0.17425537,0.125,0.28125,0.03125
1695390497276,-0.5505371,-0.8569946,0.17547607,0.78125,-1.328125,0.265625
1695390497306,-0.5517578,-0.8464966,0.21014404,0.421875,-0.59375,0.140625
1695390497352,-0.55371094,-0.8633423,0.16278076,-1.828125,1.28125,0.71875
1695390497381,-0.55566406,-0.8274536,0.17669678,-1.265625,1.5625,1.390625
1695390497431,-0.54785156,-0.87750244,0.18426514,1.5625,-1.765625,0.34375
1695390497472,-0.5373535,-0.83966064,0.17376709,-0.609375,0.90625,0.03125
1695390497501,-0.52075195,-0.8406372,0.17059326,-1.84375,1.375,-0.25
1695390497546,-0.5385742,-0.85162354,0.16033936,-1.640625,0.84375,-0.28125
1695390497591,-0.5480957,-0.8562622,0.18353271,-1.53125,0.953125,0.515625
1695390497621,-0.5673828,-0.8286743,0.19866943,1.5,-0.984375,1.234375
1695390497666,-0.5390625,-0.8621216,0.19207764,0.734375,-0.03125,0.5
1695390497712,-0.5410156,-0.86016846,0.17816162,-1.296875,1.28125,0.421875
1695390497741,-0.5114746,-0.8279419,0.18719482,-0.078125,1.765625,-0.5625
1695390497786,-0.579834,-0.84869385,0.1852417,0.953125,0.375,0.59375
1695390497832,-0.55981445,-0.8635864,0.14007568,3.40625,-1.796875,1.0
1695390497861,-0.54833984,-0.8748169,0.19110107,2.75,1.125,2.1875
1695390497906,-0.53271484,-0.8399048,0.14910889,-0.84375,4.0,0.828125
1695390497951,-0.52612305,-0.84454346,0.1630249,2.5,-1.671875,-0.15625
1695390497981,-0.53100586,-0.86016846,0.17474365,0.5625,1.0,-0.546875
1695390498026,-0.5588379,-0.85479736,0.15740967,2.5,-0.546875,-1.5625
1695390498072,-0.55615234,-0.8428345,0.17425537,-0.765625,3.71875,-2.109375
1695390498101,-0.58251953,-0.8567505,0.1593628,0.453125,1.375,-1.671875
1695390498146,-0.55688477,-0.8550415,0.18719482,1.75,0.328125,-2.0
1695390498176,-0.5505371,-0.85601807,0.17547607,1.609375,-0.953125,-0.5625
1695390498222,-0.55444336,-0.8530884,0.15106201,-1.265625,1.171875,-0.625
1695390498266,-0.5673828,-0.8452759,0.14471436,0.671875,-0.859375,-0.109375
1695390498341,-0.5371094,-0.8569946,0.1251831,-0.828125,-0.875,-0.25
1695390498344,-0.546875,-0.8311157,0.15350342,-1.0625,-1.109375,0.734375
1695390498386,-0.54003906,-0.84991455,0.14910889,-0.09375,-3.03125,0.640625
1695390498416,-0.5744629,-0.8413696,0.11859131,-0.640625,-2.0625,0.5
1695390498461,-0.56591797,-0.8377075,0.15130615,-1.625,-0.109375,0.84375
1695390498506,-0.57421875,-0.8521118,0.15740967,-0.78125,-1.875,1.03125
1695390498536,-0.55566406,-0.8599243,0.14886475,-2.09375,0.171875,0.28125
1695390498581,-0.55249023,-0.85113525,0.15960693,-2.140625,1.734375,-0.171875
1695390498626,-0.54589844,-0.8587036,0.13275146,-4.140625,3.0625,-0.09375
1695390498656,-0.5612793,-0.84552,0.1564331,-1.6875,1.8125,-0.328125
1695390498701,-0.56640625,-0.835022,0.1774292,1.90625,0.15625,0.53125
1695390498776,-0.58154297,-0.83843994,0.16571045,1.625,0.03125,0.46875
1695390498793,-0.5961914,-0.83135986,0.15106201,0.515625,1.234375,0.765625
1695390498821,-0.5822754,-0.84381104,0.14422607,0.40625,1.96875,0.015625
1695390498851,-0.5661621,-0.8670044,0.14300537,1.25,1.265625,-0.109375
1695390498897,-0.55126953,-0.8699341,0.13372803,1.4375,1.953125,0.234375
1695390498941,-0.54541016,-0.84503174,0.09442139,1.296875,5.328125,1.1875
1695390498971,-0.5395508,-0.85040283,0.11785889,1.8125,7.828125,1.984375
1695390499016,-0.53466797,-0.8665161,0.13201904,3.765625,4.109375,1.109375
1695390499061,-0.52685547,-0.87457275,0.15545654,3.765625,4.109375,0.78125
1695390499091,-0.52734375,-0.85894775,0.14959717,1.921875,4.53125,1.78125
1695390499136,-0.52368164,-0.86676025,0.14251709,1.21875,4.890625,1.78125
1695390499181,-0.53125,-0.8567505,0.13153076,0.359375,4.390625,1.25
1695390499211,-0.5202637,-0.87213135,0.13690186,0.71875,4.953125,0.9375
1695390499257,-0.50878906,-0.87213135,0.1281128,1.171875,5.0,1.640625
1695390499301,-0.49365234,-0.8765259,0.124694824,2.6875,4.796875,2.609375
1695390499331,-0.51293945,-0.8701782,0.1305542,2.265625,5.75,2.859375
1695390499377,-0.5070801,-0.86676025,0.1227417,1.59375,6.390625,1.796875
1695390499421,-0.5222168,-0.8740845,0.14007568,1.03125,5.046875,0.203125
1695390499451,-0.50512695,-0.8779907,0.101989746,0.359375,5.609375,-0.515625
1695390499496,-0.4658203,-0.8779907,0.116882324,-0.40625,9.71875,-0.21875
1695390499541,-0.4868164,-0.89923096,0.17791748,-0.46875,6.703125,0.515625
1695390499571,-0.5371094,-0.8518677,0.17010498,-2.09375,7.5625,0.15625
1695390499616,-0.5307617,-0.8526001,0.13348389,-1.40625,9.609375,-0.59375
1695390499646,-0.48706055,-0.86431885,0.20355225,0.015625,10.1875,-2.0
1695390499691,-0.52001953,-0.8711548,0.19793701,-0.46875,9.90625,-0.875
1695390499739,-0.5251465,-0.8633423,0.2098999,-0.671875,10.765625,-2.15625
1695390499766,-0.51220703,-0.8574829,0.21502686,0.59375,7.359375,-2.25
1695390499810,-0.54467773,-0.84576416,0.21258545,0.625,6.484375,-2.59375
1695390499856,-0.5390625,-0.8279419,0.21966553,0.59375,6.65625,-3.546875
1695390499886,-0.55371094,-0.82476807,0.22332764,0.15625,5.78125,-2.453125
1695390499931,-0.5449219,-0.82940674,0.2255249,0.0625,4.171875,-3.828125
1695390499977,-0.5749512,-0.83966064,0.23016357,-0.609375,3.34375,-2.953125
1695390500006,-0.56811523,-0.8279419,0.22235107,-1.71875,3.0625,-2.515625
1695390500051,-0.59643555,-0.8101196,0.25164795,0.453125,1.78125,-3.0
1695390500096,-0.58496094,-0.8088989,0.24090576,0.890625,2.421875,-2.359375
1695390500126,-0.58325195,-0.8171997,0.23260498,0.0,1.34375,-1.890625
1695390500171,-0.5749512,-0.8115845,0.23626709,-0.25,0.890625,-1.875
1695390500216,-0.5605469,-0.8272095,0.2345581,-0.6875,-0.46875,-1.984375
1695390500246,-0.5708008,-0.82159424,0.23626709,-0.71875,-1.390625,-0.984375
1695390500291,-0.5876465,-0.8213501,0.23699951,0.53125,-2.390625,-0.875
1695390500321,-0.60791016,-0.819397,0.23968506,0.203125,-1.84375,-1.5625
1695390500366,-0.5996094,-0.8196411,0.22650146,0.296875,-2.09375,-1.984375
1695390500411,-0.5949707,-0.8098755,0.22503662,0.3125,-1.625,-1.3125
1695390500441,-0.59106445,-0.8308716,0.21258545,-1.09375,-0.203125,-1.546875
1695390500486,-0.5834961,-0.83843994,0.21942139,-1.28125,-1.390625,-1.0625
1695390500531,-0.57250977,-0.8152466,0.18670654,-2.359375,-0.21875,-1.390625
1695390500560,-0.5834961,-0.82696533,0.19598389,-1.546875,-0.90625,-0.5625
1695390500606,-0.57714844,-0.8272095,0.2008667,-1.671875,-1.0,-0.015625
1695390500651,-0.5786133,-0.8213501,0.19378662,-1.453125,0.046875,0.390625
1695390500681,-0.58374023,-0.83380127,0.18328857,-1.78125,-0.21875,0.453125
1695390500726,-0.57788086,-0.8286743,0.20037842,-0.84375,0.140625,-0.390625
1695390500771,-0.5998535,-0.8308716,0.21795654,-0.203125,0.265625,-0.078125
1695390500802,-0.5905762,-0.8255005,0.20599365,0.171875,0.109375,0.078125
1695390500846,-0.57250977,-0.8220825,0.21795654,-0.453125,0.625,0.15625
1695390500891,-0.5805664,-0.82281494,0.21160889,-0.25,0.96875,0.0625
1695390500921,-0.58325195,-0.81817627,0.19891357,-0.453125,0.921875,0.140625
1695390500966,-0.5866699,-0.82232666,0.21014404,0.703125,0.1875,0.078125
1695390501011,-0.5859375,-0.82940674,0.21356201,0.625,-0.390625,0.109375
1695390501041,-0.56689453,-0.8098755,0.16864014,-0.546875,1.859375,-0.171875
1695390501086,-0.59277344,-0.83062744,0.20306396,0.171875,1.359375,-0.125
1695390501117,-0.58447266,-0.82525635,0.2008667,-0.484375,1.421875,0.09375
1695390501161,-0.592041,-0.83306885,0.19110107,-1.1875,1.59375,0.890625
1695390501206,-0.5788574,-0.8286743,0.19696045,-0.921875,0.6875,0.328125
1695390501237,-0.5830078,-0.8128052,0.18963623,-1.0625,0.03125,-0.65625
1695390501281,-0.576416,-0.81988525,0.2098999,-0.09375,-0.078125,-0.25
1695390501326,-0.5949707,-0.8291626,0.19720459,-0.390625,-0.703125,-0.21875
1695390501358,-0.58862305,-0.8201294,0.20404053,-0.5625,0.109375,-0.078125
1695390501401,-0.59277344,-0.82281494,0.19769287,-0.765625,0.296875,-0.078125
1695390501446,-0.59350586,-0.8255005,0.19793701,-0.890625,0.53125,0.046875
1695390501477,-0.5908203,-0.8308716,0.18890381,-0.765625,0.0625,0.171875
1695390501521,-0.5883789,-0.81085205,0.2062378,-0.1875,-0.28125,-0.46875
1695390501566,-0.58862305,-0.8123169,0.1630249,-0.953125,0.578125,0.046875
1695390501597,-0.5930176,-0.817688,0.19476318,-0.90625,0.84375,0.15625
1695390501641,-0.59033203,-0.8242798,0.19403076,-0.453125,0.171875,0.078125
1695390501686,-0.5864258,-0.8123169,0.19891357,-0.8125,0.890625,0.578125
1695390501718,-0.595459,-0.8230591,0.1954956,-0.953125,0.34375,0.25
1695390501761,-0.5891113,-0.8128052,0.19866943,-0.65625,0.21875,0.703125
1695390501792,-0.59155273,-0.8179321,0.19573975,-0.90625,0.8125,0.375
1695390501836,-0.59228516,-0.81500244,0.20452881,-0.171875,0.8125,0.515625
1695390501881,-0.5925293,-0.8274536,0.19134521,-0.296875,0.328125,0.625
1695390501911,-0.58935547,-0.8225708,0.20257568,-1.078125,0.75,0.75
1695390501956,-0.58447266,-0.819397,0.19329834,-1.015625,0.5,0.34375
1695390502001,-0.59033203,-0.82110596,0.19744873,-0.796875,-0.234375,0.46875
1695390502032,-0.58740234,-0.8171997,0.18206787,-2.328125,1.71875,-0.109375
1695390502078,-0.58984375,-0.8296509,0.2062378,-0.921875,-0.21875,0.8125
1695390502123,-0.58569336,-0.8189087,0.17376709,-2.171875,2.453125,0.15625
1695390502151,-0.58935547,-0.8093872,0.21673584,-0.5,1.296875,0.84375
1695390502196,-0.5876465,-0.82281494,0.21063232,-0.5625,0.953125,0.640625
1695390502241,-0.57666016,-0.82110596,0.20379639,-1.21875,1.40625,0.4375
1695390502271,-0.5966797,-0.82598877,0.20355225,-1.1875,1.1875,0.3125
1695390502317,-0.5812988,-0.8206177,0.20574951,-0.890625,0.984375,0.3125
1695390502361,-0.58691406,-0.81036377,0.21038818,-0.609375,0.9375,0.390625
1695390502392,-0.5913086,-0.81329346,0.20721436,0.0,0.796875,0.828125
1695390502438,-0.5800781,-0.82281494,0.20721436,-0.171875,0.46875,0.78125
1695390502482,-0.58813477,-0.81988525,0.20477295,-0.421875,0.9375,0.4375
1695390502511,-0.5932617,-0.8128052,0.20965576,-0.578125,1.234375,0.296875
1695390502557,-0.5944824,-0.81817627,0.19915771,-0.03125,0.96875,-0.015625
1695390502586,-0.5854492,-0.8213501,0.21966553,-0.390625,0.4375,0.0
1695390502631,-0.5839844,-0.8110962,0.18182373,-1.34375,1.734375,-0.359375
1695390502676,-0.59155273,-0.8130493,0.20135498,-0.65625,1.359375,0.15625
1695390502706,-0.59106445,-0.8257446,0.22015381,-0.515625,1.015625,0.25
1695390502752,-0.58691406,-0.81451416,0.21160889,-0.5,1.015625,0.234375
1695390502798,-0.5810547,-0.8179321,0.21063232,-0.5,0.46875,0.21875
1695390502826,-0.58496094,-0.82281494,0.20819092,-0.921875,1.28125,0.0625
1695390502872,-0.5891113,-0.8250122,0.20697021,-1.8125,1.375,0.390625
1695390502916,-0.57836914,-0.8135376,0.215271,-0.921875,1.09375,0.390625
1695390502947,-0.5913086,-0.8123169,0.20794678,-0.15625,0.15625,0.21875
1695390502991,-0.5891113,-0.8130493,0.21868896,-0.15625,0.546875,0.65625
1695390503036,-0.5812988,-0.82476807,0.20281982,-0.578125,0.984375,0.546875
1695390503066,-0.5876465,-0.8208618,0.21038818,-0.546875,0.484375,0.578125
1695390503111,-0.5847168,-0.8154907,0.21380615,-0.6875,1.234375,0.453125
1695390503158,-0.58251953,-0.82476807,0.20892334,-0.203125,0.265625,0.78125
1695390503187,-0.57177734,-0.81988525,0.19207764,-1.734375,0.921875,-0.078125
1695390503231,-0.5852051,-0.8220825,0.23651123,0.6875,-0.75,0.59375
1695390503277,-0.57470703,-0.8140259,0.21624756,0.171875,-2.015625,0.828125
1695390503306,-0.60180664,-0.8286743,0.20355225,1.34375,-1.53125,1.4375
1695390503351,-0.6081543,-0.81915283,0.19476318,1.890625,-0.1875,2.0
1695390503382,-0.5883789,-0.82647705,0.19451904,2.078125,2.546875,1.328125
1695390503426,-0.5744629,-0.819397,0.2086792,0.75,2.15625,0.328125
1695390503471,-0.5917969,-0.83135986,0.17474365,0.484375,2.1875,-0.21875
1695390503502,-0.58813477,-0.83917236,0.20379639,0.53125,1.28125,-0.078125
1695390503546,-0.57470703,-0.833313,0.19989014,-0.0625,1.828125,-0.71875
1695390503591,-0.58203125,-0.83062744,0.19525146,-0.765625,2.015625,-0.390625
1695390503622,-0.5859375,-0.8320923,0.20770264,0.21875,1.171875,0.015625
1695390503666,-0.56274414,-0.82037354,0.21844482,0.078125,0.71875,-0.21875
1695390503711,-0.5727539,-0.82525635,0.17352295,-1.59375,0.734375,-0.46875
1695390503742,-0.5842285,-0.8257446,0.20770264,-0.703125,0.109375,-0.921875
1695390503786,-0.5734863,-0.8279419,0.2111206,-0.59375,-0.46875,-0.875
1695390503831,-0.5883789,-0.8135376,0.19158936,-0.75,-0.15625,-0.328125
1695390503861,-0.58935547,-0.8208618,0.19354248,-0.609375,-0.21875,-0.34375
1695390503907,-0.592041,-0.8242798,0.19891357,-0.234375,-1.171875,-0.171875
1695390503951,-0.595459,-0.80841064,0.1864624,-0.03125,-1.0,-0.515625
1695390503981,-0.59375,-0.81085205,0.19207764,-0.59375,0.359375,0.0
1695390504026,-0.5974121,-0.81866455,0.19696045,-0.140625,-0.28125,0.046875
1695390504056,-0.59033203,-0.8184204,0.19403076,-0.484375,0.25,0.15625
1695390504102,-0.59399414,-0.8093872,0.17840576,-0.21875,0.5,0.296875
1695390504147,-0.5974121,-0.8123169,0.18841553,0.375,-0.375,0.5625
1695390504176,-0.59155273,-0.81500244,0.18304443,0.015625,0.6875,0.171875
1695390504221,-0.5991211,-0.84625244,0.17791748,-0.296875,0.46875,0.625
1695390504267,-0.58740234,-0.81134033,0.1798706,-0.96875,2.59375,-0.03125
1695390504296,-0.58813477,-0.82647705,0.20550537,0.0,0.96875,0.171875
1695390504342,-0.5827637,-0.80963135,0.18988037,-0.53125,1.03125,0.046875
1695390504386,-0.6015625,-0.81573486,0.19451904,-0.640625,0.90625,0.265625
1695390504416,-0.60058594,-0.82232666,0.18890381,-0.546875,0.234375,0.25
1695390504461,-0.60180664,-0.81329346,0.18450928,-0.625,0.3125,0.21875
1695390504506,-0.5961914,-0.819397,0.19671631,-0.203125,0.40625,0.46875
1695390504536,-0.5864258,-0.8213501,0.18597412,-0.578125,0.359375,0.3125
1695390504580,-0.59887695,-0.8184204,0.1984253,-0.078125,-0.921875,0.875
1695390504626,-0.592041,-0.8230591,0.18157959,-0.09375,-0.796875,0.21875
1695390504656,-0.59106445,-0.81134033,0.19647217,-0.234375,0.359375,0.03125
1695390504701,-0.5974121,-0.81817627,0.18475342,-0.171875,1.15625,-0.125
1695390504746,-0.5917969,-0.82647705,0.18988037,-0.25,0.4375,-0.03125
1695390504776,-0.58813477,-0.81036377,0.14959717,-1.03125,2.03125,-0.234375
1695390504822,-0.59155273,-0.81744385,0.19720459,-0.453125,0.625,0.0625
1695390504851,-0.58813477,-0.8147583,0.1749878,-0.765625,0.15625,0.578125
1695390504896,-0.59399414,-0.8110962,0.19354248,0.0625,-0.46875,1.28125
1695390504941,-0.6015625,-0.82598877,0.18011475,0.453125,-0.609375,1.375
1695390504971,-0.5917969,-0.8303833,0.18548584,0.375,0.234375,1.171875
1695390505016,-0.5883789,-0.81695557,0.18084717,0.421875,0.0625,1.640625
1695390505061,-0.5983887,-0.8208618,0.18035889,0.546875,0.375,1.59375
1695390505091,-0.5930176,-0.81427,0.18060303,0.9375,0.640625,1.9375
1695390505136,-0.5891113,-0.82403564,0.17425537,1.21875,-0.046875,1.390625
1695390505181,-0.59716797,-0.83062744,0.18109131,2.28125,-0.234375,1.9375
1695390505211,-0.5793457,-0.8303833,0.16473389,0.1875,2.34375,1.265625
1695390505256,-0.576416,-0.8369751,0.17230225,-0.65625,1.109375,0.65625
1695390505301,-0.5698242,-0.8286743,0.14788818,-1.796875,2.578125,0.171875
1695390505331,-0.58325195,-0.8323364,0.17816162,-2.40625,3.078125,0.03125
1695390505376,-0.57250977,-0.8206177,0.18353271,-2.3125,2.359375,-0.078125
1695390505451,-0.57543945,-0.82354736,0.17889404,-2.828125,2.0625,0.546875
1695390505454,-0.5883789,-0.8140259,0.19671631,-2.703125,2.171875,0.796875
1695390505496,-0.57421875,-0.8340454,0.18695068,-2.71875,2.046875,0.6875
1695390505527,-0.5895996,-0.8196411,0.20013428,-2.390625,2.0,0.875
1695390505571,-0.5761719,-0.8208618,0.20062256,-2.234375,1.921875,1.40625
1695390505616,-0.5678711,-0.8130493,0.20037842,-1.234375,1.375,1.421875
1695390505646,-0.5810547,-0.8291626,0.20355225,-1.59375,2.15625,0.96875
1695390505691,-0.56762695,-0.79815674,0.20013428,0.109375,1.0,0.703125
1695390505735,-0.58325195,-0.831604,0.21331787,-0.09375,1.796875,0.9375
1695390505766,-0.56640625,-0.8401489,0.2062378,-0.0625,0.5625,0.84375
1695390505811,-0.5708008,-0.8189087,0.17596436,-1.828125,2.921875,0.484375
1695390505856,-0.5546875,-0.81695557,0.20184326,-0.375,2.359375,1.015625
1695390505886,-0.5749512,-0.8284302,0.21600342,0.109375,1.3125,0.515625
1695390505931,-0.56933594,-0.83380127,0.20062256,-0.5,1.3125,0.484375
1695390505976,-0.5793457,-0.8423462,0.20428467,-0.515625,0.765625,0.3125
1695390506006,-0.5522461,-0.833313,0.20574951,-1.953125,1.921875,0.53125
1695390506051,-0.5649414,-0.83917236,0.21209717,-2.265625,2.0,1.046875
1695390506096,-0.57373047,-0.84088135,0.21990967,-1.125,1.0625,0.875
1695390506126,-0.5617676,-0.82232666,0.21014404,-1.640625,0.890625,0.765625
1695390506171,-0.56152344,-0.8272095,0.22210693,-0.59375,0.171875,0.765625
1695390506216,-0.57006836,-0.8201294,0.21551514,0.53125,-1.34375,0.75
1695390506246,-0.5727539,-0.8262329,0.20452881,1.359375,-1.25,-0.296875
1695390506291,-0.55688477,-0.85284424,0.2020874,0.6875,-2.46875,-0.65625
1695390506321,-0.56396484,-0.8218384,0.18670654,-0.75,0.3125,-0.609375
1695390506367,-0.5666504,-0.82891846,0.22113037,-0.171875,0.109375,0.421875
1695390506411,-0.578125,-0.8447876,0.2074585,1.28125,-1.375,0.578125
1695390506442,-0.5776367,-0.8320923,0.20428467,0.328125,-0.390625,0.71875
1695390506486,-0.5756836,-0.8250122,0.19085693,-0.796875,1.125,0.625
1695390506531,-0.5690918,-0.8245239,0.2008667,-0.28125,0.96875,0.234375
1695390506561,-0.5732422,-0.83013916,0.19354248,0.828125,-0.421875,0.3125
1695390506606,-0.5786133,-0.84039307,0.19940186,1.625,-0.703125,0.578125
1695390506651,-0.5739746,-0.8413696,0.19500732,0.34375,0.515625,0.671875
1695390506681,-0.5715332,-0.84039307,0.19476318,-0.234375,0.765625,0.78125
1695390506726,-0.56811523,-0.8328247,0.1876831,-0.15625,0.9375,0.71875
1695390506771,-0.57299805,-0.82940674,0.18450928,0.25,0.3125,0.515625
1695390506801,-0.5620117,-0.8394165,0.18304443,-0.046875,0.109375,0.5625
1695390506846,-0.5649414,-0.8442993,0.17596436,-1.0,0.9375,0.28125
1695390506891,-0.5637207,-0.83599854,0.199646,0.171875,0.25,0.0625
1695390506921,-0.5654297,-0.8374634,0.19110107,0.265625,0.03125,0.109375
1695390506966,-0.57421875,-0.83599854,0.19476318,1.296875,-0.328125,0.1875
1695390506996,-0.57470703,-0.8357544,0.18377686,1.21875,0.046875,-0.453125
1695390507041,-0.57055664,-0.8374634,0.18206787,1.0,-0.265625,-1.1875
1695390507086,-0.578125,-0.8320923,0.17694092,1.734375,-1.203125,-0.671875
1695390507116,-0.5632324,-0.8303833,0.18817139,1.015625,0.484375,-1.203125
1695390507163,-0.58251953,-0.8401489,0.17010498,0.203125,0.75,-1.078125
1695390507207,-0.58154297,-0.83721924,0.17449951,1.15625,-1.09375,-0.640625
1695390507236,-0.5827637,-0.8374634,0.17352295,0.78125,-0.125,-0.40625
1695390507281,-0.5773926,-0.84259033,0.18182373,0.796875,-0.234375,-0.640625
1695390507326,-0.5842285,-0.86138916,0.15545654,-4.15625,4.0625,3.5625
1695390507356,-0.57128906,-0.8076782,0.17254639,-2.84375,5.40625,2.09375
1695390507401,-0.56640625,-0.78326416,0.18377686,2.625,-1.578125,-0.6875
1695390507446,-0.5895996,-0.8262329,0.14984131,3.609375,-2.4375,-0.859375
1695390507477,-0.5822754,-0.8386841,0.1671753,2.828125,-1.265625,-1.4375
1695390507522,-0.5876465,-0.8633423,0.16082764,0.46875,0.03125,-1.046875
1695390507566,-0.58740234,-0.84454346,0.16253662,-0.734375,0.421875,-0.046875
1695390507596,-0.5744629,-0.82818604,0.15374756,-0.8125,0.578125,0.5
1695390507641,-0.58032227,-0.815979,0.1564331,0.015625,-0.671875,0.171875
1695390507686,-0.5734863,-0.81866455,0.15814209,0.421875,-0.921875,0.03125
1695390507716,-0.5913086,-0.83795166,0.16522217,0.484375,-0.71875,-0.21875
1695390507762,-0.58569336,-0.82940674,0.16156006,0.078125,-0.1875,-0.09375
1695390507791,-0.57299805,-0.8255005,0.15252686,0.46875,-0.5,0.0625
1695390507837,-0.5800781,-0.8296509,0.12567139,-0.6875,1.5625,-0.265625
1695390507882,-0.58447266,-0.81915283,0.14666748,0.015625,0.546875,-0.140625
1695390507911,-0.5805664,-0.82281494,0.15130615,0.25,-0.34375,0.0625
1695390507956,-0.58862305,-0.8323364,0.14642334,-1.046875,0.4375,0.109375
1695390508002,-0.59472656,-0.83135986,0.15081787,-0.21875,-0.65625,0.390625
1695390508031,-0.5905762,-0.8389282,0.15106201,-0.265625,-0.296875,0.4375
1695390508076,-0.58251953,-0.8196411,0.14276123,-0.640625,0.578125,0.5
1695390508121,-0.59106445,-0.83135986,0.14471436,0.5,-0.359375,0.890625
1695390508151,-0.5932617,-0.8320923,0.137146,0.453125,-0.28125,0.859375
1695390508201,-0.5830078,-0.8464966,0.14520264,-0.5,-0.15625,0.390625
1695390508242,-0.607666,-0.82598877,0.14154053,-0.515625,-0.859375,1.140625
1695390508272,-0.58618164,-0.82354736,0.12371826,-1.25,1.015625,0.640625
1695390508316,-0.58862305,-0.8272095,0.13690186,-0.515625,0.171875,0.875
1695390508362,-0.5986328,-0.83551025,0.13226318,-1.125,2.0625,0.609375
1695390508391,-0.5539551,-0.8135376,0.15130615,-1.34375,2.09375,0.84375
1695390508436,-0.58691406,-0.82769775,0.16107178,0.734375,-0.453125,1.421875
1695390508466,-0.59350586,-0.84332275,0.15447998,-0.5,0.03125,1.09375
1695390508511,-0.57177734,-0.8411255,0.15252686,-1.703125,1.5625,0.75
1695390508557,-0.5683594,-0.8340454,0.14471436,-1.546875,0.984375,0.375
1695390508586,-0.5637207,-0.8164673,0.14788818,-1.375,1.484375,0.03125
1695390508632,-0.58740234,-0.8255005,0.15130615,0.015625,0.671875,0.921875
1695390508676,-0.578125,-0.84503174,0.15447998,0.046875,0.546875,0.921875
1695390508706,-0.57836914,-0.83966064,0.14202881,-1.515625,1.71875,0.796875
1695390508751,-0.5876465,-0.83795166,0.14300537,-1.125,1.546875,0.59375
1695390508796,-0.5827637,-0.8423462,0.15179443,-0.171875,0.265625,0.203125
1695390508826,-0.5852051,-0.8386841,0.13397217,-1.1875,1.90625,0.828125
1695390508871,-0.58251953,-0.8357544,0.12445068,-1.578125,2.109375,0.390625
1695390508918,-0.578125,-0.83013916,0.14349365,1.5,-1.359375,0.859375
1695390508946,-0.57788086,-0.8369751,0.16912842,0.703125,0.453125,1.546875
1695390508991,-0.56933594,-0.83551025,0.15252686,-1.859375,2.046875,0.703125
1695390509036,-0.560791,-0.82891846,0.13543701,-2.15625,1.90625,0.640625
1695390509066,-0.5732422,-0.83917236,0.14935303,-0.84375,0.8125,0.15625
1695390509111,-0.5666504,-0.8389282,0.14910889,0.96875,-0.84375,0.296875
1695390509156,-0.57714844,-0.84381104,0.16693115,-0.59375,0.421875,1.109375
1695390509186,-0.58251953,-0.8479614,0.15789795,-1.0,1.4375,0.765625
1695390509231,-0.5715332,-0.8140259,0.16375732,-0.578125,1.4375,0.484375
1695390509261,-0.58374023,-0.8320923,0.15301514,0.625,1.203125,0.796875
1695390509306,-0.5756836,-0.8501587,0.16253662,0.203125,1.03125,0.640625
1695390509351,-0.5722656,-0.8377075,0.124694824,-1.140625,1.6875,0.734375
1695390509381,-0.57006836,-0.84332275,0.13665771,-1.03125,1.015625,0.375
1695390509426,-0.55615234,-0.84454346,0.15716553,-1.34375,0.84375,0.34375
1695390509471,-0.57910156,-0.8440552,0.15032959,-0.296875,-0.25,0.453125
1695390509500,-0.5703125,-0.85601807,0.15106201,0.0,-1.21875,0.0
1695390509546,-0.55126953,-0.8257446,0.14813232,-0.40625,-0.28125,-0.15625
1695390509591,-0.5812988,-0.8406372,0.16815186,0.90625,-2.0625,0.46875
1695390509621,-0.5876465,-0.84698486,0.14691162,2.421875,-2.515625,1.015625
1695390509666,-0.5673828,-0.8423462,0.13934326,0.296875,-1.046875,1.15625
1695390509711,-0.5620117,-0.8196411,0.13812256,0.265625,0.640625,0.859375
1695390509741,-0.57373047,-0.83917236,0.13641357,0.78125,-0.796875,0.546875
1695390509786,-0.5710449,-0.83721924,0.12835693,0.34375,1.078125,0.09375
1695390509831,-0.57836914,-0.84698486,0.13909912,0.0,0.84375,0.484375
1695390509861,-0.56518555,-0.84820557,0.10736084,-1.375,3.046875,0.0
1695390509906,-0.5786133,-0.8435669,0.13641357,0.3125,0.140625,0.140625
1695390509951,-0.57055664,-0.84454346,0.15472412,0.25,0.625,0.28125
1695390509981,-0.57299805,-0.84454346,0.13861084,0.1875,1.296875,0.390625
1695390510026,-0.578125,-0.8394165,0.1161499,0.0,0.984375,0.546875
1695390510055,-0.56689453,-0.84454346,0.13519287,0.703125,1.515625,0.578125
1695390510101,-0.5822754,-0.8496704,0.121520996,0.5625,1.28125,0.390625
1695390510146,-0.56591797,-0.83135986,0.12835693,0.9375,1.296875,0.34375
1695390510175,-0.59106445,-0.8484497,0.1449585,0.421875,2.0625,0.4375
1695390510221,-0.5595703,-0.8401489,0.12738037,1.234375,2.375,0.09375
1695390510266,-0.5617676,-0.8279419,0.11932373,0.703125,2.1875,0.203125
1695390510295,-0.57666016,-0.85772705,0.13226318,1.21875,1.359375,-0.078125
1695390510340,-0.5710449,-0.85943604,0.14520264,-1.46875,3.109375,-0.296875
1695390510386,-0.5551758,-0.8377075,0.117370605,-1.234375,3.171875,0.1875
1695390510415,-0.57055664,-0.8374634,0.14422607,-0.25,1.171875,0.5625
1695390510461,-0.56225586,-0.8442993,0.13372803,-0.828125,1.171875,-0.453125
1695390510506,-0.56591797,-0.8411255,0.13983154,-1.546875,1.53125,-0.390625
1695390510535,-0.57788086,-0.84747314,0.1281128,-2.296875,1.671875,-0.78125
1695390510581,-0.5812988,-0.833313,0.13275146,-0.65625,0.15625,-0.296875
1695390510626,-0.5810547,-0.84161377,0.13665771,-1.046875,1.265625,0.703125
1695390510656,-0.57055664,-0.8464966,0.1305542,-1.0,0.5,0.140625
1695390510701,-0.57055664,-0.833313,0.14202881,-1.203125,0.265625,0.1875
1695390510730,-0.5722656,-0.8442993,0.12664795,-0.640625,-0.125,0.140625
1695390510776,-0.57055664,-0.8335571,0.13519287,-1.5,0.828125,0.078125
1695390510823,-0.57592773,-0.84576416,0.12640381,-0.53125,-0.984375,0.46875
1695390510851,-0.56274414,-0.83917236,0.15594482,-0.4375,-1.328125,-0.296875
1695390510896,-0.5788574,-0.8464966,0.11175537,-0.9375,-0.40625,-0.265625
1695390510941,-0.57958984,-0.81915283,0.13641357,-0.671875,0.65625,-0.34375
1695390510971,-0.57910156,-0.83599854,0.15545654,-0.390625,-0.609375,-0.578125
1695390511016,-0.5769043,-0.82403564,0.14813232,-0.328125,-0.140625,-0.515625
1695390511061,-0.5761719,-0.8413696,0.137146,-0.546875,2.046875,-0.484375
1695390511091,-0.5839844,-0.83258057,0.14349365,-0.21875,1.75,0.078125
1695390511136,-0.5944824,-0.8406372,0.13348389,-0.046875,3.21875,0.71875
1695390511181,-0.58203125,-0.83477783,0.13494873,-0.375,4.375,0.265625
1695390511211,-0.59399414,-0.8213501,0.13323975,0.90625,3.40625,0.71875
1695390511256,-0.59594727,-0.82940674,0.14569092,0.46875,3.921875,0.34375
1695390511301,-0.57788086,-0.83551025,0.13446045,0.859375,4.0625,0.125
1695390511331,-0.5720215,-0.8399048,0.14910889,1.09375,3.203125,0.40625
1695390511376,-0.57006836,-0.8555298,0.13983154,-0.234375,3.109375,-0.046875
1695390511421,-0.5722656,-0.8518677,0.14324951,-0.21875,1.328125,0.34375
1695390511451,-0.56689453,-0.84332275,0.12762451,-1.40625,3.125,0.40625
1695390511496,-0.5756836,-0.8357544,0.15350342,-1.21875,2.21875,0.796875
1695390511527,-0.57666016,-0.84454346,0.15789795,-0.625,1.328125,0.875
1695390511571,-0.5671387,-0.83795166,0.14837646,-1.65625,0.890625,0.375
1695390511616,-0.5734863,-0.8411255,0.14837646,-1.21875,0.390625,0.09375
1695390511661,-0.5673828,-0.8362427,0.15472412,-1.015625,-0.09375,0.109375
1695390511691,-0.57714844,-0.8352661,0.15203857,-0.828125,-0.34375,0.421875
1695390511736,-0.5805664,-0.8428345,0.1515503,-0.71875,-0.203125,0.859375
1695390511766,-0.57543945,-0.83380127,0.15570068,-1.03125,0.484375,0.15625
1695390511811,-0.5827637,-0.8362427,0.16009521,-0.546875,0.421875,0.65625
1695390511856,-0.5720215,-0.8352661,0.1461792,-0.828125,1.0,0.65625
1695390511888,-0.579834,-0.8399048,0.17449951,-0.203125,0.578125,0.65625
1695390511930,-0.56884766,-0.8386841,0.17352295,-0.078125,0.609375,0.421875
1695390511976,-0.5690918,-0.8267212,0.1359253,-0.78125,1.125,0.59375
1695390512007,-0.56884766,-0.82403564,0.14422607,-1.25,2.578125,0.625
1695390512051,-0.56689453,-0.84747314,0.1605835,0.15625,1.171875,0.46875
1695390512126,-0.5812988,-0.8452759,0.15887451,-0.46875,1.296875,0.390625
1695390512128,-0.56640625,-0.8345337,0.15008545,-0.78125,1.28125,0.328125
1695390512171,-0.57006836,-0.83306885,0.152771,-0.953125,0.984375,0.25
1695390512203,-0.57714844,-0.83795166,0.15789795,-0.328125,0.46875,0.375
1695390512248,-0.5732422,-0.8328247,0.14813232,-0.421875,0.953125,0.34375
1695390512291,-0.5720215,-0.84576416,0.16595459,-0.28125,0.6875,0.46875
1695390512322,-0.57373047,-0.8401489,0.15472412,-0.421875,0.171875,0.03125
1695390512366,-0.5761719,-0.83721924,0.1473999,-0.46875,0.515625,0.609375
1695390512411,-0.57177734,-0.83428955,0.16253662,-0.0625,0.671875,0.328125
1695390512441,-0.576416,-0.84747314,0.1461792,0.28125,0.328125,0.375
1695390512487,-0.55566406,-0.85723877,0.16326904,0.234375,0.125,-0.28125
1695390512530,-0.57128906,-0.83428955,0.13397217,-0.5,1.75,-0.609375
1695390512562,-0.5817871,-0.83721924,0.16107178,0.734375,0.703125,0.078125
1695390512608,-0.576416,-0.8484497,0.16131592,0.046875,1.15625,0.0625
1695390512651,-0.58496094,-0.83843994,0.15350342,0.359375,0.90625,0.0
1695390512681,-0.5761719,-0.8479614,0.14642334,1.171875,1.203125,-0.25
1695390512726,-0.56469727,-0.83795166,0.15814209,0.453125,0.734375,-0.15625
1695390512771,-0.5673828,-0.8369751,0.14959717,0.765625,-0.890625,-0.34375
1695390512801,-0.5827637,-0.8364868,0.13641357,0.765625,-0.4375,-0.3125
1695390512846,-0.578125,-0.8413696,0.14031982,0.21875,0.171875,-0.34375
1695390512891,-0.5734863,-0.8401489,0.13812256,0.15625,0.078125,-0.4375
1695390512922,-0.58691406,-0.8377075,0.12786865,-0.0625,0.515625,-0.328125
1695390512968,-0.57714844,-0.83599854,0.14202881,0.28125,0.0,-0.109375
1695390512996,-0.59155273,-0.8250122,0.12249756,0.078125,1.15625,-0.3125
1695390513041,-0.5720215,-0.84259033,0.1227417,-0.296875,-0.328125,-0.25
1695390513086,-0.5966797,-0.82940674,0.13641357,0.203125,1.40625,-0.9375
1695390513116,-0.5859375,-0.850647,0.14178467,1.03125,0.375,-0.125
1695390513161,-0.5710449,-0.8335571,0.14007568,0.015625,0.53125,0.0625
1695390513208,-0.58203125,-0.82696533,0.13616943,-0.625,0.375,-0.203125
1695390513236,-0.6010742,-0.82891846,0.12542725,-0.671875,-0.390625,0.125
1695390513282,-0.5957031,-0.8272095,0.13275146,-0.4375,0.8125,0.0
1695390513328,-0.5812988,-0.833313,0.12908936,-0.09375,1.40625,-0.21875
1695390513356,-0.57666016,-0.8286743,0.12347412,-0.03125,1.5,-0.125
1695390513401,-0.5708008,-0.82525635,0.13348389,0.15625,0.34375,-0.09375
1695390513446,-0.5617676,-0.8389282,0.116882324,-0.078125,0.28125,-0.21875
1695390513476,-0.5895996,-0.8340454,0.13421631,-0.078125,-0.5,-0.640625
1695390513521,-0.58618164,-0.83843994,0.14300537,-0.09375,-0.65625,-0.078125
1695390513566,-0.57836914,-0.8262329,0.12786865,-0.4375,-0.5,0.171875
1695390513596,-0.5864258,-0.8233032,0.09490967,-0.71875,0.71875,0.296875
1695390513642,-0.5793457,-0.8389282,0.11810303,-0.4375,0.96875,0.140625
1695390513671,-0.58691406,-0.83673096,0.1317749,-0.609375,0.765625,0.09375
1695390513716,-0.60131836,-0.83013916,0.1281128,-0.78125,1.125,0.875
1695390513761,-0.58154297,-0.82525635,0.13470459,-0.484375,1.0,0.828125
1695390513791,-0.58251953,-0.82696533,0.12445068,-0.78125,0.453125,0.515625
1695390513836,-0.5905762,-0.8323364,0.13006592,-0.9375,0.765625,0.5625
1695390513881,-0.5839844,-0.82818604,0.13006592,-0.59375,1.125,0.15625
1695390513912,-0.5847168,-0.83184814,0.13250732,-0.390625,0.859375,0.625
1695390513956,-0.5830078,-0.8418579,0.13372803,-0.484375,0.671875,0.828125
1695390514002,-0.5900879,-0.83551025,0.11590576,-0.703125,0.96875,0.625
1695390514031,-0.5871582,-0.83917236,0.13104248,-0.671875,0.796875,0.484375
1695390514076,-0.579834,-0.81915283,0.14129639,-0.421875,0.75,0.6875
1695390514121,-0.5822754,-0.8320923,0.11907959,-1.1875,1.65625,0.75
1695390514151,-0.5800781,-0.8362427,0.11273193,-1.859375,2.8125,0.75
1695390514196,-0.58081055,-0.8430786,0.14569092,-1.171875,1.625,0.3125
1695390514241,-0.579834,-0.835022,0.13787842,-1.0,1.203125,0.390625
1695390514271,-0.5847168,-0.831604,0.14031982,-1.140625,1.015625,0.734375
1695390514316,-0.59472656,-0.82403564,0.13568115,-1.46875,1.421875,0.84375
1695390514361,-0.58569336,-0.83135986,0.14715576,-1.65625,1.609375,0.34375
1695390514391,-0.57788086,-0.8308716,0.14398193,-1.078125,1.609375,0.3125
1695390514436,-0.57714844,-0.8442993,0.13641357,-1.046875,2.0,0.453125
1695390514466,-0.5871582,-0.83843994,0.14691162,-1.046875,2.046875,0.53125
1695390514511,-0.5751953,-0.8389282,0.13812256,-1.421875,2.921875,0.46875
1695390514556,-0.5864258,-0.8352661,0.15716553,-1.0625,1.90625,0.5
1695390514586,-0.5812988,-0.8284302,0.15252686,-0.609375,2.671875,0.703125
1695390514631,-0.5827637,-0.82769775,0.15228271,-0.921875,2.0625,0.609375
1695390514676,-0.57177734,-0.83599854,0.13201904,-1.875,3.625,0.375
1695390514706,-0.5744629,-0.8340454,0.1762085,-0.640625,1.890625,0.390625
1695390514751,-0.57714844,-0.84381104,0.1618042,-0.515625,1.0625,0.984375
1695390514796,-0.57055664,-0.82940674,0.1564331,-1.1875,1.5625,0.671875
1695390514826,-0.58618164,-0.8291626,0.15203857,-1.171875,1.328125,1.09375
1695390514871,-0.56884766,-0.84210205,0.16522217,-1.21875,1.359375,0.25
1695390514916,-0.5769043,-0.8335571,0.16448975,-1.046875,1.296875,0.078125
1695390514946,-0.5671387,-0.829895,0.15960693,-0.671875,0.90625,0.234375
1695390514991,-0.57006836,-0.8303833,0.17156982,-0.625,0.96875,0.609375
1695390515036,-0.576416,-0.8401489,0.1671753,-0.9375,0.859375,0.34375
1695390515065,-0.5834961,-0.85162354,0.16326904,-0.9375,0.578125,0.171875
1695390515112,-0.57666016,-0.8320923,0.16278076,-0.90625,1.53125,0.296875
1695390515141,-0.57250977,-0.833313,0.15374756,-0.953125,1.015625,0.34375
1695390515186,-0.56884766,-0.83380127,0.1515503,-1.390625,1.875,0.140625
1695390515231,-0.5739746,-0.8364868,0.17718506,-1.21875,1.046875,-0.703125
1695390515261,-0.5827637,-0.8328247,0.16522217,-0.515625,0.984375,0.171875
1695390515306,-0.5678711,-0.83599854,0.17181396,-0.765625,0.796875,0.15625
1695390515351,-0.5812988,-0.82232666,0.16864014,-0.5,1.171875,0.71875
1695390515381,-0.58081055,-0.83673096,0.16448975,-0.609375,0.84375,0.234375
1695390515426,-0.5720215,-0.8323364,0.17254639,-0.78125,1.015625,0.1875
1695390515471,-0.5749512,-0.833313,0.16546631,-0.921875,1.046875,0.546875
1695390515501,-0.5708008,-0.83306885,0.16912842,-0.8125,0.953125,0.484375
1695390515546,-0.5722656,-0.8296509,0.1696167,-1.046875,1.203125,0.203125
1695390515591,-0.57910156,-0.8357544,0.17059326,-0.453125,0.5,0.125
1695390515620,-0.58032227,-0.83184814,0.17523193,0.125,1.203125,0.328125
1695390515666,-0.57910156,-0.8296509,0.15692139,0.046875,0.703125,-0.09375
1695390515711,-0.5761719,-0.83184814,0.16546631,-0.125,1.0,-0.625
1695390515741,-0.5776367,-0.83795166,0.19134521,0.234375,0.40625,-0.609375
1695390515786,-0.58203125,-0.83551025,0.17059326,0.484375,0.203125,-0.59375
1695390515831,-0.58691406,-0.82696533,0.1671753,0.859375,0.09375,-0.0625
1695390515861,-0.5786133,-0.82891846,0.16107178,0.859375,0.65625,0.359375
1695390515906,-0.57714844,-0.829895,0.16986084,0.6875,0.078125,0.15625
1695390515935,-0.57006836,-0.8389282,0.1593628,0.578125,0.328125,-0.203125
1695390515980,-0.57714844,-0.8267212,0.16156006,0.515625,-0.03125,-0.046875
1695390516026,-0.5878906,-0.8374634,0.16082764,0.296875,0.234375,0.109375
1695390516056,-0.58203125,-0.8352661,0.15081787,-0.375,0.953125,-0.375
1695390516100,-0.58618164,-0.835022,0.15203857,0.046875,0.28125,-0.390625
1695390516151,-0.58862305,-0.8230591,0.15008545,0.265625,0.1875,-0.359375
1695390516175,-0.5749512,-0.8286743,0.13616943,-1.375,1.015625,-0.28125
1695390516221,-0.58935547,-0.82281494,0.15325928,-0.53125,1.4375,-0.75
1695390516266,-0.5883789,-0.8440552,0.15789795,-0.203125,-0.15625,0.046875
1695390516295,-0.5852051,-0.8274536,0.15228271,-1.171875,0.359375,-0.203125
1695390516341,-0.5957031,-0.8255005,0.15960693,-0.703125,0.5625,-0.265625
1695390516386,-0.5883789,-0.82769775,0.15814209,-0.609375,0.875,-0.25
1695390516416,-0.57958984,-0.82696533,0.16033936,-1.125,1.28125,-0.015625
1695390516460,-0.5949707,-0.8308716,0.15057373,-0.5,0.875,0.3125
1695390516505,-0.58569336,-0.83551025,0.15667725,-0.21875,0.03125,0.203125
1695390516536,-0.5895996,-0.82891846,0.15692139,-0.203125,0.671875,0.015625
1695390516581,-0.5839844,-0.82476807,0.15032959,-0.71875,1.171875,0.09375
1695390516626,-0.579834,-0.8323364,0.15057373,-0.0625,-0.171875,0.4375
1695390516655,-0.5751953,-0.8262329,0.16815186,-0.328125,0.1875,0.375
1695390516700,-0.5827637,-0.8242798,0.12445068,-1.015625,1.125,0.5625
1695390516731,-0.5847168,-0.8362427,0.16204834,-0.78125,0.75,0.609375
1695390516790,-0.58325195,-0.8311157,0.16864014,-0.890625,0.75,0.9375
1695390516820,-0.5854492,-0.8286743,0.15057373,-1.65625,1.1875,0.171875
1695390516851,-0.5930176,-0.819397,0.15985107,-0.59375,1.203125,0.125
1695390516896,-0.5842285,-0.8303833,0.15911865,-0.09375,0.140625,0.578125
1695390516940,-0.5883789,-0.82818604,0.16033936,-0.609375,1.015625,0.734375
1695390516971,-0.5942383,-0.8286743,0.16082764,-0.140625,0.484375,0.59375
1695390517016,-0.58032227,-0.84039307,0.15911865,-0.703125,1.03125,0.625
1695390517060,-0.579834,-0.82476807,0.1473999,-0.765625,1.171875,0.390625
1695390517091,-0.5827637,-0.8286743,0.16229248,-0.65625,0.859375,0.40625
1695390517136,-0.58374023,-0.8272095,0.1618042,-0.46875,1.59375,0.625
1695390517181,-0.5847168,-0.8267212,0.1671753,0.03125,0.953125,0.640625
1695390517210,-0.5751953,-0.8364868,0.13739014,-1.578125,2.28125,0.125
1695390517256,-0.58081055,-0.8220825,0.16107178,-1.53125,1.625,0.703125
1695390517300,-0.58618164,-0.8345337,0.16766357,-1.0,0.84375,0.90625
1695390517332,-0.5852051,-0.833313,0.15692139,-1.875,1.765625,0.703125
1695390517376,-0.58251953,-0.8311157,0.1642456,-0.890625,1.515625,0.375
1695390517406,-0.5769043,-0.8345337,0.16033936,-1.03125,1.140625,0.40625
1695390517451,-0.5891113,-0.83135986,0.16986084,-1.078125,1.328125,0.390625
1695390517496,-0.57836914,-0.829895,0.17303467,-0.640625,1.03125,0.65625
1695390517526,-0.5793457,-0.82354736,0.17352295,-0.375,0.703125,0.4375
1695390517571,-0.59106445,-0.8430786,0.16864014,-0.53125,0.65625,0.3125
1695390517615,-0.5812988,-0.8267212,0.1749878,-0.5,0.8125,0.203125
1695390517646,-0.5859375,-0.83258057,0.15447998,-0.5,1.609375,0.25
1695390517692,-0.57836914,-0.83673096,0.17254639,-0.265625,0.65625,0.546875
1695390517736,-0.5776367,-0.8311157,0.15716553,-1.15625,2.34375,0.140625
1695390517766,-0.5852051,-0.8225708,0.1708374,-0.765625,1.484375,0.40625
1695390517811,-0.5739746,-0.83428955,0.17376709,-0.625,1.609375,0.328125
1695390517856,-0.58569336,-0.8352661,0.17791748,-1.0625,1.3125,0.359375
1695390517885,-0.5834961,-0.83843994,0.17401123,-1.203125,1.03125,0.5
1695390517930,-0.5822754,-0.82891846,0.16595459,-0.796875,0.96875,0.125
1695390517976,-0.5817871,-0.83062744,0.18670654,-0.703125,1.171875,0.71875
1695390518006,-0.5817871,-0.83062744,0.18084717,-0.421875,0.796875,0.484375
1695390518052,-0.5800781,-0.8323364,0.18011475,-0.78125,1.015625,0.515625
1695390518096,-0.57470703,-0.8335571,0.17230225,-1.375,1.765625,0.1875
1695390518126,-0.58032227,-0.83258057,0.1786499,-0.484375,0.453125,0.375
1695390518171,-0.57958984,-0.8323364,0.18035889,-0.78125,1.359375,0.078125
1695390518201,-0.5830078,-0.83721924,0.16888428,-0.953125,1.046875,0.296875
1695390518246,-0.5800781,-0.819397,0.17425537,-1.296875,1.84375,0.0625
1695390518291,-0.5673828,-0.8369751,0.18792725,-1.046875,1.375,0.203125
1695390518321,-0.5800781,-0.8284302,0.18890381,-1.140625,1.625,0.359375
1695390518369,-0.57421875,-0.831604,0.18231201,-1.28125,1.53125,0.5625
1695390518412,-0.5749512,-0.8345337,0.18035889,-1.15625,1.03125,0.125
1695390518441,-0.5871582,-0.82891846,0.19403076,-0.640625,0.875,0.09375
1695390518486,-0.57128906,-0.83428955,0.18597412,-0.21875,0.609375,0.671875
1695390518531,-0.5732422,-0.8225708,0.19110107,-0.765625,1.125,0.515625
1695390518561,-0.5847168,-0.83184814,0.18939209,-1.078125,1.046875,0.21875
1695390518606,-0.5686035,-0.83013916,0.19110107,-1.546875,1.46875,0.125
1695390518650,-0.58032227,-0.83135986,0.19207764,-1.28125,1.0625,0.203125
1695390518681,-0.5751953,-0.8233032,0.18426514,-0.421875,1.46875,0.28125
1695390518729,-0.57592773,-0.83184814,0.18695068,0.59375,0.90625,0.6875
1695390518801,-0.5839844,-0.82232666,0.17645264,0.25,1.671875,-0.03125
1695390518816,-0.57299805,-0.84039307,0.20379639,0.6875,0.4375,0.03125
1695390518850,-0.5805664,-0.8279419,0.19989014,-0.515625,1.734375,-0.15625
1695390518876,-0.579834,-0.82525635,0.1786499,-0.453125,0.484375,-0.578125
1695390518921,-0.5788574,-0.8250122,0.19696045,-0.140625,0.671875,-0.609375
1695390518966,-0.5788574,-0.82525635,0.1906128,0.65625,-0.71875,-0.25
1695390518995,-0.57910156,-0.83721924,0.18621826,0.578125,0.21875,0.171875
1695390519041,-0.58251953,-0.82647705,0.17523193,0.21875,0.25,-0.0625
1695390519089,-0.5788574,-0.8245239,0.18548584,0.734375,-0.890625,0.359375
1695390519115,-0.58618164,-0.8357544,0.17425537,-0.03125,0.546875,-0.28125
1695390519161,-0.5805664,-0.82891846,0.18475342,0.125,0.078125,-0.21875
1695390519206,-0.5888672,-0.8311157,0.17010498,-1.03125,2.046875,-0.078125
1695390519235,-0.5812988,-0.84503174,0.18548584,-0.359375,0.828125,0.484375
1695390519281,-0.5686035,-0.80841064,0.14764404,0.15625,0.828125,-0.234375
1695390519326,-0.5942383,-0.81817627,0.18353271,0.875,-0.234375,0.109375
1695390519355,-0.5761719,-0.83062744,0.17376709,0.390625,0.453125,-0.09375
1695390519401,-0.5949707,-0.8323364,0.17303467,-1.203125,1.75,0.28125
1695390519446,-0.58325195,-0.83135986,0.17108154,-0.171875,-0.5,-0.09375
1695390519476,-0.58032227,-0.8279419,0.18792725,-0.125,-0.546875,-0.65625
1695390519521,-0.59350586,-0.81451416,0.18841553,-0.515625,1.015625,0.609375
1695390519566,-0.5751953,-0.8308716,0.16326904,-0.15625,0.296875,0.484375
1695390519596,-0.59936523,-0.8115845,0.17474365,1.21875,-1.203125,0.328125
1695390519641,-0.5969238,-0.83380127,0.16326904,1.375,-1.34375,0.703125
1695390519673,-0.5710449,-0.8233032,0.16253662,0.171875,0.84375,0.5625
1695390519716,-0.5769043,-0.81744385,0.16644287,0.390625,1.0625,0.578125
1695390519761,-0.5761719,-0.82476807,0.1618042,0.640625,0.53125,0.5
1695390519791,-0.579834,-0.8284302,0.14544678,-1.125,2.59375,0.0625
1695390519836,-0.5969238,-0.8262329,0.15863037,-0.703125,1.921875,0.484375
1695390519881,-0.58618164,-0.8279419,0.17108154,0.359375,0.46875,0.40625
1695390519911,-0.58984375,-0.8328247,0.17181396,-1.6875,2.171875,0.296875
1695390519956,-0.5852051,-0.8274536,0.17523193,-0.765625,1.9375,0.34375
1695390520001,-0.56933594,-0.83721924,0.17010498,-0.15625,-0.3125,0.265625
1695390520031,-0.5842285,-0.82818604,0.17718506,-0.90625,0.015625,0.328125
1695390520076,-0.58325195,-0.835022,0.16546631,-0.796875,1.328125,0.484375
1695390520121,-0.5905762,-0.8279419,0.17816162,-0.375,1.046875,0.75
1695390520152,-0.58813477,-0.8274536,0.16571045,0.703125,-0.3125,0.765625
1695390520196,-0.57714844,-0.8377075,0.17230225,0.03125,0.28125,0.65625
1695390520241,-0.5891113,-0.8340454,0.17156982,-0.40625,0.421875,0.453125
1695390520271,-0.57958984,-0.82354736,0.18035889,0.0,0.015625,0.171875
1695390520316,-0.58569336,-0.83721924,0.14935303,-1.28125,1.671875,-0.078125
1695390520345,-0.58325195,-0.83795166,0.15814209,-2.0625,2.5,-0.078125
1695390520392,-0.57128906,-0.83135986,0.1798706,-2.171875,1.546875,0.140625
1695390520435,-0.5925293,-0.8272095,0.15765381,-2.421875,1.09375,0.578125
1695390520465,-0.5847168,-0.82110596,0.1876831,-2.28125,1.859375,0.875
1695390520510,-0.5895996,-0.8242798,0.19134521,-0.859375,0.765625,2.34375
1695390520556,-0.59472656,-0.8286743,0.18133545,-0.390625,2.53125,2.21875
1695390520586,-0.5793457,-0.8106079,0.1852417,0.0625,2.5625,2.828125
1695390520631,-0.5629883,-0.8057251,0.16644287,1.78125,2.625,3.03125
1695390520676,-0.56518555,-0.8345337,0.19696045,2.5,2.515625,2.953125
1695390520705,-0.56811523,-0.8423462,0.18426514,1.234375,2.296875,2.453125
1695390520751,-0.5666504,-0.85040283,0.1671753,-0.265625,3.0625,2.03125
1695390520795,-0.5493164,-0.8274536,0.2296753,1.234375,2.3125,2.203125
1695390520825,-0.5595703,-0.85235596,0.13861084,-0.3125,3.09375,2.28125
1695390520871,-0.5366211,-0.8237915,0.168396,0.21875,4.015625,0.515625
1695390520916,-0.546875,-0.8584595,0.17694092,0.78125,3.484375,1.015625
1695390520946,-0.54052734,-0.83673096,0.16986084,-0.59375,3.390625,1.3125
1695390520991,-0.5505371,-0.8526001,0.1774292,-0.1875,2.984375,1.375
1695390521036,-0.5715332,-0.8406372,0.17156982,-0.765625,2.640625,1.75
1695390521065,-0.54248047,-0.84332275,0.18572998,0.03125,3.21875,0.953125
1695390521111,-0.5319824,-0.8484497,0.20257568,0.8125,2.65625,1.15625
1695390521140,-0.546875,-0.85821533,0.19720459,-0.796875,2.890625,1.296875
1695390521186,-0.53637695,-0.85284424,0.1786499,-1.0625,1.96875,1.28125
1695390521230,-0.5554199,-0.8467407,0.20013428,-1.234375,2.75,1.9375
1695390521261,-0.5336914,-0.86602783,0.17425537,-2.46875,2.5,1.21875
1695390521305,-0.5324707,-0.835022,0.2140503,-0.828125,1.015625,0.8125
1695390521351,-0.52441406,-0.8574829,0.1864624,-2.671875,1.921875,0.4375
1695390521380,-0.5546875,-0.8479614,0.1918335,-1.578125,2.296875,0.890625
1695390521426,-0.5307617,-0.83673096,0.22088623,-0.21875,1.875,0.859375
1695390521471,-0.5588379,-0.8530884,0.18670654,-0.8125,1.875,1.15625
1695390521500,-0.53686523,-0.83599854,0.20404053,-0.3125,1.5,0.9375
1695390521546,-0.5439453,-0.85284424,0.19036865,-0.578125,1.796875,1.015625
1695390521590,-0.53515625,-0.8496704,0.2020874,-0.21875,1.40625,0.8125
1695390521620,-0.54785156,-0.8596802,0.20574951,0.265625,2.640625,1.171875
1695390521665,-0.50146484,-0.86065674,0.20281982,0.265625,2.171875,1.46875
1695390521710,-0.5246582,-0.87506104,0.2086792,-1.375,2.140625,1.421875
1695390521740,-0.5234375,-0.8533325,0.20111084,-1.53125,1.40625,0.890625
1695390521786,-0.54003906,-0.86309814,0.22698975,-1.09375,2.015625,1.4375
1695390521816,-0.50878906,-0.8550415,0.22650146,-0.09375,0.65625,0.921875
1695390521860,-0.5246582,-0.8550415,0.18572998,-2.0,1.453125,0.65625
1695390521905,-0.5234375,-0.8464966,0.21014404,-0.953125,1.21875,0.75
1695390521937,-0.5136719,-0.8755493,0.2164917,-0.609375,1.25,0.6875
1695390521980,-0.5241699,-0.85601807,0.21868896,-1.453125,1.46875,0.671875
1695390522026,-0.5253906,-0.83843994,0.2140503,-0.734375,1.609375,0.671875
1695390522057,-0.5148926,-0.85943604,0.22113037,-0.125,1.625,0.9375
1695390522100,-0.52612305,-0.8584595,0.23040771,-0.65625,1.171875,0.546875
1695390522146,-0.52490234,-0.8491821,0.20452881,0.359375,1.578125,0.8125
1695390522176,-0.52441406,-0.84698486,0.21234131,0.953125,1.40625,1.078125
1695390522220,-0.5161133,-0.8584595,0.21722412,0.53125,1.078125,0.75
1695390522266,-0.5148926,-0.8621216,0.19085693,-0.03125,1.71875,0.9375
1695390522297,-0.5205078,-0.8694458,0.2098999,0.078125,1.90625,1.046875
1695390522341,-0.5090332,-0.8596802,0.21600342,0.703125,0.96875,0.734375
1695390522385,-0.5192871,-0.85821533,0.1918335,-1.09375,2.1875,1.390625
1695390522417,-0.51293945,-0.8623657,0.21502686,-0.921875,1.78125,1.0
1695390522460,-0.5083008,-0.8604126,0.2140503,-0.59375,1.796875,0.328125
1695390522506,-0.5073242,-0.8579712,0.21575928,-1.09375,1.375,0.375
1695390522536,-0.5070801,-0.8640747,0.22161865,-0.421875,0.6875,0.515625
1695390522581,-0.5214844,-0.8530884,0.21063232,-0.296875,0.703125,0.984375
1695390522610,-0.50683594,-0.86431885,0.2111206,-0.125,0.890625,0.71875
1695390522656,-0.49829102,-0.86602783,0.22503662,0.3125,1.265625,0.546875
1695390522701,-0.513916,-0.8652954,0.21746826,0.609375,0.3125,0.546875
1695390522730,-0.5070801,-0.8723755,0.21966553,0.96875,0.625,0.375
1695390522777,-0.515625,-0.8731079,0.21014404,0.515625,0.859375,0.0
1695390522820,-0.5095215,-0.86016846,0.22406006,1.453125,0.171875,-0.25
1695390522851,-0.5258789,-0.86260986,0.19818115,-0.109375,1.578125,-0.0625
1695390522896,-0.50927734,-0.8833618,0.19793701,0.421875,-0.015625,-0.40625
1695390522941,-0.52124023,-0.84088135,0.19500732,-0.28125,1.5,-0.609375
1695390522970,-0.51708984,-0.8674927,0.21307373,1.234375,0.421875,-0.296875
1695390523015,-0.5217285,-0.85601807,0.20111084,-0.046875,1.03125,-0.203125
1695390523060,-0.51782227,-0.881897,0.18939209,0.21875,0.109375,-0.21875
1695390523091,-0.50756836,-0.8596802,0.19573975,-0.296875,0.1875,-0.34375
1695390523137,-0.52563477,-0.85943604,0.2008667,-0.734375,-0.0625,-0.328125
1695390523181,-0.5168457,-0.86065674,0.2074585,0.03125,0.171875,0.234375
1695390523211,-0.5263672,-0.8496704,0.19598389,0.59375,0.453125,0.15625
1695390523256,-0.51342773,-0.86187744,0.21234131,0.4375,0.546875,0.484375
1695390523300,-0.5239258,-0.86065674,0.19012451,0.21875,0.5,0.203125
1695390523330,-0.5163574,-0.8526001,0.20452881,0.484375,0.234375,-0.078125
1695390523376,-0.5227051,-0.8677368,0.19281006,-0.375,1.609375,0.328125
1695390523406,-0.51538086,-0.8740845,0.19720459,0.484375,0.078125,-0.046875
1695390523451,-0.5161133,-0.85479736,0.16448975,-0.90625,1.625,-0.15625
1695390523497,-0.51123047,-0.8689575,0.18841553,-0.359375,0.625,-0.015625
1695390523526,-0.5058594,-0.8648071,0.18109131,-1.984375,0.875,0.09375
1695390523571,-0.5241699,-0.83721924,0.18450928,-0.703125,1.125,0.359375
1695390523615,-0.5317383,-0.8687134,0.19989014,0.84375,0.296875,0.640625
1695390523646,-0.51586914,-0.8718872,0.20037842,-0.15625,1.4375,0.609375
1695390523690,-0.51660156,-0.85821533,0.20379639,-0.453125,1.0625,0.671875
1695390523750,-0.5144043,-0.86138916,0.19818115,-0.359375,0.796875,0.75
1695390523765,-0.5180664,-0.8670044,0.2008667,-0.140625,0.765625,0.8125
1695390523812,-0.5217285,-0.86065674,0.18792725,-0.4375,0.859375,0.515625
1695390523859,-0.5180664,-0.85601807,0.17694092,-1.140625,1.28125,0.390625
1695390523886,-0.52197266,-0.8718872,0.19110107,-0.890625,1.21875,0.46875
1695390523931,-0.51000977,-0.86187744,0.20379639,0.25,0.1875,0.234375
1695390523976,-0.51831055,-0.86065674,0.16693115,-1.46875,1.390625,0.953125
1695390524006,-0.51831055,-0.85479736,0.20184326,-0.84375,1.71875,0.375
1695390524050,-0.52856445,-0.8599243,0.19451904,-0.109375,1.140625,0.21875
1695390524081,-0.50683594,-0.8550415,0.20770264,-0.90625,1.59375,0.28125
1695390524126,-0.51416016,-0.86676025,0.18841553,0.375,0.53125,0.078125
1695390524172,-0.51049805,-0.8677368,0.2020874,-0.734375,0.828125,0.5625
1695390524201,-0.52075195,-0.8731079,0.1984253,-1.125,1.015625,0.53125
1695390524246,-0.52246094,-0.8609009,0.20526123,-1.1875,1.390625,0.90625
1695390524291,-0.5041504,-0.848938,0.1942749,-0.625,0.5625,0.25
1695390524321,-0.51586914,-0.86309814,0.20452881,-0.265625,0.46875,0.125
1695390524366,-0.52124023,-0.866272,0.19573975,-0.46875,1.453125,-0.28125
1695390524410,-0.5151367,-0.8887329,0.19110107,-1.546875,1.375,0.296875
1695390524441,-0.501709,-0.8442993,0.22210693,-2.984375,1.9375,-0.015625
1695390524486,-0.52246094,-0.85528564,0.18450928,-1.75,0.453125,-0.078125
1695390524532,-0.52612305,-0.8491821,0.20233154,-1.34375,2.09375,0.203125
1695390524561,-0.52905273,-0.8699341,0.23162842,-0.5,2.046875,0.53125
1695390524606,-0.5078125,-0.8687134,0.2020874,-1.203125,1.8125,0.5625
1695390524651,-0.5187988,-0.8518677,0.21966553,-0.421875,1.03125,0.578125
1695390524681,-0.5114746,-0.85894775,0.20013428,-0.5,0.96875,0.4375
1695390524726,-0.51342773,-0.8621216,0.20721436,-0.546875,0.96875,0.3125
1695390524771,-0.5031738,-0.87335205,0.20819092,-0.546875,0.59375,0.21875
1695390524801,-0.50268555,-0.8567505,0.21209717,-1.328125,0.546875,0.03125
1695390524846,-0.52197266,-0.87164307,0.215271,-1.75,0.40625,0.203125
1695390524876,-0.52905273,-0.84552,0.19281006,-0.953125,0.71875,-0.1875
1695390524922,-0.5275879,-0.85821533,0.22064209,0.3125,1.4375,0.296875
1695390524966,-0.50683594,-0.8648071,0.21502686,-0.140625,1.46875,-0.296875
1695390524995,-0.51538086,-0.8623657,0.2008667,-1.6875,1.53125,-0.15625
1695390525042,-0.53271484,-0.8633423,0.21209717,-1.359375,2.3125,0.328125
1695390525086,-0.5119629,-0.85943604,0.22918701,-0.4375,1.625,0.234375
1695390525115,-0.51342773,-0.86724854,0.21307373,-1.84375,1.34375,0.671875
1695390525161,-0.51171875,-0.85113525,0.21038818,-1.296875,0.53125,-0.1875
1695390525206,-0.50927734,-0.8604126,0.22113037,-1.421875,0.4375,0.515625
1695390525235,-0.5197754,-0.8569946,0.21551514,-1.109375,-0.078125,-0.1875
1695390525281,-0.51538086,-0.85772705,0.2243042,-0.375,0.296875,0.03125
1695390525326,-0.5217285,-0.8467407,0.22650146,-0.75,0.625,-0.125
1695390525355,-0.5148926,-0.8701782,0.21942139,-0.265625,-0.328125,0.03125
1695390525401,-0.532959,-0.8550415,0.21136475,-1.03125,0.984375,-0.625
1695390525475,-0.5253906,-0.85650635,0.20770264,-0.484375,-0.265625,-0.703125
1695390525478,-0.5234375,-0.8609009,0.23260498,-1.546875,0.015625,-0.78125
1695390525521,-0.5239258,-0.864563,0.2033081,-1.5,0.1875,-0.859375
1695390525550,-0.5217285,-0.85650635,0.21820068,-1.8125,0.90625,-0.8125
1695390525596,-0.5373535,-0.84454346,0.23138428,-1.078125,1.25,-0.34375
1695390525641,-0.51586914,-0.861145,0.22723389,-1.171875,0.703125,0.125
1695390525671,-0.52612305,-0.8557739,0.22015381,-0.625,0.0,0.1875
1695390525716,-0.52734375,-0.85479736,0.21673584,-0.890625,0.1875,0.234375
1695390525761,-0.5305176,-0.84942627,0.2230835,-0.9375,0.390625,0.046875
1695390525791,-0.5266113,-0.85357666,0.22503662,-0.984375,0.546875,0.53125
1695390525836,-0.51708984,-0.8418579,0.2218628,-1.359375,0.328125,0.203125
1695390525881,-0.5378418,-0.8374634,0.21820068,-0.34375,0.828125,0.234375
1695390525911,-0.529541,-0.8460083,0.21478271,-0.484375,1.53125,0.03125
1695390525956,-0.5292969,-0.8633423,0.2255249,-0.234375,0.75,-0.078125
1695390526001,-0.52490234,-0.85601807,0.22747803,-1.625,1.375,0.171875
1695390526031,-0.52685547,-0.8543091,0.20452881,-1.09375,1.203125,0.546875
1695390526076,-0.5270996,-0.8513794,0.21942139,-0.71875,1.828125,0.25
1695390526121,-0.5217285,-0.8569946,0.23577881,-0.21875,1.046875,0.015625
1695390526150,-0.52246094,-0.85650635,0.2243042,-0.515625,0.6875,0.0625
1695390526196,-0.53149414,-0.8430786,0.23138428,0.03125,0.90625,-0.109375
1695390526240,-0.51464844,-0.85406494,0.21209717,-0.75,0.65625,-0.546875
1695390526270,-0.5349121,-0.8423462,0.22039795,-0.53125,1.0625,-0.9375
1695390526316,-0.54541016,-0.84747314,0.23773193,0.734375,1.125,-0.015625
1695390526346,-0.52783203,-0.8584595,0.22698975,0.34375,1.15625,0.71875
1695390526391,-0.52734375,-0.8364868,0.22406006,0.15625,1.28125,0.46875
1695390526436,-0.5275879,-0.8477173,0.2255249,0.296875,0.46875,0.046875
1695390526466,-0.53808594,-0.8526001,0.22039795,0.921875,-0.03125,0.015625
1695390526511,-0.5361328,-0.85113525,0.23065186,0.9375,0.890625,-0.234375
1695390526555,-0.52905273,-0.85821533,0.18426514,-0.5625,-0.015625,0.03125
1695390526586,-0.52441406,-0.8428345,0.21307373,0.234375,0.375,0.0625
1695390526630,-0.5266113,-0.8545532,0.23651123,-0.015625,-0.25,-0.421875
1695390526676,-0.53149414,-0.84576416,0.20306396,-0.671875,0.25,0.609375
1695390526705,-0.5319824,-0.8464966,0.22161865,-0.28125,-0.171875,-0.234375
1695390526750,-0.53686523,-0.8477173,0.21014404,-0.1875,0.015625,-0.34375
1695390526795,-0.5324707,-0.84039307,0.21453857,-0.46875,-0.4375,-0.421875
1695390526825,-0.5366211,-0.8464966,0.2140503,0.890625,-1.515625,-0.4375
1695390526870,-0.5419922,-0.8386841,0.22747803,1.109375,-0.734375,-0.578125
1695390526916,-0.54174805,-0.8557739,0.20159912,1.5625,-0.09375,-0.46875
1695390526945,-0.56103516,-0.8557739,0.20062256,0.84375,1.671875,-0.953125
1695390526990,-0.5419922,-0.84942627,0.19671631,0.953125,2.078125,-0.875
1695390527020,-0.5332031,-0.84381104,0.21795654,1.34375,0.140625,-1.078125
1695390527065,-0.54296875,-0.8435669,0.18475342,1.578125,-1.125,-0.765625
1695390527111,-0.5510254,-0.848938,0.19036865,1.671875,-0.34375,-0.34375
1695390527141,-0.54418945,-0.8467407,0.1798706,1.375,-1.84375,0.53125
1695390527186,-0.5270996,-0.84039307,0.17376709,0.421875,-1.953125,1.4375
1695390527230,-0.5292969,-0.8689575,0.16815186,-0.015625,-2.53125,1.078125
1695390527260,-0.53027344,-0.83917236,0.1671753,-0.890625,-1.5625,1.265625
1695390527305,-0.54541016,-0.8530884,0.17840576,-1.453125,-0.234375,1.609375
1695390527350,-0.5463867,-0.8521118,0.1774292,-1.3125,-0.65625,1.4375
1695390527380,-0.54785156,-0.8428345,0.18572998,-1.171875,-0.75,1.578125
1695390527425,-0.55249023,-0.8579712,0.17840576,-0.703125,-0.484375,1.046875
1695390527470,-0.54956055,-0.8423462,0.18328857,-0.421875,-0.3125,0.46875
1695390527500,-0.5576172,-0.86016846,0.18231201,-1.40625,1.078125,0.984375
1695390527545,-0.5444336,-0.85821533,0.18792725,-0.296875,1.609375,0.453125
1695390527590,-0.548584,-0.8386841,0.1552124,-0.546875,2.765625,0.890625
1695390527620,-0.54956055,-0.84991455,0.18548584,0.03125,3.9375,0.390625
1695390527666,-0.53100586,-0.862854,0.19158936,0.09375,2.765625,0.6875
1695390527740,-0.5349121,-0.8477173,0.19378662,-0.234375,2.578125,0.84375
1695390527743,-0.53564453,-0.8718872,0.1762085,-0.40625,1.90625,0.71875
1695390527785,-0.52783203,-0.850647,0.17962646,-0.296875,2.125,0.1875
1695390527818,-0.53027344,-0.8648071,0.1876831,-0.890625,2.015625,0.78125
1695390527861,-0.5292969,-0.8491821,0.1906128,-0.328125,2.03125,0.78125
1695390527906,-0.5280762,-0.85113525,0.1906128,0.265625,1.09375,1.21875
1695390527936,-0.52978516,-0.86846924,0.1954956,-0.421875,0.78125,0.75
1695390527980,-0.546875,-0.84576416,0.1918335,-1.59375,1.1875,0.5
1695390528025,-0.5241699,-0.8464966,0.17596436,-0.78125,1.3125,0.234375
1695390528055,-0.51831055,-0.8665161,0.19403076,-0.453125,0.765625,0.359375
1695390528101,-0.52368164,-0.85406494,0.16448975,-1.765625,1.328125,0.640625
1695390528146,-0.53344727,-0.8579712,0.19671631,-1.1875,1.5,0.453125
1695390528176,-0.5239258,-0.86016846,0.20892334,-1.34375,1.359375,0.515625
1695390528223,-0.5251465,-0.8496704,0.20526123,-0.953125,0.828125,0.125
1695390528265,-0.54052734,-0.8670044,0.20037842,-0.578125,2.078125,0.765625
1695390528296,-0.53564453,-0.85528564,0.19866943,-0.484375,1.4375,0.28125
1695390528340,-0.5324707,-0.8557739,0.18035889,-1.046875,0.734375,0.15625
1695390528386,-0.5402832,-0.85650635,0.20721436,-0.453125,2.0,0.078125
1695390528416,-0.5241699,-0.85650635,0.1930542,-0.671875,1.359375,0.5
1695390528460,-0.5422363,-0.8633423,0.2033081,-0.84375,1.53125,0.796875
1695390528492,-0.52124023,-0.8442993,0.20135498,-0.359375,1.4375,0.21875
1695390528538,-0.51953125,-0.8584595,0.19134521,-0.625,1.3125,0.265625
1695390528582,-0.52368164,-0.8657837,0.20550537,-0.328125,0.5,0.203125
1695390528611,-0.5324707,-0.85479736,0.18377686,-0.78125,1.703125,0.484375
1695390528656,-0.54467773,-0.8621216,0.19403076,-0.5,1.578125,0.78125
1695390528700,-0.52001953,-0.85772705,0.21624756,-0.71875,2.140625,1.15625
1695390528731,-0.4987793,-0.85528564,0.19720459,-0.765625,1.515625,0.359375
1695390528776,-0.53027344,-0.8574829,0.20672607,-1.09375,1.078125,0.71875
1695390528821,-0.5241699,-0.8591919,0.18499756,-0.5,1.34375,0.671875
1695390528852,-0.5415039,-0.8657837,0.21917725,-0.796875,0.8125,0.671875
1695390528896,-0.52441406,-0.84747314,0.20794678,-0.1875,0.484375,0.8125
1695390528942,-0.5031738,-0.86260986,0.21697998,-0.71875,0.46875,0.625
1695390528971,-0.5209961,-0.8687134,0.22113037,-1.0625,0.453125,-0.328125
1695390529016,-0.52734375,-0.83966064,0.19476318,-1.171875,0.734375,0.046875
1695390529060,-0.55371094,-0.86798096,0.20281982,0.671875,2.453125,1.328125
1695390529091,-0.51464844,-0.8526001,0.22698975,1.328125,1.3125,0.734375
1695390529135,-0.51586914,-0.8501587,0.19598389,-0.671875,1.453125,0.734375
1695390529181,-0.49902344,-0.8562622,0.21380615,-1.453125,2.171875,0.03125
1695390529211,-0.51831055,-0.8796997,0.19940186,-2.65625,0.546875,0.015625
1695390529257,-0.5258789,-0.86065674,0.2189331,-1.53125,0.921875,0.046875
1695390529285,-0.5241699,-0.8352661,0.20379639,-0.1875,0.90625,0.15625
1695390529334,-0.5185547,-0.85113525,0.21942139,0.6875,0.34375,0.890625
1695390529376,-0.5175781,-0.8623657,0.20941162,-1.3125,-0.125,0.40625
1695390529405,-0.50683594,-0.8670044,0.20428467,0.171875,-0.03125,0.3125
1695390529451,-0.5288086,-0.8713989,0.21063232,-0.6875,0.640625,0.40625
1695390529495,-0.51220703,-0.8530884,0.2243042,-0.609375,-0.390625,-0.171875
1695390529525,-0.52075195,-0.85723877,0.21331787,-0.421875,0.6875,0.140625
1695390529571,-0.52978516,-0.84088135,0.20648193,-0.8125,0.375,-0.03125
1695390529616,-0.529541,-0.86187744,0.20672607,-0.28125,1.5,-0.234375
1695390529645,-0.5241699,-0.87384033,0.21624756,0.203125,0.328125,-0.390625
1695390529691,-0.5354004,-0.8374634,0.19256592,-0.140625,1.6875,-0.421875
1695390529736,-0.52490234,-0.85528564,0.21307373,1.0,1.859375,-0.21875
1695390529765,-0.5205078,-0.8674927,0.20281982,0.53125,1.1875,0.546875
1695390529811,-0.5161133,-0.8555298,0.20672607,0.453125,0.09375,-0.546875
1695390529855,-0.5205078,-0.8616333,0.19866943,1.09375,-0.8125,-0.71875
1695390529886,-0.51660156,-0.84991455,0.20184326,0.671875,0.140625,-0.375
1695390529931,-0.5395508,-0.8579712,0.21575928,1.15625,-0.765625,-0.546875
1695390529976,-0.54663086,-0.84454346,0.19622803,1.0625,-0.953125,-0.359375
1695390530005,-0.5185547,-0.8674927,0.20281982,1.0625,-0.65625,-0.03125
1695390530051,-0.5336914,-0.8538208,0.19500732,0.84375,-0.953125,-0.25
1695390530081,-0.5341797,-0.8460083,0.17816162,0.78125,-0.171875,-0.53125
1695390530126,-0.5361328,-0.8584595,0.19989014,2.109375,-1.453125,-0.125
1695390530171,-0.5432129,-0.8574829,0.16351318,0.0625,0.359375,-0.15625
1695390530202,-0.5461426,-0.8538208,0.15350342,-0.140625,-0.5625,-0.359375
1695390530245,-0.54174805,-0.8501587,0.18011475,0.140625,1.875,-0.671875
1695390530291,-0.51708984,-0.8584595,0.20574951,0.46875,0.96875,-0.828125
1695390530322,-0.5192871,-0.85650635,0.17840576,-0.015625,-0.203125,-0.359375
1695390530366,-0.54833984,-0.8599243,0.16107178,-0.8125,0.125,-0.171875
1695390530411,-0.56152344,-0.8530884,0.18670654,-0.28125,-0.609375,0.0
1695390530441,-0.53564453,-0.84332275,0.17474365,-0.109375,0.3125,-0.71875
1695390530486,-0.56030273,-0.84552,0.18572998,0.203125,-0.578125,0.0625
1695390530531,-0.52734375,-0.848938,0.16668701,-0.171875,0.46875,-0.265625
1695390530561,-0.5571289,-0.8621216,0.1671753,-0.09375,-1.046875,-0.15625
1695390530606,-0.5390625,-0.84552,0.17059326,0.203125,-0.125,0.90625
1695390530651,-0.52612305,-0.84942627,0.16815186,0.90625,0.28125,0.65625
1695390530681,-0.5366211,-0.8530884,0.16986084,0.078125,1.046875,1.03125
1695390530725,-0.5217285,-0.8743286,0.16864014,0.125,-0.421875,0.640625
1695390530755,-0.56396484,-0.83966064,0.15252686,-0.6875,1.921875,0.765625
1695390530801,-0.5395508,-0.8369751,0.1696167,0.296875,1.96875,1.359375
1695390530846,-0.5341797,-0.8633423,0.15863037,-0.09375,1.875,0.65625
1695390530875,-0.53930664,-0.861145,0.17449951,-0.765625,0.421875,0.234375
1695390530921,-0.52734375,-0.85040283,0.17376709,-0.359375,0.453125,0.03125
1695390530966,-0.5488281,-0.850647,0.1630249,-0.71875,0.78125,-0.15625
1695390530995,-0.5578613,-0.8467407,0.18426514,-0.1875,0.8125,0.515625
1695390531040,-0.53808594,-0.8562622,0.17449951,0.6875,1.0625,0.609375
1695390531085,-0.53271484,-0.8526001,0.15887451,1.203125,-0.21875,1.125
1695390531115,-0.5437012,-0.8633423,0.1671753,1.9375,-0.5,1.296875
1695390531161,-0.5251465,-0.85943604,0.15570068,0.5,-0.046875,0.5625
1695390531206,-0.53125,-0.8735962,0.14520264,-0.9375,0.203125,0.203125
1695390531235,-0.5456543,-0.8538208,0.17889404,0.375,-1.5625,-0.265625
1695390531281,-0.545166,-0.85040283,0.13128662,-0.796875,0.546875,0.171875
1695390531325,-0.5432129,-0.8579712,0.16156006,-0.578125,2.53125,-0.03125
1695390531355,-0.54174805,-0.8726196,0.1618042,-0.6875,0.296875,0.21875
1695390531401,-0.5415039,-0.8557739,0.16351318,-0.421875,0.109375,0.25
1695390531446,-0.5371094,-0.85601807,0.15740967,-0.765625,0.96875,0.6875
1695390531475,-0.545166,-0.8460083,0.15130615,0.34375,-1.390625,0.9375
1695390531521,-0.54296875,-0.86798096,0.15179443,-0.09375,0.234375,0.796875
1695390531550,-0.53759766,-0.8491821,0.15252686,-0.328125,0.78125,0.796875
1695390531595,-0.5395508,-0.8526001,0.1486206,0.6875,-0.03125,0.84375
1695390531641,-0.52783203,-0.878479,0.15863037,0.046875,0.359375,0.96875
1695390531715,-0.5463867,-0.85943604,0.14593506,-0.59375,0.6875,0.296875
1695390531731,-0.5390625,-0.8550415,0.14788818,0.3125,0.5,0.75
1695390531761,-0.5288086,-0.85650635,0.17376709,0.234375,0.390625,0.53125
1695390531790,-0.54296875,-0.85943604,0.124938965,-1.546875,0.390625,0.0625
1695390531835,-0.54345703,-0.848938,0.14251709,-1.40625,1.171875,0.0
1695390531881,-0.5349121,-0.8718872,0.15594482,-0.734375,2.65625,0.03125
1695390531911,-0.53466797,-0.85284424,0.15618896,-1.25,2.125,0.40625
1695390531955,-0.54833984,-0.8609009,0.15203857,-0.9375,1.859375,1.25
1695390532001,-0.517334,-0.8640747,0.168396,-1.71875,2.109375,1.40625
1695390532031,-0.52978516,-0.8599243,0.16790771,-0.84375,0.53125,0.234375
1695390532075,-0.5292969,-0.85821533,0.17254639,-0.859375,1.765625,0.65625
1695390532151,-0.53881836,-0.84991455,0.1630249,-0.4375,1.1875,0.40625
1695390532153,-0.54052734,-0.86553955,0.15570068,-0.203125,1.484375,1.078125
1695390532195,-0.5383301,-0.8609009,0.14813232,-0.328125,1.59375,0.53125
1695390532226,-0.5349121,-0.8574829,0.14593506,-0.65625,0.8125,0.1875
1695390532270,-0.51586914,-0.8555298,0.17572021,-0.15625,0.390625,0.125
1695390532315,-0.5305176,-0.85601807,0.13665771,-1.9375,1.59375,0.1875
1695390532346,-0.5292969,-0.85723877,0.16375732,-0.625,2.171875,0.0625
1695390532390,-0.52001953,-0.88165283,0.18548584,-0.609375,1.40625,0.421875
1695390532435,-0.5366211,-0.8652954,0.1642456,-1.28125,1.375,0.46875
1695390532466,-0.53564453,-0.8579712,0.16571045,-0.53125,0.84375,0.53125
1695390532511,-0.53271484,-0.8521118,0.16473389,-0.9375,2.0625,0.671875
1695390532555,-0.53393555,-0.85772705,0.1618042,-0.46875,1.484375,-0.140625
1695390532586,-0.5222168,-0.8543091,0.16790771,-0.046875,1.125,0.609375
1695390532630,-0.5437012,-0.86187744,0.17352295,-0.59375,0.796875,0.921875
1695390532675,-0.53344727,-0.866272,0.16473389,-1.203125,0.96875,0.5
1695390532706,-0.5419922,-0.8545532,0.15911865,-0.671875,1.375,0.671875
1695390532750,-0.54125977,-0.86187744,0.1774292,-0.59375,1.859375,0.78125
1695390532796,-0.5300293,-0.8587036,0.18060303,0.53125,0.28125,0.875
1695390532826,-0.52978516,-0.86187744,0.14544678,-0.78125,2.96875,0.890625
1695390532871,-0.5161133,-0.864563,0.17376709,-0.0625,2.375,0.359375
1695390532915,-0.5288086,-0.8569946,0.17401123,0.375,1.59375,0.5
1695390532946,-0.5270996,-0.87384033,0.17547607,0.359375,1.09375,0.8125
1695390532990,-0.52685547,-0.85357666,0.16815186,-0.59375,2.203125,0.625
1695390533021,-0.53149414,-0.86846924,0.15960693,-0.34375,1.625,0.28125
1695390533066,-0.52612305,-0.8604126,0.1696167,-0.359375,1.6875,0.421875
1695390533110,-0.48535156,-0.8550415,0.17767334,0.734375,1.28125,0.25
1695390533140,-0.5246582,-0.8814087,0.1906128,-0.90625,0.78125,0.859375
1695390533187,-0.52490234,-0.8633423,0.15887451,-2.0625,0.625,0.578125
1695390533231,-0.5227051,-0.84991455,0.18255615,-1.671875,1.03125,-0.21875
1695390533260,-0.5205078,-0.84820557,0.17034912,-0.390625,0.40625,0.09375
1695390533306,-0.5241699,-0.87750244,0.19232178,0.171875,0.546875,0.53125
1695390533350,-0.5305176,-0.8677368,0.15789795,-1.703125,2.1875,0.59375
1695390533380,-0.50805664,-0.8423462,0.17572021,0.109375,1.890625,-0.015625
1695390533426,-0.5410156,-0.8735962,0.17132568,0.53125,1.140625,1.421875
1695390533470,-0.53222656,-0.8731079,0.18328857,-0.484375,1.421875,1.140625
1695390533500,-0.5180664,-0.85162354,0.15496826,-0.40625,0.90625,0.65625
1695390533546,-0.5332031,-0.8735962,0.18328857,-0.53125,-0.3125,0.9375
1695390533590,-0.52441406,-0.8689575,0.16082764,-1.03125,0.3125,1.375
1695390533621,-0.5041504,-0.85943604,0.17156982,-0.140625,-0.046875,0.8125
1695390533666,-0.5319824,-0.86676025,0.17718506,-0.078125,-2.171875,1.828125
1695390533696,-0.5131836,-0.8699341,0.16986084,-0.546875,-0.125,0.484375
1695390533740,-0.48413086,-0.87164307,0.18377686,-1.109375,-1.21875,0.46875
1695390533785,-0.54467773,-0.88116455,0.17962646,-1.125,-0.65625,1.03125
1695390533815,-0.5161133,-0.8814087,0.17816162,-0.046875,-0.84375,0.96875
1695390533860,-0.51293945,-0.85772705,0.16595459,-0.1875,0.140625,1.953125
1695390533906,-0.5246582,-0.8711548,0.16400146,-0.25,2.640625,2.65625
1695390533936,-0.4963379,-0.84454346,0.16986084,0.328125,0.890625,1.078125
1695390533981,-0.532959,-0.8616333,0.17279053,-0.546875,2.8125,0.390625
1695390534027,-0.5124512,-0.8804321,0.17938232,0.921875,0.078125,-0.6875
1695390534056,-0.5083008,-0.8779907,0.15716553,-1.171875,0.0625,0.171875
1695390534100,-0.51782227,-0.8789673,0.16033936,-1.359375,-0.5625,-1.109375
1695390534146,-0.50561523,-0.88238525,0.16278076,-2.734375,0.59375,-0.546875
1695390534175,-0.5083008,-0.87506104,0.1564331,-2.140625,-0.296875,-0.171875
1695390534220,-0.5,-0.8579712,0.16888428,-1.4375,0.40625,-0.328125
1695390534267,-0.4987793,-0.82940674,0.18548584,-2.28125,0.90625,-0.015625
1695390534296,-0.53759766,-0.8699341,0.19329834,-0.171875,0.34375,0.109375
1695390534342,-0.515625,-0.88897705,0.20404053,0.203125,-0.578125,-0.53125
1695390534415,-0.5046387,-0.8464966,0.1395874,-1.9375,1.515625,-0.3125
1695390534430,-0.51831055,-0.8599243,0.1942749,-2.265625,2.078125,-0.1875
1695390534461,-0.51464844,-0.8987427,0.1786499,-1.265625,2.0,0.828125
1695390534491,-0.51586914,-0.8555298,0.16497803,0.28125,1.046875,1.15625
1695390534535,-0.52490234,-0.87701416,0.18719482,-0.0625,1.6875,1.265625
1695390534580,-0.5344238,-0.86968994,0.17816162,-0.140625,1.890625,1.671875
1695390534611,-0.5168457,-0.8779907,0.16668701,-0.4375,2.921875,1.484375
1695390534656,-0.51586914,-0.86968994,0.18499756,-0.109375,1.390625,0.84375
1695390534702,-0.49389648,-0.8694458,0.18011475,-0.921875,0.828125,0.59375
1695390534731,-0.5107422,-0.8674927,0.19232178,-0.609375,2.4375,0.984375
1695390534775,-0.5136719,-0.8621216,0.19281006,0.078125,1.828125,0.9375
1695390534821,-0.51904297,-0.8831177,0.17767334,-0.4375,1.15625,0.375
1695390534851,-0.4921875,-0.86846924,0.19207764,-0.6875,0.28125,0.578125
1695390534895,-0.5209961,-0.8682251,0.16229248,-1.03125,0.78125,-0.015625
1695390534940,-0.49926758,-0.86553955,0.19989014,-1.453125,1.234375,-0.21875
1695390534971,-0.5192871,-0.87384033,0.18963623,-0.34375,0.703125,0.546875
1695390535016,-0.49658203,-0.8657837,0.1798706,-0.328125,-0.015625,0.5625
1695390535061,-0.5168457,-0.8652954,0.17645264,0.140625,-0.296875,0.328125
1695390535091,-0.49658203,-0.87994385,0.18231201,-0.828125,-0.4375,0.140625
1695390535136,-0.5234375,-0.8587036,0.18792725,-0.234375,-0.6875,-0.046875
1695390535165,-0.513916,-0.8706665,0.17694092,0.65625,-1.390625,-0.25
1695390535210,-0.5144043,-0.8694458,0.19207764,1.0,-0.9375,0.109375
1695390535256,-0.51660156,-0.86383057,0.17645264,0.1875,-0.484375,-0.125
1695390535285,-0.5061035,-0.86676025,0.1774292,-0.484375,-0.046875,0.171875
1695390535333,-0.52197266,-0.866272,0.17327881,-0.171875,0.59375,0.015625
1695390535377,-0.5187988,-0.8867798,0.1605835,-1.828125,1.15625,1.125
1695390535406,-0.51416016,-0.8491821,0.16864014,-0.9375,1.4375,0.453125
1695390535451,-0.50878906,-0.8735962,0.17816162,-0.125,0.671875,0.375
1695390535496,-0.50439453,-0.8670044,0.17059326,-0.015625,0.875,0.71875
1695390535525,-0.51342773,-0.8718872,0.17669678,0.015625,0.28125,0.5625
1695390535570,-0.49853516,-0.86553955,0.16375732,-0.953125,0.8125,0.3125
1695390535615,-0.5175781,-0.8753052,0.18157959,-0.46875,0.3125,0.171875
1695390535645,-0.51464844,-0.87872314,0.16912842,-1.328125,1.203125,0.515625
1695390535691,-0.51049805,-0.8616333,0.17791748,-0.015625,0.40625,0.65625
1695390535736,-0.5058594,-0.8689575,0.17938232,-0.46875,0.75,0.234375
1695390535765,-0.51464844,-0.8779907,0.17962646,-0.640625,1.75,0.328125
1695390535812,-0.51220703,-0.8855591,0.1774292,-0.1875,1.234375,0.5
1695390535856,-0.5109863,-0.8604126,0.19451904,-0.34375,2.359375,0.625
1695390535885,-0.5095215,-0.8845825,0.17059326,-1.703125,5.296875,1.125
1695390535931,-0.50439453,-0.8640747,0.1774292,1.1875,0.9375,0.671875
1695390535960,-0.5019531,-0.87213135,0.19573975,1.03125,1.140625,0.28125
1695390536006,-0.51953125,-0.8740845,0.16912842,0.46875,-0.171875,-0.40625
1695390536051,-0.5085449,-0.8723755,0.16790771,0.359375,0.515625,-0.125
1695390536080,-0.5083008,-0.8640747,0.17132568,1.25,0.671875,-0.21875
1695390536126,-0.5197754,-0.8921509,0.17327881,1.703125,-0.640625,0.1875
1695390536171,-0.5073242,-0.84576416,0.15179443,1.0625,-0.109375,0.234375
1695390536201,-0.5175781,-0.8789673,0.18426514,1.734375,-1.078125,0.609375
1695390536245,-0.5124512,-0.87872314,0.16156006,1.078125,-0.203125,0.546875
1695390536290,-0.51171875,-0.86138916,0.15252686,1.390625,-0.234375,0.8125
1695390536320,-0.51293945,-0.88165283,0.1552124,1.640625,-0.28125,1.140625
1695390536365,-0.50390625,-0.881897,0.15228271,2.171875,-1.75,1.046875
1695390536411,-0.5019531,-0.8428345,0.13812256,1.34375,-0.484375,1.28125
1695390536440,-0.5097656,-0.88360596,0.16082764,2.359375,-0.34375,1.1875
1695390536485,-0.5085449,-0.86846924,0.14007568,2.671875,-1.328125,2.21875
1695390536531,-0.5163574,-0.8711548,0.13616943,2.921875,-0.328125,2.34375
1695390536560,-0.51171875,-0.8845825,0.14691162,3.453125,-1.46875,3.375
1695390536606,-0.48461914,-0.89019775,0.105163574,5.390625,-3.546875,3.828125
1695390536650,-0.5036621,-0.8640747,0.11859131,4.296875,-1.890625,3.734375
1695390536680,-0.49560547,-0.90411377,0.10882568,5.0,-4.53125,4.5
1695390536726,-0.48217773,-0.8814087,0.09295654,5.859375,-4.75,4.40625
1695390536755,-0.46923828,-0.8870239,0.1005249,5.6875,-4.375,4.046875
1695390536800,-0.4711914,-0.89190674,0.094177246,6.328125,-5.625,4.234375
1695390536845,-0.46679688,-0.89508057,0.06854248,4.875,-4.0625,3.828125
1695390536875,-0.46850586,-0.92266846,0.058288574,4.65625,-3.265625,5.0
1695390536920,-0.44555664,-0.9072876,0.039001465,3.9375,-1.34375,4.78125
1695390536965,-0.45263672,-0.91973877,0.03363037,4.53125,-1.671875,5.328125
1695390536995,-0.4494629,-0.9192505,0.014099121,5.28125,-1.640625,4.234375
1695390537040,-0.43530273,-0.90802,0.016784668,3.59375,-1.78125,2.734375
1695390537086,-0.43945312,-0.9019165,0.0045776367,1.890625,-0.046875,2.25
1695390537115,-0.46142578,-0.9492798,-0.012268066,1.484375,-0.640625,1.921875
1695390537160,-0.4375,-0.91290283,0.0026245117,2.140625,-1.140625,2.421875
1695390537206,-0.45751953,-0.9104614,-0.0115356445,1.9375,-0.9375,2.09375
1695390537235,-0.42871094,-0.90460205,0.0018920898,0.375,0.125,0.9375
1695390537280,-0.44433594,-0.925354,-0.004699707,0.71875,-0.125,0.21875
1695390537326,-0.43408203,-0.9221802,-0.005432129,-0.046875,0.59375,0.3125
1695390537355,-0.43188477,-0.9365845,0.016784668,0.28125,0.234375,0.828125
1695390537400,-0.42456055,-0.9168091,-0.023498535,-0.984375,1.484375,0.96875
1695390537430,-0.4333496,-0.9331665,0.011413574,-0.984375,0.96875,0.875
1695390537476,-0.42773438,-0.9221802,-0.01739502,-1.28125,1.6875,1.484375
1695390537520,-0.4267578,-0.9221802,0.008972168,-0.59375,0.828125,1.453125
1695390537550,-0.42358398,-0.91070557,0.0065307617,-0.234375,1.3125,0.90625
1695390537596,-0.4296875,-0.925354,0.0138549805,-0.375,1.5625,0.921875
1695390537640,-0.43530273,-0.9360962,0.0016479492,-0.21875,1.75,1.1875
1695390537670,-0.43481445,-0.92974854,0.0040893555,0.359375,0.875,1.96875
1695390537716,-0.4284668,-0.92437744,-0.008605957,1.453125,-0.734375,1.734375
1695390537760,-0.42749023,-0.91485596,0.010437012,0.375,0.890625,1.65625
1695390537790,-0.42138672,-0.92071533,-0.00592041,0.46875,0.03125,1.15625
1695390537835,-0.43066406,-0.9241333,-0.0020141602,-0.25,1.640625,0.515625
1695390537880,-0.421875,-0.9258423,-0.0115356445,0.609375,1.46875,0.703125
1695390537910,-0.42407227,-0.9246216,-0.003479004,0.703125,2.5,1.0625
1695390537955,-0.41845703,-0.940979,-0.002746582,1.90625,1.890625,1.359375
1695390538000,-0.4309082,-0.9192505,-0.018615723,2.640625,1.765625,3.4375
1695390538031,-0.41235352,-0.9343872,-0.023010254,1.96875,2.265625,3.734375
1695390538076,-0.43823242,-0.93756104,-0.013244629,2.421875,0.9375,4.15625
1695390538120,-0.38842773,-0.93707275,-0.01739502,1.171875,1.609375,2.9375
1695390538150,-0.40649414,-0.9299927,-0.034973145,0.671875,1.625,2.34375
1695390538195,-0.39331055,-0.9282837,-0.014709473,0.328125,1.84375,1.671875
1695390538227,-0.40576172,-0.93829346,-0.02520752,0.453125,2.0,1.734375
1695390538270,-0.38964844,-0.95318604,-0.032287598,-0.296875,2.0,2.015625
1695390538315,-0.3876953,-0.9192505,-0.006652832,-1.375,2.65625,1.640625
1695390538347,-0.38964844,-0.94195557,-0.012512207,0.3125,1.4375,2.28125
1695390538390,-0.39086914,-0.927063,-0.020812988,-0.078125,2.5,3.6875
1695390538435,-0.4050293,-0.9417114,-0.018615723,1.28125,2.078125,3.875
1695390538465,-0.40234375,-0.96099854,-0.014953613,1.609375,1.1875,5.078125
1695390538510,-0.38256836,-0.95880127,-0.038146973,0.203125,0.53125,3.34375
1695390538555,-0.36132812,-0.92510986,-0.025939941,-2.078125,1.4375,3.0
1695390538587,-0.3515625,-0.95025635,-0.05255127,-2.625,0.734375,1.828125
1695390538630,-0.35766602,-0.9360962,-0.03375244,-4.3125,0.953125,1.203125
1695390538675,-0.3605957,-0.9451294,-0.023986816,-5.515625,1.84375,-0.25
1695390538707,-0.36328125,-0.9602661,-0.0005493164,-6.859375,2.59375,-0.859375
1695390538751,-0.35498047,-0.95147705,0.0053100586,-7.203125,4.21875,-3.234375
1695390538796,-0.35888672,-0.93634033,0.034606934,-8.09375,4.90625,-5.65625
1695390538826,-0.38500977,-0.9180298,0.03729248,-8.125,6.796875,-6.359375
1695390538870,-0.3798828,-0.9619751,0.07952881,-6.515625,5.125,-5.921875
1695390538901,-0.41186523,-0.9067993,0.055358887,-8.9375,6.96875,-4.8125
1695390538946,-0.4165039,-0.94195557,0.07562256,-6.28125,8.34375,-3.375
1695390538991,-0.40625,-0.9002075,0.10443115,-4.75,6.984375,-1.09375
1695390539022,-0.4111328,-0.8858032,0.097351074,-2.359375,7.609375,1.359375
1695390539067,-0.4255371,-0.9348755,0.1083374,-0.59375,6.671875,2.0
1695390539110,-0.38378906,-0.94488525,0.08050537,-2.15625,7.453125,0.28125
1695390539141,-0.39697266,-0.9373169,0.10491943,-1.578125,5.875,-0.0625
1695390539186,-0.3972168,-0.91363525,0.10491943,-1.046875,4.796875,-0.53125
1695390539230,-0.39526367,-0.94122314,0.093688965,-0.203125,3.578125,-0.015625
1695390539260,-0.39160156,-0.944397,0.09442139,-0.3125,3.125,0.5625
1695390539307,-0.38110352,-0.9373169,0.094177246,-0.78125,3.015625,0.265625
1695390539350,-0.40625,-0.93585205,0.11541748,-1.34375,1.703125,0.15625
1695390539382,-0.38916016,-0.9194946,0.1281128,-1.71875,4.046875,-0.625
1695390539427,-0.3935547,-0.9258423,0.11029053,-1.515625,3.125,-0.734375
1695390539470,-0.40893555,-0.925354,0.12322998,-1.03125,2.859375,-1.28125
1695390539500,-0.39819336,-0.97003174,0.12322998,-0.9375,1.34375,-1.625
1695390539546,-0.40600586,-0.91778564,0.11932373,-2.421875,1.671875,-1.75
1695390539590,-0.40820312,-0.909729,0.1227417,-1.578125,1.453125,-1.171875
1695390539620,-0.4165039,-0.9182739,0.12689209,-2.46875,2.03125,-1.40625
1695390539665,-0.41723633,-0.9221802,0.117370605,-2.296875,2.4375,-2.53125
1695390539696,-0.421875,-0.9290161,0.14129639,-1.6875,2.1875,-2.609375
1695390539741,-0.43408203,-0.9175415,0.13568115,-1.484375,1.453125,-2.125
1695390539787,-0.39648438,-0.91900635,0.12738037,-1.765625,2.609375,-2.453125
1695390539816,-0.42163086,-0.92022705,0.13446045,-2.1875,0.390625,-2.265625
1695390539860,-0.42358398,-0.928772,0.12835693,-2.859375,1.21875,-1.453125
1695390539910,-0.453125,-0.9187622,0.13983154,-2.6875,0.203125,-1.640625
1695390539935,-0.44213867,-0.9048462,0.15667725,-1.921875,-1.015625,-2.546875
1695390539980,-0.45117188,-0.8970337,0.13446045,-2.078125,-1.046875,-2.125
1695390540027,-0.4404297,-0.8936157,0.14520264,-1.421875,0.390625,-2.1875
1695390540056,-0.44702148,-0.911438,0.15740967,-1.359375,0.234375,-1.953125
1695390540101,-0.44848633,-0.9151001,0.1593628,-1.625,0.28125,-1.828125
1695390540147,-0.45629883,-0.9006958,0.1395874,-1.265625,-0.609375,-1.875
1695390540176,-0.45532227,-0.8875122,0.14691162,-1.140625,-0.109375,-1.453125
1695390540221,-0.46411133,-0.9031372,0.1539917,-0.640625,-0.265625,-1.3125
1695390540267,-0.46264648,-0.9038696,0.14813232,-0.265625,-0.59375,-0.796875
1695390540295,-0.47558594,-0.8928833,0.14910889,0.0625,-0.375,-0.75
1695390540340,-0.46118164,-0.90460205,0.14324951,-0.015625,-0.75,-0.921875
1695390540371,-0.4711914,-0.8965454,0.15472412,-0.203125,0.0625,-0.875
1695390540415,-0.45239258,-0.9055786,0.14837646,0.015625,-0.109375,-0.96875
1695390540461,-0.46777344,-0.8933716,0.1329956,-1.109375,-0.953125,-0.1875
1695390540491,-0.47045898,-0.894104,0.13934326,-0.578125,1.109375,-0.328125
1695390540535,-0.4807129,-0.88653564,0.12713623,-0.40625,0.0,0.359375
1695390540580,-0.48364258,-0.89971924,0.13543701,0.375,2.515625,0.4375
1695390540611,-0.48510742,-0.90997314,0.15716553,0.359375,2.015625,0.734375
1695390540655,-0.4645996,-0.8994751,0.1329956,0.15625,0.5,0.53125
1695390540700,-0.46484375,-0.89508057,0.13519287,0.359375,1.546875,0.109375
1695390540731,-0.4729004,-0.90216064,0.13275146,-0.46875,0.8125,-0.0625
1695390540775,-0.4567871,-0.8970337,0.14569092,-0.140625,0.921875,-0.78125
1695390540821,-0.46948242,-0.9006958,0.14007568,-0.21875,0.34375,-0.34375
1695390540851,-0.45361328,-0.8936157,0.1437378,-0.390625,-0.140625,-0.46875
1695390540895,-0.46801758,-0.89678955,0.13739014,-1.25,-0.796875,-0.65625
1695390540941,-0.4794922,-0.89068604,0.13787842,-0.625,-0.125,-0.28125
1695390540971,-0.47875977,-0.9102173,0.14154053,-0.359375,0.109375,-0.171875
1695390541015,-0.48779297,-0.8960571,0.124694824,-0.796875,-0.328125,-0.03125
1695390541061,-0.4633789,-0.8855591,0.13739014,-0.59375,0.171875,-0.3125
1695390541091,-0.4729004,-0.8899536,0.1281128,-0.71875,-0.078125,-0.6875
1695390541135,-0.48046875,-0.88775635,0.13397217,-0.46875,1.640625,-0.625
1695390541165,-0.48120117,-0.89630127,0.13616943,-0.9375,0.40625,-0.25
1695390541211,-0.47314453,-0.8855591,0.13372803,-1.109375,0.625,-0.265625
1695390541255,-0.47387695,-0.88287354,0.11907959,-1.53125,-0.234375,0.015625
1695390541285,-0.48095703,-0.88482666,0.13494873,-1.265625,0.765625,0.078125
1695390541330,-0.47924805,-0.8909302,0.13690186,-1.03125,1.265625,0.140625
1695390541375,-0.48388672,-0.89630127,0.15374756,0.0625,2.328125,0.671875
1695390541405,-0.46606445,-0.90753174,0.1486206,-0.21875,0.1875,1.125
1695390541450,-0.49243164,-0.89385986,0.14544678,-0.078125,-0.203125,1.1875
1695390541495,-0.46557617,-0.894104,0.13421631,-0.875,0.328125,1.125
1695390541525,-0.49560547,-0.88775635,0.13031006,-1.3125,2.171875,0.53125
1695390541571,-0.46972656,-0.89678955,0.13812256,-0.25,2.078125,0.0
1695390541615,-0.4675293,-0.8880005,0.16204834,0.203125,1.0625,0.09375
1695390541645,-0.46728516,-0.892395,0.1161499,-0.96875,0.84375,-0.015625
1695390541691,-0.4675293,-0.88360596,0.1305542,-0.90625,1.3125,0.0625
1695390541735,-0.46972656,-0.88409424,0.14935303,-1.421875,1.0625,-0.109375
1695390541766,-0.48388672,-0.89019775,0.15130615,-1.0,0.453125,0.015625
1695390541810,-0.4724121,-0.90753174,0.1281128,-1.53125,0.484375,-0.390625
1695390541855,-0.47802734,-0.88238525,0.14666748,-1.28125,-0.71875,-0.15625
1695390541885,-0.46948242,-0.8921509,0.14105225,-1.828125,-0.03125,-0.28125
1695390541930,-0.47485352,-0.8792114,0.14666748,-1.046875,0.484375,-0.59375
1695390541960,-0.48413086,-0.8916626,0.15301514,-1.625,0.3125,-0.734375
1695390542005,-0.49291992,-0.9014282,0.152771,-1.609375,-0.28125,-1.609375
1695390542051,-0.47998047,-0.87677,0.14105225,-2.046875,0.21875,-1.3125
1695390542080,-0.4963379,-0.89019775,0.16693115,-1.40625,0.78125,-0.828125
1695390542126,-0.4855957,-0.88409424,0.15325928,-1.84375,1.03125,-1.09375
1695390542170,-0.50439453,-0.9011841,0.15863037,-0.9375,0.15625,0.21875
1695390542200,-0.49902344,-0.88531494,0.13153076,-0.671875,1.515625,0.046875
1695390542245,-0.49389648,-0.88946533,0.17401123,-0.203125,1.640625,0.546875
1695390542290,-0.48388672,-0.8789673,0.14764404,-1.046875,1.9375,0.328125
1695390542320,-0.49853516,-0.8858032,0.14837646,-0.640625,1.453125,0.671875
