timestamp,accel_x,accel_y,accel_z,gyro_x,gyro_y,gyro_z,ind
1695387840694,-0.4086914,-0.95635986,0.117126465,5.5625,2.375,-0.546875,136
1695387840734,-0.40161133,-0.9741821,0.07977295,3.90625,7.984375,0.03125,137
1695387840774,-0.3684082,-0.94659424,0.06097412,3.8125,9.578125,0.171875,138
1695387840814,-0.36743164,-0.9602661,0.089538574,4.1875,8.234375,1.96875,139
1695387840854,-0.3618164,-0.9492798,0.08734131,2.4375,7.6875,2.765625,140
1695387840894,-0.3413086,-0.9397583,0.06585693,0.78125,6.40625,2.828125,141
1695387840934,-0.37426758,-0.94317627,0.07952881,0.828125,3.5,2.28125,142
1695387840974,-0.34521484,-0.98150635,0.07904053,-0.515625,3.1875,2.078125,143
1695387841014,-0.32080078,-0.93218994,0.08856201,-1.828125,0.28125,2.78125,144
1695387841054,-0.3479004,-0.9390259,0.066589355,-2.984375,-0.953125,1.015625,145
1695387841094,-0.34521484,-0.93170166,0.0993042,-1.625,-3.421875,0.59375,146
1695387841134,-0.3696289,-0.95562744,0.09442139,-2.203125,-3.234375,-0.140625,147
1695387841174,-0.36987305,-0.94610596,0.0914917,-2.234375,-2.828125,-0.3125,148
1695387841214,-0.39208984,-0.9529419,0.11175537,-1.25,-1.71875,-0.125,149
1695387841254,-0.36816406,-0.942688,0.105895996,-1.609375,0.34375,-0.390625,150
1695387841294,-0.36206055,-0.93048096,0.07733154,-1.75,1.25,-0.625,151
1695387841334,-0.36816406,-0.93951416,0.07684326,-0.921875,2.265625,-1.390625,152
1695387841374,-0.3713379,-0.95562744,0.112976074,0.53125,1.859375,-0.953125,153
1695387841414,-0.3466797,-0.94488525,0.101745605,-0.953125,2.265625,-0.515625,154
1695387841454,-0.3557129,-0.95098877,0.109558105,-0.34375,1.046875,-0.328125,155
1695387841494,-0.34985352,-0.9487915,0.10491943,-0.390625,0.3125,-0.53125,156
1695387841534,-0.3503418,-0.9517212,0.09295654,-0.953125,-1.359375,-0.375,157
1695387841574,-0.36572266,-0.94854736,0.097351074,-0.53125,-1.53125,-0.09375,158
1695387841614,-0.3671875,-0.9517212,0.098083496,-1.40625,-1.796875,0.03125,159
1695387841654,-0.37109375,-0.94000244,0.093688965,-0.9375,-2.09375,0.578125,160
1695387841694,-0.3701172,-0.95025635,0.09881592,-1.21875,-1.8125,0.484375,161
1695387841734,-0.3696289,-0.9380493,0.0914917,-2.078125,-1.421875,0.109375,162
1695387841774,-0.36694336,-0.9326782,0.105407715,-1.390625,-1.328125,0.203125,163
1695387841814,-0.38378906,-0.9529419,0.0993042,-2.0,-1.234375,0.296875,164
1695387841854,-0.3869629,-0.9578247,0.10638428,-1.15625,-0.46875,0.515625,165
1695387841894,-0.37890625,-0.9402466,0.101501465,-1.375,0.375,0.671875,166
1695387841934,-0.36547852,-0.927063,0.09686279,-0.78125,0.65625,0.53125,167
1695387841974,-0.38500977,-0.9517212,0.10443115,0.671875,0.515625,0.984375,168
1695387842014,-0.36450195,-0.94976807,0.098083496,0.046875,0.265625,0.3125,169
1695387842054,-0.3720703,-0.9429321,0.11199951,0.984375,1.1875,0.46875,170
1695387842094,-0.38061523,-0.9512329,0.11566162,-0.015625,3.875,0.203125,171
1695387842134,-0.3786621,-0.9446411,0.11102295,-0.640625,5.203125,-0.375,172
1695387842174,-0.38208008,-0.93829346,0.097351074,-1.078125,2.71875,-1.1875,173
1695387842214,-0.37353516,-0.9417114,0.13201904,-2.328125,5.015625,-0.921875,174
1695387842254,-0.38476562,-0.928772,0.10247803,-1.828125,4.53125,-0.65625,175
1695387842294,-0.37475586,-0.93170166,0.11419678,-1.96875,3.140625,-1.765625,176
1695387842334,-0.3779297,-0.9277954,0.11956787,-1.265625,2.71875,-0.796875,177
1695387842374,-0.37475586,-0.9348755,0.10662842,0.03125,2.765625,-0.171875,178
1695387842414,-0.36450195,-0.9319458,0.10418701,0.5625,0.96875,-0.03125,179
1695387842454,-0.37451172,-0.93170166,0.11468506,1.484375,1.0625,-0.125,180
1695387842494,-0.3881836,-0.940979,0.12347412,0.828125,2.15625,0.328125,181
1695387842534,-0.38256836,-0.9378052,0.08807373,0.671875,2.140625,-0.09375,182
1695387842574,-0.37060547,-0.93829346,0.11248779,1.78125,0.890625,0.125,183
1695387842614,-0.37573242,-0.9360962,0.105407715,1.640625,0.109375,0.484375,184
1695387842654,-0.38598633,-0.9248657,0.10760498,2.125,-1.0,1.0625,185
1695387842694,-0.39111328,-0.9492798,0.113220215,1.71875,-1.40625,1.21875,186
1695387842734,-0.38989258,-0.95635986,0.101257324,1.109375,-0.859375,2.546875,187
1695387842774,-0.35913086,-0.9204712,0.09222412,1.265625,-0.140625,2.609375,188
1695387842814,-0.38330078,-0.96417236,0.11590576,1.265625,-1.28125,2.046875,189
1695387842854,-0.3527832,-0.9470825,0.07537842,0.0625,-0.734375,1.71875,190
1695387842894,-0.34936523,-0.93878174,0.07562256,0.6875,-0.984375,0.78125,191
1695387842934,-0.3503418,-0.956604,0.07196045,0.421875,-1.78125,0.484375,192
1695387842974,-0.3503418,-0.94610596,0.078308105,-0.171875,-1.078125,-0.5,193
1695387843014,-0.35595703,-0.96661377,0.054138184,-0.890625,-0.28125,-1.078125,194
1695387843054,-0.3557129,-0.95391846,0.0914917,-1.765625,-1.578125,-1.890625,195
1695387843094,-0.37695312,-0.9558716,0.06121826,-3.296875,-0.078125,-2.4375,196
1695387843134,-0.3388672,-0.9053345,0.043395996,-3.703125,1.96875,-1.921875,197
1695387843174,-0.4091797,-0.9277954,0.12420654,0.703125,1.375,-0.1875,198
1695387843214,-0.42236328,-0.9763794,0.11859131,1.71875,1.21875,1.140625,199
1695387843254,-0.37719727,-0.94537354,0.08465576,2.0625,1.390625,1.265625,200
1695387843294,-0.39135742,-0.94000244,0.08831787,2.296875,1.046875,1.84375,201
1695387843334,-0.3786621,-0.93707275,0.07537842,1.8125,1.625,2.125,202
1695387843374,-0.3881836,-0.9492798,0.06317139,1.125,2.03125,1.453125,203
1695387843414,-0.38354492,-0.96539307,0.07318115,-0.515625,3.078125,0.65625,204
1695387843454,-0.3564453,-0.9446411,0.05657959,-1.9375,4.296875,0.59375,205
1695387843494,-0.33422852,-0.9290161,0.059509277,-0.828125,2.796875,0.453125,206
1695387843534,-0.36816406,-0.94537354,0.097351074,-0.140625,0.453125,-0.53125,207
1695387843574,-0.36010742,-0.9351196,0.08856201,0.546875,0.015625,0.21875,208
1695387843614,-0.3798828,-0.9624634,0.08123779,1.890625,-1.046875,0.125,209
1695387843654,-0.38598633,-0.95025635,0.09564209,0.8125,-0.09375,-0.96875,210
1695387843694,-0.3684082,-0.92681885,0.059020996,0.40625,0.734375,-1.5625,211
1695387843734,-0.36328125,-0.94073486,0.05291748,0.8125,2.296875,-1.890625,212
1695387843774,-0.38232422,-0.9524536,0.08416748,1.4375,1.765625,-1.5,213
1695387843814,-0.38964844,-0.94659424,0.07562256,0.328125,1.4375,-0.703125,214
1695387843854,-0.3959961,-0.96051025,0.066833496,-1.84375,2.640625,-1.203125,215
1695387843894,-0.3762207,-0.9224243,0.06561279,-2.625,1.53125,-2.71875,216
1695387843934,-0.33398438,-0.8936157,0.06048584,-0.75,0.046875,-3.125,217
1695387843974,-0.43920898,-0.9883423,0.12176514,0.375,0.296875,-1.640625,218
1695387844014,-0.38916016,-0.9578247,0.059509277,-1.109375,1.953125,0.65625,219
1695387844054,-0.45117188,-0.9614868,0.11126709,-1.90625,4.40625,2.375,220
1695387844094,-0.37695312,-0.9216919,0.04046631,-3.171875,5.265625,3.375,221
1695387844134,-0.35986328,-0.9360962,0.078063965,-1.546875,1.453125,2.453125,222
1695387844174,-0.3852539,-0.9378052,0.09564209,-2.859375,1.84375,2.296875,223
1695387844214,-0.3540039,-0.90826416,0.06561279,-0.921875,0.15625,0.84375,224
1695387844254,-0.40014648,-0.9402466,0.09613037,0.09375,-0.640625,0.734375,225
1695387844294,-0.40551758,-0.9553833,0.090270996,-0.328125,0.734375,0.0625,226
1695387844334,-0.36254883,-0.9212036,0.050964355,0.0,1.09375,-0.609375,227
1695387844374,-0.38867188,-0.93536377,0.08831787,1.484375,0.3125,-1.09375,228
1695387844414,-0.37646484,-0.9368286,0.085632324,0.734375,1.078125,-1.0,229
1695387844454,-0.3869629,-0.9487915,0.09515381,0.203125,1.21875,-0.390625,230
1695387844494,-0.39526367,-0.9483032,0.08734131,0.28125,1.09375,-0.46875,231
1695387844534,-0.38867188,-0.94537354,0.07879639,-0.09375,0.671875,-0.359375,232
1695387844574,-0.3857422,-0.9456177,0.07904053,-0.203125,0.53125,-0.03125,233
1695387844614,-0.37597656,-0.942688,0.07366943,0.0,0.625,0.21875,234
1695387844654,-0.38012695,-0.9529419,0.07733154,-0.515625,0.328125,0.03125,235
1695387844694,-0.38867188,-0.93878174,0.08538818,-0.953125,0.484375,0.484375,236
1695387844734,-0.39135742,-0.93536377,0.07757568,-1.5,1.421875,0.75,237
1695387844774,-0.3828125,-0.9417114,0.093444824,-0.890625,0.453125,0.875,238
1695387844814,-0.39013672,-0.9314575,0.09100342,-0.390625,-0.140625,1.125,239
1695387844854,-0.37475586,-0.9368286,0.086364746,-0.140625,0.15625,1.0625,240
1695387844894,-0.39208984,-0.9507446,0.09197998,-0.625,-0.0625,0.90625,241
1695387844934,-0.3647461,-0.94122314,0.06365967,-1.25,-0.46875,0.4375,242
1695387844974,-0.37670898,-0.9324341,0.07366943,-0.8125,-0.515625,0.828125,243
1695387845014,-0.39379883,-0.9365845,0.08880615,-1.96875,-0.53125,0.28125,244
1695387845054,-0.38354492,-0.9299927,0.08685303,-1.0625,0.09375,1.078125,245
1695387845094,-0.40014648,-0.9458618,0.10369873,-0.640625,-0.53125,0.765625,246
1695387845134,-0.38085938,-0.94854736,0.07904053,-1.3125,0.40625,0.84375,247
1695387845174,-0.3720703,-0.9258423,0.08001709,-1.703125,-0.59375,0.421875,248
1695387845214,-0.36499023,-0.9373169,0.07684326,-1.6875,-0.4375,0.203125,249
1695387845254,-0.3852539,-0.9417114,0.09222412,-1.046875,-0.3125,0.703125,250
1695387845294,-0.3779297,-0.93634033,0.09320068,-0.671875,-0.75,0.4375,251
1695387845334,-0.38549805,-0.9495239,0.08929443,-0.234375,-0.4375,0.40625,252
1695387845374,-0.37646484,-0.9397583,0.0848999,-0.015625,-0.4375,0.25,253
1695387845414,-0.36499023,-0.9348755,0.093444824,-0.796875,0.125,-0.203125,254
1695387845454,-0.40966797,-0.95391846,0.08270264,-1.6875,2.203125,-0.359375,255
1695387845494,-0.38500977,-0.93634033,0.09954834,-2.40625,1.65625,-1.375,256
1695387845534,-0.40576172,-0.9475708,0.08856201,-3.4375,2.703125,-1.125,257
1695387845574,-0.38964844,-0.925354,0.08050537,-2.734375,2.625,-0.3125,258
1695387845614,-0.40161133,-0.9295044,0.10321045,-0.828125,0.09375,0.21875,259
1695387845654,-0.3737793,-0.9204712,0.06756592,-0.421875,-0.078125,0.5625,260
1695387845694,-0.3720703,-0.928772,0.08416748,1.046875,-1.828125,0.90625,261
1695387845734,-0.3857422,-0.9373169,0.09442139,-0.109375,-2.390625,1.359375,262
1695387845774,-0.40063477,-0.94610596,0.085876465,-2.734375,-0.53125,0.765625,263
1695387845814,-0.3798828,-0.9216919,0.097839355,-2.984375,-2.234375,0.296875,264
1695387845854,-0.37768555,-0.93878174,0.08831787,-2.21875,-1.125,0.25,265
1695387845894,-0.38354492,-0.9397583,0.09857178,-0.78125,-1.953125,0.421875,266
1695387845934,-0.38549805,-0.9458618,0.093933105,0.875,-1.9375,0.640625,267
1695387845974,-0.38549805,-0.9421997,0.09564209,1.515625,-1.65625,1.078125,268
1695387846014,-0.39379883,-0.9434204,0.09490967,0.78125,-1.40625,1.109375,269
1695387846054,-0.38916016,-0.95098877,0.07244873,-0.953125,0.65625,0.203125,270
1695387846094,-0.40454102,-0.9451294,0.10882568,-1.5,2.875,-0.03125,271
1695387846134,-0.41918945,-0.94195557,0.1149292,-2.53125,5.4375,0.109375,272
1695387846174,-0.4248047,-0.9507446,0.124694824,-3.5625,6.921875,-0.984375,273
1695387846214,-0.40576172,-0.9475708,0.112976074,-2.9375,7.046875,0.46875,274
1695387846254,-0.3623047,-0.90948486,0.06756592,-1.609375,4.953125,2.046875,275
1695387846294,-0.36816406,-0.90753174,0.078063965,0.359375,3.28125,4.109375,276
1695387846334,-0.38012695,-0.9368286,0.09173584,-0.5625,1.609375,5.296875,277
1695387846374,-0.3491211,-0.94732666,0.109558105,-0.875,-2.859375,4.59375,278
1695387846414,-0.3466797,-0.9434204,0.12615967,-1.59375,-2.578125,3.28125,279
1695387846454,-0.33618164,-0.9365845,0.11517334,-0.046875,-3.4375,3.109375,280
1695387846494,-0.33544922,-0.95635986,0.10394287,-0.234375,-4.6875,1.859375,281
1695387846534,-0.32910156,-0.9331665,0.08538818,0.171875,-4.9375,0.53125,282
1695387846574,-0.3623047,-0.94659424,0.1161499,-0.09375,-5.734375,-0.390625,283
1695387846614,-0.36621094,-0.95758057,0.09564209,-1.34375,-3.921875,-0.625,284
1695387846654,-0.36767578,-0.9439087,0.09539795,-1.6875,-2.796875,-1.0625,285
1695387846694,-0.35620117,-0.9378052,0.11175537,-1.015625,-2.34375,-1.4375,286
1695387846734,-0.3791504,-0.9492798,0.11151123,-0.265625,-1.484375,-0.125,287
1695387846774,-0.38134766,-0.94244385,0.10223389,-0.453125,-0.359375,-0.734375,288
1695387846814,-0.38061523,-0.94781494,0.10687256,0.515625,3.890625,-0.65625,289
1695387846854,-0.34228516,-0.9612427,0.10321045,0.890625,3.609375,-0.328125,290
1695387846894,-0.38305664,-0.9541626,0.14178467,-1.109375,7.296875,-0.171875,291
1695387846934,-0.38330078,-0.97198486,0.16766357,-3.046875,8.828125,-0.34375,292
1695387846974,-0.3486328,-0.90582275,0.07952881,-3.21875,5.0625,-0.640625,293
1695387847014,-0.34692383,-0.91729736,0.08929443,1.109375,-3.859375,-0.765625,294
1695387847054,-0.37231445,-0.91485596,0.10809326,2.6875,-1.453125,-0.1875,295
1695387847094,-0.3852539,-0.93218994,0.09857178,4.421875,-1.390625,0.734375,296
1695387847134,-0.38916016,-0.93707275,0.08319092,4.796875,-1.5625,1.84375,297
1695387847174,-0.4050293,-0.956604,0.1281128,3.75,-2.34375,1.796875,298
1695387847214,-0.3720703,-0.9692993,0.07220459,0.234375,1.71875,1.890625,299
1695387847254,-0.36499023,-0.9378052,0.070251465,1.453125,3.109375,2.328125,300
1695387847294,-0.35961914,-0.95147705,0.07220459,0.4375,4.9375,1.78125,301
1695387847334,-0.35986328,-0.9680786,0.101501465,-0.4375,6.390625,1.203125,302
1695387847374,-0.33325195,-0.9241333,0.058288574,-0.875,6.234375,1.234375,303
1695387847414,-0.37182617,-0.95147705,0.07684326,-0.234375,6.71875,1.09375,304
1695387847454,-0.3623047,-0.9429321,0.10638428,-0.828125,7.671875,1.15625,305
1695387847494,-0.37548828,-0.9380493,0.089782715,-0.28125,8.078125,0.734375,306
1695387847534,-0.35107422,-0.9639282,0.101989746,-0.1875,10.3125,1.203125,307
1695387847574,-0.3696289,-0.94732666,0.086364746,1.109375,9.109375,2.890625,308
1695387847614,-0.3317871,-0.9729614,0.06414795,1.578125,5.078125,3.1875,309
1695387847654,-0.35375977,-0.9373169,0.12567139,0.703125,2.671875,3.484375,310
1695387847694,-0.3239746,-0.9314575,0.06512451,-1.796875,0.890625,3.5,311
1695387847734,-0.27490234,-0.9246216,0.043640137,-1.984375,-4.125,-0.140625,312
1695387847774,-0.32202148,-0.9956665,0.12762451,-2.5,-4.171875,-1.65625,313
1695387847814,-0.34887695,-0.944397,0.098083496,-3.859375,-2.78125,-1.96875,314
1695387847854,-0.3635254,-0.96954346,0.11444092,-1.515625,-2.84375,-1.375,315
1695387847894,-0.33691406,-0.944397,0.08099365,-2.234375,-2.953125,1.15625,316
1695387847934,-0.32006836,-0.93414307,0.10662842,0.6875,-5.078125,1.921875,317
1695387847974,-0.35742188,-0.98101807,0.09100342,-1.21875,-5.71875,1.125,318
1695387848014,-0.33862305,-0.93634033,0.0914917,-2.359375,-6.21875,-0.53125,319
1695387848054,-0.3569336,-0.89678955,0.12982178,-1.90625,-5.296875,-0.84375,320
1695387848094,-0.3244629,-0.95196533,0.1005249,-0.34375,-7.4375,-2.796875,321
1695387848134,-0.35009766,-0.9561157,0.13153076,0.15625,-8.21875,-3.9375,322
1695387848174,-0.3630371,-0.927063,0.093933105,0.640625,-6.296875,-3.59375,323
1695387848214,-0.38891602,-0.94610596,0.08782959,2.125,-4.703125,-3.640625,324
1695387848254,-0.3244629,-0.8936157,0.10614014,5.578125,0.0,-3.828125,325
1695387848294,-0.44189453,-0.9356079,0.12322998,10.609375,-4.3125,0.0,326
1695387848334,-0.48535156,-1.0440063,0.0758667,8.4375,2.1875,0.375,327
1695387848374,-0.40795898,-0.95758057,0.05340576,4.71875,8.609375,0.15625,328
1695387848414,-0.33740234,-0.93951416,-0.008117676,1.265625,9.8125,0.5,329
1695387848454,-0.33129883,-0.9295044,0.028503418,0.546875,10.765625,1.03125,330
1695387848494,-0.375,-0.95758057,0.039001465,0.484375,8.703125,1.03125,331
1695387848534,-0.34887695,-0.9690552,0.031188965,-0.5,8.515625,0.421875,332
1695387848574,-0.34643555,-0.9512329,0.034851074,-0.734375,7.140625,1.09375,333
1695387848614,-0.37548828,-0.94854736,0.06048584,-0.21875,5.140625,0.78125,334
1695387848654,-0.37548828,-0.93927,0.06536865,-0.65625,4.359375,1.296875,335
1695387848694,-0.35229492,-0.9429321,0.03656006,-0.75,5.0,0.71875,336
1695387848734,-0.34228516,-0.9468384,0.044128418,0.109375,3.625,-0.34375,337
1695387848774,-0.38500977,-0.9595337,0.07879639,0.484375,2.34375,0.0625,338
1695387848814,-0.36157227,-0.94659424,0.04901123,-0.703125,2.765625,0.515625,339
1695387848854,-0.35546875,-0.95269775,0.053649902,-1.375,3.203125,0.1875,340
1695387848894,-0.37231445,-0.9470825,0.04046631,-2.640625,3.4375,-0.03125,341
1695387848934,-0.34350586,-0.92559814,0.03704834,-2.0625,3.140625,-0.453125,342
1695387848974,-0.38085938,-0.95098877,0.05291748,-1.171875,3.359375,1.0625,343
1695387849014,-0.34033203,-0.95977783,0.051940918,-1.265625,0.953125,1.203125,344
1695387849054,-0.3544922,-0.94659424,0.07293701,-1.96875,-0.5,0.84375,345
1695387849094,-0.3515625,-0.9260864,0.086364746,-1.34375,-3.015625,-0.953125,346
1695387849134,-0.37353516,-0.923645,0.090270996,-0.640625,-3.546875,-0.640625,347
1695387849174,-0.38549805,-0.94659424,0.09661865,1.03125,-3.484375,-0.234375,348
1695387849214,-0.40283203,-0.9470825,0.0848999,0.609375,-3.203125,-0.390625,349
1695387849254,-0.38916016,-0.94537354,0.046325684,-1.359375,-1.9375,0.046875,350
1695387849294,-0.37695312,-0.94610596,0.050964355,-1.890625,-2.90625,0.9375,351
1695387849334,-0.3581543,-0.91973877,0.08880615,-3.671875,-0.390625,1.109375,352
1695387849374,-0.37426758,-0.9456177,0.09222412,1.03125,-2.390625,1.859375,353
1695387849414,-0.3840332,-0.9927368,0.17181396,2.8125,-1.96875,2.65625,354
1695387849454,-0.4189453,-0.94976807,0.09222412,1.796875,2.65625,2.09375,355
1695387849494,-0.34399414,-0.91729736,0.029968262,3.890625,4.59375,0.4375,356
1695387849534,-0.37036133,-0.96173096,0.049987793,3.25,7.546875,-0.1875,357
1695387849574,-0.38598633,-0.9534302,0.055358887,3.0625,7.71875,1.0,358
1695387849614,-0.34448242,-0.95269775,0.038513184,2.921875,10.1875,1.421875,359
1695387849654,-0.36401367,-0.9758911,0.05633545,2.765625,10.875,2.8125,360
1695387849694,-0.3557129,-0.9378052,0.008972168,1.203125,11.625,2.828125,361
1695387849734,-0.34985352,-0.95806885,0.07318115,0.859375,12.15625,2.765625,362
1695387849774,-0.33544922,-0.9495239,0.05267334,-2.21875,11.671875,2.703125,363
1695387849814,-0.36499023,-0.9224243,0.0368042,-1.984375,8.28125,2.390625,364
1695387849854,-0.36401367,-0.92926025,0.062683105,-0.28125,6.84375,1.609375,365
1695387849894,-0.3720703,-0.9741821,0.06781006,-0.3125,4.578125,0.953125,366
1695387849934,-0.28637695,-0.9312134,0.034851074,-1.09375,2.40625,-0.359375,367
1695387849974,-0.31860352,-0.9397583,0.070739746,-0.296875,-2.4375,-1.53125,368
1695387850014,-0.3149414,-0.9326782,0.066833496,0.3125,-4.09375,-2.546875,369
1695387850054,-0.34179688,-0.9673462,0.07928467,1.453125,-2.5,-2.078125,370
1695387850094,-0.4074707,-0.9771118,0.08538818,-0.96875,2.953125,-3.375,371
1695387850134,-0.3762207,-0.9390259,0.113464355,-1.828125,5.15625,-2.875,372
1695387850174,-0.3239746,-0.95513916,0.06341553,-0.546875,3.34375,-1.65625,373
1695387850214,-0.26953125,-0.94195557,0.039978027,2.234375,-1.6875,0.953125,374
1695387850254,-0.48828125,-1.003479,0.089538574,2.015625,-2.640625,0.375,375
1695387850294,-0.29785156,-0.9011841,0.024108887,-1.21875,7.890625,-1.609375,376
1695387850334,-0.27612305,-0.90997314,0.039978027,4.125,-0.203125,0.171875,377
1695387850374,-0.37353516,-0.96832275,0.07928467,5.796875,0.0625,0.65625,378
1695387850414,-0.42822266,-0.99542236,0.06390381,5.546875,5.03125,1.375,379
1695387850454,-0.33251953,-1.008606,0.04168701,4.546875,5.078125,1.203125,380
1695387850494,-0.36132812,-0.96173096,0.015319824,-4.484375,4.90625,-1.484375,381
1695387850534,-0.2866211,-0.8635864,-0.016662598,-5.953125,1.875,-0.171875,382
1695387850574,-0.36694336,-0.9336548,0.022399902,-3.375,-1.234375,-0.640625,383
1695387850614,-0.38208008,-0.99346924,0.082458496,-0.796875,-1.96875,-0.375,384
1695387850654,-0.43432617,-0.97320557,0.10394287,-0.015625,-2.046875,1.359375,385
1695387850694,-0.38891602,-0.923645,0.043151855,0.0625,-2.0,1.390625,386
1695387850734,-0.3605957,-0.92193604,0.045837402,-0.328125,-3.84375,0.09375,387
1695387850774,-0.34692383,-0.9295044,0.022644043,-3.546875,-3.40625,-1.953125,388
1695387850814,-0.32421875,-0.913147,0.015319824,-4.359375,-3.828125,-2.484375,389
1695387850854,-0.33032227,-0.93927,0.09246826,-1.484375,-6.40625,-1.53125,390
1695387850894,-0.3544922,-0.9612427,0.06829834,0.34375,-8.0,0.65625,391
1695387850934,-0.42895508,-0.9981079,0.09222412,4.015625,-11.8125,1.984375,392
1695387850974,-0.4074707,-0.96295166,0.086364746,0.375,-5.15625,1.859375,393
1695387851014,-0.31591797,-0.90338135,0.027038574,-2.796875,-2.265625,-0.640625,394
1695387851054,-0.3154297,-0.92437744,0.010925293,-4.25,-3.328125,-2.609375,395
1695387851094,-0.3413086,-0.9758911,0.02532959,-5.03125,-3.03125,-2.328125,396
1695387851134,-0.4104004,-0.9619751,0.078063965,-2.234375,-0.890625,-0.5,397
1695387851174,-0.4267578,-0.972229,0.070495605,-4.03125,4.453125,-1.03125,398
1695387851214,-0.4267578,-0.9578247,0.09637451,-2.28125,6.671875,0.109375,399
1695387851254,-0.4326172,-0.9602661,0.09222412,-4.703125,8.203125,-0.34375,400
1695387851294,-0.36010742,-0.9053345,0.046569824,-4.890625,9.671875,-0.40625,401
1695387851334,-0.36743164,-0.9011841,0.031433105,1.203125,2.96875,0.71875,402
1695387851374,-0.39746094,-0.9492798,0.050231934,0.453125,2.0,2.109375,403
1695387851414,-0.37963867,-0.9475708,0.04144287,-1.34375,3.359375,3.96875,404
1695387851454,-0.33569336,-0.9397583,0.08416748,-2.484375,-0.1875,3.578125,405
1695387851494,-0.34375,-0.9678345,0.08001709,-1.609375,-0.125,5.453125,406
1695387851534,-0.3125,-0.9336548,0.06414795,-3.078125,-1.78125,4.8125,407
1695387851574,-0.33618164,-0.94537354,0.09637451,-2.453125,-6.140625,2.9375,408
1695387851614,-0.3034668,-0.9336548,0.070251465,-2.84375,-7.84375,2.34375,409
1695387851654,-0.3149414,-0.93829346,0.105163574,-1.234375,-11.90625,0.15625,410
1695387851694,-0.24047852,-0.94976807,-0.013000488,-6.4375,-16.875,-3.25,411
1695387851734,-0.421875,-0.9290161,0.11517334,0.65625,-15.140625,0.015625,412
1695387851774,-0.4465332,-0.97857666,0.137146,2.078125,-8.265625,-1.046875,413
1695387851814,-0.40356445,-0.94610596,0.09490967,0.5625,-0.5,-0.40625,414
1695387851854,-0.39624023,-0.8862915,0.08270264,2.015625,2.875,-1.75,415
1695387851894,-0.3791504,-0.9495239,0.055847168,1.78125,4.671875,-2.359375,416
1695387851934,-0.4038086,-0.96173096,0.0758667,2.109375,7.109375,-1.59375,417
1695387851974,-0.3557129,-0.9492798,0.04925537,0.671875,9.109375,-1.265625,418
1695387852014,-0.37280273,-0.94488525,0.046081543,2.4375,11.171875,-0.125,419
1695387852054,-0.40478516,-0.9627075,0.070495605,4.0625,10.125,1.34375,420
1695387852094,-0.34033203,-0.9260864,0.03338623,1.4375,9.671875,1.1875,421
1695387852134,-0.3581543,-0.9307251,0.06951904,1.90625,7.265625,0.578125,422
1695387852174,-0.31689453,-0.95318604,0.06903076,-0.140625,7.40625,-2.953125,423
1695387852214,-0.40576172,-0.9602661,0.07635498,2.703125,7.5625,0.578125,424
1695387852254,-0.39160156,-0.92510986,0.0289917,3.25,6.828125,-0.015625,425
1695387852294,-0.41479492,-0.9793091,0.050476074,2.046875,9.6875,2.75,426
1695387852334,-0.33325195,-0.94195557,0.043151855,0.28125,10.390625,2.734375,427
1695387852374,-0.3244629,-0.92974854,0.0053100586,-0.6875,6.828125,2.203125,428
1695387852414,-0.28735352,-0.93292236,0.04437256,0.234375,2.59375,0.265625,429
1695387852454,-0.33276367,-0.9495239,0.062683105,-0.09375,-0.65625,-1.3125,430
1695387852494,-0.3466797,-0.94415283,0.05316162,-0.03125,-0.828125,-2.34375,431
1695387852534,-0.4272461,-0.89508057,0.04486084,1.5625,-0.890625,-1.328125,432
1695387852574,-0.46289062,-0.9570923,0.11395264,4.84375,2.6875,-0.921875,433
1695387852614,-0.3791504,-1.0147095,0.06341553,3.71875,4.65625,1.25,434
1695387852654,-0.34155273,-0.9229126,0.010681152,2.625,4.078125,2.3125,435
1695387852694,-0.32104492,-0.9348755,0.013122559,1.484375,3.1875,1.359375,436
1695387852734,-0.31103516,-0.92681885,0.0072631836,0.390625,1.78125,0.125,437
1695387852774,-0.36694336,-0.98223877,0.06390381,-0.234375,-1.390625,-0.078125,438
1695387852814,-0.3791504,-0.94537354,0.03729248,-1.125,0.953125,1.125,439
1695387852854,-0.51831055,-1.0615845,0.12738037,0.515625,5.671875,2.453125,440
1695387852894,-0.27563477,-0.9067993,-0.031555176,-5.9375,7.734375,8.46875,441
1695387852934,-0.23486328,-0.89971924,0.0067749023,-3.1875,-5.484375,6.3125,442
1695387852974,-0.3166504,-0.9500122,0.028503418,-4.625,-10.09375,2.84375,443
1695387853014,-0.30859375,-0.9336548,0.04071045,-4.125,-12.484375,1.296875,444
1695387853054,-0.30249023,-0.9351196,0.024108887,-3.828125,-14.640625,-0.96875,445
1695387853094,-0.34399414,-0.9690552,0.082214355,-2.71875,-18.671875,-1.796875,446
1695387853134,-0.35424805,-0.9451294,0.028503418,-4.765625,-16.5,-1.8125,447
1695387853174,-0.39282227,-0.9507446,0.066345215,-3.8125,-15.28125,-1.734375,448
1695387853214,-0.3942871,-0.95269775,0.066589355,-4.546875,-11.578125,-1.96875,449
1695387853254,-0.3684082,-0.94415283,0.054870605,-3.984375,-8.671875,-1.40625,450
1695387853294,-0.37060547,-0.960022,0.05731201,-3.140625,-4.28125,-0.5,451
1695387853334,-0.46044922,-0.9656372,0.17913818,-2.984375,1.40625,-0.5625,452
1695387853374,-0.46020508,-0.99713135,0.14056396,-5.65625,5.984375,-1.171875,453
1695387853414,-0.31201172,-0.8989868,-0.0068969727,-0.9375,8.3125,0.546875,454
1695387853454,-0.31640625,-0.9314575,0.040222168,3.03125,-4.0,0.078125,455
1695387853494,-0.32128906,-0.92193604,0.05267334,1.53125,0.140625,1.40625,456
1695387853534,-0.32299805,-0.96466064,0.026306152,1.75,0.15625,2.203125,457
1695387853574,-0.33642578,-0.9690552,0.058044434,1.171875,0.0625,0.359375,458
1695387853614,-0.33813477,-0.95440674,0.03387451,1.859375,-1.0,1.046875,459
1695387853654,-0.40722656,-0.9849243,0.07879639,0.640625,2.140625,0.09375,460
1695387853694,-0.3737793,-0.91851807,0.044128418,-0.671875,7.375,0.21875,461
1695387853734,-0.34326172,-0.9085083,0.041931152,0.453125,9.09375,0.265625,462
1695387853774,-0.3647461,-0.9602661,0.06878662,-1.265625,8.5625,-1.609375,463
1695387853814,-0.4453125,-0.9885864,0.11273193,-3.53125,9.515625,-2.421875,464
1695387853854,-0.34985352,-0.94732666,0.024841309,-4.609375,11.953125,-1.109375,465
1695387853894,-0.3244629,-0.95684814,0.058776855,-3.65625,9.96875,0.828125,466
1695387853934,-0.30566406,-0.9319458,0.0446167,-5.359375,10.15625,2.171875,467
1695387853974,-0.29711914,-0.90826416,0.020935059,-3.265625,7.375,2.84375,468
1695387854014,-0.32055664,-0.94659424,0.0446167,-2.171875,5.0625,3.375,469
1695387854054,-0.35107422,-0.95928955,0.093933105,-1.96875,4.4375,4.234375,470
1695387854094,-0.35498047,-0.95977783,0.0927124,-2.109375,1.421875,4.078125,471
1695387854134,-0.33032227,-0.9421997,0.109313965,-1.109375,0.453125,4.359375,472
1695387854174,-0.33569336,-0.94610596,0.109069824,-0.59375,-2.984375,2.859375,473
1695387854214,-0.32617188,-0.9414673,0.09979248,-0.328125,-4.171875,3.125,474
1695387854254,-0.32421875,-0.9463501,0.09686279,0.640625,-7.140625,2.328125,475
1695387854294,-0.31274414,-0.9456177,0.08758545,0.734375,-7.21875,2.828125,476
1695387854334,-0.3251953,-0.95391846,0.09490967,1.78125,-8.171875,2.78125,477
1695387854374,-0.3154297,-0.9734497,0.09710693,2.15625,-8.328125,2.140625,478
1695387854414,-0.3125,-0.9536743,0.074401855,1.328125,-8.09375,1.953125,479
1695387854454,-0.3466797,-0.9663696,0.07952881,-0.734375,-8.265625,0.578125,480
1695387854494,-0.29760742,-0.9307251,0.07928467,-0.9375,-4.390625,0.296875,481
1695387854534,-0.3486328,-0.99005127,0.09661865,1.015625,-5.6875,-0.5,482
1695387854574,-0.34814453,-0.97198486,0.120788574,-0.65625,-5.578125,-0.859375,483
1695387854614,-0.3239746,-0.96539307,0.07659912,-0.171875,-4.40625,-1.171875,484
1695387854654,-0.33251953,-0.95269775,0.07684326,0.3125,-3.5625,-0.546875,485
1695387854694,-0.3203125,-0.9458618,0.09588623,3.21875,-3.484375,0.09375,486
1695387854734,-0.328125,-0.99468994,0.06585693,2.859375,-3.84375,-1.0625,487
1695387854774,-0.3408203,-0.9614868,0.05999756,1.375,-2.703125,-1.125,488
1695387854814,-0.33911133,-0.9468384,0.038024902,-0.453125,-1.0,-1.5,489
1695387854854,-0.32006836,-0.958313,0.04046631,-1.515625,-1.296875,-2.28125,490
1695387854894,-0.33935547,-0.94073486,0.008972168,-3.671875,-0.34375,-2.53125,491
1695387854934,-0.33129883,-0.95684814,0.051208496,-2.0,1.21875,-2.15625,492
1695387854974,-0.34545898,-0.96710205,0.054626465,-3.25,-1.1875,-1.640625,493
1695387855014,-0.34960938,-0.9553833,0.054626465,-3.1875,-1.046875,-2.03125,494
1695387855054,-0.34228516,-0.9495239,0.05682373,-1.4375,0.25,-1.015625,495
1695387855094,-0.36376953,-0.9487915,0.059265137,-0.59375,0.375,-1.015625,496
1695387855134,-0.3725586,-0.9649048,0.07684326,0.40625,3.28125,-0.921875,497
1695387855174,-0.38476562,-0.97198486,0.074645996,-0.796875,5.8125,-1.0625,498
1695387855214,-0.32128906,-0.9470825,0.066589355,-3.40625,6.078125,-0.921875,499
1695387855254,-0.36132812,-0.9644165,0.07293701,-1.328125,3.078125,-0.9375,500
1695387855294,-0.35791016,-0.93463135,0.07171631,0.421875,1.21875,0.6875,501
1695387855334,-0.36889648,-0.9429321,0.06439209,1.9375,0.59375,1.1875,502
1695387855374,-0.36010742,-0.9299927,0.089782715,1.28125,3.8125,0.09375,503
1695387855414,-0.3569336,-0.9368286,0.0692749,-0.203125,4.78125,-1.515625,504
1695387855454,-0.3605957,-0.9314575,0.086120605,-0.21875,4.40625,-3.5625,505
1695387855494,-0.36083984,-0.93341064,0.047058105,0.1875,7.703125,-3.265625,506
1695387855534,-0.39013672,-0.956604,0.08465576,1.4375,10.265625,-1.578125,507
1695387855574,-0.41748047,-0.9795532,0.059509277,0.859375,12.125,0.34375,508
1695387855614,-0.37353516,-0.87335205,0.03753662,-0.984375,18.109375,-1.8125,509
1695387855654,-0.34375,-0.97369385,0.061706543,3.03125,14.6875,-0.78125,510
1695387855694,-0.35058594,-0.9585571,0.06756592,3.0625,12.015625,0.484375,511
1695387855734,-0.35888672,-0.9517212,0.0914917,3.484375,8.703125,0.984375,512
1695387855774,-0.36401367,-0.9421997,0.0692749,2.078125,6.515625,1.21875,513
1695387855814,-0.36108398,-0.9414673,0.078063965,1.90625,5.421875,0.421875,514
1695387855854,-0.3708496,-0.9678345,0.10443115,0.015625,8.96875,0.140625,515
1695387855894,-0.40283203,-1.005188,0.11248779,-5.0,7.984375,0.046875,516
1695387855934,-0.36889648,-0.9512329,0.06439209,-8.078125,6.46875,0.703125,517
1695387855974,-0.2902832,-0.90289307,-0.00030517578,-1.765625,-1.484375,3.609375,518
1695387856014,-0.39257812,-0.9338989,0.08880615,-0.953125,-5.09375,4.609375,519
1695387856054,-0.31396484,-0.925354,0.06951904,-3.09375,-4.21875,4.6875,520
1695387856094,-0.3486328,-0.9561157,0.109802246,-3.0625,-8.078125,3.953125,521
1695387856134,-0.32714844,-0.9138794,0.1083374,-3.390625,-9.625,2.25,522
1695387856174,-0.3388672,-0.9573364,0.11639404,0.25,-8.34375,0.234375,523
1695387856214,-0.32202148,-0.94854736,0.11029053,0.671875,-7.5625,0.0,524
1695387856254,-0.35717773,-0.9612427,0.10760498,-0.140625,-7.578125,-1.421875,525
1695387856294,-0.34033203,-0.9336548,0.08074951,-0.9375,-6.703125,-2.21875,526
1695387856334,-0.38500977,-0.9602661,0.08465576,1.15625,-6.421875,-1.828125,527
1695387856374,-0.37670898,-0.9890747,0.08123779,-1.546875,-1.03125,0.375,528
1695387856414,-0.3671875,-0.9224243,0.07269287,-2.0,-0.828125,2.03125,529
1695387856454,-0.34228516,-0.9158325,0.06781006,-1.1875,-1.515625,-1.359375,530
1695387856494,-0.36547852,-0.96466064,0.10662842,-0.09375,-2.921875,-1.328125,531
1695387856534,-0.37402344,-0.9661255,0.13885498,0.171875,-2.703125,-1.109375,532
1695387856574,-0.3564453,-0.9463501,0.097839355,-0.1875,-2.21875,-1.046875,533
1695387856614,-0.35595703,-0.9505005,0.08929443,0.4375,-1.359375,-0.25,534
1695387856654,-0.3876953,-0.9763794,0.11419678,-1.9375,-0.421875,-1.1875,535
1695387856694,-0.30932617,-0.91778564,0.029968262,-5.953125,4.671875,0.171875,536
1695387856734,-0.3581543,-0.94781494,0.06903076,-2.6875,0.765625,1.75,537
1695387856774,-0.4013672,-0.93341064,0.121276855,-2.75,1.5,1.484375,538
1695387856814,-0.41723633,-0.956604,0.113708496,-1.3125,3.09375,1.125,539
1695387856854,-0.3371582,-0.9331665,0.08319092,0.484375,3.4375,1.15625,540
1695387856894,-0.38110352,-0.94732666,0.10491943,1.21875,2.78125,1.484375,541
1695387856934,-0.35986328,-0.9319458,0.08514404,-0.1875,4.71875,0.046875,542
1695387856974,-0.34472656,-0.93096924,0.07269287,0.140625,3.515625,0.46875,543
1695387857014,-0.33984375,-0.93585205,0.09857178,0.53125,2.484375,0.390625,544
1695387857054,-0.3515625,-0.93927,0.08758545,0.890625,2.703125,0.59375,545
1695387857094,-0.37353516,-0.9661255,0.11029053,1.296875,1.0625,0.265625,546
1695387857134,-0.3642578,-0.9390259,0.09515381,0.390625,2.890625,0.3125,547
1695387857174,-0.3623047,-0.9385376,0.08514404,0.078125,1.359375,0.46875,548
1695387857214,-0.3479004,-0.9404907,0.070495605,-0.1875,2.671875,0.3125,549
1695387857254,-0.3720703,-0.9602661,0.09979248,1.046875,2.46875,0.6875,550
1695387857294,-0.35498047,-0.95269775,0.09320068,-0.015625,2.765625,0.671875,551
1695387857334,-0.3515625,-0.9570923,0.093933105,0.78125,2.453125,0.515625,552
1695387857374,-0.35131836,-0.9517212,0.08416748,0.3125,2.0625,-0.46875,553
1695387857414,-0.3413086,-0.956604,0.09173584,-0.28125,5.234375,-1.03125,554
1695387857454,-0.36010742,-0.9619751,0.124694824,-1.625,3.546875,-2.3125,555
1695387857494,-0.36328125,-0.9397583,0.10614014,-2.9375,3.0,-3.65625,556
1695387857534,-0.34301758,-0.9146118,0.082214355,-0.78125,3.078125,-3.84375,557
1695387857574,-0.36767578,-0.9146118,0.10882568,2.84375,1.125,-3.421875,558
1695387857614,-0.3659668,-0.91290283,0.078063965,-0.109375,3.453125,-0.65625,559
1695387857654,-0.4165039,-0.8562622,0.09075928,9.296875,1.90625,0.546875,560
1695387857694,-0.5102539,-1.0637817,0.15985107,8.921875,0.078125,-2.40625,561
1695387857734,-0.37719727,-1.0012817,0.05682373,2.328125,7.9375,-0.25,562
1695387857774,-0.3552246,-0.8999634,0.010437012,0.109375,9.40625,-0.109375,563
1695387857814,-0.36328125,-0.91900635,0.0446167,0.640625,8.75,-1.8125,564
1695387857854,-0.3647461,-0.9651489,0.062927246,0.140625,9.765625,-0.140625,565
1695387857894,-0.3894043,-0.9656372,0.0758667,-0.484375,7.09375,1.28125,566
1695387857934,-0.38061523,-0.94537354,0.09075928,-0.5,5.484375,1.75,567
1695387857974,-0.36889648,-0.9312134,0.09100342,-1.25,5.640625,1.734375,568
1695387858014,-0.35375977,-0.9151001,0.057800293,-0.53125,4.4375,1.515625,569
1695387858054,-0.37890625,-0.9492798,0.09661865,0.484375,2.0625,1.171875,570
1695387858094,-0.3581543,-0.96099854,0.08929443,0.265625,2.546875,1.421875,571
1695387858134,-0.37109375,-0.93170166,0.09906006,1.15625,3.375,0.890625,572
1695387858174,-0.36791992,-0.94488525,0.09295654,0.421875,4.828125,0.109375,573
1695387858214,-0.42578125,-0.94976807,0.10467529,-1.046875,2.21875,-0.765625,574
1695387858254,-0.50683594,-0.91778564,0.13275146,1.0625,4.4375,0.578125,575
1695387858294,-0.25024414,-0.9973755,0.07904053,0.609375,6.71875,3.65625,576
1695387858334,-0.28686523,-0.8909302,0.07244873,-1.96875,-2.046875,1.5625,577
1695387858374,-0.33081055,-0.9390259,0.014831543,-3.265625,-6.265625,1.015625,578
1695387858414,-0.34521484,-0.9170532,0.06048584,-2.921875,-10.46875,-0.09375,579
1695387858454,-0.3647461,-0.9729614,0.0914917,-4.890625,-10.140625,-0.75,580
1695387858494,-0.30664062,-0.9138794,0.051940918,-4.25,-10.9375,0.234375,581
1695387858534,-0.39819336,-0.99468994,0.12982178,-0.890625,-13.140625,1.15625,582
1695387858574,-0.37402344,-0.92681885,0.08343506,-3.53125,-11.390625,2.125,583
1695387858614,-0.35131836,-0.89508057,0.09710693,0.5,-12.234375,1.796875,584
1695387858654,-0.40454102,-0.98809814,0.13470459,0.328125,-12.84375,-0.046875,585
1695387858694,-0.3815918,-0.93829346,0.07879639,-2.03125,-8.15625,-1.1875,586
1695387858734,-0.3852539,-0.9121704,0.054138184,-0.9375,-7.96875,-1.46875,587
1695387858774,-0.42236328,-0.9536743,0.10028076,-1.3125,-5.46875,-2.578125,588
1695387858814,-0.38330078,-0.9378052,0.08660889,-2.265625,-2.03125,-3.234375,589
1695387858854,-0.36035156,-0.9404907,0.070739746,-2.453125,0.46875,-4.875,590
1695387858894,-0.40771484,-0.92315674,0.035827637,-0.625,2.421875,-4.015625,591
1695387858934,-0.42919922,-0.94488525,0.10369873,0.671875,4.8125,-0.578125,592
1695387858974,-0.39819336,-0.9417114,0.047058105,0.25,8.6875,2.6875,593
1695387859014,-0.39794922,-0.9546509,0.07684326,0.90625,6.234375,3.125,594
1695387859054,-0.43847656,-0.9102173,0.09954834,-0.125,5.90625,1.53125,595
1695387859094,-0.41064453,-0.93170166,0.11004639,0.1875,9.21875,0.75,596
1695387859134,-0.3474121,-0.9573364,0.09466553,-0.609375,9.78125,2.375,597
1695387859174,-0.31958008,-0.9336548,0.041931152,0.0625,5.84375,3.734375,598
1695387859214,-0.36865234,-0.9397583,0.06878662,0.375,3.5625,4.078125,599
1695387859254,-0.35839844,-0.9414673,0.06048584,-0.046875,3.921875,3.921875,600
1695387859294,-0.37597656,-0.95025635,0.07684326,-0.171875,2.6875,3.421875,601
1695387859334,-0.35961914,-0.94976807,0.08685303,-0.046875,2.140625,2.5625,602
1695387859374,-0.34350586,-0.9517212,0.07904053,-0.21875,1.3125,2.265625,603
1695387859414,-0.3347168,-0.95928955,0.07684326,-0.25,0.140625,1.828125,604
1695387859454,-0.34057617,-0.95147705,0.081726074,-0.09375,-1.3125,1.53125,605
1695387859494,-0.35620117,-0.94537354,0.074401855,-0.265625,-2.09375,0.71875,606
1695387859534,-0.359375,-0.9507446,0.074645996,-0.4375,-1.796875,-0.28125,607
1695387859574,-0.3486328,-0.9614868,0.055114746,-1.0625,-3.15625,-0.625,608
1695387859614,-0.36767578,-0.92388916,0.06829834,-1.28125,-3.78125,-1.234375,609
1695387859654,-0.36108398,-0.9273071,0.07635498,-1.375,-3.25,-0.78125,610
1695387859694,-0.34814453,-0.94659424,0.06707764,-0.296875,-3.359375,-0.6875,611
1695387859734,-0.35131836,-0.96099854,0.101501465,0.171875,-3.609375,-0.5,612
1695387859774,-0.3798828,-0.93951416,0.0993042,1.546875,-4.25,0.3125,613
1695387859814,-0.40161133,-0.94488525,0.06878662,-0.734375,-0.765625,0.46875,614
1695387859854,-0.3618164,-0.9456177,0.05731201,-2.25,1.328125,0.953125,615
1695387859894,-0.3552246,-0.9331665,0.07562256,-2.90625,1.65625,2.671875,616
1695387859934,-0.3215332,-0.9216919,0.04486084,-3.890625,0.9375,5.21875,617
1695387859974,-0.35864258,-0.9434204,0.08758545,1.859375,-2.09375,6.890625,618
1695387860014,-0.38232422,-0.987854,0.10345459,-0.078125,-2.375,4.28125,619
1695387860054,-0.3215332,-0.987854,0.09686279,-0.5625,-4.90625,2.21875,620
1695387860094,-0.32592773,-0.9507446,0.07659912,-3.078125,-5.5,1.1875,621
1695387860134,-0.32617188,-0.9307251,0.058532715,-2.28125,-5.640625,1.609375,622
1695387860174,-0.33691406,-0.94415283,0.06414795,-2.484375,-4.03125,1.328125,623
1695387860214,-0.34399414,-0.97052,0.07537842,-1.875,-3.0,1.0625,624
1695387860254,-0.3425293,-0.9678345,0.08416748,-3.171875,-2.6875,0.8125,625
1695387860294,-0.34887695,-0.94366455,0.08319092,-2.75,-1.53125,0.890625,626
1695387860334,-0.33691406,-0.95806885,0.082458496,-2.375,-1.25,0.390625,627
1695387860374,-0.3605957,-0.9307251,0.0848999,-0.96875,-0.6875,0.96875,628
1695387860414,-0.3232422,-0.93951416,0.09539795,-0.796875,-0.28125,0.046875,629
1695387860454,-0.35375977,-0.93951416,0.10003662,0.5,0.0,-0.6875,630
1695387860494,-0.32836914,-0.95977783,0.07928467,0.609375,1.6875,-0.609375,631
1695387860534,-0.3347168,-0.9553833,0.07537842,0.671875,1.65625,-0.9375,632
1695387860574,-0.3557129,-0.93756104,0.07879639,0.6875,2.28125,-0.65625,633
1695387860614,-0.35620117,-0.96221924,0.074401855,0.515625,2.625,-0.890625,634
1695387860654,-0.34399414,-0.95098877,0.070251465,0.171875,3.578125,-0.390625,635
1695387860694,-0.34814453,-0.95684814,0.07611084,0.078125,2.921875,-0.03125,636
1695387860734,-0.34228516,-0.9522095,0.08099365,-0.234375,3.265625,0.203125,637
1695387860774,-0.33789062,-0.9522095,0.07684326,-0.359375,3.421875,0.078125,638
1695387860814,-0.3256836,-0.944397,0.082214355,-0.90625,3.328125,-0.21875,639
1695387860854,-0.33764648,-0.9624634,0.077819824,-0.015625,3.25,-0.09375,640
1695387860894,-0.33496094,-0.96710205,0.08294678,-0.65625,4.3125,-0.359375,641
1695387860934,-0.3540039,-0.9614868,0.10223389,0.125,5.9375,-0.40625,642
1695387860974,-0.36108398,-0.9678345,0.12567139,-1.984375,2.625,-1.171875,643
1695387861014,-0.3618164,-0.95440674,0.08831787,-5.03125,4.609375,-2.171875,644
1695387861054,-0.33813477,-0.9343872,0.09490967,-2.859375,3.203125,-1.234375,645
1695387861094,-0.33764648,-0.94195557,0.08099365,0.5,-1.375,0.0,646
1695387861134,-0.35595703,-0.925354,0.09295654,1.96875,-0.015625,1.4375,647
1695387861174,-0.30322266,-0.9522095,0.03753662,-0.0625,0.40625,0.640625,648
1695387861214,-0.3881836,-0.9360962,0.10369873,0.84375,-3.609375,1.84375,649
1695387861254,-0.36767578,-0.9734497,0.10687256,-0.234375,-0.390625,0.625,650
1695387861294,-0.3552246,-0.9546509,0.09124756,-0.640625,0.421875,0.203125,651
1695387861334,-0.33544922,-0.95025635,0.07562256,-0.453125,1.109375,-0.171875,652
1695387861374,-0.35986328,-0.94610596,0.10345459,-0.03125,1.734375,-0.140625,653
1695387861414,-0.3256836,-0.94537354,0.07952881,-0.453125,2.0,-0.5625,654
1695387861454,-0.33666992,-0.9639282,0.097351074,-0.546875,0.734375,-0.359375,655
1695387861494,-0.35595703,-0.94537354,0.089782715,-0.9375,0.265625,-0.765625,656
1695387861534,-0.36206055,-0.95977783,0.07928467,-0.375,0.171875,-0.078125,657
1695387861574,-0.36083984,-0.9365845,0.08270264,-0.484375,0.0625,-0.28125,658
1695387861614,-0.35742188,-0.9348755,0.07977295,0.40625,-0.484375,-0.234375,659
1695387861654,-0.36376953,-0.95440674,0.105407715,0.078125,-0.265625,0.046875,660
1695387861694,-0.36743164,-0.94537354,0.08685303,-1.125,-0.953125,0.171875,661
1695387861734,-0.36987305,-0.93829346,0.0914917,-1.75,-0.34375,-0.109375,662
1695387861774,-0.3474121,-0.9512329,0.08514404,-0.5625,3.484375,0.515625,663
1695387861814,-0.37451172,-0.95758057,0.10443115,-0.640625,1.6875,1.328125,664
1695387861854,-0.3474121,-0.9470825,0.0993042,-0.546875,2.046875,0.96875,665
1695387861894,-0.3461914,-0.9595337,0.105651855,-0.359375,5.015625,1.28125,666
1695387861934,-0.32250977,-0.96417236,0.11029053,-0.90625,4.921875,1.28125,667
1695387861974,-0.34692383,-0.9651489,0.11199951,-2.03125,4.0,2.15625,668
1695387862014,-0.31713867,-0.9429321,0.08685303,-1.234375,6.5625,3.953125,669
1695387862054,-0.31274414,-0.9734497,0.10760498,0.21875,4.359375,4.640625,670
1695387862094,-0.30029297,-0.99346924,0.11981201,0.34375,3.625,6.484375,671
1695387862134,-0.3317871,-0.9829712,0.10003662,0.28125,3.421875,10.734375,672
1695387862174,-0.33544922,-0.96759033,0.08294678,0.375,5.296875,13.3125,673
1695387862214,-0.30371094,-0.9697876,0.061706543,-0.625,4.703125,13.625,674
1695387862254,-0.2878418,-0.9299927,0.09075928,-0.84375,3.828125,11.25,675
1695387862294,-0.21899414,-0.96173096,0.08831787,-0.34375,3.203125,10.203125,676
1695387862334,-0.26953125,-0.98516846,0.11883545,0.28125,2.0,8.84375,677
1695387862374,-0.23266602,-0.96343994,0.09222412,0.078125,2.09375,5.65625,678
1695387862414,-0.2524414,-0.9558716,0.1005249,0.0,0.796875,3.453125,679
1695387862454,-0.23950195,-0.972229,0.08905029,0.90625,0.578125,1.28125,680
1695387862494,-0.22802734,-0.97125244,0.11077881,1.359375,0.765625,-0.375,681
1695387862534,-0.2319336,-0.96954346,0.10003662,1.03125,-0.15625,-1.046875,682
1695387862574,-0.24047852,-0.96343994,0.101257324,1.5625,-1.34375,-2.4375,683
1695387862614,-0.21679688,-0.98931885,0.09246826,2.25,-2.953125,-4.15625,684
1695387862654,-0.2602539,-0.9846802,0.08514404,2.109375,-4.40625,-4.96875,685
1695387862694,-0.24291992,-0.96588135,0.062927246,-0.140625,-3.046875,-5.609375,686
1695387862734,-0.33935547,-0.9758911,0.12347412,2.546875,-0.9375,-4.6875,687
1695387862774,-0.23242188,-0.9385376,0.006286621,1.078125,2.4375,-4.6875,688
1695387862814,-0.2006836,-0.9697876,0.05340576,0.609375,-3.015625,-6.75,689
1695387862854,-0.24902344,-0.9649048,0.06048584,-0.75,-5.921875,-7.109375,690
1695387862894,-0.2783203,-0.97979736,0.08001709,0.25,-7.515625,-8.796875,691
1695387862934,-0.28393555,-0.97857666,0.06903076,-0.75,-8.640625,-11.125,692
1695387862974,-0.3125,-0.9055786,0.0770874,-0.546875,-7.859375,-11.46875,693
1695387863014,-0.3623047,-0.9854126,0.1083374,0.46875,-8.359375,-10.640625,694
1695387863054,-0.4189453,-0.9607544,0.105895996,1.015625,-5.15625,-7.859375,695
1695387863094,-0.3696289,-0.94610596,0.051940918,1.625,-1.765625,-5.453125,696
1695387863134,-0.36108398,-0.9678345,0.09832764,1.84375,0.21875,-3.109375,697
1695387863174,-0.3713379,-0.96295166,0.06488037,0.65625,1.96875,-1.15625,698
1695387863214,-0.36206055,-0.9656372,0.043395996,-0.390625,3.9375,-0.375,699
1695387863254,-0.36108398,-0.9636841,0.05731201,-0.359375,6.6875,1.828125,700
1695387863294,-0.34277344,-0.97906494,0.051452637,-0.65625,7.328125,3.21875,701
1695387863334,-0.33081055,-0.9673462,0.03289795,-1.25,7.59375,4.625,702
1695387863374,-0.3552246,-0.9512329,0.059265137,-1.390625,6.65625,5.015625,703
1695387863414,-0.34936523,-0.97613525,0.046569824,-3.484375,9.859375,4.453125,704
1695387863454,-0.3161621,-0.93292236,0.038513184,-1.4375,8.0,6.921875,705
1695387863494,-0.36376953,-0.94415283,0.057556152,-1.015625,5.5625,6.65625,706
1695387863534,-0.36328125,-0.9470825,0.07366943,0.75,7.25,6.8125,707
1695387863574,-0.33325195,-0.9837036,0.10760498,0.03125,6.828125,7.453125,708
1695387863614,-0.3100586,-0.97906494,0.06072998,-3.203125,11.59375,6.375,709
1695387863654,-0.25439453,-0.89630127,0.024841309,-3.484375,10.125,3.953125,710
1695387863694,-0.3239746,-0.9414673,0.094177246,-0.578125,7.34375,4.390625,711
1695387863734,-0.3005371,-0.9771118,0.12249756,-1.34375,8.453125,2.984375,712
1695387863774,-0.28222656,-0.9819946,0.11883545,-1.0,5.390625,0.96875,713
1695387863814,-0.28295898,-0.9500122,0.109313965,-1.09375,2.109375,1.5,714
1695387863854,-0.328125,-0.96051025,0.10003662,-1.640625,-0.359375,0.375,715
1695387863894,-0.30688477,-0.9668579,0.11639404,-1.46875,2.4375,-1.25,716
1695387863934,-0.2770996,-0.9763794,0.08734131,-2.84375,1.09375,-2.5,717
1695387863974,-0.26879883,-0.95635986,0.09832764,-2.109375,-3.265625,-2.0,718
1695387864014,-0.2878418,-0.98272705,0.10223389,-1.890625,-2.796875,-1.828125,719
1695387864054,-0.23461914,-0.972229,0.06854248,-1.734375,-6.421875,-1.328125,720
1695387864094,-0.26660156,-0.93341064,0.06341553,-1.75,-11.6875,-2.0,721
1695387864134,-0.27270508,-0.92633057,0.09979248,-2.234375,-13.484375,-3.171875,722
1695387864174,-0.31152344,-0.9458618,0.113220215,-2.515625,-13.09375,-3.109375,723
1695387864214,-0.34326172,-0.9614868,0.081970215,-3.859375,-16.765625,-4.75,724
1695387864254,-0.35717773,-0.9378052,0.11981201,-3.5,-15.015625,-6.828125,725
1695387864294,-0.4543457,-0.91607666,0.07684326,-2.421875,-12.03125,-10.96875,726
1695387864334,-0.3479004,-0.9768677,0.15985107,-0.890625,-5.46875,-12.453125,727
1695387864374,-0.3305664,-0.9204712,0.066345215,-4.875,-6.90625,-16.15625,728
1695387864414,-0.33911133,-0.92559814,0.066589355,-2.515625,-6.1875,-12.625,729
1695387864454,-0.43945312,-0.93951416,0.09661865,-1.375,-5.296875,-10.671875,730
1695387864494,-0.34960938,-0.94073486,0.04949951,-0.171875,-5.34375,-6.90625,731
1695387864534,-0.38745117,-0.92388916,0.09661865,1.328125,-8.4375,-4.703125,732
1695387864574,-0.4260254,-0.9505005,0.101989746,-1.4375,-8.28125,-3.84375,733
1695387864614,-0.48779297,-0.94244385,0.13104248,-1.1875,-7.0625,-2.234375,734
1695387864654,-0.44580078,-0.92633057,0.08758545,-3.890625,-3.734375,-2.0,735
1695387864694,-0.4609375,-0.9500122,0.10028076,-9.015625,3.640625,-3.84375,736
1695387864734,-0.42358398,-0.88848877,0.101501465,-5.71875,2.421875,-0.046875,737
1695387864774,-0.47192383,-0.9483032,0.11224365,-1.5,-2.046875,2.234375,738
1695387864814,-0.44726562,-0.91729736,0.07269287,-1.71875,-2.203125,3.203125,739
1695387864854,-0.45922852,-0.9216919,0.08392334,0.0,-1.390625,5.859375,740
1695387864894,-0.47827148,-0.9026489,0.09637451,-0.4375,-0.125,5.03125,741
1695387864934,-0.48632812,-0.92974854,0.09979248,1.671875,4.828125,6.390625,742
1695387864974,-0.41503906,-0.9277954,0.09124756,2.234375,8.046875,7.03125,743
1695387865014,-0.43481445,-0.9470825,0.11541748,0.734375,8.953125,6.4375,744
1695387865054,-0.4794922,-0.9277954,0.08514404,0.625,12.953125,8.0625,745
1695387865094,-0.41870117,-0.9031372,0.10321045,0.6875,17.25,9.40625,746
1695387865134,-0.35424805,-0.92681885,0.09442139,0.90625,15.6875,8.984375,747
1695387865174,-0.38330078,-0.9636841,0.13909912,2.921875,14.265625,10.515625,748
1695387865214,-0.36865234,-0.95635986,0.1395874,1.71875,13.453125,9.671875,749
1695387865254,-0.30664062,-0.92071533,0.089538574,4.046875,13.96875,10.625,750
1695387865294,-0.30004883,-0.94903564,0.11224365,4.5,12.21875,10.109375,751
1695387865334,-0.31054688,-0.9397583,0.12225342,3.515625,13.15625,10.125,752
1695387865374,-0.3227539,-0.9763794,0.11419678,2.1875,11.9375,8.484375,753
1695387865414,-0.26904297,-0.93829346,0.10760498,2.046875,13.03125,7.546875,754
1695387865454,-0.26904297,-0.94415283,0.11517334,2.734375,10.34375,6.8125,755
1695387865494,-0.27197266,-0.9758911,0.11932373,2.21875,8.953125,5.921875,756
1695387865534,-0.23999023,-0.9614868,0.078308105,2.28125,6.015625,4.34375,757
1695387865574,-0.24267578,-0.97491455,0.10223389,1.8125,2.046875,1.796875,758
1695387865614,-0.24731445,-0.95758057,0.085632324,1.53125,-1.203125,0.59375,759
1695387865654,-0.2553711,-0.98272705,0.0848999,0.46875,-4.140625,-1.125,760
1695387865694,-0.23950195,-0.96881104,0.0770874,-0.328125,-6.265625,-2.953125,761
1695387865734,-0.25732422,-1.0064087,0.078063965,-2.09375,-7.78125,-3.453125,762
1695387865774,-0.24072266,-0.9505005,0.09075928,-4.609375,-10.28125,-6.875,763
1695387865814,-0.26538086,-0.9307251,0.09637451,-3.75,-10.90625,-7.859375,764
1695387865854,-0.2680664,-0.9421997,0.0680542,-4.390625,-11.484375,-9.453125,765
1695387865894,-0.30444336,-0.9343872,0.08514404,-0.953125,-11.3125,-9.25,766
1695387865934,-0.32958984,-0.98443604,0.105895996,1.046875,-9.96875,-8.9375,767
1695387865974,-0.32763672,-0.9741821,0.11785889,0.640625,-7.53125,-8.078125,768
1695387866014,-0.34155273,-0.97125244,0.117370605,0.921875,-6.921875,-6.4375,769
1695387866054,-0.36572266,-0.96099854,0.08660889,1.109375,-5.03125,-4.125,770
1695387866094,-0.3762207,-0.986145,0.11590576,1.078125,-3.28125,-3.21875,771
1695387866134,-0.35107422,-0.9780884,0.09564209,-0.46875,1.046875,0.328125,772
1695387866174,-0.3725586,-0.9714966,0.105895996,0.65625,2.921875,2.671875,773
1695387866214,-0.34057617,-0.9573364,0.074401855,-1.40625,5.015625,2.59375,774
1695387866254,-0.32592773,-0.96832275,0.08734131,-0.140625,5.546875,3.75,775
1695387866294,-0.33007812,-0.9793091,0.08343506,-1.78125,5.890625,4.390625,776
1695387866334,-0.3474121,-0.9397583,0.09637451,-0.390625,6.671875,5.734375,777
1695387866374,-0.33691406,-0.9558716,0.08050537,-0.015625,6.578125,7.046875,778
1695387866414,-0.34936523,-0.95635986,0.09124756,-0.921875,6.953125,6.90625,779
1695387866454,-0.34057617,-0.9524536,0.08099365,-0.203125,8.046875,6.515625,780
1695387866494,-0.32495117,-0.93756104,0.074157715,0.328125,7.75,6.125,781
1695387866534,-0.32421875,-0.96343994,0.1161499,2.953125,8.453125,7.5625,782
1695387866574,-0.30737305,-0.97735596,0.13250732,-2.46875,12.34375,3.8125,783
1695387866614,-0.30029297,-0.9324341,0.062927246,-0.453125,12.953125,0.203125,784
1695387866654,-0.30615234,-0.98101807,0.11077881,-1.453125,10.5,-2.984375,785
1695387866694,-0.27661133,-0.9495239,0.09637451,-0.328125,9.9375,-2.9375,786
1695387866734,-0.25756836,-0.9631958,0.097351074,2.0,4.171875,-2.859375,787
1695387866774,-0.26757812,-0.9463501,0.09124756,0.8125,0.078125,-4.0,788
1695387866814,-0.25146484,-0.9470825,0.042907715,2.421875,-2.1875,-3.953125,789
1695387866854,-0.29492188,-0.9776001,0.0914917,0.828125,-3.53125,-5.46875,790
1695387866894,-0.32373047,-0.958313,0.09686279,-0.375,-6.09375,-4.859375,791
1695387866934,-0.30566406,-0.9602661,0.049743652,-1.890625,-6.6875,-5.34375,792
1695387866974,-0.30786133,-0.9578247,0.07489014,-0.9375,-5.71875,-5.484375,793
1695387867014,-0.33422852,-0.9602661,0.09197998,-1.890625,-5.84375,-5.375,794
1695387867054,-0.33154297,-0.95758057,0.07684326,-2.703125,-5.859375,-5.484375,795
1695387867094,-0.35424805,-0.944397,0.10882568,-1.78125,-6.265625,-5.484375,796
1695387867134,-0.35302734,-0.954895,0.073913574,-3.4375,-5.65625,-5.125,797
1695387867174,-0.37670898,-0.93536377,0.09466553,-1.75,-5.953125,-4.15625,798
1695387867214,-0.3869629,-0.960022,0.09442139,-1.34375,-5.03125,-3.78125,799
1695387867254,-0.3876953,-0.94317627,0.10003662,-0.828125,-3.59375,-2.015625,800
1695387867294,-0.4189453,-0.94195557,0.101745605,0.84375,-2.65625,-0.5,801
1695387867334,-0.40307617,-0.9492798,0.09588623,1.21875,-1.140625,-0.40625,802
1695387867374,-0.37036133,-0.9492798,0.0836792,0.375,0.484375,0.296875,803
1695387867414,-0.375,-0.9302368,0.058776855,-0.40625,0.90625,0.578125,804
1695387867454,-0.3857422,-0.92437744,0.078552246,0.0625,1.46875,1.109375,805
1695387867494,-0.38598633,-0.9495239,0.081970215,-0.03125,1.90625,1.125,806
1695387867534,-0.37231445,-0.9468384,0.07757568,-0.4375,1.890625,1.640625,807
1695387867574,-0.37670898,-0.94488525,0.078308105,0.21875,1.640625,2.921875,808
1695387867614,-0.37304688,-0.9378052,0.06512451,-0.078125,2.5625,3.15625,809
1695387867654,-0.37036133,-0.94781494,0.09490967,-0.609375,1.296875,3.28125,810
1695387867694,-0.3774414,-0.9500122,0.08099365,-0.65625,2.265625,3.125,811
1695387867734,-0.39135742,-0.9614868,0.09979248,-0.84375,4.421875,3.9375,812
1695387867774,-0.37329102,-0.9612427,0.09539795,-0.90625,10.546875,4.265625,813
1695387867814,-0.3544922,-0.97052,0.10809326,-1.328125,12.8125,5.78125,814
1695387867854,-0.3647461,-0.960022,0.13128662,-2.515625,12.796875,6.15625,815
1695387867894,-0.3395996,-0.9295044,0.08074951,-2.421875,9.453125,5.46875,816
1695387867934,-0.30615234,-0.91729736,0.039489746,0.328125,5.21875,5.890625,817
1695387867974,-0.30126953,-0.9402466,0.08807373,1.5625,4.421875,5.546875,818
1695387868014,-0.3232422,-0.9578247,0.11077881,0.421875,2.8125,4.375,819
1695387868054,-0.2944336,-0.9456177,0.10369873,-0.703125,1.203125,3.0,820
1695387868094,-0.3022461,-0.95391846,0.10736084,0.0,0.625,2.109375,821
1695387868134,-0.31762695,-0.97052,0.109558105,0.359375,1.125,1.21875,822
1695387868174,-0.30786133,-0.93634033,0.09320068,1.171875,0.0625,0.359375,823
1695387868214,-0.30151367,-0.96173096,0.12371826,0.34375,-0.203125,0.046875,824
1695387868254,-0.28881836,-0.95269775,0.081726074,0.234375,-1.078125,-1.421875,825
1695387868294,-0.2775879,-0.9663696,0.10028076,1.0625,-4.3125,-1.6875,826
1695387868334,-0.3203125,-0.95562744,0.105163574,-0.703125,-5.609375,-2.015625,827
1695387868374,-0.31958008,-0.95391846,0.081726074,-2.296875,-5.28125,-3.296875,828
1695387868414,-0.3125,-0.95391846,0.086120605,-1.28125,-5.90625,-3.765625,829
1695387868454,-0.31445312,-0.9636841,0.105895996,-1.484375,-5.75,-3.484375,830
1695387868494,-0.31982422,-0.95562744,0.085876465,-2.5625,-4.59375,-3.734375,831
1695387868534,-0.32910156,-0.93756104,0.0758667,-1.828125,-5.15625,-3.890625,832
1695387868574,-0.35058594,-0.96661377,0.101257324,-1.921875,-5.0625,-3.984375,833
1695387868614,-0.35253906,-0.9536743,0.1005249,-1.578125,-5.0625,-3.703125,834
1695387868654,-0.35766602,-0.9463501,0.10223389,-0.25,-5.015625,-2.953125,835
1695387868694,-0.3798828,-0.960022,0.09832764,0.78125,-4.21875,-1.875,836
1695387868734,-0.3798828,-0.95147705,0.101989746,0.1875,-2.34375,-1.546875,837
1695387868774,-0.36083984,-0.9546509,0.08001709,-0.140625,0.109375,-0.6875,838
1695387868814,-0.37182617,-0.9661255,0.09710693,-0.421875,1.078125,-1.734375,839
1695387868854,-0.33935547,-0.94317627,0.085876465,0.046875,2.71875,-1.015625,840
1695387868894,-0.38012695,-0.96759033,0.10882568,0.671875,5.171875,-0.734375,841
1695387868934,-0.36694336,-0.93585205,0.07757568,0.09375,8.296875,-0.15625,842
1695387868974,-0.3635254,-0.9417114,0.08465576,1.09375,9.484375,-0.234375,843
1695387869014,-0.37280273,-0.94976807,0.101745605,0.8125,10.421875,-0.109375,844
1695387869054,-0.36767578,-0.9360962,0.0848999,0.875,9.15625,0.4375,845
1695387869094,-0.37451172,-0.927063,0.09857178,2.828125,8.28125,1.484375,846
1695387869134,-0.40283203,-0.95758057,0.08880615,2.171875,7.453125,1.921875,847
1695387869174,-0.38061523,-0.9463501,0.08148193,2.78125,6.765625,2.59375,848
1695387869214,-0.3630371,-0.9656372,0.101257324,3.484375,6.609375,4.21875,849
1695387869254,-0.35327148,-0.9536743,0.07196045,2.265625,5.796875,4.046875,850
1695387869294,-0.3203125,-0.940979,0.047790527,2.890625,3.71875,3.375,851
1695387869334,-0.34179688,-0.9522095,0.07220459,1.140625,3.265625,2.1875,852
1695387869374,-0.3383789,-0.9561157,0.05682373,0.03125,2.125,1.140625,853
1695387869414,-0.33642578,-0.9661255,0.06951904,-0.65625,1.921875,-0.1875,854
1695387869454,-0.3334961,-0.97369385,0.073913574,-3.09375,2.40625,0.9375,855
1695387869494,-0.30419922,-0.9343872,0.06317139,-3.9375,0.828125,1.171875,856
1695387869534,-0.31469727,-0.97003174,0.085632324,-4.46875,-1.390625,0.09375,857
1695387869574,-0.30322266,-0.92388916,0.08538818,-3.796875,-3.640625,-0.140625,858
1695387869614,-0.33251953,-0.92559814,0.105407715,-3.265625,-5.609375,-2.046875,859
1695387869654,-0.36108398,-0.95147705,0.109802246,-1.96875,-5.15625,-2.578125,860
1695387869694,-0.33666992,-0.96881104,0.113464355,-1.734375,-4.34375,-1.09375,861
1695387869734,-0.3371582,-0.9451294,0.08416748,-1.0625,-5.5,-0.46875,862
1695387869774,-0.38671875,-0.96099854,0.10394287,0.5,-5.828125,0.5,863
1695387869814,-0.3491211,-0.93829346,0.08343506,0.1875,-3.953125,0.8125,864
1695387869854,-0.32666016,-0.9807739,0.061706543,-1.0,-6.59375,1.125,865
1695387869894,-0.44628906,-0.95806885,0.12225342,2.796875,-4.15625,5.421875,866
1695387869934,-0.42700195,-0.9507446,0.09661865,0.828125,2.515625,3.28125,867
1695387869974,-0.32861328,-0.92755127,0.07098389,1.9375,6.6875,3.25,868
1695387870014,-0.31884766,-0.9780884,0.08123779,1.28125,6.046875,3.359375,869
1695387870054,-0.2890625,-0.95269775,0.061706543,-1.625,4.734375,2.28125,870
1695387870094,-0.30566406,-0.9495239,0.06903076,-2.203125,2.203125,1.21875,871
1695387870134,-0.28857422,-0.97320557,0.06781006,-2.75,-1.078125,0.8125,872
1695387870174,-0.30859375,-0.95758057,0.07171631,-2.78125,-1.71875,1.640625,873
1695387870214,-0.31835938,-0.9500122,0.08734131,-2.796875,-4.0625,1.65625,874
1695387870254,-0.3071289,-0.95025635,0.07733154,-2.515625,-4.203125,1.703125,875
1695387870294,-0.3449707,-0.9522095,0.0993042,-3.40625,-5.078125,0.65625,876
1695387870334,-0.30493164,-0.9458618,0.10345459,-2.8125,-4.953125,0.65625,877
1695387870374,-0.32666016,-0.9458618,0.08758545,-2.84375,-5.171875,0.546875,878
1695387870414,-0.3762207,-0.954895,0.12762451,-1.390625,-5.765625,-0.21875,879
1695387870454,-0.32202148,-0.9500122,0.09564209,-1.671875,-2.96875,0.234375,880
1695387870494,-0.33203125,-0.9517212,0.101989746,-0.890625,-3.703125,-0.21875,881
1695387870534,-0.34643555,-0.96588135,0.10369873,-0.890625,-1.875,0.734375,882
1695387870574,-0.34838867,-0.9470825,0.07733154,-2.015625,0.03125,-0.625,883
1695387870614,-0.3474121,-0.93096924,0.08905029,-0.875,2.59375,-1.421875,884
1695387870654,-0.31811523,-0.94781494,0.09564209,0.875,4.5,-0.9375,885
