timestamp,accel_x,accel_y,accel_z,gyro_x,gyro_y,gyro_z
1695636830816,-0.28125,-0.97320557,0.094177246,1.515625,2.515625,-2.21875
1695636830856,-0.2800293,-0.95928955,0.09490967,0.734375,2.5625,-0.390625
1695636830896,-0.28833008,-0.9717407,0.089782715,2.328125,2.21875,-1.0625
1695636830936,-0.2746582,-0.96295166,0.090026855,1.1875,2.796875,-0.640625
1695636830976,-0.26953125,-0.96881104,0.09637451,-2.1875,-1.78125,-0.296875
1695636831016,-0.31225586,-0.9776001,0.10882568,0.359375,1.171875,-1.296875
1695636831056,-0.32080078,-0.9492798,0.0848999,-0.546875,1.140625,-0.25
1695636831096,-0.29052734,-0.9651489,0.101257324,-0.9375,2.609375,-1.234375
1695636831136,-0.3137207,-0.9522095,0.11077881,-1.015625,1.03125,1.546875
1695636831176,-0.3166504,-0.9780884,0.11419678,-1.21875,1.09375,-1.140625
1695636831216,-0.30029297,-0.94976807,0.11029053,0.203125,2.5625,-0.78125
1695636831256,-0.28637695,-0.96417236,0.11199951,-0.5625,1.828125,-0.28125
1695636831296,-0.33203125,-0.96954346,0.10369873,-0.796875,2.4375,-0.984375
1695636831336,-0.28393555,-0.94537354,0.10882568,-0.375,3.03125,-1.515625
1695636831376,-0.31591797,-0.9644165,0.12030029,-1.640625,0.609375,-0.65625
1695636831416,-0.31103516,-0.9714966,0.10101318,-1.015625,3.1875,-1.53125
1695636831456,-0.2927246,-0.9397583,0.11273193,0.96875,2.453125,-0.4375
1695636831496,-0.29785156,-0.9602661,0.10638428,-3.21875,2.21875,0.140625
1695636831536,-0.30517578,-0.96954346,0.11810303,-0.75,0.078125,0.328125
1695636831576,-0.32714844,-0.9541626,0.121032715,-0.671875,0.140625,-0.5
1695636831616,-0.30737305,-0.94732666,0.11395264,-1.1875,1.890625,1.0625
1695636831656,-0.30810547,-0.9651489,0.109069824,-1.0625,0.53125,0.15625
1695636831696,-0.3383789,-0.95196533,0.121032715,-1.140625,0.75,0.96875
1695636831736,-0.30126953,-0.9649048,0.121276855,-1.1875,1.046875,-0.109375
1695636831776,-0.32055664,-0.94854736,0.10736084,0.078125,0.578125,0.125
1695636831816,-0.30517578,-0.94854736,0.11151123,0.96875,0.65625,0.3125
1695636831856,-0.31030273,-0.9763794,0.13006592,-1.71875,0.0,-0.078125
1695636831896,-0.33325195,-0.9434204,0.10858154,-0.5625,0.140625,-0.640625
1695636831936,-0.31225586,-0.9607544,0.11517334,-0.828125,0.21875,-0.0625
1695636831976,-0.3095703,-0.95562744,0.113220215,-0.890625,0.671875,-0.359375
1695636832016,-0.32592773,-0.9529419,0.13031006,-0.828125,0.796875,0.484375
1695636832056,-0.33984375,-0.96051025,0.12054443,-1.359375,1.046875,0.0
1695636832096,-0.31030273,-0.94732666,0.12322998,-0.703125,1.0625,0.890625
1695636832136,-0.31811523,-0.95440674,0.12030029,-0.140625,0.828125,2.21875
1695636832176,-0.3088379,-0.9595337,0.12005615,-0.328125,1.484375,1.109375
1695636832216,-0.3269043,-0.9368286,0.12738037,-1.328125,1.4375,1.28125
1695636832256,-0.3005371,-0.97369385,0.12225342,-1.5625,1.703125,-0.0625
1695636832296,-0.3347168,-0.95025635,0.13079834,0.296875,0.703125,0.296875
1695636832336,-0.29174805,-0.95684814,0.13348389,0.421875,0.65625,0.078125
1695636832376,-0.33618164,-0.954895,0.11419678,-0.140625,0.859375,0.15625
1695636832416,-0.30688477,-0.96466064,0.13006592,-1.96875,1.03125,0.234375
1695636832456,-0.3190918,-0.95513916,0.12957764,-1.84375,-0.046875,0.65625
1695636832496,-0.32373047,-0.95196533,0.13934326,-1.03125,0.59375,0.3125
1695636832536,-0.3149414,-0.9602661,0.11932373,-1.515625,0.984375,0.421875
1695636832576,-0.3190918,-0.958313,0.14715576,-1.40625,0.328125,0.40625
1695636832616,-0.32421875,-0.9456177,0.12542725,-1.265625,2.40625,0.96875
1695636832656,-0.29101562,-0.9585571,0.1227417,-1.078125,1.265625,-0.046875
1695636832696,-0.33740234,-0.9541626,0.14837646,-0.21875,0.6875,1.265625
1695636832736,-0.29174805,-0.9573364,0.1317749,-0.40625,1.1875,0.5
1695636832776,-0.33569336,-0.9500122,0.12908936,-0.703125,0.46875,0.28125
1695636832816,-0.30493164,-0.9595337,0.13812256,-0.234375,0.3125,0.671875
1695636832856,-0.30981445,-0.94537354,0.14031982,0.75,1.125,0.53125
1695636832896,-0.31689453,-0.9534302,0.12860107,-0.78125,0.96875,0.734375
1695636832936,-0.32055664,-0.95684814,0.14422607,0.453125,0.578125,0.703125
1695636832976,-0.31591797,-0.9644165,0.13421631,-1.171875,1.84375,1.5625
1695636833016,-0.29614258,-0.9558716,0.11395264,-0.25,1.4375,-0.578125
1695636833056,-0.3178711,-0.96051025,0.1473999,-0.359375,1.625,-0.203125
1695636833096,-0.31079102,-0.95635986,0.13348389,-0.421875,2.109375,-0.328125
1695636833136,-0.30004883,-0.9649048,0.121276855,-1.90625,1.78125,-0.84375
1695636833176,-0.31933594,-0.9590454,0.137146,-1.1875,1.078125,-0.09375
1695636833216,-0.29833984,-0.95928955,0.13861084,-2.765625,1.078125,0.84375
1695636833256,-0.30493164,-0.9541626,0.12542725,-2.78125,1.34375,-0.296875
1695636833296,-0.3203125,-0.95635986,0.13446045,-1.78125,2.171875,-0.125
1695636833336,-0.29248047,-0.95440674,0.13787842,-2.046875,2.046875,1.0625
1695636833376,-0.31591797,-0.9546509,0.14447021,-0.515625,0.578125,0.328125
1695636833416,-0.3125,-0.9546509,0.13397217,-0.359375,0.125,0.640625
1695636833456,-0.30639648,-0.9495239,0.14569092,-1.609375,1.421875,0.21875
1695636833496,-0.31640625,-0.95318604,0.16278076,-1.8125,1.109375,-0.21875
1695636833536,-0.3088379,-0.9487915,0.15179443,0.28125,0.78125,0.421875
1695636833576,-0.32128906,-0.9458618,0.13861084,-2.03125,0.703125,0.78125
1695636833616,-0.29614258,-0.9656372,0.1552124,-0.84375,0.859375,-0.046875
1695636833656,-0.33007812,-0.94537354,0.15716553,-2.328125,1.40625,0.078125
1695636833696,-0.3137207,-0.95513916,0.15985107,-1.765625,1.46875,-0.203125
1695636833736,-0.2866211,-0.95635986,0.15472412,-2.421875,1.96875,0.21875
1695636833776,-0.33032227,-0.96417236,0.16888428,-0.203125,2.9375,-1.125
1695636833816,-0.31933594,-0.93951416,0.14544678,-1.890625,1.078125,2.0
1695636833856,-0.30664062,-0.96417236,0.168396,-1.046875,1.1875,0.296875
1695636833896,-0.3190918,-0.9483032,0.15740967,0.125,1.3125,0.046875
1695636833936,-0.31274414,-0.9607544,0.16619873,-0.921875,1.140625,1.28125
1695636833976,-0.30615234,-0.95318604,0.17059326,0.0625,0.8125,0.484375
1695636834016,-0.3034668,-0.95098877,0.16644287,-1.625,0.46875,0.25
1695636834056,-0.29296875,-0.96173096,0.1605835,-1.96875,1.28125,-0.234375
1695636834096,-0.33154297,-0.9522095,0.18206787,-0.578125,-0.125,0.953125
1695636834136,-0.30541992,-0.9561157,0.17596436,-1.140625,-0.109375,1.078125
1695636834176,-0.3173828,-0.94195557,0.16107178,-0.375,0.375,0.90625
1695636834216,-0.3100586,-0.95147705,0.16741943,-1.6875,0.828125,0.515625
1695636834256,-0.30664062,-0.9624634,0.17596436,-0.515625,0.875,0.625
1695636834296,-0.31933594,-0.9402466,0.16546631,-0.328125,1.71875,0.28125
1695636834336,-0.29174805,-0.9614868,0.16815186,0.125,2.390625,0.03125
1695636834376,-0.3161621,-0.9536743,0.1774292,-0.953125,1.640625,0.21875
1695636834416,-0.30810547,-0.94781494,0.17279053,-0.1875,1.0,-0.421875
1695636834456,-0.30932617,-0.9487915,0.184021,-1.234375,0.125,1.96875
1695636834496,-0.30786133,-0.958313,0.152771,-1.1875,-0.359375,-0.109375
1695636834536,-0.30444336,-0.95196533,0.16326904,0.640625,2.53125,-0.15625
1695636834576,-0.29638672,-0.9631958,0.16595459,-0.421875,0.5625,0.640625
1695636834616,-0.30932617,-0.94610596,0.17156982,-1.296875,1.859375,-0.75
1695636834656,-0.32128906,-0.9602661,0.17694092,0.328125,1.96875,-1.171875
1695636834696,-0.31762695,-0.9365845,0.18817139,-1.734375,-0.078125,1.359375
1695636834736,-0.29052734,-0.96417236,0.16595459,0.3125,0.515625,-0.109375
1695636834776,-0.32495117,-0.94366455,0.15838623,-0.34375,1.6875,-0.4375
1695636834816,-0.30078125,-0.96343994,0.17059326,-0.40625,1.15625,0.65625
1695636834856,-0.29882812,-0.9595337,0.17059326,-0.921875,1.0,-0.125
1695636834896,-0.3322754,-0.9624634,0.1671753,-0.3125,1.1875,0.015625
1695636834936,-0.29516602,-0.94854736,0.1708374,-0.0625,1.3125,0.234375
1695636834976,-0.31201172,-0.9558716,0.16986084,-2.34375,2.421875,0.03125
1695636835016,-0.32788086,-0.96588135,0.16619873,-0.265625,0.921875,-0.75
1695636835056,-0.31054688,-0.94317627,0.17791748,-2.96875,0.296875,1.125
1695636835096,-0.3083496,-0.9536743,0.16644287,-0.453125,1.0,-0.40625
1695636835136,-0.31103516,-0.9434204,0.18035889,0.1875,1.265625,0.421875
1695636835176,-0.30859375,-0.95391846,0.1696167,-0.84375,1.0625,0.796875
1695636835216,-0.31274414,-0.9524536,0.17962646,0.21875,0.875,-0.46875
1695636835256,-0.31030273,-0.94537354,0.18231201,-0.78125,0.828125,1.125
1695636835296,-0.33691406,-0.94610596,0.17718506,-0.953125,-1.28125,0.078125
1695636835336,-0.29370117,-0.96661377,0.18426514,-0.296875,0.4375,0.921875
1695636835376,-0.3059082,-0.9348755,0.16986084,-0.90625,1.5625,-0.703125
1695636835416,-0.3359375,-0.9585571,0.18865967,0.234375,-1.5,1.03125
1695636835456,-0.31396484,-0.9546509,0.19818115,-4.265625,2.65625,-1.078125
1695636835496,-0.35546875,-0.94244385,0.17889404,-0.40625,2.34375,-1.59375
1695636835536,-0.30932617,-0.92926025,0.20306396,-3.5,3.421875,0.21875
1695636835576,-0.3190918,-0.9570923,0.17596436,-2.140625,2.5,-0.4375
1695636835616,-0.31225586,-0.94781494,0.19134521,-1.125,2.875,0.171875
1695636835656,-0.30297852,-0.9378052,0.18060303,-2.9375,2.265625,0.8125
1695636835696,-0.31835938,-0.94854736,0.1930542,-0.671875,1.34375,-0.03125
1695636835736,-0.3083496,-0.9421997,0.19915771,-0.09375,1.015625,0.234375
1695636835776,-0.31884766,-0.942688,0.18597412,-0.546875,1.5625,0.375
1695636835816,-0.31762695,-0.9487915,0.20233154,0.109375,0.265625,0.328125
1695636835856,-0.32055664,-0.9458618,0.1876831,-0.375,0.203125,0.640625
1695636835896,-0.3161621,-0.9434204,0.1852417,-0.3125,0.6875,-0.671875
1695636835936,-0.32055664,-0.9524536,0.1828003,-1.109375,1.546875,-0.203125
1695636835976,-0.29345703,-0.9561157,0.1930542,1.953125,0.84375,-1.28125
1695636836016,-0.3232422,-0.9319458,0.18939209,-1.40625,-1.203125,1.875
1695636836056,-0.31469727,-0.96221924,0.17962646,-2.8125,-1.4375,0.640625
1695636836096,-0.31225586,-0.9492798,0.21697998,-2.953125,-1.34375,-0.015625
1695636836136,-0.33422852,-0.9368286,0.18084717,-2.46875,-1.59375,0.3125
1695636836176,-0.30688477,-0.954895,0.2033081,-1.984375,-0.578125,0.671875
1695636836216,-0.31347656,-0.9277954,0.1852417,-1.15625,-1.921875,0.765625
1695636836256,-0.30664062,-0.9627075,0.2111206,-0.765625,-1.8125,2.21875
1695636836296,-0.3310547,-0.925354,0.20477295,0.46875,-1.546875,1.09375
1695636836336,-0.32836914,-0.92974854,0.19085693,-1.078125,0.03125,0.390625
1695636836376,-0.32250977,-0.958313,0.2008667,1.296875,1.109375,0.3125
1695636836416,-0.3137207,-0.9378052,0.18109131,1.765625,0.8125,-0.46875
1695636836456,-0.30664062,-0.95440674,0.20379639,0.125,1.640625,0.15625
1695636836496,-0.30273438,-0.9487915,0.18011475,0.625,1.25,-0.28125
1695636836536,-0.3100586,-0.95098877,0.215271,0.546875,0.65625,-0.484375
1695636836576,-0.32592773,-0.9336548,0.19769287,-0.46875,0.90625,0.0
1695636836616,-0.30493164,-0.95098877,0.19696045,-0.859375,0.203125,1.203125
1695636836656,-0.32543945,-0.9487915,0.18231201,-2.25,1.65625,0.0625
1695636836696,-0.31396484,-0.94903564,0.20037842,-0.796875,1.828125,-0.484375
1695636836736,-0.31835938,-0.9385376,0.19647217,-1.65625,-0.046875,0.5625
1695636836776,-0.328125,-0.9421997,0.20501709,-1.484375,1.09375,-0.234375
1695636836816,-0.31274414,-0.9314575,0.19891357,-1.71875,2.3125,0.296875
1695636836856,-0.31323242,-0.94732666,0.20452881,-0.4375,1.328125,0.109375
1695636836896,-0.3125,-0.9558716,0.20477295,-0.671875,0.1875,0.8125
1695636836936,-0.3215332,-0.93048096,0.19818115,-0.1875,0.5,0.296875
1695636836976,-0.32373047,-0.94976807,0.20574951,-0.4375,0.984375,0.8125
1695636837016,-0.31835938,-0.95562744,0.2033081,-1.15625,0.703125,0.265625
1695636837056,-0.31323242,-0.9402466,0.20428467,-0.0625,1.375,0.25
1695636837096,-0.31298828,-0.9414673,0.199646,0.625,0.875,0.828125
1695636837136,-0.32373047,-0.9451294,0.20477295,-0.09375,0.3125,0.71875
1695636837176,-0.32592773,-0.942688,0.1852417,-0.84375,1.046875,0.953125
1695636837216,-0.29418945,-0.956604,0.19989014,-0.671875,0.96875,1.15625
1695636837256,-0.31982422,-0.93707275,0.199646,0.515625,2.015625,-1.078125
1695636837296,-0.3137207,-0.94415283,0.19256592,-0.65625,0.234375,0.46875
1695636837336,-0.31445312,-0.94976807,0.19696045,-1.625,1.234375,0.140625
1695636837376,-0.3317871,-0.93829346,0.21087646,0.390625,0.40625,-0.078125
1695636837416,-0.31347656,-0.94976807,0.19647217,-0.75,2.453125,0.703125
1695636837456,-0.32470703,-0.9507446,0.20721436,0.203125,0.40625,-0.328125
1695636837496,-0.30639648,-0.9365845,0.19256592,-0.421875,0.953125,0.078125
1695636837536,-0.3178711,-0.9463501,0.2140503,-0.171875,0.34375,0.5
1695636837576,-0.32421875,-0.9421997,0.20159912,0.1875,-0.703125,0.265625
1695636837616,-0.32055664,-0.9314575,0.20135498,-0.546875,0.8125,0.328125
1695636837656,-0.32421875,-0.9487915,0.2008667,-0.4375,1.890625,-0.078125
1695636837696,-0.31445312,-0.9500122,0.20648193,0.515625,-0.28125,0.71875
1695636837736,-0.328125,-0.92266846,0.18499756,-1.21875,1.46875,-0.3125
1695636837776,-0.31396484,-0.9663696,0.21673584,0.859375,-0.140625,0.859375
1695636837816,-0.31298828,-0.9404907,0.19281006,-0.4375,1.453125,0.578125
1695636837856,-0.32763672,-0.9365845,0.20135498,0.875,0.234375,-0.734375
1695636837896,-0.32885742,-0.95635986,0.20452881,-1.921875,0.453125,1.765625
1695636837936,-0.3239746,-0.9492798,0.19671631,1.109375,1.328125,-0.953125
1695636837976,-0.31176758,-0.9458618,0.20013428,-1.40625,0.65625,1.375
1695636838016,-0.3046875,-0.9558716,0.18865967,-0.5625,1.578125,0.234375
1695636838056,-0.30639648,-0.9470825,0.2111206,0.265625,0.109375,0.125
1695636838096,-0.3215332,-0.9480591,0.18988037,-1.25,0.296875,1.375
1695636838136,-0.33007812,-0.9390259,0.19744873,0.671875,-0.328125,0.296875
1695636838176,-0.2919922,-0.95806885,0.19354248,0.703125,0.28125,0.875
1695636838216,-0.32299805,-0.9458618,0.1942749,-0.03125,0.84375,-0.546875
1695636838256,-0.31713867,-0.95025635,0.19525146,1.375,-0.109375,1.15625
1695636838296,-0.3166504,-0.95147705,0.1984253,-1.234375,0.546875,0.953125
1695636838336,-0.3137207,-0.9500122,0.18231201,1.125,1.34375,0.765625
1695636838376,-0.31640625,-0.95147705,0.19622803,1.03125,1.203125,1.3125
1695636838416,-0.31323242,-0.9451294,0.17840576,0.90625,1.09375,0.484375
1695636838456,-0.3149414,-0.95806885,0.19671631,0.34375,2.25,0.296875
1695636838496,-0.3076172,-0.9414673,0.17767334,-1.078125,2.46875,0.859375
1695636838536,-0.31201172,-0.9631958,0.19476318,1.359375,1.96875,-0.828125
1695636838576,-0.32226562,-0.97125244,0.11956787,0.59375,2.71875,0.03125
1695636838616,-0.30517578,-0.956604,0.13153076,-1.390625,2.265625,-0.703125
1695636838656,-0.3112793,-0.94244385,0.14031982,-0.9375,0.640625,-0.328125
1695636838696,-0.3125,-0.96881104,0.12957764,-2.140625,2.421875,-0.546875
1695636838736,-0.31860352,-0.9578247,0.14544678,0.0625,-0.3125,0.65625
1695636838776,-0.2927246,-0.9402466,0.14007568,-1.15625,1.0625,0.453125
1695636838816,-0.32666016,-0.95977783,0.1329956,-0.53125,1.359375,0.34375
1695636838856,-0.31518555,-0.93878174,0.1552124,-1.703125,-0.3125,1.078125
1695636838896,-0.31323242,-0.95684814,0.14276123,-1.6875,0.640625,0.328125
1695636838936,-0.32104492,-0.9558716,0.13885498,-1.703125,-0.203125,0.28125
1695636838976,-0.31054688,-0.9507446,0.13763428,-1.3125,1.359375,-0.296875
1695636839016,-0.33203125,-0.94073486,0.16156006,0.046875,0.546875,-0.28125
1695636839056,-0.31860352,-0.9570923,0.13494873,-2.5,1.578125,0.9375
1695636839096,-0.32226562,-0.9595337,0.15130615,0.03125,0.90625,-0.1875
1695636839136,-0.3022461,-0.9558716,0.14691162,-1.03125,0.234375,1.46875
1695636839176,-0.3100586,-0.9595337,0.15301514,0.3125,1.734375,-0.15625
1695636839216,-0.3244629,-0.9417114,0.14886475,-1.0625,0.5625,0.953125
1695636839256,-0.31567383,-0.9639282,0.17034912,-0.75,-0.21875,0.28125
1695636839296,-0.32055664,-0.944397,0.14129639,-2.40625,1.8125,0.046875
1695636839336,-0.30737305,-0.9456177,0.17059326,-0.671875,2.546875,-0.53125
1695636839376,-0.31933594,-0.97076416,0.15496826,-0.734375,1.6875,0.578125
1695636839416,-0.32421875,-0.93829346,0.16156006,2.15625,0.796875,0.328125
1695636839456,-0.3137207,-0.95196533,0.17156982,-1.296875,0.171875,1.90625
1695636839496,-0.33081055,-0.9602661,0.14031982,0.59375,0.25,1.46875
1695636839536,-0.30322266,-0.9631958,0.1408081,-1.34375,-0.453125,0.484375
1695636839576,-0.2944336,-0.95758057,0.1630249,0.703125,1.25,-0.265625
1695636839616,-0.31225586,-0.9524536,0.14398193,0.359375,-0.171875,-0.328125
1695636839656,-0.31567383,-0.960022,0.15350342,0.296875,0.3125,0.21875
1695636839696,-0.3251953,-0.93463135,0.1539917,0.90625,1.015625,0.84375
1695636839736,-0.31762695,-0.95928955,0.15032959,0.03125,0.15625,0.296875
1695636839776,-0.3161621,-0.9612427,0.14056396,-0.84375,1.421875,0.359375
1695636839816,-0.30444336,-0.9590454,0.14715576,-1.46875,1.484375,-1.15625
1695636839856,-0.33374023,-0.9336548,0.1437378,0.0625,2.015625,-0.09375
1695636839896,-0.32641602,-0.9561157,0.14031982,-0.515625,2.671875,-0.875
1695636839936,-0.33203125,-0.94415283,0.13153076,-0.59375,1.71875,-0.515625
1695636839976,-0.3330078,-0.9524536,0.12176514,-1.96875,0.40625,1.0
1695636840016,-0.32666016,-0.9500122,0.1317749,-1.328125,1.015625,-0.71875
1695636840056,-0.3466797,-0.9500122,0.13543701,0.46875,0.09375,-0.453125
1695636840096,-0.3293457,-0.9517212,0.121520996,-1.84375,1.015625,1.234375
1695636840136,-0.3173828,-0.96588135,0.1239624,0.0,0.03125,-0.109375
1695636840176,-0.35009766,-0.9468384,0.14398193,-0.765625,0.59375,0.515625
1695636840216,-0.33642578,-0.9607544,0.14007568,-0.25,-1.078125,1.515625
1695636840256,-0.3305664,-0.9529419,0.117614746,-1.03125,0.8125,0.578125
1695636840296,-0.3317871,-0.9500122,0.14178467,-2.796875,2.125,-0.78125
1695636840336,-0.3383789,-0.96173096,0.1395874,-0.828125,0.84375,-0.125
1695636840376,-0.34204102,-0.9351196,0.14349365,-2.890625,2.0,0.5625
1695636840416,-0.3317871,-0.9558716,0.13812256,-0.359375,1.078125,-0.390625
1695636840456,-0.32739258,-0.95098877,0.13665771,-1.015625,1.640625,0.46875
1695636840496,-0.33691406,-0.956604,0.1449585,-0.875,0.609375,0.109375
1695636840536,-0.3203125,-0.96099854,0.14666748,-1.5,1.015625,1.390625
1695636840576,-0.33618164,-0.93756104,0.13446045,-0.15625,1.515625,-0.15625
1695636840616,-0.3347168,-0.9534302,0.14666748,-1.421875,0.921875,0.9375
1695636840656,-0.32836914,-0.9414673,0.13812256,-0.75,1.234375,1.140625
1695636840696,-0.32348633,-0.9553833,0.14569092,-1.734375,0.734375,0.859375
1695636840736,-0.32788086,-0.9404907,0.14202881,-0.890625,0.171875,1.421875
1695636840776,-0.33129883,-0.954895,0.15814209,-0.125,0.796875,0.265625
1695636840816,-0.32421875,-0.95318604,0.12542725,-0.109375,0.421875,1.03125
1695636840856,-0.32983398,-0.95147705,0.15911865,0.125,0.390625,0.0625
1695636840896,-0.34155273,-0.94903564,0.1227417,-0.53125,1.421875,-1.046875
1695636840936,-0.29956055,-0.94610596,0.12689209,-3.046875,0.828125,-0.875
1695636840976,-0.32495117,-0.9619751,0.11785889,0.9375,1.734375,-1.578125
1695636841016,-0.35839844,-0.94073486,0.11444092,-3.15625,-0.890625,1.46875
1695636841056,-0.27368164,-0.97076416,0.121520996,-2.1875,2.234375,-1.484375
1695636841096,-0.3527832,-0.93707275,0.124694824,-0.875,1.390625,-1.359375
1695636841136,-0.33544922,-0.9585571,0.14837646,-1.96875,-0.234375,1.546875
1695636841176,-0.32250977,-0.940979,0.11956787,2.28125,1.828125,-0.90625
1695636841216,-0.33374023,-0.93585205,0.1383667,-2.15625,1.375,0.53125
1695636841256,-0.3215332,-0.9746704,0.13153076,0.6875,0.6875,1.03125
1695636841296,-0.3359375,-0.9295044,0.12322998,-2.515625,1.828125,0.21875
1695636841336,-0.3232422,-0.9614868,0.12957764,-1.0625,2.21875,0.15625
1695636841376,-0.34204102,-0.94732666,0.14154053,-1.171875,1.640625,1.296875
1695636841416,-0.33203125,-0.95098877,0.13641357,-0.9375,1.9375,1.09375
1695636841456,-0.3244629,-0.93218994,0.13616943,-1.125,2.03125,1.171875
1695636841496,-0.33764648,-0.9771118,0.14227295,0.0,0.578125,0.640625
1695636841536,-0.31884766,-0.940979,0.12567139,-0.421875,2.359375,-0.265625
1695636841576,-0.32299805,-0.956604,0.15008545,-0.484375,0.53125,0.0
1695636841616,-0.34179688,-0.9573364,0.13519287,-1.203125,0.84375,0.140625
1695636841656,-0.32006836,-0.9368286,0.14813232,-0.734375,0.484375,-0.390625
1695636841696,-0.3166504,-0.96099854,0.137146,-3.078125,0.328125,0.15625
1695636841736,-0.31762695,-0.9458618,0.12615967,-1.1875,1.0625,-0.171875
1695636841776,-0.3293457,-0.9480591,0.15472412,-1.171875,0.015625,0.359375
1695636841816,-0.32910156,-0.94976807,0.14422607,-1.5625,1.78125,0.6875
1695636841856,-0.3317871,-0.940979,0.1437378,-0.203125,0.515625,0.125
1695636841896,-0.31958008,-0.9678345,0.15057373,-1.921875,-0.078125,1.328125
1695636841936,-0.34692383,-0.93341064,0.13104248,-0.84375,0.34375,0.28125
1695636841976,-0.32177734,-0.96051025,0.15106201,-0.796875,-0.09375,0.671875
1695636842016,-0.3149414,-0.9483032,0.15325928,0.421875,0.625,-0.125
1695636842056,-0.33862305,-0.93756104,0.1408081,0.125,0.484375,0.21875
1695636842096,-0.32495117,-0.956604,0.15447998,-1.03125,-0.421875,0.796875
1695636842136,-0.32861328,-0.94415283,0.13079834,-0.84375,1.234375,-0.53125
1695636842176,-0.3190918,-0.9522095,0.15008545,-0.640625,-0.0625,0.4375
1695636842216,-0.3251953,-0.95806885,0.1461792,-0.15625,1.28125,-0.046875
1695636842256,-0.3330078,-0.93585205,0.1383667,-1.234375,0.78125,0.46875
1695636842296,-0.32348633,-0.95391846,0.15447998,-0.9375,0.34375,0.15625
1695636842336,-0.3203125,-0.9390259,0.14447021,-0.140625,2.03125,-0.03125
1695636842376,-0.3474121,-0.95147705,0.13568115,-3.265625,0.0,0.125
1695636842416,-0.31054688,-0.95880127,0.1630249,1.078125,2.359375,-1.0625
1695636842456,-0.33447266,-0.9456177,0.13470459,0.5625,1.359375,0.171875
1695636842496,-0.3166504,-0.94781494,0.16375732,-0.546875,0.5,0.640625
1695636842536,-0.34057617,-0.9612427,0.1486206,-0.859375,0.28125,-0.28125
1695636842576,-0.33154297,-0.9385376,0.15228271,-2.296875,-0.34375,0.796875
1695636842616,-0.32910156,-0.9578247,0.14251709,-2.40625,0.4375,0.546875
1695636842656,-0.31713867,-0.9529419,0.15423584,-0.578125,1.234375,-0.625
1695636842696,-0.3305664,-0.9468384,0.15594482,0.484375,0.46875,0.109375
1695636842736,-0.34643555,-0.94073486,0.14764404,-0.546875,1.4375,0.578125
1695636842776,-0.32470703,-0.9573364,0.16815186,-1.296875,-0.953125,0.46875
1695636842816,-0.31567383,-0.94317627,0.14959717,-1.078125,2.03125,-0.234375
1695636842856,-0.35986328,-0.9561157,0.15496826,-0.0625,-0.328125,0.796875
1695636842896,-0.31835938,-0.9451294,0.14642334,-0.546875,1.296875,-0.171875
1695636842936,-0.3474121,-0.9385376,0.16644287,0.359375,-0.28125,0.578125
1695636842976,-0.32299805,-0.95269775,0.12957764,-0.25,-0.0625,1.453125
1695636843016,-0.3125,-0.9624634,0.15765381,0.703125,1.578125,-0.109375
1695636843056,-0.32983398,-0.9397583,0.14056396,-2.3125,0.71875,1.328125
1695636843096,-0.32763672,-0.96588135,0.16253662,0.28125,0.859375,-0.40625
1695636843136,-0.3330078,-0.93536377,0.15179443,-1.125,1.21875,0.453125
1695636843176,-0.32983398,-0.9495239,0.1671753,-0.96875,1.078125,-0.03125
1695636843216,-0.33984375,-0.95684814,0.14422607,-0.359375,1.296875,-0.203125
1695636843256,-0.328125,-0.94537354,0.15985107,-2.34375,0.828125,1.46875
1695636843296,-0.3154297,-0.9639282,0.15350342,-0.234375,1.859375,-0.328125
1695636843336,-0.3347168,-0.93878174,0.15740967,-0.453125,0.40625,0.859375
1695636843376,-0.3125,-0.9546509,0.1593628,-0.734375,1.203125,0.359375
1695636843416,-0.34716797,-0.94732666,0.15618896,-0.578125,0.6875,-0.4375
1695636843456,-0.33935547,-0.9644165,0.16693115,0.28125,-0.125,0.21875
1695636843496,-0.31958008,-0.9429321,0.17474365,-1.65625,1.828125,1.0
1695636843536,-0.33935547,-0.92388916,0.168396,0.359375,0.671875,-0.078125
1695636843576,-0.32177734,-0.9678345,0.1749878,-0.5625,0.453125,1.1875
1695636843616,-0.33325195,-0.93292236,0.1593628,-0.109375,1.53125,-0.703125
1695636843656,-0.3293457,-0.9458618,0.17572021,0.3125,-0.0625,1.09375
1695636843696,-0.33081055,-0.96099854,0.16864014,-0.59375,1.015625,0.78125
1695636843736,-0.3317871,-0.9348755,0.18133545,-0.375,1.125,-1.1875
1695636843776,-0.34033203,-0.940979,0.17181396,-1.625,-0.671875,2.375
1695636843816,-0.30615234,-0.97320557,0.17059326,0.671875,1.453125,-0.34375
1695636843856,-0.33666992,-0.92144775,0.15423584,0.34375,1.796875,-0.578125
1695636843896,-0.32543945,-0.95928955,0.184021,-1.859375,0.296875,1.078125
1695636843936,-0.33325195,-0.94781494,0.16082764,1.234375,3.203125,-0.53125
1695636843976,-0.32177734,-0.9302368,0.1828003,-1.390625,1.875,1.75
1695636844016,-0.32421875,-0.96710205,0.18060303,-0.578125,0.5625,0.0625
1695636844056,-0.32373047,-0.9360962,0.15252686,-1.359375,2.390625,0.34375
1695636844096,-0.32495117,-0.97198486,0.18084717,0.65625,0.890625,-0.109375
1695636844136,-0.31103516,-0.9246216,0.16448975,-0.453125,1.203125,0.515625
1695636844176,-0.32299805,-0.96221924,0.18621826,-1.390625,0.203125,0.578125
1695636844216,-0.32470703,-0.940979,0.16546631,0.375,1.0,-0.453125
1695636844256,-0.3251953,-0.94732666,0.17156982,0.25,1.109375,0.96875
1695636844296,-0.3239746,-0.9456177,0.1762085,-0.578125,-0.265625,0.046875
1695636844336,-0.31152344,-0.95440674,0.16595459,1.5,1.046875,0.953125
1695636844376,-0.34228516,-0.9373169,0.18475342,-0.765625,-0.046875,0.484375
1695636844416,-0.31518555,-0.9529419,0.16107178,-1.96875,1.359375,-0.046875
1695636844456,-0.33251953,-0.9439087,0.16473389,2.40625,-0.109375,0.4375
1695636844496,-0.3269043,-0.9458618,0.19207764,-1.59375,1.171875,1.859375
1695636844536,-0.33740234,-0.9456177,0.15716553,-2.09375,2.359375,0.453125
1695636844576,-0.30029297,-0.95318604,0.18231201,0.59375,0.25,0.4375
1695636844616,-0.3010254,-0.9500122,0.18597412,-1.046875,0.375,-0.15625
1695636844656,-0.31933594,-0.9360962,0.16668701,0.375,-0.625,-0.53125
1695636844696,-0.3347168,-0.9636841,0.184021,-2.859375,0.046875,-0.765625
1695636844736,-0.31469727,-0.9434204,0.17132568,0.859375,-0.375,-1.5
1695636844776,-0.328125,-0.9456177,0.17645264,-1.90625,0.453125,0.71875
1695636844816,-0.31640625,-0.9541626,0.17889404,-1.140625,-0.078125,0.171875
1695636844856,-0.33935547,-0.9495239,0.18719482,-2.078125,0.515625,-0.640625
1695636844896,-0.3515625,-0.92633057,0.17303467,1.375,2.34375,-0.53125
1695636844936,-0.32592773,-0.9534302,0.18572998,-1.09375,-1.0,1.8125
1695636844976,-0.31030273,-0.9612427,0.17962646,-0.4375,1.46875,0.0625
1695636845016,-0.32910156,-0.9602661,0.13909912,-2.671875,0.8125,-0.484375
1695636845056,-0.3474121,-0.9351196,0.137146,-2.0625,1.859375,0.4375
1695636845096,-0.33447266,-0.9541626,0.14251709,-0.953125,1.421875,0.109375
1695636845136,-0.32836914,-0.9483032,0.15106201,-2.53125,0.40625,0.65625
1695636845176,-0.3310547,-0.9500122,0.14666748,1.375,1.28125,-0.890625
1695636845216,-0.34204102,-0.93634033,0.1515503,-0.9375,0.96875,0.625
1695636845256,-0.31103516,-0.95806885,0.14105225,0.203125,0.65625,-0.546875
1695636845296,-0.3466797,-0.95098877,0.1473999,-0.9375,0.796875,-0.0625
1695636845336,-0.32763672,-0.944397,0.14544678,-0.78125,-0.03125,1.078125
1695636845376,-0.32470703,-0.96221924,0.1473999,0.0,0.828125,0.0
1695636845416,-0.3491211,-0.9356079,0.14959717,-1.046875,0.109375,0.75
1695636845456,-0.3244629,-0.9573364,0.14300537,-1.0,0.0,0.90625
1695636845496,-0.33325195,-0.9505005,0.14471436,-0.4375,1.34375,0.25
1695636845536,-0.3334961,-0.94122314,0.14666748,-1.59375,0.890625,0.0
1695636845576,-0.32666016,-0.95880127,0.15863037,-0.6875,0.8125,0.03125
1695636845616,-0.34765625,-0.9273071,0.13372803,-4.15625,1.71875,0.21875
1695636845656,-0.31884766,-0.9661255,0.17425537,-0.140625,0.953125,-1.171875
1695636845696,-0.33325195,-0.93463135,0.14324951,0.390625,3.515625,-0.328125
1695636845736,-0.3552246,-0.93341064,0.15716553,-0.3125,1.578125,-0.125
1695636845776,-0.32861328,-0.97198486,0.15496826,0.84375,1.859375,0.203125
1695636845816,-0.32226562,-0.92510986,0.1696167,-0.5625,1.734375,0.21875
1695636845856,-0.36401367,-0.9524536,0.1642456,-2.8125,-2.15625,1.734375
1695636845896,-0.3095703,-0.94781494,0.1461792,-3.484375,1.015625,0.640625
1695636845936,-0.3359375,-0.9446411,0.17474365,-0.953125,0.8125,-0.5
1695636845976,-0.3310547,-0.9470825,0.13543701,-1.796875,0.15625,1.78125
1695636846016,-0.3173828,-0.9500122,0.16693115,0.703125,0.59375,0.1875
1695636846056,-0.35131836,-0.93829346,0.16693115,-0.875,-0.296875,0.4375
1695636846096,-0.33520508,-0.9404907,0.16204834,-0.328125,0.734375,-0.4375
1695636846136,-0.3371582,-0.9421997,0.16326904,-0.03125,1.625,-0.421875
1695636846176,-0.31469727,-0.9495239,0.12322998,0.015625,-0.078125,-0.4375
1695636846216,-0.34106445,-0.9378052,0.12005615,-1.046875,0.296875,0.265625
1695636846256,-0.3388672,-0.95758057,0.1161499,-1.203125,-0.71875,0.921875
1695636846296,-0.31176758,-0.9458618,0.11273193,-1.765625,0.4375,-0.0625
1695636846336,-0.34887695,-0.94659424,0.121032715,-0.375,0.65625,0.390625
1695636846376,-0.33911133,-0.95880127,0.12054443,-0.90625,0.328125,0.203125
1695636846416,-0.32861328,-0.9546509,0.11517334,-0.84375,0.15625,0.015625
1695636846456,-0.33569336,-0.93829346,0.10296631,-0.390625,1.078125,0.0625
1695636846496,-0.32421875,-0.9595337,0.1251831,-2.4375,1.0,-0.21875
1695636846536,-0.33203125,-0.954895,0.1227417,-1.015625,0.890625,-1.1875
1695636846576,-0.36132812,-0.9192505,0.12542725,-2.578125,2.59375,0.734375
1695636846616,-0.32226562,-0.9841919,0.12615967,-0.296875,-0.3125,0.359375
1695636846656,-0.34887695,-0.93414307,0.11590576,-2.65625,1.265625,0.90625
1695636846696,-0.32666016,-0.9673462,0.14935303,0.0,0.515625,-1.1875
1695636846736,-0.3449707,-0.94488525,0.11102295,-1.90625,0.8125,2.203125
1695636846776,-0.3251953,-0.9627075,0.13104248,-1.546875,0.671875,-0.234375
1695636846816,-0.32861328,-0.93951416,0.1281128,-0.25,2.765625,-0.59375
1695636846856,-0.3515625,-0.93756104,0.12542725,-1.125,0.0,1.453125
1695636846896,-0.34228516,-0.9553833,0.13470459,-2.203125,-1.4375,1.3125
1695636846936,-0.3244629,-0.9534302,0.13226318,-0.734375,1.46875,0.140625
1695636846976,-0.34570312,-0.9380493,0.13031006,0.359375,1.125,0.125
1695636847016,-0.33154297,-0.96051025,0.13421631,-1.40625,0.515625,1.171875
1695636847056,-0.32788086,-0.94903564,0.14031982,1.125,3.21875,-0.8125
1695636847096,-0.34692383,-0.94732666,0.12542725,-1.09375,0.15625,0.765625
1695636847136,-0.30615234,-0.9522095,0.13372803,-1.90625,0.53125,0.0
1695636847176,-0.34472656,-0.9439087,0.13397217,-0.734375,1.09375,-0.203125
1695636847216,-0.3347168,-0.9470825,0.14251709,-0.984375,0.9375,0.5625
1695636847256,-0.3305664,-0.9451294,0.12908936,-0.890625,0.859375,0.1875
1695636847296,-0.33447266,-0.95562744,0.14910889,-0.75,0.84375,-0.125
1695636847336,-0.3408203,-0.9380493,0.12030029,-1.546875,0.421875,0.90625
1695636847376,-0.33251953,-0.9663696,0.16107178,-1.15625,0.28125,0.0625
1695636847416,-0.34204102,-0.93951416,0.12615967,-0.03125,1.75,-0.015625
1695636847456,-0.3491211,-0.94415283,0.15008545,-1.5625,-0.15625,0.90625
1695636847496,-0.32177734,-0.9507446,0.1408081,-1.0,1.21875,0.703125
1695636847536,-0.34985352,-0.94000244,0.13812256,-0.421875,1.703125,0.046875
1695636847576,-0.3190918,-0.9639282,0.15350342,-0.203125,0.015625,0.421875
1695636847616,-0.34375,-0.9380493,0.14324951,-1.1875,2.015625,-0.125
1695636847656,-0.3330078,-0.9651489,0.13275146,0.875,-0.015625,0.375
1695636847696,-0.31689453,-0.94122314,0.15496826,-0.28125,0.5625,0.65625
1695636847736,-0.33447266,-0.94488525,0.14715576,0.234375,-0.171875,0.515625
1695636847776,-0.33569336,-0.96954346,0.12884521,-2.9375,1.75,0.484375
1695636847816,-0.32788086,-0.9336548,0.13690186,-0.40625,2.1875,-2.1875
1695636847856,-0.32714844,-0.9487915,0.16156006,-1.609375,0.40625,1.0
1695636847896,-0.33813477,-0.94537354,0.13812256,-2.34375,0.109375,0.625
1695636847936,-0.3503418,-0.9663696,0.152771,-3.515625,-1.0625,-0.140625
1695636847976,-0.31958008,-0.9365845,0.15179443,-1.625,1.265625,0.40625
1695636848016,-0.34545898,-0.93585205,0.13739014,-1.5625,1.515625,0.59375
1695636848056,-0.3239746,-0.9692993,0.1708374,-0.0625,0.078125,0.578125
1695636848096,-0.3540039,-0.92559814,0.16375732,-2.296875,2.078125,-0.28125
1695636848136,-0.3395996,-0.9524536,0.15594482,-1.65625,0.375,0.96875
1695636848176,-0.33276367,-0.9451294,0.16546631,-1.453125,1.78125,-0.984375
1695636848216,-0.3605957,-0.93292236,0.16131592,-2.390625,-0.421875,0.65625
1695636848256,-0.32788086,-0.9553833,0.16204834,-1.59375,0.15625,1.3125
1695636848296,-0.33789062,-0.9368286,0.15325928,-0.203125,2.0,-0.109375
1695636848336,-0.31152344,-0.9644165,0.14105225,-2.3125,0.734375,-0.125
1695636848376,-0.3293457,-0.94415283,0.1227417,-0.84375,-0.265625,-0.125
1695636848416,-0.31958008,-0.9570923,0.14324951,-0.515625,0.78125,0.1875
1695636848456,-0.3239746,-0.9619751,0.12908936,0.734375,0.890625,0.171875
1695636848496,-0.33789062,-0.940979,0.13323975,-1.90625,0.265625,-0.0625
1695636848536,-0.30810547,-0.95977783,0.15570068,-0.078125,0.140625,-0.328125
1695636848576,-0.35742188,-0.9356079,0.12030029,-0.953125,1.265625,0.203125
1695636848616,-0.3239746,-0.9602661,0.14300537,-0.875,0.40625,0.1875
1695636848656,-0.3334961,-0.9470825,0.14447021,-1.265625,0.890625,-0.6875
1695636848696,-0.33496094,-0.9534302,0.13568115,0.109375,0.5625,0.015625
1695636848736,-0.33398438,-0.95318604,0.14422607,-0.71875,0.3125,-0.109375
1695636848776,-0.32250977,-0.94781494,0.12567139,-2.625,2.78125,-0.9375
1695636848816,-0.3269043,-0.94732666,0.14447021,-0.40625,0.890625,-1.0
1695636848856,-0.3408203,-0.95098877,0.16278076,-1.671875,0.859375,0.828125
1695636848896,-0.3317871,-0.93878174,0.13690186,-1.65625,1.734375,-0.390625
1695636848936,-0.3408203,-0.9570923,0.15985107,-1.921875,-0.671875,1.265625
1695636848976,-0.33081055,-0.94537354,0.14593506,-1.828125,1.6875,-0.09375
1695636849016,-0.33544922,-0.9439087,0.15887451,-2.109375,1.9375,0.1875
1695636849056,-0.33251953,-0.95684814,0.1552124,-2.5625,0.828125,-0.421875
1695636849096,-0.35375977,-0.9417114,0.14666748,0.0,1.953125,0.015625
1695636849136,-0.3310547,-0.9492798,0.14959717,-1.734375,1.5625,0.96875
1695636849176,-0.32421875,-0.9463501,0.16131592,0.25,1.71875,-0.53125
1695636849216,-0.35327148,-0.9451294,0.15374756,-0.53125,1.203125,-0.1875
1695636849256,-0.3227539,-0.9541626,0.1605835,-1.1875,0.328125,0.609375
1695636849296,-0.32958984,-0.94000244,0.15301514,0.109375,2.421875,-1.359375
1695636849336,-0.34765625,-0.9429321,0.16644287,-0.65625,0.265625,0.09375
1695636849376,-0.3310547,-0.9573364,0.15179443,-1.203125,1.03125,0.28125
1695636849416,-0.3305664,-0.94976807,0.17034912,0.421875,1.359375,-1.3125
1695636849456,-0.3503418,-0.9421997,0.14324951,-0.375,-0.578125,0.6875
1695636849496,-0.31884766,-0.9553833,0.15789795,-1.53125,1.1875,-0.015625
1695636849536,-0.3642578,-0.93170166,0.16644287,-0.703125,1.0625,-0.78125
1695636849576,-0.34350586,-0.9439087,0.18084717,-0.9375,0.828125,0.484375
1695636849616,-0.33984375,-0.9446411,0.1486206,-0.515625,1.21875,-0.078125
1695636849656,-0.3322754,-0.94781494,0.17352295,-0.90625,0.703125,-0.125
1695636849696,-0.35083008,-0.9480591,0.15301514,0.125,1.140625,-0.09375
1695636849736,-0.33740234,-0.93463135,0.17572021,-0.390625,1.1875,-0.09375
1695636849776,-0.3408203,-0.95025635,0.16156006,-0.703125,1.109375,0.765625
1695636849816,-0.34716797,-0.94537354,0.16326904,-0.265625,1.359375,-0.265625
1695636849856,-0.33422852,-0.942688,0.16278076,-0.515625,0.78125,1.09375
1695636849896,-0.35058594,-0.9360962,0.15228271,-0.75,0.921875,0.109375
1695636849936,-0.33740234,-0.9492798,0.17108154,-0.53125,1.515625,0.40625
1695636849976,-0.33984375,-0.94073486,0.15740967,0.53125,0.140625,0.6875
1695636850016,-0.34399414,-0.93707275,0.16864014,-0.5625,1.671875,0.75
1695636850056,-0.34594727,-0.9446411,0.15325928,0.671875,0.0,0.15625
1695636850096,-0.3317871,-0.9365845,0.17132568,-0.78125,0.9375,0.703125
1695636850136,-0.34350586,-0.94122314,0.16107178,1.15625,0.875,0.265625
1695636850176,-0.3479004,-0.9517212,0.1552124,-1.796875,0.671875,1.171875
1695636850216,-0.33618164,-0.9517212,0.15228271,-0.921875,0.984375,-0.90625
1695636850256,-0.34521484,-0.9397583,0.1671753,0.03125,0.9375,0.375
1695636850296,-0.33764648,-0.9356079,0.16546631,-2.078125,0.078125,0.875
1695636850336,-0.34960938,-0.95098877,0.16082764,-1.484375,1.875,-0.328125
1695636850376,-0.34033203,-0.9402466,0.17254639,-0.875,2.109375,-0.265625
1695636850416,-0.3552246,-0.93218994,0.16644287,-1.484375,0.484375,1.5625
1695636850456,-0.3137207,-0.9631958,0.17938232,-1.90625,-0.40625,0.484375
1695636850496,-0.35766602,-0.92681885,0.16595459,-1.109375,1.40625,-0.3125
1695636850536,-0.34838867,-0.9505005,0.1618042,-1.875,0.453125,1.0625
1695636850576,-0.32128906,-0.94732666,0.17352295,0.171875,0.96875,0.390625
1695636850616,-0.34521484,-0.93048096,0.1708374,-0.4375,1.109375,0.0625
1695636850656,-0.34765625,-0.9546509,0.17254639,-0.296875,0.71875,0.0625
1695636850696,-0.3310547,-0.9402466,0.17059326,-0.625,0.625,0.4375
1695636850736,-0.33764648,-0.9404907,0.16790771,0.40625,0.453125,-0.109375
1695636850776,-0.34936523,-0.9417114,0.18011475,-0.03125,0.625,0.5
1695636850816,-0.33569336,-0.9522095,0.1671753,0.03125,0.296875,0.8125
1695636850856,-0.33251953,-0.93829346,0.18011475,0.5,0.953125,-0.09375
1695636850896,-0.34692383,-0.9468384,0.14959717,-1.3125,-0.0625,1.640625
1695636850936,-0.33007812,-0.95440674,0.184021,0.3125,0.25,-0.703125
1695636850976,-0.35351562,-0.93878174,0.16326904,-2.140625,-0.421875,1.09375
1695636851016,-0.33422852,-0.94415283,0.17230225,0.578125,-0.328125,-0.234375
1695636851056,-0.34301758,-0.9414673,0.15618896,-1.71875,-0.265625,2.4375
1695636851096,-0.32617188,-0.9492798,0.15911865,0.328125,0.875,-0.59375
1695636851136,-0.34887695,-0.94000244,0.16644287,-0.84375,0.484375,2.0
1695636851176,-0.3359375,-0.9434204,0.15716553,-0.03125,0.1875,2.015625
1695636851216,-0.3305664,-0.94781494,0.18670654,0.265625,0.421875,0.53125
1695636851256,-0.35253906,-0.94073486,0.16448975,-0.15625,0.015625,1.265625
1695636851296,-0.32104492,-0.95440674,0.15960693,-0.03125,0.171875,0.90625
1695636851336,-0.34936523,-0.93463135,0.16278076,-0.15625,0.140625,-0.34375
1695636851376,-0.32299805,-0.9529419,0.16888428,-0.359375,1.625,0.375
1695636851416,-0.33789062,-0.94781494,0.17059326,-0.828125,0.53125,-0.421875
1695636851456,-0.3317871,-0.9524536,0.16278076,0.140625,1.703125,-0.1875
1695636851496,-0.33691406,-0.94659424,0.16448975,-0.640625,-0.25,1.0625
1695636851536,-0.3317871,-0.95196533,0.1720581,-0.21875,1.5,0.21875
1695636851576,-0.34448242,-0.95440674,0.15667725,-1.734375,1.359375,0.34375
1695636851616,-0.32006836,-0.9434204,0.18255615,-0.09375,0.875,-0.90625
1695636851656,-0.3503418,-0.9404907,0.16912842,-1.84375,-0.265625,1.421875
1695636851696,-0.3371582,-0.9546509,0.16229248,-1.78125,0.734375,0.203125
1695636851736,-0.32592773,-0.9414673,0.17279053,-1.796875,2.046875,1.5
1695636851776,-0.33935547,-0.94976807,0.15716553,0.015625,1.84375,0.71875
1695636851816,-0.31958008,-0.9458618,0.1852417,-0.421875,0.671875,0.796875
1695636851856,-0.34545898,-0.9404907,0.16790771,-1.515625,0.359375,1.34375
1695636851896,-0.33422852,-0.93951416,0.09637451,0.296875,2.140625,-0.125
1695636851936,-0.3408203,-0.97125244,0.13128662,2.296875,2.921875,-1.90625
1695636851976,-0.34545898,-0.9248657,0.11981201,-1.84375,0.96875,-1.171875
1695636852016,-0.34179688,-0.9627075,0.11859131,-2.640625,1.8125,-0.734375
1695636852056,-0.35375977,-0.9536743,0.12322998,-0.859375,1.90625,-1.40625
1695636852096,-0.33984375,-0.9265747,0.13641357,-0.390625,2.46875,-0.328125
1695636852136,-0.34936523,-0.960022,0.12591553,-2.75,-0.109375,1.328125
1695636852176,-0.33496094,-0.954895,0.13348389,2.578125,1.765625,0.765625
1695636852216,-0.35961914,-0.92022705,0.10394287,-0.625,1.484375,1.1875
1695636852256,-0.3383789,-0.97491455,0.15374756,0.71875,1.265625,-0.34375
1695636852296,-0.3630371,-0.9187622,0.116882324,-1.015625,1.890625,-0.390625
1695636852336,-0.33911133,-0.96295166,0.14642334,-1.03125,0.8125,0.0625
1695636852376,-0.34545898,-0.956604,0.1005249,-1.140625,0.234375,1.046875
1695636852416,-0.3544922,-0.9360962,0.137146,-0.828125,1.28125,-2.140625
1695636852456,-0.34570312,-0.9378052,0.12713623,-0.71875,1.28125,1.265625
1695636852496,-0.35009766,-0.9378052,0.13519287,-0.5,0.109375,0.6875
1695636852536,-0.3581543,-0.954895,0.1317749,-1.203125,1.53125,0.109375
1695636852576,-0.35058594,-0.9324341,0.12762451,-2.03125,0.734375,0.125
1695636852616,-0.34350586,-0.95635986,0.1437378,-0.359375,0.171875,0.71875
1695636852656,-0.35253906,-0.9402466,0.13128662,-1.375,0.625,-0.28125
1695636852696,-0.34570312,-0.9524536,0.14154053,-1.09375,0.90625,0.328125
1695636852736,-0.33666992,-0.9414673,0.14422607,0.375,0.609375,0.109375
1695636852776,-0.37573242,-0.9495239,0.12542725,-1.234375,1.5625,0.21875
1695636852816,-0.34692383,-0.9495239,0.12689209,0.078125,2.53125,-1.234375
1695636852856,-0.3425293,-0.9163208,0.16766357,-1.265625,1.625,0.921875
1695636852896,-0.37280273,-0.9627075,0.13470459,-2.25,0.3125,-0.390625
1695636852936,-0.34179688,-0.94317627,0.14593506,0.28125,2.609375,-1.21875
1695636852976,-0.34277344,-0.93096924,0.12347412,-2.328125,0.40625,1.5
1695636853016,-0.35058594,-0.97442627,0.15350342,0.40625,0.65625,-0.953125
1695636853056,-0.34106445,-0.9373169,0.13275146,-0.734375,1.8125,1.21875
1695636853096,-0.3466797,-0.92633057,0.15252686,0.53125,1.421875,0.859375
1695636853136,-0.34423828,-0.9561157,0.12640381,-1.515625,0.40625,1.28125
1695636853176,-0.35009766,-0.94122314,0.14300537,-0.765625,1.6875,-0.21875
1695636853216,-0.34936523,-0.9380493,0.13250732,-2.390625,-0.078125,1.515625
1695636853256,-0.34301758,-0.9397583,0.15716553,0.15625,0.921875,-0.296875
1695636853296,-0.35302734,-0.93414307,0.1395874,-1.75,1.875,0.796875
1695636853336,-0.35742188,-0.94659424,0.14813232,0.765625,0.265625,-0.296875
1695636853376,-0.33276367,-0.9414673,0.15106201,0.046875,0.984375,1.140625
1695636853416,-0.3581543,-0.9351196,0.14276123,-0.109375,1.0,0.25
1695636853456,-0.34985352,-0.9524536,0.14569092,0.125,-0.328125,0.15625
1695636853496,-0.33935547,-0.9507446,0.14984131,-1.546875,0.859375,0.171875
1695636853536,-0.35473633,-0.92755127,0.15081787,-0.421875,1.484375,-0.09375
1695636853576,-0.3486328,-0.95684814,0.12908936,-2.046875,0.359375,1.390625
1695636853616,-0.34204102,-0.9470825,0.14764404,0.078125,0.3125,-0.34375
1695636853656,-0.35107422,-0.94537354,0.13690186,-1.484375,0.4375,1.328125
1695636853696,-0.34057617,-0.93878174,0.14666748,-0.640625,1.875,-0.078125
1695636853736,-0.36499023,-0.9507446,0.13739014,-1.21875,1.484375,1.03125
1695636853776,-0.34448242,-0.94903564,0.15325928,0.5625,0.71875,0.828125
1695636853816,-0.35302734,-0.93927,0.14129639,-2.890625,2.125,0.921875
1695636853856,-0.34423828,-0.9439087,0.13543701,1.09375,0.1875,0.375
1695636853896,-0.34155273,-0.9404907,0.16400146,-1.3125,0.875,0.03125
1695636853936,-0.33642578,-0.9368286,0.14300537,-0.421875,0.96875,0.390625
1695636853976,-0.35009766,-0.9446411,0.15960693,-0.515625,-0.265625,0.1875
1695636854016,-0.33813477,-0.9607544,0.14324951,-0.5,1.15625,0.265625
1695636854056,-0.3527832,-0.9417114,0.14398193,-0.28125,2.3125,-0.34375
1695636854096,-0.34106445,-0.95440674,0.15594482,0.09375,1.25,-0.109375
1695636854136,-0.35229492,-0.9397583,0.14569092,0.578125,2.203125,-0.515625
1695636854176,-0.3425293,-0.9397583,0.1437378,-2.453125,0.65625,1.578125
1695636854216,-0.3371582,-0.9487915,0.16741943,-2.828125,1.015625,-0.09375
1695636854256,-0.35546875,-0.9402466,0.1630249,-4.671875,1.28125,1.375
1695636854296,-0.35058594,-0.9446411,0.16912842,-1.59375,1.171875,0.34375
1695636854336,-0.33276367,-0.9338989,0.17669678,-1.21875,1.109375,0.578125
1695636854376,-0.34448242,-0.9570923,0.15814209,-1.03125,0.875,0.234375
1695636854416,-0.34423828,-0.9404907,0.16278076,-1.34375,-0.390625,0.9375
1695636854456,-0.32788086,-0.92071533,0.15911865,-1.421875,0.90625,1.0
1695636854496,-0.34594727,-0.9578247,0.17913818,0.375,-0.265625,0.71875
1695636854536,-0.35327148,-0.9314575,0.1515503,-2.125,0.828125,0.5
1695636854576,-0.33325195,-0.94781494,0.18109131,0.59375,0.609375,0.765625
1695636854616,-0.35253906,-0.9417114,0.14642334,0.09375,0.03125,0.671875
1695636854656,-0.3310547,-0.942688,0.17059326,-0.78125,1.0,-0.0625
1695636854696,-0.33422852,-0.94781494,0.16619873,1.359375,1.46875,0.28125
1695636854736,-0.3395996,-0.9480591,0.15252686,-0.25,0.203125,0.765625
1695636854776,-0.34887695,-0.94854736,0.16522217,0.53125,1.046875,0.109375
1695636854816,-0.3227539,-0.93634033,0.1671753,-2.484375,1.53125,0.28125
1695636854856,-0.35351562,-0.9417114,0.15716553,0.296875,1.1875,0.15625
1695636854896,-0.34228516,-0.9343872,0.17840576,-1.265625,2.59375,0.921875
1695636854936,-0.34521484,-0.95098877,0.15325928,-0.59375,0.8125,0.921875
1695636854976,-0.32299805,-0.94903564,0.1618042,-2.09375,3.75,-0.359375
1695636855016,-0.33764648,-0.92926025,0.17059326,-2.046875,1.890625,0.203125
1695636855056,-0.32910156,-0.956604,0.15716553,-0.171875,-0.078125,0.359375
1695636855096,-0.35327148,-0.94903564,0.12225342,-2.125,0.734375,1.140625
1695636855136,-0.34399414,-0.9434204,0.1329956,-0.359375,1.34375,-0.28125
1695636855176,-0.34033203,-0.9627075,0.13275146,-1.078125,0.03125,-0.46875
1695636855216,-0.3413086,-0.9343872,0.14666748,0.671875,2.0,-0.6875
1695636855256,-0.37036133,-0.9446411,0.13494873,-1.578125,0.125,-0.34375
1695636855296,-0.34301758,-0.9522095,0.14202881,0.515625,0.765625,-0.078125
1695636855336,-0.359375,-0.94366455,0.14666748,-0.921875,0.84375,-0.125
1695636855376,-0.34692383,-0.94781494,0.1408081,-0.9375,0.5,0.34375
1695636855416,-0.33569336,-0.93170166,0.12542725,-2.25,1.734375,0.53125
1695636855456,-0.35205078,-0.96221924,0.1437378,0.078125,0.21875,-0.234375
1695636855496,-0.359375,-0.95025635,0.13763428,-0.546875,1.140625,0.984375
1695636855536,-0.32983398,-0.9368286,0.14422607,-0.40625,0.0,0.953125
1695636855576,-0.36450195,-0.9570923,0.14569092,-1.59375,0.0625,0.15625
1695636855616,-0.36279297,-0.92974854,0.13323975,-0.375,1.859375,-0.375
1695636855656,-0.3515625,-0.95880127,0.1515503,-2.15625,0.03125,-0.296875
1695636855696,-0.3449707,-0.93096924,0.12957764,-0.09375,2.09375,0.71875
1695636855736,-0.33764648,-0.9451294,0.14813232,-0.078125,1.0,0.234375
1695636855776,-0.3564453,-0.95025635,0.1461792,-0.5,0.640625,-0.09375
1695636855816,-0.36938477,-0.9365845,0.1317749,-0.8125,-0.375,0.9375
1695636855856,-0.3239746,-0.944397,0.14154053,-0.234375,1.390625,0.1875
1695636855896,-0.35327148,-0.944397,0.14349365,-0.25,1.125,0.25
1695636855936,-0.35327148,-0.9529419,0.14300537,-2.5,1.234375,1.0
1695636855976,-0.33740234,-0.9390259,0.15447998,-1.484375,2.921875,-1.1875
1695636856016,-0.37231445,-0.9373169,0.14886475,-0.765625,0.96875,0.90625
1695636856056,-0.35375977,-0.9500122,0.14202881,-1.6875,0.078125,-0.390625
1695636856096,-0.32958984,-0.9468384,0.16156006,-0.375,2.09375,-0.484375
1695636856136,-0.3713379,-0.92315674,0.14007568,-1.296875,0.71875,0.375
1695636856176,-0.3461914,-0.9578247,0.15350342,-0.4375,0.828125,0.03125
1695636856216,-0.35546875,-0.92852783,0.15887451,-1.203125,1.296875,-0.140625
1695636856256,-0.3618164,-0.944397,0.14569092,-0.34375,1.28125,1.03125
1695636856296,-0.34204102,-0.94976807,0.16107178,0.390625,-1.1875,0.9375
1695636856336,-0.35717773,-0.92071533,0.15252686,-0.71875,0.859375,-0.328125
1695636856376,-0.36254883,-0.940979,0.15911865,0.0,1.09375,0.890625
1695636856416,-0.3569336,-0.942688,0.14178467,-1.390625,0.265625,1.203125
1695636856456,-0.34423828,-0.94537354,0.1461792,-0.5,1.421875,-0.53125
1695636856496,-0.34155273,-0.944397,0.15545654,-1.484375,1.34375,0.59375
1695636856536,-0.3503418,-0.9483032,0.15911865,-0.6875,0.8125,0.09375
1695636856576,-0.36279297,-0.93048096,0.14422607,-0.28125,0.6875,0.734375
1695636856616,-0.35473633,-0.9492798,0.15887451,-0.5625,0.015625,1.03125
1695636856656,-0.359375,-0.93756104,0.14593506,-0.28125,1.359375,0.46875
1695636856696,-0.3486328,-0.9480591,0.16107178,-2.234375,1.71875,0.875
1695636856736,-0.3449707,-0.94488525,0.1486206,0.90625,0.9375,0.046875
1695636856776,-0.35498047,-0.9299927,0.17889404,-0.609375,1.28125,0.65625
1695636856816,-0.34765625,-0.9512329,0.14300537,0.40625,0.875,0.828125
1695636856856,-0.3503418,-0.95147705,0.16033936,-0.125,0.390625,0.5
1695636856896,-0.3383789,-0.93927,0.14813232,0.609375,0.703125,0.859375
1695636856936,-0.35961914,-0.94000244,0.16229248,-1.171875,0.078125,0.734375
1695636856976,-0.34057617,-0.9507446,0.1437378,-0.296875,0.859375,-0.015625
1695636857016,-0.3491211,-0.93634033,0.1552124,-0.40625,0.8125,0.140625
1695636857056,-0.33740234,-0.9492798,0.15740967,-0.234375,0.671875,0.703125
1695636857096,-0.37402344,-0.942688,0.14544678,-0.59375,1.390625,1.171875
1695636857136,-0.3317871,-0.9585571,0.14227295,-1.046875,0.703125,1.328125
1695636857176,-0.32104492,-0.93536377,0.1593628,-0.78125,1.3125,0.09375
1695636857216,-0.35742188,-0.9417114,0.15692139,-0.09375,-0.15625,0.625
1695636857256,-0.34179688,-0.93927,0.15350342,-1.796875,0.515625,0.46875
1695636857296,-0.33032227,-0.9439087,0.16448975,0.453125,0.921875,-0.484375
1695636857336,-0.37109375,-0.9458618,0.12420654,-0.703125,0.40625,0.578125
1695636857376,-0.3215332,-0.94659424,0.1630249,-1.59375,1.890625,-1.015625
1695636857416,-0.3503418,-0.9343872,0.15911865,-0.828125,0.125,0.59375
1695636857456,-0.34716797,-0.9492798,0.16522217,-0.859375,-0.65625,1.125
1695636857496,-0.32983398,-0.9446411,0.15545654,-0.65625,1.71875,0.28125
1695636857536,-0.34692383,-0.9451294,0.1473999,-0.546875,-0.25,1.203125
1695636857576,-0.33740234,-0.95098877,0.1696167,-0.65625,0.3125,0.40625
1695636857616,-0.33276367,-0.94000244,0.15594482,-1.125,1.28125,0.375
1695636857656,-0.3466797,-0.94195557,0.16351318,0.140625,0.5,0.8125
1695636857696,-0.3461914,-0.93585205,0.14788818,-0.5625,1.078125,0.15625
1695636857736,-0.33496094,-0.95440674,0.16790771,0.75,1.234375,0.53125
1695636857776,-0.34301758,-0.9404907,0.14959717,-0.34375,0.125,0.25
1695636857816,-0.33935547,-0.94732666,0.15692139,-0.015625,1.125,0.921875
1695636857856,-0.34204102,-0.95928955,0.14837646,-0.328125,0.734375,0.671875
1695636857896,-0.33374023,-0.9307251,0.16326904,0.46875,1.21875,0.25
1695636857936,-0.33691406,-0.95635986,0.15228271,-0.78125,0.25,0.75
1695636857976,-0.33862305,-0.94073486,0.15618896,0.21875,1.546875,-0.453125
1695636858016,-0.35009766,-0.95098877,0.14349365,-2.484375,0.90625,0.484375
1695636858056,-0.33325195,-0.94976807,0.1630249,-0.765625,2.234375,-1.1875
1695636858096,-0.35253906,-0.93536377,0.15472412,-0.734375,1.203125,-0.15625
1695636858136,-0.34545898,-0.9390259,0.1642456,0.46875,0.390625,1.015625
1695636858176,-0.34033203,-0.94366455,0.15740967,-3.25,1.34375,0.203125
1695636858216,-0.34692383,-0.95684814,0.168396,0.890625,1.828125,-0.921875
1695636858256,-0.3330078,-0.9234009,0.15032959,-2.390625,0.421875,1.53125
1695636858296,-0.32836914,-0.956604,0.17913818,0.609375,1.140625,-1.546875
1695636858336,-0.37304688,-0.92633057,0.15911865,-1.109375,-0.265625,1.484375
1695636858376,-0.3232422,-0.9619751,0.16766357,-0.953125,0.046875,-0.59375
1695636858416,-0.3527832,-0.93707275,0.16107178,-1.0625,2.203125,-0.234375
1695636858456,-0.33325195,-0.9439087,0.16326904,0.34375,0.90625,0.3125
1695636858496,-0.35888672,-0.94415283,0.17327881,-1.015625,2.15625,0.046875
1695636858536,-0.34716797,-0.942688,0.16790771,0.21875,-0.09375,0.453125
1695636858576,-0.33496094,-0.9507446,0.15863037,-2.109375,1.21875,0.078125
1695636858616,-0.34887695,-0.93829346,0.15545654,0.453125,2.0,-0.984375
1695636858656,-0.34643555,-0.9458618,0.17059326,-0.515625,0.078125,-0.0625
1695636858696,-0.3466797,-0.9343872,0.16815186,0.015625,1.734375,-0.8125
1695636858736,-0.36499023,-0.9429321,0.16693115,-0.609375,-0.265625,0.515625
1695636858776,-0.34033203,-0.9451294,0.16375732,-1.671875,0.203125,-0.046875
1695636858816,-0.35498047,-0.9260864,0.10614014,-2.984375,1.421875,0.15625
1695636858856,-0.31323242,-0.9727173,0.15472412,1.5,1.140625,-0.921875
1695636858896,-0.35766602,-0.9158325,0.14324951,-1.1875,0.5,0.703125
1695636858936,-0.3413086,-0.9631958,0.13397217,-2.6875,-0.046875,1.453125
1695636858976,-0.3486328,-0.95440674,0.15325928,-1.53125,0.15625,-0.84375
1695636859016,-0.3347168,-0.9302368,0.14471436,-0.75,1.359375,0.234375
1695636859056,-0.33862305,-0.9585571,0.1408081,-0.484375,-0.28125,0.734375
1695636859096,-0.3383789,-0.9463501,0.14349365,-0.484375,1.875,0.53125
1695636859136,-0.3503418,-0.9495239,0.1359253,-0.453125,0.015625,0.140625
1695636859176,-0.33666992,-0.9534302,0.15179443,0.171875,0.109375,0.0
1695636859216,-0.34179688,-0.9326782,0.137146,0.25,3.015625,0.71875
1695636859256,-0.35961914,-0.9561157,0.15057373,-2.671875,1.28125,0.078125
1695636859296,-0.32421875,-0.9468384,0.14691162,-1.828125,3.5,-0.625
1695636859336,-0.35131836,-0.9299927,0.17156982,-0.875,1.859375,0.28125
1695636859376,-0.33642578,-0.9483032,0.13201904,-2.171875,0.171875,2.046875
1695636859416,-0.3322754,-0.9505005,0.16278076,0.203125,2.546875,-1.75
1695636859456,-0.35253906,-0.925354,0.14422607,-0.6875,1.046875,0.59375
1695636859496,-0.34228516,-0.94415283,0.17669678,-1.09375,-1.703125,0.984375
1695636859536,-0.35302734,-0.94000244,0.13885498,-2.03125,2.3125,-0.328125
1695636859576,-0.33764648,-0.9404907,0.16912842,1.1875,-0.03125,-0.0625
1695636859616,-0.35546875,-0.9439087,0.1539917,-1.890625,0.59375,1.0625
1695636859656,-0.35009766,-0.9529419,0.1618042,1.046875,0.65625,-0.125
1695636859696,-0.33325195,-0.93878174,0.15692139,-1.296875,0.265625,0.28125
1695636859736,-0.3564453,-0.9338989,0.15960693,1.609375,-0.1875,0.140625
1695636859776,-0.33154297,-0.94537354,0.14813232,-0.375,1.109375,0.375
1695636859816,-0.36328125,-0.9446411,0.13641357,-0.875,0.953125,-0.359375
1695636859856,-0.32543945,-0.956604,0.14324951,-0.453125,1.21875,0.28125
1695636859896,-0.33935547,-0.9324341,0.13885498,-0.484375,2.1875,-0.453125
1695636859936,-0.3491211,-0.95391846,0.14398193,1.125,1.125,0.34375
1695636859976,-0.33496094,-0.944397,0.1305542,-1.90625,1.21875,1.296875
1695636860016,-0.32348633,-0.9561157,0.14544678,-0.375,1.9375,-1.0625
1695636860056,-0.34985352,-0.95391846,0.1552124,1.140625,1.234375,0.3125
1695636860096,-0.3408203,-0.93634033,0.15008545,-2.421875,2.234375,0.78125
1695636860136,-0.32983398,-0.96539307,0.13861084,0.109375,1.6875,-0.328125
1695636860176,-0.34545898,-0.92633057,0.14520264,-0.4375,1.5,-0.484375
1695636860216,-0.33569336,-0.9558716,0.14007568,-0.65625,1.0,1.453125
1695636860256,-0.33154297,-0.942688,0.14569092,-1.1875,1.484375,-0.140625
1695636860296,-0.35595703,-0.95391846,0.1473999,0.9375,0.9375,0.3125
1695636860336,-0.3395996,-0.9470825,0.14886475,-0.78125,-1.328125,1.15625
1695636860376,-0.3161621,-0.9463501,0.15423584,-1.046875,1.625,1.265625
1695636860416,-0.36401367,-0.95196533,0.1437378,0.3125,1.375,-0.578125
1695636860456,-0.33398438,-0.9414673,0.16326904,-0.3125,1.046875,0.828125
1695636860496,-0.34106445,-0.9468384,0.13739014,-0.765625,1.046875,0.3125
1695636860536,-0.3317871,-0.94000244,0.1515503,-0.609375,1.515625,-0.15625
1695636860576,-0.3322754,-0.9553833,0.15228271,-2.25,1.953125,-0.59375
1695636860616,-0.34545898,-0.94366455,0.1515503,-1.21875,2.21875,-1.25
1695636860656,-0.3232422,-0.93951416,0.17108154,-1.375,1.4375,0.59375
1695636860696,-0.3317871,-0.9500122,0.1564331,-2.765625,1.3125,-0.953125
1695636860736,-0.3322754,-0.9429321,0.13983154,-0.9375,1.234375,0.75
1695636860776,-0.33081055,-0.9417114,0.14251709,0.65625,0.59375,0.453125
1695636860816,-0.35083008,-0.94073486,0.14105225,-0.609375,1.28125,0.65625
1695636860856,-0.3239746,-0.9685669,0.1473999,-0.234375,1.6875,-0.359375
1695636860896,-0.33911133,-0.9365845,0.15032959,0.3125,1.75,0.015625
1695636860936,-0.34716797,-0.9612427,0.14520264,-0.28125,1.546875,0.8125
1695636860976,-0.34155273,-0.93756104,0.14691162,-0.125,0.78125,0.671875
1695636861016,-0.32543945,-0.95440674,0.13812256,-1.453125,1.40625,0.171875
1695636861056,-0.34423828,-0.9434204,0.14056396,-1.09375,1.46875,-0.015625
1695636861096,-0.34106445,-0.9480591,0.1383667,-1.375,1.640625,-0.203125
1695636861136,-0.33398438,-0.94976807,0.14691162,-1.0,0.875,0.625
1695636861176,-0.33862305,-0.9492798,0.15301514,-0.703125,1.859375,-0.421875
