,timestamp,accel_x,accel_y,accel_z,gyro_x,gyro_y,gyro_z
0,1697605965,-0.34375,0.3203125,0.25878906,-121.125,-27.6875,-42.25
1,1697606005,-0.5498047,0.034179688,-0.35546875,45.84375,64.0,8.03125
2,1697606045,-1.8701172,-0.6435547,0.091796875,-53.28125,41.96875,43.6875
3,1697606085,-0.9863281,-0.16894531,-0.080078125,41.15625,22.59375,1.625
4,1697606125,-0.7753906,0.06933594,-0.08691406,112.8125,45.25,2.4375
5,1697606165,-0.9902344,0.36132812,0.81933594,128.6875,26.03125,3.21875
6,1697606205,-0.8984375,0.123046875,0.4658203,-49.84375,30.1875,-11.0
7,1697606245,-0.6298828,-0.025390625,0.6484375,-10.84375,24.5,12.625
8,1697606285,-1.2822266,-0.13769531,0.8339844,-210.96875,18.9375,-6.0625
9,1697606325,-1.3544922,0.16015625,-0.77246094,-261.40625,-60.28125,-51.28125
10,1697606365,-1.0263672,0.5986328,-0.4404297,79.78125,-94.34375,15.84375
11,1697606405,-1.0361328,0.31054688,-0.09472656,109.03125,48.59375,35.5625
12,1697606445,-1.3876953,-0.0390625,1.5322266,28.40625,-106.71875,18.21875
13,1697606485,-0.4560547,0.4375,-0.34375,58.0,-140.53125,40.75
14,1697606525,-0.9248047,-0.055664062,0.9501953,172.8125,-106.46875,61.125
15,1697606565,-0.5888672,0.17773438,0.16699219,-26.65625,-56.8125,-20.40625
16,1697606605,-0.13085938,0.0126953125,0.34277344,50.90625,-29.34375,-9.21875
17,1697606645,0.22363281,0.107421875,-0.16210938,19.375,59.53125,-28.28125
18,1697606685,-2.0,1.7666016,2.0,-14.375,-284.09375,68.9375
19,1697606725,-1.4453125,-0.016601562,-0.71777344,-203.90625,-31.09375,-11.375
20,1697606765,-0.82714844,0.0009765625,0.22265625,-24.34375,42.0,-24.96875
21,1697606805,-1.3339844,-0.06542969,0.060546875,-21.53125,42.75,2.59375
22,1697606845,-1.234375,0.19042969,0.234375,-50.15625,36.15625,-4.65625
23,1697606885,-0.7128906,0.3857422,0.23925781,13.8125,12.71875,7.625
24,1697606925,-0.6386719,0.01953125,0.08496094,27.46875,53.6875,-10.8125
25,1697606965,-1.3066406,-0.484375,0.5888672,-12.1875,42.125,-4.84375
26,1697607005,-0.92578125,0.0546875,0.56640625,-29.09375,15.40625,-27.65625
27,1697607045,-0.5058594,0.034179688,0.19921875,59.59375,48.0625,-30.03125
28,1697607085,-0.9267578,0.10253906,1.3925781,119.59375,51.59375,4.8125
29,1697607125,-1.1728516,-0.31054688,0.23535156,-280.875,100.125,-52.15625
30,1697607165,-1.1191406,-0.055664062,-0.15234375,-103.5625,8.5625,-35.96875
31,1697607205,-1.03125,0.74609375,-0.2109375,123.96875,-66.375,32.875
32,1697607245,-1.3857422,0.2890625,0.17480469,108.71875,-55.21875,37.875
33,1697607285,-1.1298828,-0.17480469,0.71777344,-51.0,-71.28125,-3.1875
34,1697607325,-1.0380859,0.14453125,0.16113281,-36.375,-96.21875,-1.46875
35,1697607365,-1.0292969,-0.33496094,1.0546875,158.46875,-115.75,26.34375
36,1697607405,-0.5605469,0.057617188,-0.4013672,82.40625,-90.75,13.09375
37,1697607445,-0.29492188,0.42871094,-0.03515625,131.0,-35.4375,-5.9375
38,1697607485,-0.5341797,0.049804688,-0.0234375,-1.375,59.46875,-32.25
39,1697607525,-1.7148438,0.6777344,1.3662109,81.9375,-134.125,47.03125
40,1697607565,-1.6005859,0.24023438,0.5498047,-115.46875,61.71875,-52.1875
41,1697607605,-1.1435547,-0.24707031,0.20214844,-150.9375,79.25,-33.40625
42,1697607645,-0.9970703,-0.091796875,0.045898438,-66.09375,32.1875,-4.84375
43,1697607685,-0.73828125,-0.09375,-0.09472656,17.34375,20.15625,3.59375
44,1697607725,-0.9765625,0.15429688,0.41308594,62.09375,57.40625,-0.09375
45,1697607765,-1.2880859,0.0,0.30859375,-62.375,41.78125,19.5
46,1697607805,-0.8105469,-0.12792969,0.06640625,-39.46875,39.6875,-9.84375
47,1697607845,-1.0175781,0.15625,0.0859375,-22.0625,43.46875,5.90625
48,1697607885,-1.0869141,0.109375,0.56347656,38.90625,35.1875,9.125
49,1697607925,-0.6220703,-0.08300781,0.26367188,17.40625,24.25,3.53125
50,1697607965,-0.81640625,-0.29882812,0.6542969,66.96875,22.3125,16.71875
51,1697608005,-1.0205078,-0.171875,0.9589844,-76.9375,46.78125,-10.5625
52,1697608045,-1.2412109,-0.017578125,0.09472656,-242.15625,17.96875,-52.1875
53,1697608085,-1.0078125,0.09082031,-0.61621094,125.3125,-65.21875,7.71875
54,1697608125,-0.98535156,0.8251953,0.16894531,178.375,-12.0625,12.75
55,1697608165,-1.4453125,0.13085938,0.65625,-103.625,-59.78125,-6.0
56,1697608205,-1.2919922,0.29785156,-0.13867188,-152.5,-81.46875,-18.8125
57,1697608245,-0.8886719,0.35351562,-0.0390625,95.96875,-128.59375,37.28125
58,1697608285,-0.8671875,0.09472656,0.47070312,219.25,-111.78125,86.15625
59,1697608325,-0.7080078,-0.034179688,0.17089844,9.1875,-70.40625,27.25
60,1697608365,-0.484375,0.11425781,0.27539062,5.6875,-27.625,-6.3125
61,1697608405,-0.23046875,0.1171875,0.2939453,-8.53125,38.59375,-22.34375
62,1697608445,-1.1591797,0.91503906,1.1367188,-16.46875,-61.0625,36.0625
63,1697608485,-1.9541016,-0.609375,0.51660156,-117.78125,57.21875,-38.03125
64,1697608525,-1.1064453,0.203125,0.15527344,-63.46875,40.5625,-15.46875
65,1697608565,-0.9658203,0.05859375,0.056640625,-54.65625,20.28125,-1.90625
66,1697608605,-0.9316406,0.17675781,0.32910156,-19.5,29.75,1.375
67,1697608645,-0.94433594,0.03515625,0.11621094,-16.9375,57.34375,4.375
68,1697608685,-1.1777344,-0.18359375,0.2529297,29.6875,22.46875,5.0625
69,1697608725,-0.86328125,0.24804688,0.40722656,-9.8125,31.5625,0.59375
70,1697608765,-0.7910156,0.0546875,0.4248047,14.53125,46.90625,6.5625
71,1697608805,-0.90527344,-0.13085938,0.484375,0.9375,41.90625,8.78125
72,1697608845,-0.94140625,-0.0546875,0.4033203,-70.1875,29.375,-4.65625
73,1697608885,-1.1298828,-0.052734375,0.421875,-36.375,40.0625,-11.5625
74,1697608925,-1.2851562,-0.05078125,-0.28125,-61.8125,-7.375,-4.78125
75,1697608965,-1.0166016,0.29492188,0.26367188,99.25,-24.34375,16.59375
76,1697609005,-0.96191406,-0.041992188,0.009765625,-1.8125,-27.4375,6.03125
77,1697609045,-1.1699219,0.16894531,0.15039062,38.28125,-32.75,6.9375
78,1697609085,-1.0751953,0.0546875,0.40527344,19.0625,-44.53125,4.0
79,1697609125,-0.8613281,0.09277344,0.13085938,15.09375,-71.4375,-1.0625
80,1697609165,-0.8515625,0.22558594,0.29003906,83.4375,-90.5,14.5
81,1697609205,-0.84765625,0.12695312,0.38085938,86.75,-96.15625,33.375
82,1697609245,-0.81152344,0.07714844,0.31347656,55.5625,-55.03125,17.8125
83,1697609285,-0.7470703,0.23535156,0.36132812,20.90625,-37.09375,0.28125
84,1697609325,-0.6767578,0.16015625,0.45996094,16.1875,7.59375,-21.5
85,1697609365,0.0546875,0.21777344,-0.5732422,-24.59375,69.34375,-18.75
86,1697609405,-2.0,0.7734375,2.0,52.625,-43.5625,7.375
87,1697609445,-0.9746094,0.017578125,-0.1796875,-154.9375,12.84375,-43.65625
88,1697609485,-0.57714844,0.08691406,0.14257812,-20.96875,8.6875,17.8125
89,1697609525,-1.1269531,-0.38964844,0.1484375,-35.8125,69.125,-10.875
90,1697609565,-1.2041016,-0.11621094,0.18554688,2.8125,33.21875,-4.71875
91,1697609605,-1.0058594,0.40527344,0.33398438,-51.0625,44.34375,-38.78125
92,1697609645,-0.8203125,0.32226562,0.049804688,13.03125,34.8125,-2.65625
93,1697609685,-1.0576172,-0.18261719,0.51171875,73.6875,27.25,12.125
94,1697609725,-0.8671875,0.028320312,0.29296875,-10.25,27.125,-14.40625
95,1697609765,-0.6621094,0.19335938,0.40722656,43.65625,25.96875,1.25
96,1697609805,-0.7294922,0.16992188,0.8769531,-20.96875,23.03125,16.71875
97,1697609845,-1.40625,0.04296875,0.059570312,-86.09375,8.09375,7.0625
98,1697609885,-1.3330078,0.4921875,-0.07910156,38.15625,19.8125,-10.40625
99,1697609925,-1.0146484,0.19042969,0.17578125,104.625,-17.5,14.75
100,1697609965,-0.9707031,0.021484375,-0.024414062,12.03125,-8.65625,10.71875
101,1697610005,-1.0253906,0.3486328,0.12011719,53.0,5.46875,5.21875
102,1697610045,-1.0595703,0.32910156,0.4658203,-21.40625,-23.90625,7.625
103,1697610085,-0.9277344,0.45410156,0.3125,-35.125,-46.0625,12.0
104,1697610125,-0.99902344,0.14453125,0.4169922,-90.5,-65.84375,20.5625
105,1697610165,-1.0361328,-0.20605469,0.47558594,8.0625,-100.5625,31.21875
106,1697610205,-0.6855469,0.14453125,0.2265625,32.0,-91.78125,13.21875
107,1697610245,-0.7060547,0.12402344,0.28515625,51.90625,-61.0,2.4375
108,1697610285,-0.73828125,0.25390625,0.34570312,10.09375,-27.03125,-35.40625
109,1697610325,-0.21582031,0.3359375,0.12988281,-14.5625,37.75,-50.0625
110,1697610365,-0.7441406,0.40625,0.5761719,4.28125,20.15625,-15.8125
111,1697610405,-1.6513672,-0.07128906,-0.19628906,128.0,-7.59375,20.625
112,1697610445,-0.2939453,0.85058594,0.059570312,-9.4375,-24.875,9.25
113,1697610485,-1.2851562,-0.32714844,0.41308594,-113.03125,37.9375,-2.03125
114,1697610525,-1.0654297,-0.125,0.25,-92.34375,42.125,-3.5
115,1697610565,-0.96484375,-0.14257812,0.26367188,-27.21875,54.90625,-16.5625
116,1697610605,-1.0800781,0.11035156,0.24902344,-16.21875,51.21875,-18.75
117,1697610645,-0.91796875,0.059570312,0.1953125,10.9375,30.125,-1.1875
118,1697610685,-0.8955078,0.083984375,0.24707031,28.21875,39.625,-3.1875
119,1697610725,-1.0683594,-0.13476562,0.39746094,61.125,49.21875,-16.875
120,1697610765,-0.9296875,0.08496094,0.3486328,14.3125,42.375,-22.0
121,1697610805,-0.8564453,0.12792969,0.18359375,11.0625,47.09375,-11.5
122,1697610845,-0.8105469,0.17675781,0.3076172,19.0625,46.96875,-3.3125
123,1697610885,-0.70703125,0.0048828125,0.7373047,-63.09375,42.0,-0.03125
124,1697610925,-1.1933594,-0.34277344,0.59765625,-121.5625,19.1875,-7.78125
125,1697610965,-1.2958984,-0.064453125,0.15625,-60.59375,-5.40625,-34.0625
126,1697611005,-1.1357422,0.8378906,-0.09472656,40.1875,-29.15625,-3.375
127,1697611045,-1.0478516,0.2890625,-0.0390625,129.84375,-64.84375,43.6875
128,1697611085,-0.99609375,0.18359375,0.12109375,99.625,-11.40625,27.75
129,1697611125,-0.84277344,0.12402344,0.15039062,-59.125,9.25,2.65625
130,1697611165,-0.7841797,0.16894531,0.0009765625,-54.0,15.09375,-9.53125
131,1697611205,-1.0908203,0.35058594,0.6699219,94.4375,-56.5,28.1875
132,1697611245,-1.078125,0.2607422,0.49902344,-69.5,-61.3125,26.15625
133,1697611285,-0.77734375,0.41503906,-0.11816406,14.96875,-63.28125,26.59375
134,1697611325,-0.9560547,-0.06933594,0.34765625,-12.6875,-37.15625,30.125
135,1697611365,-0.83496094,-0.09667969,0.20898438,23.625,-12.5625,4.375
136,1697611405,-0.328125,0.030273438,0.25878906,24.96875,-0.28125,-18.625
137,1697611445,-0.34375,0.46484375,0.5673828,49.34375,12.15625,0.46875
138,1697611485,-1.921875,0.29296875,0.90527344,77.34375,43.40625,-17.84375
139,1697611525,-0.8535156,0.3017578,-0.099609375,-144.28125,18.46875,-20.84375
140,1697611565,-1.1005859,-0.3330078,0.009765625,-121.75,49.71875,-5.09375
141,1697611605,-0.91308594,-0.045898438,0.22949219,-78.53125,59.84375,-22.53125
142,1697611645,-0.9394531,0.0107421875,0.1640625,-69.3125,54.90625,-22.21875
143,1697611685,-0.99316406,0.049804688,0.1953125,53.4375,23.40625,-2.53125
144,1697611725,-1.1445312,-0.2607422,0.12988281,92.59375,31.53125,4.625
145,1697611765,-0.8535156,0.20898438,0.41210938,70.28125,31.9375,-11.6875
146,1697611805,-0.93359375,-0.03125,0.42578125,66.0,27.78125,1.8125
147,1697611845,-0.7783203,-0.041992188,0.3671875,0.1875,42.1875,-11.1875
148,1697611885,-0.5576172,0.22558594,0.46191406,-7.5625,21.15625,6.875
149,1697611925,-1.4570312,-0.34277344,0.3671875,-48.1875,0.9375,22.4375
150,1697611965,-1.5302734,0.42578125,-0.3125,-46.5625,-48.25,-5.09375
151,1697612005,-1.0957031,0.6064453,-0.12597656,47.6875,-19.15625,7.625
152,1697612045,-1.1640625,-0.07324219,0.3857422,64.40625,-8.09375,21.15625
153,1697612085,-0.921875,0.07128906,0.22753906,-119.375,-5.71875,-4.84375
154,1697612125,-1.1416016,0.28027344,0.08691406,-91.59375,-32.9375,-2.6875
155,1697612165,-1.0654297,0.21191406,0.5029297,186.46875,-93.25,40.875
156,1697612205,-0.8886719,0.36914062,0.3154297,69.96875,-88.53125,35.625
157,1697612245,-0.94921875,0.109375,0.56640625,31.6875,-75.28125,37.65625
158,1697612285,-0.74316406,0.045898438,0.23339844,-17.0,-49.96875,13.09375
159,1697612325,-0.54003906,0.0087890625,0.32617188,28.15625,-41.96875,3.53125
160,1697612365,0.05078125,-0.00390625,-0.05078125,71.84375,-3.21875,-15.53125
161,1697612405,-1.0478516,0.8876953,1.6484375,66.25,-82.125,15.1875
162,1697612445,-2.0,-0.1484375,-0.25683594,-223.8125,53.96875,-33.53125
163,1697612485,-0.6738281,0.40429688,0.7597656,11.125,28.40625,-15.875
164,1697612525,-1.1103516,-0.32714844,0.11230469,-123.8125,37.875,-3.8125
165,1697612565,-0.76953125,-0.09765625,0.39941406,-75.0625,12.15625,-4.34375
166,1697612605,-0.80078125,0.041015625,0.12792969,-25.4375,40.1875,-12.78125
167,1697612645,-1.1259766,-0.23339844,0.26953125,22.0625,37.4375,-1.53125
168,1697612685,-1.1992188,-0.23828125,0.13769531,8.0625,21.375,-10.75
169,1697612725,-1.0302734,0.1484375,0.20410156,65.03125,-2.84375,-10.6875
170,1697612765,-0.8388672,0.111328125,0.078125,69.09375,44.625,-27.46875
171,1697612805,-0.8876953,0.16503906,0.63671875,61.46875,39.875,-13.1875
172,1697612845,-0.86328125,0.3125,0.67285156,-11.09375,16.9375,5.84375
173,1697612885,-1.015625,0.17773438,0.4189453,-60.78125,-12.625,15.4375
174,1697612925,-0.99902344,0.15234375,-0.49121094,-126.21875,-8.03125,3.09375
175,1697612965,-1.3027344,0.34179688,-0.1875,63.375,63.1875,9.5
176,1697613005,-1.4277344,0.20898438,0.9160156,27.46875,-19.375,10.3125
177,1697613045,-1.1787109,0.3984375,0.31347656,-172.84375,-37.75,-10.75
178,1697613085,-0.7089844,0.23339844,0.36132812,95.84375,-76.03125,34.40625
179,1697613125,-0.9003906,-0.20214844,0.6689453,53.3125,-58.9375,37.34375
180,1697613165,-0.7421875,-0.24902344,0.36914062,50.625,-48.875,3.15625
181,1697613205,-0.6464844,-0.04296875,0.46777344,33.46875,-32.6875,-35.125
182,1697613245,-0.140625,0.21582031,-0.025390625,-43.0,38.09375,-73.4375
183,1697613285,-0.36328125,0.2626953,-0.0625,-91.71875,48.90625,-23.03125
184,1697613325,-2.0,0.16503906,0.5048828,357.6875,28.90625,64.8125
185,1697613365,-0.89941406,0.33007812,-0.14160156,-69.5,31.28125,-29.4375
186,1697613405,-0.7246094,-0.23535156,-0.24023438,4.71875,26.8125,13.15625
187,1697613445,-1.3847656,-0.3515625,-0.07910156,69.78125,26.75,6.5625
188,1697613485,-1.2099609,0.16796875,0.13769531,35.34375,28.65625,-32.0625
189,1697613525,-0.5517578,0.74121094,0.3857422,46.15625,18.34375,-20.03125
190,1697613565,-0.58984375,-0.060546875,0.8173828,54.46875,-9.6875,15.5
191,1697613605,-0.6796875,0.15234375,1.4921875,32.0,-11.15625,23.125
192,1697613645,-1.3271484,0.24902344,-0.5576172,-217.09375,-50.09375,-22.78125
193,1697613685,-1.3574219,0.16796875,0.09375,167.0625,-23.0,11.875
194,1697613725,-1.1474609,0.123046875,0.72558594,-42.28125,-7.90625,-34.125
195,1697613765,-0.82421875,0.3984375,0.2626953,-18.65625,-39.21875,-28.15625
196,1697613805,-0.73828125,0.10644531,0.6064453,59.34375,-96.28125,28.65625
197,1697613845,-0.16894531,0.47851562,-0.21972656,-16.53125,-63.9375,33.0
198,1697613885,-0.0107421875,0.23828125,0.3173828,39.375,11.1875,35.8125
199,1697613925,-1.8652344,-0.19628906,0.2783203,-40.8125,103.40625,-15.15625
200,1697613965,-0.97558594,0.3515625,-0.19433594,-118.09375,-2.40625,-27.3125
201,1697614005,-0.5234375,0.20214844,-0.06738281,-33.96875,22.375,10.46875
202,1697614045,-1.2412109,-0.31347656,0.27539062,-19.21875,56.65625,29.59375
203,1697614085,-1.2890625,-0.5029297,0.21875,-55.90625,58.875,-20.34375
204,1697614125,-1.0234375,0.18261719,0.27246094,-43.375,30.90625,-22.71875
205,1697614165,-0.94140625,0.33007812,0.17285156,-8.78125,39.9375,-20.28125
206,1697614205,-1.0488281,0.12402344,0.328125,12.21875,29.9375,2.78125
207,1697614245,-0.8798828,-0.041015625,0.25683594,-18.21875,29.1875,3.59375
208,1697614285,-0.8964844,-0.25878906,0.2763672,70.15625,34.625,10.53125
209,1697614325,-0.7480469,0.15820312,0.94140625,73.5625,44.46875,2.65625
210,1697614365,-1.1767578,-0.17285156,0.89160156,-72.375,70.09375,0.71875
211,1697614405,-1.0712891,-0.07421875,-0.15625,-212.4375,44.875,-47.1875
212,1697614445,-0.9091797,0.49023438,-0.033203125,79.125,-34.78125,2.90625
213,1697614485,-1.5019531,-0.08496094,0.65527344,53.53125,-8.15625,6.625
214,1697614525,-1.0703125,0.00390625,0.15820312,-56.4375,-17.875,-6.5
215,1697614565,-0.98535156,0.055664062,0.14257812,98.15625,-42.40625,-0.875
216,1697614605,-0.6533203,0.043945312,0.23828125,95.0625,-71.4375,-2.46875
217,1697614645,-0.17285156,0.025390625,-0.18847656,92.96875,-10.96875,-5.8125
218,1697614685,-0.79296875,0.0703125,0.08105469,-2.0,1.25,-11.625
219,1697614725,-1.3525391,0.20800781,-0.13574219,-14.8125,71.4375,-25.53125
220,1697614765,-1.4267578,0.40039062,-0.09375,-114.59375,104.8125,-1.0
221,1697614805,-0.8691406,-0.22363281,0.5214844,-71.46875,-15.1875,26.71875
222,1697614845,-0.49023438,-0.1640625,-0.41210938,-62.25,38.53125,21.03125
223,1697614885,-1.4277344,-0.35253906,-0.2109375,-3.09375,49.8125,36.59375
224,1697614925,-1.6005859,-0.64160156,1.1953125,14.71875,69.1875,-5.6875
225,1697614965,-0.73339844,-0.15820312,-0.021484375,88.6875,38.53125,-35.40625
226,1697615005,-0.7265625,0.18261719,0.14550781,94.125,56.84375,-36.09375
227,1697615045,-0.5683594,0.49023438,0.3828125,53.46875,-7.0,11.625
228,1697615085,-0.8330078,0.20410156,0.4169922,-52.71875,-18.96875,14.21875
229,1697615125,-2.0,-0.09375,0.19042969,-176.25,-21.15625,-8.3125
230,1697615165,-1.3798828,0.16015625,-0.61328125,4.09375,-53.375,-10.46875
231,1697615205,-0.7519531,0.24414062,-0.16601562,89.8125,-7.25,11.15625
232,1697615245,-0.62402344,-0.10839844,0.42773438,59.59375,-19.9375,17.1875
233,1697615285,-0.69140625,-0.18945312,0.0068359375,49.625,-62.59375,-2.875
234,1697615325,-0.19335938,0.037109375,0.026367188,121.40625,-66.09375,11.09375
235,1697615365,-1.5,-0.06542969,-0.16601562,48.0625,16.75,-13.75
236,1697615405,-1.4384766,0.31933594,-0.18554688,-110.625,60.25,-12.09375
237,1697615445,-0.765625,0.111328125,0.056640625,-116.9375,42.625,9.125
238,1697615485,-0.46972656,0.13574219,0.56933594,-113.75,-62.21875,9.6875
239,1697615525,-0.640625,-0.32128906,-0.38671875,-133.21875,6.4375,-1.90625
240,1697615565,-1.71875,-0.5341797,-0.15332031,43.34375,43.84375,-2.75
241,1697615605,-1.1835938,-0.20507812,0.7314453,56.40625,-20.4375,-2.15625
242,1697615645,-0.70214844,0.5361328,0.38378906,-2.4375,-3.09375,-37.5625
243,1697615685,-1.0244141,0.4296875,0.9453125,-88.0,-93.90625,2.1875
244,1697615725,-0.9746094,-0.19921875,-0.5830078,-83.0,-127.1875,-2.6875
245,1697615765,-1.8017578,-0.09472656,-0.41308594,287.1875,-48.0,37.21875
246,1697615805,-1.0976562,0.12207031,1.0859375,89.4375,21.03125,-37.5625
247,1697615845,-1.1347656,0.36621094,0.40820312,-99.59375,-32.09375,-62.28125
248,1697615885,0.15527344,0.13378906,-0.63671875,132.875,-23.53125,-21.6875
249,1697615925,-0.0107421875,0.2763672,0.07714844,8.4375,1.125,26.59375
250,1697615965,-2.0,-0.10839844,-0.40429688,71.375,95.46875,45.5
251,1697616005,-1.3994141,-0.5859375,0.7216797,-173.5625,45.375,-23.40625
252,1697616045,-0.60839844,-0.048828125,-0.10644531,-77.25,45.90625,-13.4375
253,1697616085,-0.82128906,-0.25683594,0.015625,120.75,65.03125,-13.5
254,1697616125,-0.8613281,0.140625,0.13964844,17.65625,32.8125,-20.90625
255,1697616165,-0.9873047,0.4404297,0.9189453,22.34375,21.15625,-10.8125
256,1697616205,-1.3066406,-0.19042969,0.7314453,-123.40625,0.4375,4.375
257,1697616245,-1.2275391,-0.10253906,-0.4453125,-122.34375,-108.9375,-16.3125
258,1697616285,-1.1767578,0.51171875,-0.5078125,73.9375,-80.3125,4.375
259,1697616325,-0.8388672,0.123046875,0.43164062,179.03125,-5.71875,11.75
260,1697616365,-1.0126953,-0.3876953,0.29882812,-95.75,0.6875,-20.59375
261,1697616405,-1.4775391,-0.44628906,1.0,157.625,-103.90625,-17.40625
262,1697616445,-0.119140625,0.56152344,-0.29589844,174.34375,-36.40625,-1.90625
263,1697616485,-0.3564453,0.19433594,-0.34277344,38.59375,17.65625,17.5625
264,1697616525,-1.4550781,0.053710938,0.3095703,-18.96875,35.46875,25.375
265,1697616565,-1.4179688,0.15429688,-0.09863281,-121.1875,47.3125,-38.90625
266,1697616605,-1.0195312,0.38867188,0.46484375,-17.3125,5.8125,1.8125
267,1697616645,-0.8339844,-0.37109375,-0.08984375,-8.46875,2.34375,14.5
268,1697616685,-0.9863281,-0.27929688,-0.10644531,5.03125,21.1875,0.03125
269,1697616725,-1.1171875,0.0126953125,0.10839844,39.09375,35.71875,-16.5
270,1697616765,-0.96777344,0.29003906,0.30664062,32.3125,38.71875,-15.03125
271,1697616805,-0.93359375,-0.15136719,0.5810547,-80.0625,39.34375,-11.375
272,1697616845,-1.0068359,-0.17773438,0.29101562,9.40625,55.5,-9.40625
273,1697616885,-0.98046875,-0.107421875,0.2763672,33.34375,9.25,18.125
274,1697616925,-1.1132812,-0.036132812,-0.0107421875,-79.4375,-43.6875,11.625
275,1697616965,-1.2304688,0.4580078,-0.31640625,110.3125,-64.375,8.34375
276,1697617005,-1.0820312,0.36621094,-0.00390625,124.21875,-65.46875,23.78125
277,1697617045,-1.0585938,-0.13378906,0.2763672,-77.8125,-43.625,5.96875
278,1697617085,-0.95996094,-0.10253906,-0.060546875,-78.78125,-18.15625,-8.4375
279,1697617125,-0.92871094,-0.13574219,0.41308594,112.5,-101.25,7.78125
280,1697617165,-0.61035156,0.30664062,0.12207031,38.40625,-79.25,4.4375
281,1697617205,-0.5527344,0.18652344,-0.0390625,30.15625,-24.15625,11.59375
282,1697617245,-0.45898438,0.051757812,-0.032226562,-14.6875,34.5,-1.40625
283,1697617285,-1.3779297,0.7685547,0.8798828,23.46875,-16.03125,8.78125
284,1697617325,-2.0,-0.34179688,0.2705078,-249.25,87.65625,-60.9375
285,1697617365,-0.5546875,0.4658203,-0.05859375,-33.0,31.75,-4.34375
286,1697617405,-1.0429688,-0.2939453,0.009765625,100.59375,28.28125,42.78125
287,1697617445,-1.1259766,-0.40820312,0.42285156,46.78125,33.09375,-18.75
288,1697617485,-0.8310547,0.26757812,0.053710938,-14.3125,30.40625,-32.375
289,1697617525,-1.0439453,-0.00390625,0.10644531,118.125,32.625,-3.8125
290,1697617565,-1.1914062,-0.17578125,0.546875,84.71875,68.1875,-12.46875
291,1697617605,-0.8984375,0.12890625,0.4345703,-32.8125,55.4375,-13.75
292,1697617645,-0.6953125,0.10644531,0.63964844,-97.75,-4.0,22.875
293,1697617685,-1.3085938,0.041992188,-0.041015625,-180.03125,-85.5,-5.75
294,1697617725,-1.4619141,0.31933594,-0.50097656,35.59375,-82.5625,-13.9375
295,1697617765,-0.9609375,0.055664062,-0.015625,170.375,-45.5,24.46875
296,1697617805,-0.8222656,-0.08691406,0.30664062,32.78125,19.75,10.65625
297,1697617845,-0.41503906,0.17871094,0.037109375,11.0,36.8125,5.15625
298,1697617885,-0.4873047,0.7080078,0.48535156,238.65625,-120.8125,56.875
299,1697617925,-1.5322266,-0.61816406,-0.43847656,45.0,9.0,13.65625
300,1697617965,-1.4794922,-0.30371094,0.15039062,-89.78125,53.625,-12.34375
301,1697618005,-0.8222656,0.0390625,-0.048828125,-93.625,27.25,-30.46875
302,1697618045,-1.0214844,-0.080078125,-0.115234375,55.625,51.0625,-24.84375
303,1697618085,-0.99121094,0.52441406,1.2529297,213.59375,23.34375,0.84375
304,1697618125,-1.0488281,0.09667969,0.29882812,-264.03125,-48.0,-16.5
305,1697618165,-1.3066406,0.125,0.026367188,-134.75,-101.96875,-35.125
306,1697618205,-1.6679688,0.18652344,-0.4736328,175.8125,-87.4375,31.34375
307,1697618245,-0.75878906,0.078125,0.16992188,57.875,-39.65625,16.875
308,1697618285,-0.4921875,-0.4140625,0.2578125,-46.84375,26.375,-24.6875
309,1697618325,-0.29296875,0.13378906,0.6767578,-3.46875,11.25,-4.96875
310,1697618365,-0.7607422,0.17773438,-0.15722656,-59.3125,3.6875,24.65625
311,1697618405,-2.0,0.28125,1.1640625,-69.75,39.03125,-3.6875
312,1697618445,-1.34375,-0.15722656,0.24023438,-158.5,47.5625,-42.0
313,1697618485,-1.0009766,0.24511719,-0.07714844,-30.25,59.96875,-21.6875
314,1697618525,-1.125,0.017578125,-0.07910156,111.53125,46.53125,16.40625
315,1697618565,-0.9316406,-0.07519531,0.19335938,105.25,53.125,1.625
316,1697618605,-0.59375,-0.13476562,0.087890625,-0.09375,32.90625,4.5625
317,1697618645,-0.46875,-0.107421875,0.3984375,3.375,39.9375,-8.4375
318,1697618685,-0.5908203,0.1484375,0.5751953,4.65625,8.8125,11.46875
319,1697618725,-1.8574219,-0.19824219,0.3330078,-88.0,-59.25,9.625
320,1697618765,-1.7402344,0.63671875,0.10644531,5.75,-70.90625,-9.21875
321,1697618805,-1.2509766,0.6738281,-0.2998047,-59.84375,-92.4375,25.0
322,1697618845,-1.0371094,0.064453125,0.040039062,80.15625,-61.25,60.28125
323,1697618885,-0.9296875,-0.19824219,0.20800781,-55.65625,-63.875,34.78125
324,1697618925,-0.6455078,-0.171875,-0.07910156,-46.625,-45.75,-3.9375
325,1697618965,-0.19238281,0.16113281,-0.013671875,-8.84375,-6.5,-35.53125
326,1697619005,-0.58203125,0.059570312,0.28125,-3.21875,20.40625,-27.71875
327,1697619045,-2.0,0.3671875,-0.2998047,-146.78125,46.15625,45.03125
328,1697619085,-0.9863281,-0.16992188,1.0771484,93.21875,-4.25,22.5
329,1697619125,-0.8339844,0.14355469,-0.21289062,-234.78125,50.625,-29.0
330,1697619165,-0.92285156,-0.07128906,-0.15917969,3.375,30.53125,15.53125
331,1697619205,-1.1376953,-0.09375,0.5205078,137.03125,47.25,25.125
332,1697619245,-0.82421875,-0.0087890625,0.42871094,-18.65625,10.59375,-1.46875
333,1697619285,-0.89941406,0.30859375,1.3339844,-146.84375,18.03125,-16.5625
334,1697619325,-1.1103516,0.14355469,-0.4560547,-130.34375,-55.09375,-15.28125
335,1697619365,-1.5322266,-0.17089844,0.057617188,221.8125,-54.25,48.75
336,1697619405,-1.0947266,0.17675781,0.13867188,34.5625,-50.625,13.15625
337,1697619445,-0.8183594,0.29296875,0.13378906,-27.75,-36.84375,-11.6875
338,1697619485,-0.7714844,0.05859375,0.08984375,36.40625,-43.3125,-11.25
339,1697619525,-0.48535156,0.40820312,0.15917969,32.84375,-36.15625,-13.1875
340,1697619565,-0.29296875,0.48535156,0.08984375,25.09375,19.625,21.71875
341,1697619605,-1.1416016,-0.5996094,0.03515625,-48.6875,-26.78125,25.8125
342,1697619645,-2.0,-0.34375,0.8671875,-206.90625,69.34375,-36.46875
343,1697619685,-0.8310547,0.21386719,0.0859375,-71.53125,31.21875,-20.78125
344,1697619725,-0.9941406,-0.0390625,-0.07519531,-17.5625,68.4375,-9.78125
345,1697619765,-1.0351562,-0.12988281,0.11035156,-17.4375,40.90625,-8.0
346,1697619805,-0.96191406,0.07519531,0.099609375,12.78125,33.65625,-8.0625
347,1697619845,-0.9316406,-0.04296875,0.19042969,29.0,24.0625,2.4375
348,1697619885,-0.95410156,0.033203125,0.63183594,-11.875,25.71875,-6.0
349,1697619925,-0.9638672,-0.11035156,0.6279297,-89.09375,14.78125,3.21875
350,1697619965,-1.2070312,-0.020507812,-0.09472656,-46.8125,-55.875,14.6875
351,1697620005,-1.2988281,0.41308594,-0.10449219,163.46875,-70.34375,25.9375
352,1697620045,-1.1582031,0.28125,-0.17089844,25.53125,-62.59375,33.84375
353,1697620085,-1.0332031,0.17382812,0.25,-81.84375,-10.0,5.53125
354,1697620125,-0.82128906,-0.0703125,0.020507812,-125.03125,2.84375,-11.4375
355,1697620165,-0.8486328,-0.08984375,0.81640625,40.1875,-30.9375,-16.25
356,1697620205,-0.08105469,-0.099609375,-0.4638672,-56.1875,-1.6875,-1.40625
357,1697620245,-1.0410156,0.17089844,-0.37402344,-85.96875,38.78125,0.78125
358,1697620285,-2.0,-0.50878906,0.67871094,115.6875,57.03125,40.8125
359,1697620325,-0.86328125,0.5185547,0.1796875,-296.1875,-20.375,-62.9375
360,1697620365,-0.3671875,0.12792969,-0.4189453,-6.34375,22.1875,-3.875
361,1697620405,-1.3681641,-0.6669922,-0.111328125,230.0625,86.375,58.6875
362,1697620445,-1.2490234,-0.20117188,0.9765625,-153.78125,5.28125,-18.15625
363,1697620485,-0.7763672,0.45898438,0.46191406,-44.125,-116.0,-8.3125
364,1697620525,-0.5390625,0.5097656,-0.5654297,36.09375,-181.96875,45.15625
365,1697620565,-1.5175781,-0.15527344,0.9111328,245.4375,-41.65625,52.65625
366,1697620605,-0.83496094,0.0029296875,0.42578125,-70.1875,-9.5625,-95.125
367,1697620645,-0.7841797,0.30371094,0.8574219,2.9375,6.125,-59.90625
368,1697620685,-0.5683594,0.013671875,-0.028320312,91.6875,-12.0,2.65625
369,1697620725,0.10644531,0.65527344,-0.28125,-56.8125,-4.875,2.375
370,1697620765,-1.4560547,0.048828125,0.43652344,117.25,112.5,49.46875
371,1697620805,-1.7646484,-1.0029297,0.9921875,-36.0625,33.09375,5.59375
372,1697620845,-0.54785156,-0.07910156,-0.13671875,-78.53125,45.6875,-46.09375
373,1697620885,-1.0839844,-0.07910156,0.055664062,71.25,75.46875,1.5
374,1697620925,-1.3164062,-0.20605469,0.14941406,42.125,83.53125,-26.125
375,1697620965,-0.79589844,0.20019531,0.119140625,-13.78125,52.15625,-31.75
376,1697621005,-0.80371094,0.19335938,0.33496094,-40.75,32.1875,-27.46875
377,1697621045,-0.77441406,0.12597656,0.16015625,-58.75,41.78125,-5.03125
378,1697621085,-0.9970703,-0.43164062,0.20507812,-24.09375,35.96875,26.34375
379,1697621125,-0.9404297,-0.0625,0.8964844,-88.65625,24.9375,14.375
380,1697621165,-2.0,-0.1875,-0.26464844,-191.15625,-61.0,-0.4375
381,1697621205,-0.7607422,0.6015625,-0.48828125,64.28125,-88.71875,8.65625
382,1697621245,-0.8935547,0.4091797,-0.2705078,-2.0,-59.125,25.0625
383,1697621285,-1.0585938,-0.3173828,0.43847656,265.09375,-64.25,64.8125
384,1697621325,-1.1474609,-0.08886719,0.36621094,-130.53125,-45.4375,-28.875
385,1697621365,-1.2529297,0.24023438,0.5810547,90.84375,-89.46875,2.0625
386,1697621405,-0.8613281,0.20898438,0.31835938,110.96875,-118.6875,32.5
387,1697621445,-0.79003906,-0.10253906,0.5527344,117.8125,-112.71875,46.1875
388,1697621485,-0.265625,-0.07714844,-0.23339844,90.59375,-28.84375,10.0625
389,1697621525,-0.0546875,-0.061523438,-0.10644531,60.6875,37.125,-31.28125
390,1697621565,-2.0,1.1171875,2.0,-45.34375,-1.75,-41.8125
391,1697621605,-1.5498047,0.15722656,-0.043945312,-150.5,28.09375,-83.34375
392,1697621645,-0.7675781,0.2919922,-0.12597656,-136.15625,72.65625,-31.5
393,1697621685,-1.0849609,-0.35058594,0.0107421875,-63.9375,36.59375,23.71875
394,1697621725,-0.86035156,-0.12207031,0.15136719,-73.53125,36.8125,-2.8125
395,1697621765,-0.90527344,0.091796875,0.21777344,-18.34375,45.4375,-4.09375
396,1697621805,-1.0029297,0.00390625,0.33789062,-7.6875,23.65625,3.8125
397,1697621845,-1.1708984,-0.4404297,0.2841797,17.21875,23.15625,2.0
398,1697621885,-0.9638672,-0.28320312,0.045898438,60.125,14.71875,-12.46875
399,1697621925,-1.0371094,0.14453125,0.2109375,78.75,40.125,-23.75
400,1697621965,-1.0039062,0.13671875,0.21191406,18.3125,40.375,-25.40625
401,1697622005,-0.95214844,0.11425781,0.119140625,-30.625,47.875,-22.125
402,1697622045,-0.9873047,-0.0048828125,0.083984375,27.59375,45.0,-1.25
403,1697622085,-0.94921875,-0.0078125,0.52246094,60.0,28.21875,9.5
404,1697622125,-0.99902344,-0.01171875,1.0253906,-60.84375,-11.40625,20.375
405,1697622165,-1.2099609,-0.16601562,-0.57128906,-110.03125,-61.875,4.4375
406,1697622205,-0.99121094,0.49414062,-0.26464844,148.03125,-63.21875,18.34375
407,1697622245,-1.25,0.016601562,0.25878906,115.625,-61.375,34.21875
408,1697622285,-1.2382812,0.21289062,0.13085938,-141.46875,-49.0,-3.4375
409,1697622325,-0.9824219,0.1875,0.049804688,-57.59375,-29.40625,-11.75
410,1697622365,-0.87109375,0.03515625,0.296875,32.78125,-18.03125,1.25
411,1697622405,-0.453125,0.033203125,-0.01953125,45.0,9.46875,3.65625
412,1697622445,-0.5058594,0.0029296875,0.22753906,59.03125,-8.875,24.59375
413,1697622485,-1.3867188,-0.26367188,-0.25683594,-44.59375,28.53125,-16.25
414,1697622525,-1.3457031,0.1328125,0.20507812,-28.59375,66.6875,-16.4375
415,1697622565,-0.99316406,-0.051757812,-0.0703125,-59.625,-2.25,-2.8125
416,1697622605,-1.0458984,-0.21289062,-0.12890625,47.25,43.1875,-7.84375
417,1697622645,-1.0068359,0.09082031,0.38867188,39.125,85.84375,-15.46875
418,1697622685,-0.9248047,-0.005859375,0.21191406,-13.84375,42.25,-9.78125
419,1697622725,-1.0898438,-0.29589844,-0.29785156,212.1875,16.375,17.5
420,1697622765,-1.1777344,-0.296875,0.4375,71.0,42.625,-14.3125
421,1697622805,-1.1083984,0.057617188,0.6152344,-115.9375,40.90625,-25.78125
422,1697622845,-1.1796875,0.8847656,1.3164062,-53.5625,-142.1875,48.25
423,1697622885,-0.92578125,0.5722656,-0.7138672,-81.53125,-262.3125,94.21875
424,1697622925,-1.1591797,-0.15039062,0.41308594,214.875,8.875,24.40625
425,1697622965,-0.30078125,-0.22460938,-0.09765625,4.09375,45.90625,-43.46875
426,1697623005,-0.8642578,-0.44433594,2.0,66.1875,5.625,-28.75
427,1697623045,-0.06933594,-0.08984375,-0.75097656,-144.21875,84.0,-69.0625
428,1697623085,-1.0703125,-0.0390625,0.5048828,181.09375,-13.96875,23.78125
429,1697623125,-0.75683594,-0.44433594,0.02734375,-108.8125,25.96875,-18.75
430,1697623165,-1.1064453,-0.16601562,-0.072265625,-67.125,23.15625,-20.34375
431,1697623205,-1.1347656,0.076171875,0.06347656,-17.6875,36.9375,-23.03125
432,1697623245,-1.2587891,-0.07128906,-0.15527344,113.78125,32.3125,2.84375
433,1697623285,-0.8671875,0.099609375,0.46972656,133.125,27.4375,-14.375
434,1697623325,-0.7988281,0.16210938,0.21484375,-11.75,33.34375,-14.90625
435,1697623365,-0.84765625,0.28320312,0.70996094,82.40625,20.53125,9.03125
436,1697623405,-1.5585938,0.27148438,0.89160156,-61.375,8.375,22.875
437,1697623445,-1.5751953,0.1796875,-0.09765625,-159.15625,-41.78125,-6.96875
438,1697623485,-0.90722656,0.3798828,-0.21484375,-19.5,-105.3125,35.4375
439,1697623525,-0.9716797,-0.08886719,0.3232422,192.53125,-62.96875,61.09375
440,1697623565,-0.625,-0.12207031,0.111328125,-50.8125,-36.0,-3.5625
441,1697623605,-0.013671875,0.083984375,0.17675781,26.25,-16.75,-18.03125
442,1697623645,-0.048828125,0.29492188,0.17285156,15.21875,48.59375,-22.0625
443,1697623685,-2.0,-0.5263672,-0.8378906,67.09375,26.75,21.34375
444,1697623725,-1.140625,-0.17285156,0.35839844,-76.46875,53.5,-56.21875
445,1697623765,-1.0273438,0.10253906,-0.099609375,-85.6875,41.53125,-22.0
446,1697623805,-1.0683594,0.12890625,-0.08203125,-59.75,57.40625,-23.40625
447,1697623845,-0.80566406,0.62402344,0.3017578,62.5625,6.25,14.15625
448,1697623885,-0.79589844,-0.091796875,1.3691406,117.25,8.75,33.0
449,1697623925,-1.1494141,-0.53515625,0.34472656,-151.96875,-67.53125,42.78125
450,1697623965,-1.421875,0.17382812,-0.375,-111.375,-104.28125,-13.5
451,1697624005,-0.8261719,0.47753906,-0.54589844,45.625,-99.28125,18.71875
452,1697624045,-0.8046875,-0.0625,0.78808594,209.4375,-3.21875,17.125
453,1697624085,-0.40527344,0.026367188,0.0126953125,-118.03125,55.6875,-50.96875
454,1697624125,-1.4394531,0.14257812,1.2333984,176.46875,-17.125,-22.90625
455,1697624165,-0.859375,0.09277344,-0.54003906,-107.71875,27.5625,-46.09375
456,1697624205,-1.0527344,0.12011719,-0.056640625,217.125,45.375,20.84375
457,1697624245,-1.0234375,-0.453125,0.111328125,38.15625,25.46875,-24.3125
458,1697624285,-0.8613281,0.57910156,0.051757812,-23.78125,62.59375,-49.34375
459,1697624325,-1.2509766,-0.18261719,0.22949219,113.3125,33.78125,3.28125
460,1697624365,-0.9609375,-0.19335938,0.3173828,42.125,47.75,-7.21875
461,1697624405,-0.81640625,-0.10546875,0.17480469,-12.96875,25.46875,-2.6875
462,1697624445,-0.93066406,0.07910156,0.89941406,53.125,-14.875,15.53125
463,1697624485,-1.5058594,0.13769531,0.6113281,-125.40625,-108.5625,42.34375
464,1697624525,-1.2568359,0.40234375,-0.74121094,-48.09375,-90.375,-12.90625
465,1697624565,-0.9765625,0.19726562,0.0126953125,230.0625,-99.59375,36.53125
466,1697624605,-1.046875,-0.2841797,0.51464844,-25.875,-35.9375,-5.625
467,1697624645,-0.59375,0.25390625,-0.09277344,-14.6875,-3.40625,-33.09375
468,1697624685,-0.38183594,-0.017578125,0.15722656,102.1875,40.71875,-52.375
469,1697624725,-0.47460938,0.21972656,0.2548828,90.40625,56.1875,-54.21875
470,1697624765,-1.7265625,-0.08691406,-0.11816406,66.90625,27.90625,-13.09375
471,1697624805,-1.3798828,-0.0126953125,0.59277344,-63.46875,7.78125,-15.59375
472,1697624845,-0.9189453,-0.17480469,0.12109375,102.0625,7.78125,-0.9375
473,1697624885,-1.1708984,-0.0087890625,0.13769531,-58.15625,64.59375,-47.375
474,1697624925,-0.8623047,0.13769531,0.21289062,42.125,34.3125,-12.84375
475,1697624965,-0.79003906,0.026367188,0.2529297,91.9375,26.5,6.9375
476,1697625005,-0.8017578,0.059570312,0.78515625,65.625,3.375,22.8125
477,1697625045,-1.3251953,-0.29882812,0.9902344,-47.96875,-36.40625,15.90625
478,1697625085,-1.4150391,-0.028320312,-0.017578125,-58.5625,-79.4375,-2.75
479,1697625125,-0.8330078,0.5644531,-0.3671875,153.8125,-92.4375,16.40625
480,1697625165,-1.1025391,-0.21386719,0.609375,159.625,-83.84375,40.03125
481,1697625205,-0.9121094,0.115234375,0.08496094,-5.0,-13.78125,-37.375
482,1697625245,-0.67871094,0.16503906,0.04296875,-11.40625,-0.28125,-54.875
483,1697625285,-0.5810547,0.17675781,0.17285156,39.75,21.8125,-55.6875
484,1697625325,-0.55078125,0.171875,0.24316406,51.28125,59.78125,-51.59375
485,1697625365,-1.3486328,0.69921875,2.0,210.84375,-28.71875,-23.53125
486,1697625405,-1.0058594,-0.34179688,-1.0703125,-172.46875,17.59375,-30.59375
487,1697625445,-0.96484375,0.18554688,0.01953125,250.5,61.59375,9.5625
488,1697625485,-1.1542969,-0.4169922,0.040039062,-8.46875,42.1875,-34.375
489,1697625525,-1.0869141,-0.0078125,0.07519531,-24.9375,100.5,-52.375
490,1697625565,-0.9140625,0.12890625,0.06738281,46.34375,56.84375,-26.125
491,1697625605,-0.8378906,0.16308594,0.12890625,94.6875,21.03125,-0.8125
492,1697625645,-0.8486328,0.16503906,0.9667969,127.53125,-14.25,25.96875
493,1697625685,-1.2587891,-0.026367188,0.9951172,-75.78125,-86.34375,45.15625
494,1697625725,-1.2021484,0.06347656,-1.1357422,-75.53125,-89.875,-11.125
495,1697625765,-1.0537109,0.6904297,0.1953125,235.25,-82.9375,21.34375
496,1697625805,-1.0966797,-0.13867188,0.43359375,2.6875,-30.8125,4.25
497,1697625845,-0.79296875,0.29003906,-0.01171875,-122.125,7.96875,-49.21875
498,1697625885,-0.40527344,0.2578125,-0.025390625,83.8125,32.3125,-31.875
499,1697625925,-0.51953125,0.020507812,0.4658203,93.65625,46.15625,-29.1875
500,1697625965,-1.1044922,0.33496094,0.06640625,182.75,-86.65625,68.34375
501,1697626005,-1.7695312,-0.028320312,0.13964844,-198.84375,57.75,-25.46875
502,1697626045,-0.97265625,-0.38671875,0.12695312,-10.3125,7.53125,-10.09375
503,1697626085,-0.953125,0.16601562,0.12402344,-91.84375,31.875,-34.125
504,1697626125,-1.0820312,0.02734375,0.08496094,34.5,36.59375,2.5
505,1697626165,-1.0498047,-0.17773438,0.22753906,92.5,27.5,6.5625
506,1697626205,-1.0097656,-0.2783203,0.061523438,69.78125,39.34375,-9.1875
507,1697626245,-0.9794922,-0.13183594,0.0546875,19.3125,41.90625,-21.0
508,1697626285,-0.9501953,0.16699219,0.19726562,38.90625,40.84375,-23.15625
509,1697626325,-0.9560547,0.42578125,0.8466797,79.3125,-3.59375,2.5
510,1697626365,-1.4882812,0.3017578,1.5556641,-95.5,-98.5625,24.21875
511,1697626405,-1.2949219,0.16992188,-0.97265625,-236.875,-126.625,1.3125
512,1697626445,-0.8183594,-0.053710938,-0.9355469,239.34375,-91.28125,52.03125
513,1697626485,-0.9873047,-0.28222656,0.5449219,89.375,-28.40625,18.125
514,1697626525,-0.38476562,0.23242188,0.08886719,-56.125,53.625,-58.0
515,1697626565,-0.12597656,0.059570312,0.19140625,8.625,81.5625,-68.875
516,1697626605,-1.8378906,0.046875,1.8466797,54.46875,-2.46875,-25.96875
517,1697626645,-1.1269531,0.45117188,0.42871094,105.125,-88.65625,79.4375
518,1697626685,-0.3203125,0.67089844,0.017578125,-46.8125,-163.1875,67.90625
519,1697626725,-0.2763672,-1.0830078,-0.27539062,99.4375,20.03125,31.96875
520,1697626765,-2.0,0.3623047,0.9716797,-159.46875,79.84375,-67.8125
521,1697626805,-1.3691406,0.19726562,-0.14453125,-196.28125,45.125,-73.25
522,1697626845,-0.7548828,0.22460938,-0.19238281,-50.28125,45.875,-28.9375
523,1697626885,-1.2597656,-0.051757812,-0.36328125,-29.78125,47.09375,23.25
524,1697626925,-1.0449219,0.19628906,0.3984375,137.03125,20.53125,10.53125
525,1697626965,-0.4169922,0.057617188,1.1796875,91.375,3.875,2.3125
526,1697627005,-0.3466797,-0.080078125,0.4267578,-73.21875,16.4375,0.21875
527,1697627045,-1.390625,0.16308594,0.99609375,57.8125,-44.53125,42.46875
528,1697627085,-1.3652344,0.0146484375,-0.17089844,-160.3125,9.46875,-44.375
529,1697627125,-0.7910156,0.25976562,-0.3408203,28.53125,47.875,-17.96875
530,1697627165,-1.4130859,0.20410156,0.51953125,124.71875,33.46875,12.96875
531,1697627205,-1.2382812,0.43066406,0.4140625,-149.34375,0.28125,-17.53125
532,1697627245,-0.90625,0.42773438,0.03515625,-38.25,-67.46875,5.59375
533,1697627285,-0.6503906,0.24707031,0.4267578,86.875,-83.71875,50.65625
534,1697627325,-0.8828125,-0.53027344,0.3095703,23.34375,-52.46875,49.59375
535,1697627365,-0.35742188,-0.00390625,0.34179688,31.875,-40.75,-5.15625
536,1697627405,-0.3203125,0.1484375,0.20214844,42.4375,44.34375,-24.1875
537,1697627445,-2.0,0.34179688,0.17578125,-34.96875,-23.96875,16.875
538,1697627485,-1.4003906,0.8876953,0.70996094,-120.34375,59.34375,-40.0
539,1697627525,-1.2275391,-0.3701172,0.15234375,-48.75,48.0625,-14.0
540,1697627565,-1.0205078,-0.068359375,0.28320312,-69.0625,28.03125,-11.8125
541,1697627605,-0.85253906,-0.15429688,0.26367188,-94.03125,40.375,-11.4375
542,1697627645,-0.90625,0.0087890625,0.06933594,-11.03125,37.9375,-0.125
543,1697627685,-1.1386719,-0.1171875,0.14746094,65.8125,32.375,5.34375
544,1697627725,-1.0712891,-0.32714844,0.19140625,-47.46875,33.09375,-16.875
545,1697627765,-1.0244141,0.032226562,0.12890625,-20.0,30.25,-25.34375
546,1697627805,-0.8574219,0.1640625,-0.017578125,28.71875,28.71875,-21.0
547,1697627845,-0.9873047,0.16015625,0.15429688,36.9375,64.59375,-11.625
548,1697627885,-1.1328125,-0.06640625,0.8027344,7.40625,33.21875,0.09375
549,1697627925,-1.0605469,0.10449219,0.7734375,-110.34375,12.96875,-0.25
550,1697627965,-1.3037109,0.24316406,-0.3095703,-262.0,-59.0,-9.46875
551,1697628005,-1.0244141,0.38085938,-0.6191406,-0.78125,-85.5625,24.875
552,1697628045,-1.2050781,-0.06542969,0.080078125,294.9375,-101.0625,69.25
553,1697628085,-1.0722656,-0.12792969,0.53515625,11.625,-51.1875,19.4375
554,1697628125,-0.68847656,0.22851562,0.11425781,-1.3125,-56.0,4.625
555,1697628165,-0.8066406,0.00390625,0.89160156,173.53125,-64.125,23.59375
556,1697628205,-0.7285156,0.3671875,0.546875,-8.40625,-77.8125,7.375
557,1697628245,-0.8515625,0.08984375,0.2578125,61.28125,-76.15625,17.0625
558,1697628285,-0.8203125,0.25683594,0.29785156,21.9375,-34.09375,-3.5
559,1697628325,-0.83496094,0.25195312,0.19433594,8.75,6.8125,-9.59375
560,1697628365,-0.8496094,0.24414062,0.19238281,8.75,36.15625,-18.8125
561,1697628405,-0.7753906,0.21972656,0.078125,-22.25,48.90625,-25.28125
562,1697628445,-0.7109375,0.048828125,-0.25195312,-46.90625,58.8125,-48.53125
563,1697628485,-2.0,0.030273438,0.8535156,10.28125,-61.8125,27.375
564,1697628525,-0.6386719,0.62890625,-0.20800781,-175.875,-19.4375,-31.5625
565,1697628565,-1.2714844,-0.45410156,0.43359375,-5.59375,21.9375,59.8125
566,1697628605,-1.359375,-0.5654297,0.43554688,-157.625,60.15625,-15.15625
567,1697628645,-0.75,-0.033203125,0.3935547,-37.21875,16.5625,-21.5625
568,1697628685,-0.4033203,-0.018554688,0.041992188,-24.65625,14.4375,-14.125
569,1697628725,-1.296875,-0.021484375,0.24414062,46.90625,36.09375,-4.59375
570,1697628765,-1.0966797,-0.234375,0.31835938,2.15625,16.375,-10.40625
571,1697628805,-0.8417969,-0.20019531,0.060546875,118.25,21.625,-14.46875
572,1697628845,-1.0292969,0.22265625,0.39160156,113.53125,20.03125,-9.65625
573,1697628885,-0.8388672,0.37597656,0.48242188,35.125,5.09375,-0.6875
574,1697628925,-1.0449219,0.13476562,0.93066406,82.0,-47.53125,38.9375
575,1697628965,-1.1992188,0.22265625,0.37890625,-96.46875,-113.25,51.375
576,1697629005,-1.0136719,0.25390625,-0.3408203,61.34375,-106.3125,37.34375
577,1697629045,-1.1787109,0.30566406,0.58691406,99.125,-62.59375,53.4375
578,1697629085,-1.0859375,0.15625,0.111328125,-50.28125,-38.3125,10.53125
579,1697629125,-0.5996094,0.1953125,0.29882812,23.75,-33.125,5.0
580,1697629165,-0.296875,0.21191406,0.27734375,-0.03125,17.34375,-17.71875
581,1697629205,-0.31445312,0.123046875,0.25878906,-12.125,66.4375,-28.46875
582,1697629245,-1.3085938,0.38378906,2.0,88.09375,-0.78125,-19.375
583,1697629285,-1.2138672,-0.13671875,-0.78222656,-119.71875,51.21875,-55.4375
584,1697629325,-0.7128906,0.22949219,0.14941406,-6.15625,37.625,-9.59375
585,1697629365,-1.0742188,-0.23925781,0.09082031,-29.875,35.78125,0.40625
586,1697629405,-1.0322266,0.0078125,0.2919922,-43.625,44.34375,-20.09375
587,1697629445,-0.8330078,0.27929688,0.25683594,2.9375,36.03125,-0.75
588,1697629485,-0.95410156,0.0390625,0.37890625,44.21875,32.625,11.40625
589,1697629525,-0.9472656,-0.12207031,0.32714844,-29.28125,34.9375,-0.6875
590,1697629565,-0.91796875,0.0146484375,0.38867188,-34.34375,39.21875,-5.3125
591,1697629605,-0.80566406,0.18554688,0.6328125,12.65625,7.90625,6.9375
592,1697629645,-0.8183594,-0.21777344,0.81152344,-64.8125,-5.15625,11.625
593,1697629685,-1.3886719,-0.24707031,-0.15820312,-75.46875,-1.25,-22.0
594,1697629725,-1.125,0.6953125,-0.20410156,45.96875,-34.09375,-18.75
595,1697629765,-1.0556641,-0.053710938,0.4267578,74.0625,-23.53125,6.28125
596,1697629805,-1.0,0.030273438,0.17382812,-68.40625,-11.8125,-27.125
597,1697629845,-0.6660156,0.16113281,0.1015625,73.875,-32.3125,-11.375
598,1697629885,-0.7392578,0.26367188,0.33789062,85.03125,-35.75,-1.90625
599,1697629925,-0.6923828,0.21875,0.49902344,90.03125,-52.34375,11.875
600,1697629965,-0.5263672,0.15332031,-0.3408203,54.34375,26.875,6.09375
601,1697630005,-1.5527344,0.17675781,0.40820312,-38.25,17.71875,-9.46875
602,1697630045,-1.7910156,0.01953125,0.6376953,-153.125,68.5,-19.125
603,1697630085,-0.80859375,0.028320312,0.12597656,-34.15625,5.34375,6.5625
604,1697630125,-1.1171875,-0.3125,0.17089844,-22.03125,36.40625,-0.5
605,1697630165,-0.92871094,-0.09667969,0.16113281,-11.9375,30.96875,-4.84375
606,1697630205,-1.0400391,-0.115234375,0.23535156,42.1875,22.78125,11.875
607,1697630245,-0.91503906,-0.07714844,0.28320312,12.53125,2.90625,3.71875
608,1697630285,-1.0224609,0.060546875,1.0087891,-3.65625,-27.1875,-3.625
609,1697630325,-1.21875,-0.17089844,0.39453125,-119.90625,-68.34375,-4.78125
610,1697630365,-1.0361328,0.27929688,0.107421875,105.53125,-83.21875,5.71875
611,1697630405,-0.86035156,0.01953125,0.1171875,196.25,-78.28125,43.375
612,1697630445,-0.9980469,0.24609375,0.2529297,33.53125,-26.21875,-1.96875
613,1697630485,-0.74902344,0.32128906,0.20019531,-15.96875,7.40625,-36.625
614,1697630525,-0.55859375,0.30273438,0.19824219,-14.8125,37.1875,-49.40625
615,1697630565,-0.63378906,0.4716797,0.24511719,35.90625,53.4375,-16.875
616,1697630605,-1.3417969,-0.7861328,0.5205078,52.75,-0.34375,-7.40625
617,1697630645,-1.4335938,0.23046875,0.6923828,-121.0625,17.90625,-26.4375
618,1697630685,-0.9765625,-0.32714844,0.038085938,-22.375,18.53125,-11.84375
619,1697630725,-1.2275391,-0.041992188,0.16015625,11.5625,25.90625,-9.53125
620,1697630765,-1.0380859,-0.0625,0.14941406,7.875,32.6875,-17.21875
621,1697630805,-0.8876953,0.078125,0.024414062,8.9375,38.28125,-11.625
622,1697630845,-0.98828125,-0.10839844,0.21972656,88.03125,31.75,3.34375
623,1697630885,-0.9589844,-0.13476562,0.19042969,17.40625,30.59375,-6.96875
624,1697630925,-0.9550781,0.0087890625,0.3486328,29.5625,31.9375,-14.0625
625,1697630965,-0.9091797,0.0087890625,0.44726562,56.40625,17.28125,1.25
626,1697631005,-0.85058594,0.21582031,0.72558594,-0.46875,19.8125,17.375
627,1697631045,-1.4521484,-0.4013672,0.4716797,-165.09375,-5.09375,22.8125
628,1697631085,-1.1591797,0.15820312,-0.54589844,-4.5625,-40.75,-10.03125
629,1697631125,-0.90625,0.28808594,-0.28222656,80.59375,-41.0625,-1.40625
630,1697631165,-1.1386719,-0.01953125,0.58496094,205.78125,4.1875,13.09375
631,1697631205,-0.85253906,0.16992188,0.18945312,-79.375,10.15625,-15.8125
632,1697631245,-1.1767578,0.24316406,0.3642578,28.09375,-25.3125,-3.8125
633,1697631285,-1.0712891,0.20605469,0.79003906,102.5625,-123.4375,27.8125
634,1697631325,-0.6933594,0.25195312,-0.3720703,21.9375,-95.0625,36.59375
635,1697631365,-1.0566406,-0.0234375,0.61328125,153.34375,-78.59375,51.1875
636,1697631405,-0.89160156,0.23339844,0.064453125,-19.21875,-58.4375,8.28125
637,1697631445,-0.7363281,0.111328125,0.21777344,32.4375,-27.875,-19.90625
638,1697631485,-0.7265625,0.23046875,0.3330078,-11.34375,16.1875,-40.4375
639,1697631525,-0.68652344,0.3359375,0.17578125,-11.9375,66.125,-54.78125
640,1697631565,-1.4902344,0.47070312,1.359375,116.15625,-31.28125,-10.40625
641,1697631605,-0.984375,-0.11621094,-0.6875,-54.5625,46.40625,-29.75
642,1697631645,-0.7080078,-0.09472656,0.140625,121.21875,0.375,16.34375
643,1697631685,-1.2119141,-0.123046875,0.020507812,-53.8125,25.53125,-31.9375
644,1697631725,-1.1396484,0.26953125,0.34375,21.0625,39.21875,-25.65625
645,1697631765,-0.88671875,-0.07324219,0.08496094,-6.625,38.46875,-9.0625
646,1697631805,-0.9345703,-0.06347656,0.4248047,61.40625,23.15625,-8.625
647,1697631845,-0.953125,0.09667969,1.1845703,24.125,-1.0,0.21875
648,1697631885,-1.3134766,0.103515625,0.39257812,-120.84375,-55.15625,-10.5
649,1697631925,-0.9277344,-0.055664062,-0.6455078,171.46875,-106.71875,18.59375
650,1697631965,-0.9794922,0.16796875,0.8330078,259.65625,-80.78125,42.53125
651,1697632005,-0.90625,0.3623047,-0.015625,-6.5625,-14.4375,-28.65625
652,1697632045,-0.5292969,0.3671875,0.029296875,-15.3125,18.75,-52.9375
653,1697632085,-0.1953125,0.38378906,0.0703125,-15.125,58.90625,-55.25
654,1697632125,-2.0,0.14160156,1.4042969,168.40625,-174.34375,123.46875
655,1697632165,-1.4462891,0.49804688,1.0253906,-74.25,36.65625,-59.34375
656,1697632205,-1.53125,-0.6904297,-0.12597656,-186.75,39.625,-52.75
657,1697632245,-1.3896484,0.06347656,0.083984375,-78.65625,27.0625,-37.8125
658,1697632285,-0.8623047,0.31445312,0.09472656,-23.1875,20.46875,-6.90625
659,1697632325,-0.8457031,0.017578125,0.0,37.25,25.59375,14.21875
660,1697632365,-1.0068359,-0.26660156,0.5546875,59.84375,30.90625,15.25
661,1697632405,-0.87890625,-0.29785156,0.24414062,-40.03125,24.9375,-1.40625
662,1697632445,-1.1308594,-0.21582031,1.0039062,-28.84375,28.28125,-16.6875
663,1697632485,-1.3193359,0.22460938,0.58203125,-23.96875,-23.53125,-20.71875
664,1697632525,-0.87890625,0.27246094,0.059570312,59.84375,-83.34375,10.78125
665,1697632565,-0.7685547,0.12890625,-0.14257812,131.3125,-75.90625,33.1875
666,1697632605,-1.0605469,0.19238281,0.4453125,96.09375,-38.4375,20.375
667,1697632645,-0.92578125,0.28808594,0.33691406,-20.75,-11.8125,-22.71875
668,1697632685,-0.6777344,0.19628906,0.08203125,12.15625,-1.8125,-25.90625
669,1697632725,-0.75683594,0.21582031,0.29296875,38.09375,13.4375,-14.1875
670,1697632765,-0.7519531,0.2421875,0.34179688,41.65625,10.75,-11.625
671,1697632805,-0.70410156,0.3173828,0.36621094,83.9375,22.46875,-9.59375
672,1697632845,-1.5820312,-0.2626953,0.34570312,24.6875,-17.4375,-17.78125
673,1697632885,-1.3583984,0.25,0.35253906,-106.6875,57.34375,-36.9375
674,1697632925,-0.8359375,-0.12109375,0.12109375,23.15625,22.71875,3.78125
675,1697632965,-0.98828125,-0.2783203,0.078125,-23.0,29.6875,-17.34375
676,1697633005,-1.0253906,0.080078125,0.24414062,-59.75,31.09375,-27.96875
677,1697633045,-0.9785156,0.07128906,0.061523438,4.71875,47.1875,-4.53125
678,1697633085,-1.1435547,-0.4013672,0.26660156,61.25,41.21875,0.09375
679,1697633125,-1.0097656,-0.24707031,-0.0146484375,0.4375,35.96875,-22.78125
680,1697633165,-0.9873047,-0.048828125,-0.064453125,38.96875,48.96875,-22.0625
681,1697633205,-0.9199219,0.17675781,0.09375,10.9375,64.65625,-16.625
682,1697633245,-0.89453125,0.13769531,0.38378906,95.0625,-5.09375,14.5
683,1697633285,-1.0039062,0.10253906,0.6972656,19.1875,-23.84375,26.09375
684,1697633325,-1.3193359,-0.12792969,0.8466797,-108.1875,-78.71875,49.71875
685,1697633365,-1.4521484,0.19238281,-0.47460938,-132.6875,-126.125,6.9375
686,1697633405,-0.88964844,0.4345703,-0.64746094,68.5625,-96.71875,14.25
687,1697633445,-1.1269531,-0.13769531,0.73339844,275.34375,46.09375,24.09375
688,1697633485,-0.9238281,0.34472656,0.1875,-106.25,4.53125,-35.65625
689,1697633525,-0.68847656,0.171875,0.55566406,111.46875,-40.8125,-8.6875
690,1697633565,-0.6640625,0.42089844,0.7734375,31.6875,-57.28125,-23.03125
691,1697633605,-0.4189453,0.14941406,0.10449219,72.53125,-51.1875,17.9375
692,1697633645,-0.4716797,-0.19824219,-0.38671875,23.5625,30.71875,-9.46875
693,1697633685,-2.0,-0.5966797,-0.043945312,49.34375,64.21875,-9.84375
694,1697633725,-0.7050781,0.6152344,0.041992188,-37.40625,10.8125,-40.71875
695,1697633765,-0.9628906,-0.32910156,0.095703125,30.90625,18.75,27.6875
696,1697633805,-1.2060547,-0.4404297,0.07910156,-76.9375,58.125,-18.21875
697,1697633845,-0.9433594,-0.06738281,0.036132812,12.59375,31.15625,-17.40625
698,1697633885,-0.890625,0.20117188,0.14648438,102.5625,27.5,-9.78125
699,1697633925,-0.9892578,0.07324219,0.45507812,76.0,21.375,-0.5
700,1697633965,-0.81347656,0.18457031,0.828125,2.34375,6.1875,4.375
701,1697634005,-1.1269531,0.18652344,0.5361328,-134.03125,-61.9375,29.59375
702,1697634045,-1.2958984,0.11230469,-0.2421875,-12.6875,-95.625,20.0625
703,1697634085,-0.94433594,0.25683594,0.022460938,72.96875,-58.8125,17.3125
704,1697634125,-0.8955078,-0.08105469,0.34960938,-5.125,-4.6875,-26.09375
705,1697634165,-0.6347656,0.115234375,0.14355469,-3.09375,32.6875,-44.09375
706,1697634205,-0.8623047,0.09472656,0.34960938,54.21875,39.8125,-38.15625
707,1697634245,-0.88964844,0.44140625,1.2841797,122.625,-69.0,-6.375
708,1697634285,-0.52246094,-0.37890625,-0.90527344,-25.5625,39.03125,-20.65625
709,1697634325,-1.5380859,0.8466797,1.4023438,62.9375,92.4375,-46.34375
710,1697634365,-1.0732422,0.021484375,-0.10058594,-166.4375,20.90625,-48.25
711,1697634405,-1.2089844,0.111328125,-0.27246094,-31.40625,42.6875,-5.875
712,1697634445,-1.2412109,-0.09863281,0.11425781,61.28125,54.15625,-1.65625
713,1697634485,-0.9482422,-0.064453125,0.01953125,35.28125,39.8125,-0.03125
714,1697634525,-0.76660156,-0.04296875,0.31152344,41.65625,34.625,2.5
715,1697634565,-0.7060547,0.07421875,0.6064453,5.03125,19.375,1.75
716,1697634605,-0.9453125,0.19238281,0.7998047,-25.875,3.75,21.21875
717,1697634645,-1.6953125,-0.08984375,0.2763672,-79.5,-54.0,28.71875
718,1697634685,-1.2939453,0.45898438,-0.15136719,11.0625,-65.28125,1.03125
719,1697634725,-0.8857422,0.4169922,-0.21386719,87.3125,-74.1875,35.5
720,1697634765,-1.0537109,-0.18652344,0.43164062,88.6875,-38.3125,32.75
721,1697634805,-0.88183594,0.18261719,0.12011719,-37.46875,-36.34375,-6.71875
722,1697634845,-0.6064453,0.28222656,0.20117188,8.5,-21.53125,-14.46875
723,1697634885,-0.45507812,0.37597656,-0.15332031,20.9375,42.8125,-28.71875
724,1697634925,-0.8261719,0.3232422,0.37304688,31.8125,34.9375,19.4375
725,1697634965,-1.8457031,0.059570312,1.8349609,-27.8125,-173.3125,31.53125
726,1697635005,0.24316406,-0.08105469,-1.2949219,-105.40625,16.125,-53.71875
727,1697635045,-1.6064453,0.37695312,0.8984375,217.84375,102.3125,57.53125
728,1697635085,-1.2666016,-0.3310547,0.4453125,-177.65625,-17.0,-34.0
729,1697635125,-0.4873047,0.040039062,-0.22753906,-46.5,-9.3125,-15.71875
730,1697635165,-0.9736328,0.021484375,0.22460938,-52.65625,50.9375,-15.71875
731,1697635205,-1.3027344,-0.16699219,0.17382812,-8.53125,12.59375,19.34375
732,1697635245,-0.8564453,-0.13867188,0.16796875,52.5625,28.34375,-14.25
733,1697635285,-1.0048828,0.033203125,0.453125,38.28125,20.59375,-18.5625
734,1697635325,-0.890625,0.20898438,0.44433594,67.71875,12.71875,-4.0
735,1697635365,-0.86035156,0.05859375,0.6152344,86.8125,-10.40625,1.9375
736,1697635405,-0.88378906,0.4169922,0.95703125,22.0,-58.9375,19.40625
737,1697635445,-1.5507812,0.32226562,0.14453125,-41.375,-81.53125,33.75
738,1697635485,-1.109375,0.75,-0.12792969,-4.8125,-78.03125,26.46875
739,1697635525,-1.1621094,0.04296875,0.5986328,58.3125,-48.5,47.78125
740,1697635565,-0.7060547,-0.0068359375,0.28808594,-16.65625,-6.25,-3.1875
741,1697635605,-0.15917969,0.16699219,0.20507812,43.96875,16.4375,-5.9375
742,1697635645,-0.22070312,0.12988281,-0.22167969,7.34375,106.21875,-21.9375
743,1697635685,-1.0732422,-0.13378906,0.27148438,86.625,84.75,-28.75
744,1697635725,-1.6630859,-0.40722656,-0.040039062,-144.40625,112.6875,-84.625
745,1697635765,-0.37597656,0.5546875,0.28222656,-141.59375,13.03125,-45.65625
746,1697635805,-1.3505859,-0.1875,-0.44628906,31.875,2.90625,54.0625
747,1697635845,-1.4238281,0.19335938,0.5966797,188.0,49.8125,14.5625
748,1697635885,-0.69433594,0.25976562,0.60253906,-128.46875,8.09375,2.4375
749,1697635925,-0.6074219,-0.13085938,0.8496094,-46.1875,-41.1875,26.09375
750,1697635965,-0.9326172,0.17871094,0.27734375,13.5625,-106.125,41.0
751,1697636005,-1.6787109,0.16601562,-0.0126953125,83.03125,-83.59375,35.375
752,1697636045,-0.99121094,0.15722656,0.22753906,93.28125,-36.90625,11.625
753,1697636085,-0.6933594,0.29589844,0.28125,-22.625,10.09375,-22.96875
754,1697636125,-0.33496094,0.32128906,0.056640625,-58.75,48.3125,-19.5
755,1697636165,-0.26464844,0.13964844,-0.18554688,-19.46875,79.25,-16.0625
756,1697636205,-2.0,0.08496094,1.1210938,104.8125,-5.15625,32.875
757,1697636245,-1.5322266,-0.091796875,0.10839844,-215.3125,18.03125,-63.4375
758,1697636285,-0.82714844,-0.08203125,0.18164062,-30.9375,4.71875,-33.28125
759,1697636325,-1.0527344,0.47070312,-0.091796875,65.75,30.96875,-16.9375
