# Sensor type: Respeck
# Activity type: Ascending stairs
# Activity subtype: Normal
# Subject id: s1913770
# Notes: 
timestamp,accel_x,accel_y,accel_z,gyro_x,gyro_y,gyro_z
1695895042553,-0.01928711,-1.0059204,0.2838745,-4.703125,8.609375,-0.828125
1695895042593,-0.0014648438,-0.9763794,0.24871826,-5.09375,11.359375,-1.734375
1695895042633,0.0859375,-0.89923096,0.19525146,-0.796875,9.84375,-0.65625
1695895042673,0.07861328,-0.9248657,0.18841553,2.96875,5.046875,0.15625
1695895042713,-0.013427734,-1.1055298,0.19036865,1.53125,-0.109375,-1.21875
1695895042753,-0.060302734,-1.024231,0.05291748,1.25,2.21875,-4.546875
1695895042794,0.30151367,-1.1382446,0.074401855,15.15625,-0.453125,5.203125
1695895042833,-0.0053710938,-0.9924927,0.20672607,9.375,-2.09375,-0.796875
1695895042873,-0.07861328,-1.0532837,0.15789795,9.9375,-1.578125,0.25
1695895042913,-0.1328125,-0.97662354,0.10736084,1.421875,-3.921875,-3.21875
1695895042953,0.047607422,-0.90631104,0.090026855,-0.421875,-0.671875,-2.609375
1695895042993,-0.0146484375,-1.1541138,0.14056396,-9.46875,-2.875,0.65625
1695895043033,-0.07080078,-0.9085083,0.12860107,-0.140625,-0.25,4.625
1695895043093,-0.032714844,-1.0061646,0.11810303,0.625,-0.5,3.234375
1695895043113,0.01171875,-1.0215454,0.13446045,0.609375,-4.171875,3.640625
1695895043153,-0.07104492,-0.96539307,0.17816162,0.59375,-6.328125,3.09375
1695895043193,-0.04345703,-1.0161743,0.0914917,0.484375,-1.390625,0.71875
1695895043233,-0.04711914,-0.9920044,0.152771,2.953125,-2.5,1.15625
1695895043293,-0.07543945,-1.0161743,0.18035889,0.6875,1.5625,-0.1875
1695895043313,-0.006591797,-0.99224854,0.18353271,0.703125,2.09375,-1.25
1695895043353,-0.04663086,-0.9949341,0.12884521,1.40625,4.03125,-1.203125
1695895043394,-0.023925781,-0.9768677,0.15081787,1.3125,1.1875,-0.953125
1695895043433,-0.030761719,-1.0227661,0.1515503,0.03125,0.53125,-1.390625
1695895043475,0.0073242188,-0.9871216,0.12908936,-1.671875,1.625,-1.734375
1695895043513,-0.030029297,-0.99591064,0.13763428,1.390625,0.671875,-0.734375
1695895043553,-0.038085938,-0.9751587,0.14276123,0.4375,1.625,-1.015625
1695895043593,-0.111572266,-0.9182739,0.18304443,-0.453125,1.546875,-2.234375
1695895043633,-0.09643555,-1.0701294,0.05999756,-3.15625,8.375,-3.484375
1695895043673,-0.123291016,-1.0630493,0.15692139,-0.328125,4.390625,-1.96875
1695895043714,-0.064941406,-0.9612427,0.20697021,-3.328125,5.859375,-1.078125
1695895043753,-0.12011719,-1.0457153,0.23406982,-0.625,2.796875,-1.625
1695895043793,-0.12231445,-0.95928955,0.1618042,1.546875,6.859375,-1.453125
1695895043833,-0.09887695,-0.94732666,0.18011475,2.484375,5.4375,-1.53125
1695895043873,-0.1171875,-0.99298096,0.21575928,6.78125,1.359375,-1.40625
1695895043913,-0.096191406,-0.98028564,0.1774292,6.859375,2.90625,-0.4375
1695895043953,-0.10449219,-0.9763794,0.1876831,8.703125,-2.015625,-0.84375
1695895043993,-0.119384766,-0.96295166,0.19622803,10.46875,-0.09375,0.703125
1695895044033,-0.12426758,-0.9678345,0.21551514,8.953125,-1.890625,0.5
1695895044073,-0.15014648,-0.94903564,0.16497803,6.296875,2.65625,-0.09375
1695895044113,-0.16430664,-0.9751587,0.06854248,4.359375,1.65625,0.578125
1695895044153,-0.14379883,-1.0095825,0.1864624,4.140625,0.921875,0.40625
1695895044193,-0.1315918,-1.0801392,0.18084717,1.046875,0.78125,1.546875
1695895044233,-0.15429688,-1.1279907,0.15838623,1.90625,0.40625,4.421875
1695895044273,-0.19677734,-1.2971802,0.16229248,2.953125,-4.171875,6.109375
1695895044313,-0.16894531,-1.2730103,0.15106201,4.765625,-2.859375,9.515625
1695895044353,-0.14794922,-1.3067017,0.0692749,5.984375,-2.109375,9.046875
1695895044393,0.051513672,-1.3357544,-0.062316895,-1.65625,3.046875,3.921875
1695895044433,0.2631836,-0.9697876,-0.1362915,0.0,-0.734375,7.625
1695895044473,0.15917969,-1.0205688,6.713867E-4,-1.859375,-10.375,7.96875
1695895044513,0.11376953,-1.0437622,0.039733887,-1.28125,-10.578125,3.140625
1695895044575,0.06274414,-0.9902954,-0.012512207,-1.78125,-5.875,2.46875
1695895044593,0.072753906,-0.92071533,0.034606934,-1.078125,-8.03125,0.984375
1695895044633,0.018554688,-0.8779907,0.043395996,1.46875,-7.828125,0.703125
1695895044674,0.008300781,-0.7883911,0.047302246,4.4375,-4.609375,2.21875
1695895044713,-0.017578125,-0.75494385,0.093688965,5.140625,-3.6875,1.984375
1695895044753,-0.046142578,-0.8657837,0.121032715,3.28125,-2.5625,0.09375
1695895044793,-0.033447266,-0.9883423,0.1539917,5.046875,-1.234375,-2.234375
1695895044835,0.06298828,-1.0545044,0.043884277,4.59375,5.296875,-2.421875
1695895044873,0.16235352,-1.0794067,0.2008667,0.0,0.625,-4.265625
1695895044893,-0.024658203,-1.0142212,0.25335693,-9.09375,-10.203125,-7.4375
1695895044934,-0.036621094,-1.2383423,-0.11383057,-4.59375,-12.78125,-12.828125
1695895044974,-0.0029296875,-1.1306763,-0.1843872,-2.4375,0.4375,-5.84375
1695895045014,-0.09277344,-1.0969849,-0.09698486,3.71875,15.046875,-4.78125
1695895045053,-0.11376953,-1.0974731,-0.07305908,4.953125,16.359375,-4.25
1695895045094,-0.041503906,-1.017395,-0.031799316,0.703125,14.421875,-4.59375
1695895045133,-0.04345703,-0.92755127,0.010681152,3.5,6.796875,-2.703125
1695895045173,-0.057128906,-0.89068604,0.0289917,3.4375,5.84375,-2.203125
1695895045214,-0.08520508,-0.8411255,-0.008605957,4.6875,4.0,-0.90625
1695895045253,-0.092285156,-0.8008423,-0.012756348,5.75,6.828125,-0.9375
1695895045293,-0.1159668,-0.7932739,0.034118652,6.25,5.90625,-0.09375
1695895045333,-0.12890625,-0.87457275,0.010925293,8.328125,7.359375,0.3125
1695895045373,-0.1899414,-0.9470825,0.09564209,4.8125,4.421875,0.65625
1695895045413,-0.079589844,-1.034729,-0.038146973,4.78125,15.421875,2.578125
1695895045473,-0.11035156,-1.2051392,-0.07598877,8.09375,4.375,3.203125
1695895045495,-0.14160156,-1.2988892,0.074157715,6.765625,-3.609375,4.59375
1695895045533,-0.09399414,-1.1995239,-0.012268066,-5.65625,0.734375,8.78125
1695895045593,0.036865234,-1.1367798,-0.12774658,-3.0625,0.875,9.5
1695895045613,0.2199707,-1.0408325,-0.1482544,-3.046875,0.171875,13.921875
1695895045655,0.048095703,-1.2815552,-0.055480957,-6.25,-8.765625,11.8125
1695895045693,0.0690918,-1.0422974,-0.06890869,-2.90625,-3.59375,8.03125
1695895045733,0.1303711,-0.9326782,-0.06011963,-0.578125,-3.234375,8.625
1695895045773,0.072265625,-0.83795166,-0.028625488,-0.125,-6.3125,7.3125
1695895045813,0.059570312,-0.75738525,0.0016479492,-0.96875,-11.234375,7.03125
1695895045853,0.028076172,-0.7317505,0.08148193,-0.65625,-6.578125,5.0625
1695895045893,-0.005859375,-0.7493286,0.0028686523,0.25,-3.34375,4.359375
1695895045933,0.053710938,-0.8010864,0.062683105,3.921875,1.359375,4.59375
1695895045973,0.061279297,-0.95147705,0.093688965,4.328125,-2.140625,2.734375
1695895046033,0.14916992,-1.05719,0.09197998,1.671875,1.109375,-0.953125
1695895046058,0.17480469,-1.116272,0.12835693,-2.375,-0.140625,-4.8125
1695895046095,0.0715332,-1.1848755,0.14910889,-6.265625,-12.453125,-11.5
1695895046153,0.040771484,-1.3225708,-0.008605957,-7.296875,-13.171875,-16.453125
1695895046173,0.0075683594,-1.0532837,-0.14996338,-5.328125,-8.53125,-13.9375
1695895046213,-0.00390625,-1.0735474,-0.15826416,-3.734375,5.921875,-12.59375
1695895046256,-0.05517578,-1.133606,-0.1729126,-1.25,7.71875,-12.171875
1695895046293,-0.03930664,-1.0188599,0.005554199,-0.859375,11.375,-9.65625
1695895046333,-0.035888672,-0.9663696,0.012878418,-0.1875,10.4375,-7.40625
1695895046378,-0.088378906,-0.86187744,0.023376465,3.625,8.328125,-5.734375
1695895046413,-0.014892578,-0.7683716,0.07342529,4.34375,8.546875,-2.015625
1695895046455,-0.061035156,-0.7515259,0.07220459,7.21875,3.125,-0.34375
1695895046494,-0.064941406,-0.8076782,0.055114746,7.375,0.78125,-0.28125
1695895046534,-0.09057617,-0.9517212,0.13153076,6.84375,-3.984375,-0.578125
1695895046573,-0.20288086,-1.2009888,0.05999756,4.546875,-3.578125,-0.21875
1695895046613,-0.14086914,-1.3113403,0.035339355,1.65625,-3.015625,0.515625
1695895046653,-0.13476562,-1.0969849,-0.026184082,-1.28125,0.828125,4.234375
1695895046713,0.010253906,-0.99298096,-0.07354736,-3.421875,0.484375,5.671875
1695895046734,-0.025634766,-1.1448364,-0.29107666,-4.125,-9.34375,3.59375
1695895046773,0.21191406,-1.1365356,-0.18804932,-4.390625,5.015625,6.28125
1695895046813,0.09277344,-1.173645,0.018249512,-6.015625,-5.421875,8.40625
1695895046853,0.053222656,-1.0078735,-0.06524658,-1.421875,-11.8125,7.625
1695895046893,0.0012207031,-0.91656494,0.0138549805,-2.125,-12.9375,8.890625
1695895046933,-0.041259766,-0.80133057,0.015808105,1.90625,-8.375,9.703125
1695895046973,-0.0126953125,-0.7805786,0.06072998,1.734375,-4.90625,9.453125
1695895047013,-0.030029297,-0.7727661,0.09906006,2.046875,-3.75,6.734375
1695895047054,-0.020507812,-0.84869385,0.11151123,-0.421875,-1.453125,5.15625
1695895047093,0.037353516,-0.94073486,0.109313965,0.578125,-0.75,2.484375
1695895047133,0.08300781,-0.9837036,-0.029846191,4.09375,4.84375,0.34375
1695895047173,0.11230469,-1.02594,0.13397217,-2.6875,6.09375,-2.609375
1695895047233,0.011962891,-1.0269165,0.07122803,-10.703125,2.1875,-9.71875
1695895047253,-0.034179688,-1.1970825,0.04559326,-9.65625,-4.59375,-11.515625
1695895047293,0.09790039,-1.1055298,-0.27252197,-3.359375,12.4375,-8.9375
1695895047333,0.021972656,-1.1802368,-0.09210205,-5.4375,12.078125,-9.5625
1695895047373,-0.17553711,-1.1272583,-0.07501221,-1.125,17.09375,-10.828125
1695895047413,0.040771484,-1.0288696,-0.06719971,2.40625,16.671875,-6.25
1695895047454,-0.06713867,-0.97052,0.0289917,4.625,9.4375,-4.96875
1695895047493,-0.03491211,-0.88482666,-0.004211426,4.484375,9.296875,-3.3125
1695895047533,-0.049072266,-0.8115845,-0.08770752,5.6875,13.84375,-2.3125
1695895047574,-0.09423828,-0.77471924,-0.07525635,8.59375,3.0,0.390625
1695895047614,-0.047851562,-0.8057251,0.07220459,6.03125,4.359375,1.53125
1695895047653,-0.10473633,-0.85479736,0.039733887,4.59375,3.890625,1.828125
1695895047693,-0.13769531,-0.9834595,0.005554199,5.828125,2.59375,2.859375
1695895047733,-0.13208008,-1.194397,0.031677246,1.984375,4.28125,3.046875
1695895047773,-0.17114258,-1.25177,0.057556152,-5.046875,7.375,4.234375
1695895047813,-0.16333008,-1.2376099,0.030944824,-2.703125,-1.34375,5.0
1695895047875,-0.059814453,-1.1799927,-0.14190674,1.84375,3.6875,5.484375
1695895047913,0.20605469,-1.1106567,-0.14385986,-0.484375,5.53125,5.6875
1695895047933,0.1352539,-1.0535278,-0.0713501,-8.0,-4.3125,5.015625
1695895047973,0.15722656,-1.0879517,-0.13165283,-6.0,-8.1875,1.65625
1695895048094,0.051757812,-1.0637817,-0.1663208,-3.84375,-11.671875,1.453125
1695895048115,0.008544922,-0.9841919,0.07562256,-11.21875,-11.03125,-4.140625
1695895048133,0.03173828,-0.8479614,0.03363037,-7.109375,-9.40625,0.375
1695895048153,0.055419922,-0.7642212,0.121520996,0.0,-5.921875,2.375
1695895048173,-0.027832031,-0.75079346,0.047790527,3.328125,-6.0,4.359375
1695895048193,-0.025878906,-0.7214966,0.10321045,3.109375,0.75,4.09375
1695895048233,-0.032226562,-0.81573486,0.09490967,4.21875,1.9375,4.78125
1695895048274,-0.052490234,-0.9937134,0.18743896,1.78125,-0.84375,2.046875
1695895048314,0.013427734,-1.2005005,0.09954834,-1.203125,8.84375,-1.203125
1695895048354,0.056152344,-1.1699829,0.2711792,-2.125,8.203125,-3.671875
1695895048413,0.022216797,-1.0801392,0.09710693,-2.90625,7.515625,-7.0625
1695895048473,0.008300781,-1.0789185,-0.06719971,-0.96875,1.5625,-4.5
1695895048493,0.08691406,-1.013977,-0.31622314,3.921875,19.390625,-4.453125
1695895048513,0.03149414,-1.1411743,0.0848999,-1.328125,7.15625,-10.4375
1695895048553,-0.24511719,-1.2244263,-0.13409424,-2.625,10.671875,-8.609375
1695895048593,0.087890625,-1.0195923,0.0048217773,-1.046875,6.296875,-4.796875
1695895048633,-0.12036133,-0.9944458,0.03656006,0.8125,-0.234375,-4.234375
1695895048673,-0.07373047,-0.8670044,0.07659912,4.1875,1.375,-0.9375
1695895048713,-0.07104492,-0.8093872,0.012878418,6.703125,-0.9375,1.09375
1695895048753,-0.088134766,-0.8274536,0.09075928,5.875,-3.203125,0.140625
1695895048793,-0.08666992,-0.7944946,0.051940918,6.9375,-4.265625,1.390625
1695895048834,-0.07470703,-0.8123169,0.007507324,8.5,-6.515625,2.5625
1695895048873,-0.1027832,-0.85528564,0.046325684,6.421875,-5.4375,2.8125
1695895048913,-0.14428711,-0.94903564,0.11566162,4.859375,3.4375,2.34375
1695895048953,-0.1171875,-1.201477,0.045837402,0.859375,0.65625,5.71875
1695895048993,-0.19433594,-1.3450317,0.12542725,0.9375,-6.109375,8.8125
1695895049035,-0.19897461,-1.3970337,0.29437256,-12.828125,-14.578125,3.796875
1695895049093,-0.04638672,-1.1731567,-0.0010375977,-8.5625,0.78125,4.921875
1695895049113,0.10522461,-0.89312744,-0.085754395,-10.984375,5.4375,6.859375
1695895049153,0.068359375,-1.0132446,-0.15802002,-15.015625,0.765625,0.0
1695895049194,0.14379883,-1.0254517,-0.031311035,-16.28125,4.09375,-3.546875
1695895049234,0.14770508,-1.0298462,-0.022766113,-14.34375,-3.265625,-2.265625
1695895049273,0.091796875,-1.0237427,-0.0076293945,-14.109375,-15.34375,-1.953125
1695895049313,-0.0053710938,-0.927063,0.07928467,-16.890625,-20.34375,-1.875
1695895049353,0.017089844,-0.8062134,0.12640381,-13.984375,-9.546875,-0.984375
1695895049393,-0.02758789,-0.78375244,0.08074951,-10.0,-7.671875,-0.125
1695895049434,0.00390625,-0.73760986,0.13153076,-4.65625,-3.546875,-0.984375
1695895049473,-0.025146484,-0.7698364,0.21331787,-3.203125,-0.890625,-1.0625
1695895049513,-0.010009766,-0.85528564,0.20599365,-0.15625,-3.5,-0.390625
1695895049553,-0.006591797,-0.9434204,0.22161865,2.828125,0.9375,-2.546875
1695895049593,0.001953125,-0.9483032,0.16253662,5.03125,-3.3125,-0.453125
1695895049653,0.05053711,-0.9273071,0.1828003,-0.640625,4.171875,0.40625
1695895049693,-0.0043945312,-1.0396118,0.34295654,-4.484375,-6.875,-3.03125
1695895049753,-0.008300781,-1.0003052,0.25604248,-4.421875,-15.015625,-3.34375
1695895049773,-0.032714844,-1.1004028,0.30828857,-4.234375,-7.125,-5.734375
1695895049793,-0.07055664,-1.1358032,0.08465576,-3.140625,2.703125,-8.453125
1695895049834,-0.059570312,-1.038147,-0.03253174,-2.140625,11.578125,-5.734375
1695895049873,-0.019042969,-1.0791626,0.038269043,-0.265625,8.984375,-1.578125
1695895049913,2.4414062E-4,-1.1782837,0.113708496,-0.734375,10.140625,-3.375
1695895049953,-0.07299805,-0.97662354,0.19818115,0.734375,0.515625,0.25
1695895049993,-0.060546875,-0.8850708,0.021911621,3.78125,-2.484375,6.171875
1695895050034,-0.033691406,-0.9368286,0.07879639,3.8125,4.75,3.765625
1695895050073,-0.030761719,-0.94366455,0.007751465,3.890625,-0.75,2.84375
1695895050113,-0.028808594,-0.9356079,-0.028625488,2.109375,-6.34375,1.015625
1695895050153,0.005126953,-0.98443604,0.11590576,-2.125,-11.4375,0.671875
1695895050193,-0.05053711,-0.9590454,0.0758667,-4.671875,-18.71875,1.484375
1695895050233,7.324219E-4,-1.1008911,0.020690918,-3.59375,-19.484375,0.515625
1695895050273,-0.012451172,-1.072815,0.06512451,1.421875,-12.953125,3.1875
1695895050313,0.018066406,-0.98223877,0.13690186,0.390625,-17.53125,5.3125
1695895050353,-0.012939453,-0.9456177,0.074645996,-0.890625,-21.984375,7.296875
1695895050393,0.026367188,-1.0298462,0.10491943,-0.296875,-22.546875,5.0625
1695895050433,0.015380859,-1.024231,0.16229248,-1.546875,-22.328125,4.71875
1695895050474,0.008300781,-0.99786377,0.19647217,0.515625,-27.625,6.015625
1695895050513,-0.07299805,-0.9920044,0.19354248,5.875,-28.3125,5.0
1695895050553,-0.115722656,-0.95147705,0.23358154,7.0625,-23.609375,5.984375
1695895050595,-0.18237305,-0.96173096,0.2164917,9.4375,-6.578125,2.921875
1695895050635,-0.3996582,-1.0066528,0.28289795,17.171875,8.34375,-1.234375
1695895050673,-0.4494629,-1.0198364,0.09881592,19.65625,46.59375,-3.65625
1695895050713,-0.46191406,-1.0755005,0.06707764,14.59375,81.640625,-0.46875
1695895050753,-0.38427734,-1.1087036,-0.06964111,4.3125,125.125,-3.328125
1695895050793,-0.3642578,-0.9480591,-0.17095947,-0.34375,138.15625,-3.53125
1695895050874,-0.3635254,-0.9924927,-0.27960205,-11.65625,153.84375,-7.046875
1695895050893,-0.21655273,-1.0183716,-0.23760986,-14.359375,160.48438,-5.796875
1695895050913,-0.18066406,-0.9656372,-0.33966064,-8.640625,151.0625,-4.671875
1695895050973,-0.14526367,-0.8147583,-0.3274536,-5.171875,140.25,-4.109375
1695895050993,0.115234375,-0.89923096,-0.5808716,8.46875,121.78125,3.40625
1695895051034,0.1743164,-1.6516724,0.020935059,17.34375,84.953125,-16.8125
1695895051073,0.4572754,-0.9146118,0.058044434,-2.953125,79.8125,2.671875
1695895051113,0.19091797,-0.89971924,0.058532715,5.171875,62.109375,-1.90625
1695895051154,0.04321289,-0.67510986,0.04144287,3.890625,49.859375,0.296875
1695895051193,0.052734375,-0.9907837,-0.081848145,2.3125,46.84375,-4.78125
1695895051233,0.111328125,-1.3389282,0.16400146,-5.359375,28.8125,-8.234375
1695895051273,0.068115234,-1.00177,0.02557373,-1.421875,16.390625,-4.84375
1695895051293,0.06225586,-1.0003052,0.035339355,-2.375,1.3125,-0.5625
1695895051333,-0.005126953,-0.96343994,0.08050537,0.984375,0.875,-0.765625
1695895051373,-0.018554688,-0.9265747,0.055847168,2.234375,1.21875,0.796875
1695895051413,0.03173828,-0.9793091,0.09100342,0.796875,-2.4375,-0.296875
1695895051473,-0.025146484,-0.94781494,0.061706543,1.140625,-4.3125,-2.125
1695895051513,-0.09301758,-0.96881104,0.09100342,-1.390625,-0.484375,-5.015625
1695895051575,-0.11621094,-1.1167603,0.12786865,1.546875,-4.3125,-1.96875
1695895051594,-0.11376953,-1.0198364,0.25213623,-7.875,16.84375,-0.078125
1695895051615,-0.14575195,-1.0481567,0.12176514,-0.9375,2.921875,1.9375
1695895051653,-0.099609375,-1.0510864,0.21868896,-2.796875,12.375,-3.625
1695895051693,-0.0847168,-0.9487915,0.16204834,-0.765625,4.90625,0.0625
1695895051733,-0.13110352,-0.9458618,0.18719482,-1.859375,5.609375,-2.671875
1695895051774,-0.099609375,-1.0029907,0.19818115,0.53125,0.828125,-2.984375
1695895051814,-0.10522461,-0.9685669,0.15667725,-0.234375,1.390625,-3.609375
1695895051854,-0.1274414,-0.97198486,0.19696045,2.359375,-4.90625,-2.953125
1695895051893,-0.13378906,-0.97491455,0.13665771,1.59375,-3.765625,-3.390625
1695895051933,-0.13989258,-0.92926025,0.07904053,6.09375,-4.828125,-1.859375
1695895051973,-0.13500977,-0.958313,0.1918335,5.78125,-5.203125,-1.203125
1695895052014,-0.1616211,-0.98565674,0.23309326,0.046875,-0.046875,-2.28125
1695895052075,-0.17358398,-1.0073853,0.21331787,1.984375,-11.96875,-2.40625
1695895052094,-0.18115234,-1.0576782,0.2526245,-2.390625,-7.75,-0.78125
1695895052154,-0.17919922,-1.0901489,0.22088623,-0.171875,-3.328125,2.015625
1695895052173,-0.22924805,-1.2598267,0.24578857,1.328125,-1.953125,5.609375
1695895052214,-0.1887207,-1.4446411,0.26727295,5.90625,-4.625,8.375
1695895052253,-0.19213867,-1.4400024,0.09173584,10.171875,-1.421875,10.40625
1695895052293,-0.013916016,-1.2681274,0.01776123,4.359375,9.578125,14.953125
1695895052333,0.10473633,-0.82818604,-0.1987915,5.34375,6.0,16.171875
1695895052373,0.12695312,-0.99835205,-0.09503174,-2.859375,4.296875,9.75
1695895052414,0.11010742,-1.0081177,-0.039611816,-7.640625,11.265625,6.0625
1695895052454,0.11303711,-0.9651489,0.06317139,-6.859375,8.171875,6.125
1695895052493,0.095947266,-0.89630127,0.0065307617,-3.265625,1.984375,6.828125
1695895052533,0.07080078,-0.87091064,0.009460449,0.859375,0.53125,7.203125
1695895052573,0.061523438,-0.8032837,0.13641357,-1.328125,1.9375,4.84375
1695895052621,0.037597656,-0.8093872,0.03656006,0.71875,0.453125,4.40625
1695895052673,0.033691406,-0.81988525,0.07952881,1.921875,-0.640625,2.9375
1695895052696,0.044677734,-0.83380127,0.15252686,0.71875,3.0625,0.90625
1695895052733,0.08105469,-0.87164307,0.08538818,1.359375,5.265625,1.859375
1695895052773,0.099121094,-0.87823486,0.03314209,3.59375,1.96875,0.546875
1695895052813,0.107177734,-0.94122314,0.22698975,-6.34375,6.359375,-2.125
1695895052853,0.05126953,-0.9956665,0.14422607,-0.8125,-0.5625,-3.921875
1695895052893,0.07836914,-1.107727,0.15179443,-6.875,3.078125,-9.390625
1695895052934,0.030273438,-1.1763306,0.11590576,0.625,-8.625,-6.34375
1695895052974,0.1459961,-1.395813,-0.03326416,1.578125,-8.203125,-8.390625
1695895053013,0.0053710938,-1.425354,0.09197998,-3.953125,-7.8125,-13.25
1695895053053,-0.07006836,-1.0723267,-0.11016846,4.1875,-4.65625,-5.90625
1695895053093,0.006591797,-0.91973877,-0.019836426,2.21875,-0.890625,-1.390625
1695895053136,-0.096191406,-1.0059204,9.1552734E-4,3.34375,-4.578125,-2.8125
1695895053173,-0.045410156,-0.9898071,-0.01373291,2.375,0.421875,-2.0625
1695895053213,-0.05444336,-0.9282837,0.0524292,3.28125,-1.171875,-1.765625
1695895053273,-0.09667969,-0.881897,0.11566162,1.890625,1.671875,0.515625
1695895053293,-0.060302734,-0.8242798,0.05267334,3.21875,7.09375,3.015625
1695895053338,-0.083496094,-0.79473877,-0.06036377,4.4375,8.8125,3.15625
1695895053373,-0.072021484,-0.81695557,0.16375732,4.453125,8.171875,1.1875
1695895053419,-0.122802734,-0.8892212,0.046081543,5.546875,4.484375,2.609375
1695895053453,-0.08862305,-0.9077759,0.08123779,2.65625,7.953125,2.21875
1695895053493,-0.12451172,-1.0044556,0.055603027,2.109375,8.34375,1.609375
1695895053533,-0.114746094,-1.0488892,0.019470215,1.140625,10.40625,2.78125
1695895053573,-0.15136719,-1.1316528,0.17962646,-1.71875,6.984375,2.359375
1695895053613,-0.16113281,-1.1941528,0.050720215,1.578125,0.09375,4.140625
1695895053653,-0.09399414,-1.2949829,-0.019348145,5.390625,5.09375,3.96875
1695895053693,-0.017089844,-1.4258423,0.0018920898,8.140625,8.09375,6.453125
1695895053733,0.19360352,-1.288147,-0.06500244,3.703125,3.515625,3.109375
1695895053776,0.21313477,-0.8862915,-0.23297119,3.40625,7.921875,5.40625
1695895053814,0.25634766,-1.0161743,-0.023498535,-0.578125,-4.546875,6.453125
1695895053853,0.13085938,-1.0457153,0.07342529,-5.953125,-3.203125,0.515625
1695895053894,0.09838867,-0.91607666,-0.02130127,0.421875,-12.078125,4.421875
1695895053977,0.09106445,-0.84503174,0.032165527,1.109375,-13.921875,5.453125
1695895053993,0.045654297,-0.8135376,0.042175293,1.125,-10.40625,4.390625
1695895054033,0.05859375,-0.77545166,0.045837402,3.171875,-6.46875,2.0625
1695895054053,0.04272461,-0.75250244,0.030700684,5.65625,-3.671875,1.359375
1695895054093,0.05810547,-0.81427,0.066345215,4.15625,-3.484375,0.1875
1695895054133,0.0546875,-0.8533325,0.12225342,3.921875,-2.859375,-1.59375
1695895054173,0.041992188,-0.91656494,0.07635498,4.84375,-2.6875,-1.984375
1695895054214,0.10083008,-1.0164185,-0.0076293945,0.875,7.71875,-3.0
1695895054253,0.060058594,-1.0784302,0.23553467,1.078125,-2.90625,-3.859375
1695895054293,0.08666992,-1.178772,0.15203857,-6.453125,3.5,-5.703125
1695895054333,-0.008300781,-1.2783813,0.101989746,-1.046875,-10.265625,-8.140625
1695895054373,0.06567383,-1.3062134,-0.014465332,-5.25,-2.6875,-9.390625
1695895054413,0.009277344,-1.1599731,-0.0037231445,-4.765625,-5.640625,-7.71875
1695895054454,-0.0053710938,-0.99224854,-0.22271729,-0.875,0.65625,-7.234375
1695895054493,0.016357422,-1.0115356,-0.17828369,-5.515625,15.109375,-6.953125
1695895054533,-0.087890625,-0.93341064,6.713867E-4,-3.171875,5.609375,-3.828125
1695895054553,-0.02709961,-0.8960571,-0.04107666,-3.84375,6.03125,-1.34375
1695895054613,-0.030029297,-0.897522,-0.06842041,-2.78125,3.40625,-2.140625
1695895054637,-0.059326172,-0.8567505,-0.034973145,0.390625,2.4375,-2.734375
1695895054673,-0.08325195,-0.8587036,0.016784668,-0.125,8.671875,-2.140625
1695895054713,-0.061279297,-0.93218994,0.046813965,-0.34375,4.140625,0.375
1695895054753,-0.034423828,-0.91290283,0.043395996,-3.046875,6.65625,0.15625
1695895054813,-0.060791016,-0.93536377,0.043395996,-0.34375,0.75,-0.015625
1695895054833,-0.0703125,-0.89312744,0.08416748,-2.0,3.953125,1.21875
1695895054873,-0.08691406,-0.9319458,0.07098389,0.25,-1.015625,1.75
1695895054913,-0.076660156,-0.92437744,0.031433105,2.296875,-3.109375,2.234375
1695895054953,-0.122802734,-0.9505005,0.022155762,0.765625,-3.453125,1.703125
1695895054993,-0.08276367,-0.99542236,0.047546387,-2.671875,-3.0,2.265625
1695895055033,-0.10961914,-1.0027466,0.014831543,-5.140625,-4.453125,1.921875
1695895055073,-0.07836914,-1.050354,-0.02178955,-5.21875,-8.65625,1.765625
1695895055113,-0.0041503906,-1.1963501,0.09466553,-7.421875,0.21875,-0.328125
1695895055173,0.053466797,-1.0386353,-0.09210205,-8.671875,-4.53125,5.859375
1695895055193,0.2163086,-0.9570923,0.10272217,-12.71875,2.0,5.375
1695895055233,0.029052734,-1.1035767,0.10809326,-10.296875,-15.15625,2.71875
1695895055273,0.047851562,-1.0283813,-0.042053223,-7.046875,-2.703125,1.828125
1695895055313,0.07885742,-0.97491455,0.11151123,-5.5625,3.203125,3.5
1695895055353,0.049560547,-0.9505005,0.1486206,-0.078125,-3.75,4.40625
1695895055393,0.1237793,-0.909729,0.09124756,-2.796875,3.34375,3.671875
1695895055433,0.110839844,-0.9380493,0.09442139,-2.0,8.046875,1.390625
1695895055473,0.09667969,-0.9619751,0.14178467,-1.453125,7.703125,-1.359375
1695895055513,0.06933594,-0.9714966,0.10443115,-0.28125,4.296875,-1.515625
1695895055553,0.0625,-0.9307251,0.2230835,-2.234375,12.40625,-1.21875
1695895055593,0.011474609,-1.1790161,-0.024719238,0.921875,6.140625,-4.484375
1695895055633,0.05102539,-1.0025024,0.028259277,-1.28125,10.375,-2.875
1695895055673,0.05053711,-0.96295166,0.16253662,-1.25,-2.015625,-2.1875
1695895055716,0.0073242188,-1.0010376,0.08392334,-4.578125,-4.390625,-1.59375
1695895055753,-0.0024414062,-0.98638916,0.047790527,-1.3125,-5.546875,-1.453125
1695895055794,-0.013427734,-0.99053955,0.09173584,0.3125,-3.796875,-0.59375
1695895055833,0.0234375,-0.9956665,0.09466553,2.15625,-7.71875,0.671875
1695895055874,0.01953125,-0.97979736,0.1251831,1.609375,-8.921875,1.609375
1695895055913,0.00390625,-0.98565674,0.051208496,3.4375,-10.609375,1.984375
1695895055955,0.028564453,-0.9837036,0.11517334,5.015625,-16.609375,3.28125
1695895055994,0.007080078,-0.9873657,0.24310303,-0.46875,-3.703125,0.9375
1695895056033,-0.07324219,-1.0166626,0.15985107,4.90625,-11.890625,0.953125
1695895056093,-0.1538086,-0.99005127,0.17791748,9.296875,-5.203125,-1.6875
1695895056113,-0.24902344,-1.0081177,0.20819092,13.78125,13.296875,-5.6875
1695895056153,-0.3322754,-0.9451294,0.18475342,16.203125,37.859375,-6.671875
1695895056193,-0.5119629,-0.97857666,0.16497803,16.875,71.171875,-11.125
1695895056233,-0.5793457,-1.0344849,-0.0335083,15.359375,110.703125,-9.25
1695895056273,-0.5234375,-0.99420166,-0.22442627,11.359375,149.64062,-11.75
1695895056313,-0.39697266,-0.9536743,-0.41485596,9.375,167.5625,-7.828125
1695895056353,-0.2944336,-1.0303345,-0.39508057,-4.265625,170.35938,-12.5
1695895056413,-0.1586914,-0.95025635,-0.42266846,8.46875,138.92188,-5.796875
1695895056433,0.0068359375,-0.9380493,-0.25128174,-0.796875,127.453125,-1.234375
1695895056473,-0.025878906,-0.90582275,-0.3760376,12.546875,93.46875,5.15625
1695895056513,0.31640625,-1.258606,-0.19049072,18.046875,76.84375,11.09375
1695895056553,-0.05810547,-1.1755981,0.2826538,23.171875,31.890625,1.84375
1695895056593,0.107177734,-1.0310669,-0.2366333,-4.390625,55.578125,9.265625
1695895056633,0.24584961,-1.0337524,0.09466553,12.296875,17.65625,6.8125
1695895056673,0.103271484,-0.8755493,0.07684326,-1.140625,24.09375,7.484375
1695895056713,0.10961914,-0.97906494,-0.008361816,1.59375,5.578125,2.609375
1695895056753,0.10107422,-0.9692993,0.057800293,-2.453125,8.40625,1.625
1695895056793,0.08227539,-1.0025024,0.1449585,-2.59375,1.34375,1.265625
1695895056833,0.022460938,-1.0369263,0.13031006,-6.53125,-4.640625,2.578125
1695895056874,-0.0087890625,-1.0120239,0.1564331,-17.125,10.734375,-4.328125
1695895056914,-0.13647461,-1.0886841,0.07244873,-18.125,0.5,-6.1875
1695895056973,-0.14038086,-0.8682251,0.11859131,-8.359375,-2.1875,-6.828125
1695895057033,-0.14526367,-1.0352173,-0.0056762695,-9.5,5.65625,-3.90625
1695895057053,-0.07373047,-1.069397,0.18988037,-5.34375,6.34375,-5.546875
1695895057073,-0.104003906,-1.0308228,0.1762085,-5.203125,-1.78125,-3.046875
1695895057113,-0.1459961,-0.9883423,0.19573975,-3.171875,0.390625,-4.140625
1695895057153,-0.12768555,-0.9595337,0.18597412,-0.125,-6.296875,-0.90625
1695895057193,-0.15405273,-0.97052,0.17596436,0.25,-5.46875,-2.578125
1695895057233,-0.15527344,-0.97052,0.19036865,0.546875,-4.375,-2.375
1695895057273,-0.17163086,-0.9458618,0.12005615,2.140625,-7.671875,-1.46875
1695895057313,-0.14648438,-0.9661255,0.20599365,2.375,-4.09375,0.453125
1695895057373,-0.19677734,-0.9854126,0.20819092,3.1875,-5.109375,1.265625
1695895057393,-0.18945312,-0.95758057,0.19818115,5.4375,-5.5,2.265625
1695895057433,-0.17749023,-0.95098877,0.20672607,3.90625,-3.046875,1.96875
1695895057473,-0.20019531,-0.9644165,0.16571045,4.40625,-0.296875,1.96875
1695895057513,-0.17895508,-0.99053955,0.22528076,5.625,-1.171875,2.265625
1695895057553,-0.20117188,-1.0930786,0.23651123,3.703125,-5.109375,2.265625
1695895057633,-0.18139648,-1.1795044,0.25579834,0.34375,-7.6875,2.8125
1695895057653,-0.1171875,-1.3067017,0.124694824,0.703125,0.984375,7.34375
1695895057673,-0.04638672,-1.4668579,0.199646,8.796875,-3.453125,13.84375
1695895057713,-0.1484375,-1.3792114,0.054138184,10.421875,-21.03125,14.828125
1695895057733,0.1015625,-1.0320435,-0.21514893,4.78125,3.484375,14.28125
1695895057773,0.20361328,-0.97784424,-0.014221191,-0.828125,3.015625,11.875
1695895057814,0.07446289,-1.0110474,-0.045715332,-3.734375,-0.875,7.265625
1695895057853,0.12109375,-1.0181274,0.0099487305,-4.875,-3.265625,5.078125
1695895057893,0.029541016,-0.91729736,0.06903076,-0.890625,-6.421875,8.328125
1695895057933,0.07397461,-0.82696533,0.0026245117,1.75,-2.203125,10.375
1695895057973,0.04296875,-0.7761841,0.081970215,2.65625,0.15625,8.75
1695895058013,0.040039062,-0.7854614,0.058044434,3.140625,3.640625,7.9375
1695895058053,0.045898438,-0.83673096,0.046081543,5.40625,5.375,4.78125
1695895058093,0.07373047,-0.8423462,0.07196045,6.0625,5.375,4.484375
1695895058133,0.05859375,-0.815979,0.04925537,6.640625,4.21875,4.96875
1695895058173,0.09667969,-0.9048462,0.047302246,0.765625,16.203125,1.375
1695895058213,0.15283203,-0.97491455,0.18328857,-6.828125,15.078125,-2.46875
1695895058253,0.11743164,-1.0359497,0.04168701,-3.515625,-0.28125,-4.890625
1695895058293,0.09423828,-1.079895,0.2675171,-11.75,-0.34375,-11.0625
1695895058333,0.057861328,-1.1956177,0.11834717,-4.765625,-4.25,-9.265625
1695895058373,0.095947266,-1.3076782,0.042419434,-3.609375,-2.4375,-11.9375
1695895058413,0.03930664,-1.3574829,-0.045715332,3.921875,-10.75,-11.109375
1695895058453,0.013427734,-1.1714478,0.07879639,-1.140625,0.09375,-11.75
1695895058493,-0.09082031,-0.8921509,-0.05987549,2.796875,1.515625,-4.625
1695895058539,0.0087890625,-1.0239868,-0.070373535,0.734375,2.171875,-3.15625
1695895058574,-0.07006836,-1.0278931,0.059020996,-0.125,1.078125,-3.625
1695895058613,-0.04711914,-0.9480591,0.058532715,0.6875,8.296875,-3.1875
1695895058654,-0.078125,-0.88409424,0.1149292,4.5625,-2.4375,0.15625
1695895058714,-0.07446289,-0.8335571,0.016784668,5.84375,0.34375,1.265625
1695895058733,-0.09790039,-0.8406372,0.08392334,6.65625,0.546875,1.109375
1695895058794,-0.08911133,-0.7883911,0.054138184,1.921875,4.296875,1.34375
1695895058814,-0.11669922,-0.8220825,0.06488037,4.234375,1.90625,1.015625
1695895058854,-0.12524414,-0.8599243,0.06561279,3.71875,4.578125,1.5
1695895058893,-0.09716797,-0.9590454,0.041931152,5.703125,4.859375,1.5625
1695895058933,-0.07446289,-1.050354,0.034851074,5.28125,9.328125,2.1875
1695895058974,-0.11767578,-1.1448364,0.028015137,8.984375,0.703125,5.203125
1695895059013,-0.16796875,-1.3338013,0.078063965,5.984375,-7.34375,10.140625
1695895059054,-0.1027832,-1.34552,-0.0256958,7.21875,13.96875,10.640625
1695895059093,0.01977539,-1.4075317,-0.11236572,12.234375,5.9375,17.578125
1695895059133,0.171875,-1.0567017,-0.09552002,4.09375,-6.96875,11.859375
1695895059174,0.18701172,-0.8521118,-0.17266846,-4.046875,-5.109375,10.671875
1695895059213,0.22070312,-1.1021118,-0.093566895,-4.078125,-6.296875,6.296875
1695895059253,0.1328125,-1.1104126,-0.006652832,-6.15625,-5.703125,3.921875
1695895059313,0.087890625,-0.95758057,-0.0012817383,-4.890625,-9.03125,5.3125
1695895059354,0.06542969,-0.8543091,0.010925293,-4.078125,-3.375,6.140625
1695895059373,0.06738281,-0.78375244,0.06561279,-2.6875,-1.359375,7.203125
1695895059413,0.052001953,-0.7085571,0.01361084,-0.34375,1.375,7.203125
1695895059453,0.05834961,-0.6526489,0.015808105,-1.0,0.75,7.90625
1695895059493,0.0703125,-0.72198486,0.11029053,-1.09375,3.28125,5.375
1695895059533,0.10644531,-0.83599854,0.0770874,1.046875,4.59375,3.3125
1695895059573,0.14379883,-0.97247314,0.0138549805,5.25,-0.0625,1.09375
1695895059613,0.20336914,-1.125061,0.18231201,-4.578125,6.28125,-3.0625
1695895059658,0.17285156,-1.2324829,0.16033936,-6.1875,-0.546875,-9.15625
1695895059693,0.1352539,-1.223938,0.077819824,-1.203125,-9.71875,-12.765625
1695895059733,0.13696289,-1.3237915,-0.008850098,-0.484375,-10.71875,-16.96875
1695895059773,0.024414062,-1.2925415,-0.035461426,-1.578125,-11.921875,-19.40625
1695895059813,0.0769043,-0.9192505,-0.17022705,-0.015625,-2.8125,-12.59375
1695895059857,0.07055664,-1.0371704,-0.18902588,1.09375,6.90625,-12.890625
1695895059893,-0.03955078,-1.0449829,-0.094055176,2.203125,2.515625,-12.53125
1695895059933,-0.020751953,-0.9463501,0.039245605,2.65625,7.421875,-9.59375
1695895060013,-0.016357422,-0.8765259,-0.0064086914,2.125,4.09375,-5.484375
1695895060073,-0.0715332,-0.78082275,-0.0056762695,4.9375,6.53125,-2.453125
1695895060094,-0.05419922,-0.77716064,0.030700684,4.375,5.53125,-1.390625
1695895060134,-0.103027344,-0.7559204,0.04046631,3.75,5.09375,-0.765625
1695895060153,-0.06665039,-0.8130493,0.04876709,7.1875,3.078125,0.109375
1695895060173,-0.07299805,-0.93170166,0.05682373,3.578125,1.015625,2.109375
1695895060213,-0.15136719,-1.1282349,0.008239746,3.875,2.28125,2.90625
1695895060253,-0.12207031,-1.3032837,-0.042053223,-1.515625,8.28125,7.6875
1695895060293,-0.10913086,-1.2922974,0.06781006,-3.21875,11.53125,8.1875
1695895060333,-0.099609375,-1.2940063,-0.08453369,3.0,8.140625,10.03125
1695895060373,0.15014648,-1.2710571,-0.1194458,-3.234375,10.296875,10.46875
1695895060413,0.24072266,-1.0093384,-0.2612915,3.109375,4.0,11.6875
1695895060454,0.23950195,-1.0234985,-0.18267822,-0.890625,-0.734375,9.578125
1695895060494,0.13232422,-1.0933228,-0.02154541,1.34375,-16.4375,6.46875
1695895060533,0.03100586,-0.9290161,0.020202637,-5.546875,-7.640625,4.1875
1695895060593,0.14990234,-0.82281494,-0.030334473,0.640625,-10.15625,8.984375
1695895060613,0.09448242,-0.7192993,0.035827637,1.0,-11.859375,9.875
1695895060655,0.10498047,-0.767395,0.030212402,4.828125,-9.953125,7.96875
1695895060693,0.09326172,-0.77911377,0.09100342,-0.703125,-4.703125,7.046875
1695895060733,0.068847656,-0.78204346,0.0060424805,3.328125,-4.828125,4.171875
1695895060773,0.1171875,-0.8587036,0.015075684,4.421875,-3.296875,2.296875
1695895060813,0.1652832,-0.98028564,0.08685303,1.21875,0.46875,-1.046875
1695895060853,0.15917969,-1.0488892,0.14910889,-8.375,2.625,-6.921875
1695895060893,0.14575195,-1.0881958,0.18743896,-9.203125,-1.484375,-12.375
1695895060933,0.11767578,-1.3814087,-0.04083252,0.4375,-13.078125,-15.03125
1695895060953,0.083984375,-1.3899536,-0.03326416,-2.859375,-4.03125,-15.84375
1695895060994,0.016113281,-1.0715942,-0.23980713,3.59375,-1.0,-14.234375
1695895061033,0.028808594,-1.0283813,-0.21612549,0.53125,11.90625,-10.96875
1695895061073,-0.04711914,-1.0591431,-0.023010254,0.921875,10.84375,-10.953125
1695895061113,-0.037597656,-0.9468384,-0.05230713,2.75,5.140625,-5.453125
1695895061213,-0.07324219,-0.8562622,-0.04498291,5.0,2.984375,-5.6875
1695895061233,-0.07885742,-0.7600708,-0.1831665,10.203125,-0.734375,-3.796875
1695895061253,-0.04711914,-0.73150635,0.08929443,3.109375,7.578125,-3.609375
1695895061293,-0.080078125,-0.7571411,-0.0256958,6.5,5.921875,-0.375
1695895061313,-0.092285156,-0.84820557,-0.059387207,7.265625,8.828125,0.515625
1695895061354,-0.09790039,-0.9483032,0.034851074,6.21875,4.390625,1.40625
1695895061393,-0.10864258,-1.0256958,0.014587402,5.671875,7.8125,2.140625
1695895061433,-0.10864258,-1.0945435,-0.019104004,5.96875,5.265625,4.015625
1695895061473,-0.12524414,-1.187561,-0.08843994,4.5625,4.578125,7.484375
1695895061513,-0.13720703,-1.2371216,0.028259277,-1.84375,3.25,6.984375
1695895061553,-0.15649414,-1.1602173,0.004333496,-1.328125,-2.734375,8.359375
1695895061593,0.09399414,-1.3562622,-0.23883057,-0.671875,5.890625,7.8125
1695895061633,0.15332031,-1.1802368,-0.21661377,-6.984375,4.84375,4.9375
1695895061673,0.24853516,-0.97613525,-0.22711182,-2.421875,-2.546875,6.203125
1695895061713,0.24438477,-1.0825806,-0.15386963,-3.984375,-5.171875,5.3125
1695895061753,0.056640625,-1.0332642,-0.034973145,-4.953125,-10.265625,3.46875
1695895061793,0.107421875,-0.93292236,-0.057434082,-4.265625,-14.078125,4.953125
1695895061854,0.08276367,-0.81036377,0.016296387,-2.578125,-9.484375,6.5625
1695895061873,0.04321289,-0.7227173,0.03656006,1.234375,-9.3125,5.890625
1695895061913,0.03515625,-0.69122314,-0.0051879883,4.546875,-3.609375,5.125
1695895061953,0.020996094,-0.72320557,0.07147217,4.3125,-0.96875,4.078125
1695895061993,0.032958984,-0.8106079,0.07171631,3.734375,-1.09375,2.5625
1695895062033,0.08959961,-0.9961548,0.022644043,5.21875,1.734375,-0.4375
1695895062073,0.1862793,-1.1543579,0.06488037,-2.234375,4.8125,-4.578125
1695895062113,0.15625,-1.1990356,0.17327881,-6.75,-2.015625,-9.71875
1695895062153,0.06640625,-1.2896118,-0.019592285,-5.453125,-14.625,-12.703125
1695895062193,0.13476562,-1.286438,-0.30255127,0.125,0.734375,-14.109375
1695895062233,0.0075683594,-1.0335083,-0.20758057,1.859375,-0.078125,-10.359375
1695895062273,-0.004638672,-1.0567017,-0.16241455,-2.25,9.875,-9.625
1695895062313,-0.0014648438,-0.99957275,-0.16485596,1.390625,9.34375,-5.59375
1695895062353,0.026123047,-0.9216919,-0.042053223,0.421875,10.390625,-4.6875
1695895062393,-0.044921875,-0.8882446,-0.022766113,4.65625,1.265625,-2.28125
1695895062433,-0.045166016,-0.803772,-0.03765869,3.53125,2.671875,0.5625
1695895062493,-0.04272461,-0.788147,-0.0115356445,2.921875,5.09375,1.640625
1695895062513,-0.039794922,-0.788147,-0.06866455,4.796875,1.5625,1.96875
1695895062553,-0.022705078,-0.835022,0.043151855,0.875,3.484375,0.359375
1695895062593,-0.068603516,-0.8460083,-0.03717041,0.296875,0.078125,2.625
1695895062634,-0.08227539,-0.925354,-0.043762207,0.15625,3.75,2.96875
1695895062673,-0.051757812,-1.006897,-0.069885254,3.515625,6.78125,4.453125
1695895062713,-0.099365234,-1.1550903,-0.025939941,-1.953125,10.390625,5.84375
1695895062753,-0.15991211,-1.3164673,0.16741943,-6.296875,7.359375,3.828125
1695895062793,-0.17016602,-1.2786255,0.046081543,1.75,-7.953125,6.421875
1695895062833,0.018798828,-1.2258911,-0.07891846,1.21875,13.21875,9.109375
1695895062873,0.12792969,-1.1052856,-0.05206299,-4.34375,7.109375,7.84375
1695895062913,0.19165039,-0.9421997,-0.22857666,-5.671875,7.84375,3.359375
1695895062973,0.17675781,-0.95025635,-0.20196533,-6.65625,7.09375,-0.171875
1695895062993,0.1586914,-1.0247192,-0.08770752,-8.59375,3.671875,-1.9375
1695895063034,0.14013672,-0.98931885,0.02947998,-11.140625,0.1875,-0.421875
1695895063093,0.0859375,-0.9248657,0.044128418,-10.609375,-4.140625,1.53125
1695895063113,0.047851562,-0.85113525,0.050964355,-10.5,-3.78125,1.0
1695895063154,0.02734375,-0.7888794,0.08465576,-9.640625,-1.3125,0.421875
1695895063193,0.0053710938,-0.8369751,0.13812256,-7.484375,-0.640625,-1.875
1695895063233,0.0017089844,-0.8513794,0.09197998,-5.78125,0.734375,-3.5
1695895063273,0.015136719,-0.91119385,0.117126465,-3.796875,2.234375,-4.609375
1695895063313,0.02368164,-0.9126587,0.19720459,-5.171875,3.15625,-5.6875
1695895063357,0.02368164,-0.88116455,0.17938232,-3.28125,3.125,-5.03125
1695895063394,0.0068359375,-0.9038696,0.14544678,-3.09375,2.59375,-4.09375
1695895063433,0.036621094,-0.8765259,0.13128662,-1.375,6.359375,-4.734375
1695895063473,0.009521484,-1.0806274,0.2267456,-10.875,10.28125,-6.828125
1695895063513,0.0146484375,-1.0059204,0.2374878,-10.359375,5.421875,-5.1875
1695895063553,0.05078125,-1.2651978,0.12420654,-7.359375,-1.484375,-5.703125
1695895063595,0.0793457,-1.2129517,0.2514038,-11.671875,2.734375,-8.015625
1695895063633,-0.037597656,-1.067688,0.03729248,5.09375,-17.078125,-3.28125
1695895063673,-0.0075683594,-0.96221924,-0.10675049,-0.640625,4.234375,-0.625
1695895063713,-0.064941406,-0.9175415,-0.06695557,1.09375,1.21875,1.9375
1695895063773,-0.017089844,-1.1096802,-0.024475098,1.390625,0.625,-1.03125
1695895063793,-0.020019531,-0.9944458,0.03729248,2.140625,2.1875,-2.796875
1695895063833,-0.03149414,-0.9314575,-0.06378174,9.1875,-9.125,0.34375
1695895063873,-0.021972656,-0.9439087,0.05706787,2.609375,4.890625,0.875
1695895063913,-0.03173828,-0.9573364,-0.020812988,6.65625,-0.328125,1.03125
1695895063953,-0.040283203,-0.94195557,-0.08013916,5.21875,-2.03125,1.8125
1695895063993,-0.012939453,-0.99957275,-0.0335083,-0.515625,-4.65625,0.609375
1695895064033,-0.0234375,-0.99713135,0.02923584,-0.71875,-14.109375,0.796875
1695895064113,-0.03149414,-1.0227661,-0.007873535,2.375,-16.0625,-0.0625
1695895064134,-0.0056152344,-1.0046997,0.010925293,2.8125,-15.6875,2.9375
1695895064177,-0.011474609,-1.020813,0.08294678,0.65625,-14.6875,2.140625
1695895064193,-0.022949219,-1.0032349,0.07220459,3.96875,-16.1875,1.875
1695895064213,-0.009277344,-0.95391846,0.013366699,5.109375,-11.125,4.546875
1695895064253,-0.028564453,-1.0061646,0.14031982,5.625,-11.28125,5.203125
1695895064293,-0.24267578,-0.960022,0.13934326,-3.046875,-1.90625,-0.421875
1695895064333,-0.16772461,-1.0635376,0.22357178,2.703125,0.9375,-1.171875
1695895064373,-0.33129883,-0.93634033,0.1227417,3.0625,41.6875,-10.09375
1695895064413,-0.50634766,-0.9710083,0.1161499,13.4375,67.734375,-7.4375
1695895064453,-0.47265625,-1.024231,0.061462402,8.84375,110.265625,-6.125
1695895064493,-0.34570312,-1.0769653,-0.18560791,7.21875,135.67188,-4.171875
1695895064533,-0.30419922,-1.1243286,-0.22784424,4.421875,145.29688,-2.65625
1695895064573,-0.27441406,-0.95513916,-0.2390747,1.875,143.48438,2.03125
1695895064614,-0.17333984,-0.8779907,-0.24761963,-3.75,142.57812,10.46875
1695895064660,-0.104003906,-0.9053345,-0.16827393,-2.375,123.859375,11.171875
1695895064693,0.006591797,-0.881897,-0.25543213,-4.515625,93.3125,12.625
1695895064733,0.48510742,-1.4072876,0.04144287,-5.546875,106.9375,1.9375
1695895064793,-0.02734375,-0.94781494,-0.45343018,19.875,53.484375,11.234375
1695895064816,0.2758789,-1.1172485,0.08319092,-5.359375,59.5,7.765625
1695895064853,0.18066406,-1.0134888,0.0524292,-4.890625,45.734375,5.6875
1695895064913,0.12060547,-0.95025635,0.04046631,-3.03125,30.21875,2.75
1695895064933,0.13427734,-0.93536377,0.001159668,-3.40625,25.828125,-0.640625
1695895064973,0.15454102,-0.9522095,0.054382324,-7.03125,21.875,-2.015625
1695895065013,0.10253906,-1.085022,0.05706787,-8.0625,12.921875,-4.78125
1695895065054,0.047607422,-0.9973755,-0.035461426,-2.4375,4.171875,-4.421875
1695895065093,0.05419922,-0.9414673,-0.0017700195,-0.609375,3.703125,-1.59375
1695895065133,0.06713867,-0.99786377,0.055603027,-3.203125,-2.421875,-1.78125
1695895065173,0.07397461,-0.9939575,0.07537842,-1.03125,0.15625,-2.875
1695895065214,0.056152344,-0.9729614,0.053649902,-1.296875,-2.328125,-1.90625
1695895065253,0.05029297,-0.9072876,0.05218506,0.28125,-1.453125,-1.421875
1695895065293,-0.055664062,-0.9378052,0.13665771,-7.453125,-1.109375,-3.5625
1695895065333,-0.092285156,-1.1116333,0.13909912,-0.359375,-12.421875,-3.328125
1695895065373,-0.045166016,-1.041565,0.17230225,-0.21875,0.78125,-2.0625
1695895065414,-0.076660156,-1.048645,0.18743896,2.453125,-2.84375,-0.609375
1695895065453,-0.09277344,-1.0288696,0.29559326,3.515625,-8.0,-1.359375
1695895065493,-0.11669922,-0.9326782,0.18670654,3.390625,-7.546875,0.828125
1695895065533,-0.13793945,-0.9829712,0.15301514,7.53125,-12.484375,0.3125
1695895065573,-0.08227539,-0.96832275,0.23602295,2.5,-2.203125,-1.40625
1695895065613,-0.10424805,-0.99884033,0.15032959,2.546875,1.390625,-3.078125
1695895065653,-0.08691406,-0.95147705,0.1930542,2.515625,-2.5,-1.625
1695895065693,-0.11401367,-1.0066528,0.17523193,2.796875,-1.28125,0.0
1695895065734,-0.103271484,-0.99005127,0.14031982,2.53125,0.75,0.875
1695895065773,-0.07885742,-0.98809814,0.120788574,0.984375,6.734375,2.0625
1695895065813,-0.11035156,-1.0247192,0.23773193,4.953125,-4.71875,2.421875
1695895065853,-0.1352539,-1.0730591,0.16668701,5.125,-7.515625,3.671875
1695895065893,-0.1315918,-1.1934204,0.093933105,2.578125,-2.296875,4.15625
1695895065933,-0.08105469,-1.2793579,0.12225342,6.265625,1.65625,5.75
1695895065993,-0.072021484,-1.3245239,0.03729248,11.625,2.421875,10.3125
1695895066014,-0.026855469,-1.3218384,0.20037842,3.015625,4.203125,8.609375
1695895066094,0.036621094,-1.0671997,-0.19683838,6.28125,5.125,5.359375
1695895066113,0.23632812,-0.88848877,-0.17144775,4.75,10.3125,9.296875
1695895066133,0.17553711,-1.0039673,-0.058410645,-0.609375,6.1875,5.0
1695895066173,0.13696289,-1.0234985,-0.0647583,-4.171875,-0.703125,0.5
1695895066214,0.1159668,-0.9673462,0.04071045,-5.671875,-2.375,1.6875
1695895066253,0.045410156,-0.88848877,-0.03277588,0.4375,-9.5,3.3125
1695895066293,0.079833984,-0.8779907,0.0026245117,-0.921875,-2.953125,3.09375
1695895066333,0.068603516,-0.8430786,0.057556152,2.46875,-4.90625,2.71875
1695895066373,0.07861328,-0.8550415,0.03778076,-0.859375,-1.453125,1.984375
1695895066413,0.08276367,-0.84259033,0.078308105,1.375,-4.640625,2.640625
1695895066453,0.045166016,-0.8225708,0.09588623,1.28125,-2.421875,2.390625
1695895066493,0.05493164,-0.8933716,0.11126709,-0.390625,3.171875,1.28125
1695895066534,0.107421875,-0.9673462,0.0048217773,0.6875,3.0,0.640625
1695895066593,0.14453125,-1.0237427,0.15228271,-4.453125,4.5,-0.5
1695895066614,0.06762695,-1.0596313,0.24383545,-3.71875,-2.140625,-2.25
1695895066653,0.0703125,-1.1140747,0.1005249,-1.109375,-3.96875,-2.109375
1695895066713,0.053466797,-1.2317505,-0.037902832,3.328125,-5.875,-5.765625
1695895066733,0.107421875,-1.3267212,0.053894043,1.125,-6.15625,-6.046875
1695895066773,0.031982422,-1.1929321,-0.028381348,0.328125,-0.375,-8.546875
1695895066814,-0.028564453,-0.98394775,-0.13531494,6.3125,1.078125,-2.8125
1695895066853,-0.0036621094,-1.0220337,-0.15264893,2.609375,0.953125,-2.046875
1695895066893,0.026123047,-1.0530396,0.034851074,-4.90625,9.9375,-5.40625
1695895066933,-0.01953125,-0.9529419,-0.05328369,0.84375,4.296875,-2.5625
1695895066973,-0.056884766,-0.87457275,-0.016418457,-1.1875,1.078125,-0.578125
1695895067013,-0.061035156,-0.8718872,-0.066467285,0.75,11.734375,0.03125
1695895067057,-0.05859375,-0.84210205,0.09100342,1.40625,10.015625,-0.5
1695895067093,-0.068847656,-0.8477173,0.018493652,1.59375,6.921875,0.953125
1695895067133,-0.030029297,-0.87286377,-0.011047363,4.484375,7.90625,0.203125
1695895067173,-0.016113281,-0.9126587,0.07098389,3.375,8.90625,0.09375
1695895067213,-0.07495117,-0.9915161,0.011657715,8.546875,3.625,2.0
1695895067253,-0.048828125,-1.0706177,0.027526855,4.328125,2.96875,2.515625
1695895067356,-0.11669922,-1.1629028,-0.037902832,7.6875,-2.140625,4.546875
1695895067373,-0.10473633,-1.1795044,0.15301514,-9.640625,9.40625,6.328125
1695895067394,-0.08105469,-1.100647,0.05316162,-1.3125,5.15625,7.6875
1695895067413,0.064453125,-1.2698364,-0.10870361,1.28125,3.0,7.90625
1695895067434,0.22802734,-1.117981,-0.18951416,-4.515625,6.625,6.921875
1695895067473,0.22631836,-0.95977783,-0.15679932,-1.5,5.515625,7.390625
1695895067513,0.24316406,-1.0388794,-0.12896729,-2.515625,-0.328125,5.953125
1695895067553,0.14013672,-1.0667114,0.00970459,-3.484375,-4.5,2.421875
1695895067615,0.15209961,-0.94244385,-0.015197754,-1.953125,-9.765625,2.359375
1695895067634,0.12426758,-0.86676025,0.002380371,-0.46875,-8.765625,4.015625
1695895067673,0.12597656,-0.8152466,-0.004211426,1.390625,-7.453125,4.046875
1695895067713,0.103027344,-0.8323364,0.02923584,4.390625,-10.25,2.140625
1695895067753,0.1081543,-0.7920532,0.05657959,4.234375,-12.078125,0.96875
1695895067793,0.103515625,-0.7883911,0.06976318,3.171875,-2.515625,1.59375
1695895067853,0.07470703,-0.8491821,0.08123779,3.21875,-5.78125,0.75
1695895067873,0.10498047,-0.9043579,0.0680542,4.609375,-4.984375,-0.578125
1695895067913,0.1315918,-1.003479,0.09466553,2.03125,-2.609375,-1.8125
1695895067953,0.10986328,-1.0635376,0.10028076,1.359375,-4.609375,-2.625
1695895067994,0.13671875,-1.1170044,0.14837646,-0.828125,-2.765625,-5.421875
1695895068036,0.07543945,-1.1751099,0.12762451,0.34375,-12.34375,-6.96875
1695895068073,0.075927734,-1.2783813,-0.057678223,-0.609375,-9.515625,-11.359375
1695895068113,0.06762695,-1.2341919,-0.06939697,-0.03125,-6.859375,-10.234375
1695895068153,0.07373047,-0.9902954,-0.16265869,4.25,-8.359375,-7.125
1695895068193,0.10131836,-0.94781494,-0.17755127,-2.609375,1.09375,-4.859375
1695895068233,-0.044921875,-1.0132446,-0.13092041,-7.953125,2.125,-9.25
1695895068273,0.0029296875,-0.9937134,-0.07623291,-5.984375,3.4375,-3.765625
1695895068313,-0.037841797,-0.9295044,0.022399902,-4.953125,-0.328125,-6.28125
1695895068355,-0.07421875,-0.9026489,0.0211792,-3.515625,0.203125,-4.453125
1695895068395,-0.038330078,-0.8652954,-0.03765869,-5.890625,6.890625,-3.25
1695895068434,-0.045654297,-0.86724854,0.06512451,-6.390625,9.46875,-3.34375
1695895068473,-0.06689453,-0.8706665,0.03289795,-3.484375,6.390625,-1.921875
1695895068513,-0.055419922,-0.8916626,0.04046631,-4.984375,9.984375,-1.65625
1695895068553,-0.052001953,-0.95147705,0.062927246,-2.828125,9.1875,-1.53125
1695895068594,-0.06665039,-0.93634033,0.109802246,-3.015625,7.578125,0.65625
1695895068634,-0.06298828,-0.9421997,0.12664795,-4.09375,5.453125,1.984375
1695895068673,-0.08496094,-0.9216919,-0.009338379,-3.140625,7.484375,2.015625
1695895068713,-0.06933594,-0.9546509,-0.019836426,-3.640625,5.53125,5.4375
1695895068753,-0.06274414,-1.0498657,0.13543701,-6.28125,0.8125,1.984375
1695895068793,-0.11450195,-0.98101807,0.031433105,-7.328125,-6.578125,6.671875
1695895068833,0.12158203,-1.2630005,-3.0517578E-4,-12.859375,4.21875,-0.0625
1695895068893,-0.015136719,-1.1607056,0.08441162,-5.234375,-2.890625,2.484375
1695895068913,0.14404297,-0.95928955,-0.04425049,-8.734375,2.921875,6.328125
1695895068953,0.19018555,-0.9985962,0.11883545,-10.421875,-2.703125,3.0
1695895068993,0.13891602,-0.99835205,0.078552246,-7.671875,-3.796875,1.109375
1695895069073,0.09741211,-1.0083618,-0.0015258789,-0.546875,-4.78125,-1.578125
1695895069114,0.08959961,-0.9102173,0.081726074,-2.734375,-2.28125,1.234375
1695895069116,0.103027344,-0.9524536,0.19403076,-5.375,4.1875,0.265625
1695895069153,0.12207031,-0.95440674,0.09539795,-3.75,-0.671875,0.0625
1695895069194,0.13134766,-0.9475708,0.14031982,-4.109375,4.359375,-0.203125
1695895069234,0.1237793,-0.9468384,0.15008545,-4.921875,4.921875,-0.8125
1695895069273,0.088134766,-0.97125244,0.18621826,-6.578125,5.9375,-1.890625
1695895069313,0.04711914,-0.98565674,0.1671753,-2.90625,3.5625,-2.140625
1695895069357,0.083496094,-1.0059204,0.14349365,-1.859375,4.25,-2.171875
1695895069395,0.018798828,-1.0628052,0.16571045,-2.5625,2.671875,-3.65625
1695895069433,0.021728516,-0.95562744,0.09100342,-0.1875,1.890625,-2.984375
1695895069473,0.032226562,-0.96881104,0.06341553,1.453125,4.25,-2.28125
1695895069513,0.037597656,-0.99420166,0.08709717,0.296875,0.234375,-2.625
1695895069553,0.040771484,-1.0230103,0.18890381,-0.609375,2.03125,-3.078125
1695895069599,0.034179688,-0.9800415,0.14788818,-2.46875,1.890625,-2.015625
1695895069633,0.016113281,-0.98321533,0.1239624,-1.734375,2.046875,-0.640625
1695895069673,0.022705078,-0.9841919,0.17327881,-2.1875,0.28125,-0.21875
1695895069713,0.019042969,-1.0134888,0.17694092,-2.21875,-0.828125,-0.109375
1695895069753,0.0053710938,-0.99957275,0.168396,-0.859375,-3.0625,0.03125
1695895069793,0.00390625,-1.0042114,0.15716553,-0.21875,-3.0625,0.125
1695895069833,0.0034179688,-1.0015259,0.17108154,-0.328125,-2.375,0.03125
1695895069873,-0.0053710938,-0.99713135,0.18450928,0.234375,-2.109375,0.203125
1695895069913,-0.0012207031,-0.98809814,0.14178467,1.125,-0.984375,0.140625
1695895069953,-0.009765625,-0.9907837,0.137146,1.359375,-4.375,0.03125
1695895069993,-0.0063476562,-0.99591064,0.20794678,1.40625,-1.453125,-0.703125
1695895070033,0.0041503906,-0.9824829,0.18890381,-1.625,0.109375,-0.078125
1695895070073,-0.0146484375,-0.9841919,0.16619873,-0.734375,0.53125,0.28125
1695895070115,0.011230469,-0.9944458,0.20819092,-1.171875,-0.15625,-0.21875
1695895070173,-0.0026855469,-1.0032349,0.17547607,-1.21875,-1.375,-0.015625
1695895070193,-4.8828125E-4,-0.9981079,0.20452881,-0.96875,-1.1875,-0.234375
1695895070273,-0.025390625,-0.9805298,0.17327881,-0.3125,-1.125,0.0625
1695895070293,-0.041503906,-0.9927368,0.24871826,-1.4375,1.84375,-0.78125
1695895070313,-0.19091797,-1.0283813,0.39959717,4.5625,1.90625,-4.9375
1695895070373,-0.46972656,-0.958313,0.18792725,18.5625,14.0,-7.21875
1695895070393,-0.38330078,-0.91729736,0.18426514,14.609375,68.078125,-3.0625
1695895070433,-0.35717773,-1.123352,0.18206787,6.3125,94.25,-6.21875
1695895070553,-0.3088379,-0.9417114,-0.12701416,3.15625,125.203125,-8.265625
1695895070573,-0.3083496,-0.9805298,-0.17095947,9.734375,139.23438,-7.546875
1695895070593,-0.21801758,-0.95928955,-0.1375122,-4.0,146.75,-4.234375
1695895070613,-0.11352539,-0.9644165,-0.058166504,-5.265625,135.51562,-9.484375
1695895070633,-0.06567383,-1.0628052,-0.14337158,1.296875,118.453125,-9.421875
1695895070653,-0.012939453,-0.9116821,-0.12335205,-2.609375,98.484375,-3.359375
1695895070693,0.115478516,-0.7930298,-0.18658447,5.515625,64.40625,5.6875
1695895070733,0.3022461,-1.4099731,0.5075073,-37.203125,87.546875,-18.5
1695895070773,0.061279297,-1.06427,-0.27056885,18.84375,36.40625,11.03125
1695895070813,0.36083984,-1.0271606,0.14300537,10.0625,33.015625,0.515625
1695895070854,0.16992188,-0.895813,0.17694092,-9.109375,36.625,9.234375
1695895070893,0.14208984,-0.9043579,0.1383667,3.90625,12.21875,2.59375
1695895070973,0.076416016,-0.9248657,0.06585693,1.359375,13.46875,1.359375
1695895070993,0.13793945,-0.9829712,0.09075928,2.203125,7.109375,-0.265625
1695895071013,0.12084961,-0.99346924,0.20111084,-4.59375,4.484375,-1.53125
1695895071053,0.057373047,-0.9180298,0.09954834,-3.484375,-4.171875,-4.65625
1695895071093,-0.061279297,-1.017395,0.04827881,-8.265625,-4.234375,-4.828125
1695895071133,-0.030517578,-1.2149048,0.07684326,-12.1875,12.015625,-7.3125
1695895071174,-0.07836914,-0.9627075,0.23040771,3.5,2.9375,-6.703125
1695895071213,-0.06738281,-1.0130005,0.011413574,1.8125,7.578125,-0.671875
1695895071253,-0.036132812,-1.1045532,0.097595215,6.359375,-0.546875,-5.796875
1695895071293,-0.09057617,-0.9282837,0.15350342,-1.1875,13.484375,-3.875
1695895071333,-0.088378906,-0.9690552,0.11932373,9.546875,-2.34375,-2.578125
1695895071373,-0.07397461,-0.98809814,0.1359253,5.84375,2.515625,-1.0625
1695895071413,-0.083496094,-0.96588135,0.09979248,8.78125,-2.9375,-1.171875
1695895071453,-0.057128906,-1.015686,0.13348389,8.390625,-0.484375,0.0
1695895071493,-0.14746094,-1.0881958,0.10247803,12.375,-7.609375,1.265625
1695895071533,-0.0847168,-1.1516724,0.055603027,9.6875,-4.765625,4.453125
1695895071613,-0.10644531,-1.1963501,0.14471436,5.109375,-7.484375,7.71875
1695895071633,-0.13574219,-1.2139282,0.113708496,7.1875,-12.984375,9.453125
1695895071653,-2.4414062E-4,-1.3452759,-0.10211182,6.8125,-6.796875,13.71875
1695895071693,0.17211914,-1.180481,-0.20855713,0.375,-0.125,9.40625
1695895071733,0.16577148,-0.9702759,-0.1182251,0.5,-1.734375,9.71875
1695895071773,0.19262695,-1.0361938,-0.050354004,-4.875,3.0625,5.6875
1695895071813,0.10449219,-1.0281372,-0.06915283,-2.59375,-1.40625,3.796875
1695895071853,0.103027344,-0.96759033,0.028015137,-2.8125,-6.75,3.46875
1695895071893,0.068115234,-0.8550415,0.0848999,-3.71875,-6.015625,3.8125
1695895071933,0.052734375,-0.7505493,0.04827881,-0.1875,-6.34375,4.859375
1695895071973,0.03100586,-0.7371216,0.04119873,0.84375,-5.21875,4.421875
1695895072016,0.0546875,-0.81451416,0.11663818,-0.265625,-1.25,2.59375
1695895072053,0.07006836,-0.8533325,0.13153076,1.09375,-4.828125,1.265625
1695895072093,0.06640625,-0.8760376,0.07244873,3.609375,-0.359375,0.78125
1695895072153,0.10253906,-0.93096924,0.03387451,3.875,2.28125,0.46875
1695895072175,0.119140625,-0.9883423,0.16448975,-0.953125,0.734375,-2.03125
1695895072213,0.12109375,-1.0508423,0.1437378,-3.046875,0.4375,-4.234375
1695895072254,0.114990234,-1.1206665,0.10760498,-1.796875,-4.84375,-6.859375
1695895072293,0.072021484,-1.3294067,0.11053467,1.875,-15.8125,-10.28125
1695895072333,0.1237793,-1.3877563,0.04827881,-3.3125,-7.15625,-12.796875
1695895072373,0.036376953,-1.2485962,-0.17144775,8.9375,-4.71875,-10.875
1695895072413,-0.036376953,-0.93927,-0.12994385,6.6875,3.984375,-6.109375
1695895072453,-0.022949219,-0.9932251,-0.09918213,3.515625,5.90625,-4.671875
1695895072494,-0.028320312,-1.0186157,-0.034240723,0.46875,6.90625,-6.65625
1695895072533,0.005126953,-0.88531494,-0.0178833,7.109375,5.265625,-3.8125
1695895072573,-0.037353516,-0.83721924,-0.02520752,9.59375,5.984375,-1.28125
1695895072613,-0.07836914,-0.78985596,0.015075684,9.359375,6.609375,1.390625
1695895072673,-0.076416016,-0.8413696,0.016784668,8.3125,4.703125,3.78125
1695895072694,-0.09082031,-0.84991455,-0.027893066,4.6875,10.484375,3.640625
1695895072733,-0.05834961,-0.9619751,0.046813965,6.21875,5.4375,3.484375
1695895072773,-0.068847656,-1.0027466,-0.007873535,3.09375,8.359375,5.234375
1695895072813,-0.08886719,-1.0745239,-0.012268066,2.84375,4.28125,6.3125
1695895072860,-0.103759766,-1.1028442,-0.09210205,-3.15625,12.6875,8.046875
1695895072893,-0.09423828,-1.0747681,0.018249512,-3.9375,10.3125,9.34375
1695895072933,-0.057861328,-1.1641235,-3.0517578E-4,-5.078125,7.0625,10.0
1695895072973,0.1340332,-1.2622681,-0.11065674,-2.859375,5.765625,5.34375
1695895073013,0.24072266,-1.1577759,-0.34796143,1.3125,16.25,4.734375
1695895073053,0.38427734,-1.0999146,-0.15093994,-9.4375,7.4375,6.46875
1695895073093,0.16308594,-1.0899048,-0.036193848,-2.984375,-11.78125,0.34375
1695895073133,0.14331055,-1.0108032,-0.08258057,-6.515625,-6.65625,3.0625
1695895073173,0.12695312,-0.9038696,0.016540527,-0.3125,-15.8125,3.796875
1695895073213,0.0715332,-0.8394165,0.0211792,-1.125,-8.828125,3.71875
1695895073273,0.09838867,-0.75372314,0.038513184,3.4375,-12.21875,4.921875
1695895073293,0.068847656,-0.73443604,0.048034668,2.6875,-6.21875,5.3125
1695895073333,0.045166016,-0.71099854,0.05609131,3.28125,-6.390625,6.375
1695895073373,0.06958008,-0.753479,0.14007568,0.96875,-5.84375,5.890625
1695895073413,0.118896484,-0.86724854,0.10272217,2.09375,-2.078125,3.0
1695895073453,0.15673828,-1.0681763,0.03753662,-1.640625,5.703125,0.796875
1695895073493,0.19921875,-1.1885376,0.15106201,-5.328125,0.84375,-3.953125
1695895073533,0.19018555,-1.2595825,0.17718506,-4.09375,-6.0625,-8.453125
1695895073573,0.12451172,-1.3093872,-0.03668213,1.484375,-19.890625,-10.9375
1695895073613,0.1105957,-1.3220825,-0.023498535,-5.78125,-12.734375,-14.859375
1695895073654,0.009277344,-1.0935669,-0.09234619,-2.015625,-6.84375,-15.484375
1695895073693,0.012451172,-0.91192627,-0.24835205,2.109375,3.65625,-7.484375
1695895073733,-0.029052734,-1.0147095,-0.04034424,-1.09375,17.828125,-8.296875
1695895073773,-0.055419922,-0.98443604,-0.078430176,4.3125,15.625,-5.796875
1695895073794,0.01586914,-0.86383057,0.0036010742,5.125,13.171875,-3.0625
1695895073836,-0.03540039,-0.800354,0.08782959,0.4375,18.03125,-3.625
1695895073893,-0.095214844,-0.80352783,-0.11187744,3.1875,22.234375,-2.359375
1695895073914,-0.07910156,-0.786438,0.04510498,5.546875,16.359375,-0.890625
1695895073973,-0.037841797,-0.8491821,-0.046691895,7.71875,16.703125,-0.328125
1695895074054,-0.020263672,-0.9981079,0.058532715,8.609375,13.015625,1.328125
1695895074073,-0.052001953,-1.076477,-0.058654785,6.953125,2.484375,1.359375
1695895074094,-0.07543945,-1.2393188,-0.08868408,-2.5625,3.9375,4.5
1695895074113,-0.08862305,-1.2168579,0.011657715,-2.890625,-5.8125,5.796875
1695895074154,-0.048095703,-1.145813,-0.12554932,-10.25,-3.234375,4.734375
1695895074196,0.19238281,-1.1929321,-0.18609619,-11.578125,-11.34375,1.53125
1695895074233,0.25683594,-1.0230103,-0.25054932,-12.125,-0.765625,2.84375
1695895074276,0.29785156,-1.1065063,-0.053527832,-6.984375,-10.703125,5.4375
1695895074314,0.12475586,-1.0576782,0.0028686523,-9.921875,-11.296875,3.875
1695895074353,0.10522461,-0.9849243,-7.9345703E-4,-6.15625,-23.453125,4.140625
1695895074393,0.07373047,-0.8845825,-0.0134887695,-5.609375,-17.75,6.59375
1695895074433,0.09082031,-0.79351807,0.03265381,-2.53125,-13.421875,5.71875
1695895074473,0.068359375,-0.7258911,0.047790527,-7.5625,4.09375,8.46875
1695895074533,0.025634766,-0.7058716,0.2616577,-10.109375,4.265625,9.890625
1695895074554,0.014892578,-0.7437134,0.14202881,6.890625,-6.546875,6.90625
1695895074593,0.10180664,-0.9180298,0.15692139,-0.703125,2.453125,6.15625
1695895074633,0.11328125,-1.0227661,0.113220215,5.21875,-1.484375,1.53125
1695895074673,0.19555664,-1.0872192,0.20281982,-2.296875,4.390625,0.3125
1695895074713,0.17993164,-1.0859985,0.30584717,-4.53125,-5.015625,-8.90625
1695895074753,0.0769043,-1.2805786,0.066589355,6.953125,-23.609375,-11.796875
1695895074794,0.17089844,-1.2678833,-0.03302002,-0.75,-6.578125,-14.171875
1695895074833,-0.033203125,-0.9690552,-0.14996338,9.75,-7.953125,-10.84375
1695895074873,0.030273438,-1.0830688,-0.028869629,-0.21875,10.625,-9.421875
1695895074913,-0.020751953,-1.079895,-0.066223145,3.515625,7.171875,-7.78125
1695895074953,-0.004638672,-0.97198486,0.04168701,4.5,7.515625,-7.140625
1695895074993,-0.026611328,-0.89019775,0.02508545,8.890625,4.984375,-2.890625
1695895075033,-0.028076172,-0.81915283,0.018737793,5.59375,11.78125,-2.296875
1695895075073,-0.06567383,-0.80963135,0.049743652,6.40625,9.0625,-1.8125
1695895075133,-0.053710938,-0.7866821,0.0680542,7.140625,9.359375,1.46875
1695895075153,-0.060546875,-0.8411255,0.02947998,5.296875,12.859375,1.984375
1695895075233,-0.05834961,-0.9590454,-0.07183838,7.734375,15.375,2.46875
1695895075254,-0.0068359375,-1.0842896,0.02142334,4.96875,13.109375,5.453125
1695895075294,-0.047851562,-1.2644653,-0.0791626,2.921875,12.421875,9.375
1695895075313,-0.09643555,-1.2202759,0.015075684,5.90625,3.96875,9.78125
1695895075355,-0.049072266,-1.1863403,-0.12652588,0.96875,4.078125,7.96875
1695895075393,0.25952148,-1.3052368,-0.109191895,-1.4375,-0.171875,7.984375
1695895075433,0.265625,-0.975647,-0.2630005,-1.90625,0.125,6.796875
1695895075473,0.26416016,-1.0078735,-0.06011963,-2.109375,-5.9375,4.96875
1695895075513,0.22314453,-1.0715942,-0.08258057,-7.765625,-7.734375,1.28125
1695895075553,0.13085938,-0.9439087,0.035339355,-7.921875,-12.5,3.953125
1695895075595,0.091308594,-0.89727783,0.10028076,-4.5625,-7.609375,4.546875
1695895075633,0.08642578,-0.7962036,-0.0056762695,0.09375,-3.65625,6.015625
1695895075693,0.092285156,-0.80181885,0.061706543,-0.9375,-5.8125,5.640625
1695895075733,0.09301758,-0.74591064,0.049743652,0.203125,-1.53125,5.125
1695895075753,0.08544922,-0.75128174,0.077819824,2.5625,-1.53125,5.953125
1695895075793,0.09423828,-0.8098755,0.09075928,2.21875,-2.875,5.15625
1695895075833,0.14819336,-0.97662354,0.08099365,3.6875,-5.234375,2.3125
1695895075873,0.19946289,-1.1748657,0.09051514,1.828125,-3.296875,-3.9375
1695895075913,0.25756836,-1.18927,0.15789795,-1.546875,-0.296875,-7.96875
1695895075953,0.12890625,-1.1953735,0.0848999,-2.203125,-12.296875,-13.484375
1695895075993,0.16577148,-1.364563,-0.050109863,-0.984375,-16.453125,-16.671875
1695895076033,0.032714844,-1.0894165,-0.06402588,0.09375,-6.4375,-15.953125
1695895076077,0.008056641,-0.9458618,-0.27960205,5.90625,4.953125,-10.515625
1695895076113,0.029052734,-1.1328735,-0.15386963,3.265625,12.3125,-12.875
1695895076153,0.0234375,-1.0120239,-0.05621338,3.6875,14.5,-7.90625
1695895076193,0.0126953125,-0.9512329,-0.042541504,4.421875,10.25,-5.90625
1695895076233,-0.05444336,-0.84503174,-0.05255127,6.875,3.0,-3.625
1695895076273,-0.03881836,-0.7749634,-0.027893066,7.734375,7.4375,-1.4375
1695895076313,-0.04248047,-0.7268677,-0.036193848,10.78125,7.03125,0.03125
1695895076354,-0.036865234,-0.7481079,-0.031555176,8.296875,6.796875,0.90625
1695895076413,-0.018066406,-0.8128052,0.00579834,5.4375,6.328125,-0.21875
1695895076434,-0.06738281,-0.8689575,0.022155762,3.34375,1.859375,1.15625
1695895076474,-0.092041016,-1.0137329,-0.023742676,5.0,4.265625,2.65625
1695895076513,-0.107666016,-1.2058716,-0.07745361,5.546875,2.78125,9.625
1695895076573,-0.10986328,-1.3760376,-0.01763916,1.90625,-0.84375,7.8125
1695895076593,-0.056640625,-1.2090454,-0.070617676,-2.640625,2.828125,11.296875
1695895076633,0.1821289,-1.0379028,-0.15753174,0.40625,5.375,11.71875
1695895076673,0.12207031,-0.9788208,-0.2769165,-8.390625,-1.890625,6.203125
1695895076713,0.18383789,-0.9961548,-0.21734619,-13.859375,-1.484375,-1.609375
1695895076753,0.1706543,-0.9758911,-0.19293213,-8.046875,-3.65625,-1.0
1695895076793,0.1862793,-1.0281372,-0.085754395,-12.53125,-3.765625,-1.953125
1695895076833,0.072753906,-0.9299927,-0.05328369,-8.765625,-9.390625,-1.71875
1695895076873,0.06689453,-0.84039307,0.0072631836,-10.8125,-2.4375,0.5625
1695895076993,0.040039062,-0.81036377,0.005554199,-6.984375,-1.21875,0.84375
1695895077013,0.019042969,-0.80474854,0.0038452148,-4.375,1.578125,0.65625
1695895077034,0.041748047,-0.87091064,0.09222412,-5.859375,4.078125,-1.53125
1695895077036,0.021972656,-0.9048462,0.08782959,-8.5625,2.515625,-1.84375
1695895077053,0.021728516,-0.9060669,0.12054443,-9.515625,5.8125,-2.15625
1695895077093,0.026123047,-0.9104614,0.17327881,-9.765625,6.65625,-2.203125
1695895077133,0.0234375,-0.88946533,0.10272217,-5.953125,7.53125,-3.484375
1695895077173,0.043945312,-0.9212036,0.078552246,-3.1875,11.859375,-3.625
1695895077213,0.046875,-1.0090942,0.093688965,-11.859375,15.0625,-8.734375
1695895077253,0.08886719,-1.0425415,0.15081787,-17.203125,15.859375,-7.734375
1695895077295,0.07910156,-1.2993774,0.17962646,-18.25,9.40625,-12.234375
1695895077333,-0.021240234,-1.1726685,0.101989746,-17.40625,10.6875,-14.765625
1695895077373,-7.324219E-4,-1.1194458,-0.013977051,-5.46875,-0.078125,-7.59375
1695895077413,0.017578125,-0.98443604,0.10736084,-7.953125,10.078125,-4.4375
1695895077453,-0.06298828,-0.9944458,-0.055725098,-3.140625,1.546875,-3.71875
1695895077493,-0.029541016,-1.0247192,0.026550293,-2.90625,6.890625,-3.9375
1695895077533,-0.036621094,-0.9907837,0.018493652,-0.484375,9.84375,-4.21875
1695895077573,-0.05810547,-0.92559814,0.10736084,2.6875,10.234375,-0.03125
1695895077613,-0.024658203,-0.9680786,-0.026428223,8.5,3.953125,3.25
1695895077653,-2.4414062E-4,-0.96417236,-0.024475098,7.46875,3.484375,3.171875
1695895077693,-0.10522461,-0.96173096,0.105895996,5.1875,-8.59375,-0.53125
1695895077733,-0.08691406,-0.9324341,-0.018371582,0.1875,-7.875,0.828125
1695895077773,-0.071777344,-0.9282837,-0.04522705,1.265625,-12.0625,1.28125
1695895077813,-0.07299805,-0.94317627,-0.010559082,0.03125,-17.90625,2.578125
1695895077855,0.03149414,-1.1223755,0.11151123,-7.015625,-1.25,-0.390625
1695895077893,0.05053711,-1.0581665,0.11810303,-3.8125,-4.65625,0.09375
1695895077934,0.011230469,-0.93096924,0.1786499,-2.8125,-17.03125,4.15625
1695895077973,-0.009521484,-0.9885864,0.07342529,-5.5,-13.125,3.421875
1695895078013,0.0034179688,-0.9898071,0.11224365,-0.953125,-12.671875,1.703125
1695895078053,0.0024414062,-1.0029907,0.168396,0.8125,-13.921875,1.453125
1695895078093,-0.0107421875,-0.9846802,0.124694824,0.96875,-13.609375,1.109375
1695895078173,-0.042236328,-0.9963989,0.14520264,0.5,-9.125,0.703125
1695895078194,-0.03173828,-1.0007935,0.12786865,1.890625,-4.0625,1.171875
1695895078233,-0.026367188,-1.0010376,0.121032715,3.890625,-4.265625,1.421875
1695895078253,0.0068359375,-0.9985962,0.15838623,4.546875,-1.609375,1.328125
1695895078293,-0.04345703,-1.0220337,0.16595459,-0.15625,4.953125,-0.421875
1695895078333,0.032958984,-0.9866333,0.14031982,5.046875,-7.28125,-0.078125
1695895078373,-0.0036621094,-0.98394775,0.07977295,-0.28125,-0.265625,0.59375
1695895078413,-0.030029297,-1.02594,0.1774292,-3.546875,-2.78125,-0.390625
1695895078457,-0.056640625,-1.0044556,0.16229248,6.03125,-7.953125,0.296875
1695895078493,-0.14550781,-1.0252075,0.2086792,7.25,-8.875,-3.390625
1695895078533,-0.44702148,-0.9170532,0.39471436,22.53125,9.296875,-8.609375
1695895078573,-0.66503906,-1.0183716,0.07952881,28.21875,48.40625,-5.9375
1695895078614,-0.6159668,-0.97369385,0.12005615,17.28125,108.828125,-2.609375
1695895078653,-0.47802734,-0.87286377,-0.36309814,15.921875,154.26562,3.34375
1695895078713,-0.37109375,-1.0410767,-0.4841919,16.09375,172.07812,14.84375
1695895078773,-0.28076172,-1.0806274,-0.34918213,-8.40625,189.76562,7.3125
1695895078793,-0.115234375,-0.8008423,-0.35968018,-0.125,159.73438,7.34375
1695895078833,-0.0146484375,-0.8911743,-0.42144775,-20.9375,154.96875,10.625
1695895078853,0.13305664,-0.5725708,-0.02960205,-23.453125,123.71875,8.34375
1695895078893,0.49731445,-2.0,0.39813232,-68.84375,163.76562,-23.796875
1695895078933,-0.028564453,-0.93414307,-0.4812622,63.3125,20.46875,15.125
1695895078973,0.6281738,-1.0567017,0.32513428,-49.1875,93.625,5.0
1695895079014,0.029785156,-0.9348755,-0.03692627,24.671875,7.671875,-0.9375
1695895079053,0.12548828,-0.7893677,-0.074035645,-5.015625,31.28125,2.140625
1695895079093,0.18652344,-0.9475708,-0.05303955,-6.015625,20.015625,-2.578125
1695895079134,0.22021484,-0.911438,0.19354248,-11.8125,19.28125,-0.671875
1695895079173,0.1003418,-0.95513916,-0.06085205,-3.5625,4.078125,-2.109375
1695895079213,-0.1315918,-0.98516846,0.24920654,-12.0625,-1.515625,1.75
1695895079253,-0.12451172,-1.2146606,0.046813965,16.953125,-38.078125,5.03125
1695895079293,-0.053222656,-1.0808716,0.21917725,-6.546875,8.921875,-3.28125
1695895079338,-0.083984375,-0.90875244,0.137146,10.25,-21.28125,5.3125
1695895079393,-0.11254883,-0.9216919,0.08441162,7.203125,-8.703125,2.09375
1695895079413,-0.10668945,-0.9685669,0.11004639,8.109375,-10.71875,-0.484375
1695895079453,-0.109375,-1.0349731,0.18011475,9.0,-13.15625,-1.28125
1695895079493,-0.095214844,-0.99176025,0.11932373,10.671875,-17.375,-1.265625
1695895079533,-0.10473633,-0.93048096,0.07537842,11.40625,-14.265625,-0.65625
1695895079573,-0.103759766,-0.9336548,0.14276123,8.734375,-12.265625,0.40625
1695895079613,-0.10253906,-1.0181274,0.08465576,5.1875,-0.453125,-0.015625
1695895079656,-0.13842773,-1.1140747,0.101257324,6.546875,-8.53125,1.25
1695895079693,-0.083984375,-1.1775513,0.113708496,5.03125,0.78125,2.9375
1695895079733,-0.16870117,-1.3303833,0.18255615,4.359375,-9.765625,6.078125
1695895079774,-0.140625,-1.28302,0.0026245117,10.40625,-13.09375,9.421875
1695895079813,-0.025390625,-1.3137817,-0.050109863,8.0,-4.421875,13.28125
1695895079853,0.21264648,-1.135315,-0.25030518,7.28125,-0.828125,7.953125
1695895079893,0.2409668,-0.95025635,-0.19049072,2.515625,6.671875,7.40625
1695895079933,0.18920898,-1.1572876,-0.093566895,-7.5625,2.296875,1.46875
1695895079973,0.14355469,-1.0454712,-0.085754395,-6.296875,-1.734375,1.59375
1695895080014,0.10253906,-0.90753174,0.03778076,-3.765625,-0.609375,3.734375
1695895080073,0.07861328,-0.8023071,-0.011291504,-2.546875,5.390625,4.765625
1695895080093,0.09008789,-0.78912354,6.713867E-4,-2.328125,2.78125,5.8125
1695895080134,0.083496094,-0.7647095,-0.0056762695,0.703125,1.9375,7.71875
1695895080173,0.034179688,-0.6856079,-0.010314941,-0.328125,8.90625,6.78125
1695895080193,0.09887695,-0.7114868,0.022644043,3.171875,5.921875,7.9375
1695895080234,0.13476562,-0.7842407,-0.0022583008,3.109375,7.390625,7.109375
1695895080273,0.18432617,-0.97198486,0.0072631836,-0.375,6.453125,2.3125
1695895080313,0.17749023,-1.08844,0.13470459,-5.109375,7.5,-1.96875
1695895080353,0.19018555,-1.2522583,0.066345215,-0.8125,-4.484375,-7.78125
1695895080413,0.17773438,-1.3057251,0.12908936,-0.59375,-12.546875,-12.84375
1695895080434,0.14672852,-1.4744263,-0.09527588,-6.46875,-15.078125,-17.546875
1695895080473,0.068847656,-1.3728638,-0.023498535,-3.875,-8.375,-18.546875
1695895080513,0.0043945312,-0.8804321,-0.13238525,-1.0625,-1.8125,-8.90625
1695895080593,0.034179688,-0.91607666,-0.14776611,-7.390625,14.265625,-5.75
1695895080613,-0.072021484,-0.9221802,0.07342529,-3.84375,4.6875,-7.421875
1695895080633,-0.036621094,-0.897522,-0.066711426,2.625,-0.40625,-2.359375
1695895080693,-0.068115234,-0.88775635,0.043151855,-5.28125,3.796875,-5.515625
1695895080713,-0.072509766,-0.82696533,0.058532715,-0.5625,0.859375,-3.25
1695895080753,-0.07055664,-0.786438,-0.023498535,1.359375,6.5,-1.921875
1695895080793,-0.0637207,-0.769104,0.049743652,1.640625,12.375,-2.140625
1695895080833,-0.06958008,-0.8154907,0.042663574,6.15625,6.4375,-0.640625
1695895080873,-0.07519531,-0.9299927,0.07928467,5.296875,10.5,-1.875
1695895080913,-0.087402344,-1.079895,-0.0154418945,10.96875,6.0625,0.265625
1695895080953,-0.09277344,-1.2932739,0.08099365,5.0,4.96875,3.6875
1695895080994,-0.099853516,-1.367981,0.008972168,0.125,6.28125,4.796875
1695895081033,-0.12866211,-1.1694946,0.10687256,-1.5625,-6.890625,8.671875
1695895081073,-0.043945312,-1.1690063,-0.22027588,4.890625,-5.03125,9.21875
1695895081114,0.23217773,-1.1165161,-0.15948486,-6.265625,8.3125,3.859375
1695895081153,0.15405273,-0.99298096,-0.16143799,-6.015625,-0.9375,4.375
1695895081234,0.19238281,-1.1084595,-0.11920166,-3.015625,-7.328125,4.234375
1695895081236,0.107177734,-1.053772,0.0016479492,-9.265625,-5.171875,1.703125
1695895081273,0.038330078,-0.95147705,0.04119873,-0.96875,-16.3125,6.28125
1695895081333,0.030273438,-0.8272095,0.081970215,-1.734375,-6.59375,5.984375
1695895081353,0.0053710938,-0.76690674,0.058044434,-0.421875,2.78125,6.03125
1695895081394,0.018066406,-0.75494385,0.0119018555,0.828125,0.734375,6.0
1695895081433,0.036132812,-0.7588501,0.08465576,2.84375,4.90625,3.875
1695895081473,0.037841797,-0.8464966,0.120788574,1.359375,3.671875,2.609375
1695895081513,0.05419922,-0.91070557,0.09832764,2.484375,2.15625,1.34375
1695895081553,0.099365234,-0.9949341,0.113464355,2.484375,2.625,0.421875
1695895081594,0.114746094,-1.0474243,0.17401123,-1.53125,6.734375,-2.546875
1695895081633,0.055908203,-1.1521606,0.24163818,-3.4375,0.265625,-6.421875
1695895081693,0.057128906,-1.3753052,-0.03277588,-3.1875,-6.203125,-9.390625
1695895081714,0.045166016,-1.2078247,-0.18341064,2.625,-7.203125,-10.375
1695895081753,0.0847168,-1.0137329,-0.22442627,0.734375,3.828125,-6.296875
1695895081793,0.072265625,-1.0098267,-0.15460205,-4.328125,15.296875,-8.0625
1695895081834,-0.015380859,-0.9702759,-0.10699463,-6.1875,0.90625,-7.453125
1695895081893,-0.0041503906,-0.91485596,-0.07501221,-10.3125,7.84375,-6.515625
1695895081913,-0.038085938,-0.9619751,0.040222168,-7.5,1.9375,-8.015625
1695895081953,-0.03930664,-0.9126587,-0.015686035,-6.59375,-0.703125,-5.90625
1695895081993,-0.044189453,-0.8569946,0.030944824,-7.265625,1.796875,-6.515625
1695895082033,-0.05883789,-0.86016846,0.042175293,-7.59375,4.171875,-5.671875
1695895082073,-0.06616211,-0.86431885,0.06878662,-7.953125,4.03125,-3.234375
1695895082113,-0.083496094,-0.8621216,0.06829834,-4.046875,2.046875,-2.1875
1695895082153,-0.095214844,-0.9053345,0.12054443,-0.890625,-0.03125,-0.015625
1695895082193,-0.10961914,-0.90826416,0.10736084,-0.109375,2.265625,2.703125
1695895082234,-0.14135742,-0.97662354,0.15179443,-2.375,4.6875,2.09375
1695895082273,-0.11425781,-0.9483032,0.022888184,8.09375,-9.890625,5.203125
1695895082313,-0.075927734,-0.9570923,0.003112793,-1.9375,2.296875,6.171875
1695895082354,-0.18725586,-1.0952759,0.24188232,-2.28125,-5.328125,-0.21875
1695895082413,-0.19018555,-1.0105591,0.02557373,0.5625,-11.734375,2.640625
1695895082434,-0.04296875,-1.1685181,0.030456543,-11.078125,4.15625,1.34375
1695895082474,0.052734375,-1.1965942,0.14324951,-10.390625,-0.59375,2.421875
1695895082513,0.11206055,-0.989563,-0.08746338,-2.390625,1.171875,3.75
1695895082553,0.16113281,-0.99713135,0.05682373,-6.75,0.328125,3.28125
1695895082594,0.14477539,-0.96759033,0.09246826,-4.875,-8.875,3.0625
1695895082633,0.099853516,-0.9841919,0.090026855,-4.296875,-8.90625,2.84375
1695895082677,0.035888672,-1.0029907,0.06878662,-1.09375,-3.453125,2.0
1695895082713,0.0625,-0.9685669,0.09173584,-1.296875,-4.125,5.171875
1695895082753,0.1105957,-0.95758057,0.1227417,-0.578125,-0.546875,4.71875
1695895082794,0.115722656,-0.97784424,0.15765381,-3.03125,-1.28125,3.796875
1695895082833,0.10571289,-0.98760986,0.11053467,-2.875,-0.640625,2.90625
1695895082873,0.13354492,-0.987854,0.18377686,-5.296875,3.390625,1.484375
1695895082914,0.057373047,-0.93707275,0.1083374,-0.4375,1.28125,1.15625
1695895082973,0.11376953,-0.9192505,0.15179443,-4.90625,8.453125,0.609375
1695895082993,0.09350586,-0.9661255,0.15667725,-3.140625,8.578125,-2.140625
1695895083034,0.080322266,-1.010315,0.098083496,-0.390625,6.984375,-2.765625
1695895083074,0.053222656,-1.1443481,0.08465576,0.875,3.015625,-3.328125
1695895083113,0.025878906,-0.9553833,0.08148193,0.28125,8.75,-1.421875
1695895083154,0.03930664,-0.95147705,0.11859131,-0.96875,5.703125,-1.859375
1695895083193,0.03173828,-0.9902954,0.11273193,0.765625,2.4375,-1.375
1695895083234,0.037109375,-1.0545044,0.1408081,-2.734375,3.59375,-2.875
1695895083274,-0.0041503906,-0.98150635,0.10491943,-0.6875,-0.546875,-2.171875
1695895083354,0.0017089844,-0.99542236,0.1359253,0.0,-1.328125,-1.734375
1695895083373,-0.008544922,-1.0032349,0.11639404,-0.25,0.171875,-1.640625
1695895083393,-0.0031738281,-1.005188,0.12054443,1.25,2.125,-0.90625
1695895083413,-0.018310547,-1.0112915,0.12200928,1.453125,1.765625,-0.890625
1695895083453,-0.011962891,-0.9990845,0.085876465,2.421875,1.09375,-0.71875
1695895083493,0.010253906,-1.000061,0.1473999,1.421875,-1.15625,-0.28125
1695895083533,0.0043945312,-0.99542236,0.13470459,1.09375,4.109375,-0.28125
1695895083599,0.008300781,-0.99835205,0.11468506,2.484375,-0.1875,0.28125
1695895083613,0.030517578,-0.98150635,0.109558105,3.25,0.25,1.578125
1695895083654,-0.03540039,-1.0303345,0.1293335,-0.828125,11.125,-2.421875
1695895083693,-0.23657227,-0.9661255,0.3012085,13.515625,4.578125,-14.328125
1695895083733,-0.26342773,-0.9155884,-0.0025024414,27.1875,17.109375,-3.625
1695895083773,-0.4013672,-0.92633057,0.29779053,14.796875,65.734375,-9.5
1695895083815,-0.5090332,-1.0823364,-0.108947754,39.390625,53.546875,-4.125
1695895083853,-0.4831543,-1.0117798,-0.14019775,8.796875,142.53125,-2.703125
1695895083893,-0.35668945,-0.89849854,-0.48345947,26.3125,133.85938,-2.953125
1695895083935,-0.27856445,-1.0618286,-0.255188,-5.96875,158.79688,-6.546875
1695895083973,-0.09448242,-0.97076416,-0.21221924,-10.65625,150.98438,-12.296875
1695895084013,-0.10058594,-0.9397583,-0.315979,2.6875,118.265625,4.546875
1695895084053,-0.080322266,-0.95562744,-0.3399048,-0.703125,113.265625,11.609375
1695895084093,0.41625977,-1.5064087,-0.20220947,8.0625,107.890625,17.75
1695895084133,0.10620117,-0.9258423,0.117126465,32.984375,37.609375,9.6875
1695895084173,0.3173828,-1.0549927,-0.13970947,-5.359375,50.078125,15.171875
1695895084254,0.13330078,-0.93878174,0.11883545,2.671875,23.859375,5.9375
1695895084273,0.088378906,-0.8753052,0.10321045,-1.25,15.671875,9.21875
1695895084293,0.051513672,-0.9109497,0.0602417,-0.28125,3.921875,3.671875
1695895084333,0.16723633,-0.9690552,0.012145996,-1.15625,7.65625,3.4375
1695895084374,0.10595703,-0.9221802,0.11566162,-7.5625,0.53125,-0.53125
1695895084414,0.0063476562,-1.0774536,0.11566162,-10.921875,-4.046875,-7.0
1695895084453,-0.15527344,-0.84942627,0.029968262,3.578125,-22.3125,1.328125
1695895084493,-0.0859375,-1.1109009,-0.051086426,-3.078125,4.25,-0.421875
1695895084533,-0.037353516,-1.1775513,0.28851318,-8.140625,9.265625,-1.328125
1695895084573,-0.045654297,-0.97247314,0.097839355,7.75,-5.703125,5.8125
1695895084613,-0.072753906,-0.97613525,0.1828003,4.453125,3.34375,5.984375
1695895084653,-0.11816406,-0.9439087,0.09295654,10.328125,-8.65625,6.703125
1695895084693,-0.08544922,-0.96466064,0.051208496,3.015625,3.296875,4.25
1695895084733,-0.06591797,-1.006897,0.14178467,2.28125,4.609375,1.203125
1695895084793,-0.036621094,-1.0025024,0.094177246,3.921875,0.828125,1.46875
1695895084813,-0.060546875,-0.96661377,0.00970459,4.171875,-0.8125,0.859375
1695895084853,-0.060791016,-0.9524536,0.14569092,1.0625,6.953125,0.546875
1695895084933,-0.07421875,-0.95098877,0.10418701,7.640625,-5.640625,2.734375
1695895084953,-0.07910156,-0.9734497,0.06414795,4.53125,2.3125,2.796875
1695895084973,-0.060546875,-1.0549927,0.12640381,1.4375,4.625,0.71875
1695895085013,-0.09643555,-1.2061157,0.24920654,3.703125,-1.671875,1.25
1695895085053,-0.10522461,-1.361145,0.16888428,9.609375,-19.765625,5.375
1695895085093,-0.10498047,-1.3865356,0.081726074,6.046875,-0.4375,6.859375
1695895085133,-0.03564453,-1.3806763,0.06854248,6.828125,2.484375,12.71875
1695895085173,0.1274414,-1.3357544,-0.12554932,3.9375,-3.03125,8.015625
1695895085213,0.27905273,-0.9216919,-0.3406372,7.1875,6.25,5.734375
1695895085257,0.32495117,-0.881897,-0.27301025,-0.125,8.0625,1.703125
1695895085293,0.16577148,-1.0349731,-0.043273926,-6.453125,3.3125,-6.03125
1695895085333,0.18603516,-0.91192627,-0.10308838,-0.140625,-11.71875,0.71875
1695895085373,0.12817383,-0.86187744,-0.093322754,2.015625,-8.921875,2.59375
1695895085413,0.08178711,-0.833313,-0.04034424,1.1875,-6.828125,3.671875
1695895085453,0.07788086,-0.76885986,-0.039367676,4.4375,-7.59375,3.859375
1695895085493,0.08203125,-0.73516846,-0.016662598,3.265625,-2.96875,3.59375
1695895085533,0.0690918,-0.7925415,0.011169434,1.0625,-0.484375,2.6875
1695895085573,0.10522461,-0.9077759,0.044128418,2.375,-3.875,2.734375
1695895085613,0.18139648,-1.0039673,-0.031311035,1.0625,-6.90625,0.359375
1695895085653,0.20336914,-1.1028442,0.15423584,-7.828125,3.875,-5.453125
1695895085693,0.16748047,-1.1289673,0.054382324,-9.5625,-0.90625,-8.984375
1695895085734,0.041748047,-1.2544556,0.07293701,-11.296875,-20.265625,-11.1875
1695895085773,0.122802734,-1.4646606,-0.31817627,-10.25,-10.8125,-12.46875
1695895085813,0.024902344,-1.0737915,-0.08062744,-5.03125,2.09375,-12.453125
1695895085857,-0.05908203,-1.0476685,-0.13580322,-7.90625,1.734375,-10.515625
1695895085893,0.01586914,-0.97979736,-0.054748535,-7.59375,3.421875,-9.140625
1695895085933,0.0034179688,-0.90411377,0.025817871,-5.671875,9.421875,-7.4375
1695895085993,-0.059570312,-0.8399048,0.03778076,-1.234375,4.0625,-4.921875
1695895086013,-0.075927734,-0.8267212,0.0067749023,3.1875,3.4375,-4.5
1695895086073,-0.08203125,-0.7739868,-0.008605957,2.671875,5.453125,-2.71875
1695895086093,-0.087890625,-0.7366333,0.058044434,2.203125,10.84375,-1.359375
1695895086133,-0.07739258,-0.79351807,0.06536865,3.703125,17.234375,-0.28125
1695895086173,-0.095947266,-0.96051025,0.07098389,0.875,12.4375,-0.203125
1695895086213,-0.1105957,-1.1370239,0.026550293,3.09375,13.0,-0.78125
1695895086254,-0.06201172,-1.2910767,0.01727295,-0.421875,12.890625,0.15625
1695895086293,-0.092041016,-1.1880493,0.08758545,-2.546875,10.5625,4.40625
1695895086333,-0.09887695,-1.1096802,0.10760498,-10.28125,7.234375,2.34375
1695895086377,0.17700195,-1.0396118,-0.07696533,-8.234375,9.265625,3.859375
1695895086413,0.21606445,-1.0264282,-0.02520752,-4.625,-6.640625,3.390625
1695895086453,0.020996094,-1.1245728,-0.054260254,-1.546875,-9.125,3.796875
1695895086493,0.15454102,-1.0305786,0.007751465,3.078125,-11.625,7.5625
1695895086593,0.0859375,-1.0696411,0.11444092,5.75,-18.875,10.59375
1695895086613,0.021484375,-0.9898071,0.11029053,-2.171875,-10.671875,8.78125
1695895086634,0.07421875,-0.8484497,0.078063965,-2.828125,-8.890625,7.484375
1695895086638,0.08911133,-0.7463989,0.05316162,0.75,-5.0625,8.328125
1695895086673,0.031982422,-0.75201416,0.13568115,2.109375,-5.21875,7.9375
1695895086733,0.033691406,-0.769104,0.11639404,0.84375,0.0625,7.5
1695895086754,-0.01171875,-0.9077759,0.2682495,-0.625,-1.140625,3.671875
1695895086813,0.08862305,-1.0237427,0.07342529,5.15625,3.5,0.734375
1695895086833,0.21044922,-1.0366821,0.23504639,-5.265625,10.234375,-1.28125
1695895086873,0.091552734,-1.086731,0.2633667,-6.40625,2.625,-9.578125
1695895086913,0.07080078,-1.2217407,0.15228271,-8.3125,-1.046875,-12.265625
1695895086953,0.049560547,-1.3088989,-0.1741333,2.5,-8.625,-16.359375
1695895086993,0.0625,-1.0974731,-0.070129395,-1.21875,2.359375,-11.640625
1695895087033,-0.041748047,-1.1848755,-0.14654541,3.828125,9.828125,-7.0625
1695895087073,-0.061523438,-1.1194458,-0.003479004,4.546875,10.03125,-6.875
1695895087113,-0.091552734,-1.0432739,0.027282715,2.390625,9.0,-6.109375
1695895087157,-0.03930664,-0.91290283,0.059020996,2.125,7.734375,-5.96875
1695895087193,-0.07055664,-0.80792236,0.023376465,6.1875,5.890625,-4.90625
1695895087233,-0.061279297,-0.7190552,-0.03326416,7.953125,5.078125,-2.328125
1695895087273,-0.08642578,-0.71221924,0.046569824,7.03125,8.078125,1.09375
1695895087313,-0.09350586,-0.7539673,0.10247803,4.84375,8.25,1.953125
1695895087360,-0.09716797,-0.87042236,0.10882568,7.71875,7.0625,2.1875
1695895087393,-0.13183594,-1.0383911,-0.008850098,13.921875,8.125,1.3125
1695895087433,-0.1694336,-1.3110962,0.0368042,7.875,5.71875,0.046875
1695895087473,-0.2277832,-1.3118286,0.07366943,0.609375,6.015625,4.03125
1695895087515,-0.24194336,-1.1743774,0.02142334,-7.03125,8.90625,4.6875
1695895087555,-0.037353516,-1.1213989,-0.05255127,-13.546875,7.71875,3.21875
1695895087593,0.19628906,-1.133606,-0.109680176,-12.671875,3.796875,5.234375
1695895087633,0.30200195,-1.0720825,-0.25421143,-1.53125,-5.21875,8.84375
1695895087673,0.1743164,-1.0261841,0.02532959,2.84375,-14.0,13.65625
1695895087713,-7.324219E-4,-1.1265259,-0.017150879,-0.75,-18.421875,6.34375
1695895087754,0.029052734,-0.97784424,0.06561279,-3.171875,-15.28125,5.453125
1695895087793,0.03125,-0.8406372,0.11273193,-8.296875,-10.21875,6.265625
1695895087835,0.056640625,-0.7503052,-0.016174316,3.546875,-11.890625,4.859375
1695895087913,0.050048828,-0.71539307,0.12200928,2.5625,-7.984375,4.65625
1695895087933,0.04272461,-0.7810669,0.06097412,6.359375,-5.21875,6.734375
1695895087953,0.013916016,-0.8616333,0.1473999,5.296875,-5.796875,5.359375
1695895087993,-0.017822266,-1.0540161,0.1630249,4.90625,-0.828125,1.53125
1695895088033,0.118652344,-1.1846313,0.137146,1.09375,0.625,-3.34375
1695895088094,0.23876953,-1.1348267,0.13763428,-6.109375,-0.140625,-6.15625
1695895088113,0.14038086,-1.0772095,0.17425537,-11.453125,-7.421875,-12.25
1695895088153,-0.030761719,-1.2774048,-0.06060791,-12.171875,-14.890625,-17.75
1695895088193,0.03515625,-1.0379028,-0.20758057,-2.671875,-4.328125,-14.84375
1695895088234,-0.06201172,-1.0859985,-0.061340332,-0.078125,5.71875,-9.78125
1695895088274,-0.0859375,-1.1055298,0.042663574,-1.90625,19.640625,-7.8125
1695895088314,0.009521484,-0.94903564,0.0119018555,0.640625,19.453125,-3.4375
1695895088358,-0.041259766,-0.9314575,0.03753662,2.796875,13.15625,-3.0625
1695895088393,-0.08984375,-0.9319458,0.074401855,2.578125,12.1875,-1.421875
1695895088433,-0.052490234,-0.880188,0.016296387,8.703125,15.640625,1.0625
1695895088473,-0.045410156,-0.9072876,0.058044434,9.75,11.265625,2.140625
1695895088513,-0.06958008,-0.87286377,0.08709717,11.5625,9.71875,3.21875
1695895088553,-0.09277344,-0.89630127,0.07147217,10.3125,11.0625,2.609375
1695895088593,-0.10424805,-1.0066528,0.059020996,8.40625,12.34375,1.453125
1695895088633,-0.09790039,-1.1287231,0.055358887,4.15625,13.4375,3.375
1695895088674,-0.19458008,-1.1885376,0.058044434,-2.4375,12.859375,6.859375
1695895088713,-0.07080078,-1.2156372,0.15911865,-6.4375,7.34375,5.890625
1695895088753,-0.041748047,-1.2146606,-0.12017822,-0.703125,4.25,5.3125
1695895088793,0.20605469,-1.0449829,-0.32598877,6.84375,-2.90625,7.078125
1695895088833,0.2763672,-1.0623169,-0.19073486,5.0625,-7.328125,9.71875
1695895088873,0.21875,-1.0708618,0.018493652,-4.234375,-11.734375,12.578125
1695895088913,0.07446289,-0.98638916,-0.021057129,-5.375,-18.5625,9.0625
1695895088957,0.067871094,-0.87457275,-0.09576416,0.9375,-14.9375,4.8125
1695895088993,0.06616211,-0.79522705,0.06439209,-0.453125,-9.578125,1.359375
1695895089073,0.029296875,-0.76397705,0.030456543,4.34375,-15.3125,4.15625
1695895089093,0.07763672,-0.7312622,0.007019043,5.640625,-11.4375,6.03125
1695895089159,0.05883789,-0.83599854,0.010925293,6.546875,-10.84375,5.6875
1695895089174,0.052734375,-1.0527954,0.17547607,1.96875,-10.5625,1.09375
1695895089193,0.091552734,-1.1101685,0.007751465,2.328125,-8.15625,-2.640625
1695895089233,0.23535156,-1.0239868,0.11077881,-6.125,3.765625,-4.421875
1695895089273,0.08178711,-1.0701294,0.27215576,-8.96875,-13.453125,-6.96875
1695895089313,-0.057861328,-1.2319946,0.074157715,-14.09375,-15.953125,-11.53125
1695895089373,0.04663086,-1.2764282,-0.16558838,-5.921875,-4.90625,-19.0625
1695895089393,0.03857422,-1.0667114,-0.15240479,3.15625,1.640625,-8.265625
1695895089434,0.05493164,-1.1045532,-0.16851807,6.890625,14.171875,-3.640625
1695895089474,-0.0087890625,-1.0432739,0.001159668,4.09375,8.890625,-3.484375
1695895089513,-0.068359375,-0.97540283,-0.05670166,4.90625,11.90625,-3.296875
1695895089553,-0.01977539,-0.9006958,-0.05303955,6.65625,8.84375,-4.359375
1695895089593,-0.048828125,-0.8296509,0.038269043,7.515625,6.84375,-2.84375
1695895089634,-0.022949219,-0.79278564,-0.0022583008,7.21875,7.78125,-0.09375
1695895089673,-0.03930664,-0.7637329,-0.015686035,9.65625,9.3125,2.3125
1695895089713,-0.052001953,-0.7542114,0.0033569336,9.671875,6.0,2.609375
1695895089773,-0.06323242,-0.798645,0.008239746,10.46875,5.375,2.484375
1695895089793,-0.057373047,-0.8335571,0.0014038086,9.859375,3.859375,3.453125
1695895089813,-0.07861328,-1.0029907,0.039733887,10.46875,2.46875,2.25
1695895089856,-0.0847168,-1.2068481,-0.0095825195,14.140625,1.40625,5.21875
1695895089893,-0.20800781,-1.4385376,-0.031799316,6.140625,2.296875,5.765625
1695895089935,-0.21020508,-1.3447876,0.090270996,-0.75,3.359375,6.578125
1695895089973,-0.011962891,-1.0210571,-0.116760254,2.1875,8.65625,8.140625
1695895090013,0.21264648,-0.8989868,-0.21490479,-3.9375,-5.109375,3.546875
1695895090093,0.10546875,-1.0610962,-0.32574463,-9.34375,-2.640625,-0.78125
1695895090113,0.25805664,-0.9800415,-0.15533447,-21.8125,0.453125,8.421875
1695895090133,0.22949219,-0.98931885,-0.13214111,-18.75,-3.953125,5.953125
1695895090173,0.14379883,-1.0366821,-0.049865723,-16.890625,-8.453125,3.21875
1695895090213,0.087402344,-0.9607544,-0.101135254,-16.15625,-9.21875,1.765625
1695895090253,0.12109375,-0.8352661,-0.011047363,-16.515625,2.953125,0.15625
1695895090313,0.076416016,-0.831604,0.023132324,-6.625,-6.953125,0.203125
1695895090333,0.05029297,-0.7908325,0.023376465,-2.875,-5.59375,-1.59375
1695895090373,0.04663086,-0.82818604,0.08392334,-2.71875,-1.15625,0.171875
1695895090413,0.049072266,-0.8533325,0.078308105,0.078125,5.796875,-0.609375
1695895090453,0.046875,-0.892395,0.18157959,-1.71875,2.375,-0.03125
1695895090497,0.033203125,-0.89630127,0.105895996,-0.578125,2.859375,-1.0625
1695895090534,0.1328125,-0.8809204,0.05633545,-5.546875,8.234375,-2.1875
1695895090573,0.076660156,-1.048645,0.23162842,-15.59375,7.328125,-7.15625
1695895090613,0.0041503906,-1.0435181,0.168396,-11.921875,-5.140625,-12.4375
1695895090657,0.10131836,-1.3215942,-0.015930176,-4.46875,-1.046875,-13.40625
1695895090693,0.02758789,-1.1138306,-0.14190674,-1.578125,2.171875,-10.296875
1695895090733,-0.0146484375,-0.94854736,-0.09893799,-0.296875,6.4375,-4.515625
1695895090773,0.0021972656,-1.1067505,-0.08648682,2.484375,13.453125,-5.28125
1695895090813,0.053222656,-0.9663696,-0.049865723,2.765625,10.171875,-2.9375
1695895090874,0.0,-0.91656494,0.038024902,-3.734375,3.9375,-1.671875
1695895090893,-0.0068359375,-0.93463135,-0.0713501,1.875,1.65625,-2.0625
1695895090934,0.11987305,-0.9187622,-0.13287354,3.96875,-2.265625,2.109375
1695895090974,0.059326172,-0.8731079,-0.09210205,2.15625,-15.59375,1.953125
1695895091013,-0.001953125,-0.97735596,-0.105773926,-6.609375,-22.390625,1.3125
1695895091054,0.037353516,-1.0154419,-0.0056762695,0.015625,-22.890625,1.21875
1695895091094,-0.039794922,-0.9314575,0.06072998,10.390625,-22.25,6.15625
1695895091138,-0.42236328,-1.1355591,0.2868042,11.28125,-3.359375,-5.578125
1695895091174,-0.36083984,-0.9607544,0.13006592,10.0,45.859375,2.390625
1695895091214,-0.375,-1.0615845,0.21478271,9.78125,77.921875,6.8125
1695895091253,-0.3623047,-0.96661377,-0.3110962,8.0625,109.140625,11.609375
1695895091293,-0.26757812,-1.1008911,-0.32232666,-1.015625,132.5625,9.5625
1695895091333,-0.17407227,-1.0054321,-0.3118286,-10.6875,149.64062,10.953125
1695895091374,-0.22485352,-0.8777466,-0.29522705,-15.5625,146.57812,9.96875
1695895091433,-0.017089844,-0.7078247,-0.33966064,-17.046875,136.01562,5.5625
1695895091473,0.14990234,-0.7305298,-0.16290283,-15.78125,118.484375,3.046875
1695895091514,0.7546387,-1.977356,0.11956787,-54.71875,144.35938,5.1875
1695895091533,-0.05859375,-0.8616333,-0.34283447,16.375,64.03125,1.0625
1695895091573,0.50927734,-0.9710083,0.15252686,-19.9375,64.890625,-2.015625
1695895091613,0.12548828,-0.5532837,-0.018371582,5.296875,39.6875,-8.0625
1695895091656,0.055419922,-0.7827759,-0.043273926,0.953125,28.78125,-1.125
1695895091693,0.027832031,-1.1672974,0.09466553,-10.140625,25.0,-4.171875
1695895091733,0.1315918,-1.1834106,-0.24493408,-2.28125,21.21875,-3.078125
1695895091773,0.15478516,-0.98516846,0.23480225,-7.078125,17.21875,1.265625
1695895091813,-0.061767578,-1.0354614,0.05633545,-3.65625,-4.671875,-3.171875
1695895091856,-0.055664062,-0.96343994,0.057556152,-6.859375,3.609375,-5.515625
1695895091893,-0.02368164,-0.98223877,0.08343506,-5.3125,0.03125,-1.640625
1695895091933,0.040039062,-1.0352173,0.050720215,-3.953125,3.140625,-0.0625
1695895091973,0.060546875,-1.0176392,0.11102295,-3.453125,-0.640625,2.21875
1695895092013,0.040283203,-0.96295166,0.05633545,-0.171875,-5.65625,1.78125
1695895092054,0.059326172,-0.9883423,0.07733154,0.5625,-8.90625,0.4375
1695895092093,0.06616211,-0.9717407,0.10784912,-1.453125,-11.078125,1.21875
1695895092133,0.009521484,-0.9751587,0.13861084,-2.765625,-8.40625,-1.640625
1695895092175,-0.0068359375,-0.99053955,0.13348389,-2.0625,-9.671875,-0.171875
1695895092213,-0.016845703,-0.9561157,0.113464355,-1.234375,-3.375,-1.15625
1695895092253,-0.087890625,-1.0283813,0.18988037,-3.140625,-4.640625,-2.34375
1695895092293,-0.11279297,-1.0698853,0.15228271,-0.109375,0.84375,-4.5625
1695895092333,-0.103759766,-0.87701416,0.15252686,3.546875,3.328125,-1.71875
1695895092373,-0.11816406,-1.0261841,0.11053467,6.140625,4.375,-1.40625
1695895092413,-0.111328125,-1.079895,0.18548584,5.171875,6.046875,-2.234375
1695895092453,-0.13208008,-0.9849243,0.2321167,3.890625,5.34375,-2.3125
1695895092493,-0.09423828,-0.99102783,0.11224365,7.046875,4.734375,-2.203125
1695895092533,-0.1171875,-0.9890747,0.1317749,6.765625,2.796875,-1.34375
1695895092573,-0.10253906,-0.9656372,0.23504639,4.515625,7.4375,-1.125
1695895092653,-0.09863281,-0.9631958,0.13372803,4.953125,2.234375,-0.796875
1695895092673,-0.083984375,-0.960022,0.16351318,4.78125,0.484375,-0.40625
1695895092693,-0.11254883,-0.96661377,0.19696045,3.734375,-4.109375,-1.078125
1695895092733,-0.12890625,-0.9920044,0.16156006,5.59375,-7.421875,-0.25
1695895092773,-0.0703125,-1.0276489,0.109313965,5.453125,-4.796875,2.140625
1695895092814,-0.122558594,-1.1465454,0.14422607,2.671875,-6.21875,3.9375
1695895092853,-0.21728516,-1.1817017,0.17132568,1.140625,0.40625,8.265625
1695895092893,-0.2487793,-1.2756958,0.19696045,-3.4375,5.25,5.828125
1695895092933,-0.14868164,-1.2319946,0.15863037,6.9375,7.9375,0.46875
1695895093014,-0.06298828,-1.3145142,-0.0413208,9.140625,18.84375,2.28125
1695895093033,0.115234375,-1.3743286,-0.11236572,2.828125,16.4375,7.96875
1695895093053,0.23828125,-0.89190674,-0.1897583,0.40625,11.78125,7.125
1695895093073,0.23168945,-0.815979,-0.13702393,-4.734375,-2.1875,17.5625
1695895093114,0.15014648,-1.1123657,-0.057678223,-4.4375,-2.546875,1.265625
1695895093153,0.19897461,-0.99591064,-0.007873535,-11.140625,-2.140625,2.96875
1695895093213,0.09033203,-0.95269775,0.023132324,-6.640625,-11.015625,1.359375
1695895093253,0.14501953,-0.8831177,-0.0115356445,1.53125,-11.828125,1.5
1695895093274,0.099121094,-0.86553955,0.078063965,2.359375,-5.53125,1.4375
1695895093314,0.020263672,-0.7437134,0.078552246,7.890625,-10.875,3.359375
1695895093353,-0.007080078,-0.70318604,0.12615967,7.65625,-1.609375,3.828125
1695895093394,0.023925781,-0.7642212,0.06732178,7.8125,0.671875,3.125
1695895093434,0.041259766,-0.8755493,0.090026855,11.21875,-1.765625,1.1875
1695895093474,0.14282227,-1.0022583,0.059509277,8.046875,5.328125,1.421875
1695895093517,0.16503906,-1.2073364,0.1906128,-0.625,6.28125,-2.0625
1695895093553,0.17797852,-1.239563,0.22064209,-6.40625,2.234375,-8.25
1695895093594,0.04321289,-1.2173462,0.047546387,0.46875,-22.640625,-13.046875
1695895093633,0.055908203,-1.3672485,-0.08111572,-4.4375,-12.765625,-14.359375
1695895093673,-0.059326172,-1.0596313,-0.12701416,-3.53125,-2.046875,-10.328125
1695895093713,-0.041748047,-1.0027466,-0.22735596,1.546875,5.59375,-7.625
1695895093753,0.001953125,-1.1526489,-0.1585083,2.03125,9.953125,-6.296875
1695895093794,0.009277344,-0.9812622,-0.06036377,-1.296875,13.421875,-1.375
1695895093833,-0.032958984,-0.9439087,-0.06842041,2.90625,11.1875,0.546875
1695895093873,-0.10131836,-0.9109497,0.025817871,3.140625,5.71875,-2.890625
1695895093913,-0.07446289,-0.7942505,0.05218506,2.59375,12.859375,-0.3125
1695895093953,-0.056640625,-0.77056885,-0.014953613,2.9375,8.15625,3.359375
1695895093994,-0.0234375,-0.786438,0.07659912,0.28125,9.03125,3.03125
1695895094034,-0.0847168,-0.80352783,0.04827881,2.875,5.546875,3.53125
1695895094073,-0.046875,-0.9902954,0.10443115,4.796875,4.140625,4.34375
1695895094113,-0.15551758,-1.250061,0.0036010742,0.234375,6.359375,4.890625
1695895094154,-0.1772461,-1.2476196,0.13812256,-11.3125,9.53125,5.875
1695895094193,-0.16333008,-1.145813,0.07659912,-9.53125,8.890625,3.375
1695895094234,0.033447266,-1.1226196,-0.20806885,1.046875,11.640625,4.21875
1695895094274,0.30615234,-1.0464478,-0.29058838,0.71875,1.640625,5.6875
1695895094313,0.23779297,-1.0176392,-0.124572754,-2.65625,-4.703125,7.96875
1695895094355,0.076171875,-1.1060181,-0.11383057,4.546875,-15.84375,6.6875
1695895094394,0.056152344,-1.071106,-0.0064086914,-1.40625,-12.5,2.578125
1695895094434,0.040527344,-1.053772,0.02166748,-1.0625,-7.234375,2.09375
1695895094493,0.038330078,-0.92755127,0.036315918,1.90625,-9.125,0.109375
1695895094513,0.024169922,-0.86846924,0.013122559,4.453125,-6.484375,1.265625
1695895094554,0.056396484,-0.8352661,0.007507324,2.421875,-3.984375,4.515625
1695895094594,0.05493164,-0.84161377,0.098083496,-2.453125,3.4375,4.609375
1695895094633,-0.00390625,-0.84088135,0.12322998,-1.078125,-5.140625,2.40625
1695895094674,0.052490234,-0.78131104,0.040222168,-1.140625,-0.109375,3.640625
1695895094717,0.07446289,-0.8726196,0.11395264,1.546875,-0.421875,4.171875
1695895094753,0.08886719,-1.0379028,0.12176514,-1.546875,3.546875,3.9375
1695895094794,0.049804688,-1.1746216,0.2826538,-5.59375,2.046875,-2.078125
1695895094833,0.017333984,-1.1917114,0.11199951,-1.15625,-8.84375,-11.90625
1695895094873,0.053466797,-1.2529907,-0.10772705,-4.59375,-5.421875,-16.6875
1695895094914,-0.0390625,-1.2192993,-0.039123535,-2.671875,-9.375,-11.921875
1695895094953,0.030761719,-0.99420166,-0.17437744,-2.265625,2.3125,-11.921875
1695895094993,0.079833984,-1.0855103,-0.18121338,5.0,1.765625,-8.21875
1695895095033,0.044921875,-0.9487915,-0.14678955,3.65625,3.390625,-5.296875
1695895095073,-0.03857422,-0.8442993,-0.00982666,-2.109375,8.796875,-1.6875
1695895095113,0.027832031,-0.78497314,0.018249512,-9.40625,7.953125,-0.515625
1695895095173,-0.049804688,-0.79034424,0.036315918,-11.875,2.28125,-3.8125
1695895095194,-0.076171875,-0.80792236,-0.02178955,-8.578125,3.1875,-3.3125
1695895095233,-0.049560547,-0.8755493,0.029724121,-3.625,7.5625,-1.828125
1695895095273,-0.064453125,-0.9204712,0.020446777,1.203125,6.53125,0.125
1695895095313,-0.036376953,-0.9463501,0.047058105,1.65625,10.328125,2.65625
1695895095355,-0.072509766,-0.99468994,0.077819824,3.203125,8.6875,2.546875
1695895095393,-0.08911133,-1.0178833,0.07147217,3.75,7.75,2.71875
1695895095433,-0.095214844,-1.0186157,0.13861084,0.703125,9.25,1.453125
1695895095473,-0.061279297,-0.9524536,0.01727295,6.484375,9.921875,2.109375
1695895095513,-0.041015625,-0.93292236,-0.10430908,9.265625,7.90625,4.328125
1695895095553,-0.07324219,-1.0508423,0.113708496,-2.65625,5.9375,3.578125
1695895095594,-0.11352539,-1.0842896,0.08660889,-10.796875,7.921875,2.703125
1695895095633,-0.0546875,-0.9973755,0.053649902,-12.78125,5.28125,1.0625
1695895095673,0.01928711,-1.2285767,0.1383667,-18.25,5.078125,-3.453125
1695895095713,-0.038330078,-0.99468994,-0.0017700195,-8.40625,0.03125,0.6875
1695895095773,0.1303711,-0.9668579,0.0368042,-9.84375,0.15625,4.890625
1695895095793,0.19165039,-0.960022,0.120788574,-14.0625,-5.859375,4.34375
1695895095833,0.09082031,-1.0083618,0.10345459,-12.875,-10.765625,3.5
1695895095873,0.023925781,-1.0574341,0.09515381,-5.5,-16.0,-0.96875
1695895095913,0.08935547,-0.9771118,0.11590576,-2.296875,-8.953125,-0.0625
1695895095953,0.08520508,-0.9656372,0.121032715,-3.0625,-3.109375,2.265625
1695895095993,0.02758789,-0.97125244,0.152771,-3.046875,-7.375,-0.40625
1695895096033,0.1484375,-0.8904419,0.08148193,0.21875,-0.984375,-1.328125
1695895096073,0.11816406,-0.9024048,0.10223389,-2.0,5.25,2.28125
1695895096113,0.07104492,-1.0491333,0.14300537,-5.265625,2.484375,1.0
1695895096153,-0.041259766,-1.1013794,0.23626709,-9.8125,1.84375,-2.859375
1695895096193,-0.111572266,-1.0401001,0.17230225,-7.484375,-3.328125,-9.6875
1695895096233,-0.009277344,-0.90753174,0.093444824,-4.671875,3.71875,-4.65625
1695895096273,-0.0017089844,-0.93292236,0.14764404,-2.0625,8.046875,-3.328125
1695895096293,-0.011474609,-0.989563,0.1395874,1.578125,7.9375,-2.40625
1695895096333,-0.037597656,-1.0083618,0.18548584,0.140625,6.5625,-2.25
1695895096375,-0.018310547,-0.9854126,0.18084717,2.171875,5.859375,-2.03125
1695895096413,-0.02319336,-1.0037231,0.15008545,1.28125,7.9375,-1.703125
1695895096453,-0.0031738281,-0.9949341,0.15716553,1.171875,7.0625,-1.140625
1695895096493,-0.001953125,-0.99884033,0.16204834,0.78125,5.125,-0.4375
1695895096533,-0.017578125,-1.0007935,0.1449585,1.296875,4.359375,0.015625
1695895096573,-0.0146484375,-0.9963989,0.16644287,2.671875,2.03125,0.21875
1695895096613,-0.026367188,-1.0076294,0.15472412,2.4375,0.28125,0.359375
1695895096653,-0.014160156,-1.0032349,0.1593628,2.34375,0.65625,0.421875
1695895096693,-0.02734375,-1.0022583,0.1671753,1.609375,-0.546875,0.75
1695895096733,-0.010498047,-0.98443604,0.12591553,1.078125,0.84375,0.875
1695895096773,-0.020507812,-1.0095825,0.11395264,1.484375,-1.21875,0.8125
1695895096813,-0.03491211,-1.0115356,0.17474365,2.46875,-3.390625,0.015625
1695895096853,-0.029052734,-1.0066528,0.17230225,-0.59375,-1.703125,-0.109375
1695895096893,-0.018554688,-0.989563,0.13861084,-1.671875,-0.421875,0.625
1695895096974,-0.022460938,-1.005188,0.17645264,-1.796875,-2.34375,-0.28125
1695895096994,-0.033935547,-1.0122681,0.184021,-1.796875,-1.359375,0.046875
1695895097054,-0.013671875,-0.9871216,0.17132568,-0.203125,-1.25,0.09375
1695895097073,-0.028320312,-1.003479,0.18304443,-0.140625,-0.765625,0.515625
1695895097093,-0.015625,-1.010315,0.19158936,-1.125,-0.078125,-0.46875
1695895097133,-0.022705078,-0.99664307,0.21014404,-2.109375,-1.75,-0.703125
1695895097173,-0.010986328,-0.98638916,0.21429443,-0.21875,-0.796875,-0.359375
1695895097213,0.001953125,-0.98809814,0.13446045,-0.078125,1.140625,0.9375
1695895097253,0.037109375,-0.9776001,0.15692139,3.78125,-1.703125,-0.4375
1695895097293,-0.19628906,-0.89141846,0.31219482,3.984375,1.390625,-14.796875
1695895097333,-0.2668457,-0.91070557,0.1954956,24.046875,20.265625,4.40625
1695895097373,-0.5192871,-0.9651489,0.24066162,23.015625,45.546875,5.59375
1695895097414,-0.3798828,-1.2573853,-0.07867432,14.984375,74.84375,1.984375
1695895097453,-0.20898438,-1.029602,0.02142334,7.203125,100.484375,-2.265625
1695895097514,-0.28198242,-0.99224854,-0.0010375977,-0.609375,113.140625,-4.109375
1695895097533,-0.265625,-0.9446411,-0.13189697,-9.125,130.42188,-3.609375
1695895097573,-0.24023438,-0.95758057,-0.19390869,-12.234375,131.0,-5.21875
1695895097613,-0.17602539,-0.86383057,-0.27960205,-7.375,130.54688,-4.84375
1695895097653,0.09301758,-0.70025635,-0.18951416,-5.140625,112.453125,-4.984375
1695895097693,1.0578613,-1.9412231,0.7194214,-34.296875,121.75,-2.03125
1695895097733,-0.19628906,-0.8015747,-0.16363525,5.328125,69.875,-6.875
1695895097773,0.5515137,-0.90289307,0.22039795,-8.28125,60.5,-5.09375
1695895097813,0.07373047,-0.7163696,0.06903076,2.265625,38.28125,-3.359375
1695895097853,0.15209961,-0.8267212,0.0038452148,0.203125,34.328125,-9.609375
1695895097893,0.096191406,-1.2219849,0.16082764,-5.734375,16.609375,-10.921875
1695895097933,0.12768555,-1.2466431,0.019714355,-2.734375,3.328125,-5.65625
1695895097979,0.14648438,-0.89678955,0.15350342,-2.59375,-2.984375,2.28125
1695895098018,-0.0126953125,-0.9229126,0.10687256,0.234375,-16.765625,0.828125
1695895098074,-0.051757812,-0.9414673,0.06829834,1.1875,-19.65625,1.515625
1695895098093,-0.020751953,-0.9487915,0.10321045,0.796875,-15.859375,1.390625
1695895098133,-0.050048828,-1.0183716,0.15350342,-0.390625,-13.8125,2.859375
1695895098177,-0.04736328,-1.0523071,0.14886475,-0.875,-11.625,4.234375
1695895098215,-0.09326172,-1.0112915,0.19500732,-2.34375,-10.078125,1.046875
1695895098255,-0.16210938,-0.96881104,0.15374756,-1.640625,-8.15625,2.03125
1695895098293,-0.1015625,-0.9673462,0.20648193,-0.65625,0.265625,0.234375
1695895098333,-0.12207031,-1.0615845,0.2333374,-0.6875,-0.78125,-0.046875
1695895098373,-0.10498047,-1.0232544,0.2008667,0.15625,2.125,0.4375
1695895098415,-0.110839844,-0.95098877,0.1876831,3.96875,0.203125,-0.46875
1695895098453,-0.10595703,-0.9788208,0.23358154,5.296875,4.5625,-0.265625
1695895098498,-0.107910156,-0.9873657,0.15887451,5.21875,8.21875,0.171875
1695895098533,-0.07006836,-0.98931885,0.2008667,7.0,4.328125,1.140625
1695895098573,-0.076660156,-0.9585571,0.16937256,7.921875,5.859375,1.5
1695895098614,-0.09716797,-0.9470825,0.17425537,7.90625,3.8125,1.890625
1695895098654,-0.10498047,-0.9221802,0.16912842,9.0,1.765625,2.796875
1695895098694,-0.053955078,-0.9985962,0.1227417,11.484375,2.46875,5.53125
1695895098734,-0.072265625,-1.1004028,0.23431396,6.65625,3.53125,4.453125
1695895098774,-0.16113281,-1.1660767,0.26898193,4.984375,-1.6875,6.09375
1695895098814,-0.107421875,-1.2332153,0.2218628,3.9375,-2.421875,7.34375
1695895098854,-0.114990234,-1.2984009,0.19403076,4.375,-1.15625,6.953125
1695895098896,-0.115478516,-1.2981567,0.022399902,5.796875,1.75,7.4375
1695895098936,0.20800781,-1.2844849,-0.13800049,-2.34375,9.046875,4.546875
1695895098979,0.25317383,-0.93463135,-0.1482544,-3.234375,9.5,8.765625
1695895099020,0.20825195,-0.9854126,-0.15777588,-2.0,-0.4375,6.390625
1695895099059,0.19604492,-1.0269165,-0.058410645,-2.953125,-6.75,2.390625
1695895099099,0.1352539,-1.020813,0.014099121,-8.265625,-4.40625,-0.484375
1695895099140,0.1027832,-0.92437744,-0.026916504,-6.34375,-6.96875,-3.546875
1695895099179,0.09350586,-0.83062744,0.01727295,-4.328125,-1.71875,-1.9375
1695895099219,0.08276367,-0.8008423,0.09539795,-2.625,-3.125,-0.71875
1695895099259,0.040771484,-0.8789673,0.121520996,-1.734375,-4.21875,-0.234375
1695895099299,0.06225586,-0.85113525,0.1083374,-1.46875,-1.625,0.28125
1695895099338,0.015136719,-0.9019165,0.043151855,3.046875,-3.25,-0.28125
1695895099419,0.041503906,-0.9053345,0.14984131,4.046875,1.28125,1.703125
1695895099438,0.07373047,-0.9612427,0.1449585,2.46875,8.390625,3.90625
1695895099456,0.06225586,-1.0293579,0.14715576,5.6875,1.8125,3.3125
1695895099476,0.09033203,-1.0623169,0.21063232,-1.3125,7.109375,0.8125
1695895099515,0.060791016,-1.0628052,0.22747803,-2.796875,3.65625,-3.21875
1695895099557,0.06567383,-1.1314087,0.19500732,-7.15625,-2.75,-9.4375
1695895099619,0.09814453,-1.2249146,-0.097961426,-0.328125,-6.46875,-12.84375
1695895099639,-0.015625,-1.1863403,0.042175293,1.453125,-0.8125,-9.171875
1695895099675,0.025634766,-0.9546509,-0.23394775,8.140625,3.125,-4.484375
1695895099717,0.11767578,-1.041565,-0.034973145,3.828125,7.109375,-5.265625
1695895099755,-0.092041016,-1.0198364,-0.038146973,3.75,3.40625,-4.953125
1695895099795,0.009521484,-0.98443604,0.05609131,-0.09375,7.3125,-3.625
1695895099888,-0.008544922,-0.93536377,-0.0032348633,2.234375,1.421875,-2.890625
1695895099899,-0.061523438,-0.9002075,0.043884277,2.171875,4.515625,-0.328125
1695895099919,-0.059570312,-0.84820557,0.039733887,2.4375,6.21875,1.28125
1695895099978,-0.046875,-0.8381958,0.06341553,1.484375,4.890625,0.765625
1695895100014,-0.096191406,-0.8723755,0.051696777,2.03125,5.609375,0.0625
1695895100033,-0.05029297,-0.8753052,0.047546387,3.734375,7.59375,0.90625
1695895100080,-0.07543945,-0.9920044,0.07196045,4.78125,8.421875,0.96875
1695895100113,-0.06713867,-1.0188599,-0.015197754,7.28125,9.0,1.53125
1695895100174,-0.13427734,-1.1321411,-0.009094238,4.09375,9.828125,4.125
1695895100194,-0.13623047,-1.1607056,0.20721436,-6.65625,7.90625,3.140625
1695895100254,-0.12988281,-1.2024536,0.0848999,-7.234375,7.53125,2.859375
1695895100292,-0.013916016,-1.2571411,-0.012268066,-2.703125,10.828125,4.09375
1695895100329,0.19873047,-1.2007446,-0.13214111,-2.890625,4.59375,5.390625
1695895100354,0.23486328,-0.95684814,-0.19952393,2.4375,-0.359375,8.53125
1695895100395,0.21191406,-1.0610962,-0.028625488,-1.4375,-4.71875,8.390625
1695895100477,0.10424805,-1.0725708,0.023132324,-0.25,-11.34375,8.59375
1695895100494,0.11743164,-1.0393677,0.062927246,-3.75,-10.953125,5.78125
1695895100513,0.07519531,-0.9014282,0.074401855,1.078125,-10.9375,2.6875
1695895100553,0.03540039,-0.8140259,0.097351074,-2.34375,-4.875,3.28125
1695895100594,0.026123047,-0.80474854,0.074401855,0.203125,-3.84375,4.296875
1695895100635,0.05029297,-0.77301025,0.14031982,-0.78125,-1.75,4.046875
1695895100673,0.07788086,-0.8152466,0.09075928,0.265625,0.796875,4.375
1695895100716,0.076660156,-0.87994385,0.1593628,-0.75,-1.0625,3.8125
1695895100753,0.09741211,-0.9817505,0.14056396,-3.234375,1.984375,0.328125
1695895100793,0.10668945,-1.0603638,0.21746826,-4.46875,2.03125,-2.234375
1695895100833,0.10058594,-1.0383911,0.21942139,-5.34375,1.59375,-7.5
1695895100933,0.06933594,-1.1895142,0.13201904,-5.3125,-3.96875,-9.890625
1695895100938,0.12548828,-1.2974243,0.002380371,-4.390625,-0.046875,-15.0
1695895100955,0.08251953,-1.1260376,-0.08453369,0.421875,3.78125,-10.34375
1695895101026,0.0068359375,-0.9644165,-0.13092041,-0.578125,-2.0,-8.3125
1695895101039,-0.013427734,-1.1231079,-0.015197754,1.171875,2.453125,-10.734375
1695895101074,-0.06762695,-1.1072388,0.06756592,-3.109375,4.171875,-8.890625
1695895101137,-0.06518555,-0.9512329,0.046813965,-0.65625,2.65625,-7.15625
1695895101155,-0.02709961,-0.850647,0.011657715,2.34375,0.453125,-4.65625
1695895101193,-0.04736328,-0.81622314,0.046569824,5.984375,0.015625,-2.3125
1695895101234,-0.103027344,-0.77008057,0.06463623,9.28125,-0.6875,-0.96875
1695895101276,-0.08569336,-0.79229736,0.050964355,9.234375,1.09375,1.34375
1695895101314,-0.084228516,-0.8320923,0.08319092,9.03125,2.5625,2.78125
1695895101354,-0.07788086,-0.88531494,0.07659912,10.234375,4.15625,3.734375
1695895101395,-0.13500977,-1.0195923,0.16009521,9.828125,8.5,0.765625
1695895101434,-0.17114258,-1.147522,-0.019348145,15.265625,13.765625,3.171875
1695895101474,-0.1809082,-1.3191528,0.14813232,3.546875,17.953125,4.96875
1695895101514,-0.26416016,-1.3562622,0.124938965,-8.40625,17.734375,5.734375
1695895101573,-0.09057617,-1.2168579,-0.039123535,-8.671875,18.234375,6.53125
1695895101593,0.08959961,-1.2051392,-0.07086182,-6.046875,13.890625,5.8125
1695895101634,0.25170898,-1.0164185,-0.1531372,-5.203125,4.28125,8.96875
1695895101674,0.2409668,-0.986145,-0.18414307,-4.5625,-7.375,8.125
1695895101713,0.21435547,-1.0576782,-0.03717041,-4.65625,-12.65625,9.59375
1695895101753,0.087646484,-1.0410767,0.06463623,-6.90625,-14.140625,11.09375
1695895101795,0.10644531,-0.9402466,0.03729248,-5.546875,-18.09375,6.796875
1695895101834,0.09790039,-0.803772,0.03704834,-3.0,-17.265625,7.40625
1695895101876,0.051757812,-0.71295166,0.12615967,-5.765625,-4.96875,5.328125
1695895101913,0.044921875,-0.73443604,0.17718506,2.75,-12.8125,5.609375
1695895101953,-0.009765625,-0.74224854,0.1749878,0.125,-2.21875,4.421875
1695895101993,0.05419922,-0.8374634,0.15301514,2.828125,-5.234375,3.96875
1695895102033,0.1027832,-0.97369385,0.12591553,3.78125,-2.046875,0.640625
1695895102073,0.107910156,-1.1245728,0.230896,1.0625,1.328125,-3.515625
1695895102113,0.122802734,-1.1358032,0.30194092,-5.671875,0.625,-9.671875
1695895102173,0.110839844,-1.1489868,0.21478271,-4.375,-12.984375,-11.765625
1695895102193,0.17285156,-1.286438,-0.014221191,-3.015625,-12.421875,-13.625
1695895102233,0.016845703,-1.2197876,0.03656006,-0.171875,-6.703125,-13.6875
1695895102273,-0.08862305,-0.9475708,-0.14361572,9.890625,-4.203125,-11.609375
1695895102313,-0.017822266,-1.0479126,-0.07550049,9.265625,4.96875,-7.0625
1695895102353,-0.03100586,-0.99884033,0.015075684,4.03125,14.109375,-5.28125
1695895102393,-0.06567383,-0.9612427,0.030944824,4.25,12.515625,-4.375
1695895102433,-0.091308594,-0.8792114,0.019958496,4.796875,12.328125,-5.078125
1695895102473,-0.09057617,-0.8076782,0.027038574,6.6875,16.09375,-3.796875
1695895102513,-0.079833984,-0.7979126,0.03289795,7.953125,18.515625,-0.75
1695895102553,-0.080322266,-0.77423096,0.074645996,3.625,19.90625,0.546875
1695895102593,-0.05493164,-0.8855591,0.07220459,6.59375,17.53125,1.515625
1695895102633,-0.075927734,-1.1680298,0.21966553,-0.9375,24.015625,0.9375
1695895102673,-0.16748047,-1.3692017,-0.04864502,-6.640625,18.625,2.546875
1695895102693,-0.109375,-1.1314087,-0.09454346,-3.890625,15.703125,2.578125
1695895102733,-0.0847168,-1.0772095,-0.0056762695,-2.140625,10.0625,5.765625
1695895102773,0.068115234,-1.0322876,-0.1026001,-0.5,6.953125,4.53125
1695895102813,0.17358398,-0.9690552,-0.20977783,-5.796875,1.390625,4.671875
1695895102853,0.16015625,-1.0623169,-0.01763916,-1.515625,-16.3125,8.375
1695895102893,0.08300781,-1.1511841,0.015563965,-5.609375,-19.703125,9.078125
1695895102933,0.09057617,-1.0691528,0.081970215,-9.265625,-12.265625,2.53125
1695895102973,0.04345703,-1.0601196,0.06463623,-10.6875,-12.109375,2.578125
1695895103013,0.047607422,-0.8237915,0.1251831,-6.09375,-12.921875,2.71875
1695895103053,0.03125,-0.7546997,0.105651855,3.0625,-12.984375,5.390625
1695895103093,0.022949219,-0.7061157,0.054382324,8.109375,-9.765625,7.28125
1695895103133,-0.020751953,-0.7608032,0.13934326,6.84375,-0.984375,6.765625
1695895103173,-0.023925781,-0.8809204,0.19329834,6.71875,0.46875,7.203125
1695895103213,0.060791016,-1.013977,0.16790771,3.484375,5.828125,6.4375
1695895103254,0.1394043,-1.194397,0.1720581,8.546875,-2.03125,3.140625
1695895103293,0.19433594,-1.1853638,0.23895264,1.03125,-3.765625,-1.546875
1695895103333,0.10522461,-1.15094,0.2970581,-1.265625,-12.5,-9.5625
1695895103373,0.092041016,-1.2212524,-0.26519775,5.359375,-22.21875,-11.625
1695895103414,0.07885742,-1.0542603,-0.043029785,-0.8125,-21.78125,-5.015625
1695895103453,-0.018310547,-1.0603638,-0.06329346,-6.140625,-8.171875,-7.765625
1695895103494,0.0061035156,-0.9846802,-0.0032348633,-6.28125,-3.21875,-5.40625
1695895103533,-0.0043945312,-0.9729614,-0.027404785,-0.21875,-2.90625,-5.28125
1695895103573,0.0012207031,-0.9746704,0.12689209,-5.75,4.1875,-5.03125
1695895103613,-0.053222656,-0.8701782,0.08416748,-3.078125,3.0625,-2.671875
1695895103653,-0.07055664,-0.84332275,0.11419678,-2.515625,5.875,-4.0
1695895103693,-0.08666992,-0.8648071,0.10296631,-0.796875,6.75,-1.5625
1695895103734,-0.0063476562,-0.8464966,0.07269287,4.890625,8.265625,0.5625
1695895103773,-0.04321289,-0.86309814,0.043884277,9.6875,7.75,3.078125
1695895103813,-0.021240234,-0.9146118,0.07733154,10.375,11.296875,4.03125
1695895103857,-0.05102539,-0.973938,0.10296631,6.984375,12.71875,4.375
1695895103893,-0.011230469,-1.0393677,0.054138184,10.0625,14.375,5.078125
1695895103933,0.015625,-1.3242798,-0.06500244,9.59375,8.796875,11.453125
1695895103973,-0.19897461,-1.4414673,0.25457764,-6.515625,9.640625,10.59375
1695895104013,-0.21411133,-1.3272095,0.26263428,-8.796875,16.234375,2.5
1695895104053,-0.030273438,-1.1209106,-0.014709473,0.359375,16.34375,1.203125
1695895104093,0.28027344,-0.91656494,-0.121398926,-3.796875,10.015625,2.5625
1695895104153,0.20605469,-0.80718994,-0.18902588,-9.09375,11.09375,2.125
1695895104173,0.2163086,-0.9939575,-0.14068604,-8.4375,3.84375,-2.265625
1695895104213,0.24316406,-0.944397,-0.11114502,-7.109375,-0.1875,-1.421875
1695895104253,0.19873047,-0.9661255,-0.0049438477,-5.796875,-7.1875,-0.953125
1695895104293,0.060058594,-1.0032349,0.012390137,-4.453125,-14.4375,-2.359375
1695895104333,0.084472656,-0.84210205,0.08026123,-7.046875,-9.578125,-2.359375
1695895104373,0.06347656,-0.8555298,0.04876709,-1.90625,-9.84375,-0.6875
1695895104414,0.010009766,-0.89630127,0.10614014,-1.046875,-11.46875,-0.328125
1695895104453,0.032470703,-0.892395,0.12347412,-2.28125,-8.71875,-0.59375
1695895104493,0.020263672,-0.89068604,0.13446045,-2.15625,-4.609375,1.8125
1695895104533,0.038085938,-0.91070557,0.12908936,-0.125,-7.921875,0.5625
1695895104573,0.08496094,-0.9077759,0.20306396,-2.828125,-5.1875,-0.8125
1695895104614,0.07885742,-0.8858032,0.12371826,2.84375,-8.71875,-1.6875
1695895104653,0.18896484,-0.9006958,0.14007568,-3.265625,2.65625,0.359375
1695895104693,-0.018066406,-0.96954346,0.21575928,1.125,-13.328125,-8.421875
1695895104733,-0.037109375,-0.91485596,0.14691162,-13.046875,6.234375,-11.515625
1695895104773,-0.014160156,-1.1536255,-0.13726807,4.3125,-15.4375,-10.71875
1695895104813,0.19433594,-1.092102,0.020446777,-10.9375,18.71875,2.015625
1695895104853,-0.13110352,-1.1277466,0.19647217,2.484375,-6.046875,-2.703125
1695895104893,-0.032958984,-1.0679321,-0.011779785,-8.625,9.203125,0.296875
1695895104933,0.059570312,-1.0982056,0.10321045,-4.28125,7.296875,0.265625
1695895104975,-0.025390625,-1.0122681,0.08148193,-6.0,3.28125,1.984375
1695895105013,0.020996094,-0.95025635,0.010681152,2.0625,-1.0,3.34375
1695895105073,-0.020996094,-0.8928833,0.05267334,3.46875,-5.375,3.375
1695895105097,0.0234375,-0.8674927,-0.035461426,3.859375,-9.75,3.328125
1695895105133,-0.024414062,-0.90509033,0.11199951,-4.59375,-14.640625,-0.15625
1695895105173,0.07080078,-1.1712036,0.029724121,-1.296875,-21.84375,0.828125
1695895105213,0.14282227,-1.1953735,0.13104248,-2.234375,-10.59375,4.953125
1695895105253,0.02758789,-0.8040161,0.105651855,-5.359375,-10.6875,1.890625
1695895105293,-0.036865234,-0.9793091,0.17767334,-1.75,-22.84375,2.796875
1695895105333,-0.025146484,-1.0628052,0.14959717,-6.21875,-14.9375,0.1875
1695895105373,0.03125,-1.0088501,0.12200928,-9.984375,-6.390625,-1.09375
1695895105413,0.044677734,-0.94488525,0.2098999,-5.4375,-5.515625,1.15625
1695895105453,-0.029785156,-0.97857666,0.20184326,1.25,-12.5625,1.84375
1695895105493,-0.016357422,-0.9939575,0.19207764,0.140625,-5.53125,-0.734375
1695895105533,-0.018310547,-0.9783325,0.20843506,0.234375,-4.53125,0.125
1695895105573,-0.05444336,-0.9883423,0.23358154,-1.453125,-1.3125,-1.484375
1695895105618,-0.13305664,-1.065979,0.34222412,2.53125,-3.453125,-7.953125
1695895105653,-0.3996582,-0.9890747,0.338562,2.71875,31.453125,-7.078125
1695895105693,-0.35131836,-0.94781494,0.21746826,7.90625,58.328125,-13.65625
1695895105733,-0.43701172,-1.0657349,0.16278076,7.03125,88.890625,-9.265625
1695895105773,-0.32592773,-1.0003052,-0.034973145,6.734375,117.03125,-13.0
1695895105813,-0.43554688,-0.8875122,-0.26934814,13.5625,127.5,-10.34375
1695895105853,-0.4560547,-0.9143677,-0.26275635,8.015625,152.48438,-3.875
1695895105894,-0.115722656,-1.1607056,4.272461E-4,-7.265625,166.21875,-10.65625
1695895105913,-0.22290039,-1.0073853,-0.21636963,-3.5625,157.5,-9.828125
1695895105956,-0.21655273,-0.96466064,-0.28790283,-3.953125,150.35938,-7.96875
1695895106015,-0.004638672,-1.2063599,-0.6355591,11.234375,135.9375,-4.546875
1695895106033,0.640625,-0.87750244,0.07098389,16.265625,113.46875,4.203125
1695895106073,0.1352539,-1.33844,-0.010559082,3.28125,74.0,0.640625
1695895106153,0.4008789,-0.9006958,-0.1362915,2.453125,64.8125,0.75
1695895106173,0.2861328,-0.77227783,0.06048584,-0.921875,47.9375,2.5625
1695895106197,0.15795898,-0.8989868,-0.027160645,1.59375,27.75,-3.28125
1695895106234,0.3400879,-0.90826416,-0.038635254,-1.21875,24.3125,-3.40625
1695895106273,0.32739258,-1.1382446,0.06829834,-4.171875,3.125,-3.796875
1695895106313,0.114990234,-1.0942993,0.042419434,-4.96875,-16.296875,-8.15625
1695895106353,0.05493164,-0.9602661,-0.033996582,-5.21875,-29.09375,-9.71875
