timestamp,accel_x,accel_y,accel_z,gyro_x,gyro_y,gyro_z,ind
1696292852427,-0.06518555,-0.9963989,0.050964355,-0.28125,-0.375,-0.171875,0
1696292852467,-0.0637207,-0.9990845,0.044128418,-1.15625,-0.71875,-0.421875,1
1696292852507,-0.0546875,-1.0005493,0.044128418,0.828125,0.984375,0.171875,2
1696292852547,-0.045654297,-1.0005493,0.05633545,0.65625,0.15625,-0.40625,3
1696292852587,-0.06762695,-0.99176025,0.046081543,0.28125,0.0625,-0.3125,4
1696292852627,-0.049804688,-1.0039673,0.036071777,-0.546875,-0.46875,-0.578125,5
1696292852667,0.001953125,-1.0801392,-0.19244385,-9.75,-3.171875,-0.8125,6
1696292852707,0.0546875,-0.94610596,0.07904053,1.34375,15.28125,-3.859375,7
1696292852747,-0.21899414,-0.84698486,0.1618042,-8.984375,-12.703125,8.25,8
1696292852787,-0.025878906,-1.0432739,0.15057373,-10.65625,7.234375,-8.09375,9
1696292852827,-0.1459961,-0.9915161,0.16644287,-4.28125,1.59375,1.921875,10
1696292852867,-0.061523438,-1.0403442,0.074401855,-6.09375,2.65625,-1.75,11
1696292852907,-0.087402344,-1.038147,0.105895996,2.015625,0.234375,-2.40625,12
1696292852947,-0.09472656,-0.90826416,0.101745605,-2.53125,-2.71875,-0.921875,13
1696292852987,-0.049072266,-0.9585571,0.15447998,-1.578125,-1.78125,-0.015625,14
1696292853027,-0.10839844,-1.0044556,0.08709717,-8.953125,-4.453125,1.609375,15
1696292853067,-0.028808594,-1.0662231,0.07757568,-4.3125,-3.3125,-2.84375,16
1696292853107,-0.10205078,-0.9771118,0.09637451,-0.828125,1.078125,-1.140625,17
1696292853147,-0.030029297,-0.96539307,0.117370605,1.765625,3.046875,-0.34375,18
1696292853187,-0.09399414,-0.940979,0.124694824,-4.28125,9.0,-0.671875,19
1696292853227,-0.099609375,-1.0293579,0.19329834,-4.0625,4.4375,-1.421875,20
1696292853267,-0.12475586,-1.0200806,0.20941162,4.953125,2.484375,1.609375,21
1696292853307,-0.12719727,-1.0120239,0.17327881,1.171875,-2.390625,3.015625,22
1696292853347,-0.076660156,-1.0183716,0.11468506,1.0625,-1.34375,1.8125,23
1696292853387,-0.037353516,-0.9783325,0.10321045,-0.046875,-2.6875,-1.421875,24
1696292853427,-0.071777344,-0.9927368,0.10321045,1.484375,0.34375,-1.640625,25
1696292853467,-0.107421875,-1.0105591,0.13006592,2.484375,-0.8125,-0.875,26
1696292853507,-0.0949707,-1.008606,0.06536865,4.65625,-4.90625,0.828125,27
1696292853547,-0.052734375,-0.9697876,0.031921387,7.453125,-5.640625,3.671875,28
1696292853587,-0.008300781,-1.031311,-0.08648682,13.609375,2.0625,3.203125,29
1696292853627,0.020263672,-0.9536743,0.10638428,15.75,10.171875,15.078125,30
1696292853667,-0.07446289,-0.8213501,0.105163574,-9.71875,5.796875,4.484375,31
1696292853707,-0.12060547,-1.0877075,0.15618896,0.6875,5.109375,7.71875,32
1696292853747,0.0021972656,-1.0606079,0.07757568,-4.96875,-4.203125,-1.21875,33
1696292853787,-0.05419922,-1.036438,0.06536865,1.6875,-5.609375,2.609375,34
1696292853827,-0.064941406,-0.9783325,0.08148193,-2.734375,-4.296875,-4.765625,35
1696292853867,-0.06542969,-0.9624634,0.10076904,0.109375,-0.96875,0.125,36
1696292853907,-0.029785156,-1.0293579,-0.01739502,-6.1875,-5.25,-0.515625,37
1696292853947,-0.040283203,-1.0188599,0.06341553,-1.671875,-1.78125,-1.875,38
1696292853987,-0.056884766,-0.9595337,0.029968262,-4.65625,-4.65625,-2.046875,39
1696292854027,-0.07055664,-1.0178833,0.14227295,6.953125,2.171875,0.796875,40
1696292854067,-0.00024414062,-0.97979736,0.0060424805,-6.359375,-2.703125,-1.5625,41
1696292854107,-0.04736328,-1.0110474,0.030456543,-4.796875,-0.984375,-1.5625,42
1696292854147,-0.05517578,-1.0003052,0.082458496,-4.984375,-0.84375,-1.984375,43
1696292854187,-0.10083008,-0.99835205,0.15594482,0.484375,-3.390625,-0.265625,44
1696292854227,-0.024169922,-0.9631958,0.046569824,-11.40625,-5.75,-3.84375,45
1696292854267,-0.0625,-0.9771118,0.06585693,-11.703125,-6.484375,-5.40625,46
1696292854307,-0.068359375,-0.9981079,0.16253662,-4.140625,-1.828125,-2.796875,47
1696292854347,-0.14428711,-1.024231,0.1227417,-7.78125,-1.28125,-1.84375,48
1696292854387,-0.083496094,-1.052063,0.19696045,-4.140625,0.421875,-2.21875,49
1696292854427,-0.12841797,-0.9783325,0.14349365,-4.984375,3.421875,-2.625,50
1696292854467,-0.07421875,-0.96539307,0.137146,-4.59375,-0.578125,-0.953125,51
1696292854507,-0.05444336,-1.0264282,0.1515503,-1.96875,0.078125,-3.25,52
1696292854547,-0.0769043,-0.987854,0.046325684,2.125,-2.234375,-2.609375,53
1696292854587,-0.011230469,-1.0484009,0.031677246,5.203125,2.3125,0.46875,54
1696292854627,-0.09375,-0.862854,0.19256592,-9.78125,-11.625,3.234375,55
1696292854667,-0.15771484,-0.99298096,0.2111206,-13.046875,-1.34375,-4.796875,56
1696292854707,-0.15649414,-1.0007935,0.23284912,-7.140625,-5.109375,1.75,57
1696292854747,-0.036865234,-1.0256958,0.13519287,-10.484375,-5.796875,-6.390625,58
1696292854787,-0.107177734,-0.942688,0.13519287,-9.921875,-7.75,-6.234375,59
1696292854827,-0.13574219,-0.99053955,0.12835693,-4.265625,-1.15625,-2.578125,91
1696292854867,-0.099609375,-1.0044556,0.16937256,-3.8125,-1.25,-5.921875,92
1696292854907,-0.10083008,-0.9656372,0.15252686,-3.84375,-4.234375,-4.25,93
1696292854947,-0.11401367,-0.98931885,0.08270264,-10.53125,-2.90625,-5.8125,94
1696292854987,-0.15429688,-0.9727173,0.17132568,-2.640625,-0.25,-6.953125,95
1696292855027,-0.20019531,-0.9800415,0.19378662,-5.921875,3.015625,-3.953125,96
1696292855067,-0.26245117,-1.0154419,0.24334717,-1.78125,1.546875,-0.5,97
1696292855107,-0.19750977,-0.97125244,0.15692139,-0.3125,4.75,5.0625,98
1696292855147,-0.20654297,-1.0166626,0.20819092,3.578125,2.21875,4.171875,99
1696292855187,-0.18530273,-0.94732666,0.18353271,-1.40625,-5.703125,0.796875,100
1696292855227,-0.10620117,-0.9546509,0.14251709,0.265625,-4.71875,3.46875,101
1696292855267,-0.12988281,-0.99420166,0.15301514,2.796875,3.046875,3.484375,102
1696292855307,-0.10986328,-0.9932251,0.19671631,8.4375,9.359375,4.03125,103
1696292855347,-0.09716797,-0.98101807,0.15911865,-1.953125,0.96875,5.625,104
1696292855387,-0.16894531,-1.0640259,0.18426514,-10.078125,-6.59375,-0.390625,105
1696292855427,-0.064941406,-0.8989868,0.15130615,-4.21875,-3.578125,0.03125,106
1696292855467,-0.16381836,-0.9260864,0.20306396,-1.9375,3.796875,3.625,107
1696292855507,-0.107910156,-0.96661377,0.20037842,0.078125,-0.921875,1.21875,108
1696292855547,-0.140625,-1.0684204,0.14471436,-1.75,-5.890625,2.46875,109
1696292855587,-0.123291016,-1.0122681,0.18377686,2.671875,-5.421875,-1.578125,110
1696292855627,-0.123046875,-0.9631958,0.14642334,-0.421875,0.828125,0.109375,111
1696292855667,-0.020019531,-0.92803955,0.14910889,9.84375,2.546875,-1.671875,112
1696292855707,-0.14453125,-0.9397583,0.20281982,9.40625,-1.421875,5.953125,113
1696292855747,-0.24438477,-1.0872192,0.20477295,-0.25,-4.5,8.25,114
1696292855787,-0.13598633,-1.0159302,0.20452881,13.359375,2.046875,7.046875,115
1696292855827,-0.11816406,-0.91973877,0.12322998,10.078125,3.578125,1.3125,116
1696292855867,0.0043945312,-0.9758911,0.02947998,8.1875,-1.1875,-1.5,117
1696292855907,-0.022949219,-0.9883423,0.048034668,3.84375,0.796875,-0.578125,118
1696292855947,-0.08081055,-1.0410767,0.12176514,6.96875,2.421875,2.90625,119
1696292855987,-0.14746094,-1.0447388,0.08905029,4.34375,2.0625,4.921875,120
1696292856027,-0.08984375,-0.989563,0.017028809,7.046875,2.3125,4.484375,121
1696292856067,-0.009277344,-1.0249634,-0.019104004,0.84375,-1.890625,-3.5,122
1696292856107,-0.110839844,-0.91363525,0.08758545,1.8125,-1.53125,-2.46875,123
1696292856147,-0.10961914,-1.0073853,0.105651855,-1.578125,-3.453125,-1.5625,124
1696292856187,-0.103515625,-1.053772,0.055358887,3.65625,2.34375,1.390625,125
1696292856227,-0.08569336,-1.0337524,0.07684326,9.625,3.203125,2.59375,126
1696292856267,-0.14208984,-0.97442627,0.101501465,14.4375,9.0,1.53125,127
1696292856307,-0.051757812,-0.97369385,-0.11602783,-2.015625,-9.6875,-1.171875,128
1696292856347,0.032470703,-0.9522095,-0.04156494,0.40625,-0.578125,-1.046875,129
1696292856387,-0.1430664,-0.9163208,0.18499756,2.046875,1.71875,0.515625,141
1696292856427,-0.09863281,-0.9854126,0.13739014,-2.453125,2.234375,1.515625,142
1696292856467,-0.1418457,-0.9949341,0.25164795,-1.53125,2.8125,2.65625,143
1696292856507,-0.28930664,-1.0354614,0.22479248,-4.453125,-2.234375,0.90625,144
1696292856547,-0.08984375,-0.97857666,0.21258545,1.03125,-1.0,-2.234375,145
1696292856587,-0.17016602,-0.9302368,0.17156982,-6.65625,0.53125,-0.359375,146
1696292856627,-0.10522461,-0.960022,0.15228271,-4.125,1.46875,-1.421875,147
1696292856667,-0.103271484,-0.9788208,0.2526245,-3.703125,0.90625,0.484375,148
1696292856707,-0.21875,-1.0061646,0.22503662,1.453125,-0.59375,4.921875,149
1696292856747,-0.14477539,-1.0383911,0.23480225,2.15625,-2.3125,3.796875,150
1696292856787,-0.14648438,-0.9602661,0.18890381,-1.625,-6.21875,1.671875,151
1696292856827,-0.12548828,-0.9536743,0.23577881,-0.46875,0.125,2.734375,152
1696292856867,-0.15234375,-0.95269775,0.19403076,-1.359375,0.453125,0.25,153
1696292856907,-0.12915039,-0.9663696,0.25408936,3.859375,1.453125,1.6875,154
1696292856947,-0.17675781,-1.0007935,0.19573975,-0.375,1.421875,4.671875,155
1696292856987,-0.16699219,-1.0349731,0.2218628,1.71875,-1.609375,5.515625,156
1696292857027,-0.12719727,-1.0076294,0.23309326,8.03125,-0.296875,3.53125,157
1696292857067,-0.122558594,-0.9456177,0.23797607,13.28125,0.75,2.921875,158
1696292857107,-0.11425781,-0.9890747,0.13787842,5.0625,-5.0,3.46875,159
1696292857147,-0.072753906,-1.0181274,0.08099365,7.828125,-7.234375,1.84375,160
1696292857187,-0.096191406,-1.017395,0.11932373,12.890625,5.171875,4.5625,161
1696292857227,-0.07373047,-0.93218994,0.016540527,10.0,-6.21875,2.296875,162
1696292857267,0.040283203,-1.0261841,-0.14727783,14.8125,10.390625,3.921875,163
1696292857307,0.05078125,-0.9385376,0.09613037,13.0625,13.984375,6.078125,164
1696292857347,-0.091796875,-0.8965454,0.113464355,-22.53125,4.0625,-6.046875,165
1696292857387,-0.20214844,-1.0308228,0.22161865,-0.515625,-3.015625,1.21875,166
1696292857427,-0.080322266,-1.039856,0.15374756,-12.71875,-8.140625,-11.546875,167
1696292857467,-0.061767578,-1.0161743,0.06512451,-7.28125,-9.140625,-3.234375,168
1696292857507,-0.15551758,-0.972229,0.15325928,-3.5625,-4.8125,-2.359375,169
1696292857547,-0.11816406,-0.9668579,0.1864624,-0.90625,1.5,-1.765625,170
1696292857587,-0.13989258,-0.9924927,0.12738037,-5.578125,-4.421875,1.078125,171
1696292857627,-0.07495117,-1.0046997,0.0927124,-7.4375,-5.953125,-2.703125,172
1696292857667,-0.11010742,-0.99835205,0.10394287,-6.28125,-3.140625,-3.75,173
1696292857707,-0.122558594,-0.9920044,0.21673584,-0.203125,3.390625,-0.015625,174
1696292857747,-0.1586914,-0.95977783,0.11126709,0.078125,0.625,0.9375,175
1696292857787,-0.041015625,-0.9956665,0.1749878,-4.359375,-1.359375,-4.703125,176
1696292857827,-0.14941406,-0.97003174,0.17669678,0.859375,3.359375,-1.078125,177
1696292857867,-0.17089844,-0.99224854,0.2555542,4.09375,-1.09375,-3.03125,178
1696292857907,-0.14379883,-0.99664307,0.25091553,5.125,-6.703125,-2.171875,179
1696292857947,-0.16796875,-1.017395,0.1449585,-1.296875,-9.296875,-0.8125,180
1696292857987,-0.21240234,-1.0061646,0.09320068,5.65625,6.109375,8.921875,181
1696292858027,-0.15258789,-1.0054321,0.028747559,2.96875,-1.640625,9.90625,182
1696292858067,-0.15625,-0.9751587,0.14398193,18.90625,11.359375,19.5,183
1696292858107,-0.13647461,-0.97442627,0.025817871,15.875,5.890625,12.828125,184
1696292858147,0.01928711,-0.942688,0.023864746,14.484375,3.984375,13.53125,185
1696292858187,0.007080078,-1.0217896,-0.039367676,2.453125,-7.828125,3.4375,186
1696292858227,0.0793457,-0.9277954,0.07684326,-4.0,-6.84375,-3.15625,187
1696292858267,0.11743164,-0.88116455,0.0692749,-13.734375,-1.875,-6.140625,188
1696292858307,-0.15429688,-1.08844,0.14471436,-15.15625,-7.703125,0.796875,189
1696292858347,-0.028076172,-1.1265259,0.13543701,-14.828125,-13.09375,-10.1875,190
1696292858387,-0.15234375,-0.92388916,0.0927124,-0.3125,-6.0,-7.28125,191
1696292858427,-0.020996094,-0.9092407,0.009460449,-13.265625,-9.40625,-1.984375,192
1696292858467,-0.18432617,-1.0083618,0.2501831,2.46875,4.015625,-0.265625,193
1696292858507,-0.25024414,-1.072815,0.22918701,2.40625,-6.296875,2.03125,194
1696292858547,-0.011230469,-0.9612427,0.044128418,-3.46875,-11.484375,-3.296875,195
1696292858587,-0.0949707,-0.9570923,0.08465576,-10.84375,-8.40625,-4.234375,196
1696292858627,-0.059814453,-0.93463135,0.22357178,-5.625,2.265625,-2.59375,197
1696292858667,-0.118652344,-1.0357056,0.13446045,1.0,3.4375,2.078125,198
1696292858707,-0.07421875,-1.0518188,0.113220215,-2.75,-2.03125,1.859375,199
1696292858747,-0.14526367,-1.0071411,0.15350342,-0.578125,0.34375,-1.9375,200
1696292858787,-0.14868164,-0.97906494,0.21746826,3.5,4.40625,-2.1875,201
1696292858827,-0.0859375,-0.94903564,0.12054443,-0.96875,3.203125,-0.9375,202
1696292858867,-0.07373047,-0.97198486,0.12200928,2.5625,9.234375,-0.421875,203
1696292858907,-0.11621094,-1.029602,0.12420654,-0.453125,-0.3125,4.25,204
1696292858947,-0.11816406,-1.0256958,0.17108154,-0.640625,-2.359375,-0.46875,205
1696292858987,-0.12231445,-0.9182739,0.17352295,2.84375,-3.140625,2.4375,206
1696292859027,-0.07397461,-0.97857666,0.1251831,-2.796875,1.046875,-0.34375,207
1696292859067,-0.07055664,-0.9837036,0.14666748,1.03125,-0.578125,-0.578125,208
1696292859107,-0.119140625,-0.97442627,0.19134521,4.78125,1.5,2.890625,209
1696292859147,-0.22875977,-1.0171509,0.168396,2.484375,3.234375,11.21875,210
1696292859187,-0.1796875,-1.0630493,0.16082764,4.171875,8.59375,14.1875,211
1696292859227,0.00024414062,-1.0254517,0.09466553,8.640625,7.765625,10.53125,212
1696292859267,0.014160156,-0.89727783,0.04486084,5.359375,0.0,5.75,213
1696292859307,0.026367188,-1.0159302,0.10101318,3.03125,1.6875,4.625,214
1696292859347,-0.0014648438,-1.0166626,0.062438965,7.03125,2.515625,0.5625,215
1696292859387,0.0769043,-1.0105591,0.06536865,7.9375,-1.109375,1.609375,216
1696292859427,0.025878906,-1.0244751,0.09515381,6.84375,-3.03125,-1.453125,217
1696292859467,0.00024414062,-1.0037231,0.048034668,3.75,-2.734375,-3.421875,218
1696292859507,0.0014648438,-0.95758057,-0.012512207,2.65625,-3.421875,1.234375,219
1696292859547,-0.033935547,-1.0391235,-0.062072754,-7.25,-11.140625,-0.90625,220
1696292859587,0.10986328,-0.90509033,-0.0025024414,10.53125,1.421875,-5.421875,221
1696292859627,-0.030029297,-0.84625244,0.05731201,-23.9375,-10.640625,-0.890625,222
1696292859667,-0.075927734,-1.0684204,0.20892334,-8.515625,4.59375,-7.671875,223
1696292859707,-0.2331543,-1.0073853,0.16741943,-5.671875,-0.6875,0.234375,224
1696292859747,0.0029296875,-1.0733032,0.05731201,-7.859375,-2.90625,-5.515625,225
1696292859787,-0.05102539,-0.9290161,0.14691162,-6.34375,-2.828125,-6.25,226
1696292859827,-0.12182617,-0.9902954,0.199646,-1.640625,-3.828125,-0.015625,227
1696292859867,-0.080078125,-0.98028564,0.06976318,-10.125,-2.875,-0.625,228
1696292859907,-0.038330078,-1.0176392,0.09124756,-4.40625,-1.15625,-4.203125,229
1696292859947,-0.06640625,-0.9763794,0.16546631,-2.09375,0.15625,-3.015625,230
1696292859987,-0.16748047,-1.0010376,0.25994873,9.796875,-1.453125,1.828125,231
1696292860027,-0.0126953125,-0.954895,0.047790527,-11.3125,-6.921875,-5.046875,232
1696292860067,0.012451172,-0.9434204,0.09954834,-7.4375,-0.046875,-1.90625,233
1696292860107,-0.031982422,-1.0210571,0.07489014,-8.6875,-3.640625,-4.515625,234
1696292860147,-0.0036621094,-1.0039673,0.24749756,-4.828125,-5.625,-4.8125,235
1696292860187,-0.19140625,-0.9417114,0.2374878,-6.15625,-0.59375,-7.15625,236
1696292860227,-0.19165039,-0.99786377,0.1930542,-6.5,-3.765625,-6.34375,237
1696292860267,-0.07788086,-1.0042114,0.22381592,-3.390625,-0.375,-9.546875,238
1696292860307,-0.25439453,-0.9697876,0.29364014,5.296875,2.6875,-1.703125,239
1696292860347,-0.23950195,-0.9973755,0.19354248,4.375,-5.3125,-0.34375,240
1696292860387,-0.17285156,-1.0022583,0.16107178,12.640625,-1.625,4.734375,241
1696292860427,-0.18652344,-0.9290161,0.13079834,11.203125,2.78125,3.625,242
1696292860467,-0.1328125,-1.006897,0.09222412,7.890625,3.59375,6.015625,243
1696292860507,-0.06616211,-1.013977,0.09222412,7.859375,3.1875,5.453125,244
1696292860547,0.0107421875,-0.9656372,0.0036010742,7.921875,-1.65625,6.09375,245
1696292860587,0.08886719,-1.0713501,-0.07183838,11.140625,4.328125,9.546875,246
1696292860627,0.02368164,-0.84381104,0.004333496,-5.109375,-2.34375,-2.296875,247
1696292860667,-0.09765625,-0.9290161,0.14544678,-12.921875,5.515625,3.140625,248
1696292860707,-0.17773438,-1.128479,0.20965576,-4.3125,4.96875,-1.203125,249
1696292860747,-0.06982422,-1.0742798,0.17596436,1.46875,-3.6875,-4.546875,250
1696292860787,-0.14648438,-0.9590454,0.09613037,-5.4375,-11.21875,-8.4375,251
1696292860827,-0.09423828,-0.9011841,0.0927124,-6.21875,-4.671875,-3.03125,252
1696292860867,-0.10522461,-0.98272705,0.14520264,-7.875,-0.578125,-5.8125,253
1696292860907,-0.1340332,-1.0181274,0.16204834,1.515625,0.25,-0.578125,254
1696292860947,-0.14526367,-1.0134888,0.10858154,0.125,0.59375,-1.625,255
1696292860987,-0.110839844,-0.98150635,0.15985107,1.921875,1.015625,-1.53125,256
1696292861027,-0.111083984,-0.97857666,0.11419678,-4.5,-5.4375,-0.765625,257
1696292861067,-0.10180664,-0.9692993,0.11273193,-1.171875,-1.203125,-0.078125,258
1696292861107,-0.05834961,-0.9885864,0.113464355,-4.140625,2.328125,-1.15625,259
1696292861147,-0.15966797,-1.0115356,0.19329834,-6.4375,4.25,-0.6875,260
1696292861187,-0.14233398,-1.010315,0.16229248,0.40625,-1.390625,0.296875,261
1696292861227,-0.1628418,-1.0076294,0.20233154,2.015625,-0.578125,2.953125,262
1696292861267,-0.18847656,-0.9817505,0.152771,0.53125,2.0625,2.015625,263
1696292861307,-0.099609375,-0.9470825,0.15911865,2.703125,6.671875,1.9375,264
1696292861347,-0.075927734,-1.0125122,0.038513184,-0.3125,3.125,2.203125,265
1696292861387,-0.041259766,-1.071106,0.17449951,-0.109375,-2.203125,2.953125,266
1696292861427,-0.08935547,-0.87945557,0.1395874,1.828125,3.28125,5.1875,267
1696292861467,-0.15112305,-1.0825806,0.2802124,4.890625,2.734375,4.171875,268
1696292861507,-0.048828125,-0.9446411,0.12786865,-4.78125,-6.515625,-5.625,269
1696292861547,-0.0017089844,-0.9702759,0.05657959,-3.75,-1.125,-1.078125,270
1696292861587,-0.11328125,-1.0005493,0.20062256,-0.578125,2.703125,2.9375,271
1696292861627,-0.1496582,-0.97784424,0.18182373,4.1875,-2.09375,7.75,272
1696292861667,-0.107177734,-1.0818481,0.14837646,-1.734375,0.890625,-0.859375,273
1696292861707,-0.122802734,-0.9385376,0.137146,3.703125,-5.484375,0.171875,274
1696292861747,-0.04248047,-0.9417114,0.03704834,-6.84375,-6.9375,-1.921875,275
1696292861787,-0.036865234,-0.94854736,0.1828003,-4.46875,-3.21875,-1.765625,276
1696292861827,-0.13623047,-1.0298462,0.14837646,-1.15625,1.5,-0.15625,277
1696292861867,-0.041992188,-1.0481567,0.12054443,-2.078125,-0.8125,-1.34375,278
1696292861907,-0.07324219,-1.0405884,0.089782715,-3.609375,-2.296875,1.09375,279
1696292861947,-0.08886719,-0.89508057,0.1786499,2.078125,-1.546875,-0.53125,280
1696292861987,-0.13916016,-0.95391846,0.16693115,-2.234375,4.09375,0.484375,281
1696292862027,-0.13452148,-1.0422974,0.11126709,-4.359375,6.5,3.828125,282
1696292862067,-0.123535156,-1.0374146,0.21453857,6.09375,7.21875,5.28125,283
1696292862107,-0.08105469,-0.9678345,0.18719482,6.15625,3.28125,6.984375,284
1696292862147,-0.07885742,-0.9627075,0.16082764,5.34375,0.28125,8.171875,285
1696292862187,0.009033203,-0.98101807,0.17572021,1.734375,3.78125,5.34375,286
1696292862227,-0.025390625,-0.98394775,0.16156006,-0.765625,-2.671875,4.40625,287
1696292862267,-0.03955078,-0.97735596,0.12615967,1.078125,-2.828125,4.53125,288
1696292862307,0.029541016,-1.0596313,0.12347412,1.640625,-8.21875,1.90625,289
1696292862347,-0.005859375,-1.0071411,0.09906006,4.875,-11.109375,-2.65625,290
1696292862387,-0.064697266,-0.95635986,0.07171631,7.328125,-0.375,-1.9375,291
1696292862427,-0.041503906,-0.9849243,0.013366699,10.359375,-8.21875,3.46875,292
1696292862467,0.09301758,-1.072815,-0.0032348633,0.9375,4.703125,-2.734375,293
1696292862507,0.0009765625,-0.7817993,0.06829834,-19.234375,-12.0625,-4.453125,294
1696292862547,-0.25463867,-0.99591064,0.2892456,-5.515625,0.234375,2.9375,295
1696292862587,-0.17822266,-1.0811157,0.17254639,1.109375,3.21875,0.703125,296
1696292862627,-0.0146484375,-1.0667114,0.11004639,-6.828125,-7.640625,-3.296875,297
1696292862667,0.008300781,-0.9524536,0.06414795,-5.828125,-2.375,-6.640625,298
1696292862707,-0.087890625,-0.9026489,0.21160889,-0.375,-4.078125,-4.96875,299
1696292862747,-0.037109375,-1.008606,0.15032959,-1.0,-0.734375,6.109375,300
1696292862787,-0.09692383,-1.0986938,0.10809326,-0.3125,-0.015625,-0.109375,301
1696292862827,-0.010253906,-0.9871216,0.11077881,0.5625,-2.671875,-1.046875,302
1696292862867,-0.07421875,-0.9714966,0.15814209,3.5,-2.28125,-2.0,303
1696292862907,-0.072265625,-0.9187622,0.08905029,-2.0,2.71875,-0.09375,304
1696292862947,-0.059570312,-1.0244751,0.16229248,-0.375,3.671875,1.484375,305
1696292862987,-0.10644531,-1.0535278,0.18963623,8.234375,-2.0625,4.015625,306
1696292863027,-0.08276367,-0.9685669,0.11151123,6.984375,0.125,-0.0625,307
1696292863067,-0.07373047,-0.95513916,0.16912842,11.53125,3.4375,2.984375,308
1696292863107,-0.027832031,-1.0088501,0.062927246,0.578125,-6.40625,2.59375,309
1696292863147,0.0637207,-1.0020142,-0.061584473,1.640625,0.46875,-2.5625,310
1696292863187,-0.0034179688,-0.9890747,0.09881592,-4.65625,-2.59375,-1.828125,311
1696292863227,-0.10864258,-1.0215454,0.10076904,3.65625,1.8125,-0.203125,312
1696292863267,-0.08227539,-1.0237427,0.08148193,0.09375,1.296875,-0.828125,313
1696292863307,-0.061767578,-0.9998169,0.06536865,-0.171875,-1.078125,-1.078125,314
1696292863347,-0.06640625,-1.0022583,0.050964355,-3.828125,-0.765625,-2.203125,315
1696292863387,-0.068603516,-0.9678345,0.10467529,-2.203125,-0.546875,-2.859375,316
1696292863427,-0.06689453,-1.0115356,0.101989746,2.375,2.25,-0.109375,317
1696292863467,-0.08911133,-1.0166626,0.0848999,-2.515625,5.1875,-2.4375,318
1696292863507,-0.06762695,-0.9680786,0.12030029,-0.140625,1.0625,-4.15625,319
1696292863547,-0.056396484,-0.9849243,0.11932373,9.765625,-4.21875,-0.296875,320
1696292863587,-0.13208008,-0.99420166,0.13372803,9.203125,-4.8125,-0.40625,321
1696292863627,-0.10253906,-1.0213013,0.09832764,10.796875,-2.109375,3.65625,322
1696292863667,-0.118652344,-1.0266724,0.039245605,12.296875,0.90625,4.3125,323
1696292863707,-0.072753906,-1.0271606,-0.014221191,14.328125,3.234375,5.015625,324
1696292863747,-0.029541016,-0.99957275,-0.02911377,9.84375,-0.484375,2.796875,325
1696292863787,-0.014160156,-0.9324341,-0.16143799,7.8125,-11.8125,6.734375,326
1696292863827,0.079833984,-0.93951416,-0.11578369,12.4375,8.40625,8.25,327
1696292863867,-0.05053711,-0.9204712,-0.07110596,-11.453125,-2.328125,8.9375,328
1696292863907,-0.048828125,-1.0266724,0.029724121,-0.828125,1.4375,3.375,329
1696292863947,-0.064453125,-1.0974731,0.01751709,-1.703125,-0.515625,4.671875,330
1696292863987,-0.060791016,-1.0042114,-0.05206299,6.984375,-2.0625,0.875,331
1696292864027,0.03125,-1.0056763,0.024108887,17.78125,3.375,4.5,332
1696292864067,-0.03491211,-0.94122314,0.014831543,6.25,0.640625,-3.65625,333
1696292864107,-0.022216797,-0.9873657,-0.055236816,-7.421875,-10.15625,0.859375,334
1696292864147,-0.010498047,-0.9981079,-0.08917236,8.515625,-1.3125,1.328125,335
1696292864187,0.034423828,-1.010315,-0.15655518,-0.296875,-0.484375,-1.15625,336
1696292864227,0.03125,-1.0169067,-0.11651611,-4.140625,5.671875,-4.515625,337
1696292864267,-0.028320312,-0.9612427,-0.10235596,2.703125,1.875,-3.5,338
1696292864307,0.061767578,-0.96954346,-0.17242432,-4.984375,-2.65625,-1.71875,339
1696292864347,0.03564453,-0.9678345,-0.11993408,-6.265625,1.796875,-2.8125,340
1696292864387,-0.07348633,-1.0327759,-0.014953613,-4.3125,0.046875,-3.359375,341
1696292864427,-0.08935547,-1.0178833,-0.023986816,-7.84375,-1.140625,-2.5,342
1696292864467,-0.05883789,-0.99346924,-0.007385254,-10.25,-3.03125,-5.125,343
1696292864507,-0.059570312,-1.0361938,-0.034973145,-6.421875,-4.015625,-5.03125,344
1696292864547,-0.049072266,-0.9578247,-0.03302002,-11.390625,3.609375,-7.765625,345
1696292864587,-0.15332031,-1.0093384,0.040222168,-6.03125,-5.9375,-3.75,346
1696292864627,-0.036865234,-0.9819946,-0.023986816,-3.453125,0.734375,-2.515625,347
1696292864667,-0.103271484,-1.0149536,-0.06768799,-5.828125,-3.421875,-2.640625,348
1696292864707,-0.012451172,-0.98394775,0.003112793,-5.84375,2.703125,-4.546875,349
1696292864747,-0.118896484,-1.0186157,0.051208496,-1.875,2.125,-1.546875,350
1696292864787,-0.07470703,-0.9812622,0.010925293,-5.5,3.046875,-3.296875,351
1696292864827,-0.11230469,-1.0049438,0.029724121,-3.296875,-2.328125,-2.71875,352
1696292864867,-0.08154297,-0.99298096,0.042907715,-4.109375,4.546875,-5.296875,353
1696292864907,-0.14941406,-1.0108032,0.078063965,1.4375,1.875,-2.671875,354
1696292864947,-0.03857422,-0.96832275,0.0045776367,1.109375,0.015625,-2.0,355
1696292864987,-0.11279297,-0.9824829,-0.034240723,-3.84375,-0.5625,-1.59375,356
1696292865027,-0.122802734,-0.9343872,-0.012023926,-6.25,-1.65625,0.796875,357
1696292865067,-0.12011719,-0.9819946,0.014343262,-12.796875,-0.84375,-1.796875,358
1696292865107,-0.15161133,-0.9885864,0.13372803,-8.734375,-1.796875,-1.203125,359
1696292865147,-0.16918945,-1.0264282,0.059020996,-3.296875,0.296875,0.796875,360
1696292865187,-0.12548828,-0.9924927,0.13690186,5.34375,0.859375,-0.78125,361
1696292865227,-0.1472168,-0.98028564,0.027770996,2.515625,4.1875,-0.15625,362
1696292865267,-0.08105469,-1.0015259,0.010925293,8.078125,-2.015625,-0.171875,363
1696292865307,0.001953125,-1.0046997,-0.113342285,-6.125,-13.140625,3.578125,364
1696292865347,-0.022705078,-0.97442627,-0.003967285,-5.34375,-4.046875,3.21875,365
1696292865387,-0.08154297,-0.93878174,0.097839355,-14.328125,-3.03125,0.09375,366
1696292865427,-0.18334961,-1.0405884,0.059753418,4.859375,1.71875,4.953125,367
1696292865467,-0.04321289,-1.0022583,0.19744873,5.28125,4.234375,1.328125,368
1696292865507,-0.29858398,-1.0547485,0.03778076,-6.453125,-5.046875,4.65625,369
1696292865547,-0.028808594,-1.0317993,0.08880615,-2.96875,-4.796875,-2.890625,370
1696292865587,-0.1694336,-0.94537354,0.08807373,3.0,-0.46875,2.46875,371
1696292865627,-0.10668945,-0.96173096,0.051452637,-1.65625,1.578125,1.484375,372
1696292865667,-0.03930664,-1.0112915,0.026062012,-0.640625,0.0625,-1.125,373
1696292865707,-0.10131836,-1.015686,0.07659912,-0.28125,1.84375,-1.125,374
1696292865747,-0.12915039,-0.9854126,0.09515381,5.15625,-3.15625,0.65625,375
1696292865787,-0.09057617,-1.0061646,0.11639404,0.71875,-2.234375,4.3125,376
1696292865827,-0.115478516,-1.038147,-0.03765869,-2.03125,-5.84375,5.640625,377
1696292865867,-0.057373047,-0.9656372,0.08270264,0.3125,-1.421875,4.4375,378
1696292865907,-0.07080078,-0.9800415,0.05340576,-1.703125,0.578125,3.5625,379
1696292865947,-0.05126953,-0.9512329,0.06365967,4.90625,-0.109375,5.375,380
1696292865987,-0.07910156,-1.0281372,0.06536865,3.875,1.09375,4.390625,381
1696292866027,-0.03881836,-0.98638916,0.020202637,4.265625,0.59375,3.875,382
1696292866067,-0.06225586,-1.0591431,0.019226074,-1.84375,-4.234375,4.03125,383
1696292866107,-0.049072266,-1.0005493,0.0138549805,-1.5625,-2.546875,2.5625,384
1696292866147,-0.011962891,-0.97613525,0.042419434,-4.5625,0.578125,1.8125,385
1696292866187,-0.035888672,-0.9949341,0.10443115,5.390625,1.734375,2.5625,386
1696292866227,-0.029785156,-1.0271606,0.0036010742,-10.21875,-0.09375,1.9375,387
1696292866267,-0.051757812,-0.9939575,0.113464355,-0.515625,2.234375,3.546875,388
1696292866307,-0.06542969,-1.0054321,0.059265137,6.65625,-0.15625,8.296875,389
1696292866347,-0.043945312,-1.0081177,0.039489746,6.015625,-1.59375,6.125,390
1696292866387,0.036132812,-0.99053955,-0.02178955,4.71875,-6.6875,0.796875,391
1696292866427,0.104003906,-1.0234985,-0.13043213,0.078125,-3.703125,-1.046875,392
1696292866467,0.10620117,-0.95440674,-0.0010375977,-2.328125,-6.1875,-0.734375,393
1696292866507,0.057861328,-0.86968994,-0.027893066,-14.265625,3.5625,-2.84375,394
1696292866547,-0.087646484,-1.0203247,0.15838623,-7.28125,3.421875,-3.0625,395
1696292866587,-0.049560547,-1.0545044,0.1720581,-1.953125,-3.15625,1.296875,396
1696292866627,-0.022705078,-1.0691528,0.02142334,-6.515625,-7.3125,-3.6875,397
1696292866667,-0.023925781,-0.95562744,0.081970215,-6.703125,-3.1875,-5.765625,398
1696292866707,-0.06225586,-0.97198486,0.105163574,-7.953125,-6.296875,-4.25,399
1696292866747,-0.052246094,-0.9656372,0.08856201,-3.65625,-2.765625,-4.1875,400
1696292866787,-0.026123047,-1.0142212,0.08660889,-6.03125,-1.953125,-4.828125,401
1696292866827,-0.040283203,-1.0352173,0.08807373,-3.9375,-5.34375,-4.6875,402
1696292866867,-0.050048828,-0.98272705,0.12445068,-2.625,-2.515625,-7.1875,403
1696292866907,-0.14160156,-1.0132446,0.1437378,-1.578125,-1.21875,-4.15625,404
1696292866947,-0.083740234,-0.98101807,0.082214355,-2.8125,4.359375,-3.625,405
1696292866987,-0.068359375,-0.99835205,0.08660889,-3.453125,0.359375,-6.671875,406
1696292867027,-0.06274414,-0.97320557,0.13641357,-1.890625,-1.640625,-1.09375,407
1696292867067,-0.12841797,-0.98101807,0.18792725,2.1875,-2.703125,-1.03125,408
1696292867107,-0.14013672,-1.0071411,0.15325928,5.359375,-0.03125,5.90625,409
1696292867147,-0.11987305,-1.0095825,0.07489014,-2.03125,-1.03125,1.515625,410
1696292867187,-0.083984375,-1.0154419,0.07733154,5.734375,1.125,-0.3125,411
1696292867227,-0.0146484375,-0.9692993,0.02142334,4.859375,-1.0,-3.6875,412
1696292867267,-0.04272461,-1.0374146,-0.046691895,-6.59375,1.203125,-0.15625,413
1696292867307,0.09326172,-1.0027466,-0.15679932,2.328125,11.21875,-5.203125,414
1696292867347,-0.08276367,-0.86602783,0.13397217,-13.203125,12.5625,1.203125,415
1696292867387,-0.16479492,-0.9805298,0.199646,-5.96875,10.125,-3.171875,416
1696292867427,-0.15356445,-0.98565674,0.2694702,-0.875,5.6875,-3.125,417
1696292867467,-0.083740234,-1.0383911,0.20404053,-6.265625,-4.203125,-0.28125,418
1696292867507,-0.1003418,-1.0859985,0.08660889,-6.890625,-5.6875,-2.546875,419
1696292867547,-0.08984375,-0.9089966,0.082458496,-7.453125,-6.1875,-2.265625,420
1696292867587,-0.10913086,-0.95513916,0.1671753,-4.375,-1.671875,-0.53125,421
1696292867627,-0.10888672,-0.9746704,0.15032959,-0.0625,0.1875,0.765625,422
1696292867667,-0.10473633,-1.0249634,0.17279053,2.625,0.390625,0.546875,423
1696292867707,-0.11279297,-1.0525513,0.14886475,1.34375,-1.453125,0.75,424
1696292867747,-0.10839844,-0.9841919,0.16156006,5.203125,-2.921875,-0.109375,425
1696292867787,-0.08154297,-0.9417114,0.1449585,2.1875,-2.96875,0.265625,426
1696292867827,-0.09326172,-0.98223877,0.1359253,3.390625,1.21875,-0.296875,427
1696292867867,-0.12084961,-0.9714966,0.11932373,0.65625,-2.140625,-2.1875,428
1696292867907,-0.103027344,-1.0100708,0.09515381,2.0625,-2.984375,-2.203125,429
1696292867947,-0.1027832,-1.0559692,0.09515381,-0.328125,-2.328125,-2.734375,430
1696292867987,-0.095214844,-0.96051025,0.1161499,1.234375,-1.46875,-4.3125,431
1696292868027,-0.10522461,-0.97125244,0.13421631,-0.265625,-0.3125,-2.046875,432
1696292868067,-0.16870117,-0.95928955,0.14471436,2.046875,4.09375,0.21875,433
1696292868107,-0.18139648,-1.0403442,0.1593628,0.859375,-0.609375,0.84375,434
1696292868147,-0.1315918,-1.006897,0.109069824,0.25,-5.640625,-2.65625,435
1696292868187,-0.14672852,-0.99957275,0.07611084,2.46875,-3.765625,-0.59375,436
1696292868227,-0.103027344,-0.9727173,0.09295654,3.1875,-2.65625,-0.921875,437
1696292868267,-0.12182617,-0.97198486,0.06854248,4.078125,-3.4375,2.078125,438
1696292868307,-0.06958008,-1.0237427,0.03338623,5.796875,-0.078125,2.75,439
1696292868347,0.022705078,-1.0105591,-0.19268799,0.015625,3.34375,-2.6875,440
1696292868387,0.053710938,-0.79278564,-0.027648926,-17.328125,-11.015625,7.703125,441
1696292868427,-0.18530273,-1.015686,0.25335693,-24.5,-2.4375,-0.484375,442
1696292868467,-0.39916992,-1.078186,0.2855835,-15.34375,16.203125,1.171875,443
1696292868507,-0.080078125,-1.0005493,0.2164917,-2.765625,2.046875,-5.515625,444
1696292868547,-0.15478516,-1.0591431,0.20501709,4.703125,0.375,0.21875,445
1696292868587,-0.16992188,-0.98516846,0.1239624,6.515625,3.8125,-5.09375,446
1696292868627,-0.10644531,-0.95098877,0.07684326,2.046875,5.65625,-1.453125,447
1696292868667,-0.032226562,-0.95440674,-0.0881958,4.078125,-5.78125,0.828125,448
1696292868707,-0.08325195,-1.0078735,0.09686279,15.828125,-1.171875,12.109375,449
1696292868747,-0.16821289,-1.036438,0.18328857,-2.640625,2.71875,8.796875,450
1696292868787,-0.09692383,-1.0696411,0.15325928,0.875,-13.984375,1.734375,451
1696292868827,-0.048583984,-0.8826294,0.10858154,-13.8125,-5.640625,-7.890625,452
1696292868867,-0.068359375,-0.9639282,0.08294678,-14.84375,3.0,-2.484375,453
1696292868907,-0.13354492,-1.0562134,0.1798706,2.5625,-4.046875,-2.375,454
1696292868947,-0.16015625,-1.0066528,0.17840576,5.625,0.4375,-2.0,455
1696292868987,-0.19482422,-0.9768677,0.13641357,12.0625,1.640625,5.15625,456
1696292869027,-0.10668945,-1.0042114,0.08880615,17.453125,-2.15625,11.34375,457
1696292869067,0.013183594,-1.0115356,-0.04107666,6.078125,-4.9375,5.765625,458
1696292869107,0.029296875,-0.9011841,-0.045715332,-2.40625,-10.4375,3.71875,459
1696292869147,-0.052978516,-0.8821411,0.15179443,3.84375,1.65625,4.828125,460
1696292869187,-0.21801758,-1.1294556,0.18182373,0.1875,9.6875,6.234375,461
1696292869227,-0.09643555,-1.0899048,0.11273193,9.953125,-1.6875,2.546875,462
1696292869267,-0.028320312,-0.9741821,0.15838623,20.125,-5.96875,10.90625,463
1696292869307,-0.13696289,-0.9968872,-0.014709473,6.90625,-10.125,10.203125,464
1696292869347,-0.03173828,-0.99884033,0.003112793,9.546875,-1.0625,1.59375,465
1696292869387,-0.01977539,-0.9697876,-0.024719238,2.4375,-4.96875,-1.796875,466
1696292869427,0.11450195,-0.9522095,-0.1272583,1.953125,-1.5625,-2.359375,467
1696292869467,0.059814453,-1.0056763,-0.1375122,1.296875,0.578125,-1.78125,468
1696292869507,-0.030029297,-0.9937134,-0.0713501,0.875,0.5,-1.484375,469
1696292869547,-0.20605469,-0.94488525,0.2662964,-10.5,-4.046875,-6.1875,491
1696292869587,-0.20996094,-0.9170532,0.23797607,-10.171875,-5.171875,-4.671875,492
1696292869627,-0.13232422,-0.95977783,0.27850342,-8.59375,-1.203125,-5.015625,493
1696292869667,-0.22949219,-0.9380493,0.2711792,-5.609375,-1.296875,-4.734375,494
1696292869707,-0.17138672,-0.96295166,0.30804443,-4.96875,0.453125,-5.65625,495
1696292869747,-0.21191406,-0.94732666,0.2826538,-1.90625,0.140625,-3.0625,496
1696292869787,-0.21728516,-0.94244385,0.29608154,-2.765625,0.703125,-4.5,497
1696292869827,-0.24121094,-0.944397,0.24700928,-3.109375,-6.046875,-4.890625,498
1696292869867,-0.25048828,-0.9619751,0.2506714,-3.609375,2.421875,-6.859375,499
1696292869907,-0.2548828,-0.9578247,0.2958374,-2.921875,3.171875,-9.59375,500
1696292869947,-0.25268555,-0.9348755,0.27313232,0.359375,2.53125,-4.765625,501
1696292869987,-0.29516602,-0.91778564,0.36224365,11.25,6.046875,3.359375,502
1696292870027,-0.22949219,-0.9319458,0.2975464,15.421875,10.765625,1.796875,503
1696292870067,-0.23828125,-0.94976807,0.23895264,9.59375,-0.65625,4.765625,504
1696292870107,-0.2355957,-0.9505005,0.16448975,9.40625,-6.015625,5.109375,505
1696292870147,-0.18896484,-0.9578247,0.17694092,-1.234375,-15.234375,7.9375,506
1696292870187,-0.18798828,-0.892395,0.30145264,6.6875,0.0625,10.125,507
1696292870227,-0.19213867,-0.9014282,0.2255249,-0.125,-1.984375,4.375,508
1696292870267,-0.23876953,-0.99468994,0.30316162,8.9375,4.125,13.71875,509
1696292870307,-0.2685547,-1.0588989,0.2897339,9.703125,-0.328125,5.953125,510
1696292870347,-0.1538086,-0.9871216,0.14569092,4.1875,-6.265625,5.59375,511
1696292870387,-0.1303711,-0.95269775,0.13885498,5.453125,-1.203125,2.03125,512
1696292870427,-0.13085938,-0.8862915,0.14910889,2.5,-3.046875,5.4375,513
1696292870467,-0.14355469,-1.0073853,0.18109131,9.296875,2.953125,9.078125,514
1696292870507,-0.1340332,-0.99835205,0.12445068,3.09375,-1.9375,7.90625,515
1696292870547,-0.072509766,-1.0281372,0.11395264,2.640625,0.75,5.5625,516
1696292870587,-0.13964844,-0.9819946,0.12738037,6.453125,0.3125,6.96875,517
1696292870627,-0.10424805,-0.9636841,0.15594482,8.703125,0.796875,6.6875,518
1696292870667,-0.12426758,-0.991272,0.11273193,-1.578125,0.0625,6.78125,519
1696292870707,-0.107177734,-1.0325317,0.11566162,1.34375,-1.09375,3.15625,520
1696292870747,-0.08105469,-0.9866333,0.13690186,4.28125,0.5625,3.03125,521
1696292870787,-0.09399414,-0.9710083,0.097351074,3.171875,0.203125,5.625,522
1696292870827,-0.041015625,-0.98321533,0.11273193,4.5,-0.734375,5.28125,523
1696292870867,-0.1081543,-1.0125122,0.12371826,3.140625,1.859375,6.265625,524
1696292870907,-0.07006836,-1.0078735,0.1227417,6.546875,-1.21875,5.921875,525
1696292870947,-0.059814453,-1.0122681,0.10662842,3.84375,2.296875,3.828125,526
1696292870987,-0.047851562,-0.9944458,0.05706787,6.859375,-1.75,5.15625,527
1696292871027,-0.037841797,-1.0303345,0.059753418,0.265625,-1.484375,5.921875,528
1696292871067,-0.064697266,-0.9817505,0.08538818,5.0,-0.65625,4.40625,529
1696292871107,-0.020996094,-0.9812622,0.03363037,0.875,-1.3125,4.40625,530
1696292871147,0.03173828,-0.9871216,0.015075684,1.921875,-1.5,3.140625,531
1696292871187,-0.015380859,-1.019104,-0.040100098,-16.1875,-9.4375,0.578125,532
1696292871227,0.09350586,-0.8320923,0.04876709,22.171875,1.171875,9.953125,533
1696292871267,-0.05126953,-1.0845337,0.17718506,-0.25,16.78125,6.734375,534
1696292871307,-0.055908203,-1.1372681,0.036315918,-4.421875,-18.3125,8.296875,535
1696292871347,0.0061035156,-1.0918579,-0.00030517578,7.875,4.296875,1.140625,536
1696292871387,0.00390625,-0.8533325,0.08270264,4.859375,-2.09375,2.90625,537
1696292871427,-0.045898438,-1.015686,0.121276855,6.234375,8.484375,6.828125,538
1696292871467,0.041259766,-1.00177,-0.026916504,1.5625,-6.03125,5.03125,539
1696292871507,0.07104492,-1.060852,-0.026672363,0.453125,2.3125,1.234375,540
1696292871547,-0.0075683594,-1.0108032,0.031921387,5.40625,-2.171875,2.65625,541
1696292871587,0.06298828,-0.9434204,-0.007385254,7.640625,1.296875,4.796875,542
1696292871627,0.0715332,-0.98638916,-0.043762207,1.109375,0.46875,2.6875,543
1696292871667,0.084472656,-0.9812622,0.010681152,-2.671875,-1.171875,-0.8125,544
1696292871707,0.032226562,-0.99102783,-0.010803223,1.234375,-2.890625,-3.578125,545
1696292871747,0.07543945,-1.0234985,-0.030822754,-2.609375,-3.75,-4.453125,546
1696292871787,0.0234375,-0.9751587,0.019470215,-0.203125,-2.9375,-4.28125,547
1696292871827,0.023925781,-1.0039673,-0.059387207,-5.046875,-5.671875,-7.390625,548
1696292871867,0.05126953,-1.0733032,-0.06451416,-2.453125,-3.296875,-8.84375,549
1696292871907,0.028808594,-0.94488525,0.016296387,-2.296875,-1.125,-9.0625,550
1696292871947,0.011962891,-1.0220337,0.001159668,-7.8125,0.4375,-10.40625,551
1696292871987,-0.021972656,-1.0176392,0.046813965,-3.90625,-3.828125,-10.109375,552
1696292872027,-0.06665039,-0.99957275,0.039245605,6.046875,1.03125,-2.90625,553
1696292872067,-0.111572266,-0.9890747,-0.016906738,-0.625,-2.5625,-1.328125,554
1696292872107,-0.06762695,-1.0059204,-0.014953613,-1.0,-2.765625,-3.859375,555
1696292872147,-0.052490234,-0.98931885,0.009216309,-3.515625,-4.125,-2.859375,556
1696292872187,-0.0546875,-0.98223877,-0.0012817383,-1.875,-0.28125,-3.109375,557
1696292872227,-0.0029296875,-1.0144653,-0.13580322,-3.140625,-5.53125,-2.28125,558
1696292872267,0.09863281,-1.0825806,-0.08477783,-6.703125,2.421875,-14.8125,559
1696292872307,0.038330078,-0.736145,0.00018310547,-25.984375,-11.03125,-7.453125,560
1696292872347,-0.2277832,-1.0061646,0.28533936,-16.0,8.78125,-10.125,561
1696292872387,-0.2175293,-1.0945435,0.105651855,-5.21875,-0.203125,0.78125,562
1696292872427,0.011962891,-1.0803833,0.10491943,-7.140625,-3.03125,-6.78125,563
1696292872467,-0.14208984,-0.9585571,0.14398193,0.9375,-0.578125,-5.765625,564
1696292872507,-0.18457031,-0.9307251,0.15740967,-5.703125,-0.421875,-3.0625,565
1696292872547,-0.096191406,-0.9590454,0.11126709,-5.9375,-0.296875,0.359375,566
1696292872587,-0.13256836,-1.0100708,0.074157715,-9.640625,-0.921875,-2.59375,567
1696292872627,-0.13256836,-1.0552368,0.105895996,-8.03125,0.140625,-5.53125,568
1696292872667,-0.14379883,-0.97906494,0.14642334,-4.0625,-0.625,-5.9375,569
1696292872707,-0.123291016,-0.93218994,0.1630249,-6.40625,-2.078125,-4.5625,570
1696292872747,-0.12158203,-0.95098877,0.18988037,-6.28125,1.03125,-3.5625,571
1696292872787,-0.13061523,-1.0274048,0.16009521,-8.859375,0.65625,-2.921875,572
1696292872827,-0.22363281,-1.0078735,0.2374878,0.328125,-1.234375,-3.0625,573
1696292872867,-0.19604492,-0.987854,0.2218628,0.5625,-2.828125,-2.21875,574
1696292872907,-0.18579102,-0.9937134,0.17303467,6.4375,-1.390625,1.640625,575
1696292872947,-0.17358398,-0.99591064,0.08294678,9.1875,-0.640625,-1.359375,576
1696292872987,-0.03149414,-0.9883423,-0.17999268,23.21875,3.859375,7.203125,577
1696292873027,-0.03564453,-0.8543091,0.09613037,11.40625,24.6875,14.359375,578
1696292873067,-0.20776367,-0.99420166,0.23626709,-17.9375,15.59375,4.875,579
1696292873107,-0.28051758,-0.9468384,0.2579956,-2.125,3.78125,1.421875,580
1696292873147,-0.0703125,-1.0256958,0.2518921,-10.890625,-8.96875,-10.171875,581
1696292873187,0.07543945,-1.0501099,0.024108887,-15.453125,-9.6875,-4.359375,582
1696292873227,-0.25976562,-0.9627075,0.12640381,-11.015625,-9.90625,-2.4375,583
1696292873267,-0.13720703,-0.9212036,0.17791748,-8.125,-2.71875,-10.171875,584
1696292873307,-0.17626953,-1.0010376,0.21014404,-2.09375,-3.6875,1.296875,585
1696292873347,-0.17016602,-0.9819946,0.16522217,-8.328125,-5.359375,-3.234375,586
1696292873387,-0.15795898,-1.0039673,0.20355225,-8.328125,-3.46875,-1.125,587
1696292873427,-0.18701172,-0.9505005,0.2164917,-6.171875,-1.5,-3.109375,588
1696292873467,-0.15844727,-0.96221924,0.23065186,-5.796875,-1.6875,0.671875,589
1696292873507,-0.18847656,-0.96661377,0.22576904,-6.015625,-1.796875,-0.4375,590
1696292873547,-0.1694336,-0.9463501,0.24285889,-5.21875,1.0625,-2.4375,591
1696292873587,-0.18115234,-0.9873657,0.25531006,-3.828125,0.3125,-0.765625,592
1696292873627,-0.2055664,-0.95806885,0.25286865,-0.171875,1.90625,0.359375,593
1696292873667,-0.19702148,-0.96759033,0.26019287,6.09375,3.015625,1.59375,594
1696292873707,-0.20385742,-0.9834595,0.26263428,5.0,0.359375,0.46875,595
1696292873747,-0.1887207,-0.9590454,0.26068115,7.71875,-1.59375,-0.109375,596
1696292873787,-0.17236328,-0.99420166,0.21575928,4.625,-2.1875,1.09375,597
1696292873827,-0.19848633,-0.9849243,0.11834717,4.578125,5.84375,1.203125,598
1696292873867,-0.119384766,-0.98931885,0.152771,5.09375,-3.015625,-0.65625,599
1696292873907,-0.10522461,-0.93707275,0.15863037,10.296875,-3.75,2.875,600
1696292873947,-0.13598633,-0.9585571,0.08343506,7.703125,-2.703125,6.515625,601
1696292873987,-0.087646484,-1.0093384,-0.023254395,6.59375,-11.140625,8.359375,602
1696292874027,-0.053710938,-0.92144775,0.15716553,10.28125,0.90625,11.4375,603
1696292874067,-0.21240234,-0.99957275,0.21820068,-4.9375,12.90625,5.265625,604
1696292874107,-0.27319336,-0.9446411,0.19232178,5.03125,2.984375,2.609375,605
1696292874147,-0.12597656,-1.0339966,0.30584717,11.046875,-4.171875,10.59375,606
1696292874187,-0.18310547,-1.0613403,0.061950684,-3.359375,-9.84375,2.3125,607
1696292874227,-0.063964844,-0.9336548,0.074401855,10.359375,-3.078125,4.453125,608
1696292874267,-0.064941406,-0.94122314,0.055358887,-0.734375,-4.9375,6.171875,609
1696292874307,-0.057373047,-0.99957275,0.06072998,-0.046875,1.734375,4.765625,610
1696292874347,-0.049560547,-1.0081177,0.09246826,8.734375,-0.71875,6.359375,611
1696292874387,-0.0029296875,-0.99591064,0.09564209,3.375,3.09375,4.859375,612
1696292874427,-0.10864258,-1.0007935,0.089538574,1.234375,-1.15625,4.140625,613
1696292874467,-0.06591797,-1.0234985,0.10882568,1.375,0.15625,4.078125,614
1696292874507,-0.111328125,-1.003479,0.11199951,3.53125,-1.890625,3.265625,615
1696292874547,-0.02734375,-0.9859009,0.031677246,-2.203125,-0.859375,1.1875,616
1696292874587,0.020019531,-0.96759033,-0.012023926,-4.59375,-1.03125,-0.859375,617
1696292874627,0.016601562,-0.9512329,0.12567139,3.140625,-1.8125,-1.203125,618
1696292874667,-0.1237793,-1.0354614,0.16546631,4.5625,6.875,5.40625,619
1696292874707,-0.092041016,-1.0689087,0.04095459,-0.4375,-5.6875,4.671875,620
1696292874747,0.02758789,-1.0540161,0.14007568,6.765625,3.5,2.859375,621
1696292874787,-0.15039062,-0.9380493,0.09613037,1.53125,0.625,0.0625,622
1696292874827,-0.03125,-0.92681885,0.070251465,5.6875,1.40625,4.0,623
1696292874867,-0.035888672,-0.99786377,0.06829834,7.953125,-0.078125,9.125,624
1696292874907,-0.026855469,-1.0637817,0.013122559,1.96875,-9.28125,5.03125,625
1696292874947,0.02758789,-1.0454712,-0.023010254,-0.140625,-6.359375,0.9375,626
1696292874987,0.0,-0.96539307,-0.038635254,5.953125,-0.796875,1.71875,627
1696292875027,0.103027344,-1.0418091,-0.10357666,-11.484375,0.21875,-2.03125,628
1696292875067,0.04711914,-0.8518677,-0.016418457,-14.84375,-12.078125,-0.046875,629
1696292875107,0.014404297,-0.97369385,0.1293335,-11.515625,9.59375,-5.390625,630
1696292875147,-0.10205078,-1.0366821,0.093444824,-4.1875,-0.6875,1.984375,631
1696292875187,0.02758789,-1.0227661,0.12347412,1.53125,1.59375,-0.53125,632
1696292875227,-0.052001953,-1.0178833,0.11175537,-0.34375,-3.859375,-1.5625,633
1696292875267,-0.037597656,-0.99298096,0.07977295,-6.40625,-2.984375,-3.53125,634
1696292875307,-0.038085938,-0.97076416,0.12054443,-3.34375,-1.171875,-2.859375,635
1696292875347,-0.04711914,-1.0147095,0.12298584,-4.171875,-2.9375,-1.078125,636
1696292875387,-0.037597656,-1.0064087,0.098083496,-3.4375,-4.359375,-2.78125,637
1696292875427,-0.04663086,-0.9829712,0.124694824,0.671875,-0.53125,-1.5625,638
1696292875467,-0.041503906,-0.9771118,0.12445068,-1.09375,-0.578125,-1.8125,639
1696292875507,-0.035888672,-1.0037231,0.12176514,-0.25,-2.46875,0.875,640
1696292875547,-0.024902344,-1.0349731,0.08660889,0.703125,-1.25,-1.578125,641
1696292875587,-0.04296875,-1.0020142,0.078552246,-0.671875,-1.515625,-0.84375,642
1696292875627,-0.048339844,-1.0286255,0.09613037,0.5,2.8125,-2.484375,643
1696292875667,-0.08618164,-1.0100708,0.06854248,4.3125,2.8125,-1.359375,644
1696292875707,-0.004638672,-0.9512329,0.00970459,3.609375,-2.9375,-3.40625,645
1696292875747,0.059326172,-1.0410767,-0.09552002,2.546875,-7.28125,-5.015625,646
1696292875787,0.07861328,-0.9390259,-0.049865723,-5.734375,0.765625,-5.03125,647
1696292875827,-0.035888672,-0.8357544,0.124938965,-12.9375,-5.296875,-2.921875,648
1696292875867,-0.07299805,-1.093811,0.15032959,-8.71875,2.796875,-2.03125,649
1696292875907,-0.09301758,-1.1296997,0.14837646,-7.546875,-1.328125,-3.03125,650
1696292875947,-0.13256836,-1.0281372,0.14324951,-0.625,-4.734375,-3.375,651
1696292875987,-0.10107422,-0.9817505,0.086120605,-4.1875,-3.9375,-6.953125,652
1696292876027,-0.076171875,-0.892395,0.113464355,-7.640625,-5.234375,-7.140625,653
1696292876067,-0.10522461,-0.9541626,0.16888428,-6.65625,-2.765625,-3.5625,654
1696292876107,-0.19873047,-1.0640259,0.13665771,-6.65625,-5.859375,0.984375,655
1696292876147,-0.07373047,-1.036438,0.09710693,-3.546875,-2.921875,-5.046875,656
1696292876187,-0.087646484,-1.0022583,0.09881592,-8.140625,-4.359375,-7.0,657
1696292876227,-0.07543945,-0.9468384,0.11810303,-6.8125,-1.890625,-6.015625,658
1696292876267,-0.122802734,-0.97003174,0.16741943,-6.9375,0.234375,-5.46875,659
1696292876307,-0.1159668,-0.9915161,0.16009521,-7.40625,-0.203125,-2.640625,660
1696292876347,-0.13720703,-1.02594,0.16131592,-9.703125,-2.296875,-3.40625,661
1696292876387,-0.1772461,-0.9768677,0.24798584,-3.1875,1.203125,-6.796875,662
1696292876427,-0.1743164,-0.93341064,0.23406982,-4.703125,-2.265625,-3.890625,663
1696292876467,-0.12402344,-0.9829712,0.22821045,-5.359375,-2.59375,-3.703125,664
1696292876507,-0.15893555,-0.93463135,0.24139404,-6.015625,-4.046875,-3.28125,665
1696292876547,-0.16723633,-0.991272,0.2518921,-8.359375,-5.90625,-2.75,666
1696292876587,-0.17749023,-0.9595337,0.28045654,-2.546875,-4.265625,-2.046875,667
1696292876627,-0.25585938,-0.93341064,0.2975464,2.0,-3.171875,1.421875,668
1696292876667,-0.22802734,-0.98028564,0.2843628,2.171875,-3.703125,2.984375,669
1696292876707,-0.21313477,-0.9854126,0.26312256,12.734375,1.921875,5.125,670
1696292876747,-0.22729492,-0.9771118,0.21234131,9.609375,-1.984375,6.8125,671
1696292876787,-0.22070312,-1.0049438,0.20306396,10.078125,2.59375,4.0,672
1696292876827,-0.19873047,-0.9829712,0.093444824,9.390625,7.25,3.625,673
1696292876867,-0.03125,-0.97198486,0.06048584,18.34375,7.84375,-1.96875,674
1696292876907,-0.022460938,-0.958313,-0.034484863,6.515625,-8.234375,4.703125,675
1696292876947,0.092041016,-0.9429321,-0.16192627,-0.984375,-2.546875,1.328125,676
1696292876987,-0.049316406,-0.87994385,0.1305542,-6.984375,7.671875,9.890625,677
1696292877027,-0.27197266,-0.9915161,0.22332764,-3.6875,9.640625,11.421875,678
1696292877067,-0.19677734,-1.0586548,0.2555542,6.40625,0.953125,6.296875,679
1696292877107,-0.14648438,-1.0579224,0.2230835,-7.15625,-12.484375,-1.90625,680
1696292877147,-0.06713867,-1.0198364,0.08099365,-1.953125,-1.265625,-1.203125,681
1696292877187,-0.07373047,-0.94317627,0.10467529,-6.125,-3.859375,-4.671875,682
1696292877227,-0.08300781,-0.93292236,0.16693115,-5.125,-0.78125,-2.4375,683
1696292877267,-0.1665039,-0.9512329,0.20355225,0.203125,4.34375,2.9375,684
1696292877307,-0.15795898,-1.0767212,0.17425537,-3.40625,-1.5,2.09375,685
1696292877347,-0.056396484,-1.0498657,0.15301514,4.390625,1.046875,0.78125,686
1696292877387,-0.11303711,-0.94195557,0.1593628,1.28125,-2.34375,0.453125,687
1696292877427,-0.052001953,-0.93096924,0.10662842,-0.03125,-3.265625,2.359375,688
1696292877467,-0.041503906,-0.93927,0.13372803,-2.4375,0.359375,2.046875,689
1696292877507,-0.15014648,-1.0527954,0.16741943,-3.296875,3.5625,1.984375,690
1696292877547,-0.12402344,-0.98931885,0.18060303,5.234375,2.328125,-0.125,691
1696292877587,-0.14624023,-0.99713135,0.20526123,4.65625,0.515625,4.828125,692
1696292877627,-0.111816406,-0.9907837,0.13616943,7.09375,0.8125,3.46875,693
1696292877667,-0.0769043,-1.0020142,0.0848999,-0.140625,7.328125,2.09375,694
1696292877707,-0.05810547,-0.9758911,0.13397217,2.59375,7.34375,-0.609375,695
1696292877747,-0.096191406,-0.9517212,0.14154053,7.3125,2.875,3.140625,696
1696292877787,-0.07299805,-0.9680786,0.09442139,4.390625,-2.90625,6.015625,697
1696292877827,-0.07299805,-1.0962524,0.12249756,-1.984375,-3.5,7.265625,698
1696292877867,-0.0793457,-1.0007935,0.13787842,8.671875,-3.390625,3.078125,699
1696292877907,-0.040039062,-0.93341064,0.09295654,-0.3125,-3.4375,3.390625,700
1696292877947,0.013671875,-0.98638916,0.09686279,2.328125,1.796875,2.34375,701
1696292877987,-0.020751953,-0.9734497,0.08050537,3.40625,2.078125,-0.90625,702
1696292878027,-0.06567383,-1.0105591,0.070007324,2.0625,0.875,2.21875,703
1696292878067,-0.02368164,-1.0332642,0.06878662,2.3125,-1.125,3.3125,704
1696292878107,-0.0625,-1.0149536,0.101989746,4.09375,1.40625,1.328125,705
1696292878147,-0.05908203,-0.97906494,0.09490967,3.234375,-0.484375,1.609375,706
1696292878187,-0.0061035156,-0.9939575,0.035339355,-0.046875,-1.984375,0.21875,707
1696292878227,-0.03540039,-1.0088501,0.074157715,1.25,-0.109375,-0.796875,708
1696292878267,-0.053710938,-1.0144653,0.0692749,1.265625,-1.984375,-0.375,709
1696292878307,-0.034179688,-0.99664307,0.09075928,6.28125,-1.203125,1.765625,710
1696292878347,-0.052490234,-0.9944458,0.0914917,2.40625,-2.765625,1.375,711
1696292878387,-0.060058594,-1.0291138,0.07171631,-1.53125,-4.984375,-1.453125,712
1696292878427,-0.095458984,-1.0300903,0.012634277,-6.046875,-9.109375,-4.671875,713
1696292878467,0.03857422,-0.9690552,0.039489746,-9.96875,-4.953125,3.578125,714
1696292878507,-0.037109375,-0.9902954,0.03363037,-2.53125,-6.921875,-6.46875,715
1696292878547,-0.044189453,-1.038147,0.051940918,3.8125,-4.734375,-6.65625,716
1696292878587,-0.052490234,-0.99298096,0.06463623,0.21875,-4.5625,-5.9375,717
1696292878627,-0.0546875,-1.0317993,0.047546387,-0.1875,-2.765625,-1.421875,718
1696292878667,-0.041748047,-1.029602,0.03265381,0.890625,-5.484375,-5.671875,719
1696292878707,-0.03149414,-0.9729614,0.050720215,0.578125,-2.09375,-2.234375,720
1696292878747,-0.056152344,-0.9961548,0.048034668,1.671875,-1.796875,-1.984375,721
1696292878787,-0.048828125,-0.9944458,0.051452637,0.078125,0.546875,-3.59375,722
1696292878827,-0.043945312,-0.9866333,0.007751465,-2.109375,-4.09375,-0.9375,723
1696292878867,-0.029052734,-0.97906494,-0.0134887695,-5.09375,-4.125,0.09375,724
1696292878907,-0.038330078,-0.96466064,0.07635498,-2.953125,-1.328125,1.921875,725
1696292878947,-0.07373047,-1.0027466,0.0065307617,-12.8125,-9.765625,1.078125,726
1696292878987,-0.050048828,-0.9871216,0.09979248,-7.65625,-0.015625,-7.53125,727
1696292879027,-0.11010742,-0.9788208,0.13739014,-11.015625,6.84375,-5.171875,728
1696292879067,-0.12207031,-1.0305786,0.14886475,-11.96875,-5.296875,-3.296875,729
1696292879107,-0.09326172,-1.0305786,0.14349365,-5.890625,3.40625,-3.5,730
1696292879147,-0.16333008,-0.9807739,0.2008667,-4.71875,2.03125,-7.0625,731
1696292879187,-0.13427734,-0.9717407,0.14422607,-6.546875,-3.78125,-2.40625,732
1696292879227,-0.07446289,-0.92437744,0.17303467,-3.796875,-1.40625,-5.46875,733
1696292879267,-0.14501953,-0.9644165,0.15057373,-9.75,0.0,0.46875,734
1696292879307,-0.13574219,-1.0650024,0.1942749,-1.875,3.0625,-0.5625,735
1696292879347,-0.12719727,-1.0232544,0.16937256,3.578125,-0.734375,-1.078125,736
1696292879387,-0.09741211,-0.9170532,0.1605835,-5.5,-6.578125,-4.125,737
1696292879427,-0.09887695,-0.9338989,0.14666748,-6.1875,-0.46875,-0.5,738
1696292879467,-0.12451172,-0.9973755,0.13568115,-9.640625,-2.75,-4.59375,739
1696292879507,-0.10888672,-1.0044556,0.25823975,-0.9375,0.171875,-1.40625,740
1696292879547,-0.22485352,-0.98028564,0.22064209,4.171875,2.78125,2.1875,741
1696292879587,-0.17529297,-0.9932251,0.21209717,1.75,3.140625,4.34375,742
1696292879627,-0.13305664,-1.000061,0.20062256,5.46875,2.953125,3.8125,743
1696292879667,-0.18701172,-0.95880127,0.20697021,5.421875,1.53125,3.515625,744
1696292879707,-0.14746094,-0.9890747,0.17718506,3.15625,-3.5625,2.59375,745
1696292879747,-0.052001953,-0.9902954,0.051208496,7.484375,-8.609375,0.453125,746
1696292879787,0.0107421875,-1.0388794,-0.0025024414,18.328125,8.109375,7.0,747
1696292879827,-0.0021972656,-0.95806885,0.14569092,15.578125,3.21875,3.546875,748
1696292879867,-0.064941406,-0.8809204,0.07684326,-10.5,4.875,3.1875,749
1696292879907,-0.17529297,-1.031311,0.19525146,-0.078125,4.109375,7.234375,750
1696292879947,-0.048095703,-1.0386353,0.1798706,3.03125,0.078125,3.921875,751
1696292879987,-0.09692383,-1.0530396,0.10491943,-8.046875,-6.359375,1.21875,752
1696292880027,-0.14624023,-0.9595337,0.11126709,-1.53125,-5.09375,-1.34375,753
1696292880067,-0.06567383,-0.96099854,0.13421631,-1.859375,-1.96875,1.015625,754
1696292880107,-0.060302734,-0.96661377,0.12567139,2.21875,0.125,2.203125,755
1696292880147,-0.0925293,-0.9902954,0.11077881,-0.53125,0.15625,2.671875,756
1696292880187,-0.061279297,-1.0249634,0.073913574,0.875,1.75,1.546875,757
1696292880227,-0.064208984,-1.0022583,0.042419434,2.234375,5.40625,0.609375,758
1696292880267,-0.0029296875,-0.93634033,0.04852295,6.328125,6.953125,1.296875,759
1696292880307,0.01171875,-0.9241333,0.1798706,10.15625,6.9375,5.234375,760
1696292880347,-0.13061523,-1.0379028,0.121520996,-7.265625,-1.4375,3.09375,761
1696292880387,-0.053955078,-1.0835571,0.13128662,2.703125,0.203125,1.171875,762
1696292880427,-0.115722656,-0.9939575,0.16033936,2.40625,-0.75,2.5,763
1696292880467,-0.095458984,-1.0108032,0.058776855,-3.953125,-6.90625,0.375,764
1696292880507,-0.009277344,-0.9343872,0.10882568,0.546875,-1.203125,-1.515625,765
1696292880547,-0.088378906,-0.96954346,0.1564331,3.3125,-0.203125,1.125,766
1696292880587,-0.068847656,-1.0305786,0.08538818,-4.421875,-0.84375,1.90625,767
1696292880627,-0.021484375,-1.0176392,0.1149292,3.125,0.234375,3.328125,768
1696292880667,-0.07006836,-1.0632935,0.06121826,-0.4375,-2.125,4.6875,769
1696292880707,-0.028320312,-0.9866333,0.097351074,2.40625,1.8125,-2.265625,770
1696292880747,-0.045166016,-0.9421997,0.06781006,1.375,0.90625,0.90625,771
1696292880787,0.01586914,-0.99786377,0.08660889,2.4375,2.6875,-0.890625,772
1696292880827,-0.015625,-0.972229,0.053894043,-2.859375,-2.203125,-0.25,773
1696292880867,-0.036865234,-1.029602,0.057556152,-3.515625,-2.65625,0.4375,774
1696292880907,-0.0637207,-1.0154419,0.08758545,-1.328125,-0.890625,-0.609375,775
1696292880947,-0.06274414,-0.96099854,0.10784912,3.78125,-0.46875,0.875,776
1696292880987,-0.05810547,-0.9741821,0.10296631,-0.09375,-0.78125,0.484375,777
1696292881027,-0.017822266,-0.9771118,0.09051514,-2.4375,-4.09375,1.0,778
1696292881067,-0.05419922,-1.0535278,0.06829834,0.140625,-7.734375,-2.53125,779
1696292881107,-0.047851562,-1.0110474,0.054138184,-1.359375,-10.078125,-6.859375,780
1696292881147,-0.08227539,-0.9932251,0.10467529,4.46875,-3.75,-2.375,781
1696292881187,-0.067871094,-0.9985962,0.057556152,-0.578125,-5.03125,-0.609375,782
1696292881227,-0.03491211,-0.9692993,-0.005432129,9.9375,-4.640625,5.703125,783
1696292881267,0.042236328,-1.0132446,-0.03375244,4.875,4.03125,2.46875,784
1696292881307,0.008544922,-1.0159302,0.019958496,2.609375,6.5625,-7.34375,785
1696292881347,-0.056396484,-0.83551025,-0.028137207,-16.0625,-5.109375,-3.296875,786
1696292881387,-0.0715332,-1.0303345,0.14788818,-9.734375,11.890625,-7.078125,787
1696292881427,-0.13671875,-1.0003052,0.1251831,-5.09375,5.421875,-4.046875,788
1696292881467,0.040039062,-1.0357056,0.16815186,-7.65625,-3.53125,-6.984375,789
1696292881507,-0.09301758,-0.9780884,0.17352295,-1.9375,-4.6875,-1.90625,790
1696292881547,-0.18310547,-1.0425415,0.16400146,-1.796875,-4.734375,1.3125,791
1696292881587,-0.14990234,-1.0071411,0.12982178,-4.0,-10.140625,0.328125,792
1696292881627,-0.064453125,-0.9649048,0.053649902,-8.953125,-4.453125,-3.09375,793
1696292881667,-0.088134766,-0.95147705,0.15252686,-6.5,-1.734375,-5.59375,794
1696292881707,-0.1171875,-0.97003174,0.17352295,-1.03125,0.703125,-1.65625,795
1696292881747,-0.103271484,-1.0120239,0.11541748,-0.578125,0.96875,3.484375,796
1696292881787,-0.08154297,-1.0354614,0.17938232,4.625,2.890625,4.203125,797
1696292881827,-0.14160156,-1.0093384,0.17889404,1.484375,0.9375,3.65625,798
1696292881867,-0.12182617,-0.9859009,0.1630249,1.359375,0.609375,1.40625,799
1696292881907,-0.110839844,-0.9619751,0.15325928,-2.28125,2.125,0.546875,800
1696292881947,-0.07543945,-0.9673462,0.14837646,-9.171875,1.390625,-1.921875,801
1696292881987,-0.1015625,-1.0081177,0.14276123,-5.765625,-2.890625,0.640625,802
1696292882027,-0.13061523,-1.0315552,0.15887451,2.34375,-4.703125,4.28125,803
1696292882067,-0.04296875,-1.0039673,0.11590576,4.921875,-5.921875,3.015625,804
1696292882107,-0.02319336,-0.9517212,0.089538574,8.828125,-8.390625,4.75,805
1696292882147,0.016845703,-1.0859985,-0.12286377,5.28125,9.46875,3.25,806
1696292882187,-0.02734375,-0.89923096,0.06561279,6.59375,4.4375,3.4375,807
1696292882227,0.004638672,-0.8706665,0.16229248,-11.890625,6.546875,2.171875,808
1696292882267,-0.22680664,-1.0332642,0.2753296,-2.40625,13.46875,2.15625,809
1696292882307,-0.12231445,-1.0510864,0.2453003,3.328125,-6.5625,1.921875,810
1696292882347,0.09008789,-1.0857544,0.11517334,-9.90625,-6.46875,-3.015625,811
1696292882387,-0.21948242,-0.9312134,0.11639404,0.6875,-5.296875,-1.859375,812
1696292882427,-0.111328125,-0.9470825,0.1774292,-6.65625,-3.421875,-4.53125,813
1696292882467,-0.028320312,-0.97857666,0.16009521,2.046875,-0.5,0.09375,814
1696292882507,-0.056152344,-1.0349731,0.09564209,-5.796875,-3.25,-0.84375,815
1696292882547,-0.040771484,-1.0198364,0.14227295,1.390625,1.171875,-2.75,816
1696292882587,-0.079589844,-0.9824829,0.13568115,-1.25,-1.9375,-0.578125,817
1696292882627,-0.08105469,-0.9805298,0.17547607,0.171875,1.21875,-0.96875,818
1696292882667,-0.115722656,-0.9578247,0.16131592,0.25,3.125,-0.296875,819
1696292882707,-0.09741211,-0.98565674,0.16375732,-0.984375,3.171875,1.46875,820
1696292882747,-0.01928711,-1.0061646,0.12738037,1.234375,-0.90625,-0.25,821
1696292882787,-0.10449219,-1.0159302,0.15252686,2.484375,-0.75,1.578125,822
