timestamp,accel_x,accel_y,accel_z,gyro_x,gyro_y,gyro_z,mag_x,mag_y,mag_z,ind
1696287847394,-1.0400391,0.036132812,0.6328125,20.09375,39.03125,-23.90625,-87.3125,-37.9375,-199.25,0
1696287847434,-1.2910156,0.12011719,0.78515625,45.40625,16.6875,-24.40625,0.0,0.0,0.0,1
1696287847474,-1.1308594,0.20605469,0.6298828,-15.0,-9.5,-20.84375,0.0,0.0,0.0,2
1696287847514,-0.765625,0.49121094,0.18945312,19.09375,54.75,-20.375,0.0,0.0,0.0,3
1696287847554,-1.8496094,-0.0859375,-0.1953125,-24.03125,111.28125,24.4375,0.0,0.0,0.0,4
1696287847594,-0.7919922,-0.13671875,0.3486328,-57.375,8.4375,5.625,0.0,0.0,0.0,5
1696287847634,-0.5029297,0.11621094,-0.103515625,-104.84375,20.65625,-1.5,0.0,0.0,0.0,6
1696287847674,-0.9189453,-0.15039062,-0.265625,-49.375,23.6875,28.21875,0.0,0.0,0.0,7
1696287847714,-1.4619141,-0.05859375,-0.23535156,20.5625,53.375,-1.375,0.0,0.0,0.0,8
1696287847754,-0.93847656,-0.2783203,-0.05859375,45.96875,59.96875,-28.0625,0.0,0.0,0.0,9
1696287847794,-0.9794922,-0.17480469,0.21484375,-61.9375,34.6875,-27.9375,0.0,0.0,0.0,10
1696287847834,-0.8388672,-0.0009765625,-0.19824219,-65.65625,20.71875,-27.875,0.0,0.0,0.0,11
1696287847874,-0.9501953,-0.07910156,-0.15136719,0.1875,32.90625,-14.3125,-84.875,-39.5625,-217.5625,12
1696287847914,-0.89941406,-0.10644531,0.022460938,29.90625,53.78125,-16.15625,0.0,0.0,0.0,13
1696287847954,-0.9482422,-0.0546875,0.13378906,0.625,58.4375,-2.84375,0.0,0.0,0.0,14
1696287847994,-1.0,-0.06347656,-0.037109375,-44.5625,46.03125,2.84375,0.0,0.0,0.0,15
1696287848034,-1.0595703,-0.08886719,0.29882812,-17.09375,97.4375,9.1875,0.0,0.0,0.0,16
1696287848074,-1.1582031,-0.23144531,0.11425781,-113.65625,-24.59375,11.0,0.0,0.0,0.0,17
1696287848114,-1.28125,-0.25390625,-0.22265625,-1.28125,-24.09375,8.5,0.0,0.0,0.0,18
1696287848154,-1.2216797,-0.048828125,0.2998047,111.625,49.21875,-3.34375,0.0,0.0,0.0,19
1696287848194,-1.6923828,-0.3701172,0.14453125,-41.1875,-56.9375,15.28125,0.0,0.0,0.0,20
1696287848234,-1.1679688,-0.04296875,0.030273438,33.5,-128.84375,-7.96875,0.0,0.0,0.0,21
1696287848274,-0.875,0.484375,-0.03515625,41.9375,-172.96875,13.9375,0.0,0.0,0.0,22
1696287848314,-1.1044922,0.0107421875,-0.10546875,-43.875,-146.34375,22.125,0.0,0.0,0.0,23
1696287848354,-1.0878906,-0.45898438,-0.07421875,190.6875,-126.21875,42.4375,0.0,0.0,0.0,24
1696287848394,-1.0683594,-0.3203125,0.18847656,55.0625,-111.5,7.53125,-85.9375,-36.4375,-205.875,25
1696287848434,-1.0410156,0.10058594,0.046875,33.375,-94.28125,-19.03125,0.0,0.0,0.0,26
1696287848474,-0.69433594,0.13574219,0.0234375,114.125,-68.15625,-40.03125,0.0,0.0,0.0,27
1696287848514,-0.5957031,0.20117188,0.030273438,94.59375,-43.0625,-33.84375,0.0,0.0,0.0,28
1696287848554,-0.49609375,0.12792969,0.11621094,56.71875,-7.1875,-20.0,0.0,0.0,0.0,29
1696287848594,-0.62109375,0.09082031,0.22753906,60.78125,38.53125,-22.5,0.0,0.0,0.0,30
1696287848634,-0.8691406,-0.12402344,0.32421875,47.0625,71.625,-40.375,0.0,0.0,0.0,31
1696287848674,-1.2773438,0.060546875,0.66015625,36.8125,62.03125,-50.5625,0.0,0.0,0.0,32
1696287848714,-1.0732422,0.1171875,0.9404297,81.25,4.03125,-30.75,0.0,0.0,0.0,33
1696287848754,-1.1865234,0.16992188,0.6308594,54.09375,1.0,-11.5,0.0,0.0,0.0,34
1696287848794,-0.8642578,0.32226562,0.29492188,46.9375,41.65625,-22.8125,0.0,0.0,0.0,35
1696287848834,-1.8935547,-0.4501953,0.076171875,6.90625,77.03125,2.90625,0.0,0.0,0.0,36
1696287848874,-0.76660156,-0.10449219,0.12011719,-30.4375,-14.625,-30.6875,-81.875,-44.375,-205.375,37
1696287848914,-0.3095703,0.35351562,-0.24316406,-46.625,0.3125,-11.09375,0.0,0.0,0.0,38
1696287848954,-0.89941406,0.171875,-0.07421875,-83.0,14.25,39.6875,0.0,0.0,0.0,39
1696287848994,-1.6621094,-0.38964844,-0.5996094,123.84375,66.1875,39.5625,0.0,0.0,0.0,40
1696287849034,-1.0566406,-0.48339844,-0.16015625,119.75,98.34375,-12.96875,0.0,0.0,0.0,41
1696287849074,-1.0927734,-0.18847656,0.4716797,25.03125,60.8125,-16.21875,0.0,0.0,0.0,42
1696287849114,-0.89941406,-0.095703125,-0.09863281,-20.375,26.8125,-29.6875,0.0,0.0,0.0,43
1696287849154,-0.84277344,0.005859375,-0.1484375,-20.375,48.1875,-23.15625,0.0,0.0,0.0,44
1696287849194,-0.90722656,-0.060546875,-0.06738281,41.375,59.28125,-12.4375,0.0,0.0,0.0,45
1696287849234,-0.89941406,0.041015625,0.0546875,49.0625,69.78125,-3.03125,0.0,0.0,0.0,46
1696287849274,-1.0048828,-0.09375,0.15039062,51.15625,63.875,11.25,0.0,0.0,0.0,47
1696287849314,-1.0898438,-0.06347656,0.20703125,-28.8125,49.21875,6.84375,0.0,0.0,0.0,48
1696287849354,-1.1357422,-0.07714844,0.19238281,-53.53125,14.25,18.21875,0.0,0.0,0.0,49
1696287849394,-1.3613281,-0.4423828,-0.29492188,14.21875,-16.09375,11.875,-73.9375,-45.4375,-223.6875,50
1696287849434,-1.2910156,-0.10546875,0.19921875,120.0,25.53125,0.21875,0.0,0.0,0.0,51
1696287849474,-1.5898438,-0.4267578,0.3486328,30.75,-61.6875,14.0,0.0,0.0,0.0,52
1696287849514,-1.1435547,0.045898438,-0.01953125,84.90625,-157.28125,5.53125,0.0,0.0,0.0,53
1696287849554,-0.8828125,0.29101562,-0.07324219,95.78125,-170.03125,15.59375,0.0,0.0,0.0,54
1696287849594,-1.1064453,-0.3876953,-0.37695312,67.03125,-132.84375,12.53125,0.0,0.0,0.0,55
1696287849634,-1.0888672,-0.53027344,-0.08691406,162.40625,-117.65625,-0.90625,0.0,0.0,0.0,56
1696287849674,-1.0263672,-0.21289062,0.072265625,78.1875,-102.03125,-15.90625,0.0,0.0,0.0,57
1696287849714,-1.2509766,-0.26171875,-0.09667969,126.28125,-58.03125,-85.4375,0.0,0.0,0.0,58
1696287849754,-0.9550781,0.15136719,-0.17871094,199.21875,-39.90625,-82.875,0.0,0.0,0.0,59
1696287849794,-0.71484375,0.20117188,-0.05859375,148.875,-21.40625,-67.1875,0.0,0.0,0.0,60
1696287849834,-0.6513672,0.30078125,0.07128906,65.96875,3.5625,-41.25,0.0,0.0,0.0,61
1696287849874,-0.68652344,0.21875,0.1484375,54.5,18.15625,-20.375,-71.6875,-54.125,-188.75,62
1696287849914,-0.89941406,-0.047851562,0.34179688,47.3125,32.84375,-13.59375,0.0,0.0,0.0,63
1696287849954,-0.89941406,0.17480469,0.52734375,62.125,21.0625,-19.03125,0.0,0.0,0.0,64
1696287849994,-1.2324219,-0.23925781,1.1503906,104.5625,-24.59375,-20.4375,0.0,0.0,0.0,65
1696287850034,-0.97265625,-0.39257812,0.484375,10.375,-41.78125,-53.3125,0.0,0.0,0.0,66
1696287850074,-0.4609375,0.033203125,0.24511719,114.03125,20.90625,-49.0,0.0,0.0,0.0,67
1696287850114,-1.6328125,0.036132812,0.30664062,46.625,97.96875,-17.3125,0.0,0.0,0.0,68
1696287850154,-1.8896484,0.29785156,0.17773438,-28.125,21.3125,-21.59375,0.0,0.0,0.0,69
1696287850194,0.053710938,0.44628906,-0.5830078,-57.125,21.625,-42.46875,0.0,0.0,0.0,70
1696287850234,-0.5419922,0.19140625,-0.11621094,-41.1875,22.0,41.15625,0.0,0.0,0.0,71
1696287850274,-1.5458984,0.0029296875,-0.18457031,0.0,82.71875,111.59375,0.0,0.0,0.0,72
1696287850314,-1.2011719,-0.39746094,-0.28515625,-51.5625,106.09375,1.71875,0.0,0.0,0.0,73
1696287850354,-0.83691406,-0.3310547,-0.034179688,-6.40625,60.625,-32.3125,0.0,0.0,0.0,74
1696287850394,-0.97558594,-0.03125,0.2626953,-6.46875,123.0,-13.34375,-76.8125,-53.9375,-196.875,75
1696287850434,-0.9404297,-0.12109375,-0.02734375,-49.6875,11.75,-20.125,0.0,0.0,0.0,76
1696287850474,-0.9707031,-0.07910156,-0.068359375,-98.09375,48.65625,-22.25,0.0,0.0,0.0,77
1696287850514,-0.92285156,-0.046875,0.10058594,-0.71875,57.5,-8.71875,0.0,0.0,0.0,78
1696287850554,-0.984375,-0.056640625,0.11035156,11.40625,53.90625,-6.625,0.0,0.0,0.0,79
1696287850594,-0.99316406,-0.064453125,0.25390625,-69.75,72.03125,-4.8125,0.0,0.0,0.0,80
1696287850634,-1.0146484,-0.16699219,0.026367188,-53.71875,10.5625,10.15625,0.0,0.0,0.0,81
1696287850674,-1.1728516,-0.29492188,-0.119140625,-54.25,-11.28125,0.4375,0.0,0.0,0.0,82
1696287850714,-1.0537109,-0.01953125,-0.009765625,-12.5,42.75,-12.6875,0.0,0.0,0.0,83
1696287850754,-1.2109375,0.037109375,0.43847656,-12.625,37.75,3.0,0.0,0.0,0.0,84
1696287850794,-1.4912109,-0.41503906,0.13085938,-87.28125,-39.65625,9.0625,0.0,0.0,0.0,85
1696287850834,-1.1894531,-0.7246094,-0.1640625,70.0625,-100.625,-28.84375,0.0,0.0,0.0,86
1696287850874,-1.0800781,0.5205078,-0.14941406,126.96875,-165.4375,5.28125,-77.5625,-52.625,-208.5625,87
1696287850914,-1.0507812,0.09472656,-0.33203125,-30.28125,-106.90625,13.75,0.0,0.0,0.0,88
1696287850954,-1.1923828,-0.20117188,0.14257812,126.21875,-119.0,28.90625,0.0,0.0,0.0,89
1696287850994,-0.9404297,-0.3671875,-0.04296875,96.625,-135.0,20.40625,0.0,0.0,0.0,90
1696287851034,-0.96191406,-0.046875,-0.0048828125,94.90625,-100.875,-10.0625,0.0,0.0,0.0,91
1696287851074,-0.8544922,-0.034179688,0.12109375,108.15625,-46.84375,-51.4375,0.0,0.0,0.0,92
1696287851114,-0.7050781,0.20605469,0.08300781,107.4375,-33.78125,-53.625,0.0,0.0,0.0,93
1696287851154,-0.6123047,0.2626953,0.08984375,67.5,-2.5,-33.65625,0.0,0.0,0.0,94
1696287851194,-0.640625,0.21972656,0.203125,72.34375,26.3125,-19.21875,0.0,0.0,0.0,95
1696287851234,-0.8720703,-0.080078125,0.30371094,80.25,50.0,-21.15625,0.0,0.0,0.0,96
1696287851274,-1.2675781,0.06933594,0.828125,49.75,36.03125,-27.875,0.0,0.0,0.0,97
1696287851314,-1.25,0.09277344,0.84765625,95.71875,-48.9375,-14.75,0.0,0.0,0.0,98
1696287851354,-0.62890625,0.203125,0.2841797,21.96875,-10.53125,-28.0625,0.0,0.0,0.0,99
1696287851394,-0.7011719,0.0146484375,0.12695312,39.4375,44.5625,-19.5625,-75.3125,-47.0625,-178.6875,100
1696287851434,-1.8779297,-0.25,0.37109375,6.84375,75.28125,-23.15625,0.0,0.0,0.0,101
1696287851474,-1.2763672,0.021484375,0.21679688,-38.625,17.71875,-33.125,0.0,0.0,0.0,102
1696287851514,-0.42089844,0.27148438,-0.40429688,-79.78125,22.28125,-11.75,0.0,0.0,0.0,103
1696287851554,-0.7890625,0.072265625,-0.13476562,-21.0,32.0,45.5625,0.0,0.0,0.0,104
1696287851594,-1.5058594,-0.35253906,-0.37890625,44.3125,49.15625,31.21875,0.0,0.0,0.0,105
1696287851634,-1.0166016,-0.23535156,-0.09375,25.09375,66.84375,-31.53125,0.0,0.0,0.0,106
1696287851674,-0.8046875,-0.04296875,0.32714844,12.8125,100.96875,-39.96875,0.0,0.0,0.0,107
1696287851714,-0.9199219,-0.078125,0.09863281,-15.1875,12.40625,-19.4375,0.0,0.0,0.0,108
1696287851754,-1.0068359,-0.125,-0.109375,-65.5625,14.375,-17.75,0.0,0.0,0.0,109
1696287851794,-0.9248047,-0.06347656,-0.051757812,-10.125,43.03125,-19.3125,0.0,0.0,0.0,110
1696287851834,-0.95996094,0.12792969,0.18359375,-5.5,88.625,-16.03125,0.0,0.0,0.0,111
1696287851874,-0.9482422,-0.09863281,0.23828125,-69.40625,21.5,6.8125,-79.0625,-52.1875,-198.8125,112
1696287851914,-0.94921875,-0.09765625,-0.24316406,-62.625,23.625,12.34375,0.0,0.0,0.0,113
1696287851954,-1.1171875,-0.22949219,0.15234375,-7.4375,78.3125,15.78125,0.0,0.0,0.0,114
1696287851994,-1.0849609,-0.13769531,0.06640625,-88.0,-1.4375,2.59375,0.0,0.0,0.0,115
1696287852034,-1.1044922,-0.07421875,-0.11425781,4.9375,-0.46875,12.40625,0.0,0.0,0.0,116
1696287852074,-1.2353516,-0.29101562,0.35742188,65.125,47.125,20.65625,0.0,0.0,0.0,117
1696287852114,-1.4560547,-0.24511719,0.19433594,-69.34375,-35.4375,12.21875,0.0,0.0,0.0,118
1696287852154,-1.2949219,-0.4970703,-0.0625,87.71875,-132.0625,-17.90625,0.0,0.0,0.0,119
1696287852194,-1.1132812,0.20800781,-0.19433594,164.75,-172.21875,3.625,0.0,0.0,0.0,120
1696287852234,-1.1308594,-0.23730469,-0.39453125,10.9375,-121.9375,7.96875,0.0,0.0,0.0,121
1696287852274,-1.2089844,-0.46679688,0.13378906,60.125,-107.53125,8.875,0.0,0.0,0.0,122
1696287852314,-1.0224609,-0.2578125,-0.16894531,181.9375,-122.90625,2.21875,0.0,0.0,0.0,123
1696287852354,-0.92285156,-0.07714844,-0.07421875,194.40625,-108.125,-12.5625,0.0,0.0,0.0,124
1696287852394,-0.9765625,-0.10058594,0.06640625,114.4375,-42.03125,-55.09375,-73.0625,-42.4375,-175.25,125
1696287852434,-0.7519531,0.13574219,0.07128906,158.9375,-16.28125,-84.15625,0.0,0.0,0.0,126
1696287852474,-0.7675781,0.22949219,0.041992188,68.1875,4.03125,-60.28125,0.0,0.0,0.0,127
1696287852514,-0.87890625,0.111328125,0.12011719,53.21875,5.6875,-33.65625,0.0,0.0,0.0,128
1696287852554,-0.84765625,0.12207031,0.21777344,88.0625,14.71875,-26.78125,0.0,0.0,0.0,129
1696287852594,-0.7392578,0.15722656,0.4970703,71.34375,15.59375,-30.3125,0.0,0.0,0.0,130
1696287852634,-0.8701172,0.0029296875,0.5761719,39.8125,11.96875,-17.75,0.0,0.0,0.0,131
1696287852674,-1.1582031,-0.4013672,0.59277344,77.59375,-3.9375,-21.28125,0.0,0.0,0.0,132
1696287852714,-0.88183594,-0.16601562,0.66015625,74.28125,-17.75,-52.46875,0.0,0.0,0.0,133
1696287852754,-0.51660156,0.15332031,0.3642578,51.15625,60.4375,-40.6875,0.0,0.0,0.0,134
1696287852794,-1.5439453,0.21191406,-0.076171875,28.375,116.59375,6.625,0.0,0.0,0.0,135
1696287852834,-2.0,0.12890625,0.5439453,-94.125,81.3125,15.09375,-77.125,-37.75,-178.375,136
1696287852874,-0.16503906,0.23632812,-0.359375,3.84375,-18.71875,-25.96875,0.0,0.0,0.0,137
1696287852914,-0.32910156,-0.091796875,-0.46289062,-9.28125,18.03125,13.5,0.0,0.0,0.0,138
1696287852954,-1.1679688,0.10058594,-0.2626953,-28.75,50.5,54.09375,0.0,0.0,0.0,139
1696287852994,-1.3496094,-0.40527344,-0.30859375,-5.375,62.03125,-4.0625,0.0,0.0,0.0,140
1696287853034,-0.76953125,-0.03515625,0.51953125,67.375,98.96875,-39.09375,0.0,0.0,0.0,141
1696287853074,-0.99609375,-0.049804688,0.095703125,-25.75,-26.40625,-28.84375,0.0,0.0,0.0,142
1696287853114,-0.953125,-0.08105469,-0.15039062,-53.65625,24.6875,-25.5,0.0,0.0,0.0,143
1696287853154,-0.9404297,-0.083984375,-0.060546875,3.71875,36.28125,-17.375,0.0,0.0,0.0,144
1696287853194,-0.94433594,-0.09472656,0.06347656,19.21875,45.90625,-10.09375,0.0,0.0,0.0,145
1696287853234,-0.89746094,-0.01953125,0.032226562,-11.15625,47.3125,-7.65625,0.0,0.0,0.0,146
1696287853274,-1.0185547,-0.041992188,-0.034179688,-34.0,49.5625,-5.15625,0.0,0.0,0.0,147
1696287853314,-1.0654297,-0.11621094,0.19042969,-15.5625,84.125,3.0,0.0,0.0,0.0,148
1696287853354,-1.1103516,-0.28515625,0.23828125,-103.34375,-5.125,1.5,0.0,0.0,0.0,149
1696287853394,-1.2148438,-0.19824219,-0.23632812,-19.34375,-15.0,-3.59375,-80.875,-41.8125,-196.125,150
1696287853434,-1.1357422,0.06347656,0.21875,44.6875,38.15625,-5.65625,0.0,0.0,0.0,151
1696287853474,-1.5947266,-0.47460938,0.13085938,-12.6875,-27.6875,22.3125,0.0,0.0,0.0,152
1696287853514,-1.0292969,-0.25683594,-0.32128906,12.28125,-111.25,-10.34375,0.0,0.0,0.0,153
1696287853554,-0.90527344,0.625,-0.048828125,45.78125,-156.40625,9.4375,0.0,0.0,0.0,154
1696287853594,-1.0771484,0.2685547,-0.015625,-22.40625,-125.40625,18.03125,0.0,0.0,0.0,155
1696287853634,-1.0830078,-0.35546875,-0.28125,-52.1875,-142.1875,12.53125,0.0,0.0,0.0,156
1696287853674,-0.9404297,-0.24511719,0.08496094,123.46875,-132.0,24.0,0.0,0.0,0.0,157
1696287853714,-0.9501953,0.005859375,0.030273438,27.46875,-111.4375,4.90625,0.0,0.0,0.0,158
1696287853754,-0.91308594,0.046875,0.06347656,79.21875,-48.09375,-36.53125,0.0,0.0,0.0,159
1696287853794,-0.66796875,0.23046875,0.0390625,102.375,-30.625,-24.625,0.0,0.0,0.0,160
1696287853834,-0.5917969,0.23144531,0.12792969,31.875,-5.59375,-28.125,0.0,0.0,0.0,161
1696287853874,-0.578125,0.16308594,0.19433594,0.96875,34.875,-25.3125,-70.8125,-32.6875,-173.0,162
1696287853914,-0.7988281,0.033203125,0.3857422,25.46875,55.4375,-24.21875,0.0,0.0,0.0,163
1696287853954,-1.1962891,-0.16894531,0.67578125,23.875,44.5,-16.6875,0.0,0.0,0.0,164
1696287853994,-1.1738281,-0.0126953125,0.8486328,79.65625,-10.1875,-23.0625,0.0,0.0,0.0,165
1696287854034,-1.0830078,0.0703125,0.8857422,2.1875,-34.90625,-32.03125,0.0,0.0,0.0,166
1696287854074,-0.3466797,0.36816406,-0.032226562,35.03125,55.625,-28.40625,0.0,0.0,0.0,167
1696287854114,-2.0,0.12011719,-0.47851562,6.78125,121.65625,26.375,0.0,0.0,0.0,168
1696287854154,-1.3339844,-0.3564453,1.3232422,-51.4375,17.96875,-15.84375,0.0,0.0,0.0,169
1696287854194,-0.25,0.28710938,-0.4736328,-133.1875,8.375,-14.875,0.0,0.0,0.0,170
1696287854234,-0.7675781,-0.0234375,-0.40527344,-48.09375,39.1875,24.8125,0.0,0.0,0.0,171
1696287854274,-1.5048828,-0.15820312,-0.45507812,-81.1875,71.4375,27.84375,0.0,0.0,0.0,172
1696287854314,-1.0146484,-0.30273438,-0.15625,32.53125,79.0,-31.59375,0.0,0.0,0.0,173
1696287854354,-0.9863281,-0.0625,0.5048828,-40.21875,170.3125,-16.6875,0.0,0.0,0.0,174
1696287854394,-0.9296875,-0.08496094,-0.18359375,-25.4375,-10.96875,-23.96875,-80.125,-36.875,-190.25,175
1696287854434,-0.9248047,-0.0546875,-0.12597656,-25.625,31.5,-18.78125,0.0,0.0,0.0,176
1696287854474,-0.88671875,-0.07128906,-0.060546875,-0.53125,35.90625,-15.0,0.0,0.0,0.0,177
1696287854514,-0.87109375,-0.07324219,-0.005859375,-17.4375,52.75,-10.65625,0.0,0.0,0.0,178
1696287854554,-1.0292969,0.001953125,0.030273438,-28.4375,71.71875,-1.625,0.0,0.0,0.0,179
1696287854594,-1.0439453,-0.17675781,0.125,-59.375,75.8125,8.875,0.0,0.0,0.0,180
1696287854634,-1.1826172,-0.25683594,0.13476562,-95.46875,26.75,3.8125,0.0,0.0,0.0,181
1696287854674,-1.3339844,-0.12792969,0.0009765625,-2.0625,-26.90625,-9.75,0.0,0.0,0.0,182
1696287854714,-1.2324219,0.030273438,0.18359375,47.90625,18.75,-18.03125,0.0,0.0,0.0,183
1696287854754,-1.5244141,-0.33789062,-0.0859375,-39.125,-44.59375,19.0625,0.0,0.0,0.0,184
1696287854794,-0.98046875,-0.32910156,-0.578125,9.90625,-85.96875,-7.4375,0.0,0.0,0.0,185
1696287854834,-0.86621094,0.41503906,-0.07714844,91.4375,-175.65625,13.9375,0.0,0.0,0.0,186
1696287854874,-1.0615234,0.09667969,-0.22753906,-110.21875,-118.6875,18.09375,-79.625,-37.9375,-189.9375,187
1696287854914,-1.2607422,-0.22070312,-0.21972656,34.375,-144.5625,29.625,0.0,0.0,0.0,188
1696287854954,-0.9296875,-0.36132812,0.036132812,149.25,-125.71875,28.28125,0.0,0.0,0.0,189
1696287854994,-1.0351562,0.111328125,-0.08496094,18.8125,-111.25,20.78125,0.0,0.0,0.0,190
1696287855034,-0.8076172,0.06738281,0.13085938,52.5,-71.875,-20.84375,0.0,0.0,0.0,191
1696287855074,-0.6376953,0.2626953,0.049804688,90.75,-48.1875,-7.53125,0.0,0.0,0.0,192
1696287855114,-0.5019531,0.12890625,0.09375,37.65625,0.625,-0.96875,0.0,0.0,0.0,193
1696287855154,-0.5878906,0.109375,0.25878906,21.0,39.875,-13.65625,0.0,0.0,0.0,194
1696287855194,-0.88964844,0.09472656,0.5263672,31.8125,60.0625,-17.0,0.0,0.0,0.0,195
1696287855234,-1.1660156,0.015625,0.7871094,56.71875,44.5625,-35.8125,0.0,0.0,0.0,196
1696287855274,-1.6757812,0.08886719,1.09375,81.53125,-20.96875,-17.0625,0.0,0.0,0.0,197
1696287855314,-0.48632812,0.4501953,0.21679688,59.625,-11.40625,-49.90625,0.0,0.0,0.0,198
1696287855354,-1.6806641,0.29296875,0.0,51.34375,86.375,0.21875,0.0,0.0,0.0,199
1696287855394,-0.9873047,-0.3671875,0.13183594,-59.4375,7.9375,-11.9375,-74.5625,-27.125,-177.375,200
1696287855434,-0.53808594,0.17675781,-0.13378906,-28.0,9.0,-8.59375,0.0,0.0,0.0,201
1696287855474,-0.8964844,0.04296875,-0.20410156,-12.25,37.96875,10.8125,0.0,0.0,0.0,202
1696287855514,-1.1953125,-0.140625,-0.19042969,-26.53125,77.71875,16.125,0.0,0.0,0.0,203
1696287855554,-0.97558594,-0.234375,-0.20898438,-30.75,68.375,-22.125,0.0,0.0,0.0,204
1696287855594,-1.03125,-0.21386719,-0.034179688,27.09375,93.21875,-32.15625,0.0,0.0,0.0,205
1696287855634,-0.9863281,0.044921875,0.34179688,99.3125,127.6875,-16.625,0.0,0.0,0.0,206
1696287855674,-0.9765625,-0.022460938,-0.01953125,0.0,12.78125,-19.625,0.0,0.0,0.0,207
1696287855714,-0.96777344,-0.056640625,-0.02734375,-35.59375,52.8125,-15.125,0.0,0.0,0.0,208
1696287855754,-0.9169922,-0.08203125,0.16308594,37.90625,68.125,-0.59375,0.0,0.0,0.0,209
1696287855794,-0.99121094,-0.12011719,0.15234375,34.1875,25.28125,11.9375,0.0,0.0,0.0,210
1696287855834,-1.0722656,-0.13769531,-0.10546875,-44.1875,20.71875,6.25,0.0,0.0,0.0,211
1696287855874,-1.1347656,0.11230469,0.076171875,-56.8125,55.625,4.28125,-80.5625,-29.5,-195.5,212
1696287855914,-1.1787109,-0.12011719,-0.11621094,4.9375,7.46875,10.65625,0.0,0.0,0.0,213
1696287855954,-1.3027344,-0.13183594,0.12402344,99.5,3.625,7.96875,0.0,0.0,0.0,214
1696287855994,-1.4980469,-0.44140625,0.35253906,-60.125,-89.28125,7.84375,0.0,0.0,0.0,215
1696287856034,-1.0957031,0.16601562,-0.17089844,-1.65625,-166.125,-1.0625,0.0,0.0,0.0,216
1696287856074,-0.80859375,0.17773438,-0.07910156,120.0,-165.5625,20.03125,0.0,0.0,0.0,217
1696287856114,-1.1669922,-0.42382812,-0.14160156,144.71875,-136.65625,24.0,0.0,0.0,0.0,218
1696287856154,-1.1455078,-0.6386719,-0.12109375,140.875,-128.9375,10.9375,0.0,0.0,0.0,219
1696287856194,-1.0058594,-0.19238281,0.07421875,68.125,-111.3125,-15.71875,0.0,0.0,0.0,220
1696287856234,-1.0634766,-0.091796875,-0.059570312,104.25,-64.9375,-56.0,0.0,0.0,0.0,221
1696287856274,-0.90722656,0.087890625,0.0087890625,178.96875,-42.40625,-71.28125,0.0,0.0,0.0,222
1696287856314,-0.7236328,0.13671875,-0.043945312,129.59375,-13.59375,-67.84375,0.0,0.0,0.0,223
1696287856354,-0.6328125,0.21972656,0.076171875,115.3125,4.09375,-48.0,0.0,0.0,0.0,224
1696287856394,-0.93847656,0.14257812,0.24707031,104.625,18.9375,-24.6875,-71.875,-19.75,-181.5625,225
1696287856434,-1.1035156,0.0625,0.45117188,109.75,13.875,-25.84375,0.0,0.0,0.0,226
1696287856474,-0.6777344,0.26367188,0.31054688,158.15625,-0.53125,-23.28125,0.0,0.0,0.0,227
1696287856514,-0.9921875,0.064453125,0.66503906,74.40625,28.8125,-12.125,0.0,0.0,0.0,228
1696287856554,-1.4169922,-0.10546875,0.75,10.4375,10.875,-36.15625,0.0,0.0,0.0,229
1696287856594,-0.53515625,0.21386719,0.38378906,96.75,12.84375,-41.125,0.0,0.0,0.0,230
1696287856634,-1.8476562,0.09472656,-0.22167969,-27.9375,97.84375,-5.28125,0.0,0.0,0.0,231
1696287856674,-1.1738281,-0.32617188,0.37695312,-10.25,28.59375,-21.53125,0.0,0.0,0.0,232
1696287856714,-0.37695312,0.14355469,-0.22558594,2.9375,5.9375,-22.125,0.0,0.0,0.0,233
1696287856754,-0.7158203,0.034179688,-0.19628906,32.96875,-5.71875,33.65625,0.0,0.0,0.0,234
1696287856794,-1.5410156,-0.3125,-0.49609375,30.59375,44.625,8.03125,0.0,0.0,0.0,235
1696287856834,-1.0048828,-0.28222656,-0.14648438,14.03125,97.5625,-50.15625,0.0,0.0,0.0,236
1696287856874,-0.97558594,-0.18066406,0.22851562,-36.25,5.28125,-48.875,-74.875,-22.1875,-201.8125,237
1696287856914,-0.9033203,0.026367188,-0.22363281,-72.125,27.1875,-31.15625,0.0,0.0,0.0,238
1696287856954,-0.9404297,-0.029296875,-0.24023438,26.0,43.59375,-7.71875,0.0,0.0,0.0,239
1696287856994,-0.9277344,-0.0146484375,-0.1015625,58.90625,67.21875,-0.59375,0.0,0.0,0.0,240
1696287857034,-0.9169922,-0.111328125,0.020507812,43.9375,68.6875,4.0625,0.0,0.0,0.0,241
1696287857074,-0.99609375,-0.05078125,0.0107421875,1.21875,49.46875,4.46875,0.0,0.0,0.0,242
1696287857114,-1.1259766,0.030273438,0.17382812,34.90625,68.6875,3.6875,0.0,0.0,0.0,243
1696287857154,-1.0458984,-0.29785156,0.3720703,-100.75,23.40625,3.8125,0.0,0.0,0.0,244
1696287857194,-1.1953125,-0.37695312,-0.359375,-133.34375,-41.78125,4.40625,0.0,0.0,0.0,245
1696287857234,-1.1308594,-0.14550781,-0.041015625,92.21875,22.90625,-11.03125,0.0,0.0,0.0,246
1696287857274,-1.171875,-0.080078125,0.4560547,158.5,87.90625,14.0625,0.0,0.0,0.0,247
1696287857314,-1.5087891,-0.32421875,0.31835938,-53.03125,-69.375,23.46875,0.0,0.0,0.0,248
1696287857354,-0.9609375,-0.030273438,-0.33007812,28.75,-128.34375,3.8125,0.0,0.0,0.0,249
1696287857394,-0.9121094,0.24511719,-0.0078125,95.78125,-139.4375,11.6875,-72.0,-26.0625,-209.3125,250
1696287857434,-1.1494141,0.15820312,-0.07910156,-41.875,-132.5,13.8125,0.0,0.0,0.0,251
1696287857474,-1.2275391,-0.42578125,-0.36621094,-102.90625,-123.6875,-6.375,0.0,0.0,0.0,252
1696287857514,-1.0166016,-0.3955078,0.16796875,182.8125,-129.8125,5.40625,0.0,0.0,0.0,253
1696287857554,-1.1435547,0.034179688,0.016601562,62.125,-122.3125,-7.90625,0.0,0.0,0.0,254
1696287857594,-0.9140625,0.057617188,-0.03515625,109.0625,-108.75,-20.71875,0.0,0.0,0.0,255
1696287857634,-0.6201172,0.4140625,0.020507812,91.0625,-79.5,-7.84375,0.0,0.0,0.0,256
1696287857674,-0.59472656,0.051757812,0.055664062,28.5625,-23.25,-16.15625,0.0,0.0,0.0,257
1696287857714,-0.52246094,-0.0029296875,0.11621094,13.0625,19.84375,-22.9375,0.0,0.0,0.0,258
1696287857754,-0.66503906,0.00390625,0.30273438,2.25,66.65625,-31.53125,0.0,0.0,0.0,259
1696287857794,-1.140625,0.03515625,0.6904297,49.6875,85.09375,-41.34375,0.0,0.0,0.0,260
1696287857834,-1.4628906,0.068359375,1.0742188,22.59375,42.0,-24.8125,0.0,0.0,0.0,261
1696287857874,-1.2226562,0.3828125,0.5439453,39.125,-3.59375,-11.21875,-68.5625,-24.4375,-196.875,262
1696287857914,-0.2685547,0.3828125,0.2529297,28.6875,34.125,-28.65625,0.0,0.0,0.0,263
1696287857954,-1.2617188,0.08886719,-0.34765625,17.75,91.21875,16.625,0.0,0.0,0.0,264
1696287857994,-2.0,-0.7675781,1.1240234,-130.6875,138.625,-8.34375,0.0,0.0,0.0,265
1696287858034,-0.48242188,0.28027344,-0.36035156,-104.5625,7.09375,-52.21875,0.0,0.0,0.0,266
1696287858074,-0.5419922,0.19726562,-0.515625,-73.3125,22.0625,0.875,0.0,0.0,0.0,267
1696287858114,-1.1123047,0.2685547,-0.036132812,-72.9375,55.6875,45.25,0.0,0.0,0.0,268
1696287858154,-1.1552734,-0.17089844,-0.17089844,-50.34375,40.46875,16.4375,0.0,0.0,0.0,269
1696287858194,-0.9091797,-0.3095703,-0.13574219,-59.5625,48.59375,-6.3125,0.0,0.0,0.0,270
1696287858234,-1.0195312,-0.3330078,-0.14257812,-63.90625,56.34375,-21.21875,0.0,0.0,0.0,271
1696287858274,-0.95410156,-0.051757812,0.30859375,35.09375,97.78125,-21.59375,0.0,0.0,0.0,272
1696287858314,-1.0439453,0.02734375,0.14746094,-67.5625,22.0,-14.9375,0.0,0.0,0.0,273
1696287858354,-0.8876953,-0.10839844,-0.028320312,-4.8125,19.1875,1.0,0.0,0.0,0.0,274
1696287858394,-0.90625,-0.12597656,-0.07519531,11.28125,38.96875,-0.96875,-67.5,-24.6875,-208.125,275
1696287858434,-1.1142578,-0.03515625,0.13183594,-31.78125,88.59375,-2.1875,0.0,0.0,0.0,276
1696287858474,-1.0625,-0.19628906,0.21679688,-72.125,30.84375,-2.96875,0.0,0.0,0.0,277
1696287858514,-1.2158203,-0.40039062,-0.22265625,-62.25,-26.40625,-11.4375,0.0,0.0,0.0,278
1696287858554,-1.1318359,-0.13378906,0.17773438,-1.28125,41.03125,-37.6875,0.0,0.0,0.0,279
1696287858594,-1.1201172,0.22167969,0.2890625,-123.15625,21.375,-30.625,0.0,0.0,0.0,280
1696287858634,-1.6582031,-0.32421875,0.061523438,-43.9375,-54.3125,9.65625,0.0,0.0,0.0,281
1696287858674,-1.1416016,0.2607422,-0.23046875,-11.28125,-137.5625,-19.9375,0.0,0.0,0.0,282
1696287858714,-0.9628906,0.66503906,-0.19921875,9.65625,-192.625,21.25,0.0,0.0,0.0,283
1696287858754,-1.2021484,-0.0009765625,-0.24023438,-132.6875,-135.53125,30.125,0.0,0.0,0.0,284
1696287858794,-1.1376953,-0.11816406,0.20703125,85.28125,-137.0,55.5,0.0,0.0,0.0,285
1696287858834,-0.9785156,-0.1796875,-0.0087890625,29.71875,-128.03125,38.65625,0.0,0.0,0.0,286
1696287858874,-0.81640625,0.060546875,0.001953125,74.34375,-102.875,4.1875,-62.375,-21.4375,-189.625,287
1696287858914,-0.70214844,0.24609375,0.0703125,77.75,-61.1875,16.5,0.0,0.0,0.0,288
1696287858954,-0.5751953,0.22851562,0.12792969,30.65625,-28.0625,-11.21875,0.0,0.0,0.0,289
1696287858994,-0.5439453,0.15039062,0.19921875,-2.125,25.65625,-14.0625,0.0,0.0,0.0,290
1696287859034,-0.6923828,0.17773438,0.3388672,-50.46875,46.40625,-12.0,0.0,0.0,0.0,291
1696287859074,-0.92578125,0.09667969,0.6435547,-30.28125,46.90625,-18.84375,0.0,0.0,0.0,292
1696287859114,-1.1064453,0.107421875,0.76171875,-6.90625,28.65625,-8.71875,0.0,0.0,0.0,293
1696287859154,-1.3681641,0.11425781,0.7324219,21.4375,11.5,-8.9375,0.0,0.0,0.0,294
1696287859194,-0.4326172,0.43066406,0.5498047,-19.40625,13.25,-14.5,0.0,0.0,0.0,295
1696287859234,-0.921875,0.3876953,-0.140625,20.5,97.96875,-12.78125,0.0,0.0,0.0,296
1696287859274,-2.0,-0.072265625,-0.21484375,-109.875,102.0625,18.03125,0.0,0.0,0.0,297
1696287859314,-0.6796875,-0.043945312,0.064453125,-102.09375,-14.75,-25.3125,0.0,0.0,0.0,298
1696287859354,-0.3642578,0.018554688,-0.6582031,-122.0625,0.4375,-11.5625,0.0,0.0,0.0,299
1696287859394,-0.9082031,0.15917969,-0.38085938,-167.125,68.375,7.21875,-63.3125,-22.9375,-191.3125,300
1696287859434,-1.2851562,0.14550781,0.043945312,-143.625,38.34375,42.9375,0.0,0.0,0.0,301
1696287859474,-0.9238281,-0.34765625,-0.2421875,-37.34375,52.4375,26.28125,0.0,0.0,0.0,302
1696287859514,-1.0419922,-0.43359375,-0.16601562,-81.78125,54.65625,0.03125,0.0,0.0,0.0,303
1696287859554,-1.0361328,-0.31152344,-0.06933594,-3.46875,61.65625,-14.0,0.0,0.0,0.0,304
1696287859594,-1.0605469,-0.00390625,0.46972656,-100.59375,179.34375,-15.46875,0.0,0.0,0.0,305
1696287859634,-0.91796875,0.026367188,0.06640625,-57.4375,-16.03125,-18.28125,0.0,0.0,0.0,306
1696287859674,-0.9140625,0.0068359375,-0.09765625,-16.46875,18.21875,0.5625,0.0,0.0,0.0,307
1696287859714,-1.0341797,-0.19824219,0.022460938,-56.28125,41.71875,2.65625,0.0,0.0,0.0,308
1696287859754,-1.0966797,-0.24902344,0.0146484375,-29.59375,36.75,-2.78125,0.0,0.0,0.0,309
1696287859794,-1.1113281,-0.21484375,0.15429688,-67.0625,25.71875,-11.28125,0.0,0.0,0.0,310
1696287859834,-1.1757812,-0.21582031,0.095703125,-70.25,-8.96875,-22.8125,0.0,0.0,0.0,311
1696287859874,-1.1152344,-0.11621094,0.27734375,-64.375,38.71875,-33.84375,-68.125,-25.625,-195.9375,312
1696287859914,-1.4248047,-0.12402344,0.001953125,-23.3125,-62.4375,-1.125,0.0,0.0,0.0,313
1696287859954,-1.1787109,-0.15917969,-0.32421875,-17.75,-94.78125,-15.71875,0.0,0.0,0.0,314
1696287859994,-0.99316406,0.3466797,-0.29589844,1.96875,-202.5625,10.59375,0.0,0.0,0.0,315
1696287860034,-1.2460938,0.2705078,-0.22558594,-112.59375,-128.9375,8.1875,0.0,0.0,0.0,316
1696287860074,-1.0449219,-0.19335938,0.109375,93.25,-130.78125,30.25,0.0,0.0,0.0,317
1696287860114,-1.1503906,-0.44628906,-0.10644531,86.125,-133.90625,46.84375,0.0,0.0,0.0,318
1696287860154,-0.87597656,0.1015625,-0.23046875,44.0625,-102.8125,24.0625,0.0,0.0,0.0,319
1696287860194,-0.7919922,0.23925781,0.09082031,44.4375,-95.25,16.6875,0.0,0.0,0.0,320
1696287860234,-0.47753906,0.390625,0.16015625,44.75,-46.0625,-5.03125,0.0,0.0,0.0,321
1696287860274,-0.5703125,0.07128906,0.19335938,4.53125,0.5625,0.375,0.0,0.0,0.0,322
1696287860314,-0.50390625,0.061523438,0.25,-31.78125,40.375,-8.53125,0.0,0.0,0.0,323
1696287860354,-0.67578125,0.09277344,0.4970703,-28.8125,78.9375,-13.96875,0.0,0.0,0.0,324
1696287860394,-1.2470703,-0.08496094,0.7519531,17.09375,73.9375,-33.90625,-52.625,-24.25,-180.0625,325
1696287860434,-1.7089844,0.041015625,0.87402344,55.0625,-29.53125,-19.21875,0.0,0.0,0.0,326
1696287860474,-0.21582031,0.41796875,0.63964844,-23.4375,-14.5625,-10.28125,0.0,0.0,0.0,327
1696287860514,-0.23242188,0.32910156,-0.1796875,31.8125,111.46875,-21.9375,0.0,0.0,0.0,328
1696287860554,-2.0,-0.055664062,-0.43066406,-22.21875,128.96875,32.875,0.0,0.0,0.0,329
1696287860594,-1.7402344,-0.7607422,1.4951172,-127.5,-87.375,-25.0625,0.0,0.0,0.0,330
1696287860634,-0.28710938,0.46875,-0.6767578,-131.09375,20.59375,-45.625,0.0,0.0,0.0,331
1696287860674,-0.5078125,0.14160156,-0.31152344,-24.21875,23.34375,10.71875,0.0,0.0,0.0,332
1696287860714,-1.4003906,0.390625,0.095703125,-188.71875,66.53125,57.8125,0.0,0.0,0.0,333
1696287860754,-1.0498047,-0.13769531,-0.13769531,-30.09375,50.3125,30.84375,0.0,0.0,0.0,334
1696287860794,-0.83203125,-0.4609375,-0.25683594,-112.78125,43.78125,6.375,0.0,0.0,0.0,335
1696287860834,-1.0683594,-0.5214844,-0.20703125,-55.71875,51.21875,-10.21875,0.0,0.0,0.0,336
1696287860874,-1.0722656,-0.2421875,-0.0234375,34.78125,66.78125,-30.25,-59.6875,-34.3125,-188.875,337
1696287860914,-0.90625,0.21875,0.39160156,16.4375,132.65625,-36.84375,0.0,0.0,0.0,338
1696287860954,-0.89453125,0.02734375,0.25585938,-73.0625,58.71875,-6.09375,0.0,0.0,0.0,339
1696287860994,-0.9501953,-0.15136719,-0.087890625,-16.53125,-14.875,7.90625,0.0,0.0,0.0,340
1696287861034,-1.0771484,-0.2783203,-0.1015625,-29.125,53.25,1.84375,0.0,0.0,0.0,341
1696287861074,-1.1220703,-0.076171875,0.34765625,-110.59375,110.25,-8.34375,0.0,0.0,0.0,342
1696287861114,-1.1875,-0.2734375,0.0048828125,-80.6875,-60.21875,-16.75,0.0,0.0,0.0,343
1696287861154,-1.2011719,-0.03125,0.08203125,-61.09375,27.40625,-38.625,0.0,0.0,0.0,344
1696287861194,-1.5224609,-0.041992188,0.26367188,-38.9375,-50.03125,2.03125,0.0,0.0,0.0,345
1696287861234,-1.3154297,-0.44140625,-0.44726562,37.25,-119.125,-11.21875,0.0,0.0,0.0,346
1696287861274,-0.94628906,0.51660156,-0.14453125,5.5625,-203.53125,0.9375,0.0,0.0,0.0,347
1696287861314,-1.1279297,0.22460938,-0.1328125,-108.625,-134.375,9.375,0.0,0.0,0.0,348
1696287861354,-1.0341797,-0.36816406,-0.29785156,29.375,-152.3125,21.3125,0.0,0.0,0.0,349
1696287861394,-0.9980469,-0.36132812,-0.072265625,100.90625,-143.28125,28.53125,-59.125,-36.6875,-183.1875,350
1696287861434,-0.9082031,-0.02734375,-0.14550781,34.96875,-117.46875,-2.40625,0.0,0.0,0.0,351
1696287861474,-0.734375,0.13964844,0.02734375,89.0625,-69.875,-13.28125,0.0,0.0,0.0,352
1696287861514,-0.5576172,0.35058594,0.030273438,89.3125,-43.375,-2.0,0.0,0.0,0.0,353
1696287861554,-0.56152344,0.13671875,0.11621094,28.4375,9.90625,-9.75,0.0,0.0,0.0,354
1696287861594,-0.5800781,0.08300781,0.28222656,-15.625,42.125,-14.25,0.0,0.0,0.0,355
1696287861634,-0.8076172,-0.07324219,0.49023438,13.0,74.34375,-22.8125,0.0,0.0,0.0,356
1696287861674,-1.4082031,-0.030273438,0.9707031,11.1875,32.0625,-19.875,0.0,0.0,0.0,357
1696287861714,-1.3730469,0.20800781,0.8105469,42.0,-21.21875,2.71875,0.0,0.0,0.0,358
1696287861754,-0.3251953,0.38378906,0.39160156,13.125,30.28125,-35.5,0.0,0.0,0.0,359
1696287861794,-0.515625,0.2626953,-0.19628906,33.625,107.75,-15.84375,0.0,0.0,0.0,360
1696287861834,-2.0,0.15625,-0.30664062,-56.625,118.25,42.125,0.0,0.0,0.0,361
1696287861874,-1.3701172,-0.34570312,0.9824219,-43.625,-69.0625,-3.9375,0.0,0.0,0.0,362
1696287861914,-0.25585938,0.22949219,-0.8261719,-172.1875,21.5625,-15.3125,-60.875,-31.75,-183.1875,363
1696287861954,-0.6455078,-0.045898438,-0.2841797,-23.625,24.75,27.65625,0.0,0.0,0.0,364
1696287861994,-1.359375,-0.0546875,-0.1328125,-115.34375,77.84375,37.5,0.0,0.0,0.0,365
1696287862034,-1.1855469,-0.35253906,-0.28710938,-70.8125,48.25,-6.625,0.0,0.0,0.0,366
1696287862074,-0.9140625,-0.091796875,-0.076171875,15.8125,67.9375,-22.3125,0.0,0.0,0.0,367
1696287862114,-1.0205078,-0.17578125,0.36816406,-17.21875,105.5,-11.34375,0.0,0.0,0.0,368
1696287862154,-0.9589844,-0.0546875,-0.020507812,-26.59375,14.53125,-13.84375,0.0,0.0,0.0,369
1696287862194,-0.9033203,-0.16894531,-0.033203125,11.71875,18.375,-11.9375,0.0,0.0,0.0,370
1696287862234,-0.9794922,-0.009765625,0.0146484375,-1.46875,57.4375,-8.78125,0.0,0.0,0.0,371
1696287862274,-1.0341797,-0.068359375,0.12988281,-10.875,75.6875,4.78125,0.0,0.0,0.0,372
1696287862314,-1.0205078,-0.24707031,0.14746094,-55.84375,52.625,5.03125,0.0,0.0,0.0,373
1696287862354,-1.1650391,-0.32421875,0.018554688,-72.1875,-22.0625,-1.75,0.0,0.0,0.0,374
1696287862394,-1.1787109,-0.13867188,-0.017578125,-19.90625,-14.625,-21.21875,-68.5625,-38.6875,-194.0,375
1696287862434,-1.1806641,0.26953125,0.1875,54.9375,25.09375,-12.0,0.0,0.0,0.0,376
1696287862474,-1.5615234,-0.4189453,0.16601562,-65.71875,-74.15625,7.59375,0.0,0.0,0.0,377
1696287862514,-1.2285156,0.14453125,0.05859375,27.15625,-173.9375,-9.625,0.0,0.0,0.0,378
1696287862554,-0.9980469,0.40234375,-0.19824219,52.25,-167.65625,12.65625,0.0,0.0,0.0,379
1696287862594,-1.0878906,-0.14941406,-0.33789062,-26.0625,-134.8125,17.34375,0.0,0.0,0.0,380
1696287862634,-1.3193359,-0.5517578,0.296875,116.8125,-143.21875,43.71875,0.0,0.0,0.0,381
1696287862674,-1.0302734,-0.32421875,-0.09472656,66.34375,-140.375,5.875,0.0,0.0,0.0,382
1696287862714,-0.80371094,0.0029296875,-0.08886719,75.0625,-101.125,-12.90625,0.0,0.0,0.0,383
1696287862754,-0.6425781,0.38671875,0.024414062,122.1875,-70.90625,-8.15625,0.0,0.0,0.0,384
1696287862794,-0.4765625,0.22558594,0.08300781,71.78125,-28.59375,-14.9375,0.0,0.0,0.0,385
1696287862834,-0.53222656,0.12792969,0.1796875,24.34375,30.21875,-22.5625,0.0,0.0,0.0,386
1696287862874,-0.5683594,0.125,0.34472656,0.90625,70.6875,-18.34375,0.0,0.0,0.0,387
1696287862914,-1.1201172,0.0078125,0.5986328,36.1875,89.5,-21.65625,-57.625,-29.1875,-173.4375,388
1696287862954,-1.6679688,0.21582031,1.2207031,34.65625,6.59375,-14.25,0.0,0.0,0.0,389
1696287862994,-0.9941406,-0.038085938,0.6796875,47.5625,-54.4375,-21.40625,0.0,0.0,0.0,390
1696287863034,-0.052734375,0.29296875,0.17480469,-21.0625,54.9375,-44.28125,0.0,0.0,0.0,391
1696287863074,-1.0849609,-0.103515625,-0.12109375,22.15625,139.125,-8.15625,0.0,0.0,0.0,392
1696287863114,-2.0,0.20410156,0.23242188,-70.96875,128.5,-4.96875,0.0,0.0,0.0,393
1696287863154,-0.7783203,0.0068359375,0.42578125,-52.71875,-70.1875,-31.40625,0.0,0.0,0.0,394
1696287863194,-0.18359375,0.2421875,-0.8066406,-52.3125,-0.40625,-5.46875,0.0,0.0,0.0,395
1696287863234,-0.67871094,0.13867188,-0.13085938,-95.34375,24.625,31.8125,0.0,0.0,0.0,396
1696287863274,-1.5400391,-0.029296875,-0.14257812,-30.875,67.28125,34.1875,0.0,0.0,0.0,397
1696287863314,-0.9375,-0.46191406,-0.34277344,-70.84375,59.90625,-11.5,0.0,0.0,0.0,398
1696287863354,-0.85058594,-0.16113281,-0.109375,-7.125,77.21875,-15.90625,0.0,0.0,0.0,399
1696287863394,-1.0048828,-0.16796875,0.34179688,40.40625,119.84375,-8.71875,-67.1875,-35.0625,-183.375,400
1696287863434,-0.9746094,0.01171875,0.05078125,-67.6875,19.59375,-19.9375,0.0,0.0,0.0,401
1696287863474,-0.8828125,-0.02734375,-0.040039062,1.96875,37.75,-2.125,0.0,0.0,0.0,402
1696287863514,-0.9550781,-0.08496094,0.049804688,-1.03125,53.25,4.78125,0.0,0.0,0.0,403
1696287863554,-1.0253906,-0.17773438,0.21875,-48.65625,87.59375,8.4375,0.0,0.0,0.0,404
1696287863594,-1.1015625,-0.32714844,-0.09082031,-103.8125,8.8125,5.15625,0.0,0.0,0.0,405
1696287863634,-1.1542969,-0.22949219,-0.10449219,24.71875,-6.625,-11.09375,0.0,0.0,0.0,406
1696287863674,-1.0566406,0.056640625,0.18457031,2.625,54.71875,-27.03125,0.0,0.0,0.0,407
1696287863714,-1.2558594,0.06542969,0.19726562,-101.3125,15.28125,-13.03125,0.0,0.0,0.0,408
1696287863754,-1.5615234,-0.6582031,0.20996094,41.9375,-49.40625,12.53125,0.0,0.0,0.0,409
1696287863794,-0.8466797,-0.048828125,-0.18847656,123.125,-122.84375,-20.0,0.0,0.0,0.0,410
1696287863834,-0.8671875,0.68066406,-0.0009765625,43.28125,-152.3125,23.8125,0.0,0.0,0.0,411
1696287863874,-1.1201172,-0.11816406,-0.33496094,-81.21875,-122.40625,20.71875,0.0,0.0,0.0,412
1696287863914,-1.2128906,-0.4404297,-0.19433594,84.15625,-124.8125,17.1875,-65.5625,-40.3125,-179.4375,413
1696287863954,-1.1660156,-0.18847656,0.10839844,82.21875,-142.6875,28.71875,0.0,0.0,0.0,414
1696287863994,-0.9736328,-0.041992188,-0.07714844,36.875,-97.75,-22.5625,0.0,0.0,0.0,415
1696287864034,-0.7519531,0.076171875,0.099609375,138.3125,-82.75,-24.6875,0.0,0.0,0.0,416
1696287864074,-0.6044922,0.24023438,-0.087890625,78.6875,-66.875,-2.90625,0.0,0.0,0.0,417
1696287864114,-0.53125,0.14941406,0.12109375,52.75,-19.625,-5.09375,0.0,0.0,0.0,418
1696287864154,-0.56933594,0.20507812,0.23339844,29.1875,34.0625,-19.15625,0.0,0.0,0.0,419
1696287864194,-0.6845703,0.020507812,0.37304688,38.21875,74.71875,-26.40625,0.0,0.0,0.0,420
1696287864234,-1.2685547,-0.078125,0.8046875,29.90625,76.8125,-19.5,0.0,0.0,0.0,421
1696287864274,-1.6552734,0.14941406,1.0175781,81.59375,-39.28125,7.46875,0.0,0.0,0.0,422
1696287864314,-0.22558594,0.37109375,0.23730469,-5.375,1.0625,-43.1875,0.0,0.0,0.0,423
1696287864354,-0.9550781,0.4736328,-0.30566406,26.90625,77.96875,-12.0625,0.0,0.0,0.0,424
1696287864394,-2.0,-0.41015625,0.42773438,-64.625,149.1875,31.75,-60.875,-22.75,-172.125,425
1696287864434,-0.47460938,-0.01171875,0.0390625,-104.71875,5.03125,-28.25,0.0,0.0,0.0,426
1696287864474,-0.3857422,0.21582031,-0.52734375,-50.40625,33.65625,6.0625,0.0,0.0,0.0,427
1696287864514,-1.0166016,0.23339844,-0.20605469,-18.4375,40.4375,28.46875,0.0,0.0,0.0,428
1696287864554,-1.3134766,-0.26464844,-0.3154297,-19.71875,56.15625,10.875,0.0,0.0,0.0,429
1696287864594,-1.0576172,-0.36816406,-0.033203125,76.0,83.9375,-19.625,0.0,0.0,0.0,430
1696287864634,-1.0029297,-0.25683594,-0.05859375,-88.4375,-25.875,-34.9375,0.0,0.0,0.0,431
1696287864674,-0.90527344,-0.1640625,-0.1640625,5.75,36.625,-14.75,0.0,0.0,0.0,432
1696287864714,-0.9345703,-0.044921875,-0.05859375,37.90625,51.59375,-18.34375,0.0,0.0,0.0,433
1696287864754,-0.95996094,0.06738281,0.10644531,20.09375,78.3125,-11.03125,0.0,0.0,0.0,434
1696287864794,-0.89746094,0.09082031,0.18066406,4.9375,51.65625,5.15625,0.0,0.0,0.0,435
1696287864834,-0.98046875,-0.19238281,0.059570312,0.375,22.78125,20.78125,0.0,0.0,0.0,436
1696287864874,-1.1123047,-0.27148438,0.0107421875,-30.28125,36.46875,15.40625,0.0,0.0,0.0,437
1696287864914,-1.0976562,-0.1171875,-0.06347656,-42.0,17.28125,3.1875,-72.0,-27.875,-183.8125,438
1696287864954,-1.2207031,-0.0146484375,0.1328125,59.5,15.40625,10.59375,0.0,0.0,0.0,439
1696287864994,-1.4052734,-0.22167969,0.27246094,-22.15625,-17.8125,13.6875,0.0,0.0,0.0,440
1696287865034,-1.3076172,-0.84375,-0.29589844,26.4375,-100.9375,-2.59375,0.0,0.0,0.0,441
1696287865074,-1.171875,0.26464844,0.044921875,109.6875,-179.1875,1.71875,0.0,0.0,0.0,442
1696287865114,-0.9824219,-0.034179688,-0.19433594,88.8125,-136.8125,10.71875,0.0,0.0,0.0,443
1696287865154,-1.2099609,-0.3623047,-0.057617188,69.65625,-122.53125,11.9375,0.0,0.0,0.0,444
1696287865194,-1.0302734,-0.54296875,0.095703125,175.40625,-140.5,2.9375,0.0,0.0,0.0,445
1696287865234,-1.0400391,-0.17480469,-0.14257812,38.875,-99.46875,-12.625,0.0,0.0,0.0,446
1696287865274,-0.9453125,-0.041992188,-0.12011719,114.25,-72.4375,-65.71875,0.0,0.0,0.0,447
1696287865314,-0.93652344,-0.043945312,-0.056640625,195.8125,-37.21875,-89.15625,0.0,0.0,0.0,448
1696287865354,-0.80859375,0.25390625,-0.048828125,141.65625,0.8125,-74.1875,0.0,0.0,0.0,449
1696287865394,-0.8183594,0.23730469,0.22851562,134.53125,8.8125,-42.65625,-55.0625,-12.25,-175.6875,450
1696287865434,-0.8886719,0.18261719,0.18652344,106.375,27.0,-45.625,0.0,0.0,0.0,451
1696287865474,-0.81640625,0.12890625,0.390625,110.46875,19.3125,-38.125,0.0,0.0,0.0,452
1696287865514,-0.8515625,0.0625,0.57714844,96.75,20.78125,-49.59375,0.0,0.0,0.0,453
1696287865554,-1.3945312,-0.30273438,0.6855469,97.65625,15.6875,-38.6875,0.0,0.0,0.0,454
1696287865594,-0.9345703,-0.043945312,0.51464844,92.96875,-30.5625,-42.53125,0.0,0.0,0.0,455
1696287865634,-0.44921875,0.2607422,0.16601562,80.25,46.53125,-55.28125,0.0,0.0,0.0,456
1696287865674,-1.0996094,0.16113281,-0.08691406,31.625,101.40625,-20.78125,0.0,0.0,0.0,457
1696287865714,-2.0,-0.17675781,0.7158203,-4.9375,126.125,4.84375,0.0,0.0,0.0,458
1696287865754,-0.7714844,0.024414062,-0.057617188,29.375,-7.4375,-6.5625,0.0,0.0,0.0,459
1696287865794,-0.31640625,0.1796875,-0.30078125,55.96875,-2.84375,29.125,0.0,0.0,0.0,460
1696287865834,-1.0292969,-0.35546875,-0.28125,103.75,-17.75,65.9375,0.0,0.0,0.0,461
1696287865874,-1.3945312,-0.47460938,-0.2421875,126.65625,75.21875,-43.0,0.0,0.0,0.0,462
1696287865914,-0.97558594,0.1171875,-0.038085938,29.90625,72.96875,-68.875,-61.625,-3.875,-201.5,463
1696287865954,-1.0527344,0.4560547,0.625,72.8125,156.21875,-37.5,0.0,0.0,0.0,464
1696287865994,-0.9794922,-0.19238281,-0.12109375,-14.8125,-37.875,-9.875,0.0,0.0,0.0,465
1696287866034,-0.8935547,-0.09863281,-0.16796875,-13.0625,26.4375,-18.28125,0.0,0.0,0.0,466
1696287866074,-0.97753906,-0.049804688,-0.049804688,73.125,49.09375,-8.875,0.0,0.0,0.0,467
1696287866114,-0.97558594,-0.0068359375,0.041015625,88.625,51.84375,-0.40625,0.0,0.0,0.0,468
1696287866154,-1.0537109,-0.0859375,0.09765625,30.59375,40.78125,6.0,0.0,0.0,0.0,469
1696287866194,-1.0634766,-0.051757812,0.17773438,-16.59375,37.0625,-0.28125,0.0,0.0,0.0,470
1696287866234,-1.1210938,-0.2841797,-0.087890625,9.65625,2.75,13.21875,0.0,0.0,0.0,471
1696287866274,-1.2255859,-0.10546875,-0.041992188,100.78125,19.90625,-0.78125,0.0,0.0,0.0,472
1696287866314,-1.1845703,0.05859375,0.453125,138.8125,58.0625,1.625,0.0,0.0,0.0,473
1696287866354,-1.3496094,-0.4638672,0.02734375,-33.4375,-71.15625,35.53125,0.0,0.0,0.0,474
1696287866394,-0.9082031,-0.19433594,0.02734375,67.375,-96.84375,14.3125,-62.125,-9.875,-217.875,475
1696287866434,-0.86621094,0.20117188,-0.14746094,13.375,-160.9375,13.8125,0.0,0.0,0.0,476
1696287866474,-0.94921875,-0.3095703,-0.41503906,37.28125,-123.53125,-5.71875,0.0,0.0,0.0,477
1696287866514,-1.3779297,-0.51660156,0.034179688,146.0,-132.78125,-8.21875,0.0,0.0,0.0,478
1696287866554,-1.0371094,-0.1953125,-0.07324219,118.0,-124.25,1.25,0.0,0.0,0.0,479
1696287866594,-1.0644531,-0.15136719,0.0068359375,207.71875,-107.21875,-40.8125,0.0,0.0,0.0,480
1696287866634,-0.77441406,0.1953125,0.015625,90.34375,-78.78125,-51.625,0.0,0.0,0.0,481
1696287866674,-0.67871094,0.17089844,-0.083984375,114.5,-35.8125,-41.90625,0.0,0.0,0.0,482
1696287866714,-0.59765625,0.21972656,0.0390625,92.09375,-1.5,-40.3125,0.0,0.0,0.0,483
1696287866754,-0.66796875,0.26171875,0.13769531,57.375,33.71875,-27.1875,0.0,0.0,0.0,484
1696287866794,-1.0732422,-0.040039062,0.46875,62.6875,50.90625,-17.5625,0.0,0.0,0.0,485
1696287866834,-1.0644531,0.16210938,0.61328125,96.8125,24.6875,-34.46875,0.0,0.0,0.0,486
1696287866874,-1.2128906,0.16699219,1.0234375,99.25,-17.1875,-20.90625,0.0,0.0,0.0,487
1696287866914,-0.9042969,0.18554688,0.23828125,-8.59375,-18.84375,-21.40625,-69.75,-24.6875,-213.375,488
1696287866954,-0.4794922,0.20117188,0.4091797,28.03125,22.28125,-24.15625,0.0,0.0,0.0,489
1696287866994,-1.234375,0.061523438,-0.1640625,26.75,97.1875,-4.25,0.0,0.0,0.0,490
1696287867034,-1.9091797,-0.013671875,0.3125,-18.1875,115.0625,8.875,0.0,0.0,0.0,491
1696287867074,-0.5517578,0.07128906,0.14453125,-27.59375,24.375,-20.375,0.0,0.0,0.0,492
1696287867114,-0.4404297,0.08300781,-0.1484375,-65.71875,26.5,18.625,0.0,0.0,0.0,493
1696287867154,-1.0908203,-0.2861328,-0.27539062,10.1875,18.03125,49.09375,0.0,0.0,0.0,494
1696287867194,-1.4375,-0.43066406,-0.23632812,71.125,68.9375,-29.625,0.0,0.0,0.0,495
1696287867234,-0.8388672,-0.064453125,0.46679688,7.375,86.9375,-52.84375,0.0,0.0,0.0,496
1696287867274,-1.0136719,-0.13183594,0.1484375,20.28125,-45.8125,-21.46875,0.0,0.0,0.0,497
1696287867314,-0.8339844,-0.09765625,-0.2783203,-61.53125,0.6875,-32.875,0.0,0.0,0.0,498
1696287867354,-0.8779297,0.06347656,-0.18066406,-11.21875,40.84375,-23.28125,0.0,0.0,0.0,499
1696287867394,-0.9472656,-0.038085938,-0.15136719,55.84375,42.5625,-6.875,-63.75,-26.0625,-225.1875,500
1696287867434,-1.0117188,-0.072265625,-0.0390625,65.0,61.1875,3.0,0.0,0.0,0.0,501
1696287867474,-1.0390625,-0.13964844,0.119140625,100.40625,76.0625,12.03125,0.0,0.0,0.0,502
1696287867514,-1.0751953,-0.10058594,0.19238281,-6.59375,50.90625,1.1875,0.0,0.0,0.0,503
1696287867554,-1.0673828,0.040039062,0.20214844,-79.65625,19.0,3.25,0.0,0.0,0.0,504
1696287867594,-1.1982422,-0.30371094,-0.28515625,-51.5625,-35.375,9.3125,0.0,0.0,0.0,505
1696287867634,-0.97265625,0.025390625,0.015625,85.40625,44.03125,-12.0625,0.0,0.0,0.0,506
1696287867674,-1.3710938,-0.2763672,0.58984375,53.90625,20.46875,25.78125,0.0,0.0,0.0,507
1696287867714,-1.390625,-0.453125,-0.02734375,-28.5,-92.625,10.28125,0.0,0.0,0.0,508
1696287867754,-1.1660156,0.13769531,-0.009765625,125.75,-168.4375,7.40625,0.0,0.0,0.0,509
1696287867794,-0.9794922,0.203125,-0.099609375,-2.625,-156.40625,8.1875,0.0,0.0,0.0,510
1696287867834,-1.2060547,-0.16894531,-0.48242188,-32.71875,-110.21875,-1.125,0.0,0.0,0.0,511
1696287867874,-1.1025391,-0.4921875,0.2841797,203.1875,-126.5625,8.4375,0.0,0.0,0.0,512
1696287867914,-1.1904297,-0.26464844,-0.009765625,181.71875,-107.15625,-16.03125,-69.875,-33.875,-214.25,513
1696287867954,-0.8359375,0.125,-0.043945312,113.59375,-100.5,-43.0,0.0,0.0,0.0,514
1696287867994,-0.74121094,0.24707031,-0.048828125,100.96875,-50.53125,-37.28125,0.0,0.0,0.0,515
1696287868034,-0.5605469,0.20996094,0.0,64.46875,-46.3125,-16.15625,0.0,0.0,0.0,516
1696287868074,-0.6191406,0.123046875,0.09082031,50.71875,-0.78125,-14.0,0.0,0.0,0.0,517
1696287868114,-0.70410156,0.19824219,0.26757812,16.0625,51.90625,-19.5625,0.0,0.0,0.0,518
1696287868154,-1.0849609,-0.08496094,0.58203125,27.90625,68.5625,-23.0,0.0,0.0,0.0,519
1696287868194,-1.2226562,0.115234375,0.86621094,89.90625,20.21875,-18.03125,0.0,0.0,0.0,520
1696287868234,-1.2529297,-0.01953125,0.6386719,11.21875,-13.65625,-18.90625,0.0,0.0,0.0,521
1696287868274,-0.4453125,0.23339844,0.37597656,-0.375,15.53125,-30.9375,0.0,0.0,0.0,522
1696287868314,-1.0302734,0.061523438,-0.13867188,36.0625,93.9375,-16.09375,0.0,0.0,0.0,523
1696287868354,-2.0,0.08886719,-0.06933594,-53.875,110.84375,8.5625,0.0,0.0,0.0,524
1696287868394,-0.8076172,-0.072265625,0.4033203,-44.78125,-16.65625,-22.5625,-69.75,-40.75,-213.9375,525
1696287868434,-0.25683594,0.21484375,-0.4501953,-81.1875,22.0,-6.25,0.0,0.0,0.0,526
1696287868474,-0.859375,0.15722656,-0.16113281,-53.15625,37.25,38.0,0.0,0.0,0.0,527
1696287868514,-1.5732422,-0.24414062,-0.25878906,-31.78125,58.625,30.0,0.0,0.0,0.0,528
1696287868554,-1.0166016,-0.36132812,-0.06347656,40.34375,47.75,-22.375,0.0,0.0,0.0,529
1696287868594,-0.9238281,-0.140625,0.36132812,-60.78125,128.3125,-19.375,0.0,0.0,0.0,530
1696287868634,-0.95996094,-0.091796875,-0.09667969,-44.0625,6.0625,-18.71875,0.0,0.0,0.0,531
1696287868674,-0.9238281,-0.11425781,-0.09863281,-12.4375,37.4375,-15.0625,0.0,0.0,0.0,532
1696287868714,-0.90722656,-0.0390625,0.0390625,-0.65625,56.46875,-13.34375,0.0,0.0,0.0,533
1696287868754,-0.8984375,-0.046875,0.020507812,-19.78125,37.625,-6.4375,0.0,0.0,0.0,534
1696287868794,-1.0361328,-0.07910156,-0.11621094,-49.1875,50.0,0.5,0.0,0.0,0.0,535
1696287868834,-1.0722656,-0.0625,0.25976562,-3.15625,106.21875,1.125,0.0,0.0,0.0,536
1696287868874,-1.1796875,-0.31835938,0.30273438,-132.9375,-16.65625,0.09375,0.0,0.0,0.0,537
1696287868914,-1.4101562,-0.3046875,-0.10449219,-49.0,-26.78125,-5.78125,-63.4375,-35.9375,-228.625,538
1696287868954,-1.2255859,0.091796875,0.33691406,74.21875,16.1875,-9.0,0.0,0.0,0.0,539
1696287868994,-1.4892578,-0.40722656,0.0390625,-14.78125,-85.5,14.78125,0.0,0.0,0.0,540
1696287869034,-1.1630859,0.24707031,-0.18554688,26.6875,-190.46875,-5.78125,0.0,0.0,0.0,541
1696287869074,-0.95214844,0.3935547,-0.12988281,50.28125,-165.28125,8.75,0.0,0.0,0.0,542
1696287869114,-1.3242188,0.0078125,-0.17382812,-20.25,-144.5,14.125,0.0,0.0,0.0,543
1696287869154,-1.0683594,-0.37890625,0.11621094,127.9375,-136.59375,41.46875,0.0,0.0,0.0,544
1696287869194,-1.0419922,-0.21679688,0.12011719,18.0,-126.8125,7.09375,0.0,0.0,0.0,545
1696287869234,-0.7529297,-0.0146484375,-0.10546875,68.71875,-53.625,-39.53125,0.0,0.0,0.0,546
1696287869274,-0.72265625,0.36816406,0.044921875,132.5625,-58.28125,-25.84375,0.0,0.0,0.0,547
1696287869314,-0.53222656,0.3251953,0.08496094,38.21875,-12.0625,-36.40625,0.0,0.0,0.0,548
1696287869354,-0.5058594,0.18066406,0.14453125,-8.78125,39.25,-27.4375,0.0,0.0,0.0,549
1696287869394,-0.6357422,0.0859375,0.3203125,1.09375,71.25,-15.3125,-70.625,-42.6875,-202.125,550
1696287869434,-1.3339844,-0.23046875,0.7158203,11.90625,76.125,-15.53125,0.0,0.0,0.0,551
1696287869474,-1.3876953,-0.14648438,1.1552734,125.75,-31.34375,-24.5625,0.0,0.0,0.0,552
1696287869514,-1.0214844,0.11816406,0.60546875,-7.5625,-22.375,-37.09375,0.0,0.0,0.0,553
1696287869554,-0.38671875,0.32910156,0.26757812,32.34375,33.21875,-28.84375,0.0,0.0,0.0,554
1696287869594,-1.2197266,-0.029296875,-0.24511719,69.8125,131.375,-17.0625,0.0,0.0,0.0,555
1696287869634,-2.0,0.09863281,0.5908203,-67.875,123.84375,-6.375,0.0,0.0,0.0,556
1696287869674,-0.703125,0.20507812,0.25683594,-25.21875,-17.8125,-26.90625,0.0,0.0,0.0,557
1696287869714,-0.47753906,0.20214844,-0.5439453,-64.6875,-4.3125,21.4375,0.0,0.0,0.0,558
1696287869754,-0.88964844,-0.0703125,-0.26660156,-36.9375,67.59375,40.0,0.0,0.0,0.0,559
1696287869794,-1.3935547,-0.21289062,-0.19628906,-44.625,67.65625,24.25,0.0,0.0,0.0,560
1696287869834,-1.0478516,-0.41308594,-0.14550781,-32.78125,61.90625,-30.75,0.0,0.0,0.0,561
1696287869874,-0.8457031,0.041992188,0.20019531,21.3125,85.84375,-25.0625,0.0,0.0,0.0,562
1696287869914,-0.90625,-0.06347656,0.07910156,-24.96875,17.59375,-13.09375,-65.5625,-43.75,-215.125,563
1696287869954,-0.9453125,-0.13574219,-0.078125,-65.5,26.8125,-15.40625,0.0,0.0,0.0,564
1696287869994,-0.8701172,-0.078125,-0.024414062,-55.125,48.125,-10.84375,0.0,0.0,0.0,565
1696287870034,-0.9580078,-0.026367188,0.01171875,-16.90625,49.75,1.4375,0.0,0.0,0.0,566
1696287870074,-1.0498047,-0.15234375,0.18359375,-32.90625,104.09375,7.53125,0.0,0.0,0.0,567
1696287870114,-1.1298828,-0.24023438,0.21289062,-105.34375,48.84375,4.1875,0.0,0.0,0.0,568
1696287870154,-1.1435547,-0.32226562,0.0009765625,-60.84375,-12.96875,-3.28125,0.0,0.0,0.0,569
1696287870194,-1.1875,-0.1796875,-0.0126953125,-6.21875,23.46875,-16.75,0.0,0.0,0.0,570
1696287870234,-1.1679688,0.25195312,0.3017578,-36.4375,33.21875,-11.09375,0.0,0.0,0.0,571
1696287870274,-1.3457031,-0.44921875,0.072265625,9.40625,-102.28125,31.40625,0.0,0.0,0.0,572
1696287870314,-1.3330078,0.103515625,-0.32910156,12.03125,-181.0625,-6.03125,0.0,0.0,0.0,573
1696287870354,-1.0136719,0.390625,-0.2421875,25.6875,-154.40625,-4.25,0.0,0.0,0.0,574
1696287870394,-1.171875,-0.0087890625,-0.17089844,-33.75,-134.375,1.625,-64.375,-38.375,-211.5625,575
1696287870434,-1.1435547,-0.44433594,0.18261719,169.625,-142.1875,27.3125,0.0,0.0,0.0,576
1696287870474,-1.0224609,-0.2783203,-0.18164062,118.34375,-136.03125,12.53125,0.0,0.0,0.0,577
1696287870514,-0.96777344,-0.16308594,-0.19726562,83.9375,-104.15625,-21.9375,0.0,0.0,0.0,578
1696287870554,-0.7626953,0.2998047,0.055664062,92.78125,-55.46875,-37.40625,0.0,0.0,0.0,579
1696287870594,-0.47460938,0.40039062,0.19238281,71.53125,-32.875,-38.96875,0.0,0.0,0.0,580
1696287870634,-0.57421875,0.08300781,0.21191406,23.5,13.125,-29.75,0.0,0.0,0.0,581
1696287870674,-0.7470703,0.0625,0.2841797,10.625,58.25,-26.53125,0.0,0.0,0.0,582
1696287870714,-1.0039062,0.0048828125,0.6201172,17.9375,57.03125,-21.15625,0.0,0.0,0.0,583
1696287870754,-0.94628906,0.017578125,0.8417969,87.65625,3.8125,-17.1875,0.0,0.0,0.0,584
1696287870794,-1.2158203,-0.2919922,0.5800781,27.40625,41.8125,-32.25,0.0,0.0,0.0,585
1696287870834,-0.7294922,-0.09667969,0.6279297,26.25,14.40625,-27.0625,0.0,0.0,0.0,586
1696287870874,-0.8515625,0.12402344,-0.038085938,65.125,101.15625,-16.28125,0.0,0.0,0.0,587
1696287870914,-2.0,0.35058594,-0.26171875,-39.125,110.4375,21.75,-62.875,-39.6875,-205.125,588
1696287870954,-0.70214844,0.17382812,0.25976562,-9.75,-45.21875,-26.96875,0.0,0.0,0.0,589
1696287870994,-0.34472656,0.125,-0.51660156,-49.96875,-8.28125,14.1875,0.0,0.0,0.0,590
1696287871034,-0.9824219,0.15917969,-0.29296875,-76.96875,75.75,36.78125,0.0,0.0,0.0,591
1696287871074,-1.3173828,-0.08203125,-0.09765625,-44.3125,56.59375,38.34375,0.0,0.0,0.0,592
1696287871114,-0.9160156,-0.51660156,-0.20117188,-17.09375,50.90625,-16.53125,0.0,0.0,0.0,593
1696287871154,-0.8847656,-0.15136719,0.034179688,-31.4375,68.5,-32.375,0.0,0.0,0.0,594
1696287871194,-1.0732422,-0.17089844,0.18554688,-25.5,54.09375,-11.40625,0.0,0.0,0.0,595
1696287871234,-0.97753906,-0.08300781,-0.06542969,-16.78125,35.65625,-16.8125,0.0,0.0,0.0,596
1696287871274,-0.8779297,-0.08886719,-0.013671875,12.28125,46.28125,-8.15625,0.0,0.0,0.0,597
1696287871314,-0.95703125,0.00390625,-0.028320312,1.59375,54.34375,-4.25,0.0,0.0,0.0,598
1696287871354,-1.0976562,0.04296875,0.045898438,-35.34375,84.0,0.15625,0.0,0.0,0.0,599
1696287871394,-1.0654297,-0.3330078,0.37109375,-95.21875,50.5,7.96875,-55.9375,-36.4375,-218.625,600
1696287871434,-1.1708984,-0.4326172,-0.16601562,-105.53125,-56.9375,-9.25,0.0,0.0,0.0,601
1696287871474,-1.3554688,-0.14941406,0.057617188,59.4375,3.96875,-21.28125,0.0,0.0,0.0,602
1696287871514,-1.2363281,0.01171875,0.2734375,12.03125,6.78125,-2.96875,0.0,0.0,0.0,603
1696287871554,-1.4130859,-0.24902344,-0.033203125,-37.65625,-123.46875,5.21875,0.0,0.0,0.0,604
1696287871594,-1.1513672,0.5048828,0.08203125,51.8125,-176.375,-0.15625,0.0,0.0,0.0,605
1696287871634,-1.0625,0.19238281,-0.22265625,-10.875,-148.1875,5.5625,0.0,0.0,0.0,606
1696287871674,-1.1542969,-0.17675781,-0.07714844,33.875,-157.21875,25.21875,0.0,0.0,0.0,607
1696287871714,-1.0224609,-0.3828125,0.07421875,96.8125,-154.40625,38.84375,0.0,0.0,0.0,608
1696287871754,-0.90234375,-0.06542969,-0.08984375,15.375,-113.3125,13.5,0.0,0.0,0.0,609
1696287871794,-0.8535156,0.0859375,-0.041992188,66.09375,-73.40625,-15.40625,0.0,0.0,0.0,610
1696287871834,-0.64453125,0.27148438,0.09863281,118.59375,-49.3125,-24.03125,0.0,0.0,0.0,611
1696287871874,-0.5078125,0.27246094,0.109375,25.21875,14.1875,-40.3125,0.0,0.0,0.0,612
1696287871914,-0.5527344,0.13476562,0.24316406,-19.65625,46.53125,-33.375,-62.5625,-41.5,-201.9375,613
1696287871954,-0.76171875,0.025390625,0.47460938,-27.59375,67.9375,-32.875,0.0,0.0,0.0,614
1696287871994,-1.1474609,-0.0087890625,0.6230469,20.21875,46.84375,-17.90625,0.0,0.0,0.0,615
1696287872034,-1.3222656,0.0234375,0.9238281,99.90625,-24.28125,-12.0,0.0,0.0,0.0,616
1696287872074,-0.9091797,0.0146484375,0.6640625,-7.125,-39.71875,-30.25,0.0,0.0,0.0,617
1696287872114,-0.26660156,0.3466797,0.046875,31.5,50.75,-24.09375,0.0,0.0,0.0,618
1696287872154,-2.0,-0.064453125,-0.37304688,18.5,147.125,23.71875,0.0,0.0,0.0,619
1696287872194,-1.6552734,-0.1171875,1.0419922,-68.90625,-10.34375,-16.40625,0.0,0.0,0.0,620
1696287872234,-0.21484375,0.51953125,-0.421875,-77.03125,7.78125,-33.4375,0.0,0.0,0.0,621
1696287872274,-0.5595703,0.18164062,-0.35839844,-92.03125,16.0,17.84375,0.0,0.0,0.0,622
1696287872314,-1.2861328,0.19921875,-0.14453125,-187.8125,113.65625,61.1875,0.0,0.0,0.0,623
1696287872354,-1.1005859,-0.4267578,-0.2998047,-83.1875,153.65625,25.34375,0.0,0.0,0.0,624
1696287872394,-0.97558594,-0.578125,0.49121094,0.0,49.75,-12.90625,-61.0625,-41.8125,-216.8125,625
1696287872434,-0.9658203,-0.056640625,-0.06738281,-49.96875,24.75,-14.4375,0.0,0.0,0.0,626
1696287872474,-0.98535156,-0.09082031,-0.0078125,34.65625,22.78125,-3.21875,0.0,0.0,0.0,627
1696287872514,-0.8779297,-0.057617188,0.017578125,-37.96875,44.4375,-11.4375,0.0,0.0,0.0,628
1696287872554,-0.8808594,-0.045898438,-0.030273438,-16.96875,38.84375,0.3125,0.0,0.0,0.0,629
1696287872594,-1.0205078,-0.08886719,-0.045898438,11.21875,62.8125,7.71875,0.0,0.0,0.0,630
1696287872634,-1.0410156,-0.055664062,0.2763672,-12.3125,91.3125,6.0625,0.0,0.0,0.0,631
1696287872674,-1.1142578,-0.49316406,-0.047851562,-119.0625,-25.0,-1.0625,0.0,0.0,0.0,632
1696287872714,-1.3779297,-0.2529297,-0.1015625,-36.875,-9.1875,-32.5625,0.0,0.0,0.0,633
1696287872754,-1.3271484,0.31152344,0.4765625,4.34375,9.40625,-22.5,0.0,0.0,0.0,634
1696287872794,-1.6142578,-0.1484375,-0.26660156,-77.875,-85.96875,-0.78125,0.0,0.0,0.0,635
1696287872834,-1.1884766,0.5888672,0.19433594,-17.34375,-172.28125,-7.4375,0.0,0.0,0.0,636
1696287872874,-0.9277344,0.49414062,-0.19335938,-2.375,-159.71875,28.40625,0.0,0.0,0.0,637
1696287872914,-1.2607422,-0.37597656,-0.31347656,-18.0625,-166.65625,30.84375,-66.3125,-38.5,-215.125,638
1696287872954,-1.1640625,-0.16601562,0.21386719,111.28125,-146.21875,51.78125,0.0,0.0,0.0,639
1696287872994,-0.89746094,-0.01953125,-0.14160156,-46.25,-121.4375,32.3125,0.0,0.0,0.0,640
1696287873034,-0.7675781,0.15429688,-0.059570312,26.96875,-89.21875,22.0,0.0,0.0,0.0,641
1696287873074,-0.5527344,0.28320312,0.16015625,65.875,-54.5,16.8125,0.0,0.0,0.0,642
1696287873114,-0.578125,0.107421875,0.17089844,10.5625,-0.21875,-6.09375,0.0,0.0,0.0,643
1696287873154,-0.5107422,0.11621094,0.18652344,-20.625,41.59375,-28.3125,0.0,0.0,0.0,644
1696287873194,-0.65722656,0.08496094,0.41015625,-32.53125,70.15625,-38.3125,0.0,0.0,0.0,645
1696287873234,-1.1396484,0.03125,0.7597656,-35.15625,71.1875,-33.84375,0.0,0.0,0.0,646
1696287873274,-1.4892578,0.1171875,1.2080078,17.46875,5.5,-21.9375,0.0,0.0,0.0,647
1696287873314,-1.3730469,-0.047851562,0.77441406,16.59375,-46.75,-15.125,0.0,0.0,0.0,648
1696287873354,0.040039062,0.5605469,0.23535156,83.6875,32.125,-30.6875,0.0,0.0,0.0,649
1696287873394,-1.8603516,0.32617188,-0.38476562,24.0625,148.5625,18.09375,-72.0,-40.625,-201.8125,650
1696287873434,-1.5175781,-0.046875,0.36621094,-127.9375,82.96875,2.40625,0.0,0.0,0.0,651
1696287873474,-0.36328125,0.3642578,-0.22167969,-53.21875,-3.65625,-21.78125,0.0,0.0,0.0,652
1696287873514,-0.53808594,0.028320312,-0.5078125,-44.0,62.46875,4.71875,0.0,0.0,0.0,653
1696287873554,-1.2265625,0.3359375,0.072265625,-136.40625,55.25,68.625,0.0,0.0,0.0,654
1696287873594,-0.9267578,-0.053710938,-0.009765625,-6.65625,107.0625,32.0625,0.0,0.0,0.0,655
1696287873634,-0.9394531,-0.79003906,-0.21875,-24.71875,8.9375,-9.125,0.0,0.0,0.0,656
1696287873674,-0.9824219,-0.36914062,-0.005859375,-43.6875,60.8125,-37.75,0.0,0.0,0.0,657
1696287873714,-1.0205078,0.099609375,0.2548828,6.46875,132.28125,-36.96875,0.0,0.0,0.0,658
1696287873754,-0.9033203,0.057617188,0.12011719,-45.84375,38.84375,-30.625,0.0,0.0,0.0,659
1696287873794,-0.9267578,0.08203125,-0.020507812,-54.25,43.28125,-14.25,0.0,0.0,0.0,660
1696287873834,-1.0410156,0.033203125,-0.028320312,-22.6875,65.5,0.9375,0.0,0.0,0.0,661
1696287873874,-1.0986328,-0.16601562,0.40527344,-52.5625,115.5,8.5625,0.0,0.0,0.0,662
1696287873914,-1.2822266,-0.30859375,0.13574219,-108.03125,-27.8125,-5.53125,-70.9375,-35.6875,-223.875,663
1696287873954,-1.2558594,-0.33007812,-0.16601562,-5.96875,-33.78125,-18.34375,0.0,0.0,0.0,664
1696287873994,-1.3095703,0.076171875,0.064453125,29.125,-1.15625,-20.1875,0.0,0.0,0.0,665
1696287874034,-1.4638672,-0.040039062,0.09667969,-60.40625,-119.5625,-1.75,0.0,0.0,0.0,666
1696287874074,-1.171875,0.45410156,0.21875,30.03125,-132.375,-9.875,0.0,0.0,0.0,667
1696287874114,-0.9716797,0.18652344,-0.19335938,40.78125,-153.5,21.03125,0.0,0.0,0.0,668
1696287874154,-1.2783203,-0.24316406,-0.25390625,-34.46875,-147.125,28.65625,0.0,0.0,0.0,669
1696287874194,-1.0048828,-0.43554688,0.20410156,142.40625,-143.40625,33.40625,0.0,0.0,0.0,670
1696287874234,-0.9589844,-0.14941406,-0.17285156,24.90625,-116.8125,-4.25,0.0,0.0,0.0,671
1696287874274,-0.72265625,0.049804688,0.16796875,88.3125,-63.34375,-40.8125,0.0,0.0,0.0,672
1696287874314,-0.5498047,0.36328125,0.064453125,145.625,-57.125,-32.25,0.0,0.0,0.0,673
1696287874354,-0.5830078,0.14257812,0.061523438,55.0,-2.4375,-37.8125,0.0,0.0,0.0,674
1696287874394,-0.58691406,0.12890625,0.19238281,-1.8125,35.34375,-39.28125,-81.0,-37.4375,-192.1875,675
1696287874434,-0.83203125,0.16699219,0.4501953,-1.28125,48.46875,-25.4375,0.0,0.0,0.0,676
1696287874474,-1.1757812,-0.021484375,0.7128906,55.71875,34.5625,-14.625,0.0,0.0,0.0,677
1696287874514,-1.0146484,-0.005859375,1.0,135.5625,-28.59375,-13.03125,0.0,0.0,0.0,678
1696287874554,-1.2412109,-0.2998047,0.7158203,-20.5625,6.96875,-37.625,0.0,0.0,0.0,679
1696287874594,-0.33203125,0.29296875,0.20898438,92.78125,46.59375,-30.375,0.0,0.0,0.0,680
1696287874634,-2.0,0.31445312,-0.5449219,-39.1875,135.9375,17.0,0.0,0.0,0.0,681
1696287874674,-1.5439453,-0.23339844,1.1542969,-95.875,26.375,-13.84375,0.0,0.0,0.0,682
1696287874714,-0.2919922,0.26171875,-0.36914062,-52.0,13.9375,-17.25,0.0,0.0,0.0,683
1696287874754,-0.46777344,-0.028320312,-0.22949219,-108.03125,53.1875,15.46875,0.0,0.0,0.0,684
1696287874794,-1.4609375,0.00390625,-0.24121094,-95.8125,59.03125,25.34375,0.0,0.0,0.0,685
1696287874834,-1.0478516,-0.44628906,-0.22363281,13.84375,54.03125,0.03125,0.0,0.0,0.0,686
1696287874874,-0.93066406,-0.29003906,-0.068359375,20.21875,57.9375,-22.375,0.0,0.0,0.0,687
1696287874914,-1.0957031,-0.1328125,0.3876953,-49.625,140.34375,-9.5625,-83.125,-39.875,-214.25,688
1696287874954,-0.98828125,-0.048828125,-0.0087890625,-31.125,6.5,-25.6875,0.0,0.0,0.0,689
1696287874994,-0.8574219,-0.0048828125,-0.053710938,-2.875,37.625,-17.0625,0.0,0.0,0.0,690
1696287875034,-0.8808594,0.0234375,-0.068359375,-45.65625,53.25,-4.5,0.0,0.0,0.0,691
1696287875074,-1.0292969,-0.109375,0.08886719,-18.5,103.84375,12.28125,0.0,0.0,0.0,692
1696287875114,-1.1152344,-0.26367188,0.30078125,-81.71875,63.90625,1.90625,0.0,0.0,0.0,693
1696287875154,-1.1533203,-0.20214844,-0.07421875,-100.75,-55.15625,-6.6875,0.0,0.0,0.0,694
1696287875194,-1.3583984,-0.14746094,-0.034179688,77.28125,-31.90625,-18.21875,0.0,0.0,0.0,695
1696287875234,-1.2431641,0.013671875,0.33398438,-46.03125,35.40625,-14.75,0.0,0.0,0.0,696
1696287875274,-1.3710938,-0.48828125,-0.21386719,-41.25,-134.125,0.6875,0.0,0.0,0.0,697
1696287875314,-1.3105469,0.3203125,0.12695312,53.15625,-171.0625,-9.1875,0.0,0.0,0.0,698
1696287875354,-1.0869141,0.140625,-0.27246094,16.65625,-145.4375,3.3125,0.0,0.0,0.0,699
1696287875394,-1.3007812,-0.045898438,-0.034179688,20.15625,-146.53125,26.15625,-86.375,-40.3125,-213.1875,700
1696287875434,-1.0488281,-0.5332031,-0.103515625,128.25,-131.34375,32.875,0.0,0.0,0.0,701
1696287875474,-0.99316406,-0.123046875,-0.24023438,69.71875,-138.21875,5.53125,0.0,0.0,0.0,702
1696287875514,-0.6542969,0.057617188,-0.057617188,70.4375,-92.625,-23.0625,0.0,0.0,0.0,703
1696287875554,-0.61328125,0.34179688,0.030273438,135.0,-81.53125,-6.375,0.0,0.0,0.0,704
1696287875594,-0.5234375,0.19726562,0.10644531,46.4375,0.4375,-25.625,0.0,0.0,0.0,705
1696287875634,-0.6464844,0.11230469,0.23828125,13.3125,42.375,-24.6875,0.0,0.0,0.0,706
1696287875674,-0.8017578,0.19628906,0.42871094,16.4375,65.25,-17.75,0.0,0.0,0.0,707
1696287875714,-1.1914062,-0.038085938,0.75,70.8125,55.75,-20.125,0.0,0.0,0.0,708
1696287875754,-1.4238281,0.22558594,1.1054688,57.1875,-4.0625,-6.03125,0.0,0.0,0.0,709
1696287875794,-0.6845703,0.15429688,0.43847656,-0.3125,-7.6875,-38.6875,0.0,0.0,0.0,710
1696287875834,-0.62402344,0.14160156,-0.025390625,111.6875,80.03125,-9.4375,0.0,0.0,0.0,711
1696287875874,-2.0,-0.095703125,-0.45507812,-61.65625,114.8125,-6.25,0.0,0.0,0.0,712
1696287875914,-1.5195312,-0.3046875,1.2109375,-116.34375,-0.53125,-25.84375,-88.1875,-40.3125,-203.4375,713
1696287875954,-0.22460938,0.29492188,-0.70214844,-112.25,21.9375,-32.375,0.0,0.0,0.0,714
1696287875994,-0.6435547,0.12890625,-0.20898438,-53.09375,33.34375,20.65625,0.0,0.0,0.0,715
1696287876034,-1.4003906,-0.13769531,-0.19921875,-52.1875,65.6875,34.875,0.0,0.0,0.0,716
1696287876074,-0.9482422,-0.52734375,-0.20703125,124.6875,65.9375,-24.09375,0.0,0.0,0.0,717
1696287876114,-0.9404297,0.0009765625,0.30273438,-20.8125,149.3125,-37.40625,0.0,0.0,0.0,718
1696287876154,-0.9951172,0.036132812,0.03515625,-10.75,9.21875,-15.46875,0.0,0.0,0.0,719
1696287876194,-0.9082031,-0.1328125,-0.034179688,33.375,47.3125,-13.90625,0.0,0.0,0.0,720
1696287876234,-0.9355469,-0.016601562,0.07421875,7.3125,66.78125,-17.0,0.0,0.0,0.0,721
1696287876274,-0.96191406,-0.037109375,0.038085938,-8.46875,41.59375,-2.0,0.0,0.0,0.0,722
1696287876314,-1.1357422,-0.07324219,0.030273438,-19.34375,64.21875,2.84375,0.0,0.0,0.0,723
1696287876354,-1.1494141,0.0,0.33007812,-38.625,74.78125,6.6875,0.0,0.0,0.0,724
1696287876394,-1.1083984,-0.33398438,0.04296875,-83.96875,-28.0,10.34375,-80.875,-39.4375,-228.1875,725
1696287876434,-1.2939453,-0.33007812,-0.055664062,90.15625,-13.15625,3.5625,0.0,0.0,0.0,726
1696287876474,-1.2265625,-0.025390625,0.38085938,16.71875,4.34375,7.96875,0.0,0.0,0.0,727
1696287876514,-1.3076172,-0.5449219,-0.41992188,-43.9375,-111.90625,1.78125,0.0,0.0,0.0,728
1696287876554,-1.2255859,0.24023438,-0.22070312,148.1875,-176.3125,-4.4375,0.0,0.0,0.0,729
1696287876594,-1.1708984,0.12597656,-0.25097656,13.1875,-125.09375,1.5625,0.0,0.0,0.0,730
1696287876634,-1.1318359,-0.07128906,-0.10546875,42.25,-144.6875,17.90625,0.0,0.0,0.0,731
1696287876674,-1.0605469,-0.4921875,0.11425781,228.6875,-142.1875,26.5,0.0,0.0,0.0,732
1696287876714,-0.9238281,-0.051757812,-0.13964844,99.625,-136.875,10.9375,0.0,0.0,0.0,733
1696287876754,-0.8496094,0.12890625,-0.0390625,107.65625,-87.875,-14.5625,0.0,0.0,0.0,734
1696287876794,-0.5878906,0.4375,0.06640625,100.28125,-34.71875,-48.9375,0.0,0.0,0.0,735
1696287876834,-0.53515625,0.31054688,0.1171875,70.625,-10.0,-33.53125,0.0,0.0,0.0,736
1696287876874,-0.5654297,0.11816406,0.3095703,11.96875,39.125,-28.0625,0.0,0.0,0.0,737
1696287876914,-0.9296875,-0.12988281,0.47070312,44.6875,72.84375,-24.625,-84.4375,-41.8125,-190.5625,738
1696287876954,-1.0029297,0.22753906,0.6533203,93.9375,24.625,-17.875,0.0,0.0,0.0,739
1696287876994,-1.28125,0.24804688,1.1513672,103.03125,-23.46875,-21.09375,0.0,0.0,0.0,740
1696287877034,-0.7373047,0.20019531,0.2763672,-27.21875,9.125,-45.625,0.0,0.0,0.0,741
1696287877074,-0.53125,0.28222656,0.20898438,32.0,59.90625,-42.15625,0.0,0.0,0.0,742
1696287877114,-1.8984375,0.060546875,-0.15429688,30.09375,110.78125,8.75,0.0,0.0,0.0,743
1696287877154,-1.890625,-0.17675781,1.0175781,-49.25,43.65625,-15.0,0.0,0.0,0.0,744
1696287877194,-0.11328125,0.3564453,-0.30273438,-50.96875,24.6875,-36.40625,0.0,0.0,0.0,745
1696287877234,-0.45117188,-0.05078125,-0.31445312,-48.53125,-6.75,27.0,0.0,0.0,0.0,746
1696287877274,-1.3515625,-0.21289062,-0.16113281,-38.8125,68.6875,57.75,0.0,0.0,0.0,747
1696287877314,-1.2353516,-0.46289062,-0.20703125,-12.75,81.875,-28.40625,0.0,0.0,0.0,748
1696287877354,-0.9326172,0.109375,0.7832031,-97.21875,177.875,-23.84375,0.0,0.0,0.0,749
1696287877394,-0.9980469,-0.20507812,-0.22363281,-65.71875,-19.34375,-20.4375,-78.0,-47.9375,-213.625,750
1696287877434,-0.8623047,-0.01171875,-0.1640625,13.96875,28.15625,-13.90625,0.0,0.0,0.0,751
1696287877474,-0.8564453,-0.13476562,-0.068359375,37.125,39.875,-13.53125,0.0,0.0,0.0,752
1696287877514,-0.87402344,-0.0390625,0.009765625,20.6875,58.78125,-15.84375,0.0,0.0,0.0,753
1696287877554,-1.0449219,-0.009765625,0.07324219,19.34375,69.0,-3.15625,0.0,0.0,0.0,754
1696287877594,-1.1162109,-0.08496094,0.25585938,11.53125,87.1875,0.8125,0.0,0.0,0.0,755
1696287877634,-1.0410156,0.01171875,0.3046875,-60.0625,34.9375,11.5625,0.0,0.0,0.0,756
1696287877674,-1.0332031,-0.4033203,-0.2578125,-16.84375,-38.375,12.21875,0.0,0.0,0.0,757
1696287877714,-1.2089844,-0.19726562,0.18066406,66.59375,34.6875,-7.4375,0.0,0.0,0.0,758
1696287877754,-1.296875,-0.06933594,0.2763672,3.0625,-24.46875,-0.59375,0.0,0.0,0.0,759
