# Sensor type: Respeck
# Activity type: Miscellaneous movements
# Activity subtype: Normal
# Subject id: s1909007
# Notes: 
timestamp,accel_x,accel_y,accel_z,gyro_x,gyro_y,gyro_z
1695903344344,-0.13574219,-0.9985962,-0.030334473,-1.421875,0.78125,-0.0625
1695903344388,-0.1381836,-0.9963989,-0.03253174,-1.578125,0.796875,0.09375
1695903344419,-0.12817383,-0.9968872,-0.033996582,-1.5625,1.265625,0.265625
1695903344463,-0.12573242,-0.9944458,-0.027160645,-1.40625,1.1875,0.234375
1695903344494,-0.13110352,-0.9968872,-0.010803223,-1.375,0.59375,0.171875
1695903344538,-0.11816406,-0.9907837,-0.020812988,-0.875,1.609375,-0.109375
1695903344583,-0.11816406,-0.99542236,-0.025939941,-1.65625,1.09375,0.09375
1695903344614,-0.12939453,-1.0010376,-0.02178955,-1.703125,2.796875,0.40625
1695903344659,-0.13549805,-1.0007935,-0.018615723,-1.0625,1.25,-0.28125
1695903344703,-0.13012695,-0.9949341,-0.019348145,-1.234375,1.90625,-0.6875
1695903344733,-0.12963867,-0.98931885,-0.020080566,-0.625,0.921875,-0.296875
1695903344778,-0.13476562,-0.9981079,-0.020568848,-1.265625,0.953125,-0.125
1695903344809,-0.13183594,-1.0003052,-0.007385254,-0.765625,0.515625,-0.078125
1695903344859,-0.13549805,-0.9976196,-0.019348145,-1.390625,1.5625,0.0625
1695903344901,-0.1328125,-0.99835205,-0.011047363,-0.625,0.640625,0.015625
1695903344930,-0.14257812,-1.0007935,-0.014953613,-0.578125,0.109375,0.0625
1695903344975,-0.13427734,-0.99713135,-0.014709473,-0.140625,0.5625,0.046875
1695903345020,-0.13549805,-0.991272,-0.012756348,0.390625,0.328125,0.125
1695903345050,-0.13989258,-0.9944458,-0.020080566,0.640625,-0.015625,0.46875
1695903345095,-0.123291016,-1.0037231,-0.023498535,0.90625,0.59375,0.265625
1695903345126,-0.12866211,-0.9949341,-0.018127441,1.015625,0.515625,0.328125
1695903345170,-0.123291016,-0.99053955,-0.02520752,1.21875,0.0625,0.53125
1695903345216,-0.13110352,-1.0073853,-0.022766113,0.8125,0.5625,0.546875
1695903345245,-0.12866211,-0.99468994,-0.019104004,0.96875,0.609375,0.46875
1695903345291,-0.12817383,-0.9890747,-0.031066895,0.40625,0.9375,0.875
1695903345338,-0.13330078,-0.99957275,-0.034484863,0.140625,0.875,0.453125
1695903345365,-0.12817383,-1.0003052,-0.035217285,0.5625,0.65625,0.5
1695903345410,-0.13354492,-0.9961548,-0.02911377,0.75,0.203125,1.109375
1695903345440,-0.11791992,-0.9949341,-0.03765869,0.96875,1.296875,0.75
1695903345485,-0.1274414,-0.9968872,-0.02545166,0.53125,0.53125,1.03125
1695903345530,-0.13208008,-0.99835205,-0.027648926,1.21875,-1.484375,0.578125
1695903345560,-0.12036133,-0.9924927,-0.022766113,1.671875,-0.53125,1.546875
1695903345605,-0.1303711,-0.99005127,-0.019592285,1.984375,-1.328125,2.1875
1695903345680,-0.12768555,-0.9956665,-0.03375244,1.984375,-0.84375,2.3125
1695903345684,-0.14111328,-0.9973755,-0.034484863,2.140625,-0.828125,3.578125
1695903345726,-0.119384766,-0.987854,-0.02911377,3.328125,-0.4375,4.671875
1695903345756,-0.12573242,-0.9859009,-0.029846191,4.59375,-0.640625,4.9375
1695903345801,-0.13623047,-0.9949341,-0.039367676,5.921875,-0.890625,5.953125
1695903345846,-0.10571289,-0.99468994,-0.057922363,6.734375,0.34375,7.90625
1695903345875,-0.095458984,-0.9932251,-0.04815674,8.25,-2.21875,8.859375
1695903345920,-0.115722656,-0.98638916,-0.057434082,8.984375,-2.15625,10.234375
1695903345965,-0.10229492,-0.9780884,-0.08526611,9.046875,-2.65625,12.875
1695903345995,-0.10620117,-0.97613525,-0.12359619,10.875,-0.296875,13.6875
1695903346040,-0.01953125,-0.9751587,-0.13458252,13.53125,2.25,16.140625
1695903346070,-0.0073242188,-0.9866333,-0.14117432,13.84375,-1.46875,17.5
1695903346116,-0.02734375,-0.97662354,-0.16363525,16.5,-2.15625,18.8125
1695903346160,0.06347656,-1.0066528,-0.21514893,16.421875,-3.609375,21.25
1695903346190,0.08935547,-0.987854,-0.23248291,14.859375,-2.328125,23.140625
1695903346235,0.1105957,-0.95562744,-0.22418213,15.90625,-2.765625,23.15625
1695903346280,0.119628906,-0.9343872,-0.3045044,14.421875,-1.46875,21.96875
1695903346311,0.20898438,-0.9805298,-0.35211182,9.0,2.890625,20.703125
1695903346356,0.28930664,-1.0005493,-0.33892822,6.640625,2.03125,20.40625
1695903346392,0.28955078,-1.0374146,-0.380188,7.78125,2.109375,15.703125
1695903346445,0.3293457,-1.0640259,-0.3743286,5.328125,4.90625,13.078125
1695903346489,0.32739258,-1.0317993,-0.3731079,6.203125,2.265625,8.8125
1695903346505,0.29418945,-0.9973755,-0.38848877,3.671875,-1.15625,8.5625
1695903346550,0.30493164,-0.9336548,-0.39312744,1.578125,2.3125,7.5625
1695903346594,0.3149414,-0.9627075,-0.40118408,-0.8125,1.578125,6.0
1695903346625,0.30859375,-0.9524536,-0.411438,-1.34375,4.078125,1.6875
1695903346671,0.3046875,-0.9673462,-0.3850708,-3.921875,6.484375,-1.0
1695903346700,0.31982422,-0.9456177,-0.38433838,-5.421875,6.390625,-3.453125
1695903346747,0.29736328,-0.9168091,-0.3320923,-7.015625,6.71875,-5.96875
1695903346790,0.26367188,-0.89556885,-0.30889893,-10.078125,8.6875,-8.921875
1695903346819,0.25463867,-0.8899536,-0.29840088,-12.34375,7.859375,-12.75
1695903346865,0.24243164,-0.8545532,-0.2925415,-14.640625,5.953125,-15.71875
1695903346911,0.23046875,-0.86553955,-0.25030518,-15.921875,5.046875,-18.921875
1695903346940,0.17382812,-0.88726807,-0.25274658,-16.375,2.234375,-19.953125
1695903346986,0.15039062,-0.8484497,-0.22174072,-17.34375,3.140625,-20.34375
1695903347015,0.123535156,-0.84332275,-0.19927979,-16.390625,2.09375,-20.890625
1695903347060,0.1015625,-0.8377075,-0.18511963,-16.890625,3.40625,-21.53125
1695903347105,0.09375,-0.8621216,-0.13336182,-17.109375,1.484375,-21.578125
1695903347150,0.08496094,-0.83795166,-0.15460205,-18.203125,-0.296875,-21.640625
1695903347179,0.06933594,-0.84332275,-0.09918213,-15.3125,-1.09375,-22.3125
1695903347224,0.03857422,-0.87384033,-0.08892822,-15.890625,-3.796875,-21.125
1695903347255,0.01953125,-0.8777466,-0.07647705,-13.859375,-3.46875,-19.984375
1695903347300,-0.05102539,-0.93927,-0.070617676,-12.015625,-3.78125,-19.046875
1695903347330,-0.123291016,-0.9807739,-0.04083252,-12.578125,-0.46875,-19.546875
1695903347375,-0.12451172,-0.97662354,-0.051818848,-12.15625,4.75,-19.015625
1695903347420,-0.13574219,-0.9463501,-0.007385254,-10.96875,5.234375,-18.625
1695903347454,-0.17578125,-0.972229,0.011413574,-10.125,6.171875,-15.9375
1695903347496,-0.16967773,-0.9673462,0.009460449,-9.890625,7.109375,-13.875
1695903347540,-0.17138672,-0.9529419,0.019470215,-8.296875,4.171875,-11.59375
1695903347571,-0.18383789,-0.96588135,0.039001465,-6.921875,4.90625,-10.453125
1695903347615,-0.22363281,-0.9829712,0.03778076,-6.796875,3.53125,-9.3125
1695903347645,-0.22998047,-0.9829712,0.04486084,-5.40625,4.125,-7.21875
1695903347706,-0.23999023,-0.9595337,0.035339355,-3.28125,3.125,-4.84375
1695903347751,-0.2578125,-0.97003174,0.039489746,-1.0,4.0,-3.171875
1695903347765,-0.2524414,-0.986145,0.046081543,0.359375,4.578125,-0.984375
1695903347811,-0.25878906,-0.9793091,0.06048584,0.296875,5.296875,-0.28125
1695903347870,-0.28125,-0.98931885,0.051940918,0.234375,5.328125,0.75
1695903347884,-0.26708984,-0.98443604,0.07122803,0.546875,4.40625,1.0
1695903347930,-0.26000977,-0.9649048,0.046569824,-0.4375,4.53125,0.265625
1695903347960,-0.26708984,-0.99591064,0.06781006,-0.34375,3.234375,0.046875
1695903348005,-0.27441406,-0.98150635,0.061950684,-0.9375,3.5,-0.375
1695903348051,-0.27392578,-0.96832275,0.05657959,-1.03125,3.015625,-0.375
1695903348080,-0.2800293,-0.98223877,0.06561279,-0.734375,2.984375,-0.078125
1695903348125,-0.27270508,-0.97784424,0.059509277,-0.5625,3.421875,-0.046875
1695903348170,-0.26879883,-0.98321533,0.061706543,0.390625,2.578125,0.53125
1695903348200,-0.2668457,-0.9734497,0.058776855,0.65625,3.03125,1.140625
1695903348245,-0.28051758,-0.98028564,0.062927246,0.828125,2.484375,1.875
1695903348276,-0.27124023,-0.9898071,0.046081543,1.375,2.609375,2.40625
1695903348320,-0.24707031,-0.98272705,0.055358887,2.328125,2.21875,3.015625
1695903348366,-0.25439453,-0.98101807,0.043395996,2.5625,1.78125,4.25
1695903348395,-0.24414062,-0.97491455,0.042175293,3.484375,2.5625,5.03125
1695903348456,-0.23266602,-0.9768677,0.043395996,4.515625,1.703125,7.328125
1695903348485,-0.22705078,-0.9885864,0.026550293,5.15625,2.6875,9.359375
1695903348514,-0.18847656,-0.9702759,0.026306152,6.84375,1.25,12.140625
1695903348560,-0.17236328,-0.95806885,0.012390137,9.046875,-0.609375,16.203125
1695903348590,-0.15356445,-0.94415283,0.009460449,9.609375,-1.53125,19.25
1695903348635,-0.12646484,-0.9143677,-0.019348145,11.15625,-2.8125,20.3125
1695903348680,-0.048095703,-0.83599854,-0.051330566,14.109375,-0.84375,22.265625
1695903348710,-0.030029297,-0.800354,-0.047180176,16.015625,-0.5,23.734375
1695903348755,-0.060546875,-0.8154907,-0.06939697,17.0625,0.390625,21.5
1695903348800,0.0034179688,-0.79693604,-0.11114502,18.203125,4.171875,21.578125
1695903348830,0.016113281,-0.83843994,-0.14093018,19.375,1.46875,20.21875
1695903348875,0.06201172,-0.9360962,-0.12335205,19.578125,-3.03125,21.984375
1695903348920,0.026367188,-0.9692993,-0.12677002,17.8125,-6.65625,22.484375
1695903348951,0.057617188,-0.8308716,-0.18658447,15.3125,-3.875,20.109375
1695903348995,0.12866211,-0.8220825,-0.1494751,16.03125,-3.90625,18.125
1695903349025,0.07739258,-0.9143677,-0.19464111,14.703125,-5.5,16.34375
1695903349070,0.15112305,-0.92559814,-0.22662354,11.921875,-3.0,11.328125
1695903349115,0.18139648,-0.91656494,-0.2617798,9.921875,-2.40625,9.703125
1695903349147,0.21801758,-0.9783325,-0.33233643,7.46875,-1.1875,4.359375
1695903349190,0.25073242,-1.031311,-0.35308838,3.46875,-0.25,2.140625
1695903349235,0.23413086,-1.0725708,-0.36895752,-0.75,-2.0,-1.8125
1695903349266,0.24291992,-1.1109009,-0.37628174,-5.1875,1.140625,-6.859375
1695903349310,0.27954102,-1.1067505,-0.38067627,-7.78125,0.046875,-9.15625
1695903349340,0.23242188,-1.0913696,-0.3579712,-9.953125,-1.03125,-12.03125
1695903349385,0.25341797,-1.1004028,-0.33233643,-12.65625,1.484375,-13.5625
1695903349430,0.21191406,-1.069397,-0.3135376,-13.53125,-2.34375,-14.75
1695903349461,0.1315918,-0.97320557,-0.25006104,-11.125,-1.796875,-16.09375
1695903349505,0.087402344,-0.8711548,-0.19122314,-12.15625,0.125,-16.78125
1695903349580,0.029052734,-0.89801025,-0.17266846,-13.125,-4.5,-17.953125
1695903349584,-4.8828125E-4,-1.0418091,-0.16217041,-13.703125,-6.578125,-21.71875
1695903349625,-0.07324219,-1.1248169,-0.14337158,-7.96875,-6.453125,-25.1875
1695903349700,-0.14746094,-1.1174927,-0.13116455,-7.234375,0.25,-19.703125
1695903349704,-0.14477539,-1.0261841,-0.09503174,-5.171875,6.046875,-11.9375
1695903349745,-0.13842773,-0.98150635,-0.039367676,-4.265625,4.109375,-9.640625
1695903349775,-0.14770508,-0.96881104,-0.03277588,-3.875,1.71875,-10.765625
1695903349821,-0.18676758,-0.9951782,-0.04888916,-2.28125,-0.703125,-12.4375
1695903349865,-0.1743164,-1.0557251,-0.06573486,-2.46875,4.53125,-9.046875
1695903349897,-0.1352539,-1.019104,-0.04840088,-4.3125,5.984375,-6.515625
1695903349941,-0.12646484,-0.9939575,-0.051818848,-5.40625,3.703125,-4.25
1695903349970,-0.12939453,-0.9807739,-0.058898926,-5.328125,3.640625,-3.125
1695903350015,-0.119384766,-0.9678345,-0.055725098,-6.6875,3.859375,-0.953125
1695903350060,-0.13183594,-0.9902954,-0.04547119,-4.140625,4.3125,-0.234375
1695903350091,-0.14648438,-0.99224854,-0.066467285,-2.96875,2.984375,0.109375
1695903350137,-0.14282227,-0.9819946,-0.057922363,-0.625,1.6875,-0.109375
1695903350181,-0.140625,-0.97979736,-0.08673096,0.484375,1.1875,-0.078125
1695903350211,-0.13769531,-0.9932251,-0.061340332,0.859375,-0.65625,0.4375
1695903350257,-0.12866211,-0.98883057,-0.081604004,1.140625,1.125,0.078125
1695903350285,-0.1381836,-0.9976196,-0.07305908,0.734375,0.734375,-0.109375
1695903350331,-0.12597656,-0.9915161,-0.06793213,1.046875,-0.03125,-0.296875
1695903350375,-0.13745117,-0.99176025,-0.077697754,0.96875,0.65625,-0.34375
1695903350405,-0.12719727,-0.9885864,-0.081604004,0.828125,0.546875,0.15625
1695903350451,-0.13330078,-0.98931885,-0.089904785,1.25,0.171875,0.328125
1695903350495,-0.13916016,-0.9961548,-0.08673096,1.015625,0.1875,0.765625
1695903350525,-0.13330078,-1.000061,-0.08673096,0.34375,0.53125,1.203125
1695903350570,-0.13134766,-0.9871216,-0.085510254,0.359375,0.703125,0.28125
1695903350600,-0.13549805,-0.987854,-0.09942627,-0.140625,0.453125,0.71875
1695903350646,-0.12768555,-0.9944458,-0.089416504,-0.234375,2.015625,0.515625
1695903350690,-0.12988281,-0.9873657,-0.08453369,-0.328125,0.3125,0.25
1695903350721,-0.12841797,-0.99346924,-0.09259033,-1.0,1.015625,0.546875
1695903350765,-0.12915039,-0.9998169,-0.08135986,-0.15625,0.21875,0.859375
1695903350812,-0.13305664,-0.989563,-0.08892822,-0.09375,0.5,1.03125
1695903350844,-0.1315918,-0.99005127,-0.077941895,-0.1875,0.71875,1.03125
1695903350886,-0.12915039,-0.99005127,-0.08428955,-0.328125,0.6875,1.5625
1695903350916,-0.13305664,-0.9951782,-0.09552002,-0.84375,1.6875,1.265625
1695903350960,-0.12597656,-0.99884033,-0.0947876,-0.640625,1.390625,1.109375
1695903351005,-0.118896484,-0.9898071,-0.089416504,-0.84375,0.46875,1.8125
1695903351038,-0.110839844,-0.9780884,-0.08380127,-0.09375,1.765625,2.546875
1695903351080,-0.14013672,-0.98394775,-0.06842041,1.5,-0.015625,3.484375
1695903351125,-0.14990234,-0.9907837,-0.0635376,2.390625,0.578125,4.109375
1695903351155,-0.118652344,-0.9771118,-0.06060791,4.09375,-0.03125,6.515625
1695903351200,-0.15209961,-0.9692993,-0.06036377,5.078125,-2.234375,8.5
1695903351234,-0.1484375,-0.9795532,-0.07208252,7.078125,0.515625,10.703125
1695903351275,-0.107910156,-0.98272705,-0.06036377,8.140625,-0.671875,14.015625
1695903351321,-0.11303711,-0.96832275,-0.08331299,10.890625,0.78125,16.421875
1695903351350,-0.111328125,-0.9492798,-0.07867432,14.4375,-1.125,18.75
1695903351395,-0.087402344,-0.96417236,-0.12017822,14.3125,-2.09375,22.15625
1695903351441,-0.04663086,-1.0181274,-0.14459229,18.09375,-3.4375,25.046875
1695903351471,-0.020263672,-1.161438,-0.20611572,17.53125,-5.875,27.5
1695903351515,0.018066406,-1.1721802,-0.25372314,18.234375,-5.359375,24.796875
1695903351547,0.09790039,-1.1946411,-0.3250122,12.09375,0.78125,20.359375
1695903351591,0.24707031,-1.128479,-0.40118408,7.375,8.359375,14.390625
1695903351635,0.2631836,-1.0691528,-0.39263916,10.28125,3.21875,10.546875
1695903351665,0.2668457,-1.0213013,-0.4212036,6.25,3.84375,8.828125
1695903351711,0.30126953,-0.986145,-0.43463135,5.5,5.046875,5.578125
1695903351775,0.3173828,-1.0144653,-0.411438,2.640625,6.15625,3.796875
1695903351787,0.25097656,-1.0029907,-0.40533447,-0.078125,5.546875,-3.09375
1695903351845,0.18457031,-0.97735596,-0.3953247,-3.890625,8.0,-6.703125
1695903351860,0.24902344,-0.9612427,-0.37750244,-6.53125,7.8125,-8.15625
1695903351907,0.2175293,-0.9627075,-0.31549072,-9.390625,4.234375,-11.203125
1695903351951,0.14526367,-0.93756104,-0.30743408,-13.90625,1.265625,-15.421875
1695903351981,0.1315918,-0.8657837,-0.2630005,-16.21875,2.6875,-18.4375
1695903352026,0.11767578,-0.8225708,-0.24639893,-18.421875,-0.328125,-19.828125
1695903352070,0.09741211,-0.80914307,-0.21905518,-20.703125,-1.0625,-22.921875
1695903352101,0.044677734,-0.8106079,-0.17022705,-20.78125,-0.59375,-23.59375
1695903352146,0.034179688,-0.7908325,-0.15264893,-21.875,-0.890625,-23.03125
1695903352190,0.03125,-0.767395,-0.13165283,-21.71875,0.484375,-24.546875
1695903352220,-0.014892578,-0.78790283,-0.11480713,-20.484375,-1.078125,-23.234375
1695903352266,-0.06762695,-0.7998657,-0.10723877,-18.4375,2.734375,-21.515625
1695903352310,-0.016845703,-0.84747314,-0.0881958,-16.671875,3.140625,-18.78125
1695903352340,-0.080566406,-0.91192627,-0.051574707,-14.09375,1.09375,-15.984375
1695903352386,-0.13867188,-0.9180298,-0.051086426,-11.6875,2.640625,-12.625
1695903352417,-0.12451172,-0.927063,-0.018371582,-9.5625,5.453125,-10.625
1695903352460,-0.14746094,-0.94732666,-0.011047363,-9.125,3.9375,-8.515625
1695903352490,-0.18334961,-0.95977783,-0.0020141602,-6.375,3.28125,-7.078125
1695903352535,-0.16577148,-0.98883057,6.713867E-4,-4.4375,5.21875,-4.34375
1695903352580,-0.19628906,-0.98394775,0.022399902,-2.78125,3.921875,-2.0625
1695903352611,-0.20263672,-0.9907837,0.039001465,-2.21875,3.703125,-1.328125
1695903352656,-0.19970703,-0.9963989,0.022155762,-1.5,5.140625,0.53125
1695903352701,-0.1887207,-0.9859009,0.03387451,-0.703125,4.734375,0.9375
1695903352730,-0.20385742,-1.0071411,0.043640137,-0.4375,4.359375,1.90625
1695903352778,-0.19702148,-0.9837036,0.040222168,-0.578125,3.265625,1.25
1695903352805,-0.18579102,-0.99298096,0.03314209,0.015625,2.703125,1.4375
1695903352866,-0.20141602,-1.005188,0.028747559,0.171875,1.953125,2.046875
1695903352897,-0.19067383,-1.0032349,0.032165527,0.15625,2.171875,1.71875
1695903352925,-0.19067383,-0.9883423,0.020446777,0.40625,1.640625,1.875
1695903352971,-0.18432617,-1.0066528,0.027282715,0.546875,1.765625,2.25
1695903353016,-0.19311523,-1.0061646,0.032165527,-0.296875,2.078125,2.328125
1695903353045,-0.17236328,-0.9949341,0.015563965,-0.40625,2.140625,3.4375
1695903353090,-0.15844727,-0.9873657,0.012145996,0.46875,2.78125,4.140625
1695903353135,-0.15112305,-0.9846802,0.0016479492,1.765625,3.03125,5.25
1695903353165,-0.1184082,-0.975647,0.0021362305,4.03125,2.9375,10.125
1695903353210,-0.13183594,-0.98516846,0.032165527,6.5,1.84375,13.578125
1695903353240,-0.09863281,-0.9558716,-0.008361816,7.9375,4.171875,16.296875
1695903353286,-0.043701172,-0.9378052,-0.029846191,10.296875,5.390625,21.515625
1695903353331,-0.045654297,-0.9380493,-0.028381348,12.96875,3.78125,24.828125
1695903353360,-0.083984375,-0.928772,-0.0791626,16.96875,3.546875,26.03125
1695903353406,0.038330078,-0.911438,-0.0803833,18.515625,7.484375,29.53125
1695903353455,0.095703125,-0.8987427,-0.08917236,20.71875,0.453125,33.953125
1695903353480,0.071777344,-0.9656372,-0.11578369,18.96875,-4.140625,35.296875
1695903353526,0.06567383,-1.0042114,-0.14605713,18.234375,-4.125,29.4375
1695903353557,0.11987305,-0.8689575,-0.12701416,21.140625,-1.109375,33.046875
1695903353600,0.1484375,-0.8447876,-0.18682861,21.84375,-0.859375,36.265625
1695903353645,0.22045898,-0.91070557,-0.2197876,23.421875,-1.984375,30.046875
1695903353677,0.21875,-0.9048462,-0.24932861,23.4375,3.9375,28.03125
1695903353720,0.34716797,-0.8796997,-0.2744751,23.546875,4.453125,29.40625
1695903353766,0.30126953,-0.8242798,-0.32867432,25.09375,-3.34375,27.578125
1695903353795,0.39111328,-0.8753052,-0.34796143,23.8125,1.953125,23.6875
1695903353844,0.4255371,-0.79522705,-0.36627197,23.90625,-0.25,24.5625
1695903353873,0.38452148,-0.77838135,-0.36602783,24.75,-3.484375,23.59375
1695903353915,0.4897461,-0.8093872,-0.44976807,22.1875,-3.109375,20.6875
1695903353960,0.5217285,-0.7268677,-0.4019165,24.859375,-1.515625,21.546875
1695903353990,0.43676758,-0.69610596,-0.45196533,21.578125,0.0,16.65625
1695903354035,0.5332031,-0.70391846,-0.49298096,16.0625,3.03125,15.0625
1695903354080,0.5358887,-0.6567993,-0.5413208,14.40625,0.234375,11.140625
1695903354110,0.5908203,-0.6807251,-0.5383911,13.46875,1.515625,11.140625
1695903354155,0.5151367,-0.6201782,-0.5239868,12.171875,1.484375,8.9375
1695903354186,0.5288086,-0.5913696,-0.55596924,7.5,4.3125,6.53125
1695903354231,0.5476074,-0.53985596,-0.56866455,5.734375,2.796875,4.25
1695903354275,0.5834961,-0.55596924,-0.5474243,6.859375,3.0,4.4375
1695903354308,0.5576172,-0.5647583,-0.5733032,3.1875,2.21875,1.53125
1695903354354,0.56030273,-0.54229736,-0.5745239,3.609375,0.65625,-0.296875
1695903354426,0.57177734,-0.54034424,-0.5664673,1.28125,3.671875,-2.125
1695903354430,0.5839844,-0.552063,-0.536438,1.3125,-0.171875,-2.34375
1695903354471,0.5029297,-0.51763916,-0.5444946,-2.203125,-0.5,-6.484375
1695903354500,0.5168457,-0.520813,-0.517395,-0.875,2.890625,-7.484375
1695903354554,0.49023438,-0.53741455,-0.54571533,-4.671875,7.25,-10.328125
1695903354592,0.5214844,-0.54888916,-0.5401001,-5.1875,6.46875,-10.921875
1695903354620,0.5715332,-0.6026001,-0.5484009,-8.53125,7.6875,-12.09375
1695903354666,0.53686523,-0.6226196,-0.5437622,-7.234375,5.875,-13.90625
1695903354710,0.4855957,-0.61138916,-0.5610962,-0.453125,6.9375,-13.703125
1695903354741,0.51782227,-0.6355591,-0.5244751,-5.96875,6.03125,-11.125
1695903354786,0.46679688,-0.64141846,-0.538147,-4.546875,3.734375,-10.921875
1695903354817,0.43432617,-0.6668091,-0.55352783,-11.25,4.546875,-9.890625
1695903354875,0.41845703,-0.6524048,-0.5339966,-11.578125,5.90625,-9.75
1695903354906,0.39233398,-0.68414307,-0.54107666,-13.734375,9.53125,-9.078125
1695903354936,0.41308594,-0.6802368,-0.5249634,-19.765625,11.546875,-10.40625
1695903354980,0.3815918,-0.7293091,-0.5298462,-20.1875,11.109375,-9.328125
1695903355027,0.37231445,-0.73516846,-0.54888916,-17.296875,13.71875,-11.234375
1695903355056,0.30371094,-0.76275635,-0.5125122,-21.46875,14.3125,-11.078125
1695903355100,0.33081055,-0.86187744,-0.5261841,-20.78125,16.453125,-10.796875
1695903355131,0.3671875,-0.8335571,-0.5508423,-23.046875,14.5,-13.390625
1695903355175,0.23388672,-0.8245239,-0.5071411,-22.84375,9.609375,-12.5
1695903355220,0.2175293,-0.8682251,-0.47930908,-28.265625,9.453125,-14.859375
1695903355249,0.203125,-0.86309814,-0.42877197,-21.484375,9.796875,-15.96875
1695903355295,0.18139648,-0.86968994,-0.4109497,-22.484375,7.796875,-17.40625
1695903355341,0.11376953,-0.87042236,-0.39117432,-16.53125,15.40625,-14.765625
1695903355371,0.1640625,-0.96051025,-0.362854,-13.5625,18.8125,-15.9375
1695903355431,0.21435547,-0.9397583,-0.31378174,-12.875,12.0,-16.171875
1695903355446,0.15649414,-0.93878174,-0.29058838,-15.75,6.078125,-14.28125
1695903355490,0.0715332,-0.93878174,-0.2703247,-11.859375,10.328125,-15.578125
1695903355535,0.0146484375,-1.017395,-0.22418213,-12.796875,11.96875,-12.25
1695903355566,-0.04248047,-0.95196533,-0.21661377,-13.5,8.640625,-10.609375
1695903355611,-0.04663086,-0.98321533,-0.20562744,-14.6875,8.734375,-11.375
1695903355670,-0.083984375,-0.9924927,-0.16851807,-15.515625,8.734375,-10.4375
1695903355685,-0.0703125,-0.95806885,-0.14605713,-12.921875,5.796875,-10.5
1695903355731,-0.06542969,-0.9678345,-0.15216064,-12.1875,8.328125,-10.546875
1695903355761,-0.10888672,-1.024231,-0.08013916,-13.5625,7.96875,-8.15625
1695903355805,-0.11694336,-1.0134888,-0.09893799,-11.21875,9.5625,-7.4375
1695903355850,-0.059814453,-1.0142212,-0.059631348,-9.140625,13.046875,-6.125
1695903355881,-0.10205078,-1.0276489,-0.08843994,-10.5625,15.4375,0.5625
1695903355925,-0.059814453,-0.96051025,-0.09185791,-11.375,21.21875,1.453125
1695903355971,-0.061523438,-0.9451294,-0.12432861,-9.734375,18.921875,3.578125
1695903356000,-0.07299805,-0.9771118,-0.09527588,-8.375,18.5625,4.375
1695903356045,-0.07714844,-0.9524536,-0.10284424,-8.9375,15.5,2.75
1695903356076,-0.061035156,-0.9517212,-0.09942627,-8.0,10.53125,-3.03125
1695903356124,-0.05419922,-0.9751587,-0.09869385,-7.015625,2.65625,-3.90625
1695903356164,-0.05053711,-0.93292236,-0.11065674,-2.4375,-0.015625,-8.78125
1695903356195,-0.0859375,-0.9417114,-0.06451416,-1.015625,-4.328125,-8.828125
1695903356240,-0.1875,-1.0159302,-0.06060791,-5.0,-8.484375,-6.4375
1695903356301,-0.19042969,-0.9524536,-0.04815674,-3.046875,-9.453125,-6.125
1695903356315,-0.20043945,-0.98687744,-0.02130127,-0.953125,-9.5625,-6.953125
1695903356361,-0.17651367,-1.0149536,-0.058410645,-1.375,-8.59375,-8.234375
1695903356392,-0.20458984,-1.0200806,-0.027404785,-1.875,-9.375,-3.84375
1695903356436,-0.2175293,-1.0159302,-0.028869629,-2.234375,-8.1875,-7.140625
1695903356481,-0.23339844,-0.99591064,-0.058166504,-7.25,-6.453125,-6.578125
1695903356510,-0.19335938,-0.96759033,-0.058410645,-7.1875,-1.40625,-3.734375
1695903356555,-0.19042969,-0.99884033,-0.04107666,-6.953125,-4.75,-4.4375
1695903356600,-0.2421875,-0.99298096,-0.051818848,-7.171875,-4.125,-7.046875
1695903356630,-0.22558594,-0.9937134,-0.034240723,-9.96875,0.109375,-6.5625
1695903356675,-0.2163086,-1.0022583,-0.003967285,-11.125,1.078125,-9.453125
1695903356709,-0.20288086,-1.0230103,-0.012512207,-14.75,2.296875,-10.953125
1695903356750,-0.18798828,-1.015686,0.022888184,-16.765625,1.375,-11.75
1695903356795,-0.25146484,-1.0286255,0.08026123,-21.921875,-0.234375,-9.640625
1695903356826,-0.28222656,-1.0125122,0.04144287,-21.046875,10.578125,-10.21875
1695903356872,-0.23779297,-1.00177,0.07904053,-16.90625,16.171875,-7.96875
1695903356916,-0.21679688,-0.98443604,0.17425537,-21.609375,-0.359375,-5.90625
1695903356948,-0.3010254,-0.9795532,0.16888428,-28.203125,-3.078125,-8.984375
1695903356992,-0.22753906,-0.8965454,0.18133545,-28.71875,-2.03125,-6.3125
1695903357020,-0.2668457,-0.9299927,0.25750732,-23.359375,-9.1875,-9.171875
1695903357068,-0.30615234,-0.92266846,0.2753296,-23.21875,-9.78125,-14.59375
1695903357111,-0.3564453,-0.89923096,0.32928467,-21.734375,-11.28125,-14.625
1695903357140,-0.3774414,-0.86431885,0.3361206,-24.796875,-7.796875,-7.328125
1695903357185,-0.37890625,-0.83258057,0.44476318,-15.421875,-9.0625,-7.25
1695903357231,-0.6020508,-0.96954346,0.49505615,-12.921875,-5.21875,-4.4375
1695903357261,-0.5437012,-0.8242798,0.49017334,-15.84375,4.125,-3.046875
1695903357308,-0.49682617,-0.769104,0.5126343,-9.75,2.359375,-5.15625
1695903357337,-0.5185547,-0.8386841,0.59002686,-19.109375,0.984375,-3.796875
1695903357380,-0.5456543,-0.73687744,0.5128784,-10.890625,-1.578125,-6.09375
1695903357427,-0.5385742,-0.8257446,0.58636475,-6.796875,-1.578125,2.296875
1695903357455,-0.5280762,-0.8296509,0.5236206,-8.609375,-3.21875,2.46875
1695903357501,-0.43115234,-0.7012329,0.51190186,-5.6875,-4.03125,-10.015625
1695903357545,-0.48413086,-0.79571533,0.40838623,-16.125,-7.53125,-14.890625
1695903357575,-0.34692383,-0.7439575,0.3920288,-25.15625,-0.09375,-26.125
1695903357621,-0.32714844,-0.7908325,0.4310913,-28.1875,-11.0,-25.484375
1695903357666,-0.45874023,-0.7715454,0.38885498,-24.84375,-3.359375,-23.046875
1695903357696,-0.48046875,-0.77178955,0.48553467,-23.390625,-4.5625,-19.453125
1695903357740,-0.579834,-0.81866455,0.4804077,-27.65625,3.9375,-20.34375
1695903357770,-0.55322266,-0.7954712,0.539978,-27.65625,3.984375,-26.359375
1695903357815,-0.5019531,-0.7432251,0.46844482,-26.484375,5.296875,-22.546875
1695903357860,-0.5085449,-0.62823486,0.63812256,-21.28125,-5.734375,-22.546875
1695903357894,-0.5864258,-0.57159424,0.5734253,-25.453125,-7.5,-26.765625
1695903357935,-0.6279297,-0.41900635,0.621521,-27.015625,-6.921875,-29.0625
1695903357981,-0.65771484,-0.38604736,0.6654663,-32.671875,-8.109375,-27.53125
1695903358011,-0.7368164,-0.35723877,0.6913452,-34.171875,-10.90625,-31.96875
1695903358055,-0.8005371,-0.34942627,0.6828003,-37.296875,-8.765625,-33.125
1695903358090,-0.73168945,-0.22540283,0.67474365,-35.359375,-14.453125,-30.953125
1695903358130,-0.8469238,-0.094055176,0.6942749,-28.953125,-18.484375,-29.71875
1695903358175,-0.81103516,-0.112854004,0.65301514,-33.875,-14.171875,-30.375
1695903358205,-0.94262695,-0.031066895,0.9677124,-33.171875,-19.109375,-25.6875
1695903358251,-1.6459961,-0.014221191,0.83465576,-28.546875,-19.328125,-18.5625
1695903358295,-1.0546875,0.25579834,0.54730225,-10.765625,33.453125,-16.3125
1695903358326,-0.37548828,0.25482178,0.79071045,5.875,15.453125,4.375
1695903358370,-0.9453125,-0.24029541,0.6535034,-7.078125,-13.9375,7.8125
1695903358445,-0.69140625,-0.31671143,0.6967163,-14.609375,16.125,-15.828125
1695903358453,-0.9699707,0.036315918,0.7057495,4.3125,-22.546875,-5.0625
1695903358491,-0.9614258,-0.043029785,0.62127686,-13.75,29.125,-1.640625
1695903358521,-0.65893555,0.11224365,0.7880249,1.96875,-0.40625,-5.265625
1695903358566,-1.034668,-0.05670166,0.5614624,-12.0625,11.78125,-5.234375
1695903358610,-0.6430664,0.17132568,0.78656006,1.609375,5.40625,-5.34375
1695903358645,-0.93652344,0.046325684,0.62420654,-6.375,-8.421875,-1.390625
1695903358688,-0.68115234,0.14984131,0.66741943,-4.8125,2.078125,-7.46875
1695903358716,-0.8959961,0.14788818,0.72088623,-5.8125,0.265625,-1.75
1695903358760,-0.8713379,0.047790527,0.7094116,-2.25,-4.734375,-4.671875
1695903358806,-0.73876953,0.086364746,0.6828003,-4.625,2.765625,-4.5625
1695903358837,-0.8769531,0.09075928,0.68670654,-0.3125,1.3125,-0.90625
1695903358880,-0.86938477,-0.030090332,0.72650146,-0.828125,-5.65625,-2.34375
1695903358955,-0.76782227,0.02923584,0.6715698,-5.65625,-1.28125,-4.484375
1695903358961,-0.9091797,0.12664795,0.666687,0.203125,0.3125,0.65625
1695903359002,-0.85595703,0.06414795,0.68573,-3.0,0.171875,-2.140625
1695903359031,-0.8161621,0.07879639,0.6713257,-2.0625,5.421875,-2.15625
1695903359077,-0.8786621,0.12908936,0.67230225,-1.78125,2.71875,-0.671875
1695903359121,-0.8186035,0.12591553,0.68670654,-1.359375,1.484375,-1.109375
1695903359151,-0.814209,0.15594482,0.6798706,-0.625,1.765625,-0.234375
1695903359198,-0.85498047,0.12591553,0.69036865,-0.484375,0.34375,0.3125
1695903359240,-0.81933594,0.12640381,0.68084717,-1.0,1.15625,0.84375
1695903359270,-0.8305664,0.101989746,0.6967163,0.25,1.78125,0.71875
1695903359318,-0.8364258,0.09539795,0.697937,-0.09375,1.78125,1.328125
1695903359345,-0.82421875,0.07879639,0.7037964,-0.203125,1.625,0.453125
1695903359391,-0.83813477,0.10736084,0.69281006,1.046875,2.6875,0.6875
1695903359437,-0.8317871,0.082458496,0.70062256,0.578125,2.5,0.0
1695903359467,-0.82373047,0.113708496,0.701355,0.390625,2.4375,0.265625
1695903359510,-0.8208008,0.094177246,0.7172241,0.234375,2.765625,0.34375
1695903359556,-0.8239746,0.093688965,0.7091675,-0.890625,1.8125,0.53125
1695903359586,-0.8239746,0.1317749,0.69573975,-0.59375,2.078125,1.859375
1695903359630,-0.85253906,0.10345459,0.6972046,0.125,1.828125,1.140625
1695903359660,-0.8232422,0.12176514,0.69989014,-1.15625,1.125,0.609375
1695903359707,-0.83740234,0.09442139,0.69036865,0.5625,2.328125,0.796875
1695903359750,-0.8244629,0.086120605,0.71209717,-0.296875,1.171875,-0.125
1695903359781,-0.83325195,0.07928467,0.7123413,0.828125,2.15625,0.40625
1695903359825,-0.8288574,0.07366943,0.72576904,-0.8125,0.8125,0.359375
1695903359872,-0.8286133,0.08709717,0.715271,-0.46875,1.9375,0.328125
1695903359902,-0.8244629,0.09173584,0.711853,-0.15625,1.40625,0.40625
1695903359946,-0.8203125,0.1005249,0.7094116,-0.53125,1.515625,0.078125
1695903359975,-0.8239746,0.11151123,0.70843506,0.03125,1.953125,0.015625
1695903360025,-0.82299805,0.097595215,0.7055054,0.0625,1.078125,0.015625
1695903360067,-0.8178711,0.09466553,0.7184448,-0.109375,1.15625,0.1875
1695903360096,-0.8261719,0.093444824,0.71868896,0.65625,1.875,0.515625
1695903360140,-0.81591797,0.09490967,0.71380615,0.140625,1.359375,0.421875
1695903360184,-0.8261719,0.09197998,0.7086792,-0.109375,1.484375,0.375
1695903360215,-0.82470703,0.097839355,0.71087646,0.171875,1.703125,0.953125
1695903360260,-0.81152344,0.101745605,0.7015991,1.078125,1.859375,1.046875
1695903360291,-0.8125,0.09197998,0.70306396,1.1875,1.625,1.40625
1695903360335,-0.81518555,0.09197998,0.72332764,1.3125,1.921875,1.984375
1695903360382,-0.80029297,0.089538574,0.69866943,2.34375,2.125,2.828125
1695903360410,-0.7915039,0.081726074,0.7247925,3.671875,2.03125,3.796875
1695903360456,-0.7932129,0.093933105,0.7033081,3.046875,1.3125,6.796875
1695903360500,-0.78125,0.06341553,0.6720581,1.390625,1.828125,6.8125
1695903360531,-0.8330078,0.093444824,0.71868896,3.234375,-3.5625,8.1875
1695903360576,-0.77563477,-0.034484863,0.6889038,2.34375,2.078125,9.390625
1695903360606,-0.8100586,0.043640137,0.76605225,1.03125,-6.765625,13.390625
1695903360651,-0.90527344,0.018981934,0.74090576,7.71875,-7.3125,12.171875
1695903360694,-0.8144531,-0.06866455,0.7662964,15.5,-5.421875,14.171875
1695903360726,-0.88305664,-0.06939697,0.78338623,15.03125,-12.0,19.125
1695903360771,-0.9223633,-0.05670166,0.78045654,8.71875,-20.015625,24.515625
1695903360814,-0.97875977,-0.11090088,0.7350464,37.609375,-8.140625,29.671875
1695903360845,-0.9416504,-0.16363525,0.66986084,39.328125,-2.109375,27.328125
1695903360890,-0.8535156,-0.28155518,0.66278076,39.6875,-7.953125,25.375
1695903360920,-0.9013672,-0.3093872,0.6207886,32.40625,-3.0625,26.03125
1695903360965,-0.9296875,-0.31793213,0.6412964,29.703125,2.21875,27.59375
1695903361010,-0.8691406,-0.3616333,0.56463623,26.765625,5.40625,28.09375
1695903361041,-0.81884766,-0.4656372,0.58807373,27.375,6.296875,27.21875
1695903361086,-0.80615234,-0.51641846,0.5211792,20.875,4.984375,27.828125
1695903361131,-0.75805664,-0.49786377,0.604187,25.71875,2.40625,25.765625
1695903361160,-0.8186035,-0.6067505,0.39544678,21.703125,1.09375,30.0
1695903361206,-0.73657227,-0.5339966,0.53338623,23.09375,7.546875,24.515625
1695903361235,-0.6586914,-0.57696533,0.45916748,23.15625,2.046875,28.5
1695903361279,-0.7312012,-0.6460571,0.48529053,22.4375,3.671875,25.671875
1695903361325,-0.5612793,-0.74957275,0.4249878,21.09375,11.34375,28.0
1695903361355,-0.6394043,-0.67852783,0.36688232,21.34375,-2.015625,25.484375
1695903361400,-0.51953125,-0.7827759,0.40252686,18.796875,6.03125,26.09375
1695903361445,-0.55078125,-0.80718994,0.34002686,20.921875,1.515625,25.90625
1695903361476,-0.5397949,-0.8101196,0.32781982,22.5625,-2.765625,23.203125
1695903361520,-0.44873047,-0.8430786,0.32489014,18.640625,1.21875,22.9375
1695903361550,-0.5083008,-0.84454346,0.276062,20.640625,-3.90625,22.546875
1695903361595,-0.43041992,-0.87384033,0.2929077,20.90625,-2.984375,19.96875
1695903361641,-0.43579102,-0.89923096,0.2218628,18.1875,-4.96875,21.640625
1695903361670,-0.42358398,-0.89923096,0.26116943,22.859375,0.765625,20.859375
1695903361715,-0.35742188,-0.9656372,0.18572998,23.1875,-4.65625,20.015625
1695903361760,-0.3239746,-0.99346924,0.1618042,22.65625,-3.40625,22.4375
1695903361790,-0.35009766,-0.9421997,0.14520264,22.640625,-7.5,25.640625
1695903361836,-0.29760742,-0.9246216,0.1161499,23.390625,-3.046875,25.390625
1695903361865,-0.25732422,-0.9014282,0.12249756,23.5625,-1.53125,27.4375
1695903361910,-0.21557617,-0.9990845,0.09075928,22.46875,-4.1875,26.203125
1695903361956,-0.29101562,-1.0127563,0.024108887,13.21875,-5.03125,23.328125
1695903361985,-0.23730469,-0.9871216,-0.028625488,17.921875,0.734375,22.25
1695903362030,-0.09838867,-0.9475708,-0.037902832,17.03125,2.1875,26.1875
1695903362075,-0.09790039,-0.9155884,-0.10430908,17.8125,-7.1875,25.234375
1695903362105,-0.091308594,-0.9258423,-0.19268799,24.609375,3.578125,20.265625
1695903362150,0.04272461,-1.0320435,-0.1873169,22.875,3.078125,23.890625
1695903362196,0.055908203,-0.9939575,-0.19610596,23.90625,-5.421875,27.90625
1695903362225,0.06591797,-0.89556885,-0.21343994,27.390625,-9.15625,28.34375
1695903362270,0.047851562,-0.878479,-0.22393799,25.390625,-9.5625,32.359375
1695903362301,0.09887695,-0.90948486,-0.24005127,28.96875,-7.390625,31.734375
1695903362346,0.1574707,-0.9661255,-0.22662354,27.75,-5.515625,30.015625
1695903362392,0.080078125,-0.9854126,-0.2913208,19.578125,-5.1875,24.359375
1695903362420,0.14990234,-0.9702759,-0.36676025,21.265625,8.328125,18.6875
1695903362466,0.35473633,-0.9685669,-0.4043579,16.96875,5.234375,17.171875
1695903362510,0.42993164,-0.9089966,-0.5093384,13.296875,-2.078125,19.125
1695903362541,0.49780273,-0.90802,-0.4915161,9.375,-2.234375,15.390625
1695903362585,0.4572754,-0.92022705,-0.5581665,5.15625,-7.109375,8.578125
1695903362615,0.4189453,-0.9385376,-0.5667114,-0.015625,-1.171875,3.640625
1695903362660,0.37548828,-0.84454346,-0.54400635,-5.28125,0.546875,-0.890625
1695903362705,0.4243164,-0.89312744,-0.534729,-11.1875,10.203125,-4.296875
1695903362736,0.5397949,-0.92755127,-0.49395752,-8.890625,4.4375,-10.78125
1695903362795,0.36010742,-0.9717407,-0.5298462,-14.515625,-1.25,-8.609375
1695903362826,0.32348633,-0.87091064,-0.48394775,-15.40625,5.078125,-12.6875
1695903362857,0.33740234,-0.9002075,-0.40509033,-14.984375,1.984375,-19.328125
1695903362901,0.22192383,-0.9397583,-0.3916626,-20.234375,-0.453125,-20.0
1695903362930,0.25170898,-0.8074341,-0.32720947,-22.65625,2.609375,-22.34375
1695903362991,0.20483398,-0.81427,-0.2774048,-22.921875,-3.234375,-26.390625
1695903363021,0.1027832,-0.86187744,-0.2522583,-22.515625,-4.125,-25.875
1695903363050,0.114746094,-0.8772583,-0.2288208,-25.1875,-0.71875,-27.6875
1695903363095,0.10864258,-0.90289307,-0.190979,-24.875,-1.953125,-28.375
1695903363143,0.052490234,-0.8933716,-0.16925049,-24.265625,-3.28125,-28.6875
1695903363169,0.021484375,-0.87994385,-0.13165283,-24.953125,-2.28125,-29.40625
1695903363216,-0.017578125,-0.85650635,-0.08795166,-23.484375,-3.296875,-28.984375
1695903363246,-0.0925293,-0.8440552,-0.08917236,-21.921875,-4.265625,-27.703125
1695903363290,-0.06933594,-0.8699341,-0.042297363,-20.484375,-1.03125,-28.359375
1695903363350,-0.10986328,-0.8521118,-0.019348145,-20.375,-0.265625,-24.421875
1695903363365,-0.14208984,-0.8171997,-0.0154418945,-17.578125,1.390625,-20.6875
1695903363411,-0.13305664,-0.82769775,0.008239746,-14.015625,1.046875,-18.609375
1695903363455,-0.1430664,-0.9260864,0.035339355,-11.046875,-0.59375,-13.546875
1695903363484,-0.19726562,-0.9360962,0.043395996,-10.625,0.40625,-10.828125
1695903363531,-0.21362305,-0.9546509,0.06707764,-9.21875,1.296875,-8.625
1695903363560,-0.24780273,-0.9963989,0.086364746,-8.953125,1.09375,-7.328125
1695903363666,-0.27124023,-0.9741821,0.10028076,-8.4375,1.546875,-7.015625
1695903363670,-0.2775879,-0.9651489,0.10687256,-6.875,3.046875,-5.859375
1695903363681,-0.2355957,-0.9793091,0.12005615,-5.5,3.78125,-4.3125
1695903363726,-0.2565918,-0.9819946,0.11468506,-4.71875,2.78125,-1.859375
1695903363770,-0.24804688,-0.9793091,0.098083496,-2.703125,4.625,-0.21875
1695903363800,-0.2421875,-0.9819946,0.12908936,-0.765625,4.375,1.5625
1695903363845,-0.25317383,-0.98223877,0.13226318,-0.890625,4.59375,2.328125
1695903363879,-0.24438477,-0.9702759,0.12591553,-0.453125,4.265625,3.1875
1695903363935,-0.23706055,-0.9729614,0.13470459,0.65625,2.921875,3.328125
1695903363966,-0.24633789,-0.9771118,0.14202881,1.109375,1.859375,2.84375
1695903363996,-0.2421875,-0.9819946,0.12054443,1.109375,1.546875,2.203125
1695903364041,-0.2355957,-0.98931885,0.14447021,1.421875,-0.15625,2.265625
1695903364086,-0.25024414,-0.9871216,0.14544678,1.515625,-1.703125,1.953125
1695903364116,-0.23925781,-0.9690552,0.11859131,1.15625,-1.265625,0.90625
1695903364161,-0.23413086,-0.98883057,0.12786865,1.90625,-2.765625,1.03125
1695903364191,-0.24853516,-0.98931885,0.12982178,1.578125,-3.8125,1.359375
1695903364237,-0.23339844,-0.9727173,0.12860107,1.4375,-4.15625,0.171875
1695903364281,-0.24414062,-0.99102783,0.11883545,1.46875,-5.25,0.296875
1695903364311,-0.2590332,-0.9871216,0.12298584,1.578125,-4.546875,-0.84375
1695903364370,-0.26342773,-0.9793091,0.12884521,1.625,-4.171875,-0.234375
1695903364400,-0.26489258,-0.97979736,0.11248779,1.484375,-3.625,-0.375
1695903364431,-0.29003906,-0.9727173,0.113220215,2.21875,-3.703125,-0.453125
1695903364478,-0.27783203,-0.9690552,0.08905029,3.109375,-2.875,0.25
1695903364505,-0.27661133,-0.96832275,0.0927124,3.921875,-1.234375,0.9375
1695903364551,-0.33764648,-0.9763794,0.1071167,4.3125,-1.140625,1.828125
1695903364596,-0.3774414,-0.97491455,0.09686279,4.859375,1.765625,0.859375
1695903364628,-0.4169922,-0.9595337,0.093444824,4.484375,8.765625,1.171875
1695903364670,-0.47045898,-0.93536377,-0.004211426,5.1875,17.328125,0.953125
1695903364724,-0.37060547,-0.85601807,-0.03717041,5.390625,29.953125,4.765625
1695903364746,-0.3413086,-0.9397583,-0.042053223,5.734375,27.9375,5.890625
1695903364790,-0.5505371,-1.0857544,0.0045776367,6.4375,33.921875,2.453125
1695903364820,-0.48168945,-0.95562744,-0.009094238,3.515625,48.1875,-3.4375
1695903364872,-0.30541992,-0.95391846,-0.016906738,8.390625,59.40625,-2.71875
1695903364911,-0.2421875,-0.88946533,0.06488037,11.484375,61.734375,2.09375
1695903364941,-0.2680664,-0.89849854,-0.023010254,14.390625,59.375,3.015625
1695903364986,-0.2241211,-1.0755005,0.03363037,16.53125,66.703125,4.390625
1695903365030,-0.2121582,-1.0789185,0.07220459,14.890625,72.78125,8.671875
1695903365060,-0.24169922,-1.1001587,0.1149292,10.53125,75.8125,7.8125
1695903365105,-0.19995117,-1.1030884,0.13421631,7.71875,77.515625,10.046875
1695903365135,-0.21655273,-0.94366455,0.09710693,9.46875,75.125,11.453125
1695903365181,-0.2602539,-0.8933716,0.061950684,13.140625,78.65625,9.921875
1695903365226,-0.23022461,-0.88165283,0.02947998,15.609375,82.703125,8.5
1695903365256,-0.18310547,-0.89556885,-0.02130127,19.15625,84.75,7.296875
1695903365300,-0.16040039,-0.94366455,0.019714355,19.421875,84.28125,6.5625
1695903365346,-0.22070312,-0.99468994,-0.046936035,18.484375,86.953125,2.609375
1695903365376,-0.125,-0.9824829,-0.028869629,19.0,94.03125,1.796875
1695903365420,-0.09643555,-1.0466919,-0.020080566,21.3125,90.828125,7.09375
1695903365451,-0.24560547,-1.1365356,-0.20098877,20.03125,82.4375,8.015625
1695903365495,-0.16845703,-1.0115356,-0.33721924,18.4375,90.046875,11.828125
1695903365541,-0.19897461,-0.90045166,-0.30499268,20.578125,80.9375,18.109375
1695903365571,-0.32641602,-0.9348755,-0.31280518,18.5,81.546875,7.671875
1695903365631,-0.33984375,-0.9956665,-0.31207275,17.390625,90.609375,3.859375
1695903365662,-0.24316406,-0.98883057,-0.22955322,13.515625,93.875,5.34375
1695903365691,-0.3100586,-0.97735596,-0.20831299,6.5,90.796875,6.59375
1695903365735,-0.37451172,-0.9282837,-0.26837158,3.65625,90.5625,3.453125
1695903365771,-0.33203125,-0.9883423,-0.25958252,3.9375,91.359375,3.703125
1695903365810,-0.4074707,-0.9487915,-0.28497314,4.296875,92.875,1.875
1695903365870,-0.39819336,-0.8909302,-0.3303833,9.203125,99.28125,1.1875
1695903365885,-0.23242188,-0.9180298,-0.3406372,12.0,97.203125,3.5625
1695903365930,-0.20410156,-0.87701416,-0.29864502,13.703125,90.515625,4.984375
1695903365975,-0.32788086,-0.7715454,-0.24420166,14.515625,83.21875,-0.953125
1695903366005,-0.25561523,-0.9734497,-0.1428833,18.4375,89.25,-4.765625
1695903366051,-0.11352539,-1.2664185,-0.0076293945,16.828125,83.28125,-1.15625
1695903366083,-0.1940918,-1.0322876,-0.0154418945,11.25,78.734375,10.890625
1695903366126,-0.16064453,-1.116272,-0.0012817383,14.203125,73.25,9.125
1695903366170,-0.1159668,-1.178772,0.08123779,11.8125,81.109375,15.921875
1695903366200,-0.25463867,-0.9456177,0.14593506,9.234375,80.328125,19.390625
1695903366245,-0.3569336,-0.7805786,-0.086242676,13.28125,89.703125,8.0625
1695903366291,-0.10058594,-0.78302,-0.10308838,20.40625,95.953125,9.46875
1695903366320,-0.032714844,-0.9578247,-0.0569458,25.9375,83.9375,15.75
1695903366365,-0.114990234,-1.0552368,-0.07745361,23.5,82.65625,13.59375
1695903366410,-0.17016602,-0.9258423,-0.026184082,21.109375,84.21875,12.109375
1695903366440,-0.2421875,-0.96881104,-0.11651611,21.546875,93.421875,6.546875
1695903366487,-0.08666992,-0.9871216,-0.07574463,22.15625,101.609375,12.09375
1695903366516,-0.25610352,-1.0098267,-0.2263794,22.171875,91.765625,14.78125
1695903366561,-0.3154297,-0.9714966,-0.48101807,19.609375,93.140625,13.078125
1695903366606,-0.1262207,-0.96173096,-0.4126587,21.09375,87.375,24.078125
1695903366636,-0.25610352,-1.0942993,-0.26715088,20.15625,80.3125,16.765625
1695903366680,-0.38330078,-1.1577759,-0.21270752,10.40625,94.4375,9.25
1695903366726,-0.36572266,-0.96417236,-0.20343018,0.53125,103.515625,13.796875
1695903366760,-0.17871094,-0.8604126,-0.2144165,-2.53125,94.5625,10.96875
1695903366801,-0.22290039,-0.9846802,-0.20343018,-3.15625,79.28125,7.515625
1695903366830,-0.34545898,-0.9505005,-0.16461182,-5.1875,75.96875,7.0
1695903366876,-0.31103516,-0.895813,-0.17755127,-5.359375,76.9375,3.734375
1695903366921,-0.3232422,-0.9133911,-0.18389893,-1.453125,75.40625,2.640625
1695903366952,-0.30078125,-0.96417236,-0.20758057,3.78125,74.65625,0.828125
1695903366999,-0.25,-0.9067993,-0.16021729,5.234375,72.546875,0.140625
1695903367085,-0.15209961,-0.88726807,-0.19024658,9.515625,61.34375,0.0
1695903367088,0.103759766,-1.125061,0.09832764,13.71875,72.703125,2.96875
1695903367118,-0.23046875,-0.7786255,0.0072631836,9.921875,46.984375,7.9375
1695903367164,-0.27441406,-0.91241455,0.020935059,11.859375,57.265625,-12.28125
1695903367190,-0.09399414,-1.425354,-0.0056762695,15.15625,62.6875,-4.59375
1695903367235,-0.030761719,-1.1401978,0.19110107,6.25,64.390625,9.4375
1695903367266,-0.30615234,-0.9043579,0.17010498,6.8125,60.203125,8.375
1695903367310,-0.38183594,-0.90167236,0.013366699,7.484375,78.21875,1.4375
1695903367354,-0.10888672,-0.8623657,0.008483887,14.140625,86.625,4.453125
1695903367386,-0.17285156,-0.9981079,0.023132324,19.1875,80.265625,13.296875
1695903367431,-0.21850586,-0.9746704,-0.00982666,18.90625,85.65625,9.953125
1695903367461,-0.19311523,-0.91192627,-0.039855957,18.421875,86.671875,6.15625
1695903367506,-0.17578125,-0.9505005,-0.08404541,20.484375,92.53125,4.625
1695903367550,-0.076660156,-0.9956665,-0.02178955,21.015625,96.09375,7.46875
1695903367580,-0.11206055,-0.9990845,0.04925537,21.546875,94.1875,11.875
1695903367642,-0.26489258,-1.0029907,-0.15704346,21.390625,88.828125,9.890625
1695903367701,-0.36938477,-1.0276489,-0.37042236,22.0625,93.15625,5.9375
1695903367705,-0.14868164,-1.019104,-0.41534424,21.640625,99.0625,17.828125
1695903367745,-0.24243164,-0.85943604,-0.29962158,19.34375,81.84375,12.984375
1695903367775,-0.39892578,-1.0088501,-0.27496338,18.65625,87.703125,3.796875
1695903367820,-0.27075195,-1.0750122,-0.24468994,12.8125,96.3125,7.875
1695903367867,-0.20117188,-0.940979,-0.1843872,6.140625,88.78125,4.90625
1695903367895,-0.31225586,-0.9414673,-0.17510986,5.859375,77.0,3.921875
1695903367940,-0.33764648,-0.9734497,-0.21636963,4.6875,77.90625,4.703125
1695903367986,-0.30566406,-0.9065552,-0.20147705,5.03125,75.890625,5.875
1695903368016,-0.32543945,-0.93463135,-0.18536377,5.703125,75.296875,4.171875
1695903368062,-0.359375,-0.9561157,-0.18292236,9.703125,74.09375,3.609375
1695903368105,-0.37402344,-0.9019165,-0.23834229,13.171875,80.875,1.890625
1695903368136,-0.24389648,-0.8682251,-0.2432251,14.375,80.78125,2.6875
1695903368181,-0.19140625,-0.9209595,-0.20733643,11.390625,69.453125,2.53125
1695903368211,-0.17480469,-0.8777466,-0.20465088,10.859375,53.9375,1.703125
1695903368256,-0.03515625,-1.0481567,0.07171631,16.90625,67.40625,6.34375
1695903368300,-0.41967773,-1.111145,0.0848999,11.78125,45.359375,11.78125
1695903368330,-0.55908203,-1.0342407,-0.058166504,4.0625,76.15625,-8.015625
1695903368376,-0.092041016,-1.1026001,0.026306152,11.46875,74.859375,2.75
1695903368405,-0.1730957,-1.2976685,0.19232178,5.8125,67.078125,8.828125
1695903368450,-0.23266602,-0.85040283,0.077819824,5.203125,64.90625,20.015625
1695903368495,-0.29614258,-0.6392212,0.02142334,15.140625,68.90625,14.578125
1695903368525,-0.15478516,-0.87628174,0.021911621,21.53125,73.953125,11.046875
1695903368570,-0.16430664,-1.0213013,0.035827637,20.6875,71.109375,16.5
1695903368616,-0.22558594,-0.9421997,0.009460449,19.84375,73.3125,13.8125
1695903368644,-0.19018555,-0.95147705,0.006286621,19.5625,77.296875,10.171875
1695903368689,-0.18115234,-0.99713135,-0.019592285,20.421875,80.515625,8.984375
1695903368719,-0.16088867,-0.98272705,0.023864746,18.078125,88.078125,8.296875
1695903368764,-0.09375,-1.015686,-0.05279541,17.328125,90.15625,9.09375
1695903368809,-0.1784668,-1.0293579,-0.12677002,21.0625,78.421875,6.765625
1695903368839,-0.24511719,-1.0213013,-0.2913208,21.890625,80.953125,5.96875
1695903368884,-0.2626953,-0.98223877,-0.2744751,18.8125,81.6875,13.015625
1695903368930,-0.3100586,-0.8418579,-0.3406372,18.578125,72.234375,12.046875
1695903368960,-0.4116211,-0.97784424,-0.39312744,23.21875,83.25,4.65625
1695903369004,-0.27978516,-1.1047974,-0.23028564,17.78125,91.71875,3.734375
1695903369034,-0.26220703,-1.0161743,-0.16461182,8.171875,86.734375,13.109375
1695903369079,-0.40185547,-0.8694458,-0.21734619,7.296875,81.609375,8.59375
1695903369123,-0.34179688,-0.9204712,-0.25909424,6.21875,85.78125,7.703125
1695903369155,-0.21679688,-0.97003174,-0.22125244,5.484375,82.421875,10.28125
1695903369200,-0.23925781,-0.9570923,-0.15924072,4.671875,71.140625,12.859375
1695903369247,-0.3388672,-0.9265747,-0.16119385,1.28125,68.265625,10.859375
1695903369276,-0.25024414,-0.90997314,-0.19293213,3.484375,66.703125,7.25
1695903369322,-0.20629883,-0.96051025,-0.18658447,7.90625,61.90625,10.03125
1695903369352,-0.19824219,-0.97613525,-0.13677979,7.859375,56.0,13.265625
1695903369398,-0.096191406,-0.97369385,-0.13726807,5.265625,47.578125,13.625
1695903369455,-0.05126953,-1.0276489,-0.08526611,9.25,34.859375,17.46875
1695903369471,0.064697266,-1.2039185,0.078308105,7.109375,32.875,20.359375
1695903369517,-0.23364258,-0.87457275,0.06097412,-2.109375,21.515625,16.9375
1695903369560,-0.21484375,-0.77423096,-0.04449463,-2.703125,32.8125,-1.109375
1695903369590,-0.14379883,-1.086731,0.07659912,-0.078125,28.96875,-4.8125
1695903369635,-0.07788086,-1.2271118,0.05633545,0.203125,29.25,-0.328125
1695903369667,-0.007080078,-0.895813,0.09515381,-2.015625,22.09375,6.828125
1695903369711,-0.11401367,-0.9199829,0.081726074,-3.625,15.53125,2.890625
1695903369755,-0.08642578,-1.0488892,0.11785889,-3.828125,15.0625,-2.71875
1695903369785,-0.03173828,-1.0535278,0.1239624,-4.359375,14.890625,0.296875
1695903369831,-0.075683594,-1.0215454,0.15325928,-5.984375,11.15625,-0.203125
1695903369876,-0.11621094,-0.95684814,0.12542725,-6.765625,8.34375,-4.515625
1695903369910,-0.03125,-1.0149536,0.05267334,-6.703125,3.390625,-6.734375
1695903369966,-0.06616211,-1.1084595,0.078063965,-6.5,-8.0,-2.515625
1695903369981,-0.14477539,-1.0234985,0.05999756,-7.0625,-11.46875,-3.171875
1695903370027,-0.13623047,-0.9168091,0.07196045,-7.34375,-12.234375,-3.921875
1695903370071,-0.2163086,-0.9475708,0.066833496,-7.234375,-14.40625,-7.203125
1695903370101,-0.20922852,-0.97906494,0.047058105,-5.953125,-12.78125,-10.078125
1695903370146,-0.26049805,-0.97735596,0.062194824,-1.671875,-10.21875,-7.125
1695903370191,-0.23608398,-0.95806885,0.057800293,0.515625,-6.375,-4.828125
1695903370221,-0.25146484,-0.97198486,0.08050537,1.578125,-6.921875,-1.59375
1695903370265,-0.23583984,-0.9937134,0.062927246,0.8125,-5.796875,-0.9375
1695903370295,-0.25756836,-0.9902954,0.053894043,1.5,-5.953125,-0.625
1695903370340,-0.27075195,-0.9963989,0.03778076,1.46875,-4.265625,-0.078125
1695903370388,-0.22827148,-0.9968872,0.035827637,1.5,-4.125,-0.0625
1695903370416,-0.2211914,-0.9690552,0.022399902,1.859375,-4.09375,0.671875
1695903370460,-0.24731445,-0.98394775,0.027038574,2.15625,-4.484375,0.4375
1695903370507,-0.22680664,-1.0022583,0.027526855,2.578125,-4.390625,0.796875
1695903370536,-0.21948242,-0.9871216,0.012634277,2.421875,-5.203125,1.390625
1695903370581,-0.23144531,-0.9697876,0.0079956055,4.15625,-6.203125,4.3125
1695903370625,-0.22290039,-0.9678345,0.0014038086,6.21875,-6.28125,7.265625
1695903370656,-0.2121582,-0.9776001,-0.0037231445,7.8125,-5.71875,9.078125
1695903370701,-0.21362305,-0.9758911,0.002380371,9.828125,-6.3125,12.359375
1695903370731,-0.12939453,-0.99346924,-0.040100098,10.0625,-3.484375,13.53125
1695903370775,-0.13574219,-0.9841919,-0.012023926,11.34375,-7.28125,16.84375
1695903370821,-0.05029297,-0.9246216,0.018249512,11.671875,-3.6875,22.71875
1695903370865,-0.03491211,-0.76275635,0.06951904,14.09375,-3.96875,25.421875
1695903370895,-0.017089844,-0.7498169,0.010437012,16.78125,-3.515625,21.15625
1695903370940,-0.07104492,-0.71539307,-0.006652832,20.421875,1.828125,21.296875
1695903370970,0.041503906,-0.60943604,0.018737793,22.671875,8.015625,23.0625
1695903371014,0.001953125,-0.44073486,-0.14898682,23.1875,-5.515625,31.875
1695903371045,0.087890625,-0.6589966,-0.1651001,23.015625,-8.390625,12.171875
1695903371105,0.26489258,-1.2158813,-0.222229,28.828125,-37.609375,0.03125
1695903371135,-0.10449219,-2.0,-0.44244385,-2.796875,-32.890625,5.53125
1695903371166,0.31689453,-2.0,-0.41680908,-9.921875,-16.1875,-25.296875
1695903371211,0.140625,-2.0,-0.42877197,-23.3125,-18.296875,-38.78125
1695903371256,-0.07519531,-2.0,-0.37774658,-26.0625,2.0625,-42.28125
1695903371289,-0.088134766,-1.802063,-0.3982544,-40.71875,23.171875,-52.5625
1695903371333,0.43286133,-0.5484009,-0.32940674,-59.046875,33.71875,-13.71875
1695903371360,0.32543945,0.354187,-0.16778564,-34.171875,2.90625,8.390625
1695903371406,-0.15527344,0.7758179,-0.10406494,-14.84375,-14.28125,-3.390625
1695903371451,0.022216797,0.16400146,0.08538818,15.234375,-14.328125,-14.8125
1695903371483,-0.01928711,-0.20855713,0.10491943,16.625,-17.125,-0.71875
1695903371525,-0.20385742,-0.11968994,0.10491943,5.03125,-16.171875,-5.1875
1695903371570,-0.14868164,-0.06964111,0.026306152,-2.046875,-9.5625,-15.546875
1695903371601,0.05908203,-0.016418457,-0.012756348,-5.15625,6.421875,-8.296875
1695903371649,0.17504883,0.06341553,0.031677246,-4.0,-8.53125,2.609375
1695903371675,0.07519531,-0.18218994,-0.27301025,32.84375,-55.765625,0.03125
1695903371735,-0.71899414,-2.0,-1.2578735,45.640625,-54.875,-13.28125
1695903371767,0.048339844,-2.0,-0.026672363,-1.78125,-13.4375,33.21875
1695903371795,-0.74487305,-2.0,-0.30963135,-3.8125,13.8125,7.921875
1695903371840,-0.34057617,-1.6228638,-0.093566895,-10.125,15.3125,-14.484375
1695903371887,-0.025146484,-0.8921509,-0.1453247,-20.484375,17.90625,-6.453125
1695903371915,0.11328125,-0.32403564,-0.11529541,-7.265625,4.578125,0.96875
1695903371976,-0.1274414,-0.30914307,-0.10772705,-9.4375,-3.5625,20.078125
1695903371991,-0.10083008,-0.32476807,-0.10821533,1.046875,-8.65625,4.421875
1695903372037,-0.078125,-0.64971924,-0.22320557,9.65625,-15.0,-11.890625
1695903372082,-0.08105469,-1.2183228,-0.3743286,16.765625,-19.0,-4.828125
1695903372111,-0.118896484,-1.7293091,-0.06964111,8.6875,-2.84375,14.5
1695903372155,0.040039062,-1.0108032,-0.02911377,-8.375,-4.109375,10.8125
1695903372201,-0.07861328,-0.6885376,-0.06085205,1.984375,-9.28125,5.28125
1695903372231,-0.05126953,-0.8526001,-0.012268066,6.4375,-7.90625,6.84375
1695903372282,0.031982422,-1.0059204,-0.0051879883,5.734375,-8.34375,-2.578125
1695903372305,-0.041992188,-1.0547485,-0.06329346,8.75,-10.703125,7.171875
1695903372350,-0.25854492,-0.74884033,-0.364563,-4.921875,11.125,6.765625
1695903372395,0.15234375,-0.35650635,-0.42608643,11.421875,19.171875,15.21875
1695903372425,0.13476562,-0.44854736,-0.25079346,33.609375,-11.921875,26.0625
1695903372471,-0.13623047,-0.90411377,-0.15142822,30.84375,-24.265625,23.40625
1695903372531,-0.32543945,-1.3777466,-0.255188,-6.1875,-2.1875,11.140625
1695903372546,0.25,-1.0535278,-0.15631104,-21.609375,-8.046875,-8.53125
1695903372590,0.115478516,-1.4121704,-0.4175415,-26.0625,-37.21875,-29.46875
1695903372637,-0.041259766,-2.0,-0.43707275,-21.53125,-19.625,-41.34375
1695903372667,-0.39038086,-2.0,-0.36968994,-30.890625,11.65625,-32.171875
1695903372711,0.33935547,-2.0,-0.4031372,-10.28125,41.984375,-26.328125
1695903372740,0.39453125,-1.1443481,-0.1519165,-32.640625,21.75,2.984375
1695903372786,-0.07470703,-0.13165283,-0.07086182,-54.328125,21.96875,17.78125
1695903372837,-0.11035156,0.77630615,-0.1687622,-28.203125,25.328125,5.84375
1695903372861,0.07739258,0.7670288,0.0770874,4.765625,11.515625,-4.890625
1695903372905,0.0078125,-0.17926025,0.06756592,19.46875,-5.90625,0.78125
1695903372936,-0.16381836,-0.39483643,0.029724121,6.59375,-1.75,6.21875
1695903372981,-0.16796875,-0.20440674,0.039489746,-3.359375,8.140625,-6.65625
1695903373026,-0.01928711,-0.0010375977,0.014343262,-16.734375,28.15625,-7.4375
1695903373057,0.2265625,0.23797607,0.042419434,-13.4375,14.90625,-5.546875
1695903373101,0.033447266,-0.24664307,-0.15411377,63.015625,-45.1875,-8.359375
1695903373146,0.2084961,-2.0,-2.0,-73.390625,-42.28125,-10.140625
1695903373175,0.36279297,-1.8130493,-0.16729736,-13.140625,38.671875,28.671875
1695903373220,-0.8947754,-1.7461548,0.016296387,6.328125,22.28125,-4.6875
1695903373250,0.10083008,-0.9595337,0.14935303,-11.640625,25.984375,-33.90625
1695903373295,0.039794922,-0.36260986,-0.05645752,-22.640625,17.375,-15.484375
1695903373340,0.08300781,-0.20074463,-0.14605713,-8.015625,8.421875,1.796875
1695903373371,0.060302734,-0.45928955,9.1552734E-4,12.8125,-6.828125,2.6875
1695903373431,-0.17236328,-1.0864868,-0.059143066,14.671875,-9.921875,1.125
1695903373461,-0.27416992,-1.6504517,0.23114014,5.53125,5.078125,12.6875
1695903373491,-0.28149414,-1.0393677,0.08123779,-10.234375,6.453125,-1.65625
1695903373535,-0.23828125,-0.8496704,-0.0022583008,-2.34375,9.796875,-3.390625
1695903373567,-0.11645508,-0.987854,0.043395996,4.4375,5.90625,-3.0625
1695903373610,-0.122802734,-1.0029907,0.018737793,1.609375,2.96875,1.90625
1695903373656,-0.13842773,-0.9109497,-0.028625488,4.140625,2.421875,6.40625
1695903373685,-0.17016602,-0.9121704,-0.06573486,6.234375,5.640625,5.515625
1695903373731,-0.072753906,-0.90338135,-0.06842041,9.765625,6.953125,8.46875
1695903373776,-0.07397461,-0.93463135,-0.047180176,12.265625,2.140625,11.265625
1695903373806,-0.06591797,-0.90216064,-0.07940674,12.046875,3.40625,11.921875
1695903373850,0.032958984,-0.7608032,-0.13116455,12.96875,4.890625,16.515625
1695903373880,0.12646484,-0.583313,-0.06060791,12.515625,-2.578125,23.765625
1695903373926,0.0126953125,-0.47442627,-0.055725098,12.921875,-12.390625,26.140625
1695903373971,-0.07470703,-0.5288696,-0.14874268,9.84375,-8.484375,19.859375
1695903374000,0.016113281,-0.819397,-0.22784424,13.5625,-8.75,10.140625
1695903374045,-0.11694336,-1.6646118,-0.17828369,-0.796875,-4.375,-16.03125
1695903374091,-0.025146484,-2.0,-0.24468994,-13.546875,1.921875,-24.6875
1695903374121,0.068847656,-1.8919067,-0.44317627,-18.59375,2.28125,-20.78125
1695903374165,-0.052734375,-2.0,-0.32598877,-9.96875,-6.265625,-17.5
1695903374196,-0.16357422,-2.0,-0.41363525,-7.234375,8.34375,-17.828125
1695903374240,0.044189453,-1.6868286,-0.27130127,-2.578125,24.640625,-17.703125
1695903374287,0.08154297,-0.9607544,-0.06378174,-38.375,27.375,-11.59375
1695903374316,-0.045410156,0.10809326,-0.13140869,-49.484375,32.5625,9.8125
1695903374360,0.060791016,0.9454956,-0.109191895,-10.828125,22.46875,-1.65625
1695903374406,0.27612305,0.3529663,0.059509277,14.953125,-4.0,-0.78125
1695903374435,-0.06225586,-0.2300415,0.049987793,24.8125,-15.3125,16.078125
1695903374480,-0.24414062,-0.20880127,0.1720581,15.796875,-7.78125,15.40625
1695903374511,-0.19213867,-0.2546997,0.07342529,13.453125,1.859375,-7.125
1695903374557,0.048828125,-0.12945557,-0.025939941,-5.296875,17.515625,-4.515625
1695903374601,0.23413086,0.12738037,-0.09698486,-6.921875,-4.640625,-7.375
1695903374631,0.017578125,-0.48492432,-0.68927,61.9375,-58.984375,-4.5
1695903374676,-1.1323242,-2.0,1.0092163,112.078125,9.84375,72.34375
1695903374720,-0.07446289,-2.0,-0.39019775,-16.625,14.6875,17.453125
1695903374752,-0.4736328,-1.7175903,-0.08135986,-13.3125,14.40625,-25.5
1695903374796,0.09741211,-0.87457275,-0.09967041,-28.375,27.875,-28.3125
1695903374825,0.1796875,-0.27105713,-0.050842285,-34.953125,6.046875,1.59375
1695903374870,-0.123291016,-0.069885254,-0.093322754,-17.5,-6.015625,-0.40625
1695903374930,-0.13598633,-0.11602783,-0.0869751,-3.921875,-16.515625,-15.046875
1695903374960,-0.23120117,-0.7769165,-0.16314697,19.859375,-17.390625,-14.09375
1695903374990,-0.20727539,-2.0,-0.24273682,10.90625,-3.4375,5.90625
1695903375036,-0.1328125,-1.3928833,0.06439209,-26.265625,10.453125,7.609375
1695903375066,-0.35180664,-0.39630127,-0.06866455,-12.046875,7.21875,2.796875
1695903375126,-0.24804688,-0.59991455,-0.023010254,0.390625,5.890625,-5.390625
1695903375156,-0.1706543,-1.1089478,0.0138549805,5.515625,8.765625,-8.84375
1695903375186,-0.049072266,-1.2334595,0.0016479492,2.390625,4.6875,5.25
1695903375231,-0.15600586,-0.927063,-0.038391113,-0.46875,-0.3125,10.859375
1695903375261,-0.20532227,-0.8491821,-0.031555176,4.15625,1.671875,5.828125
1695903375305,-0.11035156,-0.9692993,-0.018615723,6.578125,2.046875,6.34375
1695903375350,-0.08520508,-1.0195923,-0.014953613,8.0625,-0.296875,10.546875
1695903375380,-0.09106445,-0.98516846,-0.013000488,8.765625,-4.71875,14.328125
1695903375425,-0.078125,-0.9265747,-0.038635254,11.46875,-3.09375,15.40625
1695903375486,-0.029541016,-0.8933716,-0.012756348,16.703125,-2.328125,18.53125
1695903375501,-0.010009766,-0.7815552,-0.10601807,19.71875,-0.625,21.953125
1695903375545,0.075927734,-0.6206665,-0.027893066,15.609375,8.953125,27.46875
1695903375591,0.06347656,-0.37701416,-0.034973145,13.609375,-0.859375,28.71875
1695903375621,0.064941406,-0.40020752,-0.20684814,16.640625,-7.34375,18.453125
1695903375665,0.076416016,-0.72442627,-0.012023926,16.453125,-25.421875,7.046875
1695903375695,-0.1953125,-1.4002075,-0.27398682,0.0625,-22.875,-11.203125
1695903375741,0.07739258,-1.9981079,-0.20758057,-15.234375,2.90625,-19.09375
1695903375786,0.18969727,-2.0,-0.5835571,-13.546875,-14.734375,-24.5
1695903375815,0.12402344,-2.0,-0.5371704,-6.515625,3.109375,-29.921875
1695903375861,-0.032470703,-2.0,-0.42730713,-18.0625,14.265625,-35.5625
1695903375936,-0.1418457,-1.7871704,-0.38848877,-33.34375,20.28125,-41.6875
1695903375940,0.06298828,-0.7827759,-0.2617798,-74.109375,53.828125,-24.890625
1695903375983,0.43237305,0.37835693,-0.25006104,-45.921875,46.546875,24.390625
1695903376010,0.12817383,1.3825073,-0.003479004,4.078125,9.171875,11.828125
1695903376055,-0.0390625,0.044128418,-0.047912598,37.0,-12.3125,-16.296875
1695903376105,-0.19238281,-0.38165283,0.07635498,17.171875,-3.359375,15.28125
1695903376135,-0.12524414,-0.2571411,0.15960693,6.609375,-0.265625,5.78125
1695903376178,-0.2163086,-0.25982666,0.2020874,-4.625,5.890625,-8.96875
1695903376205,-0.11206055,0.05657959,0.047058105,-16.765625,23.203125,-2.28125
1695903376250,0.14550781,0.28240967,-0.121398926,-8.484375,20.40625,-1.0
1695903376298,0.22851562,0.016296387,-0.32208252,-0.28125,-5.734375,-1.890625
1695903376325,0.103027344,-0.677063,-0.16046143,76.75,-59.734375,3.046875
1695903376370,-0.82714844,-2.0,0.66448975,110.40625,-36.59375,46.21875
1695903376416,-0.22753906,-2.0,-0.4348755,-7.859375,19.421875,17.046875
1695903376446,-0.65234375,-2.0,0.08465576,-4.03125,8.640625,-5.75
1695903376491,-0.020507812,-1.0657349,-0.01739502,-19.28125,25.578125,-17.640625
1695903376521,0.12109375,-0.31378174,-0.09625244,-27.21875,11.15625,-2.0625
1695903376567,0.10595703,9.1552734E-4,-0.04522705,-10.3125,-0.359375,9.78125
1695903376625,-0.029052734,0.015808105,-0.020812988,-0.53125,-12.875,-1.1875
1695903376655,-0.21777344,-0.39508057,-0.13165283,19.28125,-33.4375,-17.28125
1695903376686,-0.3017578,-1.5879517,-0.41900635,25.09375,-14.15625,-25.40625
1695903376731,-0.16699219,-1.9077759,0.2843628,8.046875,-6.5,30.15625
1695903376761,-0.35375977,-0.43878174,-0.13677979,-19.828125,12.171875,9.703125
1695903376805,-0.20800781,-0.15753174,-0.16119385,2.640625,6.125,-4.5
1695903376835,0.0107421875,-1.1206665,-0.0960083,8.6875,3.53125,-8.09375
1695903376880,-0.22680664,-1.7510376,-0.0056762695,-1.328125,3.34375,-8.4375
1695903376941,-0.09741211,-0.99298096,-0.04058838,-11.984375,4.9375,9.171875
1695903376956,-0.12670898,-0.67437744,-0.09698486,-6.40625,4.484375,2.734375
1695903377001,-0.1081543,-0.85235596,-0.10430908,-1.96875,1.65625,-0.6875
1695903377049,-0.119628906,-1.123352,-0.07159424,0.265625,-1.390625,2.796875
1695903377076,-0.103515625,-1.0542603,-0.036193848,-0.640625,-0.015625,8.359375
1695903377120,-0.10620117,-0.83062744,-0.073791504,2.171875,-0.546875,12.046875
1695903377151,-0.07495117,-0.79400635,-0.069885254,7.921875,2.421875,12.859375
1695903377196,0.012939453,-0.80059814,-0.089416504,10.5625,2.859375,17.203125
1695903377240,-4.8828125E-4,-0.81207275,-0.09039307,11.453125,1.8125,17.140625
1695903377270,-0.040771484,-0.8430786,-0.085998535,8.875,2.6875,11.234375
1695903377316,-0.0087890625,-0.82647705,-0.13604736,3.46875,2.984375,8.40625
1695903377360,0.111328125,-0.7427368,-0.097717285,2.703125,2.765625,8.640625
1695903377392,-0.0043945312,-0.87872314,-0.04473877,0.328125,-15.859375,0.8125
1695903377435,-0.2397461,-1.3562622,-0.2420044,0.109375,-10.75,-23.6875
1695903377465,-0.053466797,-1.9329224,-0.1729126,0.3125,4.375,-8.875
1695903377510,-0.17333984,-2.0,-0.23760986,-8.8125,1.359375,-14.171875
1695903377556,0.07495117,-2.0,-0.21734619,-10.671875,11.671875,-17.515625
1695903377586,0.013671875,-1.5274048,-0.26885986,-8.609375,2.78125,-15.265625
1695903377631,0.2265625,-0.92974854,-0.050109863,-26.640625,1.984375,-13.796875
1695903377675,0.11230469,-0.16973877,4.272461E-4,-44.359375,-3.453125,8.671875
1695903377705,-0.32592773,0.58148193,-0.16339111,-31.875,0.296875,-2.0625
1695903377751,0.1928711,0.49871826,-0.0012817383,-5.453125,11.515625,-11.546875
1695903377780,0.31152344,-0.050842285,0.1305542,13.578125,-17.515625,-3.453125
1695903377841,-0.11376953,-0.18096924,0.023376465,11.734375,-23.96875,4.0
1695903377871,-0.12890625,-0.13604736,0.01751709,5.3125,-14.046875,1.921875
1695903377900,-0.041015625,-0.37408447,-0.018127441,34.5,-30.859375,-1.953125
1695903377945,-1.5717773,-2.0,-1.944397,18.09375,-42.78125,-34.359375
1695903377990,0.25097656,-1.4329224,0.2489624,-13.90625,31.015625,16.765625
1695903378020,-1.0036621,-1.2661743,-0.15264893,-15.453125,-5.453125,10.625
1695903378066,0.02734375,-0.7625122,-0.10650635,-21.5625,6.546875,-30.484375
1695903378095,0.28466797,-0.10650635,0.04071045,-18.890625,-0.15625,1.515625
1695903378140,0.20996094,0.03314209,-0.12994385,4.09375,-30.4375,3.546875
1695903378186,0.2927246,-0.5852661,0.09881592,41.46875,-54.5,3.4375
1695903378216,-0.9609375,-2.0,-0.3291626,-3.984375,-35.140625,-17.6875
1695903378260,0.1340332,-1.381897,0.0211792,-10.484375,-5.3125,-12.578125
1695903378306,-0.16992188,-0.64923096,-0.09429932,-9.53125,-23.203125,-19.109375
1695903378339,-0.22607422,-0.85479736,-0.13897705,-14.96875,-18.171875,-27.59375
1695903378381,-0.040039062,-0.94781494,-0.023742676,-12.640625,-25.484375,-17.171875
1695903378411,-0.076171875,-1.045227,-0.124816895,-12.0,-35.328125,-8.453125
1695903378455,-0.16479492,-1.0806274,-0.22442627,-8.984375,-35.890625,1.0
1695903378500,-0.18261719,-0.8735962,-0.1506958,-5.421875,-39.078125,-3.28125
1695903378536,-0.25317383,-0.9456177,-0.11236572,-3.734375,-44.765625,-4.78125
1695903378575,-0.26367188,-1.067688,-0.13677979,-4.84375,-46.484375,-7.0
1695903378621,-0.16503906,-0.9963989,-0.1741333,-6.578125,-47.953125,-4.09375
1695903378651,-0.13305664,-0.8989868,-0.17755127,-4.8125,-57.875,1.015625
1695903378695,-0.2097168,-0.9607544,-0.18414307,-5.875,-67.359375,1.734375
1695903378726,-0.1850586,-0.96295166,-0.20367432,-9.8125,-70.984375,-0.03125
1695903378771,-0.1159668,-0.95196533,-0.25006104,-13.15625,-74.515625,-1.1875
1695903378816,-0.0925293,-0.9783325,-0.24639893,-12.4375,-80.46875,-4.328125
1695903378848,-0.125,-1.1228638,-0.07598877,-8.484375,-77.71875,-4.609375
1695903378891,-0.028808594,-1.1011353,0.02923584,-9.03125,-71.515625,-2.828125
1695903378935,-0.13012695,-0.9776001,-0.06402588,-14.9375,-74.828125,-9.390625
1695903378966,-0.11791992,-0.9846802,-0.020324707,-10.390625,-72.640625,-14.5625
1695903379011,-0.068115234,-0.9780884,0.008972168,-9.21875,-70.703125,-15.75
1695903379041,-0.09277344,-0.86846924,0.015075684,-10.296875,-71.3125,-10.4375
1695903379086,-0.15136719,-0.90753174,0.039978027,-10.765625,-71.03125,-13.140625
1695903379131,-0.13867188,-0.97662354,0.066833496,-10.671875,-67.828125,-18.703125
1695903379175,-0.06274414,-0.95806885,0.07611084,-11.5,-66.59375,-15.0625
1695903379206,-0.084472656,-0.96343994,0.028015137,-11.28125,-66.921875,-10.8125
1695903379250,-0.23388672,-1.1257935,-0.109436035,-15.953125,-72.859375,-10.953125
1695903379280,-0.22241211,-1.1594849,-0.015930176,-8.4375,-55.8125,-7.453125
1695903379326,-0.38208008,-0.88360596,-0.06939697,-12.90625,-56.484375,6.0
1695903379371,-0.2902832,-0.90704346,-0.090148926,-8.34375,-58.359375,-15.90625
1695903379401,-0.3154297,-1.2009888,-0.066223145,-3.375,-61.703125,-2.4375
1695903379446,-0.16235352,-1.0151978,-0.12213135,-9.375,-57.609375,-0.3125
1695903379477,-0.1496582,-0.7966919,-0.121154785,-7.265625,-75.171875,5.203125
1695903379521,-0.19360352,-0.9788208,-0.15948486,-7.953125,-82.71875,2.5625
1695903379566,-0.18432617,-1.0689087,-0.18023682,-12.109375,-82.1875,1.5625
1695903379595,-0.1706543,-1.0059204,-0.20147705,-15.265625,-85.21875,7.09375
1695903379641,-0.26757812,-0.97369385,-0.16265869,-14.625,-85.515625,3.171875
1695903379686,-0.15307617,-0.92633057,-0.14385986,-8.828125,-81.78125,2.859375
1695903379718,-0.13183594,-0.9717407,0.061706543,-2.328125,-78.765625,7.265625
1695903379760,-0.075927734,-1.0178833,0.009460449,-4.90625,-72.71875,1.4375
1695903379791,-0.07128906,-1.0210571,-0.030822754,-6.71875,-76.234375,-6.390625
1695903379836,-0.046875,-1.0430298,-0.0020141602,-4.234375,-76.46875,-10.484375
1695903379880,-0.053222656,-0.92974854,0.023132324,-7.28125,-77.890625,-7.078125
1695903379910,-0.12573242,-0.94537354,0.042175293,-9.296875,-79.546875,-12.671875
1695903379958,-0.171875,-1.0125122,0.078308105,-12.734375,-75.078125,-17.453125
1695903380000,-0.1105957,-0.94659424,0.11663818,-14.296875,-68.296875,-16.53125
1695903380030,-0.13867188,-0.95440674,0.022155762,-16.46875,-67.75,-14.09375
1695903380076,-0.12475586,-1.2190552,-0.008605957,-18.96875,-67.8125,-16.34375
1695903380106,-0.1315918,-1.0198364,0.093688965,-10.28125,-58.828125,1.875
1695903380166,-0.42919922,-0.82696533,-0.15020752,-14.0625,-61.90625,-5.078125
1695903380200,-0.19580078,-0.9458618,-0.1765747,-4.46875,-52.3125,-9.921875
1695903380225,-0.30126953,-1.2319946,-0.051818848,3.390625,-59.90625,0.234375
1695903380270,-0.28588867,-1.0628052,-0.061828613,-1.53125,-54.625,-2.78125
1695903380315,-0.28076172,-0.85113525,-0.109436035,-2.78125,-62.171875,2.25
1695903380345,-0.23461914,-0.88360596,-0.15386963,-1.234375,-62.375,-2.78125
1695903380392,-0.18066406,-0.91729736,-0.12017822,-2.546875,-68.015625,-0.359375
1695903380421,-0.17675781,-0.96539307,-0.175354,-5.140625,-73.703125,1.671875
1695903380465,-0.21582031,-0.9439087,-0.16998291,-9.65625,-77.578125,-0.515625
1695903380510,-0.17871094,-0.8765259,-0.19464111,-12.875,-83.390625,-1.21875
1695903380540,-0.020996094,-1.1348267,-0.010803223,-3.28125,-74.71875,-0.640625
1695903380585,-0.06689453,-1.1282349,0.054138184,2.4375,-73.890625,11.078125
1695903380661,-0.1899414,-0.94976807,-0.02545166,-6.59375,-71.6875,-4.296875
1695903380668,-0.12402344,-1.024231,-0.06842041,-4.5,-72.609375,-15.6875
1695903380705,-0.01977539,-1.1309204,0.023132324,-5.578125,-66.671875,-9.484375
1695903380751,-0.056152344,-0.9585571,0.085876465,-11.640625,-75.015625,-3.53125
1695903380781,-0.18334961,-0.9043579,0.07684326,-12.15625,-76.03125,-10.40625
1695903380825,-0.18920898,-0.94732666,0.117370605,-13.078125,-66.921875,-21.640625
1695903380858,-0.032958984,-0.94415283,0.09979248,-12.8125,-61.640625,-18.0
1695903380901,-0.056884766,-0.97076416,0.12689209,-12.15625,-64.3125,-10.71875
1695903380960,-0.20654297,-1.0205688,-0.09210205,-12.796875,-70.0625,-10.25
1695903380975,-0.056640625,-1.1946411,-0.030578613,-10.625,-57.828125,-10.21875
1695903381021,-0.265625,-1.09552,0.023864746,-13.125,-49.578125,4.734375
1695903381067,-0.41235352,-0.8303833,-0.19781494,-20.109375,-43.734375,-19.984375
1695903381096,-0.04711914,-0.81573486,-0.09234619,-9.0,-40.4375,-6.109375
1695903381140,-0.32006836,-1.142395,-0.08477783,-2.421875,-58.5625,1.1875
1695903381171,-0.37573242,-1.1399536,-0.08404541,-6.765625,-46.53125,-9.75
1695903381215,-0.17358398,-0.8345337,-0.09136963,-6.84375,-48.21875,1.8125
1695903381260,-0.21728516,-0.9368286,-0.07501221,-5.453125,-59.34375,0.078125
1695903381292,-0.24243164,-0.9932251,-0.08087158,-7.703125,-62.046875,-0.78125
1695903381336,-0.24047852,-0.9338989,-0.105529785,-11.125,-66.5,-0.453125
1695903381366,-0.25024414,-0.9841919,-0.11236572,-13.375,-67.03125,-3.9375
1695903381410,-0.2932129,-0.9998169,-0.12261963,-16.140625,-66.5625,-5.90625
1695903381456,-0.23999023,-0.89678955,-0.1716919,-16.34375,-67.640625,-4.859375
1695903381488,-0.19189453,-1.0093384,-0.13531494,-9.21875,-67.921875,-4.265625
1695903381530,-0.091796875,-1.1216431,0.12567139,-6.40625,-66.0,8.03125
1695903381576,-0.1418457,-0.95684814,0.018981934,-7.359375,-74.109375,6.953125
1695903381607,-0.092285156,-0.9002075,-0.035461426,-5.796875,-69.75,-2.078125
1695903381650,-0.061767578,-1.1165161,0.061462402,-3.234375,-66.9375,-1.125
1695903381680,-0.0769043,-1.1257935,0.06341553,-7.3125,-66.6875,-2.59375
1695903381725,-0.13354492,-0.92974854,0.04949951,-8.640625,-69.125,-3.109375
1695903381770,-0.18237305,-0.93218994,0.07147217,-10.671875,-68.640625,-12.421875
1695903381800,-0.1027832,-0.98028564,0.10223389,-11.90625,-64.171875,-13.84375
1695903381847,-0.103515625,-0.94976807,0.0914917,-13.046875,-65.875,-11.515625
1695903381890,-0.14501953,-0.90631104,0.03778076,-13.515625,-65.375,-11.265625
1695903381921,-0.3083496,-1.222229,-0.08258057,-20.515625,-70.84375,-14.421875
1695903381966,-0.010986328,-1.0388794,-0.051818848,-11.40625,-54.28125,-2.09375
1695903381995,-0.4091797,-0.95147705,-0.016418457,-14.53125,-60.453125,4.65625
1695903382040,-0.25732422,-0.94073486,-0.053527832,-16.515625,-54.234375,-14.703125
1695903382085,-0.26171875,-1.0779419,-0.06304932,-10.65625,-56.046875,-2.640625
1695903382115,-0.32250977,-1.038147,-0.07305908,-8.140625,-54.984375,-6.875
1695903382161,-0.2319336,-0.91241455,-0.061340332,-7.9375,-58.0,-2.578125
1695903382206,-0.26538086,-0.92071533,-0.074523926,-8.78125,-62.03125,0.90625
1695903382238,-0.23486328,-0.9006958,-0.07476807,-7.59375,-67.140625,1.765625
1695903382281,-0.2421875,-0.9338989,-0.1038208,-7.09375,-73.78125,1.03125
1695903382311,-0.328125,-1.0134888,-0.09844971,-10.046875,-69.78125,-0.09375
1695903382355,-0.31640625,-0.99884033,-0.077697754,-12.203125,-65.390625,0.53125
1695903382400,-0.2775879,-0.9837036,-0.12506104,-13.796875,-64.90625,2.1875
1695903382431,-0.29785156,-0.9446411,-0.13873291,-11.015625,-70.8125,2.984375
1695903382475,-0.21972656,-1.0767212,-0.0947876,-9.6875,-65.515625,1.5
1695903382520,-0.07299805,-1.0459595,0.0692749,-10.1875,-60.90625,10.109375
1695903382550,-0.07348633,-0.894104,-0.04156494,-6.609375,-68.140625,11.0625
1695903382596,-0.07104492,-0.85723877,0.009216309,-1.5,-70.484375,7.609375
1695903382626,-0.09008789,-1.107727,0.030456543,-1.28125,-67.71875,0.625
1695903382670,-0.07128906,-1.1448364,0.05633545,-4.9375,-67.140625,-1.40625
1695903382718,-0.118896484,-0.9290161,0.02923584,-5.578125,-67.046875,-4.734375
1695903382744,-0.13989258,-0.87750244,0.050231934,-6.625,-66.890625,-11.484375
1695903382790,-0.12036133,-0.96466064,0.08050537,-7.359375,-67.15625,-14.34375
1695903382839,-0.14135742,-1.0186157,0.07733154,-9.859375,-66.515625,-14.75
1695903382867,-0.20727539,-1.0042114,0.08319092,-10.5625,-66.453125,-17.65625
1695903382908,-0.32641602,-0.98638916,0.08709717,-11.25,-62.21875,-21.984375
1695903382938,-0.36865234,-0.960022,0.10076904,-12.40625,-50.671875,-24.296875
1695903382983,-0.39819336,-1.08844,0.022399902,-12.28125,-41.578125,-23.484375
1695903383028,-0.060791016,-1.0205688,0.10076904,-9.765625,-31.15625,-13.21875
1695903383059,-0.20507812,-0.8467407,0.042419434,-11.734375,-39.21875,2.34375
1695903383103,-0.31201172,-1.0442505,6.713867E-4,-14.53125,-40.03125,-4.203125
