,timestamp,accel_x,accel_y,accel_z,gyro_x,gyro_y,gyro_z
0,1697605965,-0.06738281,-0.9859009,0.3554077,0.671875,-7.171875,-0.21875
1,1697606005,-0.06762695,-0.96588135,0.33953857,-0.9375,-6.0,-0.96875
2,1697606045,-0.064941406,-0.97003174,0.3373413,-0.09375,-4.15625,-1.09375
3,1697606085,-0.075683594,-0.9619751,0.33270264,-1.171875,-3.625,-0.46875
4,1697606125,-0.07495117,-0.97198486,0.31292725,-1.0,-2.359375,0.078125
5,1697606165,-0.055908203,-0.973938,0.3283081,0.125,0.0625,0.296875
6,1697606205,-0.04248047,-0.97125244,0.32366943,-0.96875,1.03125,0.125
7,1697606245,-0.039794922,-0.9729614,0.3168335,-1.640625,1.59375,0.03125
8,1697606285,-0.030029297,-0.99053955,0.31781006,-1.359375,3.375,-0.703125
9,1697606325,-0.045654297,-0.9795532,0.33172607,-0.859375,3.109375,-1.578125
10,1697606365,-0.031982422,-0.9776001,0.3439331,0.953125,4.140625,-1.75
11,1697606405,-0.033935547,-0.9553833,0.32562256,-2.6875,4.3125,-3.0625
12,1697606445,-0.011474609,-0.9805298,0.3373413,-3.203125,5.859375,-2.8125
13,1697606485,-0.020751953,-0.95806885,0.32000732,-5.59375,5.46875,-4.890625
14,1697606525,-0.041015625,-0.96099854,0.3756714,-2.203125,5.640625,-3.1875
15,1697606565,-0.026367188,-0.97613525,0.3805542,-6.390625,6.5,-2.765625
16,1697606605,0.0007324219,-0.97369385,0.37200928,-6.59375,4.953125,-2.65625
17,1697606645,0.0087890625,-0.92559814,0.3475952,-0.6875,5.40625,-0.3125
18,1697606685,-0.015136719,-0.95391846,0.39398193,1.015625,5.6875,0.546875
19,1697606725,-0.0036621094,-0.9480591,0.32440186,-0.3125,1.6875,0.640625
20,1697606765,-0.01953125,-0.95269775,0.38104248,6.15625,2.609375,1.28125
21,1697606805,-0.036865234,-0.9902954,0.3595581,7.46875,4.453125,1.609375
22,1697606845,-0.005859375,-0.9612427,0.37615967,7.609375,1.765625,1.609375
23,1697606885,-0.042236328,-0.9649048,0.30267334,11.15625,0.46875,3.140625
24,1697606925,-0.02709961,-0.9546509,0.33831787,3.265625,2.421875,2.828125
25,1697606965,-0.02368164,-0.9397583,0.30877686,2.6875,-1.1875,0.5
26,1697607005,-0.0053710938,-0.97613525,0.3270874,1.421875,-5.40625,0.40625
27,1697607045,-0.0012207031,-1.0029907,0.34832764,2.171875,-8.421875,1.921875
28,1697607085,-0.017333984,-0.9771118,0.33416748,5.984375,-5.015625,2.375
29,1697607125,-0.07495117,-0.9470825,0.33026123,10.90625,-4.953125,3.4375
30,1697607165,-0.21948242,-0.93048096,0.33050537,9.609375,-2.21875,-3.546875
31,1697607205,-0.15405273,-0.9795532,0.2975464,-0.078125,1.765625,-6.4375
32,1697607245,-0.111816406,-1.0188599,0.25872803,4.0625,10.078125,-9.375
33,1697607285,-0.19360352,-0.9690552,0.25091553,5.46875,12.5,-10.734375
34,1697607325,-0.23071289,-0.9714966,0.2753296,6.640625,11.15625,-8.984375
35,1697607365,-0.14624023,-0.9924927,0.26287842,-0.09375,13.21875,-5.796875
36,1697607405,-0.16259766,-0.991272,0.2699585,-1.859375,13.375,-2.015625
37,1697607445,-0.13110352,-0.9812622,0.23846436,-1.59375,10.765625,1.40625
38,1697607485,-0.17138672,-0.98565674,0.24945068,0.125,9.453125,2.203125
39,1697607525,-0.099365234,-1.0007935,0.2662964,0.984375,10.34375,4.234375
40,1697607565,-0.09301758,-0.99835205,0.2682495,2.96875,9.53125,2.609375
41,1697607605,-0.05126953,-0.9678345,0.23968506,5.140625,8.140625,4.40625
42,1697607645,-0.020263672,-0.991272,0.26556396,9.71875,7.703125,3.875
43,1697607685,-0.052490234,-0.9768677,0.2506714,21.671875,10.0625,8.84375
44,1697607725,0.027832031,-1.0027466,0.18255615,17.96875,10.1875,10.359375
45,1697607765,0.012451172,-0.97491455,0.22381592,12.125,-0.109375,9.0625
46,1697607805,0.024169922,-0.99542236,0.24261475,6.9375,-7.46875,6.75
47,1697607845,-0.004638672,-0.98272705,0.1876831,4.859375,-12.265625,6.171875
48,1697607885,0.028808594,-0.9920044,0.1696167,3.875,-15.671875,4.578125
49,1697607925,0.032714844,-0.99884033,0.1749878,4.34375,-17.15625,6.75
50,1697607965,0.060791016,-1.0088501,0.1828003,3.640625,-16.875,7.09375
51,1697608005,0.013671875,-1.0071411,0.1876831,4.109375,-19.484375,7.546875
52,1697608045,0.038330078,-0.9854126,0.17718506,1.078125,-19.484375,5.859375
53,1697608085,0.03881836,-1.0022583,0.17181396,-0.109375,-18.65625,5.4375
54,1697608125,0.03955078,-1.000061,0.19891357,-0.28125,-19.203125,4.21875
55,1697608165,0.030273438,-0.98443604,0.17840576,-1.296875,-18.609375,3.484375
56,1697608205,0.03491211,-0.99468994,0.18426514,1.640625,-18.03125,3.328125
57,1697608245,0.020263672,-1.0076294,0.19110107,-0.078125,-15.96875,2.96875
58,1697608285,0.023925781,-1.0081177,0.18743896,-2.640625,-12.359375,2.890625
59,1697608325,0.011230469,-0.99053955,0.20965576,-6.546875,-13.96875,1.375
60,1697608365,0.011474609,-0.94317627,0.22210693,-12.3125,-15.390625,0.75
61,1697608405,0.052001953,-0.9932251,0.2453003,-9.3125,-13.109375,2.484375
62,1697608445,0.0009765625,-1.0083618,0.24871826,-8.5,-12.125,2.0
63,1697608485,0.021972656,-0.98565674,0.26898193,-4.921875,-10.1875,2.015625
64,1697608525,0.057617188,-0.9741821,0.2453003,-2.171875,-7.5,3.984375
65,1697608565,0.068115234,-0.9627075,0.27679443,-2.84375,-6.234375,4.6875
66,1697608605,-0.0021972656,-1.0061646,0.31854248,-4.359375,-4.828125,2.953125
67,1697608645,-0.04248047,-0.9817505,0.28826904,-7.921875,-4.625,-0.375
68,1697608685,0.016845703,-0.9619751,0.28851318,-9.828125,-3.890625,-0.4375
69,1697608725,0.014404297,-0.99176025,0.32659912,-8.515625,-2.5,0.375
70,1697608765,-0.05053711,-0.987854,0.31854248,-7.921875,2.421875,-2.34375
71,1697608805,-0.04663086,-0.95806885,0.3209839,-7.03125,3.921875,-3.734375
72,1697608845,-0.056152344,-0.9729614,0.29193115,-3.359375,7.546875,-1.609375
73,1697608885,-0.048583984,-0.9746704,0.2921753,-1.953125,7.09375,-2.65625
74,1697608925,-0.06616211,-0.97613525,0.2982788,-3.15625,10.359375,-5.140625
75,1697608965,-0.08666992,-0.9746704,0.29779053,3.09375,11.59375,-4.796875
76,1697609005,-0.057128906,-0.9793091,0.31365967,2.109375,12.78125,-5.8125
77,1697609045,-0.061279297,-0.99005127,0.277771,1.875,14.984375,-6.8125
78,1697609085,-0.052001953,-0.98272705,0.25946045,2.296875,14.4375,-7.1875
79,1697609125,-0.059326172,-0.97052,0.27288818,5.109375,15.625,-6.578125
80,1697609165,-0.052001953,-0.98760986,0.26312256,3.640625,14.578125,-6.8125
81,1697609205,-0.016845703,-0.9570923,0.23406982,1.75,12.390625,-6.890625
82,1697609245,-0.03540039,-0.9805298,0.25726318,3.296875,9.3125,-4.875
83,1697609285,-0.03466797,-1.0022583,0.2711792,2.546875,7.421875,-3.78125
84,1697609325,0.0007324219,-1.0112915,0.26556396,0.328125,4.671875,-2.28125
85,1697609365,0.010498047,-0.9981079,0.2868042,-0.03125,3.53125,-0.203125
86,1697609405,-0.009765625,-0.9963989,0.28704834,-0.140625,1.75,0.765625
87,1697609445,-0.0024414062,-0.9824829,0.29608154,-1.28125,-0.484375,0.25
88,1697609485,-0.010009766,-0.96832275,0.32635498,-0.9375,3.390625,1.71875
89,1697609525,-0.03491211,-0.9824829,0.27972412,-0.875,2.28125,1.765625
90,1697609565,0.028076172,-0.9546509,0.2670288,0.453125,-1.25,-0.109375
91,1697609605,-0.010253906,-0.9961548,0.29388428,1.515625,-1.359375,1.625
92,1697609645,-0.020996094,-0.9714966,0.2929077,0.546875,-3.703125,0.765625
93,1697609685,0.0107421875,-0.97198486,0.26483154,-1.1875,-4.109375,0.59375
94,1697609725,-0.004638672,-0.97906494,0.29608154,1.09375,-4.015625,1.328125
95,1697609765,-0.024658203,-0.96343994,0.30023193,-3.265625,-1.53125,0.578125
96,1697609805,0.010498047,-0.9649048,0.33172607,0.046875,-0.90625,1.75
97,1697609845,-0.044677734,-0.9751587,0.29241943,2.21875,-3.234375,-0.59375
98,1697609885,-0.032714844,-0.97540283,0.29901123,4.9375,-5.359375,2.015625
99,1697609925,-0.052490234,-0.98883057,0.30267334,8.0,-4.359375,4.578125
100,1697609965,-0.046875,-0.989563,0.2982788,5.140625,-4.484375,5.203125
101,1697610005,-0.053955078,-0.9849243,0.28729248,4.296875,-3.0,6.125
102,1697610045,-0.04272461,-0.9824829,0.2909546,3.34375,-2.03125,6.078125
103,1697610085,-0.027832031,-0.9829712,0.27435303,1.921875,-3.078125,5.984375
104,1697610125,-0.021728516,-0.99224854,0.30291748,4.796875,-0.984375,6.59375
105,1697610165,-0.028808594,-0.9763794,0.2819214,4.34375,-1.234375,6.203125
106,1697610205,-0.026123047,-0.9807739,0.27337646,3.4375,-0.890625,3.953125
107,1697610245,-0.0029296875,-0.9529419,0.24847412,3.71875,-1.953125,4.171875
108,1697610285,-0.020019531,-1.0073853,0.2838745,3.046875,-0.734375,3.53125
109,1697610325,-0.06518555,-1.0271606,0.26507568,0.484375,1.625,0.359375
110,1697610365,-0.020019531,-0.9758911,0.246521,-1.1875,2.9375,-1.15625
111,1697610405,0.001953125,-0.97442627,0.27044678,1.375,2.09375,-0.09375
112,1697610445,-0.018310547,-0.9927368,0.24749756,-3.9375,3.625,-2.203125
113,1697610485,-0.0053710938,-0.9793091,0.25872803,-1.40625,2.59375,-0.65625
114,1697610525,-0.0053710938,-0.98516846,0.2609253,-1.28125,2.203125,-0.671875
115,1697610565,-0.02368164,-0.98394775,0.27020264,-1.96875,3.25,-1.75
116,1697610605,-0.011474609,-0.9834595,0.26800537,-2.25,2.609375,-2.734375
117,1697610645,-0.0029296875,-0.975647,0.276062,-3.546875,1.40625,-3.03125
118,1697610685,-0.016113281,-0.9871216,0.2826538,-4.046875,0.484375,-2.875
119,1697610725,-0.028320312,-0.9751587,0.28485107,-3.796875,1.28125,-4.484375
120,1697610765,-0.041259766,-0.9746704,0.30975342,-4.703125,1.75,-4.390625
121,1697610805,-0.068115234,-0.9985962,0.3168335,-6.578125,2.1875,-5.5625
122,1697610845,-0.06982422,-0.9661255,0.33416748,-7.640625,3.640625,-5.71875
123,1697610885,-0.06958008,-0.9824829,0.32562256,-9.96875,2.34375,-6.328125
124,1697610925,-0.06762695,-1.0198364,0.32147217,-9.8125,1.65625,-8.1875
125,1697610965,-0.026611328,-0.9866333,0.29193115,-7.8125,3.53125,-6.15625
126,1697611005,-0.049316406,-1.0305786,0.2946167,-5.625,3.21875,-4.265625
127,1697611045,-0.014892578,-0.99420166,0.32781982,-0.84375,4.25,-2.25
128,1697611085,-0.037597656,-0.9553833,0.3036499,2.15625,-0.140625,1.546875
129,1697611125,-0.033447266,-0.9771118,0.28289795,4.75,-2.8125,2.078125
130,1697611165,0.013427734,-0.892395,0.28045654,6.90625,-4.1875,5.75
131,1697611205,-0.027832031,-0.9194946,0.246521,6.3125,-3.828125,6.390625
132,1697611245,-0.022460938,-0.9182739,0.2826538,6.75,-5.0625,5.34375
133,1697611285,0.017089844,-0.989563,0.29779053,9.890625,-6.984375,11.84375
134,1697611325,-0.0024414062,-1.0007935,0.2921753,8.515625,-10.40625,8.5625
135,1697611365,0.0034179688,-0.9702759,0.293396,11.765625,-9.984375,12.15625
136,1697611405,-0.05517578,-0.95098877,0.28631592,10.78125,-14.859375,13.109375
137,1697611445,-0.123535156,-1.0317993,0.1720581,8.3125,-16.859375,8.1875
138,1697611485,0.022216797,-1.1113892,0.23162842,14.765625,-0.4375,5.921875
139,1697611525,-0.032714844,-1.0466919,0.18011475,27.828125,18.9375,18.71875
140,1697611565,0.03515625,-0.8921509,0.199646,22.890625,7.6875,14.328125
141,1697611605,0.020996094,-0.9578247,0.13348389,16.84375,-3.390625,11.015625
142,1697611645,-0.026611328,-1.0254517,0.16278076,8.671875,-3.625,0.890625
143,1697611685,0.009277344,-1.0493774,0.13348389,0.8125,-1.0,-1.171875
144,1697611725,0.07080078,-1.0015259,0.13641357,-1.109375,1.734375,-0.3125
145,1697611765,-0.009521484,-0.9924927,0.11590576,-3.234375,3.703125,-2.734375
146,1697611805,0.012939453,-0.954895,0.1798706,-3.453125,3.796875,-5.859375
147,1697611845,-0.07324219,-1.0308228,0.11883545,-9.703125,0.15625,-1.484375
148,1697611885,0.03930664,-0.8977661,0.18719482,-3.90625,5.234375,-3.390625
149,1697611925,-0.088134766,-1.097229,0.25238037,-1.6875,2.109375,1.828125
150,1697611965,-0.00048828125,-1.0310669,0.22381592,-5.359375,9.890625,-1.234375
151,1697612005,-0.0017089844,-0.98443604,0.18157959,-1.390625,9.53125,-0.109375
152,1697612045,-0.01928711,-0.956604,0.22601318,0.671875,6.359375,-0.53125
153,1697612085,0.01977539,-1.0161743,0.20452881,-1.546875,4.546875,0.921875
154,1697612125,0.045166016,-0.9920044,0.21990967,-0.375,4.84375,-1.078125
155,1697612165,0.01977539,-1.0386353,0.23480225,-1.0625,3.953125,0.234375
156,1697612205,0.045410156,-1.0117798,0.20379639,-3.515625,3.71875,-0.234375
157,1697612245,0.07861328,-0.9981079,0.21624756,-4.03125,2.484375,-0.546875
158,1697612285,0.03100586,-1.0215454,0.22479248,-7.03125,0.59375,0.046875
159,1697612325,0.035888672,-0.98028564,0.26361084,-8.375,0.453125,-1.390625
160,1697612365,0.04272461,-0.9807739,0.23699951,-10.3125,-0.03125,-0.71875
161,1697612405,0.018310547,-0.9795532,0.29315186,-5.421875,-2.0625,-1.453125
162,1697612445,0.025146484,-0.9768677,0.26116943,-3.953125,-2.921875,1.25
163,1697612485,0.013183594,-1.0037231,0.2687378,-2.875,-2.5625,-1.171875
164,1697612525,0.008056641,-0.9837036,0.22454834,-3.578125,-1.78125,-0.609375
165,1697612565,0.0087890625,-0.9746704,0.21722412,-4.765625,-1.953125,-2.75
166,1697612605,0.04638672,-0.9866333,0.2033081,-5.5625,-1.25,-3.03125
167,1697612645,0.021972656,-0.9492798,0.21942139,-5.671875,-0.96875,-4.640625
168,1697612685,0.025390625,-0.97198486,0.21478271,-5.53125,-0.53125,-3.03125
169,1697612725,0.027832031,-0.97369385,0.23651123,-2.5625,-1.78125,-3.234375
170,1697612765,0.001953125,-0.9824829,0.27508545,-0.78125,-2.984375,-0.71875
171,1697612805,-0.030761719,-0.9920044,0.2682495,0.0625,-0.921875,1.390625
172,1697612845,-0.03881836,-1.0015259,0.27801514,2.6875,-1.640625,2.015625
173,1697612885,-0.03930664,-0.986145,0.28485107,4.578125,0.21875,1.90625
174,1697612925,-0.011962891,-0.98565674,0.23187256,4.21875,0.328125,2.578125
175,1697612965,0.015625,-0.97540283,0.21697998,4.125,-0.515625,1.828125
176,1697613005,0.014892578,-0.95562744,0.2189331,4.25,-1.8125,2.96875
177,1697613045,0.018798828,-0.991272,0.23968506,3.609375,-2.59375,3.5
178,1697613085,0.012939453,-0.99346924,0.24383545,2.71875,-5.421875,4.34375
179,1697613125,-0.030273438,-0.9976196,0.22698975,3.328125,-5.109375,5.890625
180,1697613165,-0.053710938,-1.0010376,0.28729248,6.078125,-5.453125,5.28125
181,1697613205,-0.08691406,-1.060852,0.2526245,5.34375,-1.25,4.3125
182,1697613245,-0.025878906,-0.9590454,0.2374878,3.828125,0.46875,-0.046875
183,1697613285,-0.044921875,-0.9727173,0.24798584,2.375,4.109375,-1.890625
184,1697613325,0.018798828,-1.0293579,0.22894287,-2.234375,3.0625,-4.140625
185,1697613365,0.0017089844,-0.95440674,0.21209717,-1.84375,1.40625,-5.65625
186,1697613405,-0.078125,-0.9807739,0.20574951,-0.1875,-2.328125,-3.078125
187,1697613445,-0.092285156,-1.0095825,0.18133545,-0.59375,-1.6875,-4.671875
188,1697613485,-0.012451172,-0.98101807,0.2243042,-0.109375,-5.234375,-3.359375
189,1697613525,0.007080078,-0.9968872,0.21453857,-0.109375,-4.140625,-4.640625
190,1697613565,-0.09741211,-0.9973755,0.25335693,1.28125,-5.421875,-0.90625
191,1697613605,-0.06347656,-0.97247314,0.23651123,0.59375,-5.96875,0.1875
192,1697613645,-0.06274414,-0.9963989,0.24847412,-0.96875,-5.25,0.796875
193,1697613685,-0.04711914,-1.0269165,0.2489624,-2.515625,-4.359375,1.140625
194,1697613725,-0.11816406,-0.9751587,0.28363037,-0.09375,-1.59375,0.046875
195,1697613765,-0.034423828,-0.9734497,0.2501831,-3.421875,-2.015625,0.59375
196,1697613805,0.01953125,-0.99102783,0.2518921,-2.390625,-3.5,-1.953125
197,1697613845,-0.044433594,-1.0005493,0.2609253,-2.421875,-3.671875,1.0
198,1697613885,-0.048583984,-0.95928955,0.24261475,-1.609375,-4.59375,-0.640625
199,1697613925,-0.05419922,-1.015686,0.22650146,4.515625,-1.875,2.1875
200,1697613965,-0.020751953,-0.9976196,0.20819092,-0.984375,-1.125,2.609375
201,1697614005,-0.0034179688,-0.9439087,0.23162842,0.8125,-2.171875,2.578125
202,1697614045,-0.033935547,-0.9932251,0.2658081,0.75,-4.046875,3.703125
203,1697614085,-0.021972656,-1.0269165,0.23040771,-1.921875,-1.28125,3.828125
204,1697614125,-0.055419922,-0.9824829,0.22088623,0.515625,0.96875,3.796875
205,1697614165,-0.013183594,-0.9627075,0.21282959,-0.8125,0.15625,2.09375
206,1697614205,-0.021240234,-0.99884033,0.2694702,4.25,1.140625,2.078125
207,1697614245,-0.0769043,-0.99298096,0.2789917,2.46875,0.40625,2.234375
208,1697614285,-0.010986328,-0.97369385,0.22161865,-1.453125,3.1875,0.671875
209,1697614325,0.014160156,-0.9507446,0.24871826,0.09375,2.9375,-0.546875
210,1697614365,-0.01928711,-1.0061646,0.28338623,1.78125,1.25,-0.09375
211,1697614405,-0.067871094,-1.0134888,0.22845459,-3.234375,1.921875,-0.15625
212,1697614445,0.0068359375,-0.97052,0.26141357,1.3125,0.96875,-0.078125
213,1697614485,-0.13623047,-1.0147095,0.24505615,-0.1875,1.46875,2.484375
214,1697614525,-0.012939453,-0.9771118,0.27508545,-2.875,1.15625,-1.734375
215,1697614565,-0.05859375,-1.0032349,0.24749756,-2.84375,5.40625,0.296875
216,1697614605,0.008056641,-0.9758911,0.2687378,-1.578125,1.0,0.359375
217,1697614645,-0.09399414,-1.0122681,0.23773193,-0.0625,1.703125,0.46875
218,1697614685,-0.05908203,-0.9636841,0.24822998,2.34375,3.671875,0.734375
219,1697614725,-0.010253906,-0.95758057,0.24310303,-1.578125,-0.71875,0.578125
220,1697614765,-0.012451172,-1.0210571,0.22454834,0.296875,-0.640625,1.53125
221,1697614805,0.019042969,-0.9590454,0.23529053,3.328125,-4.53125,2.65625
222,1697614845,-0.05810547,-0.9927368,0.2741089,-0.84375,-3.875,2.828125
223,1697614885,-0.10595703,-1.0276489,0.24163818,-4.046875,0.59375,2.015625
224,1697614925,0.009521484,-0.9758911,0.2682495,-1.25,0.359375,-2.421875
225,1697614965,-0.05102539,-0.9776001,0.3048706,-1.03125,-2.296875,-1.109375
226,1697615005,-0.04345703,-1.005188,0.28875732,-7.953125,-0.703125,-1.859375
227,1697615045,-0.017089844,-0.97784424,0.29022217,-8.375,-1.609375,-2.515625
228,1697615085,-0.07470703,-1.0059204,0.29925537,-10.625,-3.59375,-4.640625
229,1697615125,-0.09057617,-0.9714966,0.26800537,-6.046875,-2.4375,-0.421875
230,1697615165,-0.04711914,-0.91412354,0.27581787,-5.296875,-2.34375,-1.0
231,1697615205,-0.0234375,-1.0029907,0.31903076,-4.15625,-3.46875,-1.59375
232,1697615245,-0.044677734,-0.9702759,0.3078003,-3.75,-3.515625,-2.171875
233,1697615285,-0.044433594,-0.91656494,0.34710693,-2.984375,-2.1875,-1.296875
234,1697615325,-0.1665039,-0.98150635,0.40081787,-5.625,-3.046875,-0.53125
235,1697615365,-0.19482422,-0.975647,0.35614014,0.359375,5.21875,-0.3125
236,1697615405,-0.17822266,-0.9429321,0.355896,7.859375,12.46875,0.1875
237,1697615445,-0.068115234,-0.9607544,0.33831787,7.140625,18.203125,0.203125
238,1697615485,0.036132812,-0.96221924,0.35003662,1.625,9.890625,0.921875
239,1697615525,-0.021972656,-1.0222778,0.3204956,-0.359375,4.90625,0.765625
240,1697615565,-0.011962891,-0.95758057,0.29656982,-0.796875,2.109375,-0.359375
241,1697615605,-0.048583984,-0.99664307,0.2958374,-4.671875,-2.421875,2.671875
242,1697615645,-0.06665039,-0.9495239,0.2741089,0.875,0.703125,1.265625
243,1697615685,-0.06689453,-0.92681885,0.3378296,1.796875,0.171875,1.984375
244,1697615725,-0.038330078,-0.9985962,0.35760498,-1.671875,-2.109375,1.8125
245,1697615765,-0.016601562,-0.98809814,0.3444214,-2.046875,-4.953125,-0.359375
246,1697615805,-0.07885742,-0.9710083,0.32366943,1.078125,-6.734375,3.0
247,1697615845,-0.09033203,-0.9768677,0.34173584,0.609375,-4.140625,3.484375
248,1697615885,-0.12939453,-0.9458618,0.30633545,5.359375,-4.515625,6.9375
249,1697615925,-0.06665039,-0.99224854,0.33294678,1.515625,-2.8125,0.96875
250,1697615965,-0.114746094,-1.000061,0.29779053,5.03125,4.09375,-0.9375
251,1697616005,-0.114746094,-0.97076416,0.30511475,10.0625,9.421875,0.828125
252,1697616045,-0.06201172,-1.019104,0.291687,9.484375,7.8125,6.671875
253,1697616085,0.038085938,-0.9800415,0.30828857,6.140625,3.125,2.9375
254,1697616125,0.09277344,-0.97320557,0.2958374,-4.015625,-5.34375,-0.171875
255,1697616165,-0.11376953,-0.9663696,0.27435303,-10.171875,-5.9375,-0.390625
256,1697616205,-0.015136719,-0.92071533,0.23358154,-5.546875,-8.109375,-1.390625
257,1697616245,0.024414062,-0.9692993,0.28900146,0.546875,-6.703125,-1.46875
258,1697616285,-0.072265625,-0.9614868,0.25823975,-11.84375,-2.90625,0.65625
259,1697616325,-0.038330078,-1.0200806,0.34954834,-8.796875,-5.578125,-0.515625
260,1697616365,-0.07885742,-0.97784424,0.34539795,-7.9375,-0.546875,-3.890625
261,1697616405,-0.080566406,-0.96051025,0.3600464,-9.359375,0.03125,-1.046875
262,1697616445,0.06738281,-0.91851807,0.36102295,-8.46875,-2.5,-1.515625
263,1697616485,-0.080078125,-0.98687744,0.3751831,-0.203125,-2.640625,0.640625
264,1697616525,-0.033935547,-0.987854,0.38739014,-3.171875,4.5,1.015625
265,1697616565,0.016601562,-0.95806885,0.3756714,-2.296875,1.46875,-1.5625
266,1697616605,0.010986328,-0.9685669,0.33465576,0.265625,-1.578125,2.921875
267,1697616645,-0.050048828,-0.96417236,0.33294678,3.25,-2.28125,4.203125
268,1697616685,-0.040771484,-0.9570923,0.3529663,2.640625,-3.453125,1.59375
269,1697616725,-0.036376953,-0.97906494,0.36956787,4.328125,-4.265625,3.765625
270,1697616765,-0.034179688,-0.9697876,0.4003296,3.171875,-4.6875,4.71875
271,1697616805,-0.03125,-0.9307251,0.36297607,7.5625,-6.265625,6.03125
272,1697616845,-0.029541016,-0.95318604,0.42694092,6.578125,-11.328125,7.4375
273,1697616885,-0.07861328,-1.0227661,0.371521,3.65625,-10.265625,6.421875
274,1697616925,-0.06958008,-0.9717407,0.35638428,4.375,-6.234375,5.078125
275,1697616965,-0.053466797,-0.9536743,0.3209839,5.890625,-2.796875,3.59375
276,1697617005,-0.0029296875,-0.93463135,0.31878662,6.84375,-2.765625,3.9375
277,1697617045,-0.033447266,-0.9758911,0.31878662,5.078125,-1.234375,5.5
278,1697617085,-0.03540039,-0.9727173,0.3053589,4.078125,0.671875,3.40625
279,1697617125,-0.06542969,-0.9859009,0.34368896,5.328125,1.109375,5.078125
280,1697617165,-0.041259766,-0.9924927,0.276062,4.921875,2.46875,5.609375
281,1697617205,0.0075683594,-0.98809814,0.29241943,1.609375,1.265625,2.953125
282,1697617245,0.020019531,-0.9795532,0.25872803,1.0,1.296875,3.734375
283,1697617285,0.022460938,-0.9924927,0.27264404,0.3125,-0.9375,2.015625
284,1697617325,0.020019531,-0.9793091,0.277771,-1.203125,-0.3125,2.09375
285,1697617365,0.010009766,-0.9788208,0.29241943,-0.140625,0.171875,3.53125
286,1697617405,0.0087890625,-0.9834595,0.29681396,-1.140625,0.8125,3.703125
287,1697617445,0.022949219,-0.97735596,0.30828857,-1.84375,0.625,3.46875
288,1697617485,0.0146484375,-0.986145,0.3012085,-2.671875,1.171875,5.140625
289,1697617525,0.03955078,-0.97613525,0.291687,-3.375,3.84375,5.03125
290,1697617565,-0.024169922,-0.98931885,0.29608154,-4.828125,2.1875,6.4375
291,1697617605,0.048339844,-0.9338989,0.3126831,-2.234375,-1.140625,5.265625
292,1697617645,0.057128906,-0.9788208,0.31365967,-4.140625,-1.125,5.71875
293,1697617685,0.07373047,-0.99298096,0.32000732,-2.921875,3.015625,7.9375
294,1697617725,0.05517578,-0.95147705,0.3012085,1.046875,3.453125,7.5
295,1697617765,0.05834961,-0.975647,0.33685303,-2.25,4.3125,6.453125
296,1697617805,0.07836914,-0.9783325,0.31707764,0.859375,7.234375,6.625
297,1697617845,0.05517578,-0.9771118,0.3300171,1.328125,7.578125,6.375
298,1697617885,0.06665039,-0.9788208,0.32562256,-0.65625,9.078125,4.375
299,1697617925,0.029541016,-0.9690552,0.29925537,-1.09375,7.484375,0.375
300,1697617965,0.067871094,-0.9846802,0.3053589,-0.578125,4.5,-4.203125
301,1697618005,0.025878906,-0.9614868,0.2789917,-0.25,4.109375,-6.46875
302,1697618045,0.045898438,-0.97369385,0.3048706,3.71875,7.734375,-9.125
303,1697618085,-0.03515625,-1.0164185,0.25994873,8.609375,8.3125,-8.765625
304,1697618125,-0.00390625,-0.9507446,0.23260498,10.828125,12.390625,-4.3125
305,1697618165,0.019042969,-0.9837036,0.24090576,4.046875,9.140625,-6.09375
306,1697618205,0.01953125,-1.0125122,0.23529053,3.375,10.71875,-7.703125
307,1697618245,0.051757812,-0.9651489,0.27972412,1.8125,8.359375,-8.21875
308,1697618285,0.018554688,-1.020813,0.27313232,0.5625,4.59375,-8.8125
309,1697618325,-0.020019531,-0.95684814,0.25653076,2.171875,5.65625,-9.265625
310,1697618365,0.0034179688,-0.9871216,0.26239014,2.109375,2.15625,-8.4375
311,1697618405,0.025878906,-1.0056763,0.24505615,0.65625,1.234375,-9.5
312,1697618445,0.010498047,-0.956604,0.22454834,1.046875,-0.3125,-8.78125
313,1697618485,-0.0009765625,-0.99005127,0.22406006,0.5625,-3.484375,-8.703125
314,1697618525,0.018310547,-0.99664307,0.26727295,1.6875,-7.0625,-5.984375
315,1697618565,-0.037841797,-0.9680786,0.28118896,1.875,-6.4375,-5.21875
316,1697618605,-0.05908203,-0.9783325,0.26141357,-3.21875,-9.125,-5.796875
317,1697618645,-0.014160156,-0.9859009,0.26971436,-0.390625,-9.03125,-8.671875
318,1697618685,-0.020751953,-0.94537354,0.25213623,4.5,-8.125,-4.140625
319,1697618725,-0.072265625,-0.98931885,0.22454834,3.203125,-10.296875,-4.4375
320,1697618765,-0.044433594,-0.9849243,0.25115967,1.140625,-16.09375,-4.0
321,1697618805,-0.0793457,-1.0186157,0.23895264,2.03125,-17.8125,-0.46875
322,1697618845,-0.087890625,-1.0230103,0.26605225,0.015625,-20.28125,0.921875
323,1697618885,-0.06762695,-1.0193481,0.27850342,-0.46875,-18.109375,1.734375
324,1697618925,-0.05859375,-0.9924927,0.29925537,0.421875,-18.03125,2.765625
325,1697618965,-0.09863281,-0.9937134,0.34173584,-0.09375,-13.15625,3.953125
326,1697619005,-0.055664062,-0.98638916,0.27288818,-3.8125,-11.015625,5.59375
327,1697619045,-0.031982422,-0.9807739,0.24334717,-3.421875,-11.546875,4.375
328,1697619085,-0.03466797,-0.9854126,0.2579956,-3.046875,-13.09375,4.6875
329,1697619125,-0.04638672,-0.97076416,0.29559326,-0.671875,-12.421875,7.296875
330,1697619165,-0.091552734,-0.991272,0.24603271,-2.421875,-9.328125,9.5625
331,1697619205,-0.1340332,-1.0022583,0.2814331,1.34375,-8.96875,7.390625
332,1697619245,-0.10449219,-0.94976807,0.28900146,-4.078125,-9.359375,2.1875
333,1697619285,-0.051513672,-0.94122314,0.24945068,-4.21875,-9.46875,3.4375
334,1697619325,-0.08569336,-0.99298096,0.24847412,-2.859375,-9.9375,0.90625
335,1697619365,-0.11401367,-0.9768677,0.2723999,-2.484375,-10.578125,-1.609375
336,1697619405,-0.12060547,-0.98760986,0.28704834,-3.046875,-6.0,-1.265625
337,1697619445,-0.11767578,-0.9939575,0.27850342,-2.703125,-2.296875,-1.796875
338,1697619485,-0.099121094,-0.9783325,0.32659912,-3.21875,-1.15625,-1.734375
339,1697619525,-0.14477539,-0.9590454,0.29119873,-3.078125,2.609375,1.0625
340,1697619565,-0.15039062,-0.9678345,0.27630615,-1.8125,7.765625,-1.578125
341,1697619605,-0.1105957,-0.9402466,0.276062,1.1875,10.546875,1.265625
342,1697619645,-0.14111328,-0.9758911,0.3036499,-2.5,12.34375,2.328125
343,1697619685,-0.08984375,-1.0010376,0.2975464,-2.765625,13.078125,1.5
344,1697619725,-0.08862305,-0.9678345,0.2904663,0.84375,15.828125,4.984375
345,1697619765,-0.107421875,-0.9841919,0.2921753,0.8125,15.4375,4.296875
346,1697619805,-0.05493164,-0.9937134,0.28094482,0.296875,15.15625,4.421875
347,1697619845,-0.03857422,-0.94903564,0.2453003,1.3125,16.453125,6.875
348,1697619885,-0.055908203,-1.006897,0.26971436,4.890625,12.328125,7.0
349,1697619925,-0.04296875,-0.9873657,0.23846436,3.40625,13.765625,6.671875
350,1697619965,-0.13989258,-0.99468994,0.26605225,6.34375,15.78125,5.234375
351,1697620005,-0.083740234,-0.9951782,0.23944092,0.46875,15.609375,2.90625
352,1697620045,-0.11230469,-0.94122314,0.23773193,1.671875,22.765625,1.1875
353,1697620085,-0.125,-0.9241333,0.30462646,-3.5625,18.296875,-2.328125
354,1697620125,-0.026367188,-1.0623169,0.35272217,-20.046875,1.9375,-15.421875
355,1697620165,-0.099121094,-0.92755127,0.16912842,4.296875,2.359375,-7.28125
356,1697620205,-0.016845703,-0.94732666,0.28045654,6.390625,1.65625,-2.921875
357,1697620245,-0.08325195,-0.99591064,0.28045654,3.296875,6.4375,-2.546875
358,1697620285,-0.068603516,-0.98687744,0.27435303,-0.75,5.21875,-5.59375
359,1697620325,-0.036132812,-0.9780884,0.28485107,-1.125,1.8125,-5.9375
360,1697620365,-0.032470703,-0.9788208,0.2987671,-1.453125,-1.5,-4.546875
361,1697620405,-0.061035156,-0.989563,0.3053589,0.203125,-2.71875,-3.203125
362,1697620445,-0.0637207,-0.99420166,0.30975342,-0.640625,-4.890625,-1.234375
363,1697620485,-0.021972656,-0.96832275,0.29534912,-0.1875,-7.03125,-0.421875
364,1697620525,-0.049072266,-0.97784424,0.30975342,-0.140625,-7.546875,0.421875
365,1697620565,-0.06542969,-0.9824829,0.291687,-3.0625,-9.03125,-0.1875
366,1697620605,-0.051757812,-0.9656372,0.31072998,-2.5,-10.484375,0.0625
367,1697620645,-0.06274414,-0.9624634,0.30999756,-4.71875,-11.234375,-1.078125
368,1697620685,-0.08325195,-0.97442627,0.31121826,-4.09375,-10.484375,-1.625
369,1697620725,-0.09814453,-0.9631958,0.3168335,-6.71875,-8.625,-2.890625
370,1697620765,-0.122558594,-0.9451294,0.3192749,-3.078125,-9.375,-2.359375
371,1697620805,-0.10595703,-0.96881104,0.32122803,-2.59375,-10.03125,-2.515625
372,1697620845,-0.08959961,-0.96954346,0.32611084,0.1875,-9.625,-1.96875
373,1697620885,-0.10424805,-0.9829712,0.34661865,1.1875,-9.75,-0.5
374,1697620925,-0.122802734,-0.975647,0.3456421,1.171875,-9.109375,0.65625
375,1697620965,-0.09399414,-0.98223877,0.33831787,-0.9375,-8.953125,1.8125
376,1697621005,-0.091552734,-0.97979736,0.3685913,0.078125,-8.3125,2.640625
377,1697621045,-0.091552734,-0.96466064,0.3475952,-0.34375,-8.140625,3.453125
378,1697621085,-0.0871582,-0.9717407,0.35614014,-0.703125,-8.5,3.71875
379,1697621125,-0.091796875,-0.9668579,0.35443115,-0.140625,-6.890625,4.921875
380,1697621165,-0.08886719,-0.9578247,0.34954834,0.09375,-7.109375,5.5
381,1697621205,-0.0690918,-0.9612427,0.36175537,-0.484375,-11.0625,7.90625
382,1697621245,-0.095947266,-0.9800415,0.36273193,4.71875,-8.171875,7.328125
383,1697621285,-0.1003418,-0.96295166,0.36175537,3.15625,-5.4375,7.265625
384,1697621325,-0.087646484,-0.9651489,0.34832764,0.84375,-4.265625,6.859375
385,1697621365,-0.095703125,-0.96539307,0.34368896,0.171875,-4.3125,5.828125
386,1697621405,-0.087646484,-0.95684814,0.34490967,0.375,-3.109375,5.984375
387,1697621445,-0.0871582,-0.9746704,0.31756592,-1.09375,-0.84375,6.578125
388,1697621485,-0.068847656,-0.9614868,0.33636475,3.21875,-0.859375,5.546875
389,1697621525,-0.07470703,-0.9702759,0.29779053,0.953125,0.921875,5.5625
390,1697621565,-0.10498047,-0.9734497,0.34783936,1.234375,3.53125,4.0625
391,1697621605,-0.076171875,-0.9644165,0.35516357,2.734375,6.921875,3.046875
392,1697621645,-0.011962891,-0.9517212,0.324646,0.015625,4.890625,1.875
393,1697621685,-0.06274414,-0.9873657,0.33880615,-0.59375,5.53125,2.546875
394,1697621725,-0.076416016,-0.9529419,0.33685303,-2.375,3.90625,1.296875
395,1697621765,-0.084228516,-0.97662354,0.3156128,-1.765625,5.625,1.9375
396,1697621805,-0.068115234,-0.97613525,0.32440186,-1.046875,6.484375,0.96875
397,1697621845,-0.05029297,-0.9602661,0.31292725,0.46875,8.203125,1.71875
398,1697621885,-0.053222656,-0.9690552,0.3234253,1.15625,8.34375,1.265625
399,1697621925,-0.07324219,-0.9795532,0.31829834,-0.546875,8.125,-0.34375
400,1697621965,-0.053222656,-0.9780884,0.2987671,-0.84375,9.21875,0.6875
401,1697622005,-0.078125,-0.9768677,0.30755615,0.921875,10.0625,0.453125
402,1697622045,-0.0793457,-0.9746704,0.29193115,0.4375,9.5625,-0.21875
403,1697622085,-0.047607422,-0.9776001,0.2921753,0.640625,8.765625,0.71875
404,1697622125,-0.05834961,-0.9866333,0.309021,2.203125,9.0,1.421875
405,1697622165,-0.079589844,-0.9812622,0.29144287,1.859375,7.828125,-0.34375
406,1697622205,-0.048583984,-0.9751587,0.29510498,1.484375,6.015625,-0.359375
407,1697622245,-0.07348633,-0.97247314,0.2987671,3.8125,5.6875,-1.046875
408,1697622285,-0.03515625,-0.98028564,0.2699585,-1.203125,4.203125,-0.59375
409,1697622325,-0.064941406,-0.98760986,0.2982788,4.0,3.171875,-0.5625
410,1697622365,-0.040771484,-0.9898071,0.26678467,-0.375,3.53125,-1.546875
411,1697622405,-0.055419922,-0.98687744,0.29388428,3.390625,2.3125,-1.578125
412,1697622445,-0.06738281,-0.9939575,0.29119873,1.71875,1.53125,-1.390625
413,1697622485,-0.04736328,-0.9734497,0.276062,0.125,1.140625,-1.578125
414,1697622525,-0.047851562,-0.9849243,0.2843628,0.765625,1.03125,-0.5625
415,1697622565,-0.068359375,-0.9763794,0.28216553,3.546875,0.78125,-0.734375
416,1697622605,-0.06225586,-0.9859009,0.2753296,-0.765625,-0.28125,-0.125
417,1697622645,-0.049316406,-0.9883423,0.2687378,0.09375,-1.25,-0.765625
418,1697622685,-0.05078125,-0.9717407,0.29803467,3.796875,-0.0625,0.140625
419,1697622725,-0.07080078,-1.0012817,0.3637085,7.578125,4.6875,0.46875
420,1697622765,-0.09765625,-1.041565,0.28167725,13.8125,2.078125,1.734375
421,1697622805,0.025390625,-0.9331665,0.109802246,22.6875,4.984375,10.671875
422,1697622845,0.041259766,-0.927063,0.17254639,14.46875,-2.703125,7.296875
423,1697622885,0.040039062,-1.0308228,0.15081787,10.921875,-2.59375,4.8125
424,1697622925,0.045410156,-0.94781494,0.20452881,6.578125,-6.234375,3.859375
425,1697622965,-0.0021972656,-1.0237427,0.20843506,2.375,-6.96875,1.9375
426,1697623005,-0.0043945312,-1.0125122,0.21478271,2.859375,-5.0,1.453125
427,1697623045,0.0041503906,-1.0027466,0.20794678,1.984375,-5.828125,2.09375
428,1697623085,0.02319336,-0.9817505,0.2111206,0.265625,-6.640625,0.84375
429,1697623125,0.022460938,-0.9866333,0.19451904,1.015625,-7.65625,1.96875
430,1697623165,0.005859375,-0.9973755,0.18060303,0.390625,-7.46875,0.421875
431,1697623205,-0.018066406,-0.99176025,0.21746826,1.921875,-7.125,-0.390625
432,1697623245,-0.0073242188,-1.0010376,0.19866943,0.71875,-6.5,-0.4375
433,1697623285,-0.04638672,-1.0022583,0.19207764,0.046875,-4.59375,-1.84375
434,1697623325,-0.013916016,-0.9998169,0.19573975,-1.09375,-2.546875,-1.8125
435,1697623365,-0.014404297,-1.0032349,0.20941162,-0.375,-2.28125,-1.875
436,1697623405,-0.006591797,-1.0134888,0.21331787,-1.359375,-1.296875,-0.84375
437,1697623445,0.032958984,-0.9944458,0.22161865,-0.0625,0.3125,0.515625
438,1697623485,-0.015625,-1.0088501,0.23040771,-1.0,0.859375,0.96875
439,1697623525,0.0012207031,-0.98101807,0.2086792,-2.234375,2.390625,1.59375
440,1697623565,-0.016357422,-0.98394775,0.21429443,-1.640625,2.140625,0.28125
441,1697623605,-0.014160156,-0.9907837,0.19134521,-0.484375,3.671875,0.125
442,1697623645,-0.030761719,-0.9932251,0.21795654,-0.625,3.78125,-0.046875
443,1697623685,-0.04296875,-0.99835205,0.20770264,-0.859375,4.984375,-0.828125
444,1697623725,-0.016845703,-0.9949341,0.2098999,0.09375,5.609375,-0.390625
445,1697623765,-0.0061035156,-0.9932251,0.20941162,-0.828125,5.6875,0.109375
446,1697623805,-0.0390625,-0.9924927,0.22528076,-0.78125,6.796875,0.8125
447,1697623845,-0.022460938,-0.98809814,0.23822021,0.4375,8.578125,0.375
448,1697623885,-0.033447266,-0.98809814,0.20379639,-1.5625,10.15625,0.625
449,1697623925,-0.04272461,-0.9898071,0.20916748,-1.34375,10.53125,-1.03125
450,1697623965,-0.057617188,-1.0112915,0.22235107,-1.890625,11.59375,-1.8125
451,1697624005,-0.07080078,-0.99884033,0.19085693,-3.765625,11.890625,-5.15625
452,1697624045,-0.017578125,-0.99957275,0.18450928,1.671875,10.40625,-7.359375
453,1697624085,-0.013671875,-1.0112915,0.2501831,1.78125,10.4375,-7.890625
454,1697624125,-0.16748047,-0.9998169,0.22747803,0.421875,10.09375,-5.96875
455,1697624165,-0.10131836,-0.96466064,0.17767334,-2.6875,9.90625,-5.53125
456,1697624205,-0.07006836,-0.972229,0.22113037,-2.390625,9.390625,-1.390625
457,1697624245,-0.1171875,-1.0117798,0.2296753,-4.21875,11.15625,-1.203125
458,1697624285,-0.08300781,-0.9819946,0.19622803,-4.328125,12.890625,-1.953125
459,1697624325,-0.07495117,-0.98394775,0.21990967,-6.328125,13.28125,-1.296875
460,1697624365,-0.08911133,-0.9859009,0.2255249,-9.421875,11.953125,-1.46875
461,1697624405,-0.08129883,-0.9890747,0.25628662,-10.328125,10.203125,-1.453125
462,1697624445,-0.075683594,-0.9949341,0.2584839,-10.234375,8.53125,-1.671875
463,1697624485,-0.072021484,-0.98883057,0.2838745,-8.78125,7.953125,-2.171875
464,1697624525,-0.07104492,-0.97857666,0.30316162,-8.65625,7.625,-1.140625
465,1697624565,-0.06518555,-0.98883057,0.2838745,-10.765625,3.109375,-0.84375
466,1697624605,-0.059570312,-0.9434204,0.31097412,-5.609375,0.421875,-1.09375
467,1697624645,-0.08081055,-0.9649048,0.32318115,-3.546875,-4.265625,0.390625
468,1697624685,-0.07055664,-0.97491455,0.34320068,-1.015625,-7.890625,1.28125
469,1697624725,-0.053710938,-0.9656372,0.30755615,-0.015625,-10.640625,2.34375
470,1697624765,-0.041503906,-0.9697876,0.31903076,1.71875,-15.515625,4.234375
471,1697624805,-0.041748047,-0.9522095,0.32513428,1.984375,-20.25,5.125
472,1697624845,-0.03149414,-0.95269775,0.34832764,-0.625,-24.796875,6.234375
473,1697624885,-0.025390625,-0.95391846,0.3522339,-2.3125,-23.015625,9.265625
474,1697624925,-0.07519531,-0.98687744,0.39154053,-5.5625,-19.078125,8.0
475,1697624965,-0.07128906,-0.9998169,0.3781128,-9.75,-18.96875,7.09375
476,1697625005,-0.06665039,-0.96295166,0.35760498,-6.6875,-21.1875,7.671875
477,1697625045,-0.057373047,-0.9627075,0.40203857,-3.453125,-19.234375,9.609375
478,1697625085,-0.056396484,-0.96417236,0.37542725,-3.75,-20.921875,7.6875
479,1697625125,-0.018310547,-0.9536743,0.40130615,-3.34375,-18.875,7.546875
480,1697625165,-0.045654297,-0.93463135,0.4232788,-5.21875,-17.5625,6.953125
481,1697625205,-0.068603516,-0.94488525,0.38128662,-5.78125,-19.03125,5.640625
482,1697625245,-0.04248047,-0.95025635,0.418396,-1.296875,-15.078125,7.1875
483,1697625285,-0.076660156,-0.9414673,0.4237671,-0.171875,-13.90625,6.65625
484,1697625325,-0.06274414,-0.9380493,0.40057373,-3.453125,-13.03125,4.953125
485,1697625365,-0.05078125,-0.9380493,0.40203857,-1.359375,-9.625,3.8125
486,1697625405,-0.09692383,-0.9417114,0.4274292,1.46875,-9.34375,3.609375
487,1697625445,-0.08178711,-0.94000244,0.41131592,1.859375,-5.59375,2.53125
488,1697625485,-0.087890625,-0.9446411,0.38763428,1.15625,-3.09375,0.84375
489,1697625525,-0.07006836,-0.94976807,0.39569092,0.6875,-0.640625,0.375
490,1697625565,-0.09277344,-0.942688,0.3842163,2.875,1.375,0.0625
491,1697625605,-0.08666992,-0.9487915,0.39398193,2.28125,3.078125,-0.5
492,1697625645,-0.08276367,-0.9468384,0.39764404,2.875,6.21875,0.71875
493,1697625685,-0.07788086,-0.9561157,0.402771,2.609375,7.828125,0.9375
494,1697625725,-0.07861328,-0.9534302,0.37908936,1.765625,9.765625,0.890625
495,1697625765,-0.04272461,-0.9495239,0.39666748,0.59375,10.40625,1.609375
496,1697625805,-0.05126953,-0.9692993,0.39276123,2.96875,11.34375,2.28125
497,1697625845,-0.04663086,-0.95440674,0.39837646,2.09375,11.015625,1.96875
498,1697625885,-0.05029297,-0.9627075,0.38446045,0.9375,10.359375,1.875
499,1697625925,-0.048828125,-0.96173096,0.38397217,-0.515625,10.84375,0.296875
500,1697625965,-0.036132812,-0.94732666,0.39007568,-0.546875,10.78125,-0.09375
501,1697626005,-0.020263672,-0.956604,0.38983154,-5.15625,11.53125,-0.234375
502,1697626045,-0.016357422,-0.95562744,0.4003296,-1.546875,10.328125,1.109375
503,1697626085,-0.0068359375,-0.9585571,0.37225342,-4.671875,9.15625,1.375
504,1697626125,-0.024414062,-0.9570923,0.4081421,-1.609375,8.53125,2.359375
505,1697626165,-0.0036621094,-0.9578247,0.402771,-2.234375,8.21875,2.484375
506,1697626205,-0.0009765625,-0.94488525,0.38812256,-3.40625,7.8125,2.6875
507,1697626245,-0.015136719,-0.9480591,0.37347412,-3.0625,7.34375,0.71875
508,1697626285,-0.0036621094,-0.9458618,0.39227295,-1.625,7.0,0.28125
509,1697626325,-0.0146484375,-0.9578247,0.3842163,-1.5625,8.03125,-0.890625
510,1697626365,-0.01977539,-0.9602661,0.3834839,-0.328125,7.234375,-2.46875
511,1697626405,-0.022216797,-0.9417114,0.3925171,0.515625,6.828125,-2.546875
512,1697626445,-0.04663086,-0.94659424,0.37054443,0.609375,6.734375,-3.5625
513,1697626485,-0.01953125,-0.9573364,0.3781128,0.875,5.375,-4.53125
514,1697626525,-0.060791016,-0.9570923,0.38739014,1.921875,5.859375,-5.453125
515,1697626565,-0.053955078,-0.9480591,0.38104248,0.828125,5.140625,-5.90625
516,1697626605,-0.05834961,-0.9734497,0.37542725,1.15625,4.953125,-6.1875
517,1697626645,-0.025390625,-0.9324341,0.37591553,0.8125,3.96875,-5.921875
518,1697626685,-0.040527344,-0.94781494,0.3834839,1.28125,3.203125,-7.328125
519,1697626725,-0.046142578,-0.94659424,0.39715576,2.828125,1.40625,-6.265625
520,1697626765,-0.052490234,-0.95880127,0.39398193,2.046875,0.828125,-6.234375
521,1697626805,-0.0625,-0.96295166,0.3595581,0.828125,1.5,-4.890625
522,1697626845,-0.060058594,-0.95196533,0.3756714,3.9375,0.3125,-3.984375
523,1697626885,-0.08154297,-0.9590454,0.34783936,1.375,-0.625,-4.125
524,1697626925,-0.07861328,-0.9661255,0.38739014,3.859375,-3.890625,-2.640625
525,1697626965,-0.07788086,-0.96343994,0.3781128,3.390625,-3.859375,-1.65625
526,1697627005,-0.064697266,-0.9512329,0.37078857,2.078125,-5.890625,-0.390625
527,1697627045,-0.06933594,-0.97125244,0.3788452,0.59375,-7.78125,0.875
528,1697627085,-0.072021484,-0.9680786,0.39031982,0.59375,-9.484375,1.140625
529,1697627125,-0.06665039,-0.9714966,0.39471436,-0.78125,-8.734375,3.046875
530,1697627165,-0.068847656,-0.9727173,0.39642334,-3.046875,-8.859375,4.09375
531,1697627205,-0.060058594,-0.9312134,0.3776245,-2.203125,-9.765625,4.78125
532,1697627245,-0.05517578,-0.9558716,0.39227295,-0.6875,-11.6875,5.109375
533,1697627285,-0.072021484,-0.958313,0.40496826,-0.875,-11.546875,5.59375
534,1697627325,-0.0793457,-0.94732666,0.40179443,-2.171875,-11.390625,4.75
535,1697627365,-0.080078125,-0.9505005,0.42010498,-1.375,-10.140625,5.46875
536,1697627405,-0.09057617,-0.93536377,0.38201904,-0.625,-9.46875,4.796875
537,1697627445,-0.057861328,-0.94317627,0.40716553,1.015625,-8.265625,5.546875
538,1697627485,-0.07055664,-0.9492798,0.40325928,0.0625,-7.8125,4.90625
539,1697627525,-0.048583984,-0.940979,0.4039917,1.828125,-6.09375,4.5
540,1697627565,-0.06274414,-0.958313,0.387146,1.203125,-6.875,4.484375
541,1697627605,-0.053710938,-0.94854736,0.38616943,2.609375,-6.515625,3.9375
542,1697627645,-0.08691406,-0.9685669,0.4088745,3.703125,-3.984375,4.546875
543,1697627685,-0.06518555,-0.942688,0.4105835,2.953125,-2.515625,3.078125
544,1697627725,-0.05810547,-0.9495239,0.3859253,0.671875,-1.375,3.546875
545,1697627765,-0.05908203,-0.9612427,0.39422607,1.4375,0.3125,1.375
546,1697627805,-0.057861328,-0.95440674,0.39837646,2.0,-0.59375,1.21875
547,1697627845,-0.056396484,-0.9495239,0.39227295,1.15625,0.796875,0.578125
548,1697627885,-0.06591797,-0.95562744,0.39349365,-0.796875,-0.046875,-0.78125
549,1697627925,-0.059814453,-0.9380493,0.37371826,-1.390625,-0.484375,0.015625
550,1697627965,-0.076660156,-0.9678345,0.3949585,0.625,2.65625,-0.25
551,1697628005,-0.08081055,-0.9680786,0.37078857,-1.40625,3.796875,0.953125
552,1697628045,-0.033447266,-0.93829346,0.3678589,1.25,3.875,2.09375
553,1697628085,-0.055908203,-0.96343994,0.38519287,0.59375,4.5,1.921875
554,1697628125,-0.02709961,-0.95635986,0.3673706,-0.4375,3.5625,1.984375
555,1697628165,-0.041503906,-0.96661377,0.3998413,-1.125,2.953125,2.515625
556,1697628205,-0.03466797,-0.9668579,0.3937378,-2.0,3.4375,4.078125
557,1697628245,-0.038330078,-0.9649048,0.40594482,-4.015625,3.171875,4.671875
558,1697628285,-0.041015625,-0.94659424,0.3866577,-2.140625,4.75,6.734375
559,1697628325,-0.010009766,-0.9429321,0.39715576,-2.578125,4.46875,7.40625
560,1697628365,-0.034179688,-0.96417236,0.41156006,-1.421875,7.5,7.6875
561,1697628405,-0.01953125,-0.9463501,0.38812256,-1.90625,6.203125,5.171875
562,1697628445,-0.0068359375,-0.9483032,0.3829956,-0.90625,4.984375,5.40625
563,1697628485,-0.026367188,-0.94903564,0.36444092,0.46875,2.765625,3.21875
564,1697628525,-0.025390625,-0.9561157,0.3554077,-1.328125,3.171875,0.390625
565,1697628565,-0.020263672,-0.9456177,0.39031982,0.671875,2.28125,-0.515625
566,1697628605,-0.024658203,-0.96221924,0.37225342,-0.421875,2.953125,-1.984375
567,1697628645,-0.049804688,-0.9492798,0.40252686,1.765625,2.171875,-3.25
568,1697628685,-0.03540039,-0.9451294,0.37664795,1.75,2.609375,-4.625
569,1697628725,-0.0078125,-0.96661377,0.38690186,0.953125,1.9375,-4.65625
570,1697628765,-0.034179688,-0.96173096,0.37225342,0.890625,1.4375,-6.28125
571,1697628805,-0.04345703,-0.94610596,0.36761475,1.484375,-0.234375,-8.515625
572,1697628845,-0.057373047,-0.95391846,0.3920288,1.21875,-0.984375,-8.5625
573,1697628885,-0.08911133,-0.9470825,0.37982178,2.28125,0.015625,-9.90625
574,1697628925,-0.09814453,-0.9541626,0.385437,1.875,-0.328125,-9.21875
575,1697628965,-0.092041016,-0.96417236,0.37371826,-0.234375,2.140625,-8.828125
576,1697629005,-0.05126953,-0.95758057,0.36395264,-0.8125,-0.921875,-6.484375
577,1697629045,-0.025634766,-0.9578247,0.37298584,0.109375,-2.75,-4.265625
578,1697629085,-0.038330078,-0.95635986,0.3834839,1.140625,-3.859375,-2.921875
579,1697629125,-0.067871094,-0.97491455,0.42010498,0.40625,-4.625,-2.359375
580,1697629165,-0.08276367,-0.9656372,0.40374756,-0.1875,-4.484375,0.078125
581,1697629205,-0.083496094,-0.93414307,0.387146,0.28125,-4.171875,1.015625
582,1697629245,-0.09277344,-0.94659424,0.39471436,0.671875,-4.875,1.359375
583,1697629285,-0.0703125,-0.9492798,0.3727417,1.203125,-3.890625,2.125
584,1697629325,-0.08935547,-0.95562744,0.3842163,0.328125,-4.71875,2.5
585,1697629365,-0.07739258,-0.9636841,0.3920288,2.671875,-4.25,3.171875
586,1697629405,-0.07495117,-0.956604,0.37542725,0.46875,-3.359375,3.796875
587,1697629445,-0.072753906,-0.9505005,0.40740967,2.53125,-3.90625,4.328125
588,1697629485,-0.087402344,-0.95513916,0.36932373,-3.90625,-3.171875,4.890625
589,1697629525,-0.0871582,-0.95196533,0.36517334,-0.46875,-1.84375,5.0625
590,1697629565,-0.053466797,-0.94317627,0.40423584,-0.5625,-4.0625,2.875
591,1697629605,-0.08178711,-0.95806885,0.40203857,1.515625,-2.421875,3.5625
592,1697629645,-0.07421875,-0.9331665,0.38519287,1.96875,-2.5,3.84375
593,1697629685,-0.0715332,-0.9529419,0.385437,2.671875,-3.21875,2.96875
594,1697629725,-0.07421875,-0.93292236,0.36395264,2.875,-2.046875,2.984375
595,1697629765,-0.07543945,-0.9702759,0.38787842,2.359375,-2.734375,4.0
596,1697629805,-0.075927734,-0.9558716,0.3859253,2.5625,-1.515625,3.734375
597,1697629845,-0.061279297,-0.95562744,0.3764038,1.28125,-2.734375,3.984375
598,1697629885,-0.041748047,-0.9505005,0.3727417,1.734375,-3.171875,5.234375
599,1697629925,-0.064697266,-0.95977783,0.3751831,1.25,-3.65625,5.203125
600,1697629965,-0.059814453,-0.97369385,0.36956787,0.9375,-2.75,4.640625
601,1697630005,-0.03930664,-0.9451294,0.37200928,1.015625,-3.078125,5.796875
602,1697630045,-0.053955078,-0.96051025,0.36688232,0.546875,-3.390625,6.75
603,1697630085,-0.036621094,-0.95806885,0.37249756,0.359375,-3.640625,5.75
604,1697630125,-0.049316406,-0.9570923,0.37664795,-1.34375,-2.859375,5.484375
605,1697630165,-0.084228516,-0.958313,0.3776245,-0.78125,-1.140625,3.125
606,1697630205,-0.06567383,-0.95513916,0.3632202,-1.671875,0.984375,2.78125
607,1697630245,-0.07446289,-0.9505005,0.38641357,0.28125,1.796875,0.234375
608,1697630285,-0.061035156,-0.94537354,0.3444214,-1.84375,1.84375,0.0
609,1697630325,-0.0715332,-0.9614868,0.36590576,-1.34375,1.59375,-1.125
610,1697630365,-0.06762695,-0.97735596,0.3690796,-0.140625,2.734375,-1.03125
611,1697630405,-0.07080078,-0.9524536,0.37493896,0.015625,3.171875,-2.21875
612,1697630445,-0.08618164,-0.958313,0.3678589,-0.484375,4.1875,-2.90625
613,1697630485,-0.075927734,-0.9727173,0.38372803,1.21875,4.9375,-2.5
614,1697630525,-0.09790039,-0.9590454,0.3612671,0.671875,5.859375,-3.109375
615,1697630565,-0.071777344,-0.9578247,0.35394287,4.296875,9.984375,-3.859375
616,1697630605,-0.10961914,-0.96588135,0.34954834,4.0,9.71875,-3.96875
617,1697630645,-0.114746094,-0.9656372,0.33099365,2.296875,7.96875,-5.25
618,1697630685,-0.09643555,-0.9529419,0.31121826,2.96875,8.421875,-5.5
619,1697630725,-0.09448242,-0.9651489,0.32537842,2.234375,6.390625,-7.046875
620,1697630765,-0.08984375,-0.96295166,0.33416748,2.390625,5.0,-6.28125
621,1697630805,-0.07763672,-0.9649048,0.32196045,1.5625,3.890625,-4.609375
622,1697630845,-0.09692383,-0.9758911,0.32366943,3.953125,4.515625,-4.1875
623,1697630885,-0.08984375,-0.9788208,0.3209839,3.296875,3.75,-4.265625
624,1697630925,-0.09790039,-0.9627075,0.3204956,4.53125,2.78125,-3.203125
625,1697630965,-0.115478516,-0.9692993,0.32855225,4.5625,2.140625,-3.046875
626,1697631005,-0.087890625,-0.975647,0.31878662,2.578125,1.8125,-2.6875
627,1697631045,-0.07543945,-0.96343994,0.32244873,3.09375,-1.859375,-1.71875
628,1697631085,-0.08154297,-0.9841919,0.2789917,1.078125,-1.15625,-0.53125
629,1697631125,-0.10620117,-0.98028564,0.324646,3.734375,-0.96875,-1.265625
630,1697631165,-0.07104492,-0.96539307,0.340271,2.234375,-2.296875,0.46875
631,1697631205,-0.107666016,-0.95684814,0.31341553,1.75,-3.328125,1.0
632,1697631245,-0.12963867,-0.9631958,0.31072998,1.46875,-2.1875,-0.296875
633,1697631285,-0.10473633,-0.96661377,0.3163452,1.90625,-3.828125,-1.203125
634,1697631325,-0.12133789,-0.97540283,0.31072998,1.578125,-3.78125,-0.265625
635,1697631365,-0.1081543,-0.98638916,0.31829834,0.953125,-4.234375,-0.515625
636,1697631405,-0.11791992,-0.9776001,0.3168335,1.53125,-3.671875,-0.171875
637,1697631445,-0.11206055,-0.97003174,0.29315186,-0.375,-4.4375,-0.09375
638,1697631485,-0.09765625,-0.9619751,0.2880249,0.171875,-5.5,0.1875
639,1697631525,-0.106933594,-0.98394775,0.28704834,-0.46875,-5.421875,-0.5
640,1697631565,-0.111816406,-0.9885864,0.30096436,-0.90625,-3.296875,-1.0625
641,1697631605,-0.119384766,-0.96881104,0.31072998,-1.625,-5.015625,-0.5
642,1697631645,-0.13354492,-0.9859009,0.32391357,-1.765625,-4.484375,-0.59375
643,1697631685,-0.13598633,-0.97052,0.33758545,-3.03125,-3.53125,0.0625
644,1697631725,-0.12890625,-0.9729614,0.3209839,-3.296875,-2.796875,-0.21875
645,1697631765,-0.118896484,-0.9619751,0.33270264,-2.78125,-2.640625,0.0
646,1697631805,-0.119140625,-0.97247314,0.3324585,-3.046875,-2.09375,1.640625
647,1697631845,-0.119628906,-0.95562744,0.35198975,-2.234375,-2.296875,0.8125
648,1697631885,-0.12988281,-0.97540283,0.338562,-5.40625,-1.296875,1.328125
649,1697631925,-0.13842773,-0.9702759,0.35882568,-2.546875,-1.03125,1.484375
650,1697631965,-0.114746094,-0.9570923,0.35662842,-2.0,-1.3125,3.15625
651,1697632005,-0.103515625,-0.9685669,0.3517456,-2.296875,-0.46875,3.5625
652,1697632045,-0.11450195,-0.95635986,0.354187,-2.390625,-1.640625,3.921875
653,1697632085,-0.12597656,-0.9524536,0.38104248,-1.09375,-1.921875,3.703125
654,1697632125,-0.10888672,-0.96099854,0.37127686,-2.328125,-2.109375,4.015625
655,1697632165,-0.11206055,-0.94903564,0.369812,-1.75,-1.5,4.125
656,1697632205,-0.12548828,-0.95318604,0.3739624,-1.625,-2.015625,4.484375
657,1697632245,-0.111816406,-0.96099854,0.3764038,0.140625,-2.265625,4.3125
658,1697632285,-0.114746094,-0.94610596,0.37347412,1.203125,-1.859375,3.984375
659,1697632325,-0.10668945,-0.9524536,0.35394287,0.359375,-0.75,4.34375
660,1697632365,-0.0925293,-0.95318604,0.35369873,0.5625,-0.859375,3.578125
661,1697632405,-0.107177734,-0.9470825,0.3480835,1.859375,-1.0625,3.15625
662,1697632445,-0.10864258,-0.9522095,0.34906006,1.875,-1.25,2.4375
663,1697632485,-0.1159668,-0.95977783,0.34588623,1.96875,-0.46875,1.59375
664,1697632525,-0.114990234,-0.95025635,0.3463745,2.625,-0.40625,1.15625
665,1697632565,-0.107910156,-0.972229,0.35028076,1.453125,0.328125,1.1875
666,1697632605,-0.118896484,-0.96539307,0.3649292,3.859375,0.65625,0.625
667,1697632645,-0.123291016,-0.95098877,0.33636475,1.234375,2.09375,0.71875
668,1697632685,-0.11645508,-0.96539307,0.3427124,0.953125,1.6875,-0.234375
669,1697632725,-0.13183594,-0.97491455,0.34906006,2.203125,2.3125,0.046875
670,1697632765,-0.12158203,-0.96295166,0.33514404,2.15625,3.171875,0.03125
671,1697632805,-0.13183594,-0.96710205,0.31903076,0.421875,2.328125,-0.140625
672,1697632845,-0.12939453,-0.96539307,0.3270874,-0.59375,2.578125,-1.390625
673,1697632885,-0.122558594,-0.96588135,0.3366089,-0.625,3.375,-0.25
674,1697632925,-0.11450195,-0.9651489,0.34320068,-1.25,2.4375,-0.8125
675,1697632965,-0.12573242,-0.9734497,0.3493042,-0.953125,1.71875,0.0
676,1697633005,-0.118652344,-0.9619751,0.34613037,-0.28125,1.796875,0.265625
677,1697633045,-0.11694336,-0.96295166,0.34539795,-1.640625,1.8125,0.5625
678,1697633085,-0.115234375,-0.9690552,0.340271,-0.609375,2.0,1.375
679,1697633125,-0.09692383,-0.942688,0.33538818,0.6875,1.53125,2.75
680,1697633165,-0.104003906,-0.9758911,0.34417725,-0.1875,0.875,1.234375
681,1697633205,-0.13427734,-0.9824829,0.35784912,-0.03125,1.53125,1.046875
682,1697633245,-0.103271484,-0.9505005,0.35394287,-0.734375,2.28125,0.328125
683,1697633285,-0.12817383,-0.9717407,0.34100342,-0.390625,0.390625,0.328125
684,1697633325,-0.1027832,-0.94854736,0.35150146,-0.359375,0.796875,-0.09375
685,1697633365,-0.10058594,-0.9614868,0.33465576,-1.515625,0.953125,-0.234375
686,1697633405,-0.09716797,-0.95513916,0.3751831,1.921875,0.265625,-0.640625
687,1697633445,-0.10229492,-0.97003174,0.36102295,-2.34375,2.046875,-0.3125
688,1697633485,-0.12109375,-0.96710205,0.3805542,-1.109375,0.375,-0.328125
689,1697633525,-0.12158203,-1.0410767,0.37957764,-1.453125,1.625,-3.78125
690,1697633565,-0.057861328,-0.8970337,0.35931396,11.46875,11.546875,5.3125
691,1697633605,-0.13427734,-0.94195557,0.35198975,-0.546875,0.96875,2.8125
692,1697633645,-0.10131836,-0.96539307,0.33392334,-4.15625,-1.578125,-2.59375
693,1697633685,-0.07763672,-0.9356079,0.3480835,-0.140625,-3.5,-0.84375
694,1697633725,-0.12231445,-0.96343994,0.3649292,0.25,-5.109375,-0.328125
695,1697633765,-0.122802734,-0.97247314,0.36053467,1.890625,-4.609375,-0.125
696,1697633805,-0.07104492,-0.94366455,0.355896,1.578125,-3.5625,1.671875
697,1697633845,-0.11743164,-0.96539307,0.3493042,1.828125,-4.65625,0.4375
698,1697633885,-0.10620117,-0.97442627,0.36029053,0.390625,-4.25,-1.390625
699,1697633925,-0.100097656,-0.96588135,0.3463745,-0.4375,-3.296875,-0.71875
700,1697633965,-0.08886719,-0.9727173,0.3546753,-1.453125,-3.421875,-0.953125
701,1697634005,-0.099365234,-0.96295166,0.3546753,-1.453125,-3.65625,0.09375
702,1697634045,-0.08544922,-0.9602661,0.3529663,-0.09375,-3.125,1.578125
703,1697634085,-0.0871582,-0.97540283,0.36590576,-1.09375,-2.921875,1.625
704,1697634125,-0.111328125,-0.95391846,0.35101318,0.953125,-3.78125,2.703125
705,1697634165,-0.11035156,-0.9573364,0.35736084,1.296875,-2.765625,2.578125
706,1697634205,-0.10546875,-0.9534302,0.33709717,-0.796875,-1.78125,2.90625
707,1697634245,-0.09765625,-0.9627075,0.3600464,1.03125,-3.296875,1.890625
708,1697634285,-0.11401367,-0.9668579,0.3378296,-0.625,-1.828125,1.40625
709,1697634325,-0.11376953,-0.9541626,0.36883545,2.0625,-1.921875,2.328125
710,1697634365,-0.119384766,-0.9710083,0.37664795,0.78125,-1.359375,2.921875
711,1697634405,-0.12573242,-0.9534302,0.35882568,0.34375,-0.6875,2.46875
712,1697634445,-0.111083984,-0.9512329,0.34906006,0.296875,-1.984375,2.953125
713,1697634485,-0.10668945,-0.95513916,0.36663818,2.21875,-2.390625,3.6875
714,1697634525,-0.10449219,-0.9612427,0.3637085,-0.046875,-2.328125,4.859375
715,1697634565,-0.12890625,-0.9644165,0.36883545,-1.0,-1.390625,3.796875
716,1697634605,-0.13745117,-0.96710205,0.36517334,-0.890625,0.625,3.796875
717,1697634645,-0.13671875,-0.95806885,0.36834717,-1.625,2.0,3.65625
718,1697634685,-0.1394043,-0.9558716,0.3534546,-1.78125,3.078125,2.9375
719,1697634725,-0.13867188,-0.96710205,0.35906982,-4.0,2.71875,0.765625
720,1697634765,-0.1262207,-0.95806885,0.32000732,0.78125,5.15625,1.578125
721,1697634805,-0.13476562,-0.9492798,0.33050537,2.125,5.703125,1.46875
722,1697634845,-0.15234375,-0.9546509,0.3287964,2.875,8.390625,0.125
723,1697634885,-0.109375,-0.9553833,0.32122803,3.03125,10.1875,0.625
724,1697634925,-0.123535156,-0.97784424,0.3283081,2.6875,9.65625,-0.953125
725,1697634965,-0.09643555,-0.9595337,0.3366089,3.109375,9.5625,-1.40625
726,1697635005,-0.09106445,-0.9963989,0.3300171,11.171875,9.4375,-0.28125
727,1697635045,-0.059814453,-0.98443604,0.29559326,19.53125,12.5625,0.34375
728,1697635085,-0.10253906,-0.9338989,0.25286865,11.59375,9.421875,1.234375
729,1697635125,-0.08666992,-0.9812622,0.27264404,7.359375,5.546875,-2.171875
730,1697635165,-0.032470703,-1.0061646,0.29022217,4.203125,3.171875,-0.25
731,1697635205,-0.057128906,-0.97857666,0.24554443,4.859375,3.171875,0.265625
732,1697635245,-0.052978516,-0.9639282,0.26409912,1.484375,-1.1875,-0.390625
733,1697635285,-0.046142578,-0.98638916,0.260437,0.140625,-3.78125,-0.328125
734,1697635325,-0.05102539,-0.9710083,0.26776123,0.171875,-4.5,-0.015625
735,1697635365,-0.039794922,-0.9805298,0.26654053,0.828125,-3.5625,1.25
736,1697635405,-0.07080078,-1.0029907,0.28411865,1.0,-5.453125,2.109375
737,1697635445,-0.061523438,-0.98687744,0.28900146,-1.28125,-7.265625,1.0
738,1697635485,-0.053222656,-0.972229,0.2802124,-1.015625,-7.875,1.390625
739,1697635525,-0.067871094,-0.98223877,0.28070068,-0.609375,-9.046875,1.59375
740,1697635565,-0.052734375,-0.99420166,0.29266357,-0.390625,-8.546875,2.140625
741,1697635605,-0.08544922,-0.989563,0.2880249,-0.734375,-8.609375,1.6875
742,1697635645,-0.041259766,-0.97784424,0.29388428,-0.859375,-9.015625,2.546875
743,1697635685,-0.072021484,-0.98687744,0.29144287,-1.484375,-8.46875,3.3125
744,1697635725,-0.055664062,-0.9871216,0.31121826,-2.09375,-8.8125,3.0625
745,1697635765,-0.06323242,-0.98809814,0.30169678,-2.4375,-7.109375,4.171875
746,1697635805,-0.06201172,-0.96881104,0.3163452,-1.90625,-5.8125,4.8125
747,1697635845,-0.06665039,-0.9656372,0.30926514,-3.265625,-3.96875,5.359375
748,1697635885,-0.0769043,-0.97662354,0.30291748,-1.5625,-2.84375,3.515625
749,1697635925,-0.05517578,-0.9697876,0.32318115,0.25,-2.515625,3.6875
750,1697635965,-0.07885742,-0.9763794,0.31170654,-0.359375,-1.796875,2.125
751,1697636005,-0.071777344,-0.95880127,0.30389404,0.015625,-0.453125,0.625
752,1697636045,-0.05126953,-0.9495239,0.29681396,0.734375,-0.328125,1.421875
753,1697636085,-0.07714844,-0.9829712,0.28753662,0.859375,-0.4375,1.078125
754,1697636125,-0.04321289,-0.9678345,0.2999878,0.9375,0.25,-0.015625
755,1697636165,-0.07104492,-0.98272705,0.30560303,1.109375,1.265625,-0.15625
756,1697636205,-0.07543945,-0.96881104,0.29852295,0.46875,3.609375,-1.046875
757,1697636245,-0.060546875,-0.972229,0.29193115,1.34375,4.15625,-1.859375
758,1697636285,-0.06933594,-0.989563,0.3012085,2.203125,4.9375,-1.71875
759,1697636325,-0.06347656,-0.9746704,0.2975464,2.046875,5.171875,-0.875
