# Sensor type: Thingy
# Activity type: Miscellaneous movements
# Activity subtype: Normal
# Subject id: s1918981
# Notes: 
timestamp,accel_x,accel_y,accel_z,gyro_x,gyro_y,gyro_z,mag_x,mag_y,mag_z
1696075596339,-1.0048828,0.026367188,-0.009765625,-8.0,0.3125,0.0625,0.0,0.0,0.0
1696075596374,-1.0,0.045898438,0.0126953125,-3.53125,2.34375,-0.78125,-86.6875,-56.6875,-108.625
1696075596404,-1.0107422,0.07519531,0.020507812,-4.9375,0.5,0.375,0.0,0.0,0.0
1696075596431,-1.0166016,0.076171875,0.016601562,-7.3125,2.34375,0.96875,0.0,0.0,0.0
1696075596458,-1.0244141,0.045898438,0.03125,-13.0625,-0.59375,2.6875,0.0,0.0,0.0
1696075596519,-1.0136719,0.038085938,0.0234375,-8.59375,-0.90625,1.875,0.0,0.0,0.0
1696075596549,-1.0019531,0.043945312,0.044921875,-8.0,-0.21875,1.875,0.0,0.0,0.0
1696075596580,-0.99121094,0.013671875,0.0029296875,-11.15625,-1.9375,0.84375,0.0,0.0,0.0
1696075596638,-0.9941406,0.038085938,0.052734375,0.90625,3.4375,-0.375,0.0,0.0,0.0
1696075596669,-1.0058594,0.056640625,0.03515625,-3.46875,0.9375,0.96875,0.0,0.0,0.0
1696075596698,-1.0136719,0.080078125,0.029296875,-0.96875,1.59375,0.96875,0.0,0.0,0.0
1696075596759,-1.0068359,0.07910156,0.020507812,-5.0625,0.9375,1.53125,0.0,0.0,0.0
1696075596791,-1.0126953,0.053710938,0.0126953125,-9.65625,-0.78125,3.125,0.0,0.0,0.0
1696075596818,-1.0078125,0.048828125,0.026367188,-8.0,0.125,2.875,-85.5,-57.125,-109.375
1696075596878,-0.99316406,0.030273438,0.029296875,-7.6875,-0.71875,3.34375,0.0,0.0,0.0
1696075596907,-1.0058594,0.0,0.04296875,0.0,0.9375,2.0625,0.0,0.0,0.0
1696075596938,-1.0126953,0.03515625,0.041015625,5.3125,1.1875,-0.5,0.0,0.0,0.0
1696075596998,-1.0058594,0.041015625,0.0146484375,10.875,0.0625,-1.21875,0.0,0.0,0.0
1696075597033,-1.0136719,0.045898438,0.030273438,9.34375,-2.0,-0.84375,0.0,0.0,0.0
1696075597059,-1.0117188,0.057617188,0.001953125,11.65625,-1.75,-2.03125,0.0,0.0,0.0
1696075597119,-1.0244141,0.044921875,-0.0068359375,12.03125,-2.25,-2.25,0.0,0.0,0.0
1696075597148,-1.0341797,0.0625,0.00390625,13.3125,-7.6875,-0.75,0.0,0.0,0.0
1696075597179,-1.0253906,0.1015625,-0.022460938,8.65625,-10.0625,1.09375,0.0,0.0,0.0
1696075597269,-0.99902344,0.107421875,-0.033203125,8.90625,-15.71875,6.71875,0.0,0.0,0.0
1696075597271,-1.0117188,0.09765625,-0.03125,10.0,-19.5625,12.21875,0.0,0.0,0.0
1696075597301,-1.0087891,0.09375,-0.053710938,7.4375,-24.46875,15.3125,0.0,0.0,0.0
1696075597359,-0.9794922,0.13183594,-0.06347656,11.40625,-22.4375,18.6875,-85.5,-55.0,-107.0
1696075597389,-0.9433594,0.12988281,-0.12792969,19.78125,-28.65625,28.25,0.0,0.0,0.0
1696075597419,-0.8408203,0.12792969,-0.15820312,18.78125,-12.25,24.21875,0.0,0.0,0.0
1696075597480,-1.046875,0.05859375,0.23925781,13.71875,0.6875,28.8125,0.0,0.0,0.0
1696075597508,-1.0234375,0.09277344,0.059570312,-23.375,-82.8125,24.53125,0.0,0.0,0.0
1696075597540,-0.86621094,0.2607422,0.2861328,5.25,-128.59375,24.71875,0.0,0.0,0.0
1696075597628,-0.6953125,0.2890625,0.64746094,-2.375,-139.25,31.3125,0.0,0.0,0.0
1696075597632,-0.5439453,0.12597656,0.43847656,-17.9375,-209.8125,31.375,0.0,0.0,0.0
1696075597662,-0.48339844,0.0,0.39160156,-82.28125,-165.8125,8.53125,0.0,0.0,0.0
1696075597719,-0.49121094,-0.08496094,0.81152344,-30.8125,-206.78125,38.875,0.0,0.0,0.0
1696075597748,-0.8955078,0.36816406,0.5654297,-103.75,-71.875,1.9375,0.0,0.0,0.0
1696075597780,-0.91308594,0.23535156,0.9609375,-34.375,-98.875,-26.1875,0.0,0.0,0.0
1696075597840,-0.54003906,0.12207031,0.7392578,-61.9375,-76.9375,-8.90625,-51.625,-57.4375,-89.0
1696075597868,-0.7246094,-0.18652344,0.8808594,-22.09375,-86.96875,3.90625,0.0,0.0,0.0
1696075597900,-0.51464844,0.17480469,0.7753906,11.21875,-79.8125,-3.3125,0.0,0.0,0.0
1696075597958,-0.25878906,0.08691406,1.03125,-11.0,-84.6875,8.375,0.0,0.0,0.0
1696075597989,-0.39941406,-0.080078125,0.88183594,-17.46875,-75.25,11.09375,0.0,0.0,0.0
1696075598020,-0.24121094,-0.0146484375,0.9550781,-8.0625,-80.0,8.90625,0.0,0.0,0.0
1696075598078,-0.28710938,0.020507812,1.0322266,-21.375,-78.0,4.34375,0.0,0.0,0.0
1696075598109,-0.26660156,0.10253906,1.1132812,-10.0625,-73.34375,-3.0625,0.0,0.0,0.0
1696075598138,-0.08105469,0.06738281,1.2695312,-8.5,-64.75,-1.46875,0.0,0.0,0.0
1696075598199,-0.041992188,-0.059570312,1.1816406,-29.71875,-31.65625,5.0,0.0,0.0,0.0
1696075598229,0.15234375,-0.12207031,1.1269531,-12.09375,-2.1875,1.03125,0.0,0.0,0.0
1696075598258,0.1015625,-0.16015625,0.9892578,1.9375,5.8125,3.15625,0.0,0.0,0.0
1696075598320,-0.0234375,-0.13574219,0.99316406,10.8125,7.78125,8.0,0.0,0.0,0.0
1696075598350,-0.10644531,-0.13867188,0.99609375,10.5625,26.03125,7.8125,-33.0,-63.6875,-92.75
1696075598379,-0.19238281,-0.021484375,1.0126953,7.9375,14.375,6.59375,0.0,0.0,0.0
1696075598438,-0.19140625,-0.00390625,0.99609375,-1.59375,8.1875,6.09375,0.0,0.0,0.0
1696075598468,-0.17773438,0.047851562,0.9111328,-11.21875,3.75,-2.0625,0.0,0.0,0.0
1696075598500,-0.171875,0.03125,0.96484375,-8.125,2.6875,-1.78125,0.0,0.0,0.0
1696075598561,-0.2109375,0.080078125,1.0146484,-0.4375,4.40625,-9.21875,0.0,0.0,0.0
1696075598588,-0.10644531,0.059570312,0.9824219,-0.84375,-21.03125,-6.28125,0.0,0.0,0.0
1696075598619,-0.07324219,0.0087890625,0.9609375,-2.8125,0.75,-5.4375,0.0,0.0,0.0
1696075598679,-0.15234375,-0.020507812,1.0322266,10.96875,8.5,0.125,0.0,0.0,0.0
1696075598709,-0.17089844,-0.059570312,1.0244141,2.3125,-2.5,3.59375,0.0,0.0,0.0
1696075598738,-0.12792969,-0.046875,0.9394531,0.78125,2.28125,4.09375,0.0,0.0,0.0
1696075598799,-0.16894531,0.00390625,0.9453125,7.3125,4.96875,8.65625,0.0,0.0,0.0
1696075598828,-0.17285156,0.030273438,0.9511719,30.09375,5.6875,10.125,-35.375,-63.125,-92.125
1696075598918,-0.171875,9.765625E-4,1.0517578,-1.53125,9.84375,6.34375,0.0,0.0,0.0
1696075598923,-0.19628906,0.03125,0.92578125,0.4375,3.0625,4.21875,0.0,0.0,0.0
1696075598949,-0.14746094,-0.0087890625,1.0,4.34375,3.375,2.3125,0.0,0.0,0.0
1696075598978,-0.12988281,0.01953125,0.95214844,0.59375,-2.125,-0.78125,0.0,0.0,0.0
1696075599038,-0.15820312,0.005859375,0.98828125,5.96875,-13.03125,-0.125,0.0,0.0,0.0
1696075599073,-0.12207031,0.036132812,0.9316406,1.09375,-13.34375,-4.8125,0.0,0.0,0.0
1696075599099,-0.028320312,0.04296875,0.85546875,14.15625,-30.6875,-6.90625,0.0,0.0,0.0
1696075599158,0.00390625,-0.01171875,1.125,32.03125,-26.34375,7.625,0.0,0.0,0.0
1696075599190,0.17382812,-0.028320312,1.3310547,56.40625,-62.1875,14.65625,0.0,0.0,0.0
1696075599220,0.12988281,0.11230469,1.4423828,50.03125,25.59375,3.96875,0.0,0.0,0.0
1696075599278,0.009765625,0.171875,1.1269531,28.8125,67.59375,-13.5625,0.0,0.0,0.0
1696075599317,-0.23632812,0.27441406,1.2138672,15.0,83.75,-5.875,0.0,0.0,0.0
1696075599340,-0.2607422,0.024414062,1.1611328,13.3125,74.65625,-26.84375,-36.3125,-57.875,-89.625
1696075599398,-0.33203125,0.16210938,1.0263672,24.15625,94.625,-32.03125,0.0,0.0,0.0
1696075599428,-0.47753906,0.28808594,0.96191406,6.65625,99.0625,-24.34375,0.0,0.0,0.0
1696075599459,-0.50097656,0.22167969,0.9423828,-7.5,103.59375,-7.8125,0.0,0.0,0.0
1696075599518,-0.44433594,0.12402344,0.88671875,-0.5625,117.375,-8.96875,0.0,0.0,0.0
1696075599548,-0.49902344,0.12695312,0.7626953,13.65625,121.0625,-6.28125,0.0,0.0,0.0
1696075599580,-0.55859375,0.19042969,0.7392578,15.8125,132.53125,-12.75,0.0,0.0,0.0
1696075599638,-0.6875,0.09472656,0.7402344,18.125,164.875,-30.09375,0.0,0.0,0.0
1696075599671,-0.67285156,0.025390625,0.64453125,14.9375,165.78125,-36.25,0.0,0.0,0.0
1696075599698,-0.5644531,0.078125,0.24707031,18.5,195.625,-34.5625,0.0,0.0,0.0
1696075599758,-0.86328125,0.0126953125,0.26660156,30.46875,169.34375,-28.75,0.0,0.0,0.0
1696075599788,-0.75878906,0.14648438,0.24316406,38.8125,126.78125,0.59375,0.0,0.0,0.0
1696075599819,-0.66796875,0.23730469,0.07421875,77.5625,53.65625,0.1875,-80.125,-53.6875,-99.1875
1696075599909,-0.6982422,0.31347656,0.15527344,62.8125,79.0,-25.875,0.0,0.0,0.0
1696075599911,-0.8417969,0.18945312,0.19433594,23.5,42.5625,-8.65625,0.0,0.0,0.0
1696075599940,-1.1962891,-0.033203125,-0.07910156,-56.40625,66.375,-24.40625,0.0,0.0,0.0
1696075599999,-1.0625,-0.046875,-0.12988281,-45.78125,21.0,-24.28125,0.0,0.0,0.0
1696075600028,-1.0751953,0.33203125,-0.17773438,-186.53125,40.90625,-64.03125,0.0,0.0,0.0
1696075600061,-1.0205078,0.50097656,-0.06933594,81.78125,92.5,-16.84375,0.0,0.0,0.0
1696075600119,-0.9482422,-0.19140625,0.24511719,17.6875,19.71875,33.125,0.0,0.0,0.0
1696075600179,-0.9482422,-0.051757812,-0.07519531,-96.75,-85.8125,-8.0,0.0,0.0,0.0
1696075600182,-1.0126953,-0.045898438,-0.16601562,10.875,6.84375,-3.71875,0.0,0.0,0.0
1696075600239,-1.0361328,0.14648438,-0.0625,3.0625,46.71875,-12.9375,0.0,0.0,0.0
1696075600269,-1.0302734,0.07128906,0.09375,50.90625,45.25,9.34375,0.0,0.0,0.0
1696075600298,-1.0332031,9.765625E-4,-9.765625E-4,-5.875,-24.46875,4.8125,0.0,0.0,0.0
1696075600388,-1.0009766,0.12011719,-0.12011719,-28.625,-1.6875,-6.46875,-85.9375,-57.4375,-111.0625
1696075600391,-0.984375,-0.013671875,-0.025390625,14.59375,6.90625,2.75,0.0,0.0,0.0
1696075600418,-0.98339844,0.044921875,-0.028320312,0.0,12.03125,-2.75,0.0,0.0,0.0
1696075600478,-1.046875,0.040039062,-0.06542969,1.09375,5.4375,-1.53125,0.0,0.0,0.0
1696075600508,-1.046875,0.072265625,-0.00390625,14.21875,8.1875,1.09375,0.0,0.0,0.0
1696075600538,-1.0058594,-0.0068359375,0.04296875,-7.5625,-5.90625,1.84375,0.0,0.0,0.0
1696075600599,-0.98535156,-0.018554688,-0.087890625,-12.46875,-5.90625,-1.09375,0.0,0.0,0.0
1696075600629,-1.0039062,0.087890625,-0.060546875,18.0,11.625,-2.25,0.0,0.0,0.0
1696075600659,-1.03125,0.076171875,0.059570312,6.34375,6.65625,1.53125,0.0,0.0,0.0
1696075600718,-1.0058594,0.013671875,-0.064453125,-14.96875,-10.3125,1.84375,0.0,0.0,0.0
1696075600748,-1.0185547,0.025390625,-0.109375,-1.90625,-1.5,-0.5625,0.0,0.0,0.0
1696075600778,-1.0205078,0.119140625,-0.046875,15.125,4.15625,3.0,0.0,0.0,0.0
1696075600838,-1.0712891,0.16601562,-0.07714844,2.125,-16.9375,10.3125,-87.875,-58.3125,-111.5
1696075600869,-1.0517578,0.076171875,-0.12011719,-8.4375,-43.0625,17.9375,0.0,0.0,0.0
1696075600898,-0.95996094,0.056640625,-0.20214844,-16.46875,-49.46875,16.40625,0.0,0.0,0.0
1696075600958,-0.9667969,0.11328125,-0.22558594,0.125,-38.5625,17.8125,0.0,0.0,0.0
1696075600990,-0.9355469,0.14746094,-0.20507812,30.6875,-14.4375,20.5625,0.0,0.0,0.0
1696075601018,-0.9716797,0.11621094,-0.1328125,51.28125,14.96875,28.375,0.0,0.0,0.0
1696075601080,-1.0888672,0.09082031,0.20214844,28.875,-37.03125,33.4375,0.0,0.0,0.0
1696075601108,-0.9355469,0.049804688,-0.0546875,-35.40625,-52.03125,13.125,0.0,0.0,0.0
1696075601139,-0.83203125,0.14941406,0.25390625,-20.8125,-75.375,-0.84375,0.0,0.0,0.0
1696075601228,-1.0117188,0.10839844,0.53222656,-36.875,-78.53125,5.5,0.0,0.0,0.0
1696075601230,-0.8222656,0.10253906,0.32910156,-49.1875,-145.375,24.53125,0.0,0.0,0.0
1696075601258,-0.6767578,0.03125,0.5058594,22.875,-210.875,29.28125,0.0,0.0,0.0
1696075601318,-0.69140625,0.001953125,0.36914062,-51.75,-131.875,8.59375,0.0,0.0,0.0
1696075601348,-0.60546875,0.2705078,0.7363281,-21.84375,-111.96875,16.125,-65.5625,-56.9375,-90.8125
1696075601379,-0.8496094,0.31640625,0.76464844,-34.0625,-87.25,0.4375,0.0,0.0,0.0
1696075601469,-0.4951172,0.0,0.51464844,-29.46875,-89.71875,20.1875,0.0,0.0,0.0
1696075601473,-0.4345703,-0.0390625,0.6113281,-59.21875,-112.09375,13.4375,0.0,0.0,0.0
1696075601500,-0.64453125,0.06933594,1.0263672,-25.875,-106.96875,-1.15625,0.0,0.0,0.0
1696075601558,-0.49902344,-0.20410156,0.6044922,-46.28125,-90.875,-24.40625,0.0,0.0,0.0
1696075601588,-0.2939453,0.028320312,0.93652344,-23.375,-128.09375,-9.40625,0.0,0.0,0.0
1696075601620,-0.59765625,0.15429688,0.8984375,-75.75,-85.375,-24.46875,0.0,0.0,0.0
1696075601678,-0.36914062,-0.16796875,0.984375,-58.84375,-94.34375,-19.21875,0.0,0.0,0.0
1696075601710,-0.40722656,-0.123046875,1.0488281,-32.96875,-101.65625,-16.0,0.0,0.0,0.0
1696075601738,-0.13476562,0.083984375,1.3603516,5.96875,-70.40625,16.65625,0.0,0.0,0.0
1696075601798,-0.21289062,-0.25585938,1.2275391,-33.875,-53.21875,3.21875,0.0,0.0,0.0
1696075601830,0.08203125,-0.27539062,1.6074219,13.71875,-28.78125,-2.25,-34.1875,-67.9375,-92.3125
1696075601860,0.005859375,-0.33789062,1.2089844,46.3125,-20.6875,8.40625,0.0,0.0,0.0
1696075601918,0.17675781,-0.09667969,0.92871094,37.34375,9.71875,-3.1875,0.0,0.0,0.0
1696075601949,0.103515625,-0.057617188,0.90527344,9.34375,11.5,1.59375,0.0,0.0,0.0
1696075601979,-0.13964844,-0.049804688,0.8388672,-21.3125,-1.75,7.25,0.0,0.0,0.0
1696075602039,-0.10253906,-0.06738281,0.91503906,-32.53125,3.0,-5.375,0.0,0.0,0.0
1696075602068,-0.15136719,-0.08691406,0.94921875,-37.90625,2.75,-9.71875,0.0,0.0,0.0
1696075602099,-0.18554688,-0.15527344,0.8955078,-0.78125,2.59375,3.96875,0.0,0.0,0.0
1696075602190,-0.265625,-0.11328125,1.4804688,44.96875,-18.0,22.875,0.0,0.0,0.0
1696075602193,-0.24707031,-0.119140625,1.2421875,-8.25,-54.0,-6.65625,0.0,0.0,0.0
1696075602221,0.15917969,-0.034179688,0.6855469,1.09375,-19.40625,-14.40625,0.0,0.0,0.0
1696075602279,-0.029296875,-0.1796875,0.8466797,6.59375,13.875,-10.3125,0.0,0.0,0.0
1696075602309,0.038085938,-0.1171875,0.9169922,-8.1875,20.78125,-6.46875,0.0,0.0,0.0
1696075602340,0.016601562,-0.076171875,0.8173828,-6.34375,36.8125,-0.75,-31.5,-69.125,-94.5625
1696075602402,-0.04296875,-0.16015625,0.953125,12.28125,47.1875,9.46875,0.0,0.0,0.0
1696075602428,-0.42382812,-0.19921875,1.3945312,0.71875,4.65625,22.8125,0.0,0.0,0.0
1696075602458,-0.08496094,-0.043945312,1.1699219,-36.6875,-27.9375,-37.40625,0.0,0.0,0.0
1696075602548,0.22167969,-0.024414062,0.24707031,6.59375,61.59375,7.6875,0.0,0.0,0.0
1696075602551,-0.8232422,-0.19335938,1.6894531,31.25,57.15625,-18.5,0.0,0.0,0.0
1696075602579,0.09765625,-0.15722656,0.73339844,-17.09375,-59.5,-10.875,0.0,0.0,0.0
1696075602608,-0.20117188,-0.10839844,0.7138672,13.0625,43.71875,-2.5625,0.0,0.0,0.0
1696075602668,-0.3095703,-0.22265625,1.2207031,11.03125,-5.53125,-5.0,0.0,0.0,0.0
1696075602760,-0.140625,-0.13964844,0.9277344,11.71875,-13.34375,0.96875,0.0,0.0,0.0
1696075602763,-0.2861328,-0.18457031,0.9951172,20.875,-10.0,4.40625,0.0,0.0,0.0
1696075602788,-0.22363281,-0.203125,0.93652344,42.90625,-14.09375,17.8125,0.0,0.0,0.0
1696075602818,-0.2939453,-0.12695312,1.1005859,68.25,-36.78125,19.28125,-33.75,-66.4375,-90.5
1696075602850,-0.07714844,-0.078125,0.8564453,68.65625,-18.40625,12.5625,0.0,0.0,0.0
1696075602910,-0.17480469,-0.0146484375,1.1220703,84.78125,-10.84375,19.53125,0.0,0.0,0.0
1696075602938,-0.16699219,0.05859375,1.0234375,77.4375,0.25,11.09375,0.0,0.0,0.0
1696075602969,0.015625,0.19335938,0.88964844,82.28125,6.71875,6.78125,0.0,0.0,0.0
1696075603028,-0.17089844,0.24609375,0.96777344,95.28125,0.375,13.0625,0.0,0.0,0.0
1696075603059,-0.10253906,0.31640625,0.9638672,70.96875,22.21875,-12.8125,0.0,0.0,0.0
1696075603089,-0.064453125,0.4501953,0.7011719,81.34375,19.25,3.28125,0.0,0.0,0.0
1696075603150,-0.08984375,0.49023438,0.78027344,120.34375,8.9375,15.625,0.0,0.0,0.0
1696075603179,-0.16015625,0.51171875,0.8105469,88.4375,24.625,14.03125,0.0,0.0,0.0
1696075603208,-0.203125,0.5986328,0.81152344,88.25,38.65625,22.15625,0.0,0.0,0.0
1696075603270,-0.23339844,0.5527344,0.7861328,90.8125,35.34375,26.3125,0.0,0.0,0.0
1696075603299,-0.17089844,0.7158203,0.66503906,63.46875,50.84375,21.46875,0.0,0.0,0.0
1696075603359,-0.33398438,0.65234375,0.62109375,67.25,47.375,39.1875,-38.25,-42.125,-92.75
1696075603391,-0.15136719,1.0253906,0.62109375,24.09375,53.78125,15.5,0.0,0.0,0.0
1696075603419,-0.3857422,0.7841797,0.58496094,36.9375,44.75,71.21875,0.0,0.0,0.0
1696075603450,-0.20703125,0.640625,0.5732422,62.0,53.90625,53.59375,0.0,0.0,0.0
1696075603510,-0.20996094,0.6669922,0.61035156,34.40625,60.625,65.84375,0.0,0.0,0.0
1696075603538,-0.18164062,0.8613281,0.49023438,-40.03125,80.875,38.6875,0.0,0.0,0.0
1696075603568,-0.3095703,0.9472656,0.60546875,-6.59375,55.0,97.71875,0.0,0.0,0.0
1696075603629,-0.4326172,0.4267578,0.5234375,-38.625,17.0,88.75,0.0,0.0,0.0
1696075603659,-0.047851562,0.7714844,0.79003906,13.125,5.09375,71.90625,0.0,0.0,0.0
1696075603718,-0.21191406,0.55078125,0.57128906,11.03125,-56.875,79.15625,0.0,0.0,0.0
1696075603752,-0.01171875,0.8984375,0.60546875,42.0625,-47.59375,57.5,0.0,0.0,0.0
1696075603780,-0.016601562,1.0117188,0.95410156,9.15625,-82.25,85.09375,0.0,0.0,0.0
1696075603809,-0.0126953125,0.5878906,0.51953125,-46.625,-91.0,82.15625,-35.125,-42.4375,-94.875
1696075603868,0.25195312,0.5761719,0.56152344,16.96875,-79.9375,10.625,0.0,0.0,0.0
1696075603900,0.359375,0.6894531,0.45703125,33.125,-65.09375,-14.15625,0.0,0.0,0.0
1696075603928,0.40039062,0.7011719,0.4736328,103.28125,-52.21875,-20.4375,0.0,0.0,0.0
1696075604019,0.49414062,0.7109375,0.41796875,42.21875,-71.34375,-2.9375,0.0,0.0,0.0
1696075604023,0.59375,0.60253906,0.2685547,36.125,-49.96875,-6.40625,0.0,0.0,0.0
1696075604048,0.40820312,0.6621094,0.26757812,41.3125,-41.71875,-8.4375,0.0,0.0,0.0
1696075604110,0.60839844,1.0322266,0.049804688,25.09375,-29.65625,-36.9375,0.0,0.0,0.0
1696075604141,0.5097656,0.79589844,0.123046875,56.6875,-28.4375,-8.25,0.0,0.0,0.0
1696075604169,0.47070312,0.88183594,0.04296875,28.3125,-9.5,-37.40625,0.0,0.0,0.0
1696075604228,0.22070312,0.9375,0.16210938,27.21875,16.5,-33.75,0.0,0.0,0.0
1696075604258,0.35058594,1.0478516,0.0859375,-2.6875,27.78125,-50.90625,0.0,0.0,0.0
1696075604290,0.19140625,0.96777344,0.59765625,-0.6875,33.09375,-30.21875,0.0,0.0,0.0
1696075604349,0.056640625,0.82421875,0.28515625,-34.65625,30.90625,-42.96875,-29.375,-34.1875,-104.75
1696075604378,0.08691406,0.9746094,0.41601562,6.96875,55.5625,-42.125,0.0,0.0,0.0
1696075604413,-0.10058594,0.9189453,0.29101562,-3.3125,42.6875,-18.8125,0.0,0.0,0.0
1696075604468,0.0068359375,1.2050781,0.30859375,9.09375,88.9375,-58.0,0.0,0.0,0.0
1696075604499,-0.25195312,0.60253906,0.4453125,19.09375,6.5625,10.1875,0.0,0.0,0.0
1696075604529,-0.17578125,0.83691406,-0.0859375,-19.90625,36.9375,-52.125,0.0,0.0,0.0
1696075604588,0.068359375,1.3544922,0.5078125,98.8125,37.75,-49.875,0.0,0.0,0.0
1696075604618,-0.2421875,0.68847656,0.06640625,-50.1875,7.84375,-11.59375,0.0,0.0,0.0
1696075604651,-0.056640625,1.0068359,0.20800781,53.34375,37.90625,-32.84375,0.0,0.0,0.0
1696075604708,-0.13574219,1.0605469,0.2626953,10.0625,-5.15625,-18.5625,0.0,0.0,0.0
1696075604738,-0.103515625,0.9785156,0.021484375,17.75,16.3125,-17.03125,0.0,0.0,0.0
1696075604771,-0.15234375,0.8964844,0.16210938,18.625,20.40625,-16.84375,0.0,0.0,0.0
1696075604828,-0.15625,1.0273438,0.09863281,19.53125,23.5625,-18.5625,-43.8125,-21.875,-106.6875
1696075604858,-0.17285156,1.0400391,0.19140625,26.84375,14.84375,-0.5,0.0,0.0,0.0
1696075604890,-0.2109375,0.9326172,0.051757812,1.46875,4.09375,3.0625,0.0,0.0,0.0
1696075604948,-0.19433594,0.9394531,0.08105469,5.125,6.78125,2.9375,0.0,0.0,0.0
1696075604980,-0.19726562,0.9863281,0.09375,5.90625,4.34375,-0.5,0.0,0.0,0.0
1696075605009,-0.19335938,1.0019531,0.072265625,3.46875,1.65625,-0.1875,0.0,0.0,0.0
1696075605068,-0.20800781,0.98535156,0.12988281,5.4375,-1.5625,1.9375,0.0,0.0,0.0
1696075605098,-0.16015625,0.9707031,0.07714844,-4.9375,-1.21875,0.78125,0.0,0.0,0.0
1696075605128,-0.17871094,0.9580078,0.11816406,-0.6875,0.4375,2.4375,0.0,0.0,0.0
1696075605189,-0.16503906,0.9746094,0.140625,-1.15625,0.0625,1.78125,0.0,0.0,0.0
1696075605218,-0.16308594,0.9638672,0.12695312,-2.25,-4.75,4.03125,0.0,0.0,0.0
1696075605248,-0.15429688,0.97265625,0.115234375,-4.59375,-5.21875,1.53125,0.0,0.0,0.0
1696075605308,-0.14257812,0.9794922,0.12109375,-3.125,-3.71875,2.0,0.0,0.0,0.0
1696075605339,-0.14648438,0.9589844,0.16113281,-2.8125,-0.34375,1.53125,-44.125,-21.6875,-105.1875
1696075605369,-0.15429688,0.9580078,0.14355469,0.0,-1.21875,2.1875,0.0,0.0,0.0
1696075605430,-0.13476562,0.9638672,0.13671875,0.375,0.625,2.5625,0.0,0.0,0.0
1696075605459,-0.15234375,0.96191406,0.123046875,-2.5,-2.375,4.46875,0.0,0.0,0.0
1696075605489,-0.1328125,0.9863281,0.12207031,-3.0,-2.90625,3.125,0.0,0.0,0.0
1696075605553,-0.15820312,0.9873047,0.13378906,-8.0625,-3.59375,5.6875,0.0,0.0,0.0
1696075605579,-0.14453125,0.95214844,0.17871094,-0.75,-6.03125,6.96875,0.0,0.0,0.0
1696075605608,-0.13378906,0.9511719,0.11425781,-3.1875,-1.6875,4.8125,0.0,0.0,0.0
1696075605669,-0.1328125,0.95703125,0.12695312,-2.9375,-3.40625,4.75,0.0,0.0,0.0
1696075605700,-0.11035156,1.0283203,0.12109375,-7.15625,-0.28125,2.5,0.0,0.0,0.0
1696075605729,-0.13867188,0.93847656,0.171875,-7.03125,-4.0,4.75,0.0,0.0,0.0
1696075605789,-0.1015625,0.96777344,0.18261719,-3.25,3.5,0.25,0.0,0.0,0.0
1696075605819,-0.12402344,0.9707031,0.12792969,-3.96875,-0.21875,2.5625,-42.75,-24.125,-107.0
1696075605879,-0.140625,0.9824219,0.16503906,-0.5625,-3.65625,6.59375,0.0,0.0,0.0
1696075605914,-0.14355469,0.9746094,0.13574219,-7.375,-2.0625,6.71875,0.0,0.0,0.0
1696075605939,-0.13671875,0.96777344,0.11425781,-12.5625,-13.28125,12.28125,0.0,0.0,0.0
1696075605998,-0.103515625,1.0488281,0.16015625,13.59375,-25.375,16.59375,0.0,0.0,0.0
1696075606030,-0.10546875,0.9980469,0.18554688,-4.75,-17.4375,15.9375,0.0,0.0,0.0
1696075606060,-0.09472656,0.93652344,0.18554688,9.34375,-22.4375,27.34375,0.0,0.0,0.0
1696075606088,-0.0146484375,1.1738281,0.16210938,-11.0,-36.78125,39.5625,0.0,0.0,0.0
1696075606149,-0.12890625,1.0751953,0.37402344,31.6875,-60.09375,91.0625,0.0,0.0,0.0
1696075606179,-0.017578125,1.0,0.16699219,5.96875,-37.9375,95.875,0.0,0.0,0.0
1696075606208,0.11621094,0.9238281,0.28808594,8.90625,-36.40625,113.78125,0.0,0.0,0.0
1696075606269,0.18359375,0.9238281,0.12792969,14.53125,-21.21875,104.1875,0.0,0.0,0.0
1696075606300,0.20214844,0.89453125,0.10546875,23.625,-8.34375,92.96875,0.0,0.0,0.0
1696075606328,0.3203125,0.87109375,0.043945312,-11.28125,4.65625,64.15625,-24.0,-34.1875,-108.625
1696075606390,0.3779297,0.7890625,0.001953125,-39.6875,15.34375,43.21875,0.0,0.0,0.0
1696075606418,0.44140625,0.7607422,0.041992188,-11.28125,33.90625,24.71875,0.0,0.0,0.0
1696075606449,0.4736328,0.7861328,0.034179688,-16.375,43.09375,12.625,0.0,0.0,0.0
1696075606509,0.484375,0.8964844,0.064453125,-20.625,33.21875,17.03125,0.0,0.0,0.0
1696075606600,0.38867188,0.8691406,0.21191406,-4.75,45.125,28.75,0.0,0.0,0.0
1696075606602,0.4794922,0.9140625,0.23925781,-30.09375,15.6875,28.5,0.0,0.0,0.0
1696075606629,0.40722656,0.7236328,0.046875,-2.875,-14.21875,40.65625,0.0,0.0,0.0
1696075606658,0.4736328,0.7441406,0.30078125,-9.59375,40.71875,16.21875,0.0,0.0,0.0
1696075606689,0.4951172,0.8720703,0.19335938,-54.375,29.0625,13.65625,0.0,0.0,0.0
1696075606748,0.45410156,0.7783203,0.33007812,-20.09375,24.96875,16.125,0.0,0.0,0.0
1696075606779,0.46972656,0.89160156,0.25585938,-45.71875,61.40625,-10.1875,0.0,0.0,0.0
1696075606809,0.33007812,0.73535156,0.36035156,-56.40625,53.59375,-3.34375,-27.3125,-43.3125,-98.125
1696075606868,0.41796875,0.85058594,0.31445312,-63.90625,56.78125,-14.96875,0.0,0.0,0.0
1696075606899,0.21582031,0.8076172,0.5292969,-49.875,59.65625,-5.9375,0.0,0.0,0.0
1696075606931,0.34570312,0.7392578,0.3388672,-85.5625,34.0625,-5.8125,0.0,0.0,0.0
1696075606988,0.18066406,0.75390625,0.66308594,-60.25,36.03125,17.6875,0.0,0.0,0.0
1696075607018,0.31347656,0.7314453,0.640625,-103.34375,18.28125,34.90625,0.0,0.0,0.0
1696075607049,0.3388672,0.58203125,0.5625,-122.25,9.34375,47.375,0.0,0.0,0.0
1696075607109,0.36132812,0.6123047,0.7607422,-112.0,14.71875,44.90625,0.0,0.0,0.0
1696075607138,0.3388672,0.4501953,0.6582031,-154.40625,-1.5625,54.375,0.0,0.0,0.0
1696075607169,0.37890625,0.36621094,0.8066406,-140.375,19.4375,47.65625,0.0,0.0,0.0
1696075607229,0.4013672,0.23535156,0.93652344,-159.0625,9.65625,30.8125,0.0,0.0,0.0
1696075607258,0.44921875,0.10253906,0.9873047,-155.53125,-10.40625,14.71875,0.0,0.0,0.0
1696075607292,0.45703125,-0.21484375,1.0234375,-119.4375,-4.125,22.8125,0.0,0.0,0.0
1696075607349,0.4013672,-0.45703125,1.0693359,-71.46875,15.9375,21.96875,-35.125,-83.375,-99.0625
1696075607378,0.5263672,-0.6357422,0.8613281,-77.34375,-4.0,39.4375,0.0,0.0,0.0
1696075607409,0.32617188,-0.29296875,0.6796875,-77.625,-18.46875,37.90625,0.0,0.0,0.0
1696075607472,0.3828125,-0.37402344,0.703125,-39.3125,-3.28125,61.8125,0.0,0.0,0.0
1696075607501,0.4267578,-0.11621094,0.89453125,-18.9375,9.125,27.65625,0.0,0.0,0.0
1696075607528,0.4267578,-0.23632812,1.0537109,-20.03125,24.4375,39.125,0.0,0.0,0.0
1696075607588,0.33398438,-0.30566406,0.87109375,-39.84375,-9.375,41.25,0.0,0.0,0.0
1696075607619,0.48632812,-0.1484375,0.79785156,-20.03125,1.65625,25.03125,0.0,0.0,0.0
1696075607649,0.33203125,-0.38964844,0.9326172,-50.53125,4.09375,43.21875,0.0,0.0,0.0
1696075607709,0.33984375,-0.48339844,0.9189453,-31.6875,-3.09375,24.28125,0.0,0.0,0.0
1696075607739,0.40527344,-0.45996094,0.77246094,-45.15625,-8.15625,9.28125,0.0,0.0,0.0
1696075607768,0.33789062,-0.59375,0.86621094,-21.5625,3.96875,4.5,0.0,0.0,0.0
1696075607859,0.32128906,-0.58984375,0.8173828,-9.34375,-3.84375,-10.125,-43.375,-95.0625,-111.0625
1696075607862,0.37597656,-0.58984375,0.76953125,-7.3125,5.4375,-8.125,0.0,0.0,0.0
1696075607888,0.328125,-0.56640625,0.7919922,9.8125,9.59375,-6.59375,0.0,0.0,0.0
1696075607949,0.37304688,-0.54003906,0.8359375,22.46875,3.875,-6.90625,0.0,0.0,0.0
1696075607981,0.3486328,-0.4638672,0.8330078,19.71875,4.21875,-5.625,0.0,0.0,0.0
1696075608009,0.36132812,-0.41503906,0.85546875,24.03125,3.6875,-4.9375,0.0,0.0,0.0
1696075608068,0.38476562,-0.38964844,0.84277344,25.875,1.53125,-4.40625,0.0,0.0,0.0
1696075608099,0.38378906,-0.3623047,0.8808594,23.1875,5.3125,-7.375,0.0,0.0,0.0
1696075608128,0.36035156,-0.3251953,0.86621094,24.96875,2.03125,-8.65625,0.0,0.0,0.0
1696075608220,0.38183594,-0.30859375,0.8691406,21.53125,0.625,-9.78125,0.0,0.0,0.0
1696075608223,0.35253906,-0.29101562,0.8691406,19.65625,3.75,-11.34375,0.0,0.0,0.0
1696075608279,0.3798828,-0.3076172,0.8769531,19.96875,4.46875,-11.0,0.0,0.0,0.0
1696075608308,0.35351562,-0.27246094,0.8886719,14.59375,3.1875,-11.0,0.0,0.0,0.0
1696075608339,0.32617188,-0.23730469,0.85839844,14.03125,0.0625,-10.9375,-40.8125,-92.6875,-104.4375
1696075608369,0.38183594,-0.2529297,0.9082031,11.09375,3.4375,-10.25,0.0,0.0,0.0
1696075608430,0.34765625,-0.20117188,0.8173828,1.03125,-15.0,-7.375,0.0,0.0,0.0
1696075608461,0.36816406,-0.20410156,0.83984375,9.65625,-3.59375,-13.0,0.0,0.0,0.0
1696075608490,0.37890625,-0.19921875,1.0146484,18.5,2.8125,-24.40625,0.0,0.0,0.0
1696075608548,0.49804688,-0.26660156,0.9765625,-0.625,-9.1875,-32.03125,0.0,0.0,0.0
1696075608588,0.45507812,-0.40039062,0.9003906,23.25,-3.09375,-39.90625,0.0,0.0,0.0
1696075608608,0.42382812,-0.5361328,0.9482422,-6.90625,19.96875,-53.65625,0.0,0.0,0.0
1696075608670,0.3798828,-0.38183594,0.88378906,27.46875,3.0,-58.59375,0.0,0.0,0.0
1696075608703,0.52246094,-0.18945312,0.85253906,54.875,3.5,-55.125,0.0,0.0,0.0
1696075608729,0.4267578,-0.3466797,0.9013672,52.0625,25.46875,-58.0,0.0,0.0,0.0
1696075608788,0.5097656,-0.4267578,0.90527344,40.84375,44.75,-70.4375,0.0,0.0,0.0
1696075608819,0.32128906,-0.19824219,0.9326172,84.34375,61.34375,-53.96875,-35.125,-82.625,-98.3125
1696075608852,0.087890625,0.08105469,0.95214844,89.09375,58.96875,-35.46875,0.0,0.0,0.0
1696075608908,0.2578125,0.18359375,0.90722656,95.6875,47.75,-49.5625,0.0,0.0,0.0
1696075608940,0.19238281,0.13867188,0.8105469,81.96875,27.3125,-29.25,0.0,0.0,0.0
1696075608969,0.12695312,0.25976562,0.7841797,85.25,37.5625,-34.3125,0.0,0.0,0.0
1696075609028,0.15039062,0.5214844,0.828125,89.0625,41.15625,-45.46875,0.0,0.0,0.0
1696075609059,0.18066406,0.5605469,0.8095703,86.1875,47.3125,-31.375,0.0,0.0,0.0
1696075609089,0.08203125,0.5957031,0.8046875,77.9375,40.71875,-21.4375,0.0,0.0,0.0
1696075609148,-0.0068359375,0.5722656,0.78515625,90.5,24.625,-11.40625,0.0,0.0,0.0
1696075609179,0.13085938,0.5410156,0.61035156,64.625,30.59375,-14.34375,0.0,0.0,0.0
1696075609208,0.0087890625,0.6376953,0.7548828,91.5625,34.625,-8.5,0.0,0.0,0.0
1696075609268,-0.029296875,0.60058594,0.7001953,80.1875,34.125,-4.28125,0.0,0.0,0.0
1696075609300,-0.0703125,0.58496094,0.6064453,103.875,29.0625,-3.53125,0.0,0.0,0.0
1696075609328,0.015625,0.6748047,0.4013672,121.21875,5.28125,8.1875,-46.0625,-47.9375,-90.5
1696075609388,-0.16210938,1.2880859,0.3515625,97.09375,27.59375,-19.78125,0.0,0.0,0.0
1696075609419,-0.16992188,0.9580078,0.4873047,76.59375,-27.5,9.8125,0.0,0.0,0.0
1696075609448,-0.10058594,0.8701172,0.5361328,38.6875,-13.40625,-32.40625,0.0,0.0,0.0
1696075609479,-0.14746094,0.78222656,0.5751953,21.25,-16.78125,-45.78125,0.0,0.0,0.0
1696075609538,-0.16015625,0.7685547,0.37695312,49.4375,10.28125,-45.90625,0.0,0.0,0.0
1696075609568,-0.16699219,0.93066406,0.4970703,88.9375,7.84375,-46.21875,0.0,0.0,0.0
1696075609599,-0.14941406,0.95410156,0.34570312,27.84375,-5.78125,-18.8125,0.0,0.0,0.0
1696075609658,-0.123046875,0.98535156,0.34277344,48.40625,-13.59375,-6.78125,0.0,0.0,0.0
1696075609688,-0.06933594,0.92285156,0.37890625,35.03125,-20.6875,0.96875,0.0,0.0,0.0
1696075609719,-0.12207031,0.86621094,0.37597656,35.46875,-21.34375,2.4375,0.0,0.0,0.0
1696075609779,-0.07519531,0.86328125,0.3564453,33.03125,-14.875,-8.78125,0.0,0.0,0.0
1696075609811,-0.14746094,0.8671875,0.29785156,35.9375,-9.25,-12.5625,-48.0,-27.125,-102.0625
1696075609848,-0.10546875,0.9472656,0.2421875,31.3125,9.0,-21.25,0.0,0.0,0.0
1696075609899,-0.07714844,0.9160156,0.20019531,20.4375,5.03125,-17.53125,0.0,0.0,0.0
1696075609930,-0.08984375,0.9589844,0.15136719,-1.09375,-8.46875,-16.65625,0.0,0.0,0.0
1696075609959,-0.22460938,0.99902344,0.19335938,-0.25,0.1875,-30.9375,0.0,0.0,0.0
1696075610019,-0.13183594,1.0429688,-0.041992188,-17.34375,25.90625,-41.625,0.0,0.0,0.0
1696075610048,-0.37109375,1.0185547,0.17285156,52.25,33.53125,5.6875,0.0,0.0,0.0
1696075610079,-0.3642578,0.95996094,0.099609375,10.875,16.4375,8.71875,0.0,0.0,0.0
1696075610139,-0.1796875,0.99609375,0.09472656,9.28125,8.0625,12.4375,0.0,0.0,0.0
1696075610169,-0.2890625,0.8964844,0.03515625,1.65625,-4.8125,18.5625,0.0,0.0,0.0
1696075610199,-0.23046875,1.0078125,0.14746094,-5.6875,3.3125,4.5,0.0,0.0,0.0
1696075610259,-0.1796875,1.0517578,0.123046875,-15.9375,2.875,6.40625,0.0,0.0,0.0
1696075610288,-0.18164062,0.98339844,0.13964844,-17.40625,-6.40625,16.90625,0.0,0.0,0.0
1696075610349,-0.12988281,0.9736328,0.24121094,8.3125,-10.90625,22.34375,-49.375,-24.5625,-104.125
1696075610439,-0.23535156,0.92285156,0.23242188,4.9375,-20.5625,47.125,0.0,0.0,0.0
1696075610442,-0.16601562,1.1083984,0.12890625,-0.5625,-29.65625,66.34375,0.0,0.0,0.0
1696075610446,-0.20703125,1.0556641,0.375,31.8125,-39.15625,89.78125,0.0,0.0,0.0
1696075610499,-0.12988281,0.9628906,0.1875,-82.78125,1.1875,38.5,0.0,0.0,0.0
1696075610558,-0.109375,0.8095703,0.25878906,-35.59375,26.5,14.9375,0.0,0.0,0.0
1696075610561,-0.09472656,0.83496094,-0.018554688,-65.375,12.65625,-9.15625,0.0,0.0,0.0
1696075610620,0.12792969,1.0585938,-0.01171875,-58.15625,52.4375,-50.46875,0.0,0.0,0.0
1696075610648,0.064453125,1.0273438,0.10839844,-99.125,42.625,-41.625,0.0,0.0,0.0
1696075610678,0.14550781,0.80566406,0.2890625,-122.3125,16.125,-23.625,0.0,0.0,0.0
1696075610741,-0.057617188,0.9794922,0.5234375,-80.09375,27.53125,-21.84375,0.0,0.0,0.0
1696075610770,-0.08105469,0.7988281,0.7158203,-75.375,-41.78125,3.59375,0.0,0.0,0.0
1696075610799,-0.033203125,0.5566406,0.46484375,-64.34375,-24.40625,-19.84375,0.0,0.0,0.0
1696075610859,-0.08300781,0.890625,0.72558594,-31.0625,-20.75,-21.90625,-48.125,-43.3125,-89.625
1696075610890,-0.14648438,0.70410156,0.6982422,-69.15625,-44.34375,-19.03125,0.0,0.0,0.0
1696075610918,-0.13671875,0.6191406,0.73046875,-60.5625,-42.59375,-12.8125,0.0,0.0,0.0
1696075610981,0.03515625,0.6220703,0.76464844,-53.21875,-40.5625,0.65625,0.0,0.0,0.0
1696075611012,0.041992188,0.60253906,0.8105469,-51.15625,-43.125,17.8125,0.0,0.0,0.0
1696075611038,0.10058594,0.4609375,0.8310547,-30.09375,-51.8125,22.21875,0.0,0.0,0.0
1696075611099,0.049804688,0.40625,0.94140625,2.25,-53.28125,28.5625,0.0,0.0,0.0
1696075611130,-0.016601562,0.6455078,0.671875,39.25,-45.6875,24.71875,0.0,0.0,0.0
1696075611159,0.10644531,0.69628906,0.9296875,25.5,-42.09375,20.875,0.0,0.0,0.0
1696075611219,0.08984375,0.5673828,0.6171875,8.25,-45.9375,2.25,0.0,0.0,0.0
1696075611251,0.032226562,0.6376953,0.85253906,28.5,-59.375,4.21875,0.0,0.0,0.0
1696075611308,0.22363281,0.625,0.7216797,-42.125,-67.84375,-12.75,0.0,0.0,0.0
1696075611338,0.3671875,0.46289062,1.0068359,-15.3125,-53.8125,-41.5,-29.875,-54.6875,-93.625
1696075611370,0.3798828,0.4609375,0.72753906,-50.71875,-93.625,-47.5625,0.0,0.0,0.0
1696075611398,0.41796875,0.61328125,0.7841797,1.03125,-76.71875,-67.25,0.0,0.0,0.0
1696075611459,0.2939453,0.5986328,0.57714844,-34.125,-77.125,-61.15625,0.0,0.0,0.0
1696075611491,0.21777344,0.46484375,0.82128906,-35.28125,-71.28125,-65.8125,0.0,0.0,0.0
1696075611520,0.21289062,0.5888672,0.64941406,-32.78125,-56.25,-80.3125,0.0,0.0,0.0
1696075611579,0.080078125,0.6044922,0.6660156,-54.9375,-54.625,-101.125,0.0,0.0,0.0
1696075611611,0.091796875,0.64453125,0.78027344,-43.875,-14.375,-79.71875,0.0,0.0,0.0
1696075611643,-0.020507812,0.6064453,0.6044922,-54.4375,-2.90625,-62.0625,0.0,0.0,0.0
1696075611698,-0.013671875,0.56152344,0.65625,-79.53125,0.125,-53.03125,0.0,0.0,0.0
1696075611729,0.026367188,0.7080078,0.6738281,-96.875,8.75,-24.21875,0.0,0.0,0.0
1696075611760,0.18847656,0.4375,0.98828125,-116.21875,33.46875,-4.46875,0.0,0.0,0.0
1696075611819,0.057617188,0.44921875,0.79003906,-110.28125,45.0,6.46875,0.0,0.0,0.0
1696075611850,0.040039062,0.24023438,0.9042969,-131.90625,50.75,24.28125,-22.5,-57.4375,-96.1875
1696075611881,0.0068359375,0.17675781,1.0234375,-128.90625,18.4375,20.625,0.0,0.0,0.0
1696075611938,0.1640625,0.12109375,0.8730469,-43.65625,15.40625,80.6875,0.0,0.0,0.0
1696075611968,-0.064453125,0.0390625,1.1777344,-81.3125,31.6875,33.625,0.0,0.0,0.0
1696075611999,0.13476562,-0.030273438,0.9628906,-41.5625,13.1875,33.875,0.0,0.0,0.0
1696075612058,0.123046875,-0.109375,0.92089844,-55.375,42.125,37.96875,0.0,0.0,0.0
1696075612088,-0.0146484375,-0.12597656,1.046875,-56.9375,63.96875,17.9375,0.0,0.0,0.0
1696075612119,-0.1015625,-0.115234375,1.0898438,-50.53125,53.71875,9.9375,0.0,0.0,0.0
1696075612178,-0.125,-0.20703125,1.0703125,-26.5,11.625,1.59375,0.0,0.0,0.0
1696075612210,-0.140625,-0.18945312,1.0009766,-33.3125,-11.28125,9.875,0.0,0.0,0.0
1696075612239,-0.11230469,-0.38964844,1.0146484,-14.90625,-16.46875,12.875,0.0,0.0,0.0
1696075612299,-0.21777344,-0.23144531,0.9794922,8.71875,-10.40625,-9.84375,0.0,0.0,0.0
1696075612328,0.033203125,-0.16894531,1.3496094,-43.875,38.84375,-41.8125,-29.125,-75.4375,-97.375
1696075612360,0.0107421875,-0.13867188,0.41308594,30.8125,-24.65625,-18.9375,0.0,0.0,0.0
1696075612418,-0.076171875,-0.19628906,0.92089844,-8.1875,20.21875,-21.0625,0.0,0.0,0.0
1696075612448,-0.12695312,-0.2998047,0.9980469,-6.90625,39.1875,-28.8125,0.0,0.0,0.0
1696075612479,-0.18554688,-0.16113281,1.0048828,-10.375,-0.46875,-24.59375,0.0,0.0,0.0
1696075612541,-0.07519531,-0.20019531,0.9326172,-17.15625,-7.625,-15.625,0.0,0.0,0.0
1696075612568,-0.09472656,-0.17285156,1.0839844,2.0625,21.75,-26.78125,0.0,0.0,0.0
1696075612600,-0.10058594,-0.09667969,1.0380859,-9.78125,7.21875,-24.46875,0.0,0.0,0.0
1696075612659,-0.091796875,-0.140625,0.8847656,8.96875,10.09375,-3.90625,0.0,0.0,0.0
1696075612689,-0.15234375,-0.15917969,0.96777344,15.0,15.40625,8.0625,0.0,0.0,0.0
1696075612719,-0.2783203,-0.1640625,1.1240234,17.8125,4.84375,26.4375,0.0,0.0,0.0
1696075612779,-0.1015625,-0.16210938,0.9003906,23.75,-41.84375,43.03125,0.0,0.0,0.0
1696075612838,-0.1015625,-0.16796875,0.88964844,23.9375,0.25,41.8125,0.0,0.0,0.0
1696075612841,-0.12695312,-0.076171875,1.0136719,19.40625,-2.71875,39.1875,-31.1875,-71.9375,-98.0
1696075612900,-0.20019531,-0.0859375,0.97558594,24.40625,-16.78125,38.21875,0.0,0.0,0.0
1696075612928,-0.17773438,-0.056640625,0.9433594,23.4375,-14.9375,27.09375,0.0,0.0,0.0
1696075612988,-0.13769531,-0.119140625,1.0273438,15.75,-9.9375,12.9375,0.0,0.0,0.0
1696075613020,-0.12792969,-0.10644531,1.0566406,12.4375,-2.90625,0.84375,0.0,0.0,0.0
1696075613050,-0.046875,-0.076171875,0.9501953,4.34375,-2.4375,-7.625,0.0,0.0,0.0
1696075613078,-0.064453125,-0.0625,0.9550781,3.53125,6.65625,-12.46875,0.0,0.0,0.0
1696075613138,-0.07519531,-0.032226562,1.0097656,1.78125,7.875,-13.375,0.0,0.0,0.0
1696075613170,-0.10058594,-0.030273438,1.0078125,2.375,3.96875,-9.09375,0.0,0.0,0.0
1696075613198,-0.11230469,-0.04296875,0.9765625,3.0,2.9375,-6.34375,0.0,0.0,0.0
1696075613258,-0.13476562,-0.07324219,1.0107422,2.75,5.375,-6.34375,0.0,0.0,0.0
1696075613290,-0.15527344,-0.064453125,0.9824219,7.25,1.40625,-3.3125,0.0,0.0,0.0
1696075613318,-0.125,-0.018554688,0.9638672,6.09375,-4.3125,-2.75,-33.3125,-68.8125,-96.625
1696075613379,-0.14160156,-0.015625,1.0078125,6.15625,3.0,-0.3125,0.0,0.0,0.0
1696075613411,-0.13574219,0.0029296875,0.9902344,11.28125,-0.78125,1.28125,0.0,0.0,0.0
1696075613439,-0.08691406,-0.03515625,1.0117188,10.8125,-5.96875,5.25,0.0,0.0,0.0
1696075613499,-0.06933594,-0.037109375,1.0683594,4.75,-0.65625,3.90625,0.0,0.0,0.0
1696075613529,-0.09082031,-0.060546875,1.0820312,-24.65625,33.65625,2.625,0.0,0.0,0.0
1696075613589,-0.068359375,-0.056640625,0.8779297,1.09375,8.5,1.65625,0.0,0.0,0.0
1696075613620,-0.05859375,-0.051757812,0.9404297,5.96875,3.0625,0.1875,0.0,0.0,0.0
1696075613649,-0.051757812,-0.036132812,0.92578125,8.25,8.3125,-2.5,0.0,0.0,0.0
1696075613679,-0.091796875,-0.0390625,0.9638672,16.96875,6.0625,-1.28125,0.0,0.0,0.0
1696075613739,-0.06738281,-0.01171875,0.953125,26.4375,-13.40625,5.0625,0.0,0.0,0.0
1696075613770,-0.016601562,0.0087890625,1.0039062,29.21875,-12.4375,17.625,0.0,0.0,0.0
1696075613800,0.125,-0.024414062,1.0732422,69.40625,-12.0625,30.8125,0.0,0.0,0.0
1696075613858,0.0,-0.099609375,1.1494141,90.875,-18.84375,23.75,-34.375,-66.5625,-90.8125
1696075613890,-0.01953125,0.14355469,1.2744141,77.9375,1.78125,-1.78125,0.0,0.0,0.0
1696075613921,-0.01953125,0.31347656,1.296875,64.625,41.65625,-16.0625,0.0,0.0,0.0
1696075613978,-0.13769531,0.33691406,1.1035156,68.0625,54.40625,-17.6875,0.0,0.0,0.0
1696075614013,-0.24902344,0.3876953,1.0400391,42.125,89.125,-32.78125,0.0,0.0,0.0
1696075614038,-0.3232422,0.3623047,1.0380859,24.96875,92.90625,-56.75,0.0,0.0,0.0
1696075614098,-0.30859375,0.22558594,0.9267578,3.71875,84.625,-62.6875,0.0,0.0,0.0
1696075614129,-0.52441406,0.19238281,0.8720703,9.53125,95.15625,-62.625,0.0,0.0,0.0
1696075614159,-0.5292969,0.29492188,0.7890625,28.0,109.6875,-73.65625,0.0,0.0,0.0
1696075614280,-0.5107422,0.30371094,0.81152344,33.375,102.0625,-63.90625,0.0,0.0,0.0
1696075614283,-0.8017578,0.25585938,0.6640625,27.53125,108.125,-50.28125,0.0,0.0,0.0
1696075614286,-0.68066406,0.1796875,0.6113281,28.625,125.75,-61.53125,0.0,0.0,0.0
1696075614338,-0.6796875,0.18945312,0.5263672,13.5,140.53125,-76.34375,-62.6875,-51.6875,-92.4375
1696075614369,-0.8330078,0.20996094,0.48535156,3.65625,140.59375,-85.9375,0.0,0.0,0.0
1696075614399,-0.8623047,0.26953125,0.4921875,-26.96875,137.21875,-70.1875,0.0,0.0,0.0
1696075614459,-0.68359375,-0.025390625,0.109375,-45.34375,97.375,-25.5,0.0,0.0,0.0
1696075614489,-0.51953125,-0.1796875,-0.12109375,-12.75,116.53125,-15.9375,0.0,0.0,0.0
1696075614518,-0.6113281,0.08496094,0.005859375,26.78125,99.5625,-4.65625,0.0,0.0,0.0
1696075614579,-0.8408203,0.22460938,0.1796875,67.625,78.8125,0.0,0.0,0.0,0.0
1696075614609,-1.1787109,0.21875,0.2685547,27.90625,1.53125,2.4375,0.0,0.0,0.0
1696075614641,-1.1474609,0.15332031,-0.021484375,-37.0,4.40625,-22.59375,0.0,0.0,0.0
1696075614699,-1.0664062,0.059570312,0.2763672,19.34375,19.125,-1.84375,0.0,0.0,0.0
1696075614728,-0.8984375,-0.056640625,-0.00390625,-49.875,-9.625,-10.625,0.0,0.0,0.0
1696075614758,-0.9736328,0.0126953125,0.053710938,14.34375,31.15625,-9.46875,0.0,0.0,0.0
1696075614822,-1.0585938,0.140625,0.15332031,1.09375,5.375,-10.0,0.0,0.0,0.0
1696075614848,-1.0107422,0.12695312,-0.05078125,-15.9375,1.53125,-12.9375,-85.5,-58.9375,-108.5
1696075614878,-0.99121094,0.08105469,0.052734375,-13.84375,6.3125,-10.8125,0.0,0.0,0.0
1696075614968,-1.0234375,0.053710938,0.040039062,-14.78125,2.8125,-8.25,0.0,0.0,0.0
1696075614972,-0.984375,-0.009765625,0.043945312,-15.5,2.8125,-7.5625,0.0,0.0,0.0
1696075614999,-1.0058594,0.0146484375,0.051757812,-8.125,5.15625,-7.375,0.0,0.0,0.0
1696075615059,-1.0146484,0.00390625,0.05078125,-4.75,3.3125,-4.6875,0.0,0.0,0.0
1696075615119,-1.0117188,0.0087890625,0.017578125,-1.40625,7.28125,-3.125,0.0,0.0,0.0
1696075615122,-1.0146484,0.013671875,0.056640625,-2.5,14.375,-6.78125,0.0,0.0,0.0
1696075615179,-1.0107422,-0.017578125,0.055664062,0.4375,0.1875,-2.4375,0.0,0.0,0.0
1696075615209,-1.0253906,-0.053710938,-9.765625E-4,-2.875,-1.09375,-3.1875,0.0,0.0,0.0
1696075615238,-1.0214844,-0.045898438,0.07910156,8.1875,2.28125,-1.15625,0.0,0.0,0.0
1696075615299,-1.0146484,-0.045898438,0.037109375,2.4375,-1.03125,-1.96875,0.0,0.0,0.0
1696075615329,-0.9902344,-0.04296875,0.03125,4.75,0.03125,-1.21875,-86.875,-61.1875,-110.125
1696075615358,-1.0117188,-0.0146484375,0.068359375,5.96875,4.34375,-0.5,0.0,0.0,0.0
1696075615418,-1.015625,-0.024414062,0.048828125,2.5,0.25,0.5625,0.0,0.0,0.0
1696075615449,-1.0117188,-0.01171875,0.059570312,1.78125,3.625,0.4375,0.0,0.0,0.0
1696075615478,-0.9951172,0.005859375,0.052734375,-5.0625,-2.0625,2.375,0.0,0.0,0.0
1696075615539,-1.015625,0.0107421875,0.055664062,-3.65625,5.21875,1.46875,0.0,0.0,0.0
1696075615569,-1.0205078,0.015625,0.09375,-9.28125,1.1875,2.75,0.0,0.0,0.0
1696075615601,-1.0097656,-0.022460938,0.08300781,-9.9375,1.0,2.3125,0.0,0.0,0.0
1696075615659,-1.015625,-0.009765625,0.064453125,-11.28125,0.4375,1.28125,0.0,0.0,0.0
1696075615691,-1.0166016,-0.018554688,0.053710938,-13.375,-1.5625,1.46875,0.0,0.0,0.0
1696075615718,-1.0039062,-0.0146484375,0.06933594,-10.9375,-2.0625,0.4375,0.0,0.0,0.0
1696075615778,-1.0087891,-0.001953125,0.052734375,-9.09375,-4.625,0.71875,0.0,0.0,0.0
1696075615808,-1.0126953,-0.009765625,0.0546875,-11.28125,-2.71875,0.0,0.0,0.0,0.0
1696075615869,-1.0009766,-0.017578125,0.049804688,-10.125,-4.25,0.78125,-87.4375,-61.3125,-110.625
1696075615901,-1.0234375,-0.026367188,0.04296875,-7.03125,-0.90625,0.84375,0.0,0.0,0.0
1696075615929,-1.0009766,-0.018554688,0.07128906,-4.65625,-1.9375,0.96875,0.0,0.0,0.0
1696075615959,-1.0029297,-0.009765625,0.060546875,0.25,2.28125,1.71875,0.0,0.0,0.0
1696075616019,-1.0195312,-0.005859375,0.046875,0.0625,0.4375,1.40625,0.0,0.0,0.0
1696075616051,-1.0185547,0.015625,0.055664062,-1.53125,1.0,1.03125,0.0,0.0,0.0
1696075616079,-1.0136719,-0.0068359375,0.049804688,-2.3125,-4.5625,1.71875,0.0,0.0,0.0
1696075616138,-1.0087891,-0.0078125,0.032226562,0.0625,-0.15625,-0.3125,0.0,0.0,0.0
1696075616171,-1.0087891,0.0146484375,0.06542969,4.5625,-1.6875,1.65625,0.0,0.0,0.0
1696075616199,-1.0039062,-0.01171875,0.0048828125,10.375,-7.3125,4.875,0.0,0.0,0.0
1696075616258,-1.015625,-0.0146484375,0.08105469,13.84375,2.46875,4.9375,0.0,0.0,0.0
1696075616290,-0.984375,0.0029296875,0.029296875,8.90625,-4.9375,6.90625,0.0,0.0,0.0
1696075616321,-0.9921875,0.0390625,0.013671875,23.8125,2.9375,10.0625,-85.5,-59.375,-109.375
1696075616378,-1.0546875,0.06738281,-0.017578125,16.71875,-4.0,20.4375,0.0,0.0,0.0
1696075616409,-1.0976562,0.22558594,-0.028320312,12.5,8.125,37.0,0.0,0.0,0.0
1696075616439,-0.8417969,0.3125,0.59277344,61.34375,-172.46875,30.75,0.0,0.0,0.0
1696075616469,-0.60839844,-0.068359375,0.12402344,-82.15625,-68.21875,19.40625,0.0,0.0,0.0
1696075616528,-0.8408203,0.23730469,0.28125,-13.625,-63.15625,21.46875,0.0,0.0,0.0
1696075616562,-1.1162109,0.15625,0.20898438,17.15625,7.40625,22.6875,0.0,0.0,0.0
1696075616589,-0.9189453,0.20507812,0.5488281,-90.9375,50.75,-20.21875,0.0,0.0,0.0
1696075616648,-0.9824219,0.203125,0.234375,-187.625,67.8125,-23.5625,0.0,0.0,0.0
1696075616679,-1.3896484,0.13671875,-0.15429688,-180.84375,103.34375,-7.25,0.0,0.0,0.0
1696075616709,-0.5595703,0.12402344,0.08300781,-74.15625,-33.0625,30.28125,0.0,0.0,0.0
1696075616769,-0.96972656,-0.005859375,-0.24316406,-72.09375,-12.6875,37.21875,0.0,0.0,0.0
1696075616829,-1.2695312,-0.01953125,0.072265625,-133.375,35.1875,7.5625,0.0,0.0,0.0
1696075616859,-1.0839844,0.0107421875,0.043945312,-216.5625,6.4375,1.40625,-84.4375,-67.4375,-111.5
1696075616889,-0.98535156,-0.15820312,-0.17089844,-198.3125,0.03125,22.9375,0.0,0.0,0.0
1696075616918,-1.0087891,-0.1328125,-0.087890625,-182.5625,6.25,23.875,0.0,0.0,0.0
1696075616950,-1.0029297,-0.12597656,-0.08300781,-187.8125,9.96875,22.8125,0.0,0.0,0.0
1696075617008,-1.0214844,-0.12402344,-0.0390625,-193.59375,12.34375,25.9375,0.0,0.0,0.0
1696075617038,-1.0488281,-0.29003906,0.024414062,-187.9375,6.4375,31.75,0.0,0.0,0.0
1696075617068,-1.0410156,-0.1796875,-0.14746094,-181.59375,-7.25,26.5,0.0,0.0,0.0
1696075617128,-1.0039062,-0.076171875,0.076171875,-175.59375,-7.0,30.5,0.0,0.0,0.0
1696075617158,-1.0429688,-0.038085938,-0.203125,-219.59375,-9.25,34.53125,0.0,0.0,0.0
1696075617189,-1.2089844,-0.32226562,-0.1796875,-151.375,-33.96875,66.59375,0.0,0.0,0.0
1696075617248,-1.0507812,-0.07519531,-0.13574219,-138.5,-21.65625,69.5625,0.0,0.0,0.0
1696075617280,-0.91503906,0.34472656,-0.1640625,-106.9375,-38.5625,80.5625,0.0,0.0,0.0
1696075617340,-0.9501953,0.140625,0.16601562,-121.59375,3.625,68.84375,-89.375,-66.4375,-132.5
1696075617398,-1.0957031,-0.17480469,0.33789062,-173.84375,-0.34375,61.28125,0.0,0.0,0.0
1696075617403,-1.0195312,-0.0546875,0.36914062,-196.46875,45.375,50.84375,0.0,0.0,0.0
1696075617430,-0.9394531,0.20703125,0.47851562,-258.3125,13.25,43.625,0.0,0.0,0.0
1696075617489,-0.79003906,0.25976562,0.29101562,-210.09375,-59.5,77.34375,0.0,0.0,0.0
1696075617518,-0.7832031,0.060546875,-0.16503906,-86.4375,13.875,74.9375,0.0,0.0,0.0
1696075617548,-1.0126953,0.005859375,0.5234375,-46.28125,65.5,67.0625,0.0,0.0,0.0
1696075617609,-0.9082031,0.25878906,0.32128906,-231.6875,63.3125,45.09375,0.0,0.0,0.0
1696075617640,-0.8515625,0.21679688,0.013671875,-141.96875,82.0,34.90625,0.0,0.0,0.0
1696075617668,-0.9746094,0.15039062,0.3623047,-152.21875,96.40625,20.03125,0.0,0.0,0.0
1696075617729,-0.9453125,0.33691406,0.265625,-214.0,83.28125,1.03125,0.0,0.0,0.0
1696075617758,-1.2851562,0.5498047,0.5527344,-123.34375,53.3125,11.78125,0.0,0.0,0.0
1696075617819,-1.2470703,0.123046875,0.5107422,-240.78125,7.15625,-9.9375,0.0,0.0,0.0
1696075617882,-0.35742188,-0.10644531,-0.35742188,-294.0625,34.9375,3.59375,-90.875,-45.125,-133.5625
1696075617886,-1.3261719,-0.30078125,-0.1015625,37.15625,28.28125,34.78125,0.0,0.0,0.0
1696075617908,-1.1865234,-0.19335938,0.1015625,-94.0,17.28125,14.03125,0.0,0.0,0.0
1696075617968,-1.1464844,-0.10449219,-0.048828125,-247.5,51.59375,-21.65625,0.0,0.0,0.0
1696075617999,-1.0253906,0.0703125,-0.07714844,-277.78125,41.53125,-11.65625,0.0,0.0,0.0
1696075618029,-1.0019531,-0.12402344,-0.3203125,-243.71875,16.8125,18.1875,0.0,0.0,0.0
1696075618118,-0.875,-0.203125,-0.21972656,-238.09375,26.9375,20.4375,0.0,0.0,0.0
1696075618121,-1.0605469,-0.24316406,-0.123046875,-219.59375,32.5,17.09375,0.0,0.0,0.0
1696075618149,-1.1757812,-0.13085938,-0.026367188,-181.9375,18.5625,23.9375,0.0,0.0,0.0
1696075618209,-0.9765625,-0.032226562,-0.13085938,-198.3125,11.5,24.71875,0.0,0.0,0.0
1696075618239,-0.9296875,-0.16113281,-0.234375,-148.25,9.0625,37.59375,0.0,0.0,0.0
1696075618268,-0.9794922,-0.07324219,-0.19140625,-165.34375,27.53125,29.0625,0.0,0.0,0.0
1696075618330,-0.9111328,-0.14160156,-0.25585938,-172.0625,4.40625,41.5625,-90.4375,-45.6875,-121.125
1696075618359,-1.1660156,-0.07324219,0.048828125,-163.5625,27.53125,15.6875,0.0,0.0,0.0
1696075618388,-1.3457031,0.055664062,-0.2890625,-168.09375,-34.03125,26.25,0.0,0.0,0.0
1696075618450,-0.9746094,0.20117188,-0.001953125,-198.5,-48.25,29.71875,0.0,0.0,0.0
1696075618480,-1.2304688,0.0029296875,-0.0234375,-215.53125,-27.6875,51.8125,0.0,0.0,0.0
1696075618508,-0.8232422,0.053710938,-0.07421875,-162.1875,-29.46875,46.875,0.0,0.0,0.0
1696075618568,-0.70214844,0.12597656,0.01171875,-108.71875,-22.0625,79.59375,0.0,0.0,0.0
1696075618600,-1.0732422,0.08105469,0.4482422,-190.5625,-13.90625,77.15625,0.0,0.0,0.0
1696075618628,-0.9140625,0.123046875,0.3095703,-182.4375,-60.40625,93.8125,0.0,0.0,0.0
1696075618689,-0.7685547,0.12890625,0.27539062,-217.71875,-5.40625,88.5,0.0,0.0,0.0
1696075618718,-0.8417969,-0.16699219,0.1171875,-188.53125,39.125,80.1875,0.0,0.0,0.0
1696075618748,-0.8125,-0.10546875,0.3935547,-117.625,61.53125,42.84375,0.0,0.0,0.0
1696075618808,-0.8652344,0.20410156,0.7089844,-140.25,98.46875,12.09375,0.0,0.0,0.0
1696075618840,-0.9267578,0.15039062,0.47558594,-128.90625,77.90625,1.21875,-85.5,-61.4375,-109.375
1696075618868,-1.1230469,0.06347656,0.45117188,-53.28125,92.5,-20.8125,0.0,0.0,0.0
1696075618928,-1.6386719,0.14941406,0.5292969,-125.3125,82.96875,-44.875,0.0,0.0,0.0
1696075618958,-0.64453125,0.18066406,0.7578125,37.15625,8.4375,-15.03125,0.0,0.0,0.0
1696075618989,-0.6767578,0.3095703,-0.3388672,-176.40625,50.0,9.34375,0.0,0.0,0.0
1696075619048,-1.1669922,-0.08105469,0.009765625,70.75,11.0,17.21875,0.0,0.0,0.0
1696075619080,-1.1025391,0.21484375,-0.017578125,-98.21875,47.9375,-8.5,0.0,0.0,0.0
1696075619111,-1.1494141,0.10644531,0.20800781,-155.6875,9.1875,-5.0625,0.0,0.0,0.0
1696075619168,-0.9707031,-0.021484375,-0.18554688,-225.28125,10.09375,-9.875,0.0,0.0,0.0
1696075619198,-0.92578125,-0.09765625,-0.07519531,-153.8125,26.875,5.96875,0.0,0.0,0.0
1696075619228,-1.0439453,0.015625,0.26953125,-157.53125,20.53125,5.0,0.0,0.0,0.0
1696075619288,-1.0439453,-0.028320312,-0.08691406,-182.0,-0.09375,9.6875,0.0,0.0,0.0
1696075619319,-0.98828125,0.024414062,-0.076171875,-198.96875,20.71875,14.21875,-89.25,-71.1875,-132.375
1696075619378,-1.0410156,-0.12207031,-0.08300781,-155.75,18.28125,25.5,0.0,0.0,0.0
1696075619409,-1.0498047,-0.17871094,-0.10253906,-154.53125,15.9375,19.59375,0.0,0.0,0.0
1696075619438,-0.99316406,-0.12207031,-0.02734375,-150.5,4.40625,12.21875,0.0,0.0,0.0
1696075619468,-1.0146484,-0.17285156,-0.057617188,-136.84375,8.1875,12.9375,0.0,0.0,0.0
1696075619530,-1.0351562,-0.13769531,0.037109375,-114.3125,17.46875,20.6875,0.0,0.0,0.0
1696075619558,-1.015625,-0.064453125,0.07324219,-118.46875,14.125,17.34375,0.0,0.0,0.0
1696075619589,-0.9482422,-0.038085938,0.009765625,-122.6875,7.15625,28.1875,0.0,0.0,0.0
1696075619649,-1.0097656,-0.119140625,0.024414062,-141.84375,13.4375,31.8125,0.0,0.0,0.0
1696075619679,-1.1630859,-0.11230469,-0.19726562,-150.21875,2.34375,25.75,0.0,0.0,0.0
1696075619711,-1.0224609,-0.001953125,-0.051757812,-131.15625,-11.15625,-5.625,0.0,0.0,0.0
1696075619769,-1.0527344,0.28027344,-0.03125,-87.46875,-35.8125,12.3125,0.0,0.0,0.0
1696075619799,-1.0205078,0.4111328,-0.005859375,-106.09375,-42.40625,37.34375,0.0,0.0,0.0
1696075619828,-1.0458984,0.34960938,-0.01953125,-124.40625,-58.8125,73.0,-90.4375,-53.6875,-139.375
1696075619891,-0.984375,0.034179688,0.3046875,-188.78125,-43.0625,72.09375,0.0,0.0,0.0
1696075619918,-0.9003906,-0.030273438,0.28710938,-168.34375,-68.84375,86.0,0.0,0.0,0.0
1696075619948,-0.7607422,0.017578125,0.45117188,-165.28125,-22.5625,73.1875,0.0,0.0,0.0
1696075620009,-0.6464844,0.12402344,0.390625,-93.5625,28.03125,62.0,0.0,0.0,0.0
1696075620038,-1.0195312,0.08886719,0.15820312,-94.4375,74.125,16.46875,0.0,0.0,0.0
1696075620069,-0.9453125,0.31445312,0.3310547,-96.4375,109.875,-22.59375,0.0,0.0,0.0
1696075620129,-0.93652344,0.31835938,0.43652344,-174.875,89.6875,-17.40625,0.0,0.0,0.0
1696075620160,-1.3222656,0.35839844,0.27148438,-144.96875,79.25,-1.03125,0.0,0.0,0.0
1696075620188,-1.0458984,0.13867188,0.3359375,-88.5,11.3125,32.53125,0.0,0.0,0.0
1696075620251,-0.359375,-0.24121094,0.43359375,-170.78125,-28.125,20.4375,0.0,0.0,0.0
1696075620278,-1.0458984,-0.022460938,-0.13964844,-73.1875,34.875,4.21875,0.0,0.0,0.0
1696075620308,-1.1035156,-0.016601562,0.13867188,-78.5625,21.125,-1.65625,-88.375,-41.8125,-128.75
1696075620399,-1.1279297,0.13671875,0.029296875,-65.96875,10.8125,19.90625,0.0,0.0,0.0
1696075620402,-1.0644531,0.09375,0.13769531,-113.28125,3.8125,6.84375,0.0,0.0,0.0
1696075620427,-1.0527344,0.0048828125,-0.0625,-137.5625,11.90625,4.875,0.0,0.0,0.0
1696075620492,-1.0224609,-0.08984375,-0.03125,-129.34375,25.78125,12.15625,0.0,0.0,0.0
1696075620519,-0.97265625,-0.078125,0.17578125,-140.8125,15.34375,19.53125,0.0,0.0,0.0
1696075620548,-0.98339844,-0.08691406,-0.07714844,-149.0625,8.4375,28.4375,0.0,0.0,0.0
1696075620610,-1.0097656,-0.044921875,-0.044921875,-118.03125,11.5,25.6875,0.0,0.0,0.0
1696075620668,-1.0283203,0.0234375,0.030273438,-107.78125,16.875,30.15625,0.0,0.0,0.0
1696075620672,-1.0615234,-0.0029296875,0.04296875,-98.28125,25.40625,27.84375,0.0,0.0,0.0
1696075620731,-1.015625,0.038085938,0.053710938,-99.25,17.84375,28.0,0.0,0.0,0.0
1696075620760,-1.0361328,-0.0390625,-0.022460938,-88.4375,4.96875,41.5625,0.0,0.0,0.0
1696075620789,-1.1035156,0.16503906,-0.029296875,-105.28125,-1.8125,45.09375,0.0,0.0,0.0
1696075620849,-0.9746094,-0.044921875,-0.18847656,-137.8125,-6.03125,54.125,-84.75,-38.9375,-118.375
1696075620878,-1.1787109,-0.13964844,0.095703125,-89.125,-4.375,28.9375,0.0,0.0,0.0
1696075620909,-1.1445312,0.34960938,0.54003906,-122.5,30.09375,46.5,0.0,0.0,0.0
1696075620969,-1.0517578,0.28125,0.3330078,-109.9375,-35.1875,56.75,0.0,0.0,0.0
1696075620998,-0.7011719,0.2421875,0.39941406,-155.40625,-20.5625,53.28125,0.0,0.0,0.0
1696075621028,-0.8046875,0.07421875,0.22558594,-190.5,-1.09375,49.125,0.0,0.0,0.0
1696075621089,-0.7949219,0.09277344,0.27441406,-80.8125,-1.03125,45.46875,0.0,0.0,0.0
1696075621119,-0.70214844,0.29589844,0.2890625,-52.75,40.4375,21.78125,0.0,0.0,0.0
1696075621150,-1.0595703,0.18164062,0.3515625,-86.625,83.5625,-10.75,0.0,0.0,0.0
1696075621208,-0.9140625,0.01171875,0.19335938,-188.71875,102.1875,-39.96875,0.0,0.0,0.0
1696075621238,-0.93066406,0.17773438,0.19628906,-170.40625,111.40625,-51.28125,0.0,0.0,0.0
1696075621269,-1.0253906,0.11621094,0.020507812,-26.84375,77.71875,-14.96875,0.0,0.0,0.0
1696075621328,-1.3134766,0.21679688,0.17578125,-19.34375,63.125,-16.84375,-87.3125,-55.0,-112.25
1696075621359,-1.0029297,0.10253906,0.28710938,-21.90625,2.75,13.125,0.0,0.0,0.0
1696075621391,-0.7861328,-0.08105469,-0.030273438,-86.0625,-0.28125,-2.8125,0.0,0.0,0.0
1696075621448,-1.0244141,-0.11621094,0.13574219,8.125,-29.59375,20.09375,0.0,0.0,0.0
1696075621479,-1.2363281,-0.2265625,0.12792969,23.75,-16.84375,-0.125,0.0,0.0,0.0
1696075621508,-0.9580078,0.0078125,0.07714844,-47.3125,11.90625,-21.5,0.0,0.0,0.0
1696075621568,-1.0488281,-0.034179688,0.18359375,-14.03125,10.40625,-6.34375,0.0,0.0,0.0
1696075621598,-1.0087891,-0.034179688,0.12988281,28.1875,-8.78125,-2.375,0.0,0.0,0.0
1696075621630,-0.96972656,0.07324219,0.07519531,-8.96875,0.125,-7.25,0.0,0.0,0.0
1696075621688,-1.0263672,0.11425781,0.23046875,-7.9375,6.1875,-0.375,0.0,0.0,0.0
1696075621718,-1.0429688,-0.044921875,-0.025390625,-17.46875,-1.09375,3.78125,0.0,0.0,0.0
1696075621750,-1.0322266,-0.072265625,-0.07324219,10.5625,-2.84375,-2.25,0.0,0.0,0.0
1696075621809,-0.984375,0.08691406,-0.001953125,29.1875,-3.40625,-6.09375,0.0,0.0,0.0
1696075621838,-0.9794922,0.0859375,0.07324219,20.8125,0.5,-0.84375,-87.3125,-55.75,-111.8125
1696075621869,-1.0605469,0.06347656,0.024414062,-3.25,-1.03125,-0.96875,0.0,0.0,0.0
1696075621961,-1.0009766,0.06347656,-0.08105469,-12.625,-9.4375,4.40625,0.0,0.0,0.0
1696075621963,-0.9902344,0.14746094,-0.119140625,-20.5625,-9.375,7.9375,0.0,0.0,0.0
1696075621991,-0.9902344,0.13085938,-0.17871094,-17.8125,-12.0625,18.96875,0.0,0.0,0.0
1696075622079,-0.9716797,0.025390625,-0.08300781,18.78125,-12.96875,26.84375,0.0,0.0,0.0
1696075622082,-0.9716797,0.08496094,-0.11816406,1.28125,-35.625,20.03125,0.0,0.0,0.0
1696075622108,-1.0078125,0.18652344,-0.08300781,30.5,-32.9375,17.34375,0.0,0.0,0.0
1696075622170,-0.8574219,0.12402344,0.034179688,1.84375,-28.125,4.40625,0.0,0.0,0.0
1696075622198,-0.93847656,0.125,0.12011719,-26.6875,-18.71875,-2.6875,0.0,0.0,0.0
1696075622228,-1.09375,0.053710938,0.48535156,14.21875,-98.0,18.125,0.0,0.0,0.0
1696075622289,-0.8027344,0.0859375,0.49609375,-49.9375,-126.3125,9.03125,0.0,0.0,0.0
1696075622319,-0.5214844,0.17089844,0.29589844,9.53125,-143.0625,27.84375,-76.375,-55.9375,-99.9375
1696075622348,-0.5957031,-0.038085938,0.2939453,2.25,-136.6875,18.0,0.0,0.0,0.0
1696075622409,-0.5830078,0.18164062,0.6923828,17.875,-233.0,52.96875,0.0,0.0,0.0
1696075622438,-0.4970703,0.17773438,0.7470703,-45.46875,-153.4375,12.28125,0.0,0.0,0.0
1696075622468,-0.5498047,0.053710938,0.51953125,1.9375,-138.28125,17.8125,0.0,0.0,0.0
1696075622531,-0.7832031,0.040039062,1.0683594,-3.0,-155.25,14.34375,0.0,0.0,0.0
1696075622559,-0.48828125,0.22949219,0.5810547,-31.0,-109.84375,-6.71875,0.0,0.0,0.0
1696075622588,-0.49316406,0.16308594,0.9267578,-23.4375,-120.71875,1.09375,0.0,0.0,0.0
1696075622678,-0.4033203,0.21875,0.99609375,-21.25,-110.875,-3.0,0.0,0.0,0.0
1696075622681,-0.2861328,0.13085938,0.9423828,-19.78125,-105.15625,4.09375,0.0,0.0,0.0
1696075622709,-0.09472656,0.068359375,1.1357422,-23.5625,-101.1875,-0.96875,0.0,0.0,0.0
1696075622768,-0.0625,-0.024414062,1.6132812,-26.84375,-72.375,17.8125,0.0,0.0,0.0
1696075622800,-0.14453125,0.037109375,1.4277344,-34.3125,-46.4375,10.9375,0.0,0.0,0.0
1696075622828,0.08886719,-0.047851562,1.5048828,-9.34375,-3.21875,-10.6875,-29.5625,-60.4375,-96.0625
1696075622889,0.34375,-0.091796875,0.9267578,-17.09375,9.0,-7.09375,0.0,0.0,0.0
1696075622920,0.2265625,-0.037109375,0.8388672,-22.875,24.375,-4.09375,0.0,0.0,0.0
1696075622948,-0.01171875,-0.03125,0.8828125,-36.4375,20.40625,1.78125,0.0,0.0,0.0
1696075623010,-0.13574219,0.020507812,0.8730469,-45.46875,12.40625,-5.3125,0.0,0.0,0.0
1696075623070,-0.15039062,-0.09667969,0.9667969,-39.0625,-3.46875,-5.875,0.0,0.0,0.0
1696075623073,-0.22949219,-0.11425781,0.9375,-38.5,-17.6875,-5.625,0.0,0.0,0.0
1696075623128,-0.2705078,-0.19628906,1.3339844,2.3125,-19.9375,-5.3125,0.0,0.0,0.0
1696075623158,-0.013671875,-0.125,1.0332031,1.28125,-20.84375,-12.6875,0.0,0.0,0.0
1696075623219,-0.059570312,-0.14746094,0.91015625,12.03125,1.0625,-10.5,0.0,0.0,0.0
1696075623248,-0.033203125,-0.060546875,0.8730469,-3.1875,14.3125,-15.1875,0.0,0.0,0.0
1696075623278,0.06542969,-0.06542969,0.90722656,-7.03125,21.6875,-11.21875,0.0,0.0,0.0
1696075623309,0.037109375,-0.038085938,0.90722656,-8.375,19.59375,1.71875,-32.25,-66.25,-94.875
1696075623370,-0.0068359375,-0.051757812,0.9873047,10.375,10.875,12.03125,0.0,0.0,0.0
1696075623403,-0.390625,-0.08496094,1.1445312,-0.3125,-19.03125,25.9375,0.0,0.0,0.0
1696075623429,0.07128906,-0.041015625,1.0263672,7.5,-25.375,12.15625,0.0,0.0,0.0
1696075623458,-0.060546875,-0.12597656,0.8701172,-2.25,11.125,21.125,0.0,0.0,0.0
1696075623519,-0.19140625,-0.171875,1.0429688,-15.1875,11.5,14.71875,0.0,0.0,0.0
1696075623549,-0.17285156,-0.17871094,1.0,-16.65625,14.375,12.625,0.0,0.0,0.0
1696075623579,-0.13769531,-0.21484375,1.0341797,-7.09375,-4.4375,4.5625,0.0,0.0,0.0
1696075623639,-0.06542969,-0.18066406,0.9609375,5.84375,-1.8125,-1.34375,0.0,0.0,0.0
1696075623670,-0.07519531,-0.18359375,1.0722656,3.40625,16.125,-9.9375,0.0,0.0,0.0
1696075623698,-0.0703125,-0.20410156,0.97558594,9.40625,8.0625,-7.75,0.0,0.0,0.0
1696075623759,-0.14941406,-0.16796875,1.0644531,21.78125,8.0,-5.1875,0.0,0.0,0.0
1696075623789,-0.12695312,-0.23339844,0.984375,31.0,-5.21875,-0.0625,0.0,0.0,0.0
1696075623849,-0.16796875,-0.15234375,1.0507812,60.65625,1.78125,2.875,-33.0,-65.1875,-93.8125
1696075623878,-0.1328125,-0.047851562,0.9765625,53.84375,-0.84375,-3.25,0.0,0.0,0.0
1696075623911,-0.14453125,-0.020507812,1.0205078,49.1875,10.09375,-7.5625,0.0,0.0,0.0
1696075623941,-0.06542969,0.015625,0.9267578,51.34375,8.6875,-8.71875,0.0,0.0,0.0
1696075623998,-0.10644531,0.013671875,1.0185547,63.0,27.1875,-11.84375,0.0,0.0,0.0
1696075624033,-0.109375,0.051757812,0.9638672,69.75,33.84375,-17.15625,0.0,0.0,0.0
1696075624061,-0.17480469,0.19628906,0.86816406,54.1875,39.6875,-16.0,0.0,0.0,0.0
1696075624118,-0.17773438,0.22851562,0.921875,73.375,46.21875,-9.46875,0.0,0.0,0.0
1696075624148,-0.171875,0.2783203,0.828125,96.8125,45.25,0.78125,0.0,0.0,0.0
1696075624179,-0.31152344,0.27246094,0.8769531,76.34375,20.28125,34.125,0.0,0.0,0.0
1696075624238,-0.32421875,0.3251953,0.68066406,98.375,36.8125,1.78125,0.0,0.0,0.0
1696075624298,-0.1796875,0.6582031,1.0097656,162.21875,8.125,30.46875,0.0,0.0,0.0
1696075624330,-0.5830078,0.578125,0.66796875,112.3125,42.1875,20.8125,-39.75,-41.375,-95.125
1696075624358,-0.3408203,0.6621094,0.71777344,91.78125,74.34375,-3.96875,0.0,0.0,0.0
1696075624390,-0.38476562,0.8359375,0.5390625,70.96875,95.46875,11.40625,0.0,0.0,0.0
1696075624421,-0.3857422,0.86035156,0.6298828,69.46875,80.28125,18.84375,0.0,0.0,0.0
1696075624509,-0.5048828,0.8378906,0.5595703,31.4375,68.3125,54.3125,0.0,0.0,0.0
1696075624511,-0.4873047,0.6611328,0.4169922,8.78125,76.0,59.5625,0.0,0.0,0.0
1696075624540,-0.48535156,0.6767578,0.51660156,20.1875,86.8125,55.0,0.0,0.0,0.0
1696075624600,-0.41503906,0.79785156,0.375,-28.4375,81.0,62.25,0.0,0.0,0.0
1696075624629,-0.49902344,0.921875,0.49023438,17.28125,76.4375,73.375,0.0,0.0,0.0
1696075624690,-0.5625,0.71777344,0.46875,-24.96875,31.9375,85.6875,0.0,0.0,0.0
1696075624719,-0.30566406,0.87402344,0.4375,-35.78125,63.90625,64.4375,0.0,0.0,0.0
1696075624748,-0.5527344,0.6953125,0.5205078,0.65625,19.5625,83.75,0.0,0.0,0.0
1696075624780,-0.359375,0.6933594,0.3515625,9.28125,13.6875,84.96875,0.0,0.0,0.0
1696075624839,-0.421875,0.76660156,0.41308594,3.21875,1.375,84.59375,-46.1875,-33.125,-99.0625
1696075624868,-0.4658203,0.7265625,0.33789062,-29.65625,-40.5,93.3125,0.0,0.0,0.0
1696075624898,-0.13378906,0.625,0.48046875,-32.40625,-71.875,104.5625,0.0,0.0,0.0
1696075624960,-0.072265625,1.078125,0.6347656,-5.625,-64.375,81.90625,0.0,0.0,0.0
1696075624988,0.18457031,0.9580078,0.5253906,2.125,-96.90625,85.625,0.0,0.0,0.0
1696075625018,0.41210938,0.81640625,0.5205078,-3.78125,-109.34375,56.21875,0.0,0.0,0.0
1696075625079,0.49902344,0.7949219,0.040039062,-31.0,-128.84375,50.15625,0.0,0.0,0.0
1696075625108,0.7294922,0.984375,0.26757812,38.3125,-146.40625,31.5,0.0,0.0,0.0
1696075625139,0.39257812,0.4169922,0.77441406,-11.34375,-128.9375,95.6875,0.0,0.0,0.0
1696075625199,0.6826172,0.36035156,-0.060546875,-44.4375,-90.5625,44.84375,0.0,0.0,0.0
1696075625229,0.6044922,0.54003906,0.07128906,39.0,-32.40625,12.3125,0.0,0.0,0.0
1696075625258,0.6855469,0.8457031,-0.099609375,21.0625,-54.84375,-6.53125,0.0,0.0,0.0
1696075625320,0.36328125,0.79003906,0.07421875,83.1875,-56.0625,-4.8125,0.0,0.0,0.0
1696075625348,0.73339844,1.0576172,0.20996094,11.15625,-57.40625,-74.15625,-15.625,-38.9375,-110.125
1696075625379,0.70996094,0.7734375,0.58496094,86.96875,-42.03125,-28.375,0.0,0.0,0.0
1696075625438,0.5966797,0.5341797,0.21777344,-31.125,-26.84375,-84.46875,0.0,0.0,0.0
1696075625469,0.6748047,0.90527344,0.38671875,5.0625,32.625,-92.90625,0.0,0.0,0.0
1696075625499,0.4169922,0.86035156,0.31347656,3.46875,26.03125,-92.40625,0.0,0.0,0.0
1696075625558,0.24121094,0.7753906,0.16503906,-10.875,29.5,-90.03125,0.0,0.0,0.0
1696075625588,0.13183594,0.8154297,0.23632812,32.78125,69.96875,-102.96875,0.0,0.0,0.0
1696075625619,0.10839844,0.9394531,0.12792969,-23.5,51.46875,-106.4375,0.0,0.0,0.0
1696075625680,0.0087890625,1.0888672,0.07910156,-0.84375,108.90625,-105.96875,0.0,0.0,0.0
1696075625709,-0.1953125,0.93066406,0.28808594,52.4375,77.40625,-82.59375,0.0,0.0,0.0
1696075625800,-0.27734375,0.91503906,0.001953125,-24.96875,29.75,-75.5,0.0,0.0,0.0
1696075625806,-0.19238281,1.1201172,-0.15234375,22.09375,60.1875,-63.59375,0.0,0.0,0.0
1696075625830,-0.46679688,0.92089844,0.034179688,18.1875,49.21875,-33.6875,-43.5,-17.6875,-110.4375
1696075625858,-0.47753906,1.1914062,0.13574219,25.8125,23.875,-6.46875,0.0,0.0,0.0
1696075625919,-0.25878906,1.1113281,0.038085938,-4.75,-8.90625,27.09375,0.0,0.0,0.0
1696075625949,-0.19921875,0.86621094,-0.13378906,-38.15625,5.4375,30.03125,0.0,0.0,0.0
1696075625979,-0.2890625,0.8535156,-0.021484375,1.59375,27.0,0.78125,0.0,0.0,0.0
1696075626038,-0.22070312,1.0673828,0.14648438,12.625,9.84375,-6.28125,0.0,0.0,0.0
1696075626073,-0.24902344,0.9580078,0.08984375,10.8125,4.84375,-0.96875,0.0,0.0,0.0
1696075626098,-0.171875,1.0224609,0.12402344,-7.15625,2.6875,1.46875,0.0,0.0,0.0
1696075626159,-0.21289062,0.9941406,0.13671875,-9.53125,1.90625,12.5,0.0,0.0,0.0
1696075626189,-0.23046875,0.921875,0.072265625,-12.28125,-9.8125,15.6875,0.0,0.0,0.0
1696075626220,-0.16894531,0.96777344,0.09863281,-15.625,-12.6875,9.8125,0.0,0.0,0.0
1696075626278,-0.18652344,0.9628906,0.13574219,-1.21875,-17.6875,11.34375,0.0,0.0,0.0
1696075626309,-0.11230469,1.0449219,0.16601562,3.96875,-20.1875,11.28125,0.0,0.0,0.0
1696075626339,-0.12109375,0.93652344,0.15917969,7.125,-17.875,22.59375,-40.0625,-18.125,-109.6875
1696075626398,-0.08984375,1.0087891,0.064453125,-3.71875,-8.59375,27.9375,0.0,0.0,0.0
1696075626429,-0.123046875,0.9785156,0.12402344,7.9375,-16.34375,35.15625,0.0,0.0,0.0
1696075626462,-0.08496094,0.9033203,0.15039062,3.90625,-10.46875,23.3125,0.0,0.0,0.0
1696075626518,-0.076171875,0.9189453,0.20117188,17.46875,2.6875,13.71875,0.0,0.0,0.0
1696075626553,-0.055664062,0.9638672,0.16699219,0.3125,4.78125,0.0625,0.0,0.0,0.0
1696075626579,-0.0078125,0.96777344,0.15039062,-16.46875,8.6875,-6.15625,0.0,0.0,0.0
1696075626638,-0.045898438,0.9511719,0.14160156,-11.125,11.0,-8.71875,0.0,0.0,0.0
1696075626668,-0.016601562,0.9746094,0.17675781,-13.0,10.34375,-11.65625,0.0,0.0,0.0
1696075626700,-0.053710938,0.94921875,0.15527344,-5.375,8.1875,-15.75,0.0,0.0,0.0
1696075626759,-0.083984375,0.9658203,0.16210938,1.34375,11.1875,-20.5625,0.0,0.0,0.0
1696075626788,-0.10839844,0.9951172,0.20117188,26.71875,11.0,-8.65625,0.0,0.0,0.0
1696075626819,-0.14550781,1.0166016,0.10058594,24.09375,0.9375,6.28125,-39.4375,-16.75,-110.625
1696075626880,-0.091796875,1.0263672,0.10644531,-6.78125,-8.09375,4.9375,0.0,0.0,0.0
1696075626909,-0.15429688,0.9238281,0.053710938,-7.625,-12.125,0.71875,0.0,0.0,0.0
1696075626940,-0.1640625,1.0527344,0.09472656,5.3125,-14.25,-2.875,0.0,0.0,0.0
1696075626999,-0.15917969,1.0585938,0.08886719,22.6875,-22.5,10.75,0.0,0.0,0.0
1696075627060,-0.0390625,1.2851562,0.15917969,45.71875,-36.40625,42.84375,0.0,0.0,0.0
1696075627063,-0.05859375,1.1376953,0.35742188,25.21875,-36.40625,94.96875,0.0,0.0,0.0
1696075627119,-0.0625,1.0253906,-0.025390625,1.78125,-43.5625,146.96875,0.0,0.0,0.0
1696075627152,0.030273438,0.99316406,-0.09667969,68.1875,-36.53125,166.0,0.0,0.0,0.0
1696075627178,-0.119140625,0.90722656,0.051757812,61.34375,-49.59375,173.46875,0.0,0.0,0.0
1696075627238,0.15136719,0.8613281,-0.047851562,40.40625,-32.75,140.3125,0.0,0.0,0.0
1696075627268,0.3076172,0.8183594,-0.0625,-7.4375,-45.28125,123.71875,0.0,0.0,0.0
1696075627298,0.39257812,0.5703125,-0.16699219,18.6875,-45.28125,98.03125,0.0,0.0,0.0
1696075627359,0.75683594,0.54589844,-0.4638672,-40.96875,-5.59375,60.53125,-11.5625,-35.5,-123.1875
1696075627389,0.6386719,0.96484375,0.020507812,-26.125,50.84375,44.3125,0.0,0.0,0.0
1696075627419,0.49609375,0.625,-0.21875,-45.15625,50.3125,11.15625,0.0,0.0,0.0
1696075627480,0.61328125,0.76171875,-0.2763672,-32.03125,66.4375,-50.46875,0.0,0.0,0.0
1696075627508,0.78222656,1.0097656,-0.24804688,-107.0625,57.8125,-64.53125,0.0,0.0,0.0
1696075627538,0.7011719,0.80859375,0.29785156,-130.0625,54.03125,-27.15625,0.0,0.0,0.0
1696075627601,0.64453125,0.66796875,-0.0029296875,-166.3125,83.40625,-41.8125,0.0,0.0,0.0
1696075627630,0.5908203,0.05859375,-0.0048828125,-59.15625,141.875,-36.5,0.0,0.0,0.0
1696075627658,0.46289062,0.44433594,0.5917969,-55.84375,59.71875,-105.34375,0.0,0.0,0.0
1696075627719,0.68066406,0.7314453,0.34765625,-113.46875,8.625,-103.15625,0.0,0.0,0.0
1696075627751,0.6347656,0.7451172,0.6142578,6.96875,93.65625,-146.65625,0.0,0.0,0.0
1696075627779,0.12207031,1.3242188,1.0126953,-34.0,37.375,-68.0625,0.0,0.0,0.0
1696075627839,0.17675781,0.6689453,0.5214844,-94.3125,9.96875,-50.78125,-30.875,-37.1875,-95.75
1696075627869,-0.0068359375,0.62597656,0.65234375,-46.375,-14.375,-35.46875,0.0,0.0,0.0
1696075627898,0.0390625,0.8417969,0.8701172,-41.375,-34.09375,-56.15625,0.0,0.0,0.0
1696075627958,-0.10644531,0.5996094,0.72265625,-15.125,-45.875,-10.0,0.0,0.0,0.0
1696075627989,-0.09082031,0.76953125,0.6503906,17.21875,-45.09375,-27.96875,0.0,0.0,0.0
1696075628019,0.1171875,0.7080078,0.76953125,-2.875,-40.09375,-27.71875,0.0,0.0,0.0
1696075628082,-0.041015625,0.6269531,0.625,10.125,-27.375,-34.71875,0.0,0.0,0.0
1696075628108,0.21289062,0.78222656,0.7050781,-2.9375,-16.46875,-38.5,0.0,0.0,0.0
1696075628138,0.061523438,0.71191406,0.6308594,-21.375,-8.15625,-31.375,0.0,0.0,0.0
1696075628198,0.091796875,0.76953125,0.5576172,-32.90625,21.9375,-43.34375,0.0,0.0,0.0
1696075628230,-0.17578125,0.6796875,0.43652344,-10.5,6.375,-31.625,0.0,0.0,0.0
1696075628260,-0.18164062,0.79785156,0.6015625,26.5625,0.375,-21.65625,0.0,0.0,0.0
1696075628349,-0.08203125,0.8847656,0.67285156,12.3125,-1.4375,-21.71875,0.0,0.0,0.0
1696075628352,-0.044921875,0.7919922,0.609375,-22.65625,-17.0625,5.625,-30.3125,-38.9375,-96.8125
1696075628379,-0.048828125,0.6357422,0.6503906,-39.625,-22.9375,-7.03125,0.0,0.0,0.0
1696075628438,0.048828125,0.6904297,0.7871094,-46.6875,-13.96875,-23.8125,0.0,0.0,0.0
1696075628471,-0.0146484375,0.5654297,0.71484375,-52.625,-18.125,-29.46875,0.0,0.0,0.0
1696075628499,0.103515625,0.6503906,0.6923828,-31.625,-17.1875,-36.1875,0.0,0.0,0.0
1696075628559,0.0087890625,0.6699219,0.7705078,-36.6875,-15.71875,-47.375,0.0,0.0,0.0
1696075628588,0.028320312,0.63964844,0.640625,-68.1875,-22.6875,-56.53125,0.0,0.0,0.0
1696075628619,0.080078125,0.58691406,0.6640625,-66.09375,9.1875,-36.375,0.0,0.0,0.0
1696075628678,-0.1171875,0.5517578,0.7988281,-79.21875,6.84375,-44.4375,0.0,0.0,0.0
1696075628710,-0.11425781,0.50390625,0.7861328,-60.5,31.15625,-44.8125,0.0,0.0,0.0
1696075628738,-0.18652344,0.52246094,0.8642578,-65.75,43.53125,-26.0,0.0,0.0,0.0
1696075628829,-0.24316406,0.4296875,0.8876953,-109.5,50.96875,-17.28125,-33.125,-50.0625,-92.3125
1696075628832,-0.3076172,0.22070312,0.9326172,-110.15625,36.5625,1.03125,0.0,0.0,0.0
1696075628858,-0.15136719,0.2685547,0.8095703,-116.03125,23.5,12.03125,0.0,0.0,0.0
1696075628919,-0.2763672,0.15722656,0.8955078,-109.5625,26.1875,15.3125,0.0,0.0,0.0
1696075628949,-0.2626953,0.087890625,1.0166016,-88.5,-5.78125,-0.1875,0.0,0.0,0.0
1696075628980,-0.29589844,0.06542969,1.1044922,-47.125,-10.53125,-13.5,0.0,0.0,0.0
1696075629039,-0.3388672,0.030273438,1.0244141,-57.375,-17.625,-28.4375,0.0,0.0,0.0
1696075629068,-0.125,-0.08984375,1.0029297,-40.40625,-33.375,-17.59375,0.0,0.0,0.0
1696075629099,-0.0546875,-0.109375,0.9814453,-46.3125,-8.84375,-1.28125,0.0,0.0,0.0
1696075629159,-0.22851562,-0.27929688,0.984375,-45.03125,1.25,-6.21875,0.0,0.0,0.0
1696075629189,-0.3203125,-0.390625,1.0703125,-55.3125,-0.90625,-11.28125,0.0,0.0,0.0
1696075629219,-0.19042969,-0.42089844,1.0439453,-41.6875,-11.59375,-5.75,0.0,0.0,0.0
1696075629278,-0.07128906,-0.2109375,1.0742188,-58.34375,11.0625,-11.0625,0.0,0.0,0.0
1696075629308,-0.041015625,-0.18847656,0.8378906,-20.4375,-1.8125,-14.90625,0.0,0.0,0.0
1696075629338,-0.19824219,-0.3466797,0.85839844,-30.9375,-65.03125,-12.5,-29.875,-68.9375,-98.75
1696075629399,-0.036132812,-0.4140625,0.9609375,-13.75,-28.59375,-6.84375,0.0,0.0,0.0
1696075629428,-0.5878906,-0.061523438,1.1191406,59.25,55.0625,24.90625,0.0,0.0,0.0
1696075629458,-0.047851562,-0.29101562,0.8359375,21.40625,-3.03125,16.125,0.0,0.0,0.0
1696075629521,-0.25390625,-0.33007812,0.8671875,18.4375,16.0625,14.28125,0.0,0.0,0.0
1696075629549,-0.001953125,-0.10449219,1.0244141,26.0,3.75,9.75,0.0,0.0,0.0
1696075629641,-0.034179688,-0.1015625,0.90234375,25.625,10.21875,11.84375,0.0,0.0,0.0
1696075629644,-0.11621094,-0.15234375,0.9824219,38.6875,5.28125,28.75,0.0,0.0,0.0
1696075629669,-0.051757812,-0.16992188,1.0029297,51.8125,7.09375,32.15625,0.0,0.0,0.0
1696075629699,0.0146484375,-0.16894531,1.0966797,82.6875,-0.21875,30.875,0.0,0.0,0.0
1696075629758,0.09472656,-0.051757812,1.6035156,85.75,-31.21875,29.78125,0.0,0.0,0.0
1696075629789,-0.06640625,0.051757812,1.3769531,89.90625,42.5625,-3.125,0.0,0.0,0.0
1696075629818,-0.19628906,0.14941406,1.109375,51.625,79.71875,-26.375,-33.4375,-62.1875,-90.5
1696075629882,-0.24023438,0.3046875,1.1181641,42.53125,111.90625,-22.65625,0.0,0.0,0.0
1696075629909,-0.46875,0.26660156,1.1142578,14.03125,139.78125,-7.875,0.0,0.0,0.0
1696075629938,-0.4638672,0.14453125,1.0185547,10.75,144.84375,-10.4375,0.0,0.0,0.0
1696075629998,-0.4873047,0.15722656,0.87597656,-0.5625,144.0625,-8.25,0.0,0.0,0.0
1696075630029,-0.5498047,0.095703125,0.77246094,-8.5625,120.25,-14.28125,0.0,0.0,0.0
1696075630060,-0.64160156,0.125,0.734375,23.8125,115.3125,-21.0625,0.0,0.0,0.0
1696075630123,-0.5644531,0.016601562,0.6171875,27.28125,134.96875,-42.25,0.0,0.0,0.0
1696075630150,-0.6777344,0.10449219,0.54589844,48.875,117.09375,-45.0,0.0,0.0,0.0
1696075630179,-0.58203125,0.08105469,0.34375,29.0625,125.6875,-37.125,0.0,0.0,0.0
1696075630270,-0.7167969,0.051757812,0.34472656,20.03125,135.15625,-35.09375,0.0,0.0,0.0
1696075630275,-0.78125,0.09277344,0.30664062,2.75,118.65625,-17.65625,0.0,0.0,0.0
1696075630298,-0.86328125,0.053710938,0.23730469,-1.96875,72.03125,-7.21875,0.0,0.0,0.0
1696075630359,-0.93652344,0.14257812,0.12792969,-3.78125,49.53125,-2.5625,-79.5,-56.6875,-103.125
1696075630390,-0.97265625,0.11425781,0.10058594,-4.09375,63.0625,-20.09375,0.0,0.0,0.0
1696075630418,-0.9716797,0.17480469,0.14941406,21.53125,26.25,-15.9375,0.0,0.0,0.0
1696075630449,-0.8261719,0.049804688,0.08300781,32.53125,4.71875,-2.8125,0.0,0.0,0.0
1696075630509,-0.7207031,0.026367188,-0.06640625,-23.25,9.84375,-17.46875,0.0,0.0,0.0
1696075630538,-0.890625,0.076171875,0.10644531,-3.96875,34.8125,-10.25,0.0,0.0,0.0
1696075630569,-1.0253906,0.08496094,0.14257812,31.75,5.9375,13.0,0.0,0.0,0.0
1696075630629,-1.1621094,0.016601562,0.0546875,14.84375,3.0625,10.1875,0.0,0.0,0.0
1696075630659,-1.2236328,0.19726562,0.08496094,-3.59375,0.1875,-18.96875,0.0,0.0,0.0
1696075630688,-0.9707031,0.14648438,-0.013671875,-29.125,-7.1875,-6.28125,0.0,0.0,0.0
1696075630751,-0.97558594,0.103515625,-0.0029296875,-5.25,-5.65625,-0.5625,0.0,0.0,0.0
1696075630781,-0.9980469,0.11328125,0.09472656,8.125,-12.75,-0.6875,0.0,0.0,0.0
1696075630838,-0.9921875,0.171875,0.064453125,-3.84375,-9.25,0.125,-83.875,-55.1875,-108.1875
1696075630898,-1.03125,0.13183594,0.1484375,-9.46875,-22.0625,7.875,0.0,0.0,0.0
1696075630901,-1.0185547,0.07714844,0.13671875,4.5,-25.75,10.3125,0.0,0.0,0.0
1696075630930,-0.99609375,0.119140625,0.16015625,2.625,-33.0,16.21875,0.0,0.0,0.0
1696075630988,-0.9589844,0.0703125,0.14648438,-5.1875,-25.5,21.71875,0.0,0.0,0.0
1696075631019,-0.92871094,0.15234375,0.16796875,-13.96875,-11.28125,13.78125,0.0,0.0,0.0
1696075631049,-0.9082031,0.13867188,0.21777344,-15.625,0.5625,16.71875,0.0,0.0,0.0
1696075631109,-0.9091797,0.11230469,0.16113281,-40.84375,5.75,10.0625,0.0,0.0,0.0
1696075631139,-0.94921875,0.25585938,0.24414062,-45.65625,13.8125,7.1875,0.0,0.0,0.0
1696075631169,-0.9794922,0.2265625,0.3076172,-48.9375,-3.09375,18.0625,0.0,0.0,0.0
1696075631228,-0.98339844,0.068359375,0.30664062,-58.15625,2.34375,10.125,0.0,0.0,0.0
1696075631261,-0.92871094,0.07421875,0.35546875,-66.71875,26.4375,-7.4375,0.0,0.0,0.0
1696075631294,-1.0234375,0.09472656,0.4716797,-62.875,27.90625,-14.65625,0.0,0.0,0.0
1696075631349,-1.265625,0.18066406,0.140625,-110.21875,47.8125,-4.75,-80.875,-59.6875,-107.75
1696075631380,-0.95214844,0.19628906,0.171875,-79.03125,51.40625,-5.75,0.0,0.0,0.0
1696075631410,-0.8017578,0.20800781,-0.05078125,-122.6875,12.65625,18.1875,0.0,0.0,0.0
1696075631468,-1.1142578,0.01953125,-0.15527344,-139.96875,26.75,15.8125,0.0,0.0,0.0
1696075631499,-0.93652344,-0.01171875,-0.033203125,-96.5,11.90625,13.3125,0.0,0.0,0.0
1696075631528,-1.0380859,-0.08496094,0.03515625,-118.21875,27.3125,10.6875,0.0,0.0,0.0
1696075631589,-1.0332031,-0.1796875,-0.19628906,-116.9375,18.5,2.375,0.0,0.0,0.0
1696075631620,-1.0703125,-0.09765625,0.24511719,-86.125,20.53125,-1.71875,0.0,0.0,0.0
1696075631648,-1.0332031,-0.08691406,0.08496094,-132.5625,-0.96875,0.84375,0.0,0.0,0.0
1696075631708,-0.9091797,-0.15625,0.037109375,-110.34375,2.8125,7.625,0.0,0.0,0.0
1696075631740,-1.0302734,-0.26171875,0.33398438,-78.25,17.71875,7.375,0.0,0.0,0.0
1696075631799,-0.94433594,-0.18164062,0.107421875,-71.0,18.3125,4.625,0.0,0.0,0.0
1696075631830,-1.0498047,-0.13867188,0.1953125,-53.84375,28.40625,5.75,-85.625,-73.0,-122.75
1696075631858,-0.99121094,0.034179688,0.043945312,-44.1875,4.46875,12.3125,0.0,0.0,0.0
1696075631889,-1.0302734,0.043945312,0.08691406,-35.78125,9.0,12.875,0.0,0.0,0.0
1696075631949,-1.0058594,-0.024414062,0.06640625,-65.75,-2.84375,8.90625,0.0,0.0,0.0
1696075631979,-1.0146484,-0.061523438,-0.07128906,-41.5,0.375,15.1875,0.0,0.0,0.0
1696075632009,-1.0507812,0.07421875,-0.19042969,-17.21875,10.625,26.65625,0.0,0.0,0.0
1696075632068,-1.0224609,0.14648438,-0.15332031,-31.6875,13.6875,20.875,0.0,0.0,0.0
1696075632099,-0.9980469,0.22167969,-0.16308594,-80.625,17.21875,22.6875,0.0,0.0,0.0
1696075632131,-1.0341797,0.26757812,-0.17089844,-135.25,6.65625,19.65625,0.0,0.0,0.0
1696075632189,-0.9824219,0.01953125,-0.06640625,-156.125,-9.03125,18.125,0.0,0.0,0.0
1696075632218,-1.0800781,-0.14550781,0.0234375,-167.78125,-16.28125,24.65625,0.0,0.0,0.0
1696075632248,-0.9716797,-0.12988281,0.016601562,-147.21875,-18.59375,28.875,0.0,0.0,0.0
1696075632309,-0.91015625,0.08886719,0.080078125,-95.40625,-32.625,42.59375,0.0,0.0,0.0
1696075632341,-0.90234375,0.123046875,0.21289062,-110.71875,-30.75,51.875,-90.3125,-67.3125,-132.625
1696075632369,-1.0214844,0.15332031,0.3623047,-140.25,-54.84375,58.28125,0.0,0.0,0.0
1696075632429,-0.875,0.17382812,0.13769531,-112.5,-48.625,55.71875,0.0,0.0,0.0
1696075632458,-0.9160156,0.15234375,0.10644531,-41.6875,21.9375,35.09375,0.0,0.0,0.0
1696075632490,-1.0429688,-0.0234375,0.44433594,-102.90625,58.0,9.9375,0.0,0.0,0.0
1696075632550,-0.89746094,0.3095703,0.32714844,-196.78125,65.375,-24.0625,0.0,0.0,0.0
1696075632579,-0.91796875,0.29003906,0.1640625,-123.65625,44.5,-0.3125,0.0,0.0,0.0
1696075632608,-0.8613281,0.12109375,0.14550781,-65.90625,40.53125,1.65625,0.0,0.0,0.0
1696075632670,-0.93359375,-0.043945312,0.10449219,-68.125,59.53125,-11.84375,0.0,0.0,0.0
1696075632698,-1.0820312,0.123046875,0.18554688,-60.625,67.03125,-33.6875,0.0,0.0,0.0
1696075632730,-1.6582031,0.3203125,0.25097656,-64.46875,66.125,-12.625,0.0,0.0,0.0
1696075632789,-0.80371094,0.09472656,0.28320312,-69.59375,-18.71875,14.09375,0.0,0.0,0.0
1696075632820,-0.7685547,-0.14550781,-0.34277344,-70.75,-10.96875,8.40625,-88.8125,-58.75,-142.5625
1696075632849,-0.96875,0.1796875,0.33984375,63.21875,-4.5625,10.125,0.0,0.0,0.0
1696075632908,-1.1396484,-0.11230469,-0.11035156,-64.34375,-22.625,8.96875,0.0,0.0,0.0
1696075632938,-1.0859375,-0.06542969,0.18164062,-30.9375,28.15625,-0.78125,0.0,0.0,0.0
1696075632968,-1.0673828,-0.10546875,0.032226562,-98.21875,3.9375,-11.40625,0.0,0.0,0.0
1696075633028,-0.96875,-0.13574219,0.04296875,-45.40625,9.53125,-12.6875,0.0,0.0,0.0
1696075633064,-0.96191406,0.030273438,0.047851562,-65.125,6.25,-7.03125,0.0,0.0,0.0
1696075633088,-0.9589844,0.04296875,0.020507812,-67.8125,9.28125,0.375,0.0,0.0,0.0
1696075633148,-1.0117188,0.0087890625,0.17773438,-68.0,22.53125,0.96875,0.0,0.0,0.0
1696075633179,-1.0595703,-0.08203125,0.13183594,-85.625,8.75,5.3125,0.0,0.0,0.0
1696075633209,-0.9765625,-0.13378906,0.14355469,-45.15625,6.4375,5.125,0.0,0.0,0.0
1696075633268,-1.0371094,-0.13671875,0.0146484375,-28.9375,2.34375,-4.21875,0.0,0.0,0.0
1696075633300,-1.0058594,-0.03125,0.051757812,4.875,0.6875,-2.875,0.0,0.0,0.0
1696075633330,-0.9892578,-0.14355469,-0.0087890625,5.625,-3.78125,-2.875,-87.875,-53.1875,-145.875
1696075633389,-0.9951172,-0.13574219,0.047851562,32.15625,-1.875,-7.03125,0.0,0.0,0.0
1696075633479,-1.0585938,0.040039062,0.08300781,22.875,-0.96875,-6.09375,0.0,0.0,0.0
1696075633482,-0.99121094,0.06738281,0.037109375,9.75,4.46875,-7.15625,0.0,0.0,0.0
1696075633509,-1.0166016,-0.033203125,0.051757812,22.6875,-0.09375,-1.59375,0.0,0.0,0.0
1696075633539,-1.0117188,-0.0146484375,0.04296875,26.65625,-0.78125,-0.3125,0.0,0.0,0.0
1696075633569,-1.0107422,-0.013671875,0.06738281,22.34375,0.625,0.3125,0.0,0.0,0.0
1696075633628,-0.99121094,-0.015625,0.013671875,20.4375,0.5625,-1.71875,0.0,0.0,0.0
