,timestamp,accel_x,accel_y,accel_z,gyro_x,gyro_y,gyro_z,mag_x,mag_y,mag_z,ind
0,1695737726651,-1.2236328,0.5029297,-0.7734375,303.625,137.4375,-119.9375,0.0,0.0,0.0,0
1,1695737726691,-1.6240234,0.97558594,-0.5517578,91.84375,200.71875,-81.0625,0.0,0.0,0.0,1
2,1695737726731,-1.3642578,-0.5888672,0.99316406,-293.15625,182.1875,1.09375,0.0,0.0,0.0,2
3,1695737726771,-2.0,0.97558594,-0.4814453,-295.90625,22.25,65.15625,0.0,0.0,0.0,3
4,1695737726811,-2.0,0.38671875,-0.20117188,-108.59375,41.71875,131.9375,0.0,0.0,0.0,4
5,1695737726851,-1.1689453,-0.12207031,-0.13964844,138.15625,99.15625,89.9375,0.0,0.0,0.0,5
6,1695737726891,-0.3564453,-0.39453125,0.08691406,66.625,35.09375,-10.75,0.0,0.0,0.0,6
7,1695737726931,0.45117188,-0.8066406,0.5332031,-20.46875,16.34375,-87.28125,-79.8125,-42.4375,-84.5,7
8,1695737726971,0.8388672,-0.41601562,-0.08105469,-60.8125,-13.75,-134.0625,0.0,0.0,0.0,8
9,1695737727011,-1.1279297,1.3496094,-0.6152344,42.53125,-157.0625,-1.34375,0.0,0.0,0.0,9
10,1695737727051,0.05078125,-0.12011719,0.038085938,-98.90625,-27.78125,-7.9375,0.0,0.0,0.0,10
11,1695737727091,-2.0,-1.2021484,1.1298828,-157.125,-101.6875,5.34375,0.0,0.0,0.0,11
12,1695737727131,-0.546875,-0.25878906,0.040039062,-225.25,42.59375,28.90625,0.0,0.0,0.0,12
13,1695737727171,-2.0,-0.029296875,1.5654297,450.1875,142.375,-158.59375,0.0,0.0,0.0,13
14,1695737727211,-2.0,1.5722656,0.84472656,96.0,15.4375,106.78125,0.0,0.0,0.0,14
15,1695737727251,-1.2675781,-1.5498047,-0.34375,-80.75,-64.96875,96.53125,0.0,0.0,0.0,15
16,1695737727291,-0.59277344,-0.3720703,-0.22558594,100.375,-222.90625,5.78125,0.0,0.0,0.0,16
17,1695737727331,-0.041015625,-0.78027344,-1.4150391,257.0625,-302.8125,-79.53125,0.0,0.0,0.0,17
18,1695737727371,-0.29101562,0.3544922,-1.3007812,141.03125,146.53125,-126.125,0.0,0.0,0.0,18
19,1695737727411,-0.18261719,0.29492188,0.19628906,-172.3125,191.5,0.53125,-78.75,-48.4375,-53.3125,19
20,1695737727451,-0.6142578,-0.13769531,-0.16210938,123.21875,141.84375,-12.09375,0.0,0.0,0.0,20
21,1695737727491,-2.0,0.2626953,1.078125,-12.78125,218.1875,-11.625,0.0,0.0,0.0,21
22,1695737727531,-2.0,-0.26367188,-0.734375,-41.75,207.4375,10.1875,0.0,0.0,0.0,22
23,1695737727571,-1.6318359,-0.0078125,0.8417969,-67.53125,178.34375,83.1875,0.0,0.0,0.0,23
24,1695737727611,-0.87890625,-0.099609375,0.1484375,-199.78125,22.6875,76.59375,0.0,0.0,0.0,24
25,1695737727651,-0.08105469,-0.42578125,0.6152344,-24.625,14.28125,-7.46875,0.0,0.0,0.0,25
26,1695737727691,0.5751953,-0.5263672,0.60839844,-142.09375,-58.4375,-80.9375,0.0,0.0,0.0,26
27,1695737727731,0.46875,-0.7216797,-0.26367188,-182.5625,-32.125,-117.375,0.0,0.0,0.0,27
28,1695737727771,-0.62402344,0.4423828,-0.20214844,79.6875,-104.875,-105.3125,0.0,0.0,0.0,28
29,1695737727811,0.04296875,0.29101562,0.10058594,31.96875,11.8125,39.53125,0.0,0.0,0.0,29
30,1695737727851,-2.0,-1.7978516,1.3535156,-531.75,-96.8125,-69.46875,0.0,0.0,0.0,30
31,1695737727891,-1.6083984,-0.76464844,0.22949219,-183.0,110.28125,-32.25,0.0,0.0,0.0,31
32,1695737727931,-2.0,2.0,0.5253906,543.125,-108.53125,-126.90625,-76.625,-32.8125,-82.125,32
33,1695737727971,-1.6552734,0.328125,0.3857422,12.1875,-47.5625,155.3125,0.0,0.0,0.0,33
34,1695737728011,-1.1923828,-0.8330078,-0.10839844,42.40625,-300.90625,65.34375,0.0,0.0,0.0,34
35,1695737728051,-0.71972656,-1.2177734,-1.2529297,274.21875,-208.875,-13.125,0.0,0.0,0.0,35
36,1695737728091,-0.3515625,0.7167969,-1.3457031,46.0625,39.09375,-143.5625,0.0,0.0,0.0,36
37,1695737728131,-0.17285156,0.5595703,-0.12011719,-151.3125,171.0625,-61.34375,0.0,0.0,0.0,37
38,1695737728171,-0.0009765625,0.73046875,-0.32714844,-64.71875,146.96875,18.53125,0.0,0.0,0.0,38
39,1695737728211,-1.3798828,0.9189453,0.66308594,129.5,212.21875,53.15625,0.0,0.0,0.0,39
40,1695737728251,-2.0,0.001953125,-0.6933594,15.375,-35.15625,-27.78125,0.0,0.0,0.0,40
41,1695737728291,-2.0,-0.4560547,0.22167969,-341.875,92.5,135.65625,0.0,0.0,0.0,41
42,1695737728331,-1.4638672,-0.36914062,0.7265625,-34.875,83.25,27.09375,0.0,0.0,0.0,42
43,1695737728371,-1.03125,-0.14550781,0.16113281,21.46875,20.84375,63.46875,0.0,0.0,0.0,43
44,1695737728411,0.5175781,-0.8261719,0.53515625,-39.4375,7.3125,-16.5,-77.875,-38.375,-88.125,44
45,1695737728451,0.32421875,-0.7246094,-0.23632812,-231.53125,-61.1875,-96.28125,0.0,0.0,0.0,45
46,1695737728491,-0.40527344,-0.09375,0.17773438,3.34375,-74.0625,-121.65625,0.0,0.0,0.0,46
47,1695737728531,-0.7402344,2.0,0.17382812,-76.96875,-161.09375,-10.40625,0.0,0.0,0.0,47
48,1695737728571,-2.0,1.3037109,-2.0,6.40625,-22.59375,43.375,0.0,0.0,0.0,48
49,1695737728611,0.24902344,-1.5,0.18945312,-586.875,168.5625,1.875,0.0,0.0,0.0,49
50,1695737728651,-1.7822266,-0.40429688,0.9121094,351.84375,122.375,-147.0,0.0,0.0,0.0,50
51,1695737728691,-2.0,2.0,1.078125,434.3125,-136.71875,-45.71875,0.0,0.0,0.0,51
52,1695737728731,-1.1386719,-1.4707031,-0.7060547,-199.40625,-24.84375,79.34375,0.0,0.0,0.0,52
53,1695737728771,-1.1015625,0.546875,-0.53027344,168.4375,-215.71875,27.75,0.0,0.0,0.0,53
54,1695737728811,-0.71777344,-1.6064453,-1.5761719,274.75,-273.75,-89.25,0.0,0.0,0.0,54
55,1695737728851,-0.22949219,0.86035156,-1.3564453,30.4375,60.71875,-158.59375,0.0,0.0,0.0,55
56,1695737728891,-0.11328125,0.029296875,0.19921875,-217.1875,169.40625,-20.34375,0.0,0.0,0.0,56
57,1695737728931,0.036132812,0.75,-0.4716797,38.875,115.34375,29.90625,-81.0,-50.8125,-68.3125,57
58,1695737728971,-1.4042969,1.1347656,0.5371094,61.09375,127.0625,50.875,0.0,0.0,0.0,58
59,1695737729011,-2.0,-0.6796875,-0.75,-46.46875,126.5,17.75,0.0,0.0,0.0,59
60,1695737729051,-1.9306641,-0.3330078,0.095703125,-41.9375,210.75,20.75,0.0,0.0,0.0,60
61,1695737729091,-1.1474609,-0.2919922,0.25390625,-213.875,85.0,122.65625,0.0,0.0,0.0,61
62,1695737729131,-0.52441406,-0.39453125,0.11425781,-45.0,11.46875,41.0625,0.0,0.0,0.0,62
63,1695737729171,0.45117188,-0.2529297,0.37402344,-79.84375,-43.78125,-33.15625,0.0,0.0,0.0,63
64,1695737729211,0.017578125,-0.7011719,0.22460938,-235.0625,-64.03125,-119.53125,0.0,0.0,0.0,64
65,1695737729251,0.19238281,0.14160156,-0.06542969,48.09375,-95.34375,-82.21875,0.0,0.0,0.0,65
66,1695737729291,-0.9628906,1.6601562,0.69628906,25.5,-184.46875,10.90625,0.0,0.0,0.0,66
67,1695737729331,-1.6533203,-1.0224609,0.90722656,-549.8125,-107.875,101.65625,0.0,0.0,0.0,67
68,1695737729371,-1.4667969,-0.87890625,0.2861328,-122.5625,47.21875,-17.84375,0.0,0.0,0.0,68
69,1695737729411,-2.0,-0.06542969,1.0341797,589.28125,259.75,-237.875,-83.25,-35.8125,-82.6875,69
70,1695737729451,-2.0,2.0,2.0,332.3125,-183.0625,116.3125,0.0,0.0,0.0,70
71,1695737729491,-1.2724609,-0.4326172,-0.36816406,-9.21875,-209.25,82.375,0.0,0.0,0.0,71
72,1695737729531,-0.8642578,-1.4365234,-1.1669922,34.53125,-362.1875,-2.46875,0.0,0.0,0.0,72
73,1695737729571,-0.45117188,0.35253906,-1.8554688,211.84375,60.90625,-163.65625,0.0,0.0,0.0,73
74,1695737729611,-0.39453125,0.82128906,-1.0029297,91.59375,157.8125,-171.34375,0.0,0.0,0.0,74
75,1695737729651,0.009765625,0.08105469,0.13964844,-104.09375,217.5625,-64.84375,0.0,0.0,0.0,75
76,1695737729691,-0.6894531,0.18261719,-0.26660156,-13.3125,194.5,12.75,0.0,0.0,0.0,76
77,1695737729731,-2.0,0.86035156,0.7158203,-32.3125,193.28125,37.875,0.0,0.0,0.0,77
78,1695737729771,-2.0,0.056640625,-0.6435547,-164.0625,272.125,60.53125,0.0,0.0,0.0,78
79,1695737729811,-2.0,-0.4716797,-0.016601562,-133.6875,202.5625,197.75,0.0,0.0,0.0,79
80,1695737729851,-0.9560547,-0.37402344,0.038085938,-123.96875,6.15625,62.25,0.0,0.0,0.0,80
81,1695737729891,-0.052734375,-0.27929688,0.060546875,-14.3125,-58.0625,-15.875,0.0,0.0,0.0,81
82,1695737729931,0.77734375,-0.34960938,0.43652344,-93.53125,-157.71875,-104.4375,-76.5,-36.875,-90.1875,82
83,1695737729971,-0.26757812,-0.5205078,-0.20605469,1.9375,-51.90625,-100.96875,0.0,0.0,0.0,83
84,1695737730011,-1.9052734,1.3554688,-0.89160156,-232.8125,-83.4375,69.5625,0.0,0.0,0.0,84
85,1695737730051,-0.15820312,-0.52441406,0.45410156,-140.53125,41.78125,-3.875,0.0,0.0,0.0,85
86,1695737730091,-0.9667969,-0.93066406,-0.5263672,-332.0,-99.4375,15.1875,0.0,0.0,0.0,86
87,1695737730131,-1.0507812,-0.8046875,0.50097656,-123.0625,-23.625,-152.34375,0.0,0.0,0.0,87
88,1695737730171,-2.0,2.0,-0.97558594,979.21875,330.4375,-195.9375,0.0,0.0,0.0,88
89,1695737730211,-2.0,1.2011719,-0.48046875,65.15625,-73.4375,131.15625,0.0,0.0,0.0,89
90,1695737730251,-0.9951172,-0.46972656,-0.45996094,201.78125,-62.09375,3.90625,0.0,0.0,0.0,90
91,1695737730291,0.09277344,-1.875,-1.4091797,122.0625,-737.5,-40.46875,0.0,0.0,0.0,91
92,1695737730331,-0.4111328,1.0058594,-2.0,429.0,196.53125,-241.21875,0.0,0.0,0.0,92
93,1695737730371,-0.16210938,-0.06347656,-0.01953125,-173.0625,213.25,-86.1875,0.0,0.0,0.0,93
94,1695737730411,-0.4658203,0.42285156,-0.2919922,33.5,190.34375,19.75,-78.875,-47.9375,-64.125,94
95,1695737730451,-1.3300781,0.09667969,0.13476562,-12.09375,229.71875,-11.90625,0.0,0.0,0.0,95
96,1695737730491,-2.0,0.38085938,-0.2763672,-264.46875,302.96875,-65.4375,0.0,0.0,0.0,96
97,1695737730531,-2.0,1.0185547,-0.4658203,79.5625,175.21875,37.75,0.0,0.0,0.0,97
98,1695737730571,-0.80566406,-0.15722656,0.020507812,-49.9375,67.375,94.34375,0.0,0.0,0.0,98
99,1695737730611,-0.16015625,-0.0126953125,0.15332031,114.3125,-7.46875,-5.75,0.0,0.0,0.0,99
100,1695737730651,1.4628906,-0.3935547,0.48535156,16.78125,-150.71875,-75.15625,0.0,0.0,0.0,100
101,1695737730691,-0.17773438,-0.7324219,0.18066406,-109.09375,-185.8125,-101.9375,0.0,0.0,0.0,101
102,1695737730731,-1.3164062,0.33691406,-0.9121094,-177.4375,-85.28125,36.46875,0.0,0.0,0.0,102
103,1695737730771,-0.28125,0.30371094,0.9326172,-380.09375,-67.09375,53.75,0.0,0.0,0.0,103
104,1695737730811,-2.0,-1.4755859,-0.095703125,-101.53125,-52.3125,14.21875,0.0,0.0,0.0,104
105,1695737730851,-0.921875,-0.45214844,-0.052734375,-270.78125,-158.46875,-39.25,0.0,0.0,0.0,105
106,1695737730891,-1.6054688,-1.4990234,1.8574219,155.0625,280.0625,-250.9375,0.0,0.0,0.0,106
107,1695737730931,-2.0,2.0,1.2480469,7.0625,-467.84375,114.4375,-76.9375,-49.1875,-86.0,107
108,1695737730971,-1.1884766,-1.2910156,-0.35742188,49.125,91.0,91.46875,0.0,0.0,0.0,108
109,1695737731011,0.640625,-2.0,-1.2236328,-546.03125,-628.875,-12.28125,0.0,0.0,0.0,109
110,1695737731051,-0.6933594,1.5439453,-1.9121094,398.84375,38.125,-242.03125,0.0,0.0,0.0,110
111,1695737731091,-0.23046875,-0.4482422,0.099609375,141.90625,190.53125,-171.09375,0.0,0.0,0.0,111
112,1695737731131,-0.38085938,0.24804688,-0.7714844,92.4375,169.71875,-75.03125,0.0,0.0,0.0,112
113,1695737731171,-0.4658203,0.1640625,0.2841797,50.34375,221.78125,-101.09375,0.0,0.0,0.0,113
114,1695737731211,-2.0,2.0,0.22460938,-122.4375,300.34375,114.5625,0.0,0.0,0.0,114
115,1695737731251,-2.0,-0.8886719,-0.8388672,-249.96875,163.875,-72.84375,0.0,0.0,0.0,115
116,1695737731291,-2.0,-0.6201172,1.2646484,-240.0,153.0625,73.59375,0.0,0.0,0.0,116
117,1695737731331,-1.0722656,0.45410156,0.3779297,-164.75,-43.21875,135.59375,0.0,0.0,0.0,117
118,1695737731371,0.79785156,-0.5527344,0.6669922,-93.09375,-15.875,16.9375,0.0,0.0,0.0,118
119,1695737731411,0.35351562,-0.89160156,1.1464844,-15.46875,-96.9375,-98.15625,-76.625,-47.375,-82.125,119
120,1695737731451,0.53027344,-0.5253906,-0.71777344,-16.875,-17.53125,-54.9375,0.0,0.0,0.0,120
121,1695737731491,-2.0,1.1806641,-1.3027344,-112.625,-75.5625,-68.875,0.0,0.0,0.0,121
122,1695737731531,-0.13574219,0.39746094,0.72265625,-238.1875,-11.1875,84.28125,0.0,0.0,0.0,122
123,1695737731571,-2.0,-2.0,1.9775391,-573.25,-380.8125,59.0625,0.0,0.0,0.0,123
124,1695737731611,-0.6816406,-0.7314453,0.20996094,-337.28125,148.78125,10.71875,0.0,0.0,0.0,124
125,1695737731651,-2.0,-0.73046875,1.6679688,801.125,397.5,-301.40625,0.0,0.0,0.0,125
126,1695737731691,-2.0,2.0,0.6464844,-100.1875,-448.5,239.5625,0.0,0.0,0.0,126
127,1695737731731,-1.9628906,-0.3642578,-0.44335938,337.875,-62.5625,30.625,0.0,0.0,0.0,127
128,1695737731771,-0.02734375,-1.5605469,-0.92089844,203.84375,-241.40625,-26.0625,0.0,0.0,0.0,128
129,1695737731811,-0.28125,0.90527344,-1.3007812,-114.28125,85.3125,-151.25,0.0,0.0,0.0,129
130,1695737731851,-0.043945312,0.20214844,0.17285156,-140.34375,112.53125,-62.03125,0.0,0.0,0.0,130
131,1695737731891,-0.40234375,0.5517578,-0.57421875,-15.59375,235.46875,6.46875,0.0,0.0,0.0,131
132,1695737731931,-0.7109375,0.5263672,0.6347656,150.375,212.5625,45.46875,-73.9375,-53.6875,-68.625,132
133,1695737731971,-2.0,0.2841797,0.3251953,24.34375,176.875,43.6875,0.0,0.0,0.0,133
134,1695737732011,-2.0,-0.96191406,-0.9345703,-226.21875,187.5,79.875,0.0,0.0,0.0,134
135,1695737732051,-2.0,0.07421875,0.21386719,-129.71875,68.84375,95.4375,0.0,0.0,0.0,135
136,1695737732091,-0.69628906,-0.21484375,0.35839844,-94.5625,-15.75,82.875,0.0,0.0,0.0,136
137,1695737732131,0.60253906,-0.35839844,0.8769531,-8.0,-56.03125,-37.6875,0.0,0.0,0.0,137
138,1695737732171,0.4453125,-0.7128906,0.5283203,-51.15625,-129.21875,-135.34375,0.0,0.0,0.0,138
139,1695737732211,-0.23535156,-0.47753906,-0.107421875,-52.6875,-92.84375,-98.15625,0.0,0.0,0.0,139
140,1695737732251,-2.0,1.6953125,-0.46289062,-132.09375,-159.6875,93.625,0.0,0.0,0.0,140
141,1695737732291,0.2861328,-0.22949219,0.13769531,-241.84375,-33.03125,19.15625,0.0,0.0,0.0,141
142,1695737732331,-1.3867188,-0.39160156,0.17480469,-212.1875,-113.1875,22.75,0.0,0.0,0.0,142
143,1695737732371,-0.94140625,-0.3828125,0.3955078,-89.96875,57.40625,-137.96875,0.0,0.0,0.0,143
144,1695737732411,-2.0,0.93847656,1.5576172,1023.0,21.34375,-205.8125,-78.625,-42.875,-84.0625,144
145,1695737732451,-2.0,1.6982422,-0.10449219,70.59375,-317.9375,173.03125,0.0,0.0,0.0,145
146,1695737732491,-1.7480469,-0.7080078,-1.7285156,271.71875,-165.84375,63.46875,0.0,0.0,0.0,146
147,1695737732531,-0.032226562,-0.7011719,-0.92089844,-63.375,-31.6875,-1.1875,0.0,0.0,0.0,147
148,1695737732571,0.25390625,0.26660156,-0.5185547,-58.78125,65.84375,-87.0,0.0,0.0,0.0,148
149,1695737732611,-0.35058594,0.8720703,-0.6298828,-71.65625,145.6875,20.75,0.0,0.0,0.0,149
150,1695737732651,-0.46191406,-0.19726562,-0.18554688,200.65625,211.96875,-1.53125,0.0,0.0,0.0,150
151,1695737732691,-1.0986328,1.0517578,0.6513672,121.875,225.4375,-25.65625,0.0,0.0,0.0,151
152,1695737732731,-2.0,0.119140625,-0.5390625,-154.8125,79.5625,64.625,0.0,0.0,0.0,152
153,1695737732771,-2.0,-0.9267578,-0.38183594,-19.0,205.84375,46.8125,0.0,0.0,0.0,153
154,1695737732811,-1.3662109,0.296875,0.40527344,-254.96875,-27.1875,35.1875,0.0,0.0,0.0,154
155,1695737732851,-0.16601562,-0.33691406,0.30566406,-27.84375,-15.03125,5.59375,0.0,0.0,0.0,155
156,1695737732891,0.98535156,-0.6826172,0.5830078,-5.8125,-93.15625,-51.78125,0.0,0.0,0.0,156
157,1695737732931,0.016601562,-0.8076172,0.53027344,-184.28125,-177.03125,-108.34375,-69.625,-54.25,-89.875,157
158,1695737732971,-1.8466797,1.6542969,-1.8154297,77.0625,-75.625,52.46875,0.0,0.0,0.0,158
159,1695737733011,-0.09667969,0.16015625,0.33984375,-387.96875,-31.9375,78.46875,0.0,0.0,0.0,159
160,1695737733051,-2.0,-2.0,-2.0,-17.96875,-181.90625,72.25,0.0,0.0,0.0,160
161,1695737733091,-0.07324219,-0.20507812,0.24804688,-249.34375,185.46875,-35.0,0.0,0.0,0.0,161
162,1695737733131,-1.7714844,-1.0175781,1.8671875,210.3125,92.21875,-263.6875,0.0,0.0,0.0,162
163,1695737733171,-2.0,2.0,-2.0,1023.0,-165.90625,179.3125,0.0,0.0,0.0,163
164,1695737733211,-2.0,-1.2597656,-2.0,25.8125,-15.15625,48.5625,0.0,0.0,0.0,164
165,1695737733251,-0.49023438,-0.43359375,-0.28710938,233.9375,-194.28125,35.5,0.0,0.0,0.0,165
166,1695737733291,-0.0029296875,0.2919922,-2.0,318.65625,-50.75,-55.8125,0.0,0.0,0.0,166
167,1695737733331,-0.3544922,-0.15527344,0.09375,-274.0,154.90625,-25.84375,0.0,0.0,0.0,167
168,1695737733371,-0.1875,0.7861328,-0.47851562,13.40625,207.6875,83.96875,0.0,0.0,0.0,168
169,1695737733411,-0.95703125,0.080078125,0.27734375,204.8125,208.78125,8.46875,-68.375,-53.0625,-64.6875,169
170,1695737733451,-2.0,1.1318359,-0.06347656,234.53125,298.3125,-85.53125,0.0,0.0,0.0,170
171,1695737733491,-2.0,-0.49414062,-0.20507812,-137.15625,239.65625,51.0625,0.0,0.0,0.0,171
172,1695737733531,-2.0,0.79003906,0.2919922,-77.46875,114.1875,75.25,0.0,0.0,0.0,172
173,1695737733571,-0.09375,-0.061523438,0.7519531,30.1875,28.71875,44.59375,0.0,0.0,0.0,173
174,1695737733611,0.86035156,-0.39453125,0.66796875,94.65625,-84.625,-14.96875,0.0,0.0,0.0,174
175,1695737733651,0.015625,-0.9658203,0.18945312,-124.34375,-215.96875,-103.84375,0.0,0.0,0.0,175
176,1695737733691,-0.70214844,-0.33984375,-0.5439453,-155.90625,-46.09375,-1.53125,0.0,0.0,0.0,176
177,1695737733731,-0.9628906,0.79589844,-0.6357422,-403.8125,-50.3125,16.84375,0.0,0.0,0.0,177
178,1695737733771,-2.0,-1.4580078,1.2900391,-235.3125,96.46875,-54.09375,0.0,0.0,0.0,178
179,1695737733811,0.24902344,-0.45703125,-0.032226562,-305.3125,227.53125,-40.125,0.0,0.0,0.0,179
180,1695737733851,-1.9003906,-1.1679688,1.4824219,578.28125,-96.375,-249.65625,0.0,0.0,0.0,180
181,1695737733891,-2.0,2.0,-1.8632812,528.25,-413.78125,244.5,0.0,0.0,0.0,181
182,1695737733931,-2.0,1.0214844,0.047851562,455.3125,-112.0,184.8125,-77.375,-45.5625,-70.5625,182
183,1695737733971,-0.60058594,-1.5332031,-0.08496094,5.46875,-454.375,-22.90625,0.0,0.0,0.0,183
184,1695737734011,-0.73046875,0.67285156,-2.0,565.65625,49.59375,-128.625,0.0,0.0,0.0,184
185,1695737734051,-0.3310547,-0.28320312,0.044921875,-141.3125,245.03125,-99.125,0.0,0.0,0.0,185
186,1695737734091,-0.4794922,0.057617188,-0.24609375,30.1875,185.46875,-15.53125,0.0,0.0,0.0,186
187,1695737734131,-0.9980469,0.5341797,-0.15039062,181.3125,249.25,-41.09375,0.0,0.0,0.0,187
188,1695737734171,-2.0,0.6933594,0.43652344,-27.1875,289.0625,-107.25,0.0,0.0,0.0,188
189,1695737734211,-2.0,-0.3779297,-0.8564453,-123.4375,294.46875,-114.28125,0.0,0.0,0.0,189
190,1695737734251,-2.0,1.2988281,-0.31347656,36.90625,107.21875,19.34375,0.0,0.0,0.0,190
191,1695737734291,-0.5595703,-0.14453125,0.12988281,88.3125,60.09375,80.125,0.0,0.0,0.0,191
192,1695737734331,0.66503906,0.22363281,1.0507812,119.96875,8.15625,-12.40625,0.0,0.0,0.0,192
193,1695737734371,0.34179688,-0.625,0.9550781,-85.34375,-228.03125,-39.0625,0.0,0.0,0.0,193
194,1695737734411,-0.6386719,-0.58496094,-0.6738281,-239.09375,-82.78125,1.09375,-78.75,-49.4375,-83.125,194
195,1695737734451,-2.0,1.3808594,-1.4589844,-187.28125,-40.59375,-3.0625,0.0,0.0,0.0,195
196,1695737734491,-0.14257812,-0.49121094,0.9707031,-236.96875,127.71875,18.0625,0.0,0.0,0.0,196
197,1695737734531,-2.0,-1.8173828,0.32617188,-193.0,-227.6875,-112.5,0.0,0.0,0.0,197
198,1695737734571,-0.50683594,-0.7246094,0.4248047,-358.59375,82.125,-110.0,0.0,0.0,0.0,198
199,1695737734611,-2.0,2.0,2.0,1023.0,-185.9375,-119.15625,0.0,0.0,0.0,199
200,1695737734651,-2.0,0.93359375,-1.3867188,292.84375,-19.53125,155.75,0.0,0.0,0.0,200
201,1695737734691,-0.9091797,-1.5048828,-0.20410156,91.78125,-341.03125,10.375,0.0,0.0,0.0,201
202,1695737734731,-0.14941406,0.3876953,-1.8193359,608.75,-16.6875,-32.3125,0.0,0.0,0.0,202
203,1695737734771,-0.2685547,0.52441406,-0.7294922,-164.3125,262.875,-211.375,0.0,0.0,0.0,203
204,1695737734811,-0.024414062,-0.26660156,0.17382812,-59.71875,136.15625,72.75,0.0,0.0,0.0,204
205,1695737734851,-0.9785156,0.17382812,-0.2998047,292.78125,263.71875,-7.21875,0.0,0.0,0.0,205
206,1695737734891,-2.0,1.2548828,-0.024414062,42.34375,268.0625,-128.375,0.0,0.0,0.0,206
207,1695737734931,-2.0,-0.296875,-0.66503906,-171.71875,257.90625,-38.71875,-81.0,-49.3125,-79.25,207
208,1695737734971,-2.0,0.21679688,-0.060546875,-72.34375,183.03125,46.8125,0.0,0.0,0.0,208
209,1695737735011,-0.015625,-0.055664062,0.65527344,-58.71875,58.15625,47.78125,0.0,0.0,0.0,209
210,1695737735051,0.7207031,-0.37304688,1.0458984,127.3125,-41.21875,-8.9375,0.0,0.0,0.0,210
211,1695737735091,0.055664062,-0.7714844,1.0732422,-122.9375,-263.25,-42.3125,0.0,0.0,0.0,211
212,1695737735131,-0.73339844,-0.19042969,-0.65527344,-272.53125,-87.0,19.625,0.0,0.0,0.0,212
213,1695737735171,-1.3916016,0.7060547,-0.6503906,-266.0,-100.78125,-66.46875,0.0,0.0,0.0,213
214,1695737735211,-1.7666016,-0.6953125,0.2685547,-180.6875,60.59375,-32.5625,0.0,0.0,0.0,214
215,1695737735251,0.68847656,-0.6875,-0.0126953125,-270.84375,-43.53125,-39.8125,0.0,0.0,0.0,215
216,1695737735291,-1.4013672,-1.3173828,1.3427734,-19.125,29.15625,-206.5625,0.0,0.0,0.0,216
217,1695737735331,-2.0,2.0,0.61328125,823.84375,-699.34375,160.03125,0.0,0.0,0.0,217
218,1695737735371,-2.0,0.32226562,-0.18359375,453.40625,-53.0625,151.09375,0.0,0.0,0.0,218
219,1695737735411,-0.5908203,-1.0146484,-0.23632812,53.4375,-369.21875,-8.1875,-80.25,-47.0625,-67.6875,219
220,1695737735451,-0.13867188,0.038085938,-2.0,505.46875,127.5625,-60.625,0.0,0.0,0.0,220
221,1695737735491,-0.25976562,-0.11328125,-0.12402344,-259.65625,230.875,-148.21875,0.0,0.0,0.0,221
222,1695737735531,-0.42773438,-0.037109375,0.07910156,73.84375,173.9375,63.09375,0.0,0.0,0.0,222
223,1695737735571,-0.8886719,0.02734375,-0.4501953,309.96875,216.90625,-54.40625,0.0,0.0,0.0,223
224,1695737735611,-2.0,1.9746094,0.3046875,-43.71875,221.84375,-78.6875,0.0,0.0,0.0,224
225,1695737735651,-2.0,-0.19628906,-1.0107422,-117.5,209.09375,-46.21875,0.0,0.0,0.0,225
226,1695737735691,-2.0,0.1328125,0.021484375,7.125,141.34375,53.8125,0.0,0.0,0.0,226
227,1695737735731,-0.5058594,-0.4609375,0.29296875,-145.84375,20.375,64.9375,0.0,0.0,0.0,227
228,1695737735771,1.0087891,-0.07714844,1.0048828,148.1875,-67.9375,-19.0625,0.0,0.0,0.0,228
229,1695737735811,0.060546875,-1.0039062,0.8955078,-31.25,-243.53125,-82.03125,0.0,0.0,0.0,229
230,1695737735851,-0.56933594,-0.055664062,-0.8613281,-18.375,-56.90625,-40.96875,0.0,0.0,0.0,230
231,1695737735891,-1.1923828,0.119140625,-0.08691406,-338.6875,-174.21875,2.4375,0.0,0.0,0.0,231
232,1695737735931,0.43554688,-0.4140625,0.1484375,-287.25,147.9375,20.84375,-81.75,-48.5625,-83.75,232
233,1695737735971,-2.0,-2.0,0.5234375,-226.34375,-136.0,-139.78125,0.0,0.0,0.0,233
234,1695737736011,-0.48632812,-0.58984375,1.5761719,13.53125,94.78125,-183.0,0.0,0.0,0.0,234
235,1695737736051,-2.0,2.0,0.95703125,60.71875,-952.15625,266.71875,0.0,0.0,0.0,235
236,1695737736091,-2.0,-1.0175781,-0.64453125,108.6875,-56.21875,94.34375,0.0,0.0,0.0,236
237,1695737736131,-0.8105469,-1.3017578,-0.31640625,94.90625,-331.25,-65.9375,0.0,0.0,0.0,237
238,1695737736171,-0.3798828,0.98828125,-2.0,520.5,88.53125,-130.25,0.0,0.0,0.0,238
239,1695737736211,-0.099609375,0.16699219,-0.43359375,-88.46875,203.40625,-142.21875,0.0,0.0,0.0,239
240,1695737736251,-0.52734375,0.33398438,-0.13964844,-74.125,179.4375,66.28125,0.0,0.0,0.0,240
241,1695737736291,-0.6777344,-0.08984375,0.16601562,241.25,212.5625,-61.1875,0.0,0.0,0.0,241
242,1695737736331,-2.0,0.92089844,0.43554688,22.75,261.46875,-207.15625,0.0,0.0,0.0,242
243,1695737736371,-2.0,-0.6113281,-0.375,-80.65625,218.125,-83.4375,0.0,0.0,0.0,243
244,1695737736411,-2.0,-0.5908203,-0.001953125,0.40625,168.3125,63.59375,-78.0,-61.1875,-84.9375,244
245,1695737736451,-0.26953125,-0.07324219,0.52246094,-57.21875,60.71875,17.875,0.0,0.0,0.0,245
246,1695737736491,0.5546875,-0.12890625,0.99121094,154.78125,-18.5,-16.4375,0.0,0.0,0.0,246
247,1695737736531,-0.08203125,-0.47460938,0.9589844,-175.4375,-252.53125,-33.21875,0.0,0.0,0.0,247
248,1695737736571,-0.29296875,-0.48046875,-0.6376953,-226.21875,-17.09375,-17.59375,0.0,0.0,0.0,248
249,1695737736611,-1.3232422,1.1816406,-0.55371094,-210.84375,-110.125,26.46875,0.0,0.0,0.0,249
250,1695737736651,-2.0,-0.8105469,-0.68847656,-287.625,-21.3125,49.3125,0.0,0.0,0.0,250
251,1695737736691,0.5175781,-0.55566406,0.12109375,-266.875,161.84375,-40.25,0.0,0.0,0.0,251
252,1695737736731,-1.0341797,-0.9824219,0.87597656,103.4375,-16.0625,-220.53125,0.0,0.0,0.0,252
253,1695737736771,-2.0,2.0,1.90625,774.34375,-308.1875,72.3125,0.0,0.0,0.0,253
254,1695737736811,-2.0,-0.62109375,-2.0,-146.5625,-229.09375,45.5625,0.0,0.0,0.0,254
255,1695737736851,-0.91796875,-0.34472656,-0.64453125,98.96875,-182.6875,28.0,0.0,0.0,0.0,255
256,1695737736891,0.17578125,-0.93847656,-1.4257812,253.90625,-394.96875,-1.34375,0.0,0.0,0.0,256
257,1695737736931,-0.047851562,0.45996094,-0.96972656,25.0625,93.1875,-121.0625,-83.125,-48.125,-56.0,257
258,1695737736971,-0.32421875,0.13183594,-0.20996094,-113.84375,182.1875,-2.09375,0.0,0.0,0.0,258
259,1695737737011,-0.48339844,0.040039062,0.08886719,101.25,236.96875,-25.53125,0.0,0.0,0.0,259
260,1695737737051,-1.9658203,1.3310547,0.08691406,134.9375,268.0,-6.90625,0.0,0.0,0.0,260
261,1695737737091,-2.0,-0.1015625,-1.3134766,-61.53125,89.03125,-104.15625,0.0,0.0,0.0,261
262,1695737737131,-2.0,0.38671875,0.5371094,-98.84375,203.84375,56.25,0.0,0.0,0.0,262
263,1695737737171,-0.7890625,0.0009765625,0.36914062,-97.5,55.28125,77.125,0.0,0.0,0.0,263
264,1695737737211,0.6357422,-0.5292969,0.9638672,-57.5625,-35.65625,4.125,0.0,0.0,0.0,264
265,1695737737251,1.0214844,-0.48339844,1.2070312,-133.0,-206.0,-55.0625,0.0,0.0,0.0,265
266,1695737737291,-0.51953125,-0.5263672,-0.6425781,-44.9375,-43.21875,-74.21875,0.0,0.0,0.0,266
267,1695737737331,-1.8710938,1.9208984,-0.7763672,-276.0625,-100.59375,62.375,0.0,0.0,0.0,267
268,1695737737371,0.10058594,-0.68847656,0.005859375,-264.90625,104.15625,-28.21875,0.0,0.0,0.0,268
269,1695737737411,-1.3798828,-1.2851562,0.25195312,-210.84375,-299.6875,-157.25,-80.375,-39.4375,-91.5625,269
270,1695737737451,-0.68652344,-1.0527344,1.3222656,-136.6875,25.0625,-165.3125,0.0,0.0,0.0,270
271,1695737737491,-2.0,2.0,0.50390625,601.3125,-838.875,132.90625,0.0,0.0,0.0,271
272,1695737737531,-1.9658203,-0.5654297,-1.1054688,349.40625,-34.8125,138.84375,0.0,0.0,0.0,272
273,1695737737571,-0.7861328,-1.4091797,-0.23535156,-21.1875,-300.125,51.25,0.0,0.0,0.0,273
274,1695737737611,-0.4267578,0.83496094,-2.0,639.6875,100.25,-100.125,0.0,0.0,0.0,274
275,1695737737651,-0.0234375,0.21777344,-0.2763672,-171.15625,200.4375,-153.03125,0.0,0.0,0.0,275
276,1695737737691,-0.20214844,0.041992188,-0.001953125,-37.78125,184.5,15.1875,0.0,0.0,0.0,276
277,1695737737731,-0.8808594,0.064453125,-0.15429688,148.90625,273.71875,-41.59375,0.0,0.0,0.0,277
278,1695737737771,-2.0,1.0429688,0.26367188,63.65625,214.71875,-71.65625,0.0,0.0,0.0,278
279,1695737737811,-2.0,-0.7910156,-0.984375,-226.875,233.8125,-86.0625,0.0,0.0,0.0,279
280,1695737737851,-2.0,-0.2734375,0.17773438,-123.71875,233.1875,88.3125,0.0,0.0,0.0,280
281,1695737737891,-0.3408203,-0.041992188,0.8388672,-53.59375,63.65625,18.34375,0.0,0.0,0.0,281
282,1695737737931,0.8652344,-0.2705078,0.5019531,232.90625,-50.96875,7.6875,-72.125,-50.8125,-97.125,282
283,1695737737971,0.22753906,0.038085938,0.8964844,-81.25,-284.4375,-61.46875,0.0,0.0,0.0,283
284,1695737738011,-1.0839844,-0.68652344,-1.4091797,-367.1875,-93.46875,7.8125,0.0,0.0,0.0,284
285,1695737738051,-1.9677734,0.4453125,-0.6621094,-227.0625,-165.125,-28.9375,0.0,0.0,0.0,285
286,1695737738091,-1.7919922,-1.5576172,1.0390625,-422.125,125.90625,3.78125,0.0,0.0,0.0,286
287,1695737738131,0.17089844,-0.6933594,0.47558594,-366.28125,-20.46875,101.65625,0.0,0.0,0.0,287
288,1695737738171,-1.4560547,-1.0478516,1.2929688,123.6875,18.125,-304.34375,0.0,0.0,0.0,288
289,1695737738211,-2.0,2.0,1.4951172,892.0625,-274.1875,10.46875,0.0,0.0,0.0,289
290,1695737738251,-2.0,-2.0,-2.0,-429.53125,-843.03125,192.71875,0.0,0.0,0.0,290
291,1695737738291,-0.7939453,-2.0,-1.5449219,-247.34375,-313.90625,5.90625,0.0,0.0,0.0,291
292,1695737738331,-0.50097656,1.0654297,-1.2070312,160.1875,104.40625,-225.53125,0.0,0.0,0.0,292
293,1695737738371,-0.39941406,0.06738281,-0.091796875,-63.25,200.59375,-118.1875,0.0,0.0,0.0,293
294,1695737738411,-0.29785156,0.69433594,-0.43945312,-8.5,241.125,-27.1875,-68.375,-49.1875,-61.5625,294
295,1695737738451,-0.60058594,0.01171875,0.107421875,129.25,234.40625,-25.90625,0.0,0.0,0.0,295
296,1695737738491,-2.0,2.0,1.1445312,-16.0,447.125,55.84375,0.0,0.0,0.0,296
297,1695737738531,-2.0,-0.6455078,-1.2363281,-158.9375,301.4375,49.90625,0.0,0.0,0.0,297
298,1695737738571,-2.0,-0.66015625,0.13378906,0.65625,176.4375,35.9375,0.0,0.0,0.0,298
299,1695737738611,-0.29785156,-0.34570312,0.4296875,-135.40625,-29.9375,40.03125,0.0,0.0,0.0,299
300,1695737738651,1.4189453,-0.734375,1.0488281,72.125,-69.46875,-31.15625,0.0,0.0,0.0,300
301,1695737738691,-0.119140625,-0.67871094,0.32617188,-57.375,-197.46875,-115.5625,0.0,0.0,0.0,301
302,1695737738731,-0.63671875,-0.37402344,-0.28027344,-171.53125,-90.90625,-48.1875,0.0,0.0,0.0,302
303,1695737738771,-1.3359375,1.3759766,-0.70214844,-301.40625,-173.21875,7.8125,0.0,0.0,0.0,303
304,1695737738811,0.38964844,-0.39160156,-0.21484375,-189.21875,193.09375,15.3125,0.0,0.0,0.0,304
305,1695737738851,-1.7929688,-1.2402344,0.4169922,-159.25,-237.6875,-115.5,0.0,0.0,0.0,305
306,1695737738891,-1.0498047,-0.5136719,1.5703125,246.625,264.15625,-232.0625,0.0,0.0,0.0,306
307,1695737738931,-2.0,2.0,1.859375,-0.4375,-990.375,289.28125,-72.4375,-39.6875,-86.75,307
308,1695737738971,-2.0,0.30371094,-1.1660156,142.0,109.3125,147.5,0.0,0.0,0.0,308
309,1695737739011,-0.49023438,-1.8164062,-0.07128906,-297.625,-573.375,-68.9375,0.0,0.0,0.0,309
310,1695737739051,-0.4921875,1.0302734,-2.0,550.40625,235.9375,-183.90625,0.0,0.0,0.0,310
311,1695737739091,-0.068359375,-0.11230469,0.016601562,-73.875,192.375,-147.21875,0.0,0.0,0.0,311
312,1695737739131,-0.13378906,0.5917969,-0.4091797,-58.4375,175.28125,18.125,0.0,0.0,0.0,312
313,1695737739171,-0.6777344,0.58984375,0.265625,171.0625,238.21875,-56.28125,0.0,0.0,0.0,313
314,1695737739211,-2.0,0.51660156,0.5449219,-52.09375,395.3125,-148.6875,0.0,0.0,0.0,314
315,1695737739251,-2.0,-1.5439453,-0.4736328,-243.4375,327.375,35.375,0.0,0.0,0.0,315
316,1695737739291,-2.0,-0.21484375,0.44628906,-74.65625,51.375,108.375,0.0,0.0,0.0,316
317,1695737739331,0.01953125,-0.4892578,0.6953125,-75.28125,43.375,40.9375,0.0,0.0,0.0,317
318,1695737739371,1.9697266,-0.50390625,1.2773438,148.46875,-14.0,-15.8125,0.0,0.0,0.0,318
319,1695737739411,-0.36523438,-1.3056641,-0.19238281,-71.84375,-147.71875,-74.0,-73.8125,-43.4375,-85.25,319
320,1695737739451,-0.7783203,-0.25585938,-0.46679688,-248.0625,-97.71875,6.03125,0.0,0.0,0.0,320
321,1695737739491,-0.6904297,0.26953125,0.6386719,-290.40625,-137.90625,-92.4375,0.0,0.0,0.0,321
322,1695737739531,-1.6396484,-1.1757812,0.40527344,15.4375,43.1875,9.03125,0.0,0.0,0.0,322
323,1695737739571,0.032226562,-0.7861328,0.13671875,-376.1875,-119.53125,-90.09375,0.0,0.0,0.0,323
324,1695737739611,-2.0,-0.016601562,1.8164062,166.96875,117.1875,-163.09375,0.0,0.0,0.0,324
325,1695737739651,-2.0,2.0,0.859375,180.59375,-30.90625,169.59375,0.0,0.0,0.0,325
326,1695737739691,-1.2695312,-1.5683594,-0.43164062,136.65625,-243.125,19.75,0.0,0.0,0.0,326
327,1695737739731,-0.31835938,-1.4335938,-0.86816406,273.46875,-369.21875,-26.03125,0.0,0.0,0.0,327
328,1695737739771,0.06738281,0.8535156,-2.0,237.84375,21.03125,-176.59375,0.0,0.0,0.0,328
329,1695737739811,-0.052734375,-0.19335938,-0.083984375,-257.03125,206.34375,-59.90625,0.0,0.0,0.0,329
330,1695737739851,-0.5136719,0.15136719,-0.21582031,6.8125,201.21875,52.53125,0.0,0.0,0.0,330
331,1695737739891,-1.4951172,0.8847656,0.21582031,120.84375,231.5625,4.8125,0.0,0.0,0.0,331
332,1695737739931,-2.0,-0.013671875,-0.6123047,79.5625,223.375,-133.0625,-76.8125,-44.375,-74.4375,332
333,1695737739971,-2.0,-0.8642578,0.35839844,-184.40625,258.09375,-28.6875,0.0,0.0,0.0,333
334,1695737740011,-1.2558594,0.30859375,0.6064453,-88.15625,120.40625,99.90625,0.0,0.0,0.0,334
335,1695737740051,0.33984375,-0.26757812,0.56933594,34.96875,-19.59375,35.9375,0.0,0.0,0.0,335
336,1695737740091,2.0,-0.6796875,1.3017578,61.9375,-113.1875,-102.0625,0.0,0.0,0.0,336
337,1695737740131,-0.30078125,-1.2724609,-0.3779297,-314.34375,-209.5,-78.6875,0.0,0.0,0.0,337
338,1695737740171,-2.0,1.6455078,-1.9453125,-47.125,-4.15625,54.96875,0.0,0.0,0.0,338
339,1695737740211,0.31933594,0.171875,0.8691406,-296.65625,-33.65625,87.375,0.0,0.0,0.0,339
340,1695737740251,-2.0,-2.0,1.4169922,-220.34375,-134.21875,1.375,0.0,0.0,0.0,340
341,1695737740291,-0.71875,-0.62109375,0.001953125,-304.40625,112.96875,-41.28125,0.0,0.0,0.0,341
342,1695737740331,-2.0,-0.41992188,2.0,556.125,226.71875,-287.125,0.0,0.0,0.0,342
343,1695737740371,-2.0,2.0,0.89160156,72.6875,-359.34375,299.90625,0.0,0.0,0.0,343
344,1695737740411,-2.0,0.5107422,-1.7753906,-18.375,-50.3125,151.15625,-75.875,-48.4375,-63.625,344
345,1695737740451,0.22363281,-0.56347656,-0.38671875,-87.0625,-177.9375,-6.90625,0.0,0.0,0.0,345
346,1695737740491,0.05078125,0.45410156,-1.4248047,239.0625,112.03125,-75.03125,0.0,0.0,0.0,346
347,1695737740531,-0.07324219,-0.11816406,-0.17382812,-144.0,249.0,-123.78125,0.0,0.0,0.0,347
348,1695737740571,-0.69921875,0.22753906,-0.20410156,105.03125,189.875,15.71875,0.0,0.0,0.0,348
349,1695737740611,-1.8115234,1.8095703,0.39160156,147.03125,331.53125,106.25,0.0,0.0,0.0,349
350,1695737740651,-2.0,0.091796875,-1.3164062,267.125,-40.65625,-126.59375,0.0,0.0,0.0,350
351,1695737740691,-2.0,0.125,0.0859375,-181.90625,308.40625,7.5625,0.0,0.0,0.0,351
352,1695737740731,-1.6035156,1.0527344,0.095703125,150.875,114.0,89.34375,0.0,0.0,0.0,352
353,1695737740771,0.27441406,-0.34960938,0.3828125,34.96875,40.875,52.53125,0.0,0.0,0.0,353
354,1695737740811,1.4697266,-0.32714844,0.9921875,-101.75,-109.28125,-37.96875,0.0,0.0,0.0,354
355,1695737740851,-0.37402344,-0.96777344,-0.5283203,-83.21875,-163.53125,-90.21875,0.0,0.0,0.0,355
356,1695737740891,-0.8613281,-0.28125,-0.5205078,-239.46875,-97.5,-13.0625,0.0,0.0,0.0,356
357,1695737740931,-0.6455078,1.0507812,-0.85839844,-170.71875,-63.90625,-18.15625,-78.125,-48.5625,-84.375,357
358,1695737740971,-1.9755859,-0.8642578,2.0,-183.4375,104.40625,16.15625,0.0,0.0,0.0,358
359,1695737741011,-0.064453125,-0.3408203,-0.13671875,-379.96875,183.28125,-8.4375,0.0,0.0,0.0,359
360,1695737741051,-1.8691406,-0.67578125,1.2871094,244.3125,36.71875,-306.46875,0.0,0.0,0.0,360
361,1695737741091,-2.0,2.0,2.0,484.375,-345.96875,237.46875,0.0,0.0,0.0,361
362,1695737741131,-1.7597656,-1.6083984,-2.0,295.03125,-986.09375,208.84375,0.0,0.0,0.0,362
363,1695737741171,-0.33398438,-1.8369141,-0.29589844,-103.78125,-228.28125,11.71875,0.0,0.0,0.0,363
364,1695737741211,-0.41308594,1.2382812,-1.7451172,-45.96875,18.1875,-174.21875,0.0,0.0,0.0,364
365,1695737741251,-0.40039062,-0.051757812,0.11328125,-133.0,88.5,-4.28125,0.0,0.0,0.0,365
366,1695737741291,-0.29003906,0.4404297,-0.41015625,197.5625,223.25,15.84375,0.0,0.0,0.0,366
367,1695737741331,-1.1289062,0.9736328,0.4951172,177.40625,210.0,-5.5,0.0,0.0,0.0,367
368,1695737741371,-2.0,-0.091796875,-0.44921875,185.65625,434.5,-97.5,0.0,0.0,0.0,368
369,1695737741411,-2.0,-0.7080078,-0.48242188,-255.25,334.15625,-3.5,-80.375,-51.875,-74.75,369
370,1695737741451,-2.0,1.0341797,0.453125,-207.09375,121.3125,87.03125,0.0,0.0,0.0,370
371,1695737741491,-0.0234375,-0.58496094,0.17871094,-8.3125,57.71875,74.03125,0.0,0.0,0.0,371
372,1695737741531,2.0,-0.5410156,1.1044922,62.375,-45.0625,-51.46875,0.0,0.0,0.0,372
373,1695737741571,-0.25,-1.8417969,0.076171875,-173.84375,-195.03125,-92.0625,0.0,0.0,0.0,373
374,1695737741611,-0.45703125,-0.20410156,-0.14160156,-184.65625,-123.6875,-48.90625,0.0,0.0,0.0,374
375,1695737741651,-0.65527344,0.85058594,0.39746094,-321.5625,-125.0,-40.71875,0.0,0.0,0.0,375
376,1695737741691,-1.3867188,-0.67578125,0.6171875,-74.65625,27.8125,-17.09375,0.0,0.0,0.0,376
377,1695737741731,-1.4052734,-0.890625,0.38671875,-133.5625,-59.34375,-119.21875,0.0,0.0,0.0,377
378,1695737741771,-2.0,1.6601562,2.0,765.84375,149.8125,-3.25,0.0,0.0,0.0,378
379,1695737741811,-2.0,1.1191406,-1.4111328,-93.09375,-61.53125,257.8125,0.0,0.0,0.0,379
380,1695737741851,-0.5292969,-0.92871094,-0.2861328,167.03125,-193.375,-27.78125,0.0,0.0,0.0,380
381,1695737741891,0.80566406,-2.0,-2.0,-274.90625,-690.25,-139.25,0.0,0.0,0.0,381
382,1695737741931,-0.6328125,0.6689453,-2.0,411.96875,238.875,-188.8125,-73.625,-40.75,-50.0,382
383,1695737741971,-0.38183594,-0.2529297,0.26757812,-142.46875,268.53125,-55.4375,0.0,0.0,0.0,383
384,1695737742011,-0.52441406,-0.16796875,-0.30566406,232.40625,194.625,-26.1875,0.0,0.0,0.0,384
385,1695737742051,-2.0,1.4785156,-0.71972656,141.9375,180.15625,-23.9375,0.0,0.0,0.0,385
386,1695737742091,-2.0,-0.9355469,-0.6669922,-304.53125,390.625,-211.625,0.0,0.0,0.0,386
387,1695737742131,-2.0,-0.50390625,0.8339844,-14.78125,386.46875,26.53125,0.0,0.0,0.0,387
388,1695737742171,-1.4443359,0.34472656,0.45214844,-73.125,126.28125,94.03125,0.0,0.0,0.0,388
389,1695737742211,0.50683594,-0.41796875,0.78027344,-30.09375,47.21875,41.78125,0.0,0.0,0.0,389
390,1695737742251,2.0,0.2421875,1.6054688,17.4375,-154.96875,23.96875,0.0,0.0,0.0,390
391,1695737742291,-0.5859375,-1.4306641,-0.80078125,-416.09375,-190.3125,3.34375,0.0,0.0,0.0,391
392,1695737742331,-0.7324219,0.22363281,-0.9296875,-272.125,-85.46875,-10.28125,0.0,0.0,0.0,392
393,1695737742371,-0.69921875,0.18554688,0.6015625,-313.3125,-15.6875,16.84375,0.0,0.0,0.0,393
394,1695737742411,-0.8486328,-0.9316406,0.3408203,-448.8125,123.46875,-81.125,-77.875,-40.1875,-80.3125,394
395,1695737742451,-0.71972656,-0.92871094,0.8808594,-44.75,191.34375,-230.96875,0.0,0.0,0.0,395
396,1695737742491,-2.0,2.0,1.8125,1023.0,-243.84375,68.28125,0.0,0.0,0.0,396
397,1695737742531,-2.0,-0.24023438,-2.0,-561.90625,-716.5625,108.6875,0.0,0.0,0.0,397
398,1695737742571,-1.5507812,-0.46289062,-1.0439453,-94.875,-157.5625,53.15625,0.0,0.0,0.0,398
399,1695737742611,0.59277344,0.359375,-1.2021484,268.0,-12.03125,-18.8125,0.0,0.0,0.0,399
400,1695737742651,-0.17578125,0.4404297,-0.78027344,-30.40625,139.3125,-189.59375,0.0,0.0,0.0,400
401,1695737742691,-0.5390625,0.22265625,0.055664062,-28.59375,139.875,-27.71875,0.0,0.0,0.0,401
402,1695737742731,-0.3828125,-0.00390625,-0.5048828,260.46875,226.59375,-22.34375,0.0,0.0,0.0,402
403,1695737742771,-1.2060547,0.4609375,0.041015625,156.125,228.1875,-55.3125,0.0,0.0,0.0,403
404,1695737742811,-2.0,2.0,-0.7558594,-77.21875,464.34375,-110.0,0.0,0.0,0.0,404
405,1695737742851,-2.0,-0.42773438,0.7558594,192.0,261.65625,-6.1875,0.0,0.0,0.0,405
406,1695737742891,-1.1650391,-0.38867188,0.20019531,-127.53125,157.9375,128.65625,0.0,0.0,0.0,406
407,1695737742931,0.34375,-0.45214844,0.77734375,-154.625,-52.875,10.59375,-71.25,-47.6875,-92.125,407
408,1695737742971,1.6083984,-0.43945312,0.56933594,66.625,-158.84375,21.84375,0.0,0.0,0.0,408
409,1695737743011,-0.3642578,-0.91308594,-0.34375,-257.875,-169.375,-51.03125,0.0,0.0,0.0,409
410,1695737743051,-0.69921875,0.09863281,-0.51953125,-323.125,-90.28125,-24.78125,0.0,0.0,0.0,410
411,1695737743091,-0.059570312,0.21289062,0.96972656,-342.53125,21.28125,-31.875,0.0,0.0,0.0,411
412,1695737743131,-2.0,-1.7001953,0.73046875,-116.28125,-21.0,-88.875,0.0,0.0,0.0,412
413,1695737743171,-0.36621094,-0.5371094,0.25195312,-298.34375,-54.8125,-70.03125,0.0,0.0,0.0,413
414,1695737743211,-2.0,2.0,-1.4277344,1023.0,-92.78125,-26.0625,0.0,0.0,0.0,414
415,1695737743251,-2.0,0.21386719,-1.1396484,3.34375,-151.3125,250.65625,0.0,0.0,0.0,415
416,1695737743291,-1.8056641,-1.1484375,-0.5917969,187.71875,-231.9375,0.46875,0.0,0.0,0.0,416
417,1695737743331,0.22167969,-2.0,-0.7158203,301.875,-397.46875,-25.90625,0.0,0.0,0.0,417
418,1695737743371,0.15820312,1.0410156,-1.9931641,49.46875,37.21875,-244.46875,0.0,0.0,0.0,418
419,1695737743411,-0.115234375,0.024414062,0.0859375,-166.65625,157.46875,-27.0,-75.125,-44.5,-53.3125,419
420,1695737743451,-0.31152344,0.27246094,-0.40722656,3.40625,214.65625,23.78125,0.0,0.0,0.0,420
421,1695737743491,-1.0859375,0.3779297,0.41601562,101.25,235.40625,-7.8125,0.0,0.0,0.0,421
422,1695737743531,-2.0,0.6669922,-0.45703125,7.90625,222.875,-72.90625,0.0,0.0,0.0,422
423,1695737743571,-2.0,0.024414062,-0.25,-48.125,238.375,109.59375,0.0,0.0,0.0,423
424,1695737743611,-1.5048828,1.0126953,0.3623047,-21.8125,78.21875,108.8125,0.0,0.0,0.0,424
425,1695737743651,-0.0068359375,-0.41308594,0.31933594,7.8125,13.03125,27.5,0.0,0.0,0.0,425
426,1695737743691,1.8183594,-1.0351562,1.2617188,-80.15625,-106.875,-49.15625,0.0,0.0,0.0,426
427,1695737743731,-0.40039062,-0.7949219,-0.6875,-184.46875,-96.75,-81.5625,0.0,0.0,0.0,427
428,1695737743771,-0.9716797,0.3798828,-0.34765625,-51.96875,-86.375,-39.8125,0.0,0.0,0.0,428
429,1695737743811,-0.51171875,0.15429688,1.2412109,-246.46875,-77.84375,-28.34375,0.0,0.0,0.0,429
430,1695737743851,-2.0,-1.7617188,0.30664062,-41.6875,-32.59375,26.28125,0.0,0.0,0.0,430
431,1695737743891,-0.76464844,-0.8652344,0.24023438,-312.5,3.9375,-95.40625,0.0,0.0,0.0,431
432,1695737743931,-2.0,2.0,0.7138672,853.25,55.40625,-23.28125,-79.0625,-44.1875,-82.5625,432
433,1695737743971,-2.0,1.8681641,-0.75097656,337.15625,-146.375,110.46875,0.0,0.0,0.0,433
434,1695737744011,-0.6767578,-1.0996094,-0.24414062,108.4375,-134.90625,35.875,0.0,0.0,0.0,434
435,1695737744051,0.08886719,-2.0,-1.7578125,-54.6875,-813.90625,-71.1875,0.0,0.0,0.0,435
436,1695737744091,-0.06347656,1.4824219,-2.0,329.09375,31.65625,-150.40625,0.0,0.0,0.0,436
437,1695737744131,-0.23339844,-0.49902344,0.18164062,-328.5,197.90625,-37.6875,0.0,0.0,0.0,437
438,1695737744171,-0.36328125,0.20019531,0.13769531,178.9375,155.6875,42.78125,0.0,0.0,0.0,438
439,1695737744211,-2.0,1.8876953,-0.17480469,311.1875,241.9375,25.25,0.0,0.0,0.0,439
440,1695737744251,-2.0,-0.20019531,-0.31347656,-126.125,217.75,-140.28125,0.0,0.0,0.0,440
441,1695737744291,-1.2568359,0.4580078,1.0185547,84.09375,393.0625,-97.84375,0.0,0.0,0.0,441
442,1695737744331,-0.9316406,-0.08105469,0.2919922,-80.875,153.0625,57.71875,0.0,0.0,0.0,442
443,1695737744371,0.6689453,-0.6191406,0.55566406,80.5,-9.46875,40.875,0.0,0.0,0.0,443
444,1695737744411,1.4892578,0.047851562,1.2001953,-9.71875,-219.625,-14.3125,-74.875,-49.4375,-92.125,444
445,1695737744451,-0.40429688,-0.9433594,-0.7626953,-295.96875,-66.59375,-24.78125,0.0,0.0,0.0,445
446,1695737744491,-1.71875,0.75683594,-1.0449219,-274.5625,-6.53125,0.09375,0.0,0.0,0.0,446
447,1695737744531,-0.052734375,-0.28808594,1.1289062,-322.03125,60.21875,-31.625,0.0,0.0,0.0,447
448,1695737744571,-1.4951172,-1.2109375,0.47753906,-238.28125,-129.21875,-94.5,0.0,0.0,0.0,448
449,1695737744611,-0.3310547,-0.45410156,0.9160156,-106.65625,17.375,-217.71875,0.0,0.0,0.0,449
450,1695737744651,-2.0,2.0,-1.3896484,1023.0,-277.78125,-18.625,0.0,0.0,0.0,450
451,1695737744691,-2.0,0.9140625,-0.69921875,264.21875,34.96875,162.71875,0.0,0.0,0.0,451
452,1695737744731,-0.43652344,-1.2089844,-0.46679688,26.03125,-237.75,-33.15625,0.0,0.0,0.0,452
453,1695737744771,0.43652344,-1.7685547,-1.7871094,39.59375,-671.15625,-37.125,0.0,0.0,0.0,453
454,1695737744811,-0.25097656,0.7832031,-1.8662109,458.96875,116.0625,-140.15625,0.0,0.0,0.0,454
455,1695737744851,-0.24023438,-0.62109375,0.028320312,-25.21875,208.59375,-25.96875,0.0,0.0,0.0,455
456,1695737744891,-0.8105469,-0.030273438,-0.12597656,227.65625,234.0,-97.78125,0.0,0.0,0.0,456
457,1695737744931,-2.0,1.9023438,-0.70410156,56.625,219.34375,-72.03125,-80.6875,-49.625,-68.625,457
458,1695737744971,-2.0,-0.24804688,-0.5292969,-101.03125,358.0625,-123.0625,0.0,0.0,0.0,458
459,1695737745011,-1.8828125,0.59765625,0.15527344,34.78125,362.71875,-172.625,0.0,0.0,0.0,459
460,1695737745051,-0.9033203,-0.7519531,-0.12011719,-37.6875,139.75,68.78125,0.0,0.0,0.0,460
461,1695737745091,1.1621094,0.08105469,1.5302734,71.625,-51.03125,1.6875,0.0,0.0,0.0,461
462,1695737745131,0.9765625,0.265625,1.3271484,-43.59375,-290.65625,2.4375,0.0,0.0,0.0,462
463,1695737745171,-0.5019531,-0.43847656,-1.2685547,-395.46875,-118.125,16.9375,0.0,0.0,0.0,463
464,1695737745211,-1.6279297,0.33007812,-0.6699219,-149.3125,-96.5625,-72.46875,0.0,0.0,0.0,464
465,1695737745251,-1.4648438,-0.40234375,0.62890625,-190.375,72.75,-13.375,0.0,0.0,0.0,465
466,1695737745291,0.11621094,-0.4423828,0.2548828,-312.5625,139.3125,40.28125,0.0,0.0,0.0,466
467,1695737745331,-0.6435547,-0.6933594,0.4189453,-232.25,-85.40625,-155.34375,0.0,0.0,0.0,467
468,1695737745371,-2.0,1.2802734,2.0,777.75,-6.96875,-231.65625,0.0,0.0,0.0,468
469,1695737745411,-2.0,2.0,-0.1640625,-202.09375,-169.15625,171.5,-75.625,-51.25,-79.375,469
470,1695737745451,-2.0,-0.6972656,-1.3564453,179.1875,-90.53125,12.875,0.0,0.0,0.0,470
471,1695737745491,0.8300781,-0.4609375,-1.0859375,5.96875,-90.40625,-138.1875,0.0,0.0,0.0,471
472,1695737745531,-0.119140625,0.359375,-0.20800781,-139.0,156.0625,-109.28125,0.0,0.0,0.0,472
473,1695737745571,0.21875,1.3085938,-0.73535156,10.0625,113.875,1.5625,0.0,0.0,0.0,473
474,1695737745611,-0.7910156,-0.3466797,-0.24121094,320.25,181.0,-8.0,0.0,0.0,0.0,474
475,1695737745651,-2.0,2.0,0.19140625,186.75,300.21875,48.375,0.0,0.0,0.0,475
476,1695737745691,-2.0,-0.68066406,-0.62890625,-144.1875,228.125,-91.5,0.0,0.0,0.0,476
477,1695737745731,-2.0,0.19335938,0.49414062,-115.5,271.03125,104.40625,0.0,0.0,0.0,477
478,1695737745771,-1.3095703,-0.15625,-0.0029296875,-14.71875,81.71875,25.25,0.0,0.0,0.0,478
479,1695737745811,0.55371094,-0.33007812,0.8125,4.375,-36.34375,-29.0,0.0,0.0,0.0,479
480,1695737745851,1.1650391,-0.2421875,1.5332031,-129.15625,-192.21875,-72.78125,0.0,0.0,0.0,480
481,1695737745891,-0.26953125,-0.5800781,-0.9970703,-171.21875,-83.28125,-68.75,0.0,0.0,0.0,481
482,1695737745931,-2.0,1.1826172,-1.1503906,-239.625,-36.46875,32.5625,-76.8125,-46.9375,-87.5,482
483,1695737745971,0.38476562,-0.18066406,0.3857422,-255.875,103.0,58.03125,0.0,0.0,0.0,483
484,1695737746011,-1.9677734,-1.1181641,0.15136719,-198.8125,-111.34375,-117.9375,0.0,0.0,0.0,484
485,1695737746051,-0.48242188,-0.42089844,0.890625,-88.75,100.03125,-149.375,0.0,0.0,0.0,485
486,1695737746091,-2.0,2.0,0.25195312,512.6875,-1024.0,-32.59375,0.0,0.0,0.0,486
487,1695737746131,-1.7070312,-0.81640625,-0.095703125,265.78125,-84.125,121.875,0.0,0.0,0.0,487
488,1695737746171,-0.63183594,-0.8544922,-0.46875,168.125,-428.71875,92.875,0.0,0.0,0.0,488
489,1695737746211,-0.64941406,-0.22851562,-2.0,444.9375,72.4375,-76.25,0.0,0.0,0.0,489
490,1695737746251,-0.29492188,-0.12890625,-0.4189453,-104.15625,242.96875,-120.1875,0.0,0.0,0.0,490
491,1695737746291,-0.3359375,0.14648438,-0.38183594,4.25,174.3125,-5.21875,0.0,0.0,0.0,491
492,1695737746331,-1.6445312,1.3125,-0.3154297,150.375,221.65625,9.5,0.0,0.0,0.0,492
493,1695737746371,-2.0,-0.7626953,0.39453125,76.9375,223.5625,-232.25,0.0,0.0,0.0,493
494,1695737746411,-2.0,-0.6972656,-0.0078125,-335.78125,342.8125,29.84375,-78.625,-51.4375,-77.875,494
495,1695737746451,-1.8642578,0.7109375,0.16601562,-163.59375,173.03125,44.78125,0.0,0.0,0.0,495
496,1695737746491,-0.25195312,-0.59472656,-0.060546875,111.75,13.59375,65.15625,0.0,0.0,0.0,496
497,1695737746531,2.0,0.01171875,0.8886719,139.625,-79.90625,-61.21875,0.0,0.0,0.0,497
498,1695737746571,-0.3515625,-1.5039062,0.11328125,-289.25,-214.625,-15.46875,0.0,0.0,0.0,498
499,1695737746611,-0.86816406,0.3125,-0.29882812,-207.15625,-59.34375,-3.875,0.0,0.0,0.0,499
500,1695737746651,-0.7089844,1.2910156,0.10449219,-255.03125,-87.28125,74.21875,0.0,0.0,0.0,500
501,1695737746691,-2.0,-1.6474609,0.28710938,-171.84375,-22.15625,-41.40625,0.0,0.0,0.0,501
502,1695737746731,-0.5390625,-0.51660156,0.060546875,-262.71875,-68.6875,10.375,0.0,0.0,0.0,502
503,1695737746771,-1.3085938,-0.57910156,1.4248047,208.34375,202.125,-273.34375,0.0,0.0,0.0,503
504,1695737746811,-2.0,2.0,-0.09375,341.0,-372.34375,452.5625,0.0,0.0,0.0,504
505,1695737746851,-2.0,-0.047851562,-1.4199219,-63.375,-96.9375,192.1875,0.0,0.0,0.0,505
506,1695737746891,0.64746094,-2.0,-1.0595703,-179.28125,-542.9375,-48.78125,0.0,0.0,0.0,506
507,1695737746931,-0.8027344,1.6474609,-2.0,567.4375,208.90625,-201.0,-75.125,-38.5,-51.1875,507
508,1695737746971,-0.13769531,-0.20703125,-0.20214844,-174.15625,266.71875,-115.90625,0.0,0.0,0.0,508
509,1695737747011,-0.29882812,0.32617188,-0.26171875,98.0,185.34375,6.9375,0.0,0.0,0.0,509
510,1695737747051,-1.5957031,1.1982422,-0.24511719,200.96875,195.1875,3.59375,0.0,0.0,0.0,510
511,1695737747091,-2.0,-0.4560547,-0.2890625,-106.09375,354.78125,-283.15625,0.0,0.0,0.0,511
512,1695737747131,-2.0,-0.5390625,0.24414062,-161.46875,363.4375,-35.0625,0.0,0.0,0.0,512
513,1695737747171,-1.7333984,0.38378906,0.17382812,-111.90625,112.78125,138.78125,0.0,0.0,0.0,513
514,1695737747211,0.62597656,-0.24707031,0.8769531,99.90625,-8.875,24.9375,0.0,0.0,0.0,514
515,1695737747251,1.9892578,0.016601562,1.6650391,-13.75,-169.03125,-49.21875,0.0,0.0,0.0,515
516,1695737747291,-0.33203125,-1.0302734,-1.1494141,-261.4375,-92.84375,-42.0625,0.0,0.0,0.0,516
517,1695737747331,-1.8027344,0.35253906,-1.1386719,-404.5,-78.5,-0.625,0.0,0.0,0.0,517
518,1695737747371,-0.0146484375,-0.2265625,0.88671875,-344.125,177.59375,-42.875,0.0,0.0,0.0,518
519,1695737747411,-2.0,-2.0,0.6640625,-226.03125,-170.125,-219.0,-74.5625,-39.5625,-90.375,519
520,1695737747451,-0.3388672,-0.39746094,1.0820312,-40.375,-10.40625,-180.0,0.0,0.0,0.0,520
521,1695737747491,-2.0,2.0,0.91015625,237.96875,-1024.0,271.15625,0.0,0.0,0.0,521
522,1695737747531,-2.0,0.33398438,-0.08691406,447.5,-44.5,149.9375,0.0,0.0,0.0,522
523,1695737747571,-0.796875,-1.2871094,-0.5419922,9.1875,-339.90625,48.875,0.0,0.0,0.0,523
524,1695737747611,-0.859375,0.16601562,-2.0,586.28125,73.84375,-174.15625,0.0,0.0,0.0,524
525,1695737747651,-0.24414062,-0.15820312,-0.28027344,-122.625,261.28125,-213.09375,0.0,0.0,0.0,525
526,1695737747691,0.043945312,0.23730469,-0.28515625,-104.15625,158.75,34.53125,0.0,0.0,0.0,526
527,1695737747731,-0.76660156,0.41308594,0.056640625,111.625,222.875,-21.0,0.0,0.0,0.0,527
528,1695737747771,-2.0,1.4619141,0.08691406,3.34375,275.8125,-27.65625,0.0,0.0,0.0,528
529,1695737747811,-2.0,-0.20117188,-0.91308594,-161.21875,281.53125,37.03125,0.0,0.0,0.0,529
530,1695737747851,-1.96875,1.1230469,0.0390625,38.375,240.15625,-74.1875,0.0,0.0,0.0,530
531,1695737747891,-0.2685547,-0.13964844,0.08691406,4.3125,50.53125,35.03125,0.0,0.0,0.0,531
532,1695737747931,0.48339844,-0.47070312,0.6767578,199.09375,-116.09375,-10.75,-70.1875,-45.25,-95.875,532
533,1695737747971,-0.26367188,-0.9609375,0.6464844,-147.28125,-272.40625,-46.71875,0.0,0.0,0.0,533
534,1695737748011,-0.5048828,-0.7089844,-0.26660156,-260.09375,-119.15625,-14.34375,0.0,0.0,0.0,534
535,1695737748051,-0.7480469,0.7060547,-0.35253906,-245.75,-56.09375,5.21875,0.0,0.0,0.0,535
536,1695737748091,-0.5253906,-0.4970703,0.3876953,-125.875,29.15625,13.96875,0.0,0.0,0.0,536
537,1695737748131,-1.6972656,-1.2353516,0.66015625,-174.46875,-218.46875,-180.75,0.0,0.0,0.0,537
538,1695737748171,-2.0,1.4365234,0.8017578,176.3125,-109.8125,-181.96875,0.0,0.0,0.0,538
539,1695737748211,-2.0,2.0,0.7294922,397.875,-131.59375,125.03125,0.0,0.0,0.0,539
540,1695737748251,-1.2705078,-1.0625,-0.03515625,80.25,-238.84375,96.25,0.0,0.0,0.0,540
541,1695737748291,-0.31347656,-2.0,-0.89746094,453.53125,-475.0625,-56.40625,0.0,0.0,0.0,541
542,1695737748331,-0.29882812,0.79003906,-1.3710938,-159.625,126.375,-165.46875,0.0,0.0,0.0,542
543,1695737748371,-0.20605469,-0.24902344,0.41308594,-177.5625,121.25,-40.71875,0.0,0.0,0.0,543
544,1695737748411,-0.7001953,0.78515625,-0.8730469,177.34375,279.34375,38.5625,-76.625,-46.3125,-60.1875,544
545,1695737748451,-2.0,1.9990234,0.61035156,205.375,305.90625,43.875,0.0,0.0,0.0,545
546,1695737748491,-2.0,-1.0869141,-0.7685547,-2.875,138.09375,-166.75,0.0,0.0,0.0,546
547,1695737748531,-2.0,0.42871094,0.83496094,-32.96875,324.875,48.09375,0.0,0.0,0.0,547
548,1695737748571,-1.2753906,-0.09863281,0.14648438,126.09375,136.03125,71.21875,0.0,0.0,0.0,548
549,1695737748611,0.51171875,-0.30273438,1.2490234,-7.03125,-79.375,7.0,0.0,0.0,0.0,549
550,1695737748651,1.3896484,0.111328125,1.5244141,-77.09375,-199.65625,-36.9375,0.0,0.0,0.0,550
551,1695737748691,-0.4609375,-0.99902344,-1.0273438,-308.59375,-105.90625,-53.71875,0.0,0.0,0.0,551
552,1695737748731,-1.9667969,0.7578125,-1.3486328,-261.6875,-59.59375,-3.375,0.0,0.0,0.0,552
553,1695737748771,-0.095703125,0.18847656,1.1289062,-333.875,61.09375,67.71875,0.0,0.0,0.0,553
554,1695737748811,-1.6367188,-1.4931641,0.15429688,-318.875,-104.875,-87.96875,0.0,0.0,0.0,554
555,1695737748851,-0.25097656,-0.6113281,0.75,-226.34375,5.96875,-113.71875,0.0,0.0,0.0,555
556,1695737748891,-2.0,2.0,1.7734375,1023.0,-82.46875,-159.625,0.0,0.0,0.0,556
557,1695737748931,-2.0,-0.30273438,-1.953125,93.78125,55.40625,155.125,-75.75,-48.5625,-68.3125,557
558,1695737748971,-0.47753906,-0.7265625,-0.5810547,24.15625,-271.8125,-6.84375,0.0,0.0,0.0,558
559,1695737749011,-0.08886719,0.70214844,-1.8105469,596.78125,-188.625,-53.40625,0.0,0.0,0.0,559
560,1695737749051,-0.061523438,0.19335938,-0.29296875,65.28125,177.21875,-136.3125,0.0,0.0,0.0,560
561,1695737749091,-0.3515625,-0.0009765625,0.14550781,-44.5,155.125,-6.71875,0.0,0.0,0.0,561
562,1695737749131,-0.73828125,0.2607422,-0.21582031,313.03125,193.78125,-33.40625,0.0,0.0,0.0,562
563,1695737749171,-2.0,1.8740234,-0.6230469,-21.6875,167.65625,37.53125,0.0,0.0,0.0,563
564,1695737749211,-2.0,-1.0009766,-0.92578125,-58.125,347.75,-231.15625,0.0,0.0,0.0,564
565,1695737749251,-1.1923828,-0.19628906,0.5800781,-97.1875,330.4375,5.0,0.0,0.0,0.0,565
566,1695737749291,-0.6640625,0.12207031,0.41308594,-99.0625,106.84375,62.90625,0.0,0.0,0.0,566
567,1695737749331,1.4228516,-0.2734375,1.5146484,-22.96875,-62.46875,-51.90625,0.0,0.0,0.0,567
568,1695737749371,-0.022460938,-0.81347656,1.2958984,-32.65625,-285.90625,-40.40625,0.0,0.0,0.0,568
569,1695737749411,-0.9326172,-0.016601562,-0.96191406,-156.15625,48.5625,26.96875,-78.75,-48.4375,-82.125,569
570,1695737749451,-1.4033203,0.43847656,-1.2919922,-212.53125,-134.15625,24.65625,0.0,0.0,0.0,570
571,1695737749491,-0.43652344,-0.8984375,0.56933594,-391.875,206.59375,-12.46875,0.0,0.0,0.0,571
572,1695737749531,-0.86035156,-1.0380859,0.38476562,-290.0625,-281.09375,-52.125,0.0,0.0,0.0,572
573,1695737749571,-0.6669922,-1.0371094,1.0722656,61.15625,175.53125,-268.75,0.0,0.0,0.0,573
574,1695737749611,-2.0,2.0,1.734375,375.09375,-1024.0,167.96875,0.0,0.0,0.0,574
575,1695737749651,-2.0,0.6923828,-0.23339844,512.5625,-82.78125,99.96875,0.0,0.0,0.0,575
576,1695737749691,-0.22949219,-0.8535156,-0.4091797,-7.09375,-353.78125,138.96875,0.0,0.0,0.0,576
577,1695737749731,-0.4140625,0.5,-2.0,519.28125,246.5625,-163.65625,0.0,0.0,0.0,577
578,1695737749771,0.09375,0.14550781,-0.19726562,-157.5625,242.34375,-135.8125,0.0,0.0,0.0,578
579,1695737749811,-0.15527344,-0.15429688,0.20898438,-4.09375,169.53125,15.65625,0.0,0.0,0.0,579
580,1695737749851,-1.5009766,0.9013672,-0.21386719,265.78125,249.3125,-29.5,0.0,0.0,0.0,580
581,1695737749891,-2.0,-0.0234375,0.5908203,-87.0625,353.0,-168.46875,0.0,0.0,0.0,581
582,1695737749931,-2.0,-0.45410156,-0.48535156,-136.125,373.53125,-19.4375,-80.6875,-49.0,-80.0,582
583,1695737749971,-2.0,1.6748047,0.053710938,145.0,82.3125,-46.03125,0.0,0.0,0.0,583
584,1695737750011,-0.0703125,-0.5908203,0.07519531,26.71875,33.4375,27.8125,0.0,0.0,0.0,584
585,1695737750051,1.6132812,0.12988281,0.8925781,161.90625,-105.65625,-49.875,0.0,0.0,0.0,585
586,1695737750091,-0.10058594,-0.8925781,0.5732422,-125.625,-261.6875,-30.71875,0.0,0.0,0.0,586
587,1695737750131,-1.2148438,0.016601562,-0.60253906,-245.125,-45.0,31.59375,0.0,0.0,0.0,587
588,1695737750171,-1.3085938,0.6855469,-1.0332031,-130.03125,-31.875,-44.9375,0.0,0.0,0.0,588
589,1695737750211,-2.0,-0.9091797,1.1904297,-148.21875,74.03125,-62.75,0.0,0.0,0.0,589
590,1695737750251,-0.23144531,-0.4794922,-0.024414062,-284.1875,70.0625,-7.28125,0.0,0.0,0.0,590
591,1695737750291,-1.0058594,-0.93066406,0.8925781,-44.9375,-156.5625,-160.0,0.0,0.0,0.0,591
592,1695737750331,-2.0,2.0,1.8867188,800.28125,-348.78125,63.875,0.0,0.0,0.0,592
593,1695737750371,-2.0,1.4111328,-1.9355469,282.875,-204.78125,194.5625,0.0,0.0,0.0,593
594,1695737750411,0.25097656,-2.0,-1.125,-32.3125,-274.75,5.65625,-79.5,-40.3125,-60.5,594
595,1695737750451,-0.25976562,1.7451172,-2.0,72.96875,70.125,-130.15625,0.0,0.0,0.0,595
596,1695737750491,-0.45214844,-0.16796875,0.24023438,-265.8125,123.75,-44.5,0.0,0.0,0.0,596
597,1695737750531,-0.9003906,0.48632812,-0.01171875,405.25,355.09375,36.375,0.0,0.0,0.0,597
598,1695737750571,-1.8789062,1.015625,0.42578125,341.0625,194.4375,10.84375,0.0,0.0,0.0,598
599,1695737750611,-2.0,-0.15234375,-1.4189453,-377.6875,394.40625,-176.84375,0.0,0.0,0.0,599
600,1695737750651,-2.0,0.78515625,0.7480469,28.1875,409.15625,91.34375,0.0,0.0,0.0,600
601,1695737750691,-0.9873047,-0.13671875,-0.018554688,123.03125,136.53125,14.5,0.0,0.0,0.0,601
602,1695737750731,0.64160156,0.123046875,0.9267578,288.125,-33.9375,0.90625,0.0,0.0,0.0,602
603,1695737750771,0.62402344,-0.08496094,1.9648438,-127.53125,-276.1875,-23.5,0.0,0.0,0.0,603
604,1695737750811,-0.61035156,-0.40234375,-1.40625,-70.3125,-9.34375,-48.90625,0.0,0.0,0.0,604
605,1695737750851,-1.7255859,-0.07324219,-1.0595703,-275.46875,-79.4375,25.3125,0.0,0.0,0.0,605
606,1695737750891,0.19726562,-0.3671875,1.5683594,-395.40625,146.40625,-21.75,0.0,0.0,0.0,606
607,1695737750931,-2.0,-1.9355469,0.46972656,-322.53125,-127.59375,-170.3125,-74.5625,-37.75,-89.3125,607
608,1695737750971,-0.018554688,-0.7089844,0.6201172,-289.0625,-89.4375,-157.65625,0.0,0.0,0.0,608
609,1695737751011,-2.0,2.0,1.4492188,1023.0,-351.40625,325.4375,0.0,0.0,0.0,609
610,1695737751051,-2.0,-2.0,-2.0,-375.6875,-430.1875,85.25,0.0,0.0,0.0,610
611,1695737751091,-0.56152344,-0.91015625,0.33496094,46.3125,-208.5,65.0625,0.0,0.0,0.0,611
612,1695737751131,-1.0830078,0.296875,-2.0,542.78125,155.125,-187.40625,0.0,0.0,0.0,612
613,1695737751171,-0.16796875,-0.32910156,0.06347656,-322.78125,265.1875,-174.5625,0.0,0.0,0.0,613
614,1695737751211,-0.20507812,0.68359375,0.0,-32.1875,132.3125,89.875,0.0,0.0,0.0,614
615,1695737751251,-0.76660156,0.53808594,0.4736328,235.75,191.5625,-19.0,0.0,0.0,0.0,615
616,1695737751291,-2.0,0.09375,-0.22851562,43.1875,281.46875,-67.28125,0.0,0.0,0.0,616
617,1695737751331,-2.0,-0.21191406,-0.12109375,-76.75,319.5,-24.75,0.0,0.0,0.0,617
618,1695737751371,-2.0,0.5078125,0.17871094,22.25,108.25,76.65625,0.0,0.0,0.0,618
619,1695737751411,0.39160156,-0.06933594,0.94433594,102.53125,24.34375,12.375,-68.125,-46.0,-95.875,619
620,1695737751451,1.9316406,0.07324219,1.3017578,-59.90625,-213.9375,-36.5,0.0,0.0,0.0,620
621,1695737751491,-0.36035156,-1.0087891,-0.29882812,-112.625,-186.21875,-65.625,0.0,0.0,0.0,621
622,1695737751531,-1.2382812,-0.026367188,-0.6298828,-268.3125,-82.53125,-11.6875,0.0,0.0,0.0,622
623,1695737751571,-0.9550781,0.45214844,-1.1035156,-305.375,-48.1875,4.3125,0.0,0.0,0.0,623
624,1695737751611,-0.9716797,-1.3730469,1.7636719,-366.03125,272.1875,-1.78125,0.0,0.0,0.0,624
625,1695737751651,0.6357422,-0.5292969,-0.059570312,-344.8125,152.03125,78.40625,0.0,0.0,0.0,625
626,1695737751691,-1.1044922,-0.5283203,1.0644531,239.125,-235.25,-296.59375,0.0,0.0,0.0,626
627,1695737751731,-2.0,2.0,1.0390625,586.59375,-496.71875,155.375,0.0,0.0,0.0,627
628,1695737751771,-2.0,-0.20410156,-2.0,815.21875,-827.46875,308.28125,0.0,0.0,0.0,628
629,1695737751811,0.91796875,-2.0,-1.2734375,-126.71875,-157.90625,-89.75,0.0,0.0,0.0,629
630,1695737751851,-0.6875,1.2050781,-2.0,-38.09375,117.46875,-177.03125,0.0,0.0,0.0,630
631,1695737751891,-0.20117188,-0.083984375,0.5205078,-225.28125,122.90625,-24.6875,0.0,0.0,0.0,631
632,1695737751931,-0.36621094,0.796875,-0.7373047,279.15625,195.25,36.84375,-77.125,-46.1875,-63.8125,632
633,1695737751971,-1.1416016,1.0361328,0.4404297,234.0,220.03125,-17.59375,0.0,0.0,0.0,633
634,1695737752011,-2.0,-0.28027344,-0.24707031,-16.5,186.15625,-107.25,0.0,0.0,0.0,634
635,1695737752051,-2.0,-0.0234375,0.69140625,-81.0,311.3125,86.46875,0.0,0.0,0.0,635
636,1695737752091,-1.1279297,0.2939453,0.5048828,69.625,137.5,96.46875,0.0,0.0,0.0,636
637,1695737752131,0.16015625,-0.67871094,0.4296875,35.375,25.125,20.0,0.0,0.0,0.0,637
638,1695737752171,1.9580078,-0.13085938,1.8623047,-113.96875,-135.4375,-56.03125,0.0,0.0,0.0,638
639,1695737752211,-0.5605469,-0.7392578,-0.7480469,-270.46875,-112.6875,-63.625,0.0,0.0,0.0,639
640,1695737752251,-1.171875,0.9902344,-1.09375,-148.875,-28.34375,-54.40625,0.0,0.0,0.0,640
641,1695737752291,-0.27441406,0.0029296875,0.91796875,-234.03125,87.21875,-40.3125,0.0,0.0,0.0,641
642,1695737752331,-2.0,-1.5048828,0.6113281,-383.0625,-203.03125,-92.125,0.0,0.0,0.0,642
643,1695737752371,-0.6777344,-0.8671875,0.41308594,-291.65625,5.0625,-122.875,0.0,0.0,0.0,643
644,1695737752411,-2.0,2.0,1.5908203,999.0625,-330.71875,-42.375,-74.5625,-43.75,-89.75,644
645,1695737752451,-2.0,0.13378906,-1.9902344,111.5,-125.8125,121.875,0.0,0.0,0.0,645
646,1695737752491,-0.28808594,-0.53808594,0.10644531,70.25,-443.0625,139.21875,0.0,0.0,0.0,646
647,1695737752531,-1.3564453,-0.4013672,-1.6425781,586.65625,4.0,-223.59375,0.0,0.0,0.0,647
648,1695737752571,-0.59375,-0.5292969,-0.26660156,-214.125,289.65625,-198.0,0.0,0.0,0.0,648
649,1695737752611,-0.375,-0.055664062,-0.18945312,47.84375,233.375,43.375,0.0,0.0,0.0,649
650,1695737752651,-1.1005859,0.45898438,-0.05859375,250.09375,246.25,-50.6875,0.0,0.0,0.0,650
651,1695737752691,-2.0,1.0654297,0.6308594,-50.90625,452.125,-217.65625,0.0,0.0,0.0,651
652,1695737752731,-2.0,0.140625,-0.041992188,-83.03125,348.0,-9.71875,0.0,0.0,0.0,652
653,1695737752771,-2.0,1.1992188,0.5253906,-67.8125,183.625,67.78125,0.0,0.0,0.0,653
654,1695737752811,0.13867188,-0.64453125,0.31347656,9.125,23.0,67.25,0.0,0.0,0.0,654
655,1695737752851,1.921875,-0.28320312,1.0839844,132.1875,-153.65625,-16.0625,0.0,0.0,0.0,655
656,1695737752891,-0.703125,-1.5986328,0.20117188,-244.28125,-234.75,-30.65625,0.0,0.0,0.0,656
657,1695737752931,-0.7158203,-0.18261719,-0.31445312,-217.78125,-65.03125,-53.46875,-78.125,-49.3125,-87.5,657
658,1695737752971,-0.4736328,1.2451172,-0.095703125,-340.90625,-59.9375,107.78125,0.0,0.0,0.0,658
659,1695737753011,-2.0,-1.1787109,1.0087891,-90.90625,-72.84375,-28.75,0.0,0.0,0.0,659
660,1695737753051,-0.3388672,-0.3046875,-0.0126953125,-364.03125,111.0,-7.15625,0.0,0.0,0.0,660
661,1695737753091,-1.9833984,0.3046875,2.0,490.59375,37.03125,-270.34375,0.0,0.0,0.0,661
662,1695737753131,-2.0,2.0,0.54003906,114.5625,-114.09375,128.53125,0.0,0.0,0.0,662
663,1695737753171,-1.3632812,-1.6728516,-0.3779297,-10.21875,-328.9375,56.5625,0.0,0.0,0.0,663
664,1695737753211,-0.84375,-0.52246094,-1.609375,127.5625,-180.625,-125.1875,0.0,0.0,0.0,664
665,1695737753251,-0.7314453,0.9638672,-0.9628906,-151.3125,137.125,-113.90625,0.0,0.0,0.0,665
666,1695737753291,0.41308594,0.16699219,0.24023438,-15.28125,41.0625,71.09375,0.0,0.0,0.0,666
667,1695737753331,-0.7128906,0.2265625,-0.64160156,97.21875,215.4375,46.625,0.0,0.0,0.0,667
668,1695737753371,-2.0,1.9648438,0.5390625,311.4375,292.59375,75.25,0.0,0.0,0.0,668
669,1695737753411,-2.0,-0.7363281,0.5517578,128.53125,247.25,-34.875,-80.375,-48.25,-77.125,669
670,1695737753451,-2.0,0.27246094,-0.19726562,-168.96875,308.34375,126.3125,0.0,0.0,0.0,670
671,1695737753491,-0.7167969,0.028320312,0.00390625,31.71875,140.625,17.5625,0.0,0.0,0.0,671
672,1695737753531,0.35742188,-0.34765625,0.4716797,-112.3125,-26.5,29.28125,0.0,0.0,0.0,672
673,1695737753571,1.8291016,-0.38378906,1.1865234,-50.5625,-102.875,-75.625,0.0,0.0,0.0,673
674,1695737753611,-0.26953125,-1.0458984,-0.99316406,-35.125,-28.46875,-97.625,0.0,0.0,0.0,674
675,1695737753651,-1.375,0.4267578,-1.0908203,-239.40625,-74.78125,50.59375,0.0,0.0,0.0,675
676,1695737753691,-0.06933594,-0.7363281,1.3076172,-483.15625,23.53125,8.59375,0.0,0.0,0.0,676
677,1695737753731,-2.0,-2.0,0.55371094,-167.5625,-218.15625,-155.59375,0.0,0.0,0.0,677
678,1695737753771,-0.5605469,-0.4921875,0.96875,-355.375,-54.40625,-151.9375,0.0,0.0,0.0,678
679,1695737753811,-2.0,2.0,-0.9394531,673.5625,-1024.0,-99.875,0.0,0.0,0.0,679
680,1695737753851,-2.0,2.0,0.39160156,863.5,-64.71875,158.125,0.0,0.0,0.0,680
681,1695737753891,-0.171875,-1.3632812,0.6455078,-43.78125,-175.0,-20.65625,0.0,0.0,0.0,681
682,1695737753931,-0.93847656,-1.1962891,-1.5927734,384.5,-774.4375,-218.75,-80.375,-44.0625,-65.125,682
683,1695737753971,0.71972656,1.0859375,-1.7275391,407.625,106.5,-103.65625,0.0,0.0,0.0,683
684,1695737754011,-0.27441406,-0.14257812,-0.17480469,35.9375,170.625,-12.34375,0.0,0.0,0.0,684
685,1695737754051,-1.2597656,0.5654297,-0.3330078,256.21875,236.1875,-84.0625,0.0,0.0,0.0,685
686,1695737754091,-2.0,0.9033203,0.3095703,-79.125,242.125,-30.84375,0.0,0.0,0.0,686
687,1695737754131,-2.0,-0.6191406,-0.21679688,-61.0625,371.875,-2.6875,0.0,0.0,0.0,687
688,1695737754171,-2.0,0.7285156,-0.27246094,-38.78125,151.84375,-5.875,0.0,0.0,0.0,688
689,1695737754211,-0.09863281,-0.5263672,0.26757812,85.1875,51.1875,71.875,0.0,0.0,0.0,689
690,1695737754251,1.5546875,-0.2705078,0.5449219,121.5,-74.46875,2.90625,0.0,0.0,0.0,690
691,1695737754291,-0.16113281,-0.95703125,0.8496094,-199.0,-256.5,-42.875,0.0,0.0,0.0,691
692,1695737754331,-0.8457031,-0.2626953,-0.57714844,-257.09375,-78.3125,-4.09375,0.0,0.0,0.0,692
693,1695737754371,-1.0712891,1.1523438,-0.68652344,-279.5625,-116.65625,-8.4375,0.0,0.0,0.0,693
694,1695737754411,-1.0898438,-1.3417969,1.0185547,-90.28125,131.15625,-37.375,-78.875,-41.1875,-82.375,694
695,1695737754451,-0.22070312,0.25390625,-1.1328125,-472.71875,35.75,15.3125,0.0,0.0,0.0,695
696,1695737754491,-1.2148438,-0.86621094,1.1171875,-39.03125,-79.65625,-229.375,0.0,0.0,0.0,696
697,1695737754531,-2.0,2.0,-0.047851562,-135.5625,-636.90625,-43.28125,0.0,0.0,0.0,697
698,1695737754571,-2.0,0.1796875,-0.234375,362.34375,-304.40625,207.625,0.0,0.0,0.0,698
699,1695737754611,-0.2265625,-2.0,-1.7099609,176.4375,-121.21875,-88.15625,0.0,0.0,0.0,699
700,1695737754651,-0.25097656,1.3564453,-1.3984375,-90.71875,144.40625,-141.875,0.0,0.0,0.0,700
701,1695737754691,-0.21972656,0.13378906,0.7626953,37.46875,130.71875,-32.84375,0.0,0.0,0.0,701
702,1695737754731,-0.6279297,-0.2763672,-0.27539062,118.9375,219.03125,-6.71875,0.0,0.0,0.0,702
703,1695737754771,-2.0,2.0,0.23535156,232.96875,312.59375,22.9375,0.0,0.0,0.0,703
704,1695737754811,-2.0,-0.11230469,-0.2763672,-128.8125,281.125,-16.3125,0.0,0.0,0.0,704
705,1695737754851,-2.0,1.2314453,0.17675781,135.71875,359.90625,69.75,0.0,0.0,0.0,705
706,1695737754891,-0.2548828,-0.43847656,0.12109375,123.59375,183.8125,-12.78125,0.0,0.0,0.0,706
707,1695737754931,0.61816406,-0.3623047,0.5654297,117.0,-70.9375,-14.65625,-70.375,-42.5625,-98.75,707
708,1695737754971,1.0693359,-0.5078125,1.5048828,-87.90625,-272.90625,-62.6875,0.0,0.0,0.0,708
709,1695737755011,-0.5449219,-0.34472656,-0.6542969,-71.3125,-58.4375,-67.28125,0.0,0.0,0.0,709
710,1695737755051,-1.5771484,0.86328125,-1.5234375,-342.78125,-73.8125,23.84375,0.0,0.0,0.0,710
711,1695737755091,-0.70214844,-0.5488281,1.0634766,-183.71875,85.6875,-40.53125,0.0,0.0,0.0,711
712,1695737755131,-0.671875,-0.79003906,0.21289062,-367.4375,-94.5,24.40625,0.0,0.0,0.0,712
713,1695737755171,-0.32226562,-1.1455078,1.3466797,-337.125,-126.0,-210.65625,0.0,0.0,0.0,713
714,1695737755211,-2.0,2.0,-1.0,-168.34375,-372.875,55.09375,0.0,0.0,0.0,714
715,1695737755251,-1.5302734,0.18847656,-0.18945312,366.9375,39.21875,219.21875,0.0,0.0,0.0,715
716,1695737755291,-0.5839844,-0.66796875,0.87890625,-247.6875,-405.40625,117.0625,0.0,0.0,0.0,716
717,1695737755331,-1.2197266,1.046875,-2.0,596.40625,-35.0,-260.75,0.0,0.0,0.0,717
718,1695737755371,-0.34960938,-0.35351562,-0.09082031,91.15625,184.3125,-170.3125,0.0,0.0,0.0,718
719,1695737755411,-0.27734375,0.56933594,-0.3671875,-131.0625,185.40625,9.5,-79.9375,-47.5,-58.25,719
720,1695737755451,-1.5859375,0.78125,-0.08300781,143.46875,247.125,60.59375,0.0,0.0,0.0,720
721,1695737755491,-2.0,-0.12597656,0.24511719,-217.0,297.84375,-45.59375,0.0,0.0,0.0,721
722,1695737755531,-2.0,0.88183594,0.61035156,-171.03125,289.65625,74.03125,0.0,0.0,0.0,722
723,1695737755571,-1.6152344,0.22363281,0.20898438,95.1875,194.25,60.90625,0.0,0.0,0.0,723
724,1695737755611,-0.171875,-0.2734375,0.609375,268.34375,68.96875,25.625,0.0,0.0,0.0,724
725,1695737755651,1.6806641,-0.72558594,1.0556641,292.09375,-30.28125,-41.65625,0.0,0.0,0.0,725
726,1695737755691,0.076171875,-1.7783203,0.25683594,-147.90625,-256.4375,-79.78125,0.0,0.0,0.0,726
727,1695737755731,-1.1621094,0.12792969,-0.6347656,-369.46875,-61.71875,29.84375,0.0,0.0,0.0,727
728,1695737755771,-1.1376953,0.70996094,0.9433594,-366.96875,-68.25,18.96875,0.0,0.0,0.0,728
729,1695737755811,-1.5029297,-0.7470703,-0.6826172,-310.5625,-93.8125,-47.625,0.0,0.0,0.0,729
730,1695737755851,-0.49121094,-0.9794922,0.6298828,-320.8125,-66.25,-85.65625,0.0,0.0,0.0,730
731,1695737755891,-1.8466797,-0.7998047,2.0,365.03125,26.96875,-356.875,0.0,0.0,0.0,731
732,1695737755931,-2.0,1.3623047,-2.0,-528.65625,-196.375,189.125,-81.875,-53.375,-86.3125,732
733,1695737755971,-1.6259766,-1.5703125,-0.7763672,204.8125,-162.6875,115.84375,0.0,0.0,0.0,733
734,1695737756011,1.4707031,-2.0,-1.0341797,193.90625,-668.34375,-26.03125,0.0,0.0,0.0,734
735,1695737756051,-0.5078125,1.3271484,-2.0,193.21875,-8.1875,-98.65625,0.0,0.0,0.0,735
736,1695737756091,-0.4404297,-0.63378906,0.2578125,-207.96875,271.59375,-120.25,0.0,0.0,0.0,736
737,1695737756131,-0.609375,0.34570312,-0.32910156,255.65625,196.21875,-3.8125,0.0,0.0,0.0,737
738,1695737756171,-2.0,1.7763672,0.05078125,194.75,156.65625,104.34375,0.0,0.0,0.0,738
739,1695737756211,-2.0,-1.0957031,-1.0019531,-214.5625,310.40625,-240.5,0.0,0.0,0.0,739
740,1695737756251,-2.0,1.2890625,0.47265625,-56.96875,325.5,130.1875,0.0,0.0,0.0,740
741,1695737756291,-0.6689453,-0.12109375,0.24414062,-3.125,150.625,42.40625,0.0,0.0,0.0,741
742,1695737756331,0.7167969,-0.21875,1.1708984,203.78125,-6.78125,29.15625,0.0,0.0,0.0,742
743,1695737756371,1.5117188,-0.1484375,1.7822266,62.96875,-295.71875,-42.9375,0.0,0.0,0.0,743
744,1695737756411,-0.99902344,-0.2841797,-1.3525391,-222.125,-14.53125,0.53125,-77.375,-48.4375,-91.125,744
745,1695737756451,-1.4355469,0.6386719,-1.4980469,-229.1875,-58.96875,43.9375,0.0,0.0,0.0,745
746,1695737756491,-1.9599609,-1.1630859,0.93359375,-276.0625,141.84375,-50.78125,0.0,0.0,0.0,746
747,1695737756531,-0.087890625,-0.8173828,0.8222656,-452.21875,34.40625,-5.8125,0.0,0.0,0.0,747
748,1695737756571,-1.1425781,-0.8105469,1.1220703,51.3125,-46.78125,-273.875,0.0,0.0,0.0,748
749,1695737756611,-2.0,2.0,-0.25976562,-132.03125,-399.125,-102.8125,0.0,0.0,0.0,749
750,1695737756651,-2.0,1.6767578,-0.09082031,512.25,-202.03125,200.375,0.0,0.0,0.0,750
751,1695737756691,-0.0126953125,-1.6347656,0.25585938,16.59375,-415.71875,181.125,0.0,0.0,0.0,751
752,1695737756731,-0.40722656,0.53515625,-2.0,302.71875,-17.40625,-96.4375,0.0,0.0,0.0,752
753,1695737756771,-0.390625,-0.12792969,-0.14941406,-105.0625,217.03125,-84.5625,0.0,0.0,0.0,753
754,1695737756811,-0.5996094,0.19628906,-1.1269531,220.9375,203.96875,-31.4375,0.0,0.0,0.0,754
755,1695737756851,-0.7607422,0.41210938,0.4736328,133.59375,211.90625,-3.3125,0.0,0.0,0.0,755
756,1695737756891,-2.0,1.6923828,-0.00390625,4.0,507.5,-192.59375,0.0,0.0,0.0,756
757,1695737756931,-2.0,0.40429688,-0.057617188,48.4375,344.53125,65.84375,-77.6875,-41.375,-80.4375,757
758,1695737756971,-1.2314453,0.671875,0.36328125,49.3125,256.75,-1.125,0.0,0.0,0.0,758
759,1695737757011,0.049804688,-0.46777344,0.5439453,37.71875,73.34375,-7.09375,0.0,0.0,0.0,759
