# Sensor type: Respeck
# Activity type: Standing
# Activity subtype: Normal
# Subject id: s1919579
# Notes: 
timestamp,accel_x,accel_y,accel_z,gyro_x,gyro_y,gyro_z
1696193310773,0.08496094,-0.9710083,0.3336792,0.1875,0.03125,0.234375
1696193310803,0.08618164,-0.9656372,0.33758545,-0.734375,0.171875,0.109375
1696193310847,0.08642578,-0.975647,0.32562256,0.328125,0.296875,-0.1875
1696193310893,0.07397461,-0.96710205,0.33709717,-1.53125,-0.3125,0.015625
1696193310923,0.0847168,-0.9624634,0.34222412,0.3125,2.34375,-0.28125
1696193310968,0.088134766,-0.9768677,0.3390503,-0.90625,2.6875,0.1875
1696193311013,0.0925293,-0.97247314,0.34661865,-0.953125,1.265625,0.28125
1696193311043,0.08691406,-0.9710083,0.34320068,-0.5625,0.78125,0.609375
1696193311073,0.0949707,-0.9624634,0.3397827,-0.78125,0.328125,0.765625
1696193311134,0.08984375,-0.9631958,0.34466553,-0.984375,0.96875,0.171875
1696193311163,0.08569336,-0.9746704,0.34710693,-0.78125,1.078125,0.171875
1696193311193,0.0859375,-0.9619751,0.3366089,-1.078125,1.21875,0.3125
1696193311253,0.08886719,-0.96466064,0.3444214,-0.859375,1.1875,0.390625
1696193311283,0.08496094,-0.9639282,0.34197998,-0.671875,0.609375,0.3125
1696193311313,0.0847168,-0.972229,0.34417725,-0.140625,0.53125,0.09375
1696193311374,0.08691406,-0.96466064,0.3439331,-0.34375,0.90625,0.21875
1696193311387,0.10083008,-0.96051025,0.34173584,-1.078125,0.90625,0.328125
1696193311435,0.092285156,-0.96539307,0.3468628,-0.875,0.28125,0.53125
1696193311494,0.08911133,-0.972229,0.3390503,0.1875,0.421875,0.359375
1696193311508,0.0859375,-0.9590454,0.33953857,-1.875,-0.578125,0.453125
1696193311553,0.09399414,-0.9663696,0.35003662,-0.34375,1.234375,-0.015625
1696193311613,0.08569336,-0.9668579,0.3451538,-1.4375,0.953125,0.140625
1696193311628,0.091308594,-0.9636841,0.3546753,-0.4375,0.34375,-0.125
1696193311673,0.088134766,-0.9685669,0.34075928,0.1875,0.6875,0.21875
1696193311702,0.099853516,-0.9636841,0.34222412,0.328125,0.234375,0.6875
1696193311748,0.08935547,-0.9639282,0.338562,-0.171875,-0.109375,0.53125
1696193311793,0.084472656,-0.96588135,0.34295654,0.0625,0.59375,0.34375
1696193311825,0.0949707,-0.9661255,0.34051514,0.046875,0.484375,0.53125
1696193311869,0.08862305,-0.9678345,0.33831787,0.03125,-0.140625,0.140625
1696193311943,0.08251953,-0.96295166,0.34954834,-0.15625,0.765625,-0.375
1696193311946,0.0925293,-0.9627075,0.34320068,-0.4375,1.4375,-0.015625
1696193311989,0.08520508,-0.96539307,0.34954834,-0.125,2.296875,-0.59375
1696193312034,0.09423828,-0.9595337,0.34002686,-0.4375,2.171875,-0.375
1696193312064,0.09301758,-0.9558716,0.3414917,-1.078125,1.546875,-0.578125
1696193312109,0.08300781,-0.97491455,0.354187,-0.921875,2.609375,-0.78125
1696193312154,0.09423828,-0.95758057,0.35321045,-0.4375,3.0,-0.0625
1696193312183,0.10620117,-0.9553833,0.32366943,-0.59375,1.359375,-0.296875
1696193312228,0.088134766,-0.9619751,0.3493042,-1.125,2.0625,0.265625
1696193312274,0.11206055,-0.9639282,0.34246826,-0.28125,2.5625,0.6875
1696193312303,0.088378906,-0.9661255,0.340271,-1.40625,1.0,0.46875
1696193312334,0.09716797,-0.9651489,0.35247803,-0.484375,0.71875,0.46875
1696193312394,0.09033203,-0.9619751,0.34246826,-0.3125,1.4375,0.75
1696193312424,0.09399414,-0.96295166,0.33929443,-0.4375,0.296875,0.53125
1696193312453,0.08984375,-0.96173096,0.3468628,-0.609375,0.671875,0.5
1696193312514,0.09375,-0.9710083,0.3390503,-0.375,1.046875,0.390625
1696193312543,0.09277344,-0.9651489,0.34344482,-0.78125,0.921875,0.28125
1696193312573,0.08325195,-0.96295166,0.35491943,-0.796875,0.921875,-0.4375
1696193312634,0.08691406,-0.96588135,0.33929443,-1.5625,1.78125,-0.359375
1696193312648,0.09277344,-0.954895,0.34222412,-2.234375,2.546875,-0.15625
1696193312695,0.096191406,-0.9697876,0.35638428,-1.453125,2.5,-0.03125
1696193312753,0.092285156,-0.9607544,0.34613037,-1.09375,1.578125,0.203125
1696193312768,0.09814453,-0.9651489,0.34906006,-1.0,1.328125,0.203125
1696193312814,0.09277344,-0.9561157,0.3649292,-0.6875,1.796875,0.171875
1696193312873,0.099121094,-0.96539307,0.33465576,-1.859375,1.5,0.1875
1696193312888,0.09008789,-0.9619751,0.3690796,-1.125,0.703125,-0.03125
1696193312934,0.095703125,-0.9649048,0.35394287,-1.078125,1.546875,-0.21875
1696193312963,0.087646484,-0.9595337,0.35491943,-1.609375,1.71875,-0.34375
1696193313008,0.08935547,-0.960022,0.36151123,-0.25,1.171875,0.0625
1696193313053,0.09692383,-0.9614868,0.35760498,-0.40625,1.59375,0.203125
1696193313083,0.0949707,-0.96051025,0.35906982,0.21875,0.78125,0.328125
1696193313128,0.095214844,-0.95758057,0.3480835,0.078125,0.71875,0.421875
1696193313173,0.09716797,-0.96221924,0.34735107,0.359375,0.765625,0.296875
1696193313203,0.1027832,-0.96417236,0.35076904,0.0,0.828125,0.328125
1696193313248,0.0949707,-0.96221924,0.35198975,-0.09375,0.46875,0.328125
1696193313293,0.09350586,-0.95928955,0.35565186,0.046875,0.8125,0.3125
1696193313323,0.09106445,-0.9627075,0.35760498,0.828125,0.71875,0.078125
1696193313367,0.10888672,-0.958313,0.3390503,-1.03125,0.421875,-0.671875
1696193313413,0.07324219,-0.96295166,0.36102295,0.046875,0.78125,-0.140625
1696193313443,0.095947266,-0.9517212,0.35906982,-0.0625,0.546875,0.59375
1696193313488,0.09814453,-0.97003174,0.3397827,1.171875,0.28125,-0.234375
1696193313534,0.08081055,-0.9631958,0.35980225,-1.421875,0.59375,0.265625
1696193313563,0.103271484,-0.9631958,0.35687256,0.421875,2.09375,0.28125
1696193313593,0.091308594,-0.9644165,0.34710693,-1.515625,1.671875,0.125
1696193313653,0.10107422,-0.9524536,0.35614014,-0.234375,1.21875,0.3125
1696193313684,0.099365234,-0.96661377,0.36102295,0.265625,1.28125,0.1875
1696193313712,0.10058594,-0.95977783,0.34954834,0.828125,0.265625,0.171875
1696193313774,0.095703125,-0.9607544,0.35394287,0.5625,0.421875,0.4375
1696193313804,0.099121094,-0.9631958,0.3475952,0.03125,0.875,0.421875
1696193313833,0.09448242,-0.9656372,0.35150146,0.234375,1.25,0.5
1696193313894,0.09326172,-0.96588135,0.34368896,0.15625,0.453125,0.390625
1696193313908,0.107421875,-0.9595337,0.34710693,0.625,0.703125,0.359375
1696193313953,0.09375,-0.96051025,0.34661865,0.671875,0.90625,0.5
1696193314014,0.099853516,-0.9692993,0.3427124,0.625,0.609375,0.40625
1696193314028,0.09863281,-0.96832275,0.33441162,1.03125,-0.03125,0.578125
1696193314073,0.0925293,-0.9714966,0.338562,1.34375,1.296875,0.328125
1696193314133,0.100097656,-0.9522095,0.34539795,0.4375,1.078125,0.203125
1696193314150,0.10644531,-0.9678345,0.32855225,1.6875,-0.3125,-0.140625
1696193314193,0.09082031,-0.96417236,0.33465576,-0.0625,-0.234375,0.375
1696193314223,0.10864258,-0.9673462,0.33514404,1.390625,1.46875,-0.109375
1696193314269,0.08984375,-0.97076416,0.32757568,0.34375,1.015625,0.125
1696193314314,0.099121094,-0.96881104,0.3378296,0.703125,0.46875,-0.0625
1696193314343,0.0949707,-0.975647,0.32757568,0.109375,1.0,0.3125
1696193314387,0.10986328,-0.9690552,0.32977295,-0.28125,1.59375,0.359375
1696193314434,0.09716797,-0.97442627,0.32928467,-0.46875,0.828125,0.375
1696193314463,0.09472656,-0.97076416,0.3151245,0.359375,2.21875,1.203125
1696193314507,0.111328125,-0.97052,0.31756592,-0.1875,1.6875,0.84375
1696193314554,0.099609375,-0.9685669,0.32806396,-0.09375,0.453125,0.515625
1696193314583,0.1003418,-0.9758911,0.3300171,-0.5,1.1875,0.71875
1696193314628,0.10229492,-0.96710205,0.32513428,0.21875,0.984375,0.390625
1696193314674,0.10083008,-0.9710083,0.32269287,1.03125,1.015625,0.359375
1696193314704,0.103759766,-0.9614868,0.322937,-0.265625,1.1875,0.125
1696193314748,0.10595703,-0.9800415,0.32000732,-0.046875,0.890625,-0.09375
1696193314794,0.111572266,-0.95513916,0.32635498,0.015625,0.625,0.171875
1696193314823,0.11767578,-0.9668579,0.30804443,-0.921875,-0.28125,-0.125
1696193314855,0.091308594,-0.96588135,0.33831787,-1.046875,-0.109375,-0.046875
1696193314913,0.10229492,-0.9692993,0.3204956,0.546875,1.78125,0.265625
1696193314943,0.10180664,-0.9668579,0.32025146,-0.703125,1.3125,0.203125
1696193314973,0.09838867,-0.97076416,0.33172607,-0.171875,1.265625,0.078125
1696193315033,0.10498047,-0.96173096,0.33416748,0.109375,1.09375,0.4375
1696193315065,0.11254883,-0.96466064,0.32513428,-0.390625,0.328125,0.125
1696193315094,0.10473633,-0.96710205,0.3312378,0.578125,0.671875,0.703125
1696193315154,0.107666016,-0.9690552,0.32391357,-0.359375,0.390625,0.578125
1696193315169,0.087402344,-0.9714966,0.32977295,1.03125,0.8125,0.125
1696193315214,0.1081543,-0.9656372,0.32122803,1.390625,1.453125,1.078125
1696193315273,0.10888672,-0.9692993,0.31903076,0.375,1.03125,0.671875
1696193315288,0.10449219,-0.9649048,0.31829834,0.453125,0.375,0.578125
1696193315333,0.11206055,-0.9678345,0.31610107,0.21875,0.625,0.609375
1696193315393,0.10522461,-0.96832275,0.31878662,0.625,0.96875,0.734375
1696193315408,0.10961914,-0.96466064,0.30950928,-0.234375,0.21875,0.53125
1696193315454,0.1027832,-0.97784424,0.31781006,0.125,0.671875,0.234375
1696193315483,0.109375,-0.96051025,0.32269287,-0.5625,0.703125,0.234375
1696193315529,0.11401367,-0.96343994,0.30047607,-1.359375,-0.265625,0.140625
1696193315574,0.1003418,-0.96417236,0.32489014,-1.234375,0.859375,-0.328125
1696193315603,0.11694336,-0.96954346,0.31365967,0.40625,2.5,0.140625
1696193315649,0.10058594,-0.96588135,0.31536865,-0.390625,1.03125,-0.09375
1696193315694,0.11425781,-0.97540283,0.31903076,-0.875,0.875,-0.40625
1696193315723,0.111083984,-0.9729614,0.32733154,-0.296875,1.234375,-0.078125
1696193315768,0.103515625,-0.96539307,0.32147217,-0.609375,0.921875,-0.09375
1696193315814,0.106933594,-0.97247314,0.3168335,-0.203125,1.5625,0.0625
1696193315843,0.10668945,-0.9717407,0.3131714,-0.84375,1.84375,0.734375
1696193315887,0.107421875,-0.96954346,0.3156128,-0.625,1.921875,1.015625
1696193315933,0.12036133,-0.97052,0.31365967,-1.53125,2.3125,0.5625
1696193315964,0.11425781,-0.9656372,0.31658936,-0.828125,0.625,0.265625
1696193316008,0.11035156,-0.9751587,0.31903076,-0.46875,0.921875,0.109375
1696193316054,0.11401367,-0.9717407,0.3168335,-0.734375,0.921875,0.28125
1696193316083,0.11328125,-0.9717407,0.31341553,-0.453125,0.765625,0.171875
1696193316128,0.111572266,-0.9741821,0.31658936,-0.03125,0.5625,0.1875
1696193316174,0.11376953,-0.9734497,0.30950928,-0.078125,0.703125,0.046875
1696193316204,0.10620117,-0.9783325,0.3131714,0.8125,0.6875,0.46875
1696193316233,0.11401367,-0.9663696,0.32366943,0.8125,1.109375,0.796875
1696193316293,0.115234375,-0.96539307,0.29315186,-0.96875,-0.640625,0.359375
1696193316324,0.10961914,-0.96710205,0.33319092,-1.140625,0.4375,0.03125
1696193316354,0.123291016,-0.97540283,0.31463623,-0.796875,1.34375,0.296875
1696193316413,0.1003418,-0.9678345,0.31976318,-2.046875,0.875,0.078125
1696193316473,0.12451172,-0.97491455,0.32244873,-1.734375,0.96875,-0.109375
1696193316479,0.11010742,-0.9702759,0.3295288,-1.703125,1.1875,0.203125
1696193316533,0.118896484,-0.96295166,0.31854248,-1.5625,0.125,-0.09375
1696193316548,0.11303711,-0.9685669,0.32537842,-0.546875,-0.0625,-0.546875
1696193316594,0.10986328,-0.97540283,0.3180542,-0.015625,0.609375,-0.28125
1696193316654,0.11206055,-0.9651489,0.324646,-0.53125,1.296875,-0.265625
1696193316668,0.10864258,-0.97076416,0.32513428,-1.265625,1.046875,-0.390625
1696193316713,0.12060547,-0.96343994,0.33270264,-1.234375,0.96875,-0.234375
1696193316773,0.110839844,-0.9714966,0.31878662,0.203125,0.46875,0.109375
1696193316788,0.10522461,-0.9734497,0.3300171,-0.671875,1.15625,-0.09375
1696193316834,0.11401367,-0.9680786,0.32562256,-0.75,0.9375,0.140625
1696193316863,0.11352539,-0.96881104,0.31829834,-0.484375,-0.046875,0.25
1696193316908,0.11206055,-0.9656372,0.32757568,-1.109375,0.875,0.234375
1696193316953,0.11035156,-0.9649048,0.32537842,-1.390625,0.875,0.421875
1696193316984,0.1081543,-0.97491455,0.322937,-1.4375,1.140625,0.15625
1696193317028,0.100097656,-0.9649048,0.3287964,-2.640625,0.46875,0.40625
1696193317074,0.107177734,-0.9746704,0.33294678,0.140625,1.359375,0.484375
1696193317103,0.103271484,-0.96539307,0.32489014,-2.15625,1.4375,0.140625
1696193317148,0.106933594,-0.96417236,0.34173584,-2.765625,1.046875,0.03125
1696193317194,0.10571289,-0.9697876,0.33953857,-1.296875,0.84375,0.09375
1696193317223,0.11254883,-0.9644165,0.34075928,-2.109375,1.328125,-0.390625
1696193317269,0.10229492,-0.9631958,0.35687256,-2.671875,0.6875,-0.609375
1696193317315,0.11376953,-0.96661377,0.3397827,0.453125,0.734375,0.09375
1696193317344,0.1105957,-0.9602661,0.33636475,-0.5625,1.953125,-0.109375
1696193317388,0.107666016,-0.9614868,0.34661865,-1.1875,1.875,-0.46875
1696193317433,0.110839844,-0.9649048,0.34344482,-0.9375,2.0,-0.234375
1696193317463,0.10571289,-0.96173096,0.34588623,-0.890625,2.59375,0.0
1696193317494,0.10546875,-0.9619751,0.34002686,-0.515625,1.859375,0.09375
1696193317553,0.107910156,-0.96710205,0.34857178,0.890625,1.421875,0.171875
1696193317583,0.110839844,-0.96099854,0.34051514,0.828125,1.25,0.46875
1696193317617,0.114746094,-0.9590454,0.3444214,0.03125,1.546875,0.3125
1696193317674,0.1105957,-0.9619751,0.34613037,-0.015625,1.4375,0.234375
1696193317703,0.11767578,-0.9729614,0.32806396,0.515625,2.703125,-0.0625
1696193317733,0.10986328,-0.9570923,0.34002686,-1.703125,0.859375,0.15625
1696193317793,0.11425781,-0.96832275,0.33514404,0.28125,2.453125,-0.140625
1696193317809,0.11987305,-0.9558716,0.3366089,-2.140625,2.234375,-0.03125
1696193317854,0.10864258,-0.96661377,0.35662842,-0.390625,1.4375,0.203125
1696193317913,0.11279297,-0.9595337,0.35369873,0.5,1.265625,0.359375
1696193317928,0.12231445,-0.9619751,0.3378296,0.9375,2.28125,0.328125
1696193317973,0.11425781,-0.96099854,0.33392334,0.3125,1.28125,0.296875
1696193318033,0.11279297,-0.97076416,0.33319092,0.328125,1.171875,-0.03125
1696193318049,0.106933594,-0.96954346,0.34002686,-0.078125,1.34375,0.0
1696193318094,0.115478516,-0.96539307,0.33416748,-0.375,1.140625,-0.375
1696193318123,0.114746094,-0.9612427,0.3378296,-0.390625,0.984375,-0.4375
1696193318168,0.11254883,-0.9727173,0.33953857,-0.1875,1.09375,-0.125
1696193318213,0.111572266,-0.9639282,0.33709717,0.25,0.53125,0.015625
1696193318244,0.122802734,-0.9656372,0.33026123,-0.125,1.390625,-0.046875
1696193318289,0.11669922,-0.9614868,0.3283081,-0.046875,2.5625,0.28125
1696193318333,0.114746094,-0.9663696,0.3348999,0.21875,2.40625,0.28125
1696193318363,0.11767578,-0.9710083,0.34735107,1.109375,2.59375,0.265625
1696193318408,0.11694336,-0.95269775,0.3234253,-1.734375,1.734375,0.125
1696193318453,0.115722656,-0.96295166,0.3546753,1.53125,0.109375,0.234375
1696193318483,0.119140625,-0.9590454,0.32025146,-0.53125,1.546875,0.171875
1696193318528,0.11035156,-0.96588135,0.33294678,-0.5625,1.375,-0.359375
1696193318574,0.11035156,-0.97247314,0.32855225,-0.09375,1.03125,-0.390625
1696193318603,0.11401367,-0.96759033,0.32318115,0.484375,1.578125,-0.0625
1696193318649,0.111816406,-0.9697876,0.3283081,0.296875,0.171875,-0.171875
1696193318694,0.111083984,-0.9663696,0.32440186,0.265625,1.171875,0.0
1696193318723,0.107421875,-0.97076416,0.3222046,0.203125,1.03125,0.203125
1696193318753,0.12475586,-0.9661255,0.32440186,0.125,0.78125,0.09375
1696193318814,0.10180664,-0.9673462,0.3270874,-0.6875,1.09375,-0.25
1696193318843,0.11230469,-0.972229,0.33026123,-0.140625,1.828125,-0.171875
1696193318873,0.111816406,-0.96173096,0.32781982,-0.265625,0.90625,-0.203125
1696193318934,0.10546875,-0.96661377,0.32904053,-0.484375,1.34375,-0.1875
1696193318964,0.11303711,-0.9607544,0.32513428,-0.546875,2.328125,-0.140625
1696193318994,0.11816406,-0.97052,0.32757568,-0.984375,1.46875,0.5
1696193319054,0.11987305,-0.9763794,0.33294678,0.234375,1.625,0.40625
1696193319068,0.10839844,-0.95806885,0.31951904,-2.890625,0.734375,0.125
1696193319113,0.12060547,-0.97076416,0.34320068,0.640625,0.078125,0.125
1696193319175,0.111572266,-0.9649048,0.3126831,-1.046875,1.28125,0.21875
1696193319189,0.114746094,-0.9614868,0.33050537,-1.125,1.40625,-0.140625
1696193319234,0.12426758,-0.9631958,0.32977295,-0.578125,0.625,0.09375
1696193319294,0.11694336,-0.9697876,0.33587646,0.09375,0.796875,0.140625
1696193319309,0.10668945,-0.97125244,0.33148193,-0.8125,-0.078125,-0.125
1696193319353,0.11987305,-0.9690552,0.32928467,0.0,0.265625,-0.0625
1696193319383,0.11328125,-0.96881104,0.32635498,0.109375,0.046875,0.15625
1696193319428,0.115722656,-0.9702759,0.3336792,-0.03125,0.078125,0.0625
1696193319474,0.1105957,-0.96832275,0.32684326,-0.796875,0.109375,-0.21875
1696193319503,0.107910156,-0.9624634,0.32513428,-0.34375,0.078125,-0.09375
1696193319547,0.103515625,-0.9627075,0.33026123,-0.734375,0.96875,-0.484375
1696193319593,0.11987305,-0.973938,0.33587646,0.15625,0.125,-0.296875
1696193319623,0.10522461,-0.96099854,0.31903076,-0.5625,-0.609375,-0.203125
1696193319668,0.099609375,-0.9663696,0.33514404,-1.015625,0.796875,-0.25
1696193319715,0.10498047,-0.9656372,0.35101318,0.03125,0.859375,-0.359375
1696193319744,0.11621094,-0.9590454,0.31732178,-1.5625,-0.859375,-0.3125
1696193319789,0.09765625,-0.95513916,0.34466553,0.46875,-1.171875,-0.15625
1696193319834,0.10620117,-0.97491455,0.33050537,1.078125,0.0625,-0.046875
1696193319864,0.0949707,-0.9631958,0.33148193,0.40625,-0.0625,0.15625
1696193319908,0.111328125,-0.9649048,0.3241577,0.203125,-0.421875,-0.4375
1696193319953,0.09863281,-0.9717407,0.33270264,1.890625,-0.046875,0.265625
1696193319984,0.10473633,-0.9602661,0.32659912,1.078125,-1.046875,0.1875
1696193320013,0.09887695,-0.96295166,0.32122803,0.84375,-0.359375,0.1875
1696193320074,0.103271484,-0.96759033,0.32855225,-0.625,0.453125,0.03125
1696193320104,0.103027344,-0.9678345,0.32073975,-0.765625,-0.25,-0.078125
1696193320134,0.10498047,-0.9678345,0.3270874,0.03125,0.046875,-0.0625
1696193320194,0.084228516,-0.97003174,0.33416748,0.6875,0.234375,0.046875
1696193320224,0.095214844,-0.96466064,0.3307495,0.015625,0.0,-0.03125
1696193320254,0.09716797,-0.96539307,0.32122803,-0.734375,1.0,0.0625
1696193320313,0.10913086,-0.975647,0.32806396,-0.03125,0.90625,0.453125
1696193320344,0.107421875,-0.9663696,0.3192749,-0.453125,0.640625,0.78125
1696193320373,0.1003418,-0.9727173,0.32366943,-0.296875,1.1875,0.09375
1696193320434,0.10546875,-0.96832275,0.3348999,-0.359375,0.078125,-0.0625
1696193320449,0.103759766,-0.97662354,0.31732178,0.109375,-0.296875,-0.0625
1696193320493,0.09423828,-0.96832275,0.31976318,-1.6875,-1.203125,-0.390625
1696193320554,0.099609375,-0.9697876,0.32659912,1.84375,1.34375,-0.828125
1696193320569,0.09399414,-0.97198486,0.31488037,-0.34375,1.84375,-0.28125
1696193320614,0.09863281,-0.96832275,0.324646,0.53125,0.140625,-0.109375
1696193320674,0.10595703,-0.9697876,0.3258667,0.71875,0.640625,0.359375
1696193320688,0.114746094,-0.9690552,0.31829834,1.265625,0.5,0.8125
1696193320734,0.107421875,-0.96295166,0.3192749,0.40625,-0.796875,0.6875
1696193320764,0.103271484,-0.96661377,0.3241577,0.234375,-0.359375,0.828125
1696193320809,0.10522461,-0.9763794,0.31658936,-0.078125,0.21875,0.796875
1696193320854,0.10180664,-0.96661377,0.3168335,0.03125,0.140625,0.5
1696193320884,0.107666016,-0.972229,0.31707764,-1.109375,-0.046875,0.0
1696193320929,0.09765625,-0.9651489,0.31707764,-1.03125,1.15625,-0.046875
1696193321003,0.09472656,-0.9697876,0.32025146,-0.46875,0.875,-0.265625
1696193321007,0.09667969,-0.9692993,0.32025146,-0.25,1.125,-0.515625
1696193321048,0.10253906,-0.97125244,0.31488037,-0.09375,0.921875,-0.28125
1696193321096,0.107177734,-0.96759033,0.31610107,-0.234375,0.8125,-0.4375
1696193321124,0.1015625,-0.98516846,0.31829834,0.359375,1.28125,-0.796875
1696193321168,0.10644531,-0.9624634,0.32537842,-0.15625,1.578125,-0.734375
1696193321213,0.10058594,-0.973938,0.3180542,0.515625,-0.09375,-0.765625
1696193321244,0.08081055,-0.96881104,0.31658936,-1.34375,-1.125,-0.265625
1696193321288,0.100097656,-0.97662354,0.3234253,0.390625,0.8125,-0.03125
1696193321334,0.095703125,-0.9758911,0.30975342,-0.71875,1.03125,0.6875
1696193321366,0.103515625,-0.96881104,0.31854248,0.09375,-0.578125,0.6875
1696193321393,0.09472656,-0.972229,0.3192749,-0.5625,-0.703125,0.5625
1696193321454,0.09765625,-0.9702759,0.31341553,-0.328125,-1.421875,0.421875
1696193321483,0.08520508,-0.97857666,0.32318115,-0.359375,-2.1875,0.109375
1696193321514,0.08325195,-0.97320557,0.31878662,-0.21875,-0.421875,0.3125
1696193321575,0.09301758,-0.9776001,0.31756592,-0.84375,0.46875,0.3125
1696193321604,0.09082031,-0.9768677,0.32000732,-0.625,-0.46875,-0.15625
1696193321635,0.09106445,-0.9680786,0.32147217,-0.15625,0.296875,-0.03125
1696193321694,0.09033203,-0.97662354,0.32147217,-0.15625,0.65625,-0.171875
1696193321709,0.088134766,-0.96661377,0.3131714,-0.265625,0.421875,0.015625
1696193321754,0.09667969,-0.9673462,0.31243896,0.140625,0.671875,0.03125
1696193321815,0.08666992,-0.97540283,0.32928467,-0.03125,0.765625,-0.078125
1696193321829,0.09033203,-0.9697876,0.3217163,0.265625,0.890625,-0.03125
1696193321874,0.095458984,-0.9624634,0.31292725,0.140625,0.984375,0.046875
1696193321934,0.09375,-0.97491455,0.32244873,0.15625,0.953125,0.109375
1696193321948,0.09399414,-0.98223877,0.31732178,0.65625,0.984375,0.265625
1696193321993,0.09472656,-0.9727173,0.307312,-1.375,-0.09375,0.21875
1696193322024,0.083740234,-0.96881104,0.3180542,-0.0625,1.0,0.078125
1696193322069,0.095458984,-0.97906494,0.3131714,-0.828125,1.828125,0.4375
1696193322114,0.092285156,-0.9685669,0.31707764,-0.5,0.53125,0.171875
1696193322143,0.09277344,-0.97662354,0.3180542,0.125,0.75,0.359375
1696193322189,0.095214844,-0.97320557,0.3204956,1.3125,0.34375,0.53125
1696193322234,0.096191406,-0.96710205,0.31243896,0.0625,0.65625,0.3125
1696193322263,0.09057617,-0.97052,0.3085327,0.484375,0.359375,0.3125
1696193322309,0.1015625,-0.973938,0.3078003,0.640625,0.6875,0.484375
1696193322355,0.09838867,-0.9758911,0.31463623,-0.03125,1.1875,0.578125
1696193322383,0.09790039,-0.9697876,0.3126831,-0.34375,0.390625,0.359375
1696193322428,0.09790039,-0.9714966,0.31585693,-0.21875,0.484375,0.265625
1696193322473,0.09887695,-0.97491455,0.30926514,-0.953125,0.78125,0.59375
1696193322504,0.095947266,-0.9685669,0.30755615,-0.5625,0.9375,0.328125
1696193322548,0.104003906,-0.96881104,0.3114624,-0.359375,1.09375,0.296875
1696193322593,0.10107422,-0.97320557,0.30877686,-0.203125,0.71875,0.296875
1696193322624,0.09838867,-0.97198486,0.31243896,-1.03125,0.796875,0.078125
1696193322654,0.096191406,-0.96661377,0.3139038,-0.734375,0.359375,0.109375
1696193322715,0.10620117,-0.98028564,0.307312,0.078125,0.8125,-0.015625
1696193322743,0.09667969,-0.9678345,0.31195068,-1.6875,0.125,-0.09375
1696193322773,0.09765625,-0.96881104,0.31195068,0.203125,1.375,-0.1875
1696193322834,0.095458984,-0.96881104,0.31048584,-0.8125,1.515625,0.015625
1696193322864,0.09301758,-0.96588135,0.31414795,-0.078125,1.0625,0.15625
1696193322893,0.10498047,-0.9690552,0.31488037,0.0625,1.125,0.234375
1696193322954,0.09375,-0.9690552,0.31585693,0.5,0.59375,0.265625
1696193322969,0.095947266,-0.9734497,0.3151245,-0.03125,0.53125,0.453125
1696193323013,0.095458984,-0.9741821,0.3102417,0.140625,0.578125,0.46875
1696193323074,0.09277344,-0.9734497,0.3139038,-0.515625,1.15625,0.328125
1696193323088,0.104003906,-0.9690552,0.3131714,-0.75,0.796875,0.28125
1696193323134,0.095458984,-0.97125244,0.31365967,-0.59375,0.8125,0.34375
1696193323194,0.100097656,-0.9741821,0.31072998,-0.609375,1.515625,0.046875
1696193323208,0.09863281,-0.97369385,0.31097412,-1.0625,1.296875,0.328125
1696193323254,0.09667969,-0.97125244,0.3126831,-1.3125,1.234375,0.3125
1696193323283,0.1003418,-0.9692993,0.31195068,-1.71875,1.09375,0.125
1696193323329,0.09863281,-0.97076416,0.32147217,-1.625,2.265625,-0.015625
1696193323374,0.10620117,-0.9661255,0.322937,-0.21875,1.53125,0.078125
1696193323403,0.09667969,-0.98223877,0.31219482,0.0625,1.46875,-0.0625
1696193323448,0.09790039,-0.9702759,0.32562256,-2.234375,1.1875,0.234375
1696193323493,0.09838867,-0.9727173,0.31854248,-0.03125,1.921875,0.171875
1696193323524,0.100097656,-0.975647,0.31121826,-1.28125,1.734375,0.0625
1696193323570,0.10498047,-0.96466064,0.33172607,-0.78125,1.03125,0.03125
1696193323614,0.11206055,-0.9734497,0.32244873,-0.296875,1.0625,0.3125
1696193323643,0.10913086,-0.972229,0.32073975,0.453125,0.484375,0.28125
1696193323689,0.1027832,-0.9680786,0.3180542,-0.5,1.1875,0.46875
1696193323733,0.10644531,-0.96881104,0.31976318,-0.328125,0.328125,0.46875
1696193323763,0.107177734,-0.96173096,0.31610107,-0.4375,0.140625,0.125
1696193323808,0.099853516,-0.97442627,0.3114624,0.328125,0.71875,0.078125
1696193323854,0.09692383,-0.972229,0.31585693,0.25,1.6875,0.265625
1696193323883,0.1027832,-0.9741821,0.31121826,0.328125,1.578125,0.5625
1696193323913,0.103515625,-0.96954346,0.3163452,0.40625,1.65625,0.3125
1696193323973,0.10644531,-0.96881104,0.31488037,0.09375,1.21875,0.15625
1696193324003,0.10180664,-0.97198486,0.3102417,0.203125,1.125,0.046875
1696193324034,0.10546875,-0.9668579,0.3151245,-0.015625,1.453125,-0.0625
1696193324094,0.10229492,-0.98028564,0.31048584,0.890625,1.59375,-0.125
1696193324123,0.099365234,-0.95977783,0.31414795,-1.40625,0.734375,0.203125
1696193324154,0.103271484,-0.9668579,0.31903076,0.890625,1.5625,0.40625
1696193324213,0.107666016,-0.9727173,0.30560303,-0.78125,1.796875,0.125
1696193324228,0.104003906,-0.9702759,0.31414795,-0.578125,1.53125,-0.15625
1696193324273,0.10180664,-0.972229,0.3143921,0.234375,1.453125,-0.078125
1696193324334,0.10131836,-0.97198486,0.3163452,0.09375,1.65625,0.09375
1696193324348,0.10644531,-0.97076416,0.3060913,-0.875,1.125,-0.1875
1696193324393,0.10229492,-0.97003174,0.30755615,-1.125,2.171875,-0.34375
1696193324454,0.10058594,-0.97662354,0.31463623,-1.890625,2.65625,-0.234375
1696193324469,0.10180664,-0.96710205,0.31463623,-2.296875,2.421875,-0.46875
1696193324513,0.103515625,-0.97125244,0.31781006,-0.890625,1.828125,-0.421875
1696193324543,0.10253906,-0.9697876,0.309021,0.375,1.21875,0.421875
1696193324588,0.10644531,-0.97320557,0.31097412,-0.65625,1.265625,0.21875
1696193324634,0.1003418,-0.9690552,0.3143921,-0.78125,1.28125,0.328125
1696193324663,0.103759766,-0.98223877,0.31951904,0.46875,0.921875,0.40625
1696193324708,0.09863281,-0.9590454,0.32806396,0.234375,1.8125,0.21875
1696193324754,0.106933594,-0.9729614,0.29412842,-1.421875,1.4375,0.28125
1696193324783,0.10595703,-0.9680786,0.33587646,0.3125,0.96875,0.484375
1696193324829,0.111572266,-0.9729614,0.30413818,0.0,1.328125,0.625
1696193324874,0.09838867,-0.96173096,0.31292725,-0.78125,1.484375,0.140625
1696193324904,0.111083984,-0.97491455,0.32025146,-0.109375,0.90625,0.328125
1696193324949,0.10595703,-0.972229,0.31170654,0.265625,1.453125,0.3125
1696193324994,0.10522461,-0.97125244,0.31585693,0.1875,0.609375,0.421875
1696193325023,0.11669922,-0.96466064,0.31219482,-0.09375,0.984375,0.53125
1696193325069,0.1171875,-0.97662354,0.30950928,0.296875,1.015625,0.671875
1696193325114,0.10839844,-0.9697876,0.30999756,-0.546875,0.96875,0.5
1696193325143,0.11450195,-0.9649048,0.31072998,-1.140625,0.953125,0.4375
1696193325188,0.11621094,-0.9678345,0.31048584,-1.21875,1.1875,0.65625
1696193325234,0.11230469,-0.9714966,0.3048706,-2.09375,0.359375,0.265625
1696193325264,0.0949707,-0.96954346,0.32659912,-2.578125,0.984375,-0.046875
1696193325294,0.11425781,-0.97906494,0.31610107,-0.140625,0.203125,0.15625
1696193325367,0.107177734,-0.9710083,0.3300171,0.40625,1.1875,0.078125
1696193325383,0.11694336,-0.9607544,0.30560303,-2.921875,1.125,-0.078125
1696193325415,0.10595703,-0.96759033,0.3373413,-0.265625,-0.15625,0.171875
1696193325474,0.111328125,-0.9624634,0.3131714,-2.125,1.546875,-0.109375
1696193325533,0.10229492,-0.96881104,0.3283081,-1.796875,2.03125,0.296875
1696193325537,0.11450195,-0.9685669,0.32318115,-0.59375,0.9375,0.109375
1696193325594,0.115722656,-0.95977783,0.31756592,0.171875,1.890625,0.140625
1696193325653,0.111816406,-0.97247314,0.32635498,-0.34375,1.171875,-0.015625
1696193325656,0.11401367,-0.96343994,0.31903076,-0.4375,1.25,0.015625
1696193325713,0.103515625,-0.96661377,0.31903076,-0.34375,1.546875,-0.171875
1696193325730,0.111816406,-0.9673462,0.32659912,-0.09375,1.515625,-0.1875
1696193325773,0.10546875,-0.9680786,0.32806396,0.140625,0.875,-0.125
1696193325833,0.11230469,-0.97198486,0.32025146,0.234375,1.234375,-0.03125
1696193325848,0.10546875,-0.9636841,0.3192749,-0.453125,1.1875,0.015625
1696193325893,0.10424805,-0.96881104,0.31854248,-0.59375,1.171875,0.03125
1696193325923,0.11816406,-0.9595337,0.31536865,-1.328125,0.21875,0.296875
1696193325969,0.111083984,-0.9768677,0.32440186,0.328125,1.234375,-0.21875
1696193326014,0.107421875,-0.96466064,0.31951904,-2.484375,-0.09375,-0.078125
1696193326043,0.11254883,-0.96661377,0.3324585,0.96875,0.03125,0.171875
1696193326089,0.09643555,-0.96588135,0.31658936,-1.3125,1.46875,0.078125
1696193326134,0.11254883,-0.9651489,0.32904053,-0.53125,0.3125,0.09375
1696193326164,0.10620117,-0.9627075,0.33050537,0.75,-0.328125,0.15625
1696193326208,0.11230469,-0.96661377,0.32147217,0.75,-0.4375,0.421875
1696193326253,0.10620117,-0.9649048,0.3204956,-0.671875,-1.25,-0.125
1696193326283,0.109375,-0.97125244,0.3241577,0.046875,-2.234375,-0.03125
1696193326327,0.10522461,-0.9751587,0.32000732,-0.578125,-1.40625,0.171875
1696193326375,0.10571289,-0.97003174,0.31854248,-0.046875,0.015625,0.21875
1696193326403,0.10644531,-0.9636841,0.3270874,-0.265625,-0.34375,0.1875
1696193326449,0.107666016,-0.9697876,0.32244873,-0.203125,-0.59375,0.171875
1696193326494,0.09448242,-0.97125244,0.32318115,-0.203125,0.40625,0.0
1696193326523,0.099121094,-0.9668579,0.3241577,0.015625,0.15625,0.125
1696193326554,0.10473633,-0.97247314,0.31976318,-0.5625,0.0625,0.234375
1696193326613,0.10205078,-0.9702759,0.33563232,0.1875,0.90625,-0.0625
1696193326643,0.11279297,-0.96832275,0.3102417,-2.546875,-0.03125,-0.109375
1696193326673,0.099121094,-0.9710083,0.34051514,-1.0,0.421875,0.015625
1696193326733,0.10107422,-0.9692993,0.32269287,-2.0,0.578125,0.0625
1696193326763,0.103515625,-0.9656372,0.33221436,-0.34375,-0.046875,0.296875
1696193326793,0.10595703,-0.97198486,0.33319092,-0.09375,1.59375,-0.046875
1696193326854,0.110839844,-0.9717407,0.33831787,0.109375,1.234375,-0.203125
1696193326868,0.10229492,-0.9651489,0.32684326,-0.703125,-0.453125,0.09375
1696193326914,0.10620117,-0.96466064,0.3287964,-0.421875,0.46875,-0.109375
1696193326973,0.10107422,-0.9734497,0.32366943,0.0625,0.578125,-0.234375
1696193326988,0.1081543,-0.9649048,0.32489014,0.265625,-0.15625,-0.171875
1696193327033,0.103027344,-0.9680786,0.322937,-0.625,-0.265625,-0.375
1696193327093,0.103027344,-0.9668579,0.3270874,0.65625,-0.015625,0.03125
1696193327118,0.09399414,-0.9614868,0.3209839,0.25,0.203125,0.28125
1696193327154,0.10083008,-0.97320557,0.3258667,0.15625,0.484375,0.296875
1696193327183,0.10473633,-0.9692993,0.32611084,0.625,-0.375,0.265625
1696193327228,0.095947266,-0.9649048,0.32562256,-0.171875,-0.53125,0.109375
1696193327274,0.09887695,-0.9746704,0.32391357,0.21875,0.5,-0.1875
1696193327303,0.09326172,-0.97003174,0.32781982,0.0,0.609375,-0.140625
1696193327348,0.100097656,-0.9680786,0.30975342,-0.328125,-0.828125,-0.28125
1696193327393,0.087890625,-0.9639282,0.32781982,0.75,0.34375,-0.078125
1696193327423,0.10449219,-0.9783325,0.31781006,0.265625,2.078125,-0.09375
1696193327469,0.08325195,-0.9727173,0.3234253,1.921875,0.953125,0.140625
1696193327514,0.10058594,-0.97540283,0.31658936,1.390625,0.953125,-0.09375
1696193327543,0.09692383,-0.9807739,0.32659912,2.328125,1.296875,0.46875
1696193327588,0.10205078,-0.9656372,0.30511475,0.71875,1.078125,0.21875
1696193327634,0.09033203,-0.9780884,0.3085327,1.46875,0.328125,-0.015625
1696193327663,0.0949707,-0.96710205,0.30047607,0.625,2.03125,0.28125
1696193327725,0.10131836,-0.9714966,0.3078003,1.15625,1.65625,0.28125
1696193327754,0.10131836,-0.97247314,0.3065796,0.4375,1.46875,0.359375
1696193327783,0.09741211,-0.97442627,0.30706787,0.15625,0.5625,0.09375
1696193327813,0.0949707,-0.97320557,0.30584717,0.375,1.171875,-0.046875
1696193327874,0.09765625,-0.9685669,0.29656982,0.3125,2.0,-0.03125
1696193327902,0.10253906,-0.9771118,0.30316162,0.046875,1.6875,-0.125
1696193327935,0.10058594,-0.97662354,0.30389404,0.21875,1.609375,0.171875
1696193327994,0.10253906,-0.97662354,0.3036499,0.15625,1.234375,0.171875
1696193328024,0.10546875,-0.97198486,0.29608154,0.484375,1.453125,-0.015625
1696193328053,0.103027344,-0.9741821,0.30047607,0.125,0.921875,0.109375
1696193328113,0.103027344,-0.98638916,0.2994995,1.171875,0.375,0.0
1696193328128,0.092285156,-0.9673462,0.29412842,-1.484375,-0.515625,-0.078125
1696193328173,0.0949707,-0.9807739,0.30267334,0.125,1.859375,-0.53125
1696193328233,0.10083008,-0.9788208,0.2880249,-0.4375,1.6875,0.0625
1696193328249,0.09838867,-0.9729614,0.30316162,0.0,1.390625,-0.328125
1696193328293,0.09301758,-0.9758911,0.29803467,-0.734375,0.8125,-0.234375
1696193328354,0.09423828,-0.97784424,0.3024292,0.90625,0.9375,0.1875
1696193328368,0.09643555,-0.97540283,0.28875732,-0.46875,0.0625,0.0625
1696193328414,0.09814453,-0.97906494,0.29779053,-0.28125,1.21875,0.203125
1696193328443,0.09326172,-0.9768677,0.2855835,0.0,1.140625,0.515625
1696193328488,0.099853516,-0.9729614,0.2946167,0.390625,0.953125,0.25
1696193328534,0.1027832,-0.97613525,0.29437256,-0.078125,1.171875,0.15625
1696193328563,0.09423828,-0.97613525,0.2946167,-0.625,1.4375,0.0625
1696193328609,0.092285156,-0.9763794,0.2958374,-0.84375,1.5625,-0.015625
1696193328654,0.09692383,-0.9776001,0.293396,-0.71875,1.234375,-0.046875
1696193328683,0.096191406,-0.9734497,0.29681396,-0.671875,0.59375,-0.171875
1696193328728,0.10107422,-0.97662354,0.29388428,-0.8125,1.171875,-0.125
1696193328773,0.099609375,-0.97003174,0.29974365,-0.625,0.828125,0.03125
1696193328803,0.09375,-0.97979736,0.3024292,-0.84375,1.140625,0.109375
1696193328849,0.09448242,-0.9710083,0.29608154,-0.703125,0.96875,0.34375
1696193328894,0.10107422,-0.97906494,0.28363037,-0.421875,0.765625,0.109375
1696193328923,0.091308594,-0.9780884,0.30169678,-1.5,0.015625,0.0625
1696193328969,0.095458984,-0.98028564,0.2970581,-0.40625,1.734375,0.15625
1696193329013,0.08886719,-0.97442627,0.29266357,-1.375,0.828125,0.40625
1696193329043,0.09790039,-0.9793091,0.30340576,-0.921875,0.4375,0.234375
1696193329074,0.09448242,-0.9746704,0.29852295,-0.75,1.015625,0.328125
1696193329133,0.10205078,-0.96710205,0.3048706,0.640625,0.578125,0.1875
1696193329163,0.10180664,-0.96710205,0.30511475,-0.390625,0.078125,0.171875
1696193329193,0.095703125,-0.9807739,0.3007202,-0.75,0.578125,0.28125
1696193329254,0.095458984,-0.97369385,0.29730225,-0.5,1.046875,0.265625
1696193329284,0.09326172,-0.9776001,0.30389404,-0.765625,0.71875,0.03125
1696193329313,0.099609375,-0.975647,0.3060913,-1.09375,0.703125,0.03125
1696193329373,0.099365234,-0.97247314,0.29974365,-1.0625,0.71875,0.015625
1696193329405,0.09399414,-0.9763794,0.30804443,-1.234375,1.265625,-0.015625
1696193329433,0.10131836,-0.9734497,0.31121826,-2.0625,0.890625,0.046875
1696193329494,0.1015625,-0.9763794,0.3078003,-1.53125,0.453125,0.0625
1696193329509,0.103027344,-0.97320557,0.31195068,-1.1875,0.125,0.171875
1696193329553,0.09814453,-0.9717407,0.30755615,-1.4375,-0.484375,0.71875
1696193329614,0.09692383,-0.98150635,0.31170654,-1.5625,0.046875,0.265625
1696193329629,0.09472656,-0.9729614,0.32244873,-1.859375,0.640625,0.296875
1696193329674,0.107910156,-0.972229,0.3007202,-1.375,0.15625,0.09375
1696193329733,0.095703125,-0.9690552,0.32659912,-1.5,0.375,-0.25
1696193329749,0.09814453,-0.97003174,0.3151245,0.328125,1.359375,-0.0625
1696193329794,0.091796875,-0.9680786,0.3078003,-0.640625,0.859375,0.0
1696193329824,0.106933594,-0.9758911,0.3163452,-0.0625,0.703125,-0.15625
1696193329868,0.09277344,-0.97369385,0.3192749,0.46875,1.140625,0.390625
1696193329915,0.099609375,-0.96710205,0.3139038,0.046875,0.046875,0.203125
1696193329943,0.09643555,-0.9714966,0.31829834,-0.8125,0.21875,0.25
1696193329988,0.095703125,-0.9697876,0.3192749,-0.46875,0.109375,0.109375
1696193330064,0.09741211,-0.9692993,0.31488037,0.171875,0.71875,0.078125
1696193330068,0.09350586,-0.97662354,0.31707764,-0.15625,0.34375,-0.1875
1696193330109,0.08691406,-0.97369385,0.31243896,0.265625,0.734375,-0.015625
1696193330154,0.0871582,-0.9768677,0.31121826,0.109375,1.1875,0.375
1696193330184,0.09838867,-0.96881104,0.31195068,-0.359375,1.171875,0.109375
1696193330229,0.10546875,-0.97735596,0.31536865,-0.234375,2.140625,0.21875
1696193330274,0.106933594,-0.9768677,0.31463623,-0.875,2.125,0.609375
1696193330303,0.095703125,-0.9668579,0.3168335,-1.1875,0.8125,0.359375
1696193330348,0.09692383,-0.9751587,0.31658936,-0.453125,1.421875,0.25
1696193330394,0.095703125,-0.97442627,0.32635498,-0.171875,2.234375,0.609375
1696193330423,0.10644531,-0.95880127,0.3012085,-2.125,1.1875,0.5
1696193330454,0.08886719,-0.97320557,0.34002686,-0.453125,1.234375,0.0625
1696193330514,0.103271484,-0.9741821,0.30877686,-0.796875,2.125,0.265625
1696193330544,0.095214844,-0.96954346,0.31951904,-1.484375,2.71875,-0.09375
1696193330573,0.111328125,-0.98028564,0.32684326,-0.71875,1.1875,-0.109375
1696193330634,0.103759766,-0.97125244,0.31414795,0.671875,1.5625,0.453125
1696193330664,0.11010742,-0.972229,0.3180542,0.28125,0.640625,0.5
1696193330693,0.099121094,-0.9729614,0.31732178,-0.265625,0.71875,0.5
1696193330754,0.10131836,-0.9734497,0.3168335,-0.625,0.8125,0.109375
1696193330769,0.095703125,-0.9680786,0.31121826,-1.15625,0.5625,0.109375
1696193330813,0.09887695,-0.9692993,0.3143921,-2.046875,0.390625,0.03125
1696193330874,0.09838867,-0.97491455,0.32611084,-0.421875,-0.125,0.328125
1696193330889,0.09326172,-0.9627075,0.32025146,-0.109375,0.3125,0.609375
1696193330935,0.09863281,-0.96710205,0.32073975,-0.640625,0.203125,-0.140625
1696193330994,0.096191406,-0.97491455,0.32147217,-0.515625,0.03125,-0.21875
1696193331008,0.10083008,-0.96759033,0.31707764,0.0,-0.109375,0.03125
1696193331054,0.10180664,-0.9751587,0.3163452,-0.5625,0.15625,0.078125
1696193331084,0.09277344,-0.9649048,0.33294678,0.0,1.328125,-0.390625
1696193331129,0.10424805,-0.95880127,0.29608154,-2.28125,0.78125,-0.40625
1696193331175,0.09692383,-0.9729614,0.3390503,0.359375,0.5625,-0.28125
1696193331203,0.10205078,-0.9607544,0.31072998,-0.625,1.71875,-0.03125
1696193331248,0.09375,-0.9729614,0.3209839,-0.4375,1.671875,-0.1875
1696193331294,0.11401367,-0.9751587,0.33026123,0.0,1.375,0.109375
1696193331323,0.10107422,-0.97442627,0.32318115,0.484375,1.296875,0.125
1696193331368,0.09741211,-0.9717407,0.33563232,0.53125,0.75,0.171875
1696193331414,0.09887695,-0.97491455,0.3168335,1.484375,-0.515625,-0.09375
1696193331444,0.095214844,-0.9710083,0.30291748,2.90625,-0.328125,-0.015625
1696193331488,0.10058594,-0.96954346,0.31610107,1.328125,0.265625,-0.296875
1696193331534,0.095458984,-0.97320557,0.3163452,1.046875,-0.140625,-0.5
1696193331563,0.1015625,-0.9758911,0.31072998,1.125,0.0,0.03125
1696193331608,0.09277344,-0.9734497,0.31536865,0.703125,0.515625,-0.03125
1696193331653,0.09863281,-0.96832275,0.3048706,1.890625,-0.234375,0.046875
1696193331685,0.095214844,-0.972229,0.29656982,1.984375,-0.421875,0.21875
1696193331714,0.091796875,-0.9768677,0.2958374,1.0625,0.234375,0.28125
1696193331774,0.09692383,-0.97003174,0.3131714,0.171875,0.484375,0.671875
1696193331803,0.092285156,-0.9817505,0.29437256,0.390625,0.5,0.34375
1696193331833,0.088134766,-0.97662354,0.30267334,-1.484375,0.125,0.234375
1696193331894,0.0925293,-0.9776001,0.2975464,0.546875,1.609375,0.375
1696193331924,0.0859375,-0.9697876,0.28656006,-0.6875,1.8125,0.265625
1696193331953,0.10058594,-0.9690552,0.29901123,-0.25,1.609375,0.0625
1696193332014,0.09448242,-0.97662354,0.3078003,-0.53125,1.375,0.21875
1696193332028,0.08959961,-0.96832275,0.2999878,-0.1875,1.078125,0.375
1696193332074,0.09350586,-0.97003174,0.2970581,-1.578125,0.8125,-0.390625
1696193332134,0.09741211,-0.9805298,0.29681396,-0.890625,1.484375,0.078125
1696193332148,0.09838867,-0.9768677,0.29412842,-0.578125,1.421875,0.109375
1696193332194,0.099121094,-0.9768677,0.29730225,0.09375,1.609375,-0.09375
1696193332253,0.09375,-0.9780884,0.2994995,-0.296875,1.171875,0.09375
1696193332268,0.09716797,-0.9734497,0.29925537,0.515625,0.828125,0.1875
1696193332313,0.1003418,-0.9758911,0.29608154,0.09375,0.40625,0.328125
1696193332344,0.09790039,-0.9714966,0.29412842,0.71875,0.5625,0.265625
1696193332388,0.09716797,-0.97540283,0.28875732,0.203125,0.109375,0.109375
1696193332433,0.103027344,-0.9817505,0.29193115,0.15625,0.6875,0.140625
1696193332464,0.1015625,-0.97613525,0.30169678,0.390625,0.953125,0.21875
1696193332509,0.107177734,-0.97906494,0.28411865,-0.25,0.40625,-0.3125
1696193332554,0.08862305,-0.9734497,0.3012085,-0.625,0.359375,0.109375
1696193332583,0.1027832,-0.98321533,0.2892456,0.34375,1.6875,0.453125
1696193332628,0.087402344,-0.98150635,0.28826904,-0.703125,2.125,0.46875
1696193332674,0.111083984,-0.98516846,0.29632568,-0.4375,1.15625,0.0625
1696193332704,0.10107422,-0.97784424,0.29852295,0.421875,1.21875,0.15625
1696193332749,0.10180664,-0.9763794,0.28948975,0.78125,0.703125,0.15625
1696193332794,0.10205078,-0.9795532,0.29144287,0.375,0.6875,0.265625
1696193332823,0.09667969,-0.9751587,0.29241943,-0.328125,1.53125,0.15625
1696193332868,0.10522461,-0.98101807,0.293396,1.1875,0.609375,0.359375
1696193332913,0.10253906,-0.9771118,0.2826538,1.8125,0.09375,0.328125
1696193332943,0.09838867,-0.9763794,0.28631592,1.171875,1.0625,0.578125
1696193332973,0.099609375,-0.98028564,0.28533936,0.609375,1.140625,0.34375
1696193333034,0.10449219,-0.9741821,0.28045654,-0.8125,0.8125,0.3125
1696193333064,0.107177734,-0.9776001,0.28631592,-2.640625,1.9375,-0.171875
1696193333094,0.09472656,-0.9776001,0.27679443,-2.703125,0.53125,0.015625
1696193333153,0.09863281,-0.9793091,0.2831421,-1.625,1.375,-0.328125
1696193333184,0.10644531,-0.9697876,0.29486084,-0.703125,2.125,0.015625
1696193333214,0.103271484,-0.97735596,0.27874756,-1.578125,0.984375,-0.375
1696193333274,0.095458984,-0.9727173,0.2921753,-1.28125,0.8125,-0.703125
1696193333288,0.10180664,-0.9834595,0.28607178,-0.109375,2.640625,-0.3125
1696193333333,0.09375,-0.9727173,0.2838745,-0.515625,2.359375,-0.125
1696193333394,0.10571289,-0.9829712,0.2897339,-0.21875,1.3125,-0.125
1696193333408,0.10546875,-0.97320557,0.293396,0.46875,1.578125,0.34375
1696193333453,0.10620117,-0.97857666,0.28607178,0.484375,0.421875,0.390625
1696193333514,0.10229492,-0.9788208,0.28875732,0.640625,0.765625,0.265625
1696193333529,0.10107422,-0.97613525,0.28607178,0.71875,1.625,0.5625
1696193333574,0.09423828,-0.98272705,0.27996826,-0.140625,1.5,0.546875
1696193333634,0.10473633,-0.97491455,0.28826904,0.203125,1.046875,0.5
1696193333649,0.10473633,-0.9795532,0.28778076,-0.359375,1.015625,0.453125
1696193333694,0.09814453,-0.9780884,0.28485107,0.359375,1.34375,0.34375
1696193333723,0.09887695,-0.98150635,0.27923584,-0.59375,1.09375,0.046875
1696193333768,0.100097656,-0.9807739,0.2850952,0.078125,1.46875,-0.171875
1696193333814,0.103027344,-0.98150635,0.2838745,-0.234375,1.03125,0.078125
1696193333844,0.1003418,-0.97540283,0.28216553,-0.46875,1.421875,0.109375
1696193333888,0.107421875,-0.975647,0.28240967,-0.515625,1.03125,0.140625
1696193333933,0.099365234,-0.9829712,0.29144287,0.59375,1.15625,0.046875
1696193333964,0.095947266,-0.9834595,0.28240967,-1.5625,0.296875,-0.046875
1696193334009,0.10083008,-0.975647,0.2838745,-0.765625,1.578125,-0.046875
1696193334054,0.10449219,-0.98150635,0.277771,-0.359375,1.34375,0.171875
1696193334083,0.091552734,-0.975647,0.2904663,-0.65625,0.796875,-0.046875
1696193334129,0.107421875,-0.9780884,0.28460693,-1.09375,0.59375,-0.0625
1696193334174,0.091308594,-0.9807739,0.2892456,0.140625,0.546875,-0.046875
1696193334203,0.095703125,-0.9697876,0.2814331,-0.4375,0.15625,0.171875
1696193334248,0.095458984,-0.97540283,0.28631592,-0.390625,0.859375,-0.125
1696193334294,0.09716797,-0.9793091,0.2748413,-0.484375,1.203125,-0.09375
1696193334325,0.11230469,-0.9768677,0.28363037,-0.078125,1.1875,-0.109375
1696193334354,0.09887695,-0.9751587,0.28070068,-0.734375,0.28125,-0.03125
1696193334414,0.103515625,-0.9741821,0.28778076,-0.5625,0.96875,0.09375
1696193334443,0.09765625,-0.9741821,0.28900146,-0.625,1.09375,0.109375
1696193334473,0.10131836,-0.9783325,0.2880249,-1.0,0.984375,-0.046875
1696193334533,0.10107422,-0.973938,0.2892456,-0.671875,1.15625,-0.0625
1696193334563,0.10913086,-0.97320557,0.29022217,-0.71875,0.734375,0.28125
1696193334594,0.09887695,-0.97320557,0.28997803,-0.640625,1.03125,-0.203125
1696193334654,0.095214844,-0.9776001,0.293396,-1.28125,1.65625,-0.09375
1696193334668,0.10473633,-0.9763794,0.27923584,-0.90625,0.953125,-0.09375
1696193334714,0.095458984,-0.97198486,0.29925537,-1.453125,0.71875,-0.34375
1696193334774,0.1003418,-0.98516846,0.29486084,0.078125,2.171875,0.203125
1696193334789,0.10131836,-0.97125244,0.28753662,-0.640625,1.890625,0.25
1696193334834,0.09448242,-0.972229,0.30877686,0.734375,1.296875,-0.28125
1696193334909,0.100097656,-0.973938,0.29974365,0.53125,1.78125,0.203125
1696193334912,0.107666016,-0.9729614,0.2892456,1.046875,0.515625,0.109375
1696193334954,0.095947266,-0.9817505,0.29071045,0.21875,0.234375,0.296875
1696193334983,0.103515625,-0.9776001,0.28851318,0.6875,0.15625,0.28125
1696193335028,0.09716797,-0.9776001,0.27996826,-0.015625,0.25,-0.03125
1696193335073,0.09741211,-0.98394775,0.2814331,0.3125,-0.15625,-0.28125
1696193335103,0.09863281,-0.9834595,0.2765503,0.15625,-0.234375,0.0625
1696193335149,0.095947266,-0.9795532,0.28045654,0.0,0.34375,0.265625
1696193335194,0.09814453,-0.97613525,0.29364014,0.09375,0.15625,-0.125
1696193335223,0.1027832,-0.98028564,0.27972412,-0.09375,0.375,0.046875
1696193335269,0.09741211,-0.97735596,0.276062,-0.3125,0.3125,0.109375
1696193335313,0.09790039,-0.97784424,0.2909546,-0.4375,0.90625,0.125
1696193335344,0.09790039,-0.96661377,0.2850952,-1.265625,0.96875,0.390625
1696193335388,0.100097656,-0.9841919,0.2711792,-1.484375,1.796875,0.109375
1696193335434,0.1027832,-0.97784424,0.29730225,-1.28125,0.828125,0.0625
1696193335463,0.10522461,-0.97369385,0.27703857,0.171875,1.171875,0.125
1696193335508,0.092285156,-0.975647,0.27264404,-1.140625,1.328125,0.03125
1696193335555,0.10864258,-0.972229,0.29144287,-0.09375,0.734375,-0.046875
1696193335583,0.103271484,-0.9805298,0.28704834,0.0625,0.984375,0.546875
1696193335614,0.09790039,-0.9746704,0.2897339,-0.21875,0.6875,0.171875
1696193335674,0.09082031,-0.97735596,0.2838745,-0.609375,0.5625,0.046875
1696193335703,0.10522461,-0.97906494,0.2826538,-0.109375,0.921875,0.078125
1696193335733,0.095947266,-0.9788208,0.28240967,-0.625,0.34375,0.0625
1696193335794,0.0925293,-0.9824829,0.27801514,0.5,0.703125,-0.046875
1696193335823,0.095214844,-0.9812622,0.28363037,-0.234375,0.921875,-0.1875
1696193335854,0.087402344,-0.9771118,0.28070068,-0.53125,1.765625,0.234375
1696193335914,0.10083008,-0.98321533,0.28289795,-0.796875,1.734375,0.34375
1696193335929,0.10449219,-0.97979736,0.28778076,-0.796875,1.265625,0.125
1696193335974,0.100097656,-0.98443604,0.2892456,-0.078125,1.171875,0.328125
1696193336034,0.0925293,-0.9741821,0.28485107,-0.4375,1.0,0.3125
1696193336048,0.09326172,-0.98394775,0.26654053,-0.25,1.9375,-0.3125
1696193336093,0.09790039,-0.975647,0.2970581,-1.03125,3.3125,-0.046875
1696193336154,0.09790039,-0.97735596,0.2904663,-0.28125,3.171875,0.34375
1696193336169,0.1015625,-0.9685669,0.2765503,-1.6875,1.578125,-0.015625
1696193336213,0.10180664,-0.9817505,0.29364014,-0.84375,1.6875,-0.140625
1696193336245,0.104003906,-0.96710205,0.29608154,0.25,1.921875,0.40625
1696193336290,0.11035156,-0.9702759,0.28338623,0.203125,1.28125,0.34375
1696193336334,0.099853516,-0.9795532,0.28851318,0.078125,1.234375,0.5
1696193336363,0.111572266,-0.975647,0.28753662,0.53125,0.828125,0.4375
1696193336408,0.10546875,-0.97857666,0.29144287,0.328125,-0.046875,0.359375
1696193336455,0.10107422,-0.98516846,0.28411865,0.484375,-0.09375,0.484375
1696193336484,0.1027832,-0.98150635,0.2819214,-0.078125,0.140625,0.25
1696193336528,0.0949707,-0.9746704,0.28240967,-0.484375,0.203125,0.515625
1696193336574,0.1027832,-0.9788208,0.27459717,-0.703125,0.265625,0.375
1696193336604,0.10449219,-0.97076416,0.27215576,-0.765625,0.640625,0.28125
1696193336648,0.10888672,-0.9812622,0.28338623,0.15625,1.25,0.265625
1696193336694,0.10473633,-0.97198486,0.2850952,-0.6875,1.359375,0.140625
1696193336724,0.11376953,-0.9854126,0.26287842,-1.109375,1.484375,0.234375
1696193336768,0.10205078,-0.98150635,0.30023193,-0.03125,0.25,0.109375
1696193336814,0.10595703,-0.97369385,0.27020264,0.125,0.90625,0.0625
1696193336843,0.09838867,-0.9758911,0.27093506,-0.875,1.65625,-0.09375
1696193336874,0.10498047,-0.98443604,0.2838745,0.015625,1.1875,-0.078125
1696193336933,0.10229492,-0.9710083,0.2802124,0.71875,1.234375,0.171875
1696193336964,0.10864258,-0.9717407,0.27923584,0.078125,1.34375,0.109375
1696193336993,0.107910156,-0.9751587,0.27166748,-0.328125,0.484375,-0.03125
1696193337053,0.10131836,-0.9771118,0.27947998,-0.3125,0.6875,-0.21875
1696193337083,0.099365234,-0.98321533,0.27703857,-0.578125,0.5,-0.28125
1696193337114,0.107421875,-0.9849243,0.28118896,-0.421875,0.921875,-0.3125
1696193337174,0.09814453,-0.9771118,0.27703857,-0.953125,0.765625,-0.421875
1696193337188,0.10058594,-0.9805298,0.28094482,-1.25,0.796875,-0.046875
1696193337234,0.09887695,-0.9849243,0.27630615,-1.796875,0.75,0.203125
1696193337294,0.09692383,-0.98516846,0.28704834,-1.078125,1.234375,0.171875
1696193337309,0.10083008,-0.973938,0.28729248,-1.53125,1.625,0.015625
1696193337354,0.10839844,-0.9871216,0.27288818,-1.015625,1.15625,0.0
1696193337414,0.0949707,-0.9795532,0.29852295,-1.5625,-0.078125,0.0625
1696193337430,0.10620117,-0.98101807,0.28216553,-0.671875,1.640625,0.28125
1696193337473,0.1003418,-0.97540283,0.27874756,-2.140625,1.546875,0.109375
1696193337504,0.09448242,-0.98443604,0.2994995,-1.390625,1.125,-0.265625
1696193337548,0.103515625,-0.97442627,0.293396,-0.484375,0.34375,0.015625
1696193337594,0.103515625,-0.97613525,0.2994995,-0.359375,0.4375,0.078125
1696193337624,0.0925293,-0.97540283,0.293396,-1.546875,-0.21875,-0.328125
1696193337669,0.09472656,-0.97247314,0.29241943,-0.296875,0.515625,-0.265625
1696193337715,0.09838867,-0.9685669,0.2929077,-0.25,0.90625,0.078125
1696193337743,0.095458984,-0.9771118,0.29144287,-0.34375,0.203125,-0.109375
1696193337789,0.100097656,-0.97613525,0.29388428,-0.171875,0.28125,-0.3125
1696193337834,0.09887695,-0.97198486,0.293396,0.5,0.65625,0.28125
1696193337864,0.10546875,-0.97906494,0.2843628,-0.40625,0.125,0.078125
1696193337909,0.09375,-0.97369385,0.30194092,-0.921875,0.390625,0.0625
1696193337953,0.09106445,-0.975647,0.29119873,-1.265625,-0.0625,0.078125
1696193337984,0.103027344,-0.9783325,0.29925537,0.640625,0.40625,-0.203125
1696193338028,0.104003906,-0.9780884,0.29193115,-1.640625,-0.59375,-0.203125
1696193338074,0.091796875,-0.97613525,0.29925537,0.140625,0.671875,-0.1875
1696193338103,0.0949707,-0.97613525,0.28997803,-0.890625,0.953125,0.046875
1696193338149,0.095458984,-0.9751587,0.30218506,-0.890625,0.359375,-0.015625
1696193338194,0.09472656,-0.9800415,0.29022217,-0.5,-0.296875,0.09375
1696193338223,0.087402344,-0.986145,0.2970581,1.703125,0.4375,0.578125
1696193338253,0.095458984,-0.9729614,0.29119873,0.171875,0.140625,0.28125
1696193338314,0.103515625,-0.9837036,0.2897339,0.3125,-0.46875,0.53125
1696193338344,0.08203125,-0.97076416,0.28411865,0.703125,1.078125,0.9375
1696193338373,0.10107422,-0.9746704,0.2855835,0.859375,0.578125,0.453125
1696193338434,0.09375,-0.9859009,0.28533936,0.25,0.140625,0.078125
1696193338464,0.083740234,-0.9795532,0.27947998,0.546875,0.703125,0.0625
1696193338494,0.09423828,-0.98101807,0.28118896,0.515625,0.6875,-0.046875
1696193338553,0.09350586,-0.9819946,0.28216553,-0.171875,0.40625,-0.078125
1696193338568,0.092041016,-0.9849243,0.28851318,0.125,1.09375,0.125
1696193338612,0.09057617,-0.98028564,0.27996826,-0.625,0.625,0.453125
1696193338673,0.096191406,-0.9849243,0.28094482,-0.59375,1.265625,0.203125
1696193338688,0.09033203,-0.9795532,0.2838745,-1.109375,0.828125,0.40625
1696193338733,0.09716797,-0.98443604,0.2892456,0.03125,0.828125,0.15625
1696193338808,0.0847168,-0.9817505,0.27581787,-2.1875,-0.390625,0.0625
1696193338811,0.095458984,-0.97320557,0.2892456,0.078125,1.484375,-0.203125
1696193338853,0.088378906,-0.9834595,0.27996826,-1.140625,1.4375,-0.140625
1696193338883,0.091796875,-0.98150635,0.29315186,-0.078125,1.1875,-0.71875
1696193338928,0.099609375,-0.98321533,0.28753662,-1.140625,1.171875,-0.21875
1696193338974,0.10083008,-0.98443604,0.29730225,-0.6875,0.8125,0.078125
1696193339004,0.08959961,-0.97906494,0.2892456,-1.40625,-0.15625,0.078125
1696193339048,0.10473633,-0.9734497,0.29266357,-0.265625,0.78125,0.59375
1696193339093,0.099609375,-0.9751587,0.2826538,-0.734375,0.765625,0.625
1696193339123,0.09399414,-0.97735596,0.29119873,-0.53125,0.296875,0.109375
1696193339169,0.091308594,-0.97662354,0.2850952,-0.03125,0.5,0.4375
1696193339214,0.1003418,-0.97320557,0.29144287,0.25,1.046875,0.359375
1696193339243,0.099121094,-0.98028564,0.2987671,-0.359375,0.96875,-0.171875
1696193339290,0.0925293,-0.97906494,0.29144287,-0.3125,0.546875,0.203125
1696193339335,0.095214844,-0.97320557,0.29022217,-0.28125,1.0,-0.09375
1696193339363,0.09448242,-0.98101807,0.2904663,-0.265625,0.84375,0.0625
1696193339453,0.092285156,-0.9768677,0.28778076,-0.1875,1.078125,0.328125
1696193339456,0.09790039,-0.9771118,0.29071045,-0.46875,0.984375,0.484375
1696193339483,0.09301758,-0.97442627,0.29022217,-0.75,1.046875,0.421875
1696193339513,0.09667969,-0.9805298,0.29534912,0.15625,0.8125,0.28125
1696193339574,0.10107422,-0.97906494,0.28704834,-1.296875,-0.296875,0.421875
1696193339604,0.09106445,-0.97320557,0.30145264,-0.109375,1.125,0.1875
1696193339635,0.09643555,-0.9837036,0.28851318,-0.984375,1.6875,0.3125
1696193339694,0.09741211,-0.9727173,0.29266357,-0.203125,1.203125,0.078125
1696193339724,0.10473633,-0.98638916,0.29559326,-0.65625,0.6875,0.046875
1696193339754,0.091552734,-0.9834595,0.2982788,0.8125,1.015625,0.21875
1696193339814,0.09472656,-0.97442627,0.28607178,-0.328125,0.15625,0.046875
1696193339828,0.099609375,-0.986145,0.29364014,-1.140625,0.78125,-0.046875
1696193339874,0.10253906,-0.9714966,0.28948975,-1.53125,0.3125,-0.25
1696193339934,0.09838867,-0.9776001,0.2909546,0.796875,-0.6875,-0.25
1696193339949,0.0949707,-0.9849243,0.29486084,-0.40625,0.421875,-0.03125
1696193339994,0.09716797,-0.9783325,0.29266357,-1.09375,0.109375,0.328125
1696193340053,0.09423828,-0.97320557,0.29388428,-1.109375,0.375,0.3125
1696193340069,0.10424805,-0.97540283,0.2904663,-0.421875,0.03125,0.671875
1696193340114,0.10424805,-0.97491455,0.29144287,-1.875,0.125,0.265625
1696193340143,0.09033203,-0.9751587,0.29974365,-0.359375,-0.9375,-0.28125
1696193340189,0.088134766,-0.98101807,0.29974365,0.3125,-0.609375,0.28125
1696193340234,0.091796875,-0.973938,0.29315186,-0.65625,0.359375,0.109375
1696193340264,0.0949707,-0.9746704,0.30023193,-0.828125,0.296875,0.140625
1696193340309,0.08569336,-0.9807739,0.30877686,-0.109375,0.21875,0.140625
1696193340354,0.09790039,-0.9663696,0.28631592,-2.65625,-0.71875,0.21875
1696193340384,0.08154297,-0.9780884,0.307312,-0.828125,-0.1875,0.015625
1696193340429,0.096191406,-0.9776001,0.29656982,-1.578125,0.84375,0.5625
1696193340473,0.0871582,-0.97247314,0.29730225,-1.109375,0.46875,0.375
1696193340504,0.091796875,-0.9829712,0.30340576,-0.546875,0.609375,0.5
1696193340548,0.09375,-0.9714966,0.3012085,0.0,1.734375,0.46875
1696193340594,0.09277344,-0.973938,0.29779053,-0.328125,0.453125,0.171875
1696193340624,0.091308594,-0.98223877,0.30633545,-0.421875,1.28125,0.015625
1696193340669,0.09448242,-0.96954346,0.29608154,-1.296875,1.6875,-0.296875
1696193340714,0.09375,-0.9746704,0.30706787,-1.234375,1.734375,-0.65625
1696193340744,0.103271484,-0.9727173,0.31463623,-1.5,1.1875,-0.703125
1696193340774,0.1015625,-0.9795532,0.31707764,-1.484375,1.828125,-0.578125
1696193340833,0.08886719,-0.9746704,0.3114624,-0.78125,1.921875,0.078125
1696193340863,0.1027832,-0.9690552,0.309021,-0.703125,1.203125,0.140625
1696193340894,0.099853516,-0.96954346,0.31414795,-0.75,0.65625,0.25
1696193340954,0.09448242,-0.97613525,0.3126831,-0.421875,1.34375,0.328125
1696193340983,0.09448242,-0.96954346,0.30804443,-1.078125,0.640625,0.390625
1696193341014,0.09326172,-0.97540283,0.30926514,-1.65625,1.3125,0.53125
1696193341074,0.09301758,-0.9678345,0.3180542,-1.015625,0.78125,0.21875
1696193341088,0.09863281,-0.9817505,0.3053589,-0.15625,1.234375,-0.15625
1696193341134,0.09106445,-0.9710083,0.32391357,-1.109375,0.109375,0.1875
1696193341194,0.103759766,-0.96661377,0.31707764,-0.046875,0.734375,0.390625
1696193341209,0.088378906,-0.97076416,0.30047607,-2.0,1.53125,0.125
1696193341253,0.09399414,-0.975647,0.31903076,-1.40625,1.640625,0.25
1696193341314,0.095214844,-0.9624634,0.32122803,-1.046875,1.34375,0.359375
1696193341329,0.100097656,-0.96295166,0.31463623,-0.875,1.71875,0.46875
1696193341374,0.10083008,-0.96661377,0.31072998,-0.359375,1.1875,0.03125
1696193341404,0.0949707,-0.975647,0.31781006,0.234375,1.71875,-0.09375
1696193341449,0.0949707,-0.97198486,0.3143921,-0.25,2.03125,-0.03125
1696193341494,0.09765625,-0.9768677,0.31365967,-0.421875,2.0625,-0.28125
1696193341523,0.103271484,-0.97247314,0.32318115,-0.109375,2.34375,0.078125
1696193341570,0.10229492,-0.9746704,0.32025146,-0.4375,2.1875,0.03125
1696193341613,0.099365234,-0.9751587,0.3168335,-0.484375,2.140625,0.359375
1696193341644,0.10205078,-0.973938,0.3192749,-0.109375,1.265625,0.25
1696193341688,0.099609375,-0.97198486,0.30999756,0.046875,0.34375,0.40625
1696193341733,0.092041016,-0.972229,0.30389404,-0.53125,0.484375,0.171875
1696193341763,0.10083008,-0.9758911,0.3012085,-0.71875,0.875,-0.046875
1696193341808,0.092041016,-0.9636841,0.31365967,-1.0625,-0.046875,-0.203125
1696193341854,0.10083008,-0.9812622,0.3139038,-0.3125,0.890625,-0.1875
1696193341883,0.095947266,-0.9746704,0.3287964,-1.5,-1.171875,-0.09375
1696193341928,0.099609375,-0.9751587,0.30804443,0.171875,-0.171875,0.015625
1696193341973,0.08911133,-0.9631958,0.30584717,-1.71875,1.453125,-0.546875
1696193342004,0.09106445,-0.96661377,0.32904053,-0.984375,1.015625,-0.140625
1696193342033,0.09716797,-0.96661377,0.3222046,-0.5,0.421875,0.109375
1696193342094,0.09033203,-0.96881104,0.322937,0.265625,0.96875,0.171875
1696193342126,0.09106445,-0.9685669,0.31536865,0.359375,0.40625,-0.390625
1696193342153,0.08666992,-0.97125244,0.31195068,-0.15625,0.546875,-0.25
1696193342213,0.088378906,-0.9729614,0.32122803,-0.484375,1.375,-0.328125
1696193342244,0.09350586,-0.9741821,0.3258667,-0.625,1.390625,-0.109375
1696193342273,0.09790039,-0.97198486,0.31976318,-0.578125,1.140625,-0.265625
1696193342335,0.099609375,-0.9751587,0.3234253,-0.3125,1.078125,-0.015625
1696193342349,0.09741211,-0.9702759,0.32147217,-0.109375,0.375,-0.078125
1696193342394,0.09082031,-0.96832275,0.32513428,-0.078125,-0.296875,-0.03125
1696193342454,0.092041016,-0.97320557,0.32537842,0.0625,0.40625,-0.140625
1696193342469,0.09741211,-0.9741821,0.32000732,-0.34375,0.109375,-0.03125
1696193342514,0.08496094,-0.97369385,0.31536865,-0.28125,0.703125,-0.4375
1696193342574,0.09448242,-0.972229,0.32269287,-0.328125,0.296875,-0.28125
1696193342588,0.09692383,-0.9795532,0.3270874,0.9375,0.28125,0.0
1696193342633,0.0847168,-0.97613525,0.31365967,-1.78125,-0.453125,-0.15625
1696193342694,0.09399414,-0.97662354,0.32366943,1.5625,-0.359375,-0.0625
1696193342708,0.09033203,-0.97491455,0.3131714,-0.078125,1.125,0.3125
1696193342753,0.083496094,-0.96832275,0.32196045,0.078125,0.3125,0.359375
1696193342784,0.083984375,-0.97247314,0.32025146,0.453125,-0.171875,0.328125
1696193342829,0.083984375,-0.97369385,0.32611084,0.9375,0.15625,0.5
1696193342874,0.083984375,-0.97198486,0.31292725,0.625,-0.078125,0.28125
1696193342904,0.088378906,-0.9714966,0.31121826,0.765625,0.28125,0.3125
1696193342949,0.091552734,-0.9727173,0.30877686,0.953125,0.015625,0.203125
1696193342994,0.095947266,-0.97247314,0.30975342,1.421875,0.109375,0.25
1696193343024,0.08227539,-0.9758911,0.31048584,0.84375,0.34375,0.15625
1696193343069,0.08496094,-0.9800415,0.309021,0.40625,0.1875,0.046875
1696193343113,0.07861328,-0.97442627,0.2975464,0.4375,0.59375,0.171875
1696193343144,0.09423828,-0.9758911,0.2970581,0.953125,0.390625,0.1875
1696193343190,0.08862305,-0.97442627,0.3012085,1.265625,-0.515625,0.03125
1696193343234,0.084472656,-0.98321533,0.29315186,0.328125,0.78125,0.15625
1696193343263,0.08959961,-0.98101807,0.2999878,0.421875,1.734375,0.234375
1696193343354,0.0859375,-0.9690552,0.30194092,-0.4375,0.515625,-0.5625
1696193343357,0.0703125,-0.98028564,0.29022217,0.6875,0.671875,-0.53125
1696193343383,0.08178711,-0.9819946,0.2970581,-1.296875,0.875,-0.453125
1696193343474,0.08886719,-0.97857666,0.29779053,0.390625,1.84375,-0.625
1696193343477,0.07421875,-0.98443604,0.28704834,-0.15625,2.421875,-0.171875
1696193343505,0.087402344,-0.97662354,0.3078003,0.734375,1.796875,-0.140625
1696193343535,0.09033203,-0.97491455,0.2994995,0.09375,0.921875,0.09375
1696193343593,0.084228516,-0.9829712,0.2987671,0.859375,0.796875,0.28125
1696193343624,0.09106445,-0.97320557,0.29779053,-0.125,0.3125,0.234375
1696193343653,0.08642578,-0.9849243,0.29071045,-0.09375,0.734375,0.34375
1696193343713,0.07861328,-0.97369385,0.28900146,-0.28125,0.78125,0.5625
1696193343729,0.08984375,-0.9841919,0.29656982,-0.21875,0.375,0.140625
1696193343774,0.080078125,-0.986145,0.29388428,-0.484375,0.390625,0.28125
1696193343834,0.08300781,-0.9800415,0.293396,-0.296875,0.453125,0.3125
1696193343849,0.08935547,-0.9795532,0.2897339,-0.609375,0.21875,0.09375
1696193343894,0.08325195,-0.975647,0.2897339,0.0,0.421875,0.109375
1696193343968,0.080322266,-0.9788208,0.2970581,-0.046875,0.875,0.0
1696193343971,0.08886719,-0.98394775,0.29730225,-0.875,0.65625,0.046875
1696193344014,0.08178711,-0.9783325,0.29510498,-0.4375,1.15625,-0.09375
1696193344044,0.08666992,-0.97784424,0.28851318,-0.984375,1.203125,0.0625
1696193344089,0.09472656,-0.9866333,0.28240967,-0.09375,0.890625,-0.09375
1696193344135,0.078125,-0.98028564,0.2994995,-1.765625,0.203125,0.203125
1696193344165,0.08129883,-0.9800415,0.3012085,-0.25,1.453125,0.046875
1696193344208,0.08203125,-0.975647,0.2946167,0.28125,1.1875,0.46875
1696193344254,0.088134766,-0.9776001,0.29779053,2.453125,0.8125,0.515625
1696193344284,0.08618164,-0.97125244,0.3024292,1.921875,1.609375,0.578125
1696193344329,0.08276367,-0.9776001,0.2850952,1.6875,0.1875,0.78125
1696193344374,0.0847168,-0.97735596,0.2850952,0.859375,-0.171875,0.671875
1696193344403,0.09033203,-0.986145,0.29119873,0.71875,0.984375,0.078125
1696193344448,0.08935547,-0.98443604,0.27703857,-0.125,1.28125,0.375
1696193344493,0.08154297,-0.973938,0.28460693,-0.875,1.125,-0.1875
1696193344523,0.08935547,-0.98394775,0.29559326,-1.75,1.375,-0.140625
1696193344568,0.08666992,-0.9824829,0.28826904,-1.171875,1.15625,-0.09375
1696193344614,0.08666992,-0.97906494,0.28460693,-0.640625,1.21875,-0.046875
1696193344643,0.087890625,-0.9819946,0.28533936,-0.359375,1.203125,0.125
1696193344674,0.092041016,-0.9788208,0.28997803,-1.125,1.625,-0.078125
1696193344733,0.07739258,-0.97613525,0.28485107,-0.859375,0.546875,-0.015625
1696193344764,0.087646484,-0.9824829,0.2904663,-0.0625,0.75,-0.03125
1696193344793,0.088134766,-0.97491455,0.30047607,-0.34375,1.140625,0.015625
1696193344853,0.08862305,-0.9780884,0.27752686,-1.328125,0.34375,-0.140625
1696193344884,0.0847168,-0.97198486,0.29388428,-1.453125,-0.03125,0.0
1696193344914,0.0847168,-0.9741821,0.29119873,-0.453125,1.125,0.1875
1696193344974,0.0793457,-0.9800415,0.2897339,-0.546875,1.015625,0.328125
1696193344988,0.08959961,-0.9829712,0.29193115,-0.203125,0.375,0.140625
1696193345034,0.08642578,-0.98101807,0.29193115,0.296875,0.28125,0.375
1696193345093,0.084228516,-0.9834595,0.29144287,0.421875,0.53125,0.359375
1696193345108,0.08618164,-0.9793091,0.2855835,-0.84375,1.03125,0.234375
1696193345154,0.088378906,-0.97735596,0.29193115,-1.703125,1.484375,0.296875
1696193345213,0.08666992,-0.9817505,0.2970581,-0.703125,1.140625,0.125
1696193345229,0.09472656,-0.9812622,0.29241943,-0.65625,1.015625,0.265625
1696193345274,0.09008789,-0.9780884,0.29364014,-1.453125,0.5,0.21875
1696193345306,0.08544922,-0.9788208,0.29241943,-0.59375,0.40625,0.28125
1696193345348,0.0859375,-0.9763794,0.293396,-0.609375,1.03125,0.390625
1696193345395,0.09277344,-0.9771118,0.3007202,-1.4375,0.421875,0.28125
1696193345423,0.08886719,-0.97320557,0.29119873,-1.890625,0.453125,0.390625
1696193345467,0.0871582,-0.97906494,0.29632568,0.078125,0.921875,0.171875
1696193345514,0.095458984,-0.972229,0.30877686,0.890625,1.421875,-0.0625
1696193345544,0.09106445,-0.97369385,0.28753662,-2.03125,0.28125,-0.09375
1696193345588,0.07910156,-0.97735596,0.31170654,0.53125,0.53125,-0.046875
1696193345634,0.09350586,-0.97052,0.291687,-0.1875,1.4375,0.09375
1696193345664,0.0793457,-0.9788208,0.29852295,-0.625,1.734375,0.015625
1696193345709,0.099121094,-0.9817505,0.2982788,0.125,1.109375,0.296875
1696193345753,0.09350586,-0.97320557,0.30413818,0.484375,1.5625,0.53125
1696193345784,0.080566406,-0.9714966,0.2994995,0.3125,-0.140625,0.625
1696193345829,0.08203125,-0.9780884,0.29779053,0.3125,0.59375,0.4375
1696193345874,0.088134766,-0.9734497,0.29534912,-0.421875,2.0,0.4375
1696193345903,0.10449219,-0.9717407,0.29486084,-0.703125,1.34375,0.359375
1696193345934,0.10107422,-0.97442627,0.29510498,-1.921875,1.125,-0.140625
1696193345994,0.079833984,-0.9729614,0.30999756,-0.375,1.640625,0.203125
1696193346023,0.095703125,-0.97491455,0.3048706,-0.0625,1.34375,0.140625
1696193346054,0.09472656,-0.975647,0.29315186,-0.359375,0.8125,0.1875
1696193346114,0.091552734,-0.9763794,0.29730225,-0.921875,1.40625,0.28125
1696193346144,0.09814453,-0.9788208,0.3036499,-0.25,0.921875,0.203125
1696193346173,0.09057617,-0.9729614,0.31048584,1.3125,1.71875,0.390625
1696193346233,0.09790039,-0.972229,0.28753662,-2.078125,0.9375,0.15625
1696193346249,0.08154297,-0.98321533,0.31170654,0.078125,0.8125,-0.03125
1696193346293,0.09765625,-0.97052,0.2904663,-0.234375,2.078125,0.09375
1696193346353,0.08959961,-0.9776001,0.29608154,-0.796875,1.3125,-0.046875
1696193346368,0.09643555,-0.98101807,0.29779053,-0.03125,0.875,0.078125
1696193346414,0.104003906,-0.97052,0.2892456,0.46875,0.90625,0.171875
1696193346473,0.09375,-0.9763794,0.29632568,0.53125,0.15625,0.09375
1696193346489,0.10229492,-0.97662354,0.29364014,0.28125,0.40625,0.15625
1696193346534,0.095458984,-0.97662354,0.29681396,-0.328125,1.078125,-0.125
1696193346564,0.0871582,-0.97784424,0.30096436,-0.359375,1.609375,-0.015625
1696193346608,0.08984375,-0.97857666,0.29266357,0.140625,1.09375,-0.09375
1696193346654,0.08691406,-0.97735596,0.2994995,-0.28125,1.875,0.0625
1696193346685,0.09008789,-0.9795532,0.29412842,-0.84375,1.75,0.171875
1696193346729,0.095458984,-0.9763794,0.28875732,-1.28125,1.03125,-0.046875
1696193346775,0.099609375,-0.9805298,0.29559326,-0.484375,0.59375,0.21875
1696193346804,0.095703125,-0.97491455,0.3060913,-0.59375,1.1875,0.0625
1696193346848,0.10571289,-0.9834595,0.27313232,-1.140625,1.234375,0.390625
1696193346894,0.08984375,-0.97540283,0.3126831,-0.265625,-0.59375,0.203125
1696193346923,0.095947266,-0.9788208,0.2838745,-0.15625,1.203125,0.171875
1696193346968,0.08154297,-0.9873657,0.29144287,-0.953125,1.390625,-0.359375
1696193347014,0.09472656,-0.9805298,0.2897339,-0.234375,0.9375,-0.09375
1696193347044,0.09863281,-0.9817505,0.3012085,-0.015625,1.171875,-0.171875
1696193347089,0.09350586,-0.9768677,0.30511475,0.0625,0.96875,-0.140625
1696193347134,0.099609375,-0.9795532,0.29412842,-0.34375,0.421875,-0.09375
1696193347164,0.0949707,-0.97198486,0.29364014,-0.375,0.1875,-0.1875
1696193347209,0.09106445,-0.9807739,0.2975464,-0.671875,0.5625,0.0625
1696193347254,0.088378906,-0.9741821,0.2921753,-0.75,0.3125,0.171875
1696193347284,0.09082031,-0.98150635,0.29779053,-0.296875,-0.125,-0.015625
1696193347313,0.09301758,-0.973938,0.2975464,0.890625,-0.125,0.21875
1696193347374,0.09448242,-0.9763794,0.29144287,-0.171875,0.078125,0.109375
1696193347404,0.092285156,-0.97979736,0.2892456,-0.453125,0.671875,-0.09375
1696193347433,0.088378906,-0.96759033,0.30755615,0.03125,0.734375,-0.234375
1696193347494,0.09277344,-0.9783325,0.2904663,0.25,0.296875,-0.140625
1696193347523,0.08984375,-0.97198486,0.29632568,-2.015625,0.125,0.0
1696193347554,0.09765625,-0.9771118,0.2994995,0.875,0.6875,-0.15625
1696193347613,0.08178711,-0.98028564,0.29266357,-0.8125,0.953125,0.4375
1696193347629,0.091308594,-0.9746704,0.30218506,-0.328125,1.015625,0.140625
1696193347673,0.08911133,-0.97442627,0.30413818,0.921875,0.890625,0.5
1696193347734,0.09838867,-0.9741821,0.29388428,0.515625,0.4375,0.6875
1696193347749,0.08129883,-0.9771118,0.29437256,-0.75,0.109375,0.4375
1696193347793,0.09106445,-0.9805298,0.29632568,-0.203125,1.359375,0.34375
1696193347854,0.091796875,-0.97784424,0.29730225,-0.296875,1.28125,0.09375
1696193347868,0.087646484,-0.98028564,0.29022217,0.015625,1.171875,0.25
1696193347913,0.09790039,-0.9800415,0.291687,-0.25,1.03125,0.203125
1696193347944,0.09741211,-0.972229,0.2892456,-0.21875,1.15625,0.125
1696193347989,0.088134766,-0.97784424,0.28948975,0.21875,0.65625,0.421875
1696193348034,0.091796875,-0.9729614,0.2929077,-0.390625,-0.078125,0.421875
1696193348062,0.091552734,-0.9776001,0.29071045,-0.171875,-0.5,0.125
1696193348109,0.091796875,-0.9849243,0.2850952,-0.5625,-0.125,0.171875
1696193348154,0.09082031,-0.98931885,0.3007202,0.546875,1.265625,0.09375
1696193348183,0.087890625,-0.97613525,0.27508545,-1.125,-0.296875,-0.015625
1696193348229,0.08154297,-0.9717407,0.29559326,0.84375,0.265625,-0.09375
1696193348274,0.09790039,-0.99005127,0.2789917,-1.09375,1.640625,-0.25
1696193348303,0.08081055,-0.9819946,0.29852295,-0.171875,1.359375,0.046875
1696193348349,0.09716797,-0.9829712,0.28900146,0.234375,0.203125,-0.0625
1696193348408,0.08544922,-0.9834595,0.29119873,1.484375,0.96875,0.15625
1696193348423,0.09301758,-0.9751587,0.28411865,-0.125,0.921875,0.0
1696193348469,0.092041016,-0.9829712,0.28631592,0.671875,0.671875,-0.03125
1696193348515,0.092041016,-0.973938,0.2819214,0.234375,1.640625,0.0
1696193348543,0.0949707,-0.9780884,0.28704834,0.0625,1.40625,-0.0625
1696193348574,0.091308594,-0.97540283,0.2868042,-0.125,0.890625,-0.03125
1696193348634,0.08911133,-0.9758911,0.28094482,0.0625,1.109375,-0.171875
1696193348663,0.08666992,-0.9793091,0.2868042,-0.34375,1.265625,0.0
1696193348695,0.096191406,-0.9805298,0.27825928,-0.53125,1.0,0.109375
1696193348754,0.09716797,-0.9758911,0.28704834,-0.640625,1.046875,0.265625
1696193348783,0.0859375,-0.9807739,0.2892456,-1.203125,1.015625,0.109375
1696193348815,0.08496094,-0.9898071,0.29534912,-0.5625,1.046875,0.484375
1696193348874,0.09301758,-0.972229,0.26898193,-0.390625,0.171875,0.65625
1696193348889,0.095214844,-0.9783325,0.2855835,0.234375,1.71875,0.25
1696193348933,0.09790039,-0.97491455,0.29779053,0.390625,1.453125,0.40625
1696193348994,0.09814453,-0.973938,0.2753296,-0.671875,0.171875,0.234375
1696193349009,0.08154297,-0.9741821,0.28656006,-1.015625,-0.25,0.171875
1696193349054,0.10107422,-0.98443604,0.29022217,-0.328125,1.484375,0.015625
1696193349114,0.0859375,-0.97662354,0.28607178,-0.78125,1.125,0.15625
1696193349129,0.09472656,-0.98809814,0.27972412,-0.578125,0.375,-0.0625
1696193349174,0.092285156,-0.98150635,0.2946167,0.53125,1.640625,0.40625
1696193349204,0.09863281,-0.9783325,0.2897339,0.015625,0.5625,0.09375
1696193349249,0.080566406,-0.9800415,0.2819214,-0.671875,0.515625,-0.078125
1696193349294,0.099121094,-0.9795532,0.28997803,-0.625,1.484375,0.265625
1696193349324,0.09106445,-0.9837036,0.28167725,-0.171875,1.296875,0.3125
1696193349369,0.0949707,-0.97906494,0.28656006,-0.140625,0.9375,0.1875
1696193349413,0.09057617,-0.98565674,0.2838745,-0.390625,0.984375,0.171875
1696193349444,0.09082031,-0.97442627,0.28900146,-0.890625,0.890625,0.0625
1696193349488,0.08886719,-0.98443604,0.2831421,-0.359375,0.71875,0.0625
1696193349534,0.0949707,-0.9780884,0.28582764,-0.546875,1.046875,0.09375
1696193349564,0.088134766,-0.9795532,0.2831421,-0.5625,0.9375,0.015625
1696193349608,0.09277344,-0.9788208,0.28607178,-0.234375,1.03125,0.0625
1696193349653,0.087646484,-0.98101807,0.293396,-1.140625,0.375,0.015625
1696193349683,0.0859375,-0.9780884,0.2897339,-0.4375,1.609375,0.078125
1696193349729,0.1027832,-0.9702759,0.29266357,-1.234375,1.53125,0.203125
1696193349774,0.09765625,-0.98516846,0.28582764,-0.015625,0.703125,0.109375
1696193349804,0.08935547,-0.97540283,0.2838745,-0.875,0.328125,0.03125
1696193349834,0.09008789,-0.98101807,0.2880249,0.234375,1.5,-0.109375
1696193349894,0.092041016,-0.9771118,0.27801514,-0.984375,1.703125,0.71875
1696193349925,0.09838867,-0.97857666,0.2982788,-0.1875,1.0,0.296875
1696193349953,0.095458984,-0.97540283,0.29437256,-0.140625,1.140625,0.46875
1696193350013,0.09790039,-0.97540283,0.2843628,0.453125,1.296875,0.3125
1696193350043,0.09350586,-0.986145,0.28460693,-0.421875,0.453125,0.1875
1696193350073,0.09716797,-0.97735596,0.2855835,-0.1875,1.34375,0.25
1696193350134,0.095214844,-0.9805298,0.27801514,-0.90625,1.21875,0.21875
1696193350149,0.1027832,-0.9776001,0.28753662,-1.3125,1.171875,0.171875
1696193350194,0.096191406,-0.9817505,0.28607178,-1.296875,0.671875,0.078125
1696193350254,0.09082031,-0.98101807,0.28411865,-0.125,0.515625,0.546875
1696193350268,0.095703125,-0.97491455,0.2897339,-0.703125,0.703125,0.28125
1696193350313,0.09643555,-0.97784424,0.28045654,-0.625,0.421875,0.515625
1696193350374,0.095703125,-0.973938,0.29656982,-0.890625,0.59375,0.28125
1696193350389,0.10449219,-0.9846802,0.2904663,-0.359375,0.671875,0.484375
1696193350433,0.103271484,-0.97442627,0.2831421,-0.421875,0.484375,0.578125
1696193350464,0.09692383,-0.98223877,0.2897339,-0.71875,1.21875,-0.171875
1696193350508,0.09399414,-0.9746704,0.30023193,-0.6875,1.75,-0.078125
1696193350553,0.10522461,-0.9807739,0.2748413,-1.203125,1.328125,-0.046875
1696193350583,0.103027344,-0.9780884,0.309021,-0.828125,0.875,-0.15625
1696193350629,0.10864258,-0.9727173,0.28729248,-1.203125,1.9375,0.484375
1696193350674,0.09790039,-0.9812622,0.29241943,-1.90625,1.375,0.375
1696193350703,0.104003906,-0.98150635,0.3060913,0.15625,0.875,0.90625
1696193350748,0.10229492,-0.9768677,0.29364014,0.15625,1.125,0.96875
1696193350792,0.11035156,-0.97540283,0.2958374,-0.203125,0.375,0.71875
1696193350822,0.09863281,-0.97247314,0.28948975,0.109375,-0.078125,0.515625
