,timestamp,accel_x,accel_y,accel_z,gyro_x,gyro_y,gyro_z,mag_x,mag_y,mag_z,ind
0,1695833451261,-0.4716797,0.044921875,0.32128906,25.1875,-18.3125,14.25,0.0,0.0,0.0,0
1,1695833451301,-0.67871094,-0.029296875,0.20800781,-26.5625,-11.8125,15.96875,0.0,0.0,0.0,1
2,1695833451341,-1.2568359,0.17578125,0.064453125,19.8125,-76.0625,4.25,0.0,0.0,0.0,2
3,1695833451381,-1.5009766,0.6533203,0.3232422,-45.4375,-124.90625,-23.96875,0.0,0.0,0.0,3
4,1695833451421,-1.4677734,1.0742188,0.42382812,13.96875,-170.375,-14.75,-71.875,13.5625,-104.3125,4
5,1695833451461,-1.1025391,0.6435547,0.6113281,2.5,-164.03125,14.78125,0.0,0.0,0.0,5
6,1695833451501,-0.9326172,0.18945312,0.7421875,-38.46875,-104.6875,2.65625,0.0,0.0,0.0,6
7,1695833451541,-0.6347656,0.119140625,0.59765625,-22.0,-37.25,13.40625,0.0,0.0,0.0,7
8,1695833451581,-0.38671875,0.06738281,0.46289062,7.5,8.03125,-6.5,0.0,0.0,0.0,8
9,1695833451621,-0.21679688,0.12695312,0.46679688,27.25,82.1875,3.875,0.0,0.0,0.0,9
10,1695833451661,-0.25976562,0.046875,0.35058594,24.75,80.0,11.75,0.0,0.0,0.0,10
11,1695833451701,-0.18554688,0.09667969,0.5214844,-2.53125,66.375,-44.84375,0.0,0.0,0.0,11
12,1695833451741,-0.8720703,0.19628906,0.43652344,-0.125,257.71875,-16.8125,0.0,0.0,0.0,12
13,1695833451781,-0.8701172,0.2890625,0.0703125,-49.5625,97.28125,-13.90625,0.0,0.0,0.0,13
14,1695833451821,-0.63378906,0.6123047,0.8984375,-16.9375,-8.5625,1.375,0.0,0.0,0.0,14
15,1695833451861,-1.328125,0.57421875,-0.3232422,-60.4375,40.8125,34.21875,0.0,0.0,0.0,15
16,1695833451901,-1.7929688,0.45214844,0.5048828,-3.125,-55.125,18.59375,0.0,0.0,0.0,16
17,1695833451941,-1.4365234,-0.18066406,0.09375,-22.53125,-24.0625,2.53125,-72.125,13.8125,-106.375,17
18,1695833451981,-0.65722656,-0.0029296875,0.53125,28.84375,-24.90625,-18.34375,0.0,0.0,0.0,18
19,1695833452021,-1.0546875,0.10839844,0.2548828,-21.9375,31.21875,-11.75,0.0,0.0,0.0,19
20,1695833452061,-1.0458984,0.23925781,0.23339844,45.03125,46.96875,0.75,0.0,0.0,0.0,20
21,1695833452101,-0.77734375,0.18554688,0.27539062,17.3125,31.125,9.5,0.0,0.0,0.0,21
22,1695833452141,-0.60253906,0.24121094,0.21679688,6.09375,39.90625,16.75,0.0,0.0,0.0,22
23,1695833452181,-0.6669922,0.09863281,0.30078125,-3.375,28.78125,15.96875,0.0,0.0,0.0,23
24,1695833452221,-0.7236328,0.09863281,0.26171875,-19.1875,14.875,15.78125,0.0,0.0,0.0,24
25,1695833452261,-0.6845703,-0.22070312,0.15820312,2.25,12.375,3.75,0.0,0.0,0.0,25
26,1695833452301,-0.63183594,-0.018554688,0.1484375,-9.28125,-1.40625,4.78125,0.0,0.0,0.0,26
27,1695833452341,-0.6748047,-0.056640625,0.2265625,11.21875,-24.90625,1.625,0.0,0.0,0.0,27
28,1695833452381,-0.9716797,0.09472656,0.030273438,-0.25,-48.53125,5.46875,0.0,0.0,0.0,28
29,1695833452421,-1.5224609,0.5449219,0.20996094,-12.40625,-115.625,-18.96875,-72.875,16.6875,-111.5,29
30,1695833452461,-1.3837891,0.6464844,0.18945312,27.625,-160.40625,-24.8125,0.0,0.0,0.0,30
31,1695833452501,-1.0830078,0.70996094,0.7216797,-25.65625,-171.84375,3.0,0.0,0.0,0.0,31
32,1695833452541,-1.0253906,0.37695312,0.52441406,25.875,-90.15625,2.84375,0.0,0.0,0.0,32
33,1695833452581,-0.66015625,0.040039062,0.63671875,1.75,-69.96875,-6.1875,0.0,0.0,0.0,33
34,1695833452621,-0.58496094,0.25878906,0.5810547,-1.0625,14.25,1.71875,0.0,0.0,0.0,34
35,1695833452661,-0.4375,0.18066406,0.546875,19.28125,76.09375,7.40625,0.0,0.0,0.0,35
36,1695833452701,-0.3876953,0.095703125,0.36523438,-0.09375,74.25,-5.21875,0.0,0.0,0.0,36
37,1695833452741,-0.3232422,0.087890625,0.359375,5.59375,69.6875,-31.78125,0.0,0.0,0.0,37
38,1695833452781,-0.7285156,0.16113281,0.4140625,-11.4375,178.15625,-28.40625,0.0,0.0,0.0,38
39,1695833452821,-0.9277344,0.34375,0.11035156,-9.59375,76.34375,-2.46875,0.0,0.0,0.0,39
40,1695833452861,-0.6191406,0.42382812,0.7216797,3.71875,-2.28125,1.625,0.0,0.0,0.0,40
41,1695833452901,-0.7578125,0.2626953,0.041992188,-94.5625,51.75,8.25,0.0,0.0,0.0,41
42,1695833452941,-1.1982422,0.484375,-0.033203125,29.21875,11.28125,26.625,-75.875,15.1875,-113.125,42
43,1695833452981,-1.7949219,0.29492188,0.23046875,-48.0625,-25.84375,19.6875,0.0,0.0,0.0,43
44,1695833453021,-1.5439453,-0.2626953,0.5986328,-19.78125,-34.8125,-0.78125,0.0,0.0,0.0,44
45,1695833453061,-0.96875,0.076171875,0.27929688,-39.25,7.5,-23.46875,0.0,0.0,0.0,45
46,1695833453101,-0.88183594,0.41601562,0.3251953,48.375,33.375,-6.1875,0.0,0.0,0.0,46
47,1695833453141,-1.0117188,0.12890625,0.24121094,37.28125,44.28125,14.125,0.0,0.0,0.0,47
48,1695833453181,-0.80078125,0.3017578,0.34277344,-10.40625,39.84375,13.5625,0.0,0.0,0.0,48
49,1695833453221,-0.7089844,0.20019531,0.15136719,-1.0,46.3125,14.5625,0.0,0.0,0.0,49
50,1695833453261,-0.6699219,0.049804688,0.29882812,5.78125,31.34375,13.625,0.0,0.0,0.0,50
51,1695833453301,-0.66796875,0.026367188,0.32617188,-24.96875,23.3125,8.75,0.0,0.0,0.0,51
52,1695833453341,-0.609375,-0.1640625,0.083984375,4.4375,11.28125,-0.03125,0.0,0.0,0.0,52
53,1695833453381,-0.5654297,-0.009765625,0.26464844,17.875,-7.21875,-3.15625,0.0,0.0,0.0,53
54,1695833453421,-0.64453125,0.032226562,0.12011719,19.8125,-26.9375,6.875,-74.875,14.75,-119.3125,54
55,1695833453461,-0.7363281,0.18066406,0.12792969,-4.59375,-46.65625,8.8125,0.0,0.0,0.0,55
56,1695833453501,-1.5957031,0.47460938,0.24023438,-31.21875,-105.125,4.65625,0.0,0.0,0.0,56
57,1695833453541,-1.4140625,0.34765625,0.12011719,20.84375,-173.71875,-16.8125,0.0,0.0,0.0,57
58,1695833453581,-1.4882812,0.8408203,0.9472656,-3.75,-242.375,9.125,0.0,0.0,0.0,58
59,1695833453621,-1.0810547,0.41601562,0.6201172,0.59375,-103.34375,11.75,0.0,0.0,0.0,59
60,1695833453661,-0.7294922,0.12890625,0.62890625,-19.0,-95.46875,20.59375,0.0,0.0,0.0,60
61,1695833453701,-0.5488281,0.171875,0.56347656,-14.0,-22.96875,0.5,0.0,0.0,0.0,61
62,1695833453741,-0.37695312,0.19921875,0.5332031,27.4375,60.90625,6.25,0.0,0.0,0.0,62
63,1695833453781,-0.24511719,0.10449219,0.42773438,18.53125,105.375,9.1875,0.0,0.0,0.0,63
64,1695833453821,-0.15625,0.087890625,0.3388672,1.3125,94.90625,-29.34375,0.0,0.0,0.0,64
65,1695833453861,-0.45898438,0.15527344,0.4267578,-12.09375,166.5625,-38.5,0.0,0.0,0.0,65
66,1695833453901,-1.0205078,0.37695312,0.10449219,33.3125,213.4375,13.03125,0.0,0.0,0.0,66
67,1695833453941,-0.59765625,0.50390625,0.6152344,-32.78125,-17.46875,-7.65625,-77.375,14.75,-111.625,67
68,1695833453981,-0.76171875,0.27441406,0.33007812,-64.71875,3.53125,0.8125,0.0,0.0,0.0,68
69,1695833454021,-1.4814453,0.35546875,-0.38671875,6.09375,4.875,1.125,0.0,0.0,0.0,69
70,1695833454061,-1.3544922,0.27441406,0.3232422,-26.5,-26.875,-5.28125,0.0,0.0,0.0,70
71,1695833454101,-1.4023438,-0.2861328,0.47753906,-14.90625,-9.1875,-17.90625,0.0,0.0,0.0,71
72,1695833454141,-0.8623047,0.08105469,0.3095703,-11.25,-2.40625,-18.15625,0.0,0.0,0.0,72
73,1695833454181,-1.0800781,0.1875,0.3642578,62.71875,23.34375,-10.0,0.0,0.0,0.0,73
74,1695833454221,-1.0771484,0.15820312,0.31152344,34.90625,48.03125,-0.65625,0.0,0.0,0.0,74
75,1695833454261,-0.8125,0.296875,0.21972656,14.8125,33.125,7.96875,0.0,0.0,0.0,75
76,1695833454301,-0.66015625,0.15234375,0.17578125,31.53125,41.25,13.34375,0.0,0.0,0.0,76
77,1695833454341,-0.65625,0.109375,0.31347656,10.71875,34.96875,13.15625,0.0,0.0,0.0,77
78,1695833454381,-0.57421875,0.01171875,0.21484375,-11.96875,18.15625,12.0,0.0,0.0,0.0,78
79,1695833454421,-0.5419922,-0.14746094,0.16699219,7.90625,8.09375,6.0,-74.125,14.4375,-112.6875,79
80,1695833454461,-0.42871094,-0.12011719,0.07519531,30.5,-8.1875,2.53125,0.0,0.0,0.0,80
81,1695833454501,-0.6123047,0.11621094,0.16894531,11.59375,-37.6875,1.71875,0.0,0.0,0.0,81
82,1695833454541,-1.3935547,0.29296875,0.18457031,-5.8125,-110.625,-1.1875,0.0,0.0,0.0,82
83,1695833454581,-1.6240234,0.5283203,0.21289062,-5.6875,-156.375,-26.34375,0.0,0.0,0.0,83
84,1695833454621,-1.3505859,0.9785156,0.5888672,-28.875,-231.40625,14.625,0.0,0.0,0.0,84
85,1695833454661,-0.83496094,0.5703125,0.8232422,70.59375,-151.375,1.375,0.0,0.0,0.0,85
86,1695833454701,-0.7988281,0.016601562,0.6425781,-66.5,-98.90625,-2.28125,0.0,0.0,0.0,86
87,1695833454741,-0.65722656,0.13085938,0.6044922,-27.53125,-0.625,2.40625,0.0,0.0,0.0,87
88,1695833454781,-0.5283203,0.13769531,0.65234375,24.875,60.09375,-2.78125,0.0,0.0,0.0,88
89,1695833454821,-0.39746094,0.078125,0.515625,43.0,87.1875,7.78125,0.0,0.0,0.0,89
90,1695833454861,-0.3330078,0.037109375,0.38378906,44.125,64.0625,-9.8125,0.0,0.0,0.0,90
91,1695833454901,-0.35253906,0.037109375,0.3046875,8.90625,145.0,-62.59375,0.0,0.0,0.0,91
92,1695833454941,-0.87109375,0.4111328,0.21679688,-27.96875,213.25,-0.90625,-76.625,14.4375,-103.6875,92
93,1695833454981,-0.7080078,0.44921875,0.390625,-20.59375,-14.71875,-15.40625,0.0,0.0,0.0,93
94,1695833455021,-0.8808594,0.55371094,0.40527344,-26.3125,-4.03125,13.8125,0.0,0.0,0.0,94
95,1695833455061,-1.3242188,0.45996094,-0.17285156,-36.46875,-24.84375,21.9375,0.0,0.0,0.0,95
96,1695833455101,-1.9082031,-0.34179688,0.25878906,-24.5,-71.3125,-0.09375,0.0,0.0,0.0,96
97,1695833455141,-0.83984375,-0.060546875,0.34375,-34.4375,-19.1875,-14.1875,0.0,0.0,0.0,97
98,1695833455181,-1.1279297,0.025390625,0.4638672,24.59375,-53.59375,-15.59375,0.0,0.0,0.0,98
99,1695833455221,-1.0986328,0.3857422,0.22753906,-6.65625,64.75,6.1875,0.0,0.0,0.0,99
100,1695833455261,-0.9267578,0.1015625,0.31640625,50.59375,38.4375,5.34375,0.0,0.0,0.0,100
101,1695833455301,-0.7236328,0.19726562,0.2421875,0.46875,60.53125,0.21875,0.0,0.0,0.0,101
102,1695833455341,-0.7548828,0.18359375,0.19238281,3.875,49.0625,13.15625,0.0,0.0,0.0,102
103,1695833455381,-0.7207031,0.107421875,0.4267578,9.375,45.9375,11.0625,0.0,0.0,0.0,103
104,1695833455421,-0.61328125,0.057617188,0.21484375,-20.34375,15.1875,20.53125,-75.0,15.625,-111.8125,104
105,1695833455461,-0.63671875,-0.12695312,0.2578125,7.84375,1.15625,15.21875,0.0,0.0,0.0,105
106,1695833455501,-0.63378906,-0.06738281,0.20800781,-5.875,0.28125,3.125,0.0,0.0,0.0,106
107,1695833455541,-0.734375,-0.0029296875,0.25878906,12.5,-17.34375,0.34375,0.0,0.0,0.0,107
108,1695833455581,-0.95703125,0.11621094,0.08691406,11.34375,-27.65625,0.03125,0.0,0.0,0.0,108
109,1695833455621,-1.4960938,0.4814453,0.103515625,10.0,-59.65625,-25.5,0.0,0.0,0.0,109
110,1695833455661,-1.3535156,0.6513672,0.22363281,42.71875,-132.34375,-15.40625,0.0,0.0,0.0,110
111,1695833455701,-1.1796875,0.6796875,0.6220703,-18.21875,-159.8125,7.53125,0.0,0.0,0.0,111
112,1695833455741,-0.87597656,0.57421875,0.52441406,12.625,-98.46875,31.6875,0.0,0.0,0.0,112
113,1695833455781,-0.9814453,0.14746094,0.5097656,-33.9375,-118.96875,7.28125,0.0,0.0,0.0,113
114,1695833455821,-0.6796875,0.12695312,0.5292969,-11.96875,-29.4375,13.6875,0.0,0.0,0.0,114
115,1695833455861,-0.37597656,0.16601562,0.40527344,11.875,30.625,7.59375,0.0,0.0,0.0,115
116,1695833455901,-0.390625,0.28222656,0.45507812,15.53125,70.40625,13.4375,0.0,0.0,0.0,116
117,1695833455941,-0.24609375,0.119140625,0.3642578,-10.6875,84.5625,-1.8125,-75.875,19.0625,-96.5,117
118,1695833455981,-0.36132812,0.09277344,0.48828125,-38.78125,91.78125,-30.8125,0.0,0.0,0.0,118
119,1695833456021,-1.0654297,0.20410156,0.2578125,-6.90625,166.71875,1.3125,0.0,0.0,0.0,119
120,1695833456061,-0.6455078,0.3408203,0.4716797,6.03125,31.96875,-20.59375,0.0,0.0,0.0,120
121,1695833456101,-0.56640625,0.17382812,0.42773438,-17.09375,21.59375,-1.875,0.0,0.0,0.0,121
122,1695833456141,-1.1035156,0.5878906,0.19726562,-66.3125,11.21875,19.0,0.0,0.0,0.0,122
123,1695833456181,-1.6787109,0.09082031,-0.23925781,-24.0625,7.125,-0.65625,0.0,0.0,0.0,123
124,1695833456221,-1.2978516,0.23144531,0.35742188,-5.28125,-13.4375,-9.0,0.0,0.0,0.0,124
125,1695833456261,-1.234375,-0.06542969,0.42382812,-17.59375,-11.75,-12.625,0.0,0.0,0.0,125
126,1695833456301,-0.9580078,0.24511719,0.091796875,-22.1875,-3.3125,5.21875,0.0,0.0,0.0,126
127,1695833456341,-1.0869141,0.09667969,0.4609375,93.125,25.1875,1.25,0.0,0.0,0.0,127
128,1695833456381,-0.984375,0.3232422,0.265625,-6.5,57.0625,6.75,0.0,0.0,0.0,128
129,1695833456421,-0.78515625,0.14941406,0.15234375,6.5,36.40625,9.96875,-74.125,15.5,-107.875,129
130,1695833456461,-0.63964844,0.12109375,0.31933594,18.59375,29.21875,11.6875,0.0,0.0,0.0,130
131,1695833456501,-0.66015625,0.15136719,0.38867188,-9.21875,30.3125,11.9375,0.0,0.0,0.0,131
132,1695833456541,-0.65234375,-0.08300781,0.21972656,4.125,7.375,10.8125,0.0,0.0,0.0,132
133,1695833456581,-0.609375,-0.12402344,0.24902344,8.09375,4.875,3.6875,0.0,0.0,0.0,133
134,1695833456621,-0.7451172,-0.04296875,0.26757812,16.03125,-13.1875,5.15625,0.0,0.0,0.0,134
135,1695833456661,-0.8232422,-0.022460938,0.001953125,44.65625,-20.59375,4.0625,0.0,0.0,0.0,135
136,1695833456701,-1.3349609,0.46289062,0.22558594,40.8125,-67.9375,-7.375,0.0,0.0,0.0,136
137,1695833456741,-1.4882812,0.62597656,0.11425781,7.25,-132.21875,-22.5,0.0,0.0,0.0,137
138,1695833456781,-1.2451172,0.87402344,0.60058594,-1.84375,-172.75,-9.5625,0.0,0.0,0.0,138
139,1695833456821,-0.9248047,0.50097656,0.5029297,-14.40625,-111.84375,29.125,0.0,0.0,0.0,139
140,1695833456861,-1.0742188,0.13867188,0.5419922,-40.59375,-150.65625,-2.40625,0.0,0.0,0.0,140
141,1695833456901,-0.6748047,0.14550781,0.6699219,-12.21875,-49.9375,0.5625,0.0,0.0,0.0,141
142,1695833456941,-0.4501953,0.10546875,0.5,17.0625,17.0,-5.34375,-74.5625,17.0,-89.125,142
143,1695833456981,-0.3076172,0.109375,0.36816406,36.46875,67.0625,6.1875,0.0,0.0,0.0,143
144,1695833457021,-0.25976562,0.11230469,0.41992188,16.03125,48.03125,3.5,0.0,0.0,0.0,144
145,1695833457061,-0.21289062,0.16699219,0.50097656,-16.9375,85.25,-29.53125,0.0,0.0,0.0,145
146,1695833457101,-0.9863281,0.1328125,0.45996094,14.5,208.0,-22.1875,0.0,0.0,0.0,146
147,1695833457141,-0.8642578,0.296875,0.20214844,-36.03125,47.71875,-30.5625,0.0,0.0,0.0,147
148,1695833457181,-0.6484375,0.5498047,0.6533203,10.59375,24.6875,-17.4375,0.0,0.0,0.0,148
149,1695833457221,-0.7451172,0.49804688,0.26953125,-60.0,46.75,2.53125,0.0,0.0,0.0,149
150,1695833457261,-1.3720703,0.23144531,-0.27246094,-3.125,13.46875,14.78125,0.0,0.0,0.0,150
151,1695833457301,-1.3447266,0.17675781,0.36523438,-15.46875,-26.75,9.71875,0.0,0.0,0.0,151
152,1695833457341,-1.6005859,-0.10839844,0.34375,-19.375,3.46875,0.28125,0.0,0.0,0.0,152
153,1695833457381,-0.96972656,0.13964844,0.16894531,-16.5625,-6.5625,-10.34375,0.0,0.0,0.0,153
154,1695833457421,-0.984375,0.15917969,0.33007812,34.34375,11.8125,-10.53125,-74.875,17.0,-103.375,154
155,1695833457461,-0.92578125,0.18164062,0.24804688,6.9375,42.84375,4.0,0.0,0.0,0.0,155
156,1695833457501,-0.9316406,0.20214844,0.25976562,7.25,30.5,10.46875,0.0,0.0,0.0,156
157,1695833457541,-0.6875,0.16894531,0.21875,1.5625,30.0,9.25,0.0,0.0,0.0,157
158,1695833457581,-0.72753906,0.060546875,0.24121094,11.625,22.3125,16.6875,0.0,0.0,0.0,158
159,1695833457621,-0.68847656,0.0234375,0.3046875,6.75,26.09375,7.53125,0.0,0.0,0.0,159
160,1695833457661,-0.6611328,-0.091796875,0.22167969,11.34375,5.40625,13.09375,0.0,0.0,0.0,160
161,1695833457701,-0.6767578,-0.076171875,0.22167969,15.5,1.5,11.625,0.0,0.0,0.0,161
162,1695833457741,-0.6875,-0.037109375,0.15136719,31.34375,-11.8125,9.84375,0.0,0.0,0.0,162
163,1695833457781,-0.88183594,0.080078125,0.055664062,43.5625,-26.125,4.25,0.0,0.0,0.0,163
164,1695833457821,-1.5683594,0.6123047,0.09472656,27.03125,-58.125,-10.84375,0.0,0.0,0.0,164
165,1695833457861,-1.2880859,0.6220703,0.099609375,-23.875,-105.71875,-17.5625,0.0,0.0,0.0,165
166,1695833457901,-1.3134766,0.69628906,0.625,-17.0,-138.125,-19.4375,0.0,0.0,0.0,166
167,1695833457941,-1.0761719,0.5292969,0.5126953,-59.71875,-87.0,8.5,-75.75,17.4375,-102.1875,167
168,1695833457981,-1.2138672,0.22265625,0.48339844,-5.4375,-126.71875,23.21875,0.0,0.0,0.0,168
169,1695833458021,-0.81152344,-0.06640625,0.51953125,-20.03125,-50.4375,-20.25,0.0,0.0,0.0,169
170,1695833458061,-0.33203125,0.07324219,0.22851562,11.28125,-3.9375,-11.875,0.0,0.0,0.0,170
171,1695833458101,-0.22851562,0.15039062,0.34765625,35.0625,48.6875,10.8125,0.0,0.0,0.0,171
172,1695833458141,-0.2939453,0.064453125,0.35839844,34.53125,47.21875,4.0,0.0,0.0,0.0,172
173,1695833458181,-0.33984375,0.119140625,0.5986328,-12.71875,101.78125,-32.03125,0.0,0.0,0.0,173
174,1695833458221,-1.1845703,0.1953125,0.22167969,-18.375,160.25,-7.3125,0.0,0.0,0.0,174
175,1695833458261,-0.64453125,0.45214844,0.19140625,0.90625,82.625,-17.625,0.0,0.0,0.0,175
176,1695833458301,-0.42089844,0.19335938,0.8388672,-39.3125,-44.625,1.96875,0.0,0.0,0.0,176
177,1695833458341,-0.82910156,0.41601562,0.020507812,-53.375,11.34375,13.03125,0.0,0.0,0.0,177
178,1695833458381,-1.6376953,0.14941406,-0.15722656,3.875,-22.40625,5.46875,0.0,0.0,0.0,178
179,1695833458421,-0.99316406,0.3203125,0.3515625,-2.6875,-33.71875,-2.90625,-76.5,16.0625,-107.75,179
180,1695833458461,-1.5146484,-0.11816406,0.64941406,-32.625,-2.53125,-6.5625,0.0,0.0,0.0,180
181,1695833458501,-0.90527344,0.01171875,0.16015625,-51.65625,21.78125,-27.0625,0.0,0.0,0.0,181
182,1695833458541,-0.9472656,0.07714844,0.4873047,78.71875,20.96875,-4.0,0.0,0.0,0.0,182
183,1695833458581,-0.9667969,0.15722656,0.3125,12.3125,32.28125,8.8125,0.0,0.0,0.0,183
184,1695833458621,-0.8203125,0.12109375,0.21191406,17.4375,37.03125,14.4375,0.0,0.0,0.0,184
185,1695833458661,-0.6533203,0.15917969,0.31054688,30.125,37.65625,13.9375,0.0,0.0,0.0,185
186,1695833458701,-0.6982422,0.13867188,0.33789062,-1.25,35.1875,16.4375,0.0,0.0,0.0,186
187,1695833458741,-0.6591797,0.00390625,0.29296875,-15.75,20.78125,18.15625,0.0,0.0,0.0,187
188,1695833458781,-0.66503906,-0.19335938,0.16503906,7.4375,6.28125,11.8125,0.0,0.0,0.0,188
189,1695833458821,-0.57714844,-0.13378906,0.1796875,40.5625,-17.65625,6.6875,0.0,0.0,0.0,189
190,1695833458861,-0.7714844,-0.0068359375,0.11035156,52.21875,-41.34375,4.0625,0.0,0.0,0.0,190
191,1695833458901,-1.4736328,0.45898438,0.10058594,44.0625,-76.125,-9.5,0.0,0.0,0.0,191
192,1695833458941,-1.3886719,0.8125,0.059570312,31.0,-124.15625,-15.0625,-75.4375,11.75,-110.4375,192
193,1695833458981,-1.1513672,0.90625,0.63671875,-29.875,-157.90625,-13.40625,0.0,0.0,0.0,193
194,1695833459021,-1.125,0.52246094,0.42578125,-11.625,-113.125,22.84375,0.0,0.0,0.0,194
195,1695833459061,-0.91308594,0.1953125,0.6386719,-19.78125,-142.53125,5.15625,0.0,0.0,0.0,195
196,1695833459101,-0.7246094,0.12109375,0.671875,-28.875,-41.8125,15.40625,0.0,0.0,0.0,196
197,1695833459141,-0.5214844,0.16699219,0.5126953,-6.125,13.96875,0.40625,0.0,0.0,0.0,197
198,1695833459181,-0.39648438,0.13964844,0.39941406,20.0625,55.53125,4.59375,0.0,0.0,0.0,198
199,1695833459221,-0.2861328,0.15039062,0.4140625,0.15625,36.90625,-1.375,0.0,0.0,0.0,199
200,1695833459261,-0.23632812,0.12988281,0.4296875,-17.28125,128.15625,-20.78125,0.0,0.0,0.0,200
201,1695833459301,-0.9140625,0.12890625,0.51660156,5.71875,235.46875,-6.8125,0.0,0.0,0.0,201
202,1695833459341,-0.7158203,0.19140625,0.2578125,-63.5,37.875,-17.375,0.0,0.0,0.0,202
203,1695833459381,-0.78808594,0.26464844,0.5703125,-0.5,25.0,-2.71875,0.0,0.0,0.0,203
204,1695833459421,-0.5908203,0.328125,0.33398438,-93.15625,23.0,-8.15625,-75.4375,11.0,-108.0625,204
205,1695833459461,-1.0527344,0.35839844,0.0859375,-7.28125,-15.09375,9.1875,0.0,0.0,0.0,205
206,1695833459501,-1.5478516,0.13574219,0.02734375,-16.625,-12.59375,-6.625,0.0,0.0,0.0,206
207,1695833459541,-1.703125,0.018554688,0.453125,20.25,-13.125,9.1875,0.0,0.0,0.0,207
208,1695833459581,-1.0517578,0.09472656,0.25390625,-74.96875,0.53125,-13.09375,0.0,0.0,0.0,208
209,1695833459621,-1.0195312,0.1953125,0.19042969,42.09375,2.125,-6.3125,0.0,0.0,0.0,209
210,1695833459661,-1.0693359,0.22851562,0.38867188,46.125,39.71875,3.1875,0.0,0.0,0.0,210
211,1695833459701,-0.9707031,0.28515625,0.21875,-15.40625,43.6875,10.53125,0.0,0.0,0.0,211
212,1695833459741,-0.7109375,0.12988281,0.16015625,12.1875,42.71875,10.03125,0.0,0.0,0.0,212
213,1695833459781,-0.6435547,0.10546875,0.29296875,4.9375,36.59375,17.1875,0.0,0.0,0.0,213
214,1695833459821,-0.7294922,0.045898438,0.30371094,-1.1875,27.09375,17.125,0.0,0.0,0.0,214
215,1695833459861,-0.70703125,-0.09863281,0.17480469,0.84375,15.53125,14.0625,0.0,0.0,0.0,215
216,1695833459901,-0.55859375,-0.05078125,0.19140625,24.875,-6.125,14.5625,0.0,0.0,0.0,216
217,1695833459941,-0.6142578,-0.01171875,0.18652344,35.1875,-14.40625,12.34375,-72.75,12.625,-111.625,217
218,1695833459981,-0.72265625,0.064453125,0.05078125,27.25,-28.28125,3.9375,0.0,0.0,0.0,218
219,1695833460021,-1.4189453,0.5839844,0.5029297,12.5625,-91.3125,-4.96875,0.0,0.0,0.0,219
220,1695833460061,-1.3701172,0.29492188,-0.017578125,41.375,-113.125,-14.5,0.0,0.0,0.0,220
221,1695833460101,-1.3242188,0.7939453,0.6845703,-69.40625,-137.71875,-28.78125,0.0,0.0,0.0,221
222,1695833460141,-1.046875,0.640625,0.2861328,9.4375,-63.625,18.40625,0.0,0.0,0.0,222
223,1695833460181,-0.9921875,0.29101562,0.5205078,-11.3125,-189.71875,9.78125,0.0,0.0,0.0,223
224,1695833460221,-0.7373047,0.13671875,0.60839844,-38.15625,-14.40625,23.9375,0.0,0.0,0.0,224
225,1695833460261,-0.5498047,0.28710938,0.40722656,-17.21875,20.625,15.21875,0.0,0.0,0.0,225
226,1695833460301,-0.4794922,0.18652344,0.5341797,9.125,65.71875,2.84375,0.0,0.0,0.0,226
227,1695833460341,-0.33203125,0.15820312,0.37402344,-7.03125,89.65625,3.875,0.0,0.0,0.0,227
228,1695833460381,-0.5175781,0.009765625,0.36328125,-4.59375,141.28125,-17.1875,0.0,0.0,0.0,228
229,1695833460421,-0.91503906,0.22265625,0.19238281,16.28125,121.6875,-9.5625,-76.375,13.6875,-102.375,229
230,1695833460461,-0.70703125,0.41601562,0.546875,4.9375,31.59375,-11.3125,0.0,0.0,0.0,230
231,1695833460501,-0.42382812,0.22851562,0.45507812,-45.1875,19.34375,-3.03125,0.0,0.0,0.0,231
232,1695833460541,-0.8857422,0.3310547,-0.016601562,-23.09375,13.34375,3.8125,0.0,0.0,0.0,232
233,1695833460581,-1.5146484,0.16699219,-0.10058594,6.9375,-2.9375,-1.0,0.0,0.0,0.0,233
234,1695833460621,-1.6044922,0.3466797,0.5488281,-33.21875,-11.8125,1.78125,0.0,0.0,0.0,234
235,1695833460661,-1.1025391,-0.021484375,0.20507812,-42.75,-10.5,-14.3125,0.0,0.0,0.0,235
236,1695833460701,-1.0429688,0.045898438,0.29492188,30.3125,-3.25,-9.875,0.0,0.0,0.0,236
237,1695833460741,-1.0029297,0.18652344,0.39941406,29.71875,44.59375,-8.03125,0.0,0.0,0.0,237
238,1695833460781,-0.9140625,0.26660156,0.24511719,20.125,22.25,10.40625,0.0,0.0,0.0,238
239,1695833460821,-0.67285156,0.12988281,0.16992188,19.28125,33.0,16.25,0.0,0.0,0.0,239
240,1695833460861,-0.6513672,0.12988281,0.27246094,24.46875,37.46875,10.15625,0.0,0.0,0.0,240
241,1695833460901,-0.68066406,0.07519531,0.3095703,10.34375,20.375,7.65625,0.0,0.0,0.0,241
242,1695833460941,-0.6220703,-0.018554688,0.16796875,-5.6875,8.96875,7.96875,-72.75,14.4375,-109.5625,242
243,1695833460981,-0.5859375,-0.043945312,0.22167969,4.5625,-2.75,5.46875,0.0,0.0,0.0,243
244,1695833461021,-0.6230469,0.01953125,0.28027344,2.375,-21.1875,9.96875,0.0,0.0,0.0,244
245,1695833461061,-1.1152344,0.10253906,0.056640625,5.65625,-38.09375,7.78125,0.0,0.0,0.0,245
246,1695833461101,-1.4882812,0.5644531,0.15136719,-3.1875,-86.125,-5.34375,0.0,0.0,0.0,246
247,1695833461141,-1.4013672,0.70996094,0.31054688,19.5,-126.59375,-10.40625,0.0,0.0,0.0,247
248,1695833461181,-1.09375,0.7675781,0.49902344,-33.84375,-119.03125,5.21875,0.0,0.0,0.0,248
249,1695833461221,-1.0976562,0.36132812,0.46289062,-7.59375,-137.65625,25.53125,0.0,0.0,0.0,249
250,1695833461261,-0.8828125,0.07714844,0.6640625,-21.625,-86.3125,-2.125,0.0,0.0,0.0,250
251,1695833461301,-0.56347656,0.15234375,0.46191406,-20.9375,4.5625,11.875,0.0,0.0,0.0,251
252,1695833461341,-0.42382812,0.17382812,0.43847656,-2.40625,59.75,6.375,0.0,0.0,0.0,252
253,1695833461381,-0.40722656,0.08984375,0.44628906,-8.9375,78.90625,5.59375,0.0,0.0,0.0,253
254,1695833461421,-0.17285156,0.10253906,0.48339844,-7.15625,114.53125,-17.375,-72.0,16.25,-97.125,254
255,1695833461461,-1.1132812,0.07324219,0.28320312,2.375,158.4375,19.375,0.0,0.0,0.0,255
256,1695833461501,-0.6435547,0.3935547,0.05859375,-40.53125,97.21875,-8.40625,0.0,0.0,0.0,256
257,1695833461541,-0.55859375,0.3623047,0.734375,61.9375,-13.625,-9.1875,0.0,0.0,0.0,257
258,1695833461581,-0.5488281,0.4345703,0.2548828,-104.6875,15.3125,3.875,0.0,0.0,0.0,258
259,1695833461621,-1.5507812,0.078125,-0.20996094,54.125,-18.09375,10.03125,0.0,0.0,0.0,259
260,1695833461661,-1.2421875,0.35058594,0.296875,-27.53125,-29.875,-7.78125,0.0,0.0,0.0,260
261,1695833461701,-1.3623047,-0.17871094,0.515625,-1.3125,-16.5625,-12.84375,0.0,0.0,0.0,261
262,1695833461741,-0.9628906,0.28515625,0.15136719,-53.125,-4.15625,-21.34375,0.0,0.0,0.0,262
263,1695833461781,-1.0410156,0.16113281,0.13183594,87.4375,-18.03125,1.0,0.0,0.0,0.0,263
264,1695833461821,-1.0488281,0.18945312,0.50878906,49.46875,43.5625,-0.84375,0.0,0.0,0.0,264
265,1695833461861,-1.0126953,0.29003906,0.26660156,-22.28125,45.46875,3.3125,0.0,0.0,0.0,265
266,1695833461901,-0.79296875,0.049804688,0.23144531,9.5625,34.40625,4.65625,0.0,0.0,0.0,266
267,1695833461941,-0.7158203,0.032226562,0.2548828,8.90625,41.0625,-0.28125,-72.0,16.5625,-108.1875,267
268,1695833461981,-0.6611328,0.12207031,0.34472656,31.96875,13.84375,7.15625,0.0,0.0,0.0,268
269,1695833462021,-0.6035156,0.0048828125,0.15722656,13.46875,7.125,18.09375,0.0,0.0,0.0,269
270,1695833462061,-0.5605469,-0.068359375,0.26953125,6.9375,10.3125,13.5625,0.0,0.0,0.0,270
271,1695833462101,-0.73046875,-0.08886719,0.17675781,26.90625,-6.78125,6.125,0.0,0.0,0.0,271
272,1695833462141,-1.0585938,0.20898438,0.091796875,32.15625,-45.3125,-0.46875,0.0,0.0,0.0,272
273,1695833462181,-1.3271484,0.4794922,0.0126953125,13.28125,-105.4375,-8.65625,0.0,0.0,0.0,273
274,1695833462221,-1.4082031,0.66015625,0.4013672,31.34375,-161.21875,-22.0,0.0,0.0,0.0,274
275,1695833462261,-1.1708984,0.73339844,0.43164062,-35.125,-168.90625,8.9375,0.0,0.0,0.0,275
276,1695833462301,-1.0527344,0.5371094,0.8027344,14.8125,-199.78125,2.40625,0.0,0.0,0.0,276
277,1695833462341,-0.9121094,0.1015625,0.7910156,-29.125,-44.5,-10.03125,0.0,0.0,0.0,277
278,1695833462381,-0.64746094,0.034179688,0.5410156,-8.5,23.3125,-14.8125,0.0,0.0,0.0,278
279,1695833462421,-0.2939453,-0.03125,0.26171875,59.125,95.3125,-9.1875,-72.625,15.0625,-92.875,279
280,1695833462461,-0.21289062,0.16503906,0.3173828,39.28125,62.125,-0.40625,0.0,0.0,0.0,280
281,1695833462501,-0.12011719,0.013671875,0.34375,36.84375,80.3125,-30.1875,0.0,0.0,0.0,281
282,1695833462541,-0.76660156,0.140625,0.49609375,4.375,175.34375,-4.0,0.0,0.0,0.0,282
283,1695833462581,-0.8769531,0.578125,0.15820312,-47.5,114.0625,-12.96875,0.0,0.0,0.0,283
284,1695833462621,-0.7089844,0.7734375,0.71972656,48.8125,-4.40625,6.375,0.0,0.0,0.0,284
285,1695833462661,-0.7734375,0.005859375,0.17285156,-99.375,10.125,21.375,0.0,0.0,0.0,285
286,1695833462701,-1.2441406,0.24121094,0.032226562,15.59375,24.8125,15.03125,0.0,0.0,0.0,286
287,1695833462741,-1.4892578,0.20605469,0.17285156,-44.15625,-0.09375,15.59375,0.0,0.0,0.0,287
288,1695833462781,-1.9111328,-0.024414062,0.7060547,6.8125,-24.84375,-3.15625,0.0,0.0,0.0,288
289,1695833462821,-1.0371094,0.125,0.16503906,-76.375,-6.0,-28.125,0.0,0.0,0.0,289
290,1695833462861,-0.81347656,0.13769531,0.29492188,64.8125,-26.25,-1.1875,0.0,0.0,0.0,290
291,1695833462901,-0.9501953,0.18164062,0.3857422,62.3125,32.6875,-1.3125,0.0,0.0,0.0,291
292,1695833462941,-0.8515625,0.3935547,0.21386719,0.84375,54.5625,11.375,-72.0,15.8125,-106.5625,292
293,1695833462981,-0.8203125,0.030273438,0.31933594,8.28125,45.15625,13.8125,0.0,0.0,0.0,293
294,1695833463021,-0.67871094,0.107421875,0.28222656,-9.78125,48.25,15.21875,0.0,0.0,0.0,294
295,1695833463061,-0.69433594,-0.041015625,0.3330078,22.3125,23.125,15.71875,0.0,0.0,0.0,295
296,1695833463101,-0.68066406,-0.14550781,0.20800781,6.09375,11.28125,18.875,0.0,0.0,0.0,296
297,1695833463141,-0.75,-0.095703125,0.203125,35.25,5.84375,8.875,0.0,0.0,0.0,297
298,1695833463181,-0.74902344,0.046875,0.052734375,70.125,-22.28125,6.0,0.0,0.0,0.0,298
299,1695833463221,-0.99609375,0.13574219,-0.39941406,40.8125,-86.875,-35.125,0.0,0.0,0.0,299
300,1695833463261,-1.0888672,0.65527344,0.21289062,6.5625,-173.78125,-52.40625,0.0,0.0,0.0,300
301,1695833463301,-1.2167969,0.8027344,0.095703125,-65.875,-120.1875,-53.25,0.0,0.0,0.0,301
302,1695833463341,-1.1269531,0.59375,-0.013671875,-212.1875,-125.4375,-8.875,0.0,0.0,0.0,302
303,1695833463381,-0.8642578,0.107421875,-0.0625,32.5,-223.34375,33.84375,0.0,0.0,0.0,303
304,1695833463421,-0.98828125,0.15429688,0.52441406,23.0625,-305.625,-20.65625,0.0,0.0,0.0,304
305,1695833463461,-0.3671875,0.12011719,0.6855469,33.3125,-160.25,-7.90625,0.0,0.0,0.0,305
306,1695833463501,-0.25683594,0.0126953125,0.3330078,13.53125,-45.96875,-9.0625,0.0,0.0,0.0,306
307,1695833463541,0.051757812,-0.018554688,0.2607422,52.96875,2.5,-21.9375,0.0,0.0,0.0,307
308,1695833463581,0.0009765625,0.076171875,0.40234375,33.25,84.9375,-19.625,0.0,0.0,0.0,308
309,1695833463621,-0.2763672,0.21582031,0.5605469,2.78125,85.0,-26.21875,0.0,0.0,0.0,309
310,1695833463661,-0.80859375,0.20214844,0.43359375,38.5,130.34375,-31.59375,0.0,0.0,0.0,310
311,1695833463701,-0.75878906,0.1953125,0.36914062,66.625,108.375,-43.6875,-76.5,16.375,-94.25,311
312,1695833463741,-0.7138672,0.14746094,0.5390625,15.375,112.90625,-16.5625,0.0,0.0,0.0,312
313,1695833463781,-0.8935547,0.484375,0.7158203,-75.28125,66.3125,-8.28125,0.0,0.0,0.0,313
314,1695833463821,-1.0537109,0.84277344,0.22265625,-68.4375,52.15625,13.34375,0.0,0.0,0.0,314
315,1695833463861,-1.7919922,0.32617188,-0.6904297,62.84375,26.78125,-7.40625,0.0,0.0,0.0,315
316,1695833463901,-1.8417969,0.12890625,0.61035156,8.34375,-110.4375,-16.9375,0.0,0.0,0.0,316
317,1695833463941,-0.6328125,-0.13183594,0.29785156,-38.84375,22.8125,-39.40625,0.0,0.0,0.0,317
318,1695833463981,-0.85253906,0.37890625,0.115234375,15.1875,10.25,-6.3125,0.0,0.0,0.0,318
319,1695833464021,-1.1972656,0.22070312,0.4169922,46.90625,19.6875,20.90625,0.0,0.0,0.0,319
320,1695833464061,-0.9658203,0.16308594,0.16601562,23.34375,41.375,20.46875,0.0,0.0,0.0,320
321,1695833464101,-0.7324219,0.18945312,0.31347656,-21.1875,45.15625,-9.5,0.0,0.0,0.0,321
322,1695833464141,-0.46289062,0.22070312,0.16894531,-18.4375,41.25,11.375,0.0,0.0,0.0,322
323,1695833464181,-0.64746094,0.12109375,0.44628906,1.03125,23.0625,27.0625,-74.375,13.8125,-107.75,323
324,1695833464221,-0.60839844,-0.033203125,0.23925781,-22.0625,14.5,22.375,0.0,0.0,0.0,324
325,1695833464261,-0.5966797,-0.14941406,0.1953125,-6.71875,3.78125,14.78125,0.0,0.0,0.0,325
326,1695833464301,-0.8144531,-0.001953125,0.33984375,7.0625,-11.3125,16.25,0.0,0.0,0.0,326
327,1695833464341,-0.86035156,-0.10449219,0.055664062,27.03125,-5.4375,5.09375,0.0,0.0,0.0,327
328,1695833464381,-1.4414062,0.4501953,0.20507812,51.9375,-52.75,-15.40625,0.0,0.0,0.0,328
329,1695833464421,-1.6455078,0.6484375,0.18652344,-7.65625,-110.75,-26.9375,0.0,0.0,0.0,329
330,1695833464461,-1.2666016,0.8876953,0.5732422,-47.4375,-190.75,-15.78125,0.0,0.0,0.0,330
331,1695833464501,-1.0136719,0.4580078,0.5732422,-53.25,-118.3125,5.8125,0.0,0.0,0.0,331
332,1695833464541,-1.0166016,0.10058594,0.76464844,-36.6875,-116.78125,11.5,0.0,0.0,0.0,332
333,1695833464581,-0.65625,0.13867188,0.58203125,-33.46875,-63.96875,-0.34375,0.0,0.0,0.0,333
334,1695833464621,-0.42871094,0.16601562,0.47753906,11.59375,-2.75,-12.3125,0.0,0.0,0.0,334
335,1695833464661,-0.19433594,0.08691406,0.26171875,15.78125,19.8125,5.03125,0.0,0.0,0.0,335
336,1695833464701,-0.16796875,0.140625,0.41796875,11.21875,54.65625,12.59375,-76.1875,13.5625,-89.75,336
337,1695833464741,-0.24609375,0.17382812,0.43164062,2.71875,101.78125,16.5625,0.0,0.0,0.0,337
338,1695833464781,-0.5722656,0.125,0.39453125,2.65625,145.0,-30.96875,0.0,0.0,0.0,338
339,1695833464821,-1.0673828,0.103515625,0.4765625,53.5625,145.125,4.40625,0.0,0.0,0.0,339
340,1695833464861,-0.8417969,0.2763672,0.5058594,4.4375,71.5625,-2.96875,0.0,0.0,0.0,340
341,1695833464901,-0.79785156,0.16796875,0.73535156,-28.09375,28.25,-5.21875,0.0,0.0,0.0,341
342,1695833464941,-0.93652344,0.8251953,0.3310547,-81.25,35.3125,-8.71875,0.0,0.0,0.0,342
343,1695833464981,-1.5214844,0.48242188,-0.18554688,-7.71875,-8.75,18.15625,0.0,0.0,0.0,343
344,1695833465021,-1.7080078,0.16308594,0.17871094,-39.8125,-43.71875,27.84375,0.0,0.0,0.0,344
345,1695833465061,-1.1279297,-0.20703125,0.48046875,-14.0,-4.46875,-19.6875,0.0,0.0,0.0,345
346,1695833465101,-0.81640625,0.13085938,0.29003906,-2.40625,8.15625,-18.15625,0.0,0.0,0.0,346
347,1695833465141,-0.9580078,0.328125,0.23339844,1.875,34.34375,6.4375,0.0,0.0,0.0,347
348,1695833465181,-0.95996094,0.16015625,0.34960938,20.1875,26.46875,14.25,-75.3125,13.375,-104.75,348
349,1695833465221,-0.8027344,0.20117188,0.203125,-21.8125,44.0625,13.40625,0.0,0.0,0.0,349
350,1695833465261,-0.703125,0.06640625,0.19140625,-0.6875,32.9375,19.0,0.0,0.0,0.0,350
351,1695833465301,-0.7451172,0.04296875,0.36035156,7.25,27.8125,19.3125,0.0,0.0,0.0,351
352,1695833465341,-0.6826172,0.06542969,0.3173828,-12.90625,16.34375,14.5625,0.0,0.0,0.0,352
353,1695833465381,-0.58691406,-0.024414062,0.20800781,-17.28125,3.15625,15.28125,0.0,0.0,0.0,353
354,1695833465421,-0.6621094,-0.034179688,0.21972656,-5.5625,-9.21875,14.375,0.0,0.0,0.0,354
355,1695833465461,-0.7285156,-0.0234375,0.23632812,6.875,-21.1875,4.84375,0.0,0.0,0.0,355
356,1695833465501,-1.0986328,0.30078125,0.25878906,-1.375,-61.84375,-4.75,0.0,0.0,0.0,356
357,1695833465541,-1.3847656,0.4765625,0.076171875,-5.75,-110.75,-14.8125,0.0,0.0,0.0,357
358,1695833465581,-1.4335938,0.671875,0.32910156,36.0625,-159.0625,-10.96875,0.0,0.0,0.0,358
359,1695833465621,-1.0722656,0.6582031,0.58691406,-33.46875,-176.90625,20.59375,0.0,0.0,0.0,359
360,1695833465661,-0.91796875,0.359375,0.56347656,-39.6875,-123.25,16.125,0.0,0.0,0.0,360
361,1695833465701,-0.68066406,0.026367188,0.640625,-33.59375,-45.90625,9.96875,-74.125,15.1875,-89.125,361
362,1695833465741,-0.453125,0.19433594,0.5498047,-5.03125,26.28125,7.84375,0.0,0.0,0.0,362
363,1695833465781,-0.3330078,0.09765625,0.5126953,3.9375,65.0,20.96875,0.0,0.0,0.0,363
364,1695833465821,-0.3203125,0.09667969,0.36132812,17.375,76.75,7.53125,0.0,0.0,0.0,364
365,1695833465861,-0.3095703,0.1171875,0.5527344,-22.125,112.34375,-43.375,0.0,0.0,0.0,365
366,1695833465901,-1.2167969,0.13085938,0.29882812,3.53125,214.65625,1.0625,0.0,0.0,0.0,366
367,1695833465941,-0.79785156,0.30859375,0.2783203,-12.03125,70.0625,-18.34375,0.0,0.0,0.0,367
368,1695833465981,-0.52734375,0.3251953,0.74121094,21.90625,8.28125,2.53125,0.0,0.0,0.0,368
369,1695833466021,-0.7714844,0.47265625,0.21191406,-39.75,11.34375,2.90625,0.0,0.0,0.0,369
370,1695833466061,-1.4404297,0.17285156,-0.14941406,22.4375,3.78125,9.3125,0.0,0.0,0.0,370
371,1695833466101,-1.7431641,0.42285156,0.39257812,-67.875,-26.5625,8.3125,0.0,0.0,0.0,371
372,1695833466141,-1.2529297,-0.20605469,0.32226562,-22.0625,-13.8125,-10.09375,0.0,0.0,0.0,372
373,1695833466181,-0.6796875,0.2109375,0.2734375,-9.90625,-11.0,-16.875,-74.875,16.25,-101.3125,373
374,1695833466221,-0.9765625,0.21386719,0.30566406,43.75,12.5625,2.46875,0.0,0.0,0.0,374
375,1695833466261,-1.1298828,0.15332031,0.34277344,18.78125,40.03125,5.8125,0.0,0.0,0.0,375
376,1695833466301,-0.79785156,0.1484375,0.25683594,-6.78125,31.0625,2.84375,0.0,0.0,0.0,376
377,1695833466341,-0.6484375,0.16699219,0.24804688,17.75,29.03125,9.84375,0.0,0.0,0.0,377
378,1695833466381,-0.80566406,0.107421875,0.33496094,11.09375,27.375,15.15625,0.0,0.0,0.0,378
379,1695833466421,-0.6767578,0.048828125,0.27246094,16.03125,7.5,14.1875,0.0,0.0,0.0,379
380,1695833466461,-0.62402344,-0.06347656,0.2763672,2.59375,1.15625,8.875,0.0,0.0,0.0,380
381,1695833466501,-0.68847656,-0.025390625,0.17089844,-2.34375,-3.0,2.28125,0.0,0.0,0.0,381
382,1695833466541,-0.7373047,0.03515625,0.17675781,24.28125,-17.40625,2.40625,0.0,0.0,0.0,382
383,1695833466581,-1.0029297,0.24707031,0.11328125,-7.65625,-43.90625,4.125,0.0,0.0,0.0,383
384,1695833466621,-1.4375,0.5390625,0.23046875,-23.21875,-119.9375,-18.59375,0.0,0.0,0.0,384
385,1695833466661,-1.1904297,0.6513672,0.33203125,6.5625,-212.53125,-9.5,0.0,0.0,0.0,385
386,1695833466701,-1.1191406,0.5644531,0.82714844,-32.90625,-163.40625,26.75,-76.625,17.3125,-95.4375,386
387,1695833466741,-0.92089844,0.32617188,0.61621094,-12.71875,-90.78125,-8.75,0.0,0.0,0.0,387
388,1695833466781,-0.5361328,0.12988281,0.66503906,2.3125,-43.59375,0.6875,0.0,0.0,0.0,388
389,1695833466821,-0.5234375,0.14648438,0.5722656,-9.1875,6.9375,4.53125,0.0,0.0,0.0,389
390,1695833466861,-0.33691406,0.12597656,0.53222656,5.34375,63.21875,3.1875,0.0,0.0,0.0,390
391,1695833466901,-0.27734375,0.061523438,0.484375,13.28125,77.1875,6.0,0.0,0.0,0.0,391
392,1695833466941,-0.28808594,0.1171875,0.46191406,0.96875,68.59375,-7.71875,0.0,0.0,0.0,392
393,1695833466981,-0.67871094,0.14257812,0.4794922,15.5,170.9375,-27.0,0.0,0.0,0.0,393
394,1695833467021,-1.1416016,0.29101562,0.375,4.1875,130.71875,4.3125,0.0,0.0,0.0,394
395,1695833467061,-0.61621094,0.30566406,0.5185547,14.25,52.0,-8.03125,0.0,0.0,0.0,395
396,1695833467101,-0.70996094,0.42578125,0.2919922,-74.40625,25.0,1.0,0.0,0.0,0.0,396
397,1695833467141,-1.2851562,0.19433594,-0.15527344,30.0625,-10.28125,8.9375,0.0,0.0,0.0,397
398,1695833467181,-1.5585938,0.39648438,0.35058594,-19.375,-28.59375,-4.75,-75.4375,15.3125,-101.4375,398
399,1695833467221,-1.1708984,-0.123046875,0.4736328,-7.28125,-21.125,-21.71875,0.0,0.0,0.0,399
400,1695833467261,-0.8203125,0.23535156,0.18261719,7.90625,-6.5625,-24.6875,0.0,0.0,0.0,400
401,1695833467301,-1.0029297,0.046875,0.4453125,32.9375,3.9375,-2.21875,0.0,0.0,0.0,401
402,1695833467341,-1.1376953,0.14257812,0.3701172,7.71875,49.65625,-8.53125,0.0,0.0,0.0,402
403,1695833467381,-0.8623047,0.19042969,0.32128906,11.21875,30.5,6.1875,0.0,0.0,0.0,403
404,1695833467421,-0.6855469,0.041015625,0.17382812,13.21875,37.09375,13.625,0.0,0.0,0.0,404
405,1695833467461,-0.6826172,0.119140625,0.3310547,62.53125,21.96875,10.28125,0.0,0.0,0.0,405
406,1695833467501,-0.61328125,0.09375,0.35058594,6.21875,21.21875,13.09375,0.0,0.0,0.0,406
407,1695833467541,-0.640625,-0.11230469,0.17480469,-7.34375,7.0625,17.71875,0.0,0.0,0.0,407
408,1695833467581,-0.7519531,-0.041992188,0.2607422,1.8125,1.8125,13.625,0.0,0.0,0.0,408
409,1695833467621,-0.8544922,-0.041992188,0.032226562,29.40625,-25.65625,1.78125,0.0,0.0,0.0,409
410,1695833467661,-1.2978516,0.46777344,0.23925781,1.9375,-77.34375,-9.9375,0.0,0.0,0.0,410
411,1695833467701,-1.2060547,0.6611328,-0.0068359375,-20.09375,-128.6875,-16.8125,-76.625,15.8125,-104.125,411
412,1695833467741,-1.0380859,0.77246094,0.515625,11.6875,-162.90625,-5.84375,0.0,0.0,0.0,412
413,1695833467781,-1.1611328,0.42089844,0.7158203,-20.28125,-139.40625,24.9375,0.0,0.0,0.0,413
414,1695833467821,-0.98535156,0.13574219,0.6230469,-23.53125,-89.96875,-0.78125,0.0,0.0,0.0,414
415,1695833467861,-0.6972656,0.16503906,0.58691406,-26.375,-30.90625,8.5625,0.0,0.0,0.0,415
416,1695833467901,-0.4970703,0.16796875,0.48046875,-1.71875,4.6875,0.15625,0.0,0.0,0.0,416
417,1695833467941,-0.34570312,0.19335938,0.4580078,3.9375,66.6875,9.96875,0.0,0.0,0.0,417
418,1695833467981,-0.3046875,0.10546875,0.42871094,5.65625,63.59375,3.0,0.0,0.0,0.0,418
419,1695833468021,-0.25097656,0.026367188,0.31933594,17.125,112.84375,-25.25,0.0,0.0,0.0,419
420,1695833468061,-0.9873047,-0.022460938,0.40625,38.9375,206.9375,-1.375,0.0,0.0,0.0,420
421,1695833468101,-0.83496094,0.5126953,0.4638672,-29.125,68.84375,-22.0625,0.0,0.0,0.0,421
422,1695833468141,-0.65722656,0.49316406,0.5751953,-30.46875,14.5625,5.59375,0.0,0.0,0.0,422
423,1695833468181,-1.2041016,0.3857422,0.20507812,13.09375,-6.96875,17.78125,-75.875,13.6875,-102.625,423
424,1695833468221,-1.4433594,0.14746094,-0.37402344,-91.03125,25.1875,-9.3125,0.0,0.0,0.0,424
425,1695833468261,-1.2265625,0.01953125,0.30371094,-29.0625,-32.3125,-11.3125,0.0,0.0,0.0,425
426,1695833468301,-0.9433594,0.040039062,0.28027344,-31.4375,-11.4375,-9.0625,0.0,0.0,0.0,426
427,1695833468341,-1.0742188,0.10253906,0.29101562,42.46875,-0.375,4.53125,0.0,0.0,0.0,427
428,1695833468381,-0.9980469,0.15039062,0.34375,25.375,32.28125,3.375,0.0,0.0,0.0,428
429,1695833468421,-0.91015625,0.20898438,0.37109375,7.625,29.71875,3.75,0.0,0.0,0.0,429
430,1695833468461,-0.77734375,0.12890625,0.27929688,-13.4375,44.96875,10.34375,0.0,0.0,0.0,430
431,1695833468501,-0.76464844,0.0048828125,0.2607422,4.125,36.25,14.5,0.0,0.0,0.0,431
432,1695833468541,-0.70214844,0.051757812,0.26367188,13.96875,25.1875,12.0,0.0,0.0,0.0,432
433,1695833468581,-0.6953125,-0.06738281,0.3330078,4.9375,7.625,11.5625,0.0,0.0,0.0,433
434,1695833468621,-0.6738281,-0.01953125,0.24609375,16.40625,-1.25,4.65625,0.0,0.0,0.0,434
435,1695833468661,-0.63964844,0.032226562,0.24316406,16.46875,-17.40625,2.53125,0.0,0.0,0.0,435
436,1695833468701,-0.72265625,-0.018554688,0.15820312,7.78125,-19.125,5.8125,-76.8125,15.3125,-106.6875,436
437,1695833468741,-1.2304688,0.25097656,0.1484375,26.40625,-72.71875,2.15625,0.0,0.0,0.0,437
438,1695833468781,-1.2714844,0.48632812,0.26464844,19.28125,-128.5625,-24.5,0.0,0.0,0.0,438
439,1695833468821,-1.2128906,0.7548828,0.37304688,-11.8125,-174.03125,-14.5,0.0,0.0,0.0,439
440,1695833468861,-1.2431641,0.6933594,0.68652344,4.0,-163.28125,30.84375,0.0,0.0,0.0,440
441,1695833468901,-0.9033203,0.23242188,0.7285156,-13.8125,-87.1875,1.5,0.0,0.0,0.0,441
442,1695833468941,-0.6269531,0.13085938,0.56933594,-15.46875,-19.5625,5.03125,0.0,0.0,0.0,442
443,1695833468981,-0.5966797,0.19335938,0.5673828,0.59375,15.59375,-1.6875,0.0,0.0,0.0,443
444,1695833469021,-0.45507812,0.15332031,0.49414062,22.1875,55.28125,2.21875,0.0,0.0,0.0,444
445,1695833469061,-0.30664062,0.16113281,0.4892578,20.125,63.15625,-6.1875,0.0,0.0,0.0,445
446,1695833469101,-0.21582031,0.07910156,0.3388672,5.125,114.90625,-41.53125,0.0,0.0,0.0,446
447,1695833469141,-0.68847656,0.119140625,0.3095703,17.0,189.75,-30.125,0.0,0.0,0.0,447
448,1695833469181,-0.7890625,0.38867188,0.2734375,-9.40625,41.125,-4.4375,-76.8125,12.8125,-101.125,448
449,1695833469221,-0.37109375,0.28515625,0.43066406,-29.75,18.28125,-4.4375,0.0,0.0,0.0,449
450,1695833469261,-1.3857422,0.5830078,0.13476562,-17.21875,10.1875,15.90625,0.0,0.0,0.0,450
451,1695833469301,-1.9355469,0.32421875,0.42578125,-60.1875,-24.4375,-0.40625,0.0,0.0,0.0,451
452,1695833469341,-1.6181641,-0.020507812,0.47460938,10.46875,-13.3125,-12.125,0.0,0.0,0.0,452
453,1695833469381,-0.8017578,0.16015625,0.2763672,-42.25,-4.15625,-18.65625,0.0,0.0,0.0,453
454,1695833469421,-1.0410156,0.0625,0.18554688,48.6875,2.1875,12.59375,0.0,0.0,0.0,454
455,1695833469461,-1.1416016,0.20019531,0.51464844,47.59375,43.0625,-3.75,0.0,0.0,0.0,455
456,1695833469501,-0.8330078,0.3173828,0.18164062,-7.46875,44.1875,7.09375,0.0,0.0,0.0,456
457,1695833469541,-0.6953125,0.06542969,0.17871094,1.625,44.125,9.59375,0.0,0.0,0.0,457
458,1695833469581,-0.609375,0.10253906,0.29003906,5.40625,41.84375,12.84375,0.0,0.0,0.0,458
459,1695833469621,-0.7294922,0.06640625,0.2783203,6.28125,22.3125,17.59375,0.0,0.0,0.0,459
460,1695833469661,-0.63378906,-0.020507812,0.27148438,19.6875,7.6875,14.125,0.0,0.0,0.0,460
461,1695833469701,-0.69140625,-0.043945312,0.32226562,-4.28125,1.375,11.6875,-76.5,12.5,-108.375,461
462,1695833469741,-0.76464844,-0.04296875,0.07910156,1.4375,-17.78125,5.40625,0.0,0.0,0.0,462
463,1695833469781,-1.2607422,0.37402344,0.13085938,-11.3125,-65.3125,-10.53125,0.0,0.0,0.0,463
464,1695833469821,-1.3496094,0.5205078,0.01171875,12.5,-130.9375,-28.59375,0.0,0.0,0.0,464
465,1695833469861,-1.3369141,0.8066406,0.71777344,1.625,-215.84375,-14.4375,0.0,0.0,0.0,465
466,1695833469901,-1.0849609,0.4814453,0.45996094,-26.25,-120.75,20.78125,0.0,0.0,0.0,466
467,1695833469941,-0.7705078,0.1171875,0.61816406,-14.0,-144.96875,-0.34375,0.0,0.0,0.0,467
468,1695833469981,-0.6035156,0.20996094,0.5683594,-22.28125,-27.25,16.03125,0.0,0.0,0.0,468
469,1695833470021,-0.4560547,0.18945312,0.6113281,14.5,30.8125,7.53125,0.0,0.0,0.0,469
470,1695833470061,-0.3984375,0.15917969,0.5488281,13.40625,99.84375,20.21875,0.0,0.0,0.0,470
471,1695833470101,-0.41210938,0.1171875,0.43066406,-5.625,90.875,5.15625,0.0,0.0,0.0,471
472,1695833470141,-0.22753906,0.14648438,0.5966797,-42.875,105.4375,-36.90625,0.0,0.0,0.0,472
473,1695833470181,-0.81640625,0.25390625,0.25,6.8125,187.25,11.5625,-77.6875,13.375,-97.5625,473
474,1695833470221,-0.4716797,0.17871094,0.2685547,56.25,-6.0625,-3.46875,0.0,0.0,0.0,474
475,1695833470261,-1.0644531,0.3876953,0.21484375,-21.25,9.1875,3.1875,0.0,0.0,0.0,475
476,1695833470301,-1.7148438,0.35253906,-0.5966797,-52.1875,54.1875,-6.125,0.0,0.0,0.0,476
477,1695833470341,-1.4863281,0.15136719,0.7294922,-31.4375,-45.90625,-13.09375,0.0,0.0,0.0,477
478,1695833470381,-1.1240234,-0.061523438,0.18945312,-73.0,8.90625,-17.0625,0.0,0.0,0.0,478
479,1695833470421,-1.0058594,0.028320312,0.33984375,82.0625,-2.03125,3.6875,0.0,0.0,0.0,479
480,1695833470461,-1.0351562,0.203125,0.46679688,29.03125,33.84375,-8.15625,0.0,0.0,0.0,480
481,1695833470501,-0.7910156,0.31640625,0.34375,22.5,40.875,-0.09375,0.0,0.0,0.0,481
482,1695833470541,-0.6816406,0.123046875,0.2109375,7.5625,36.78125,16.0625,0.0,0.0,0.0,482
483,1695833470581,-0.6455078,0.099609375,0.25976562,9.375,41.71875,13.40625,0.0,0.0,0.0,483
484,1695833470621,-0.6982422,0.01953125,0.35058594,15.96875,22.75,11.3125,0.0,0.0,0.0,484
485,1695833470661,-0.6015625,0.028320312,0.16796875,7.96875,14.21875,7.71875,-76.375,12.9375,-107.125,485
486,1695833470701,-0.7109375,0.095703125,0.36621094,3.40625,3.15625,7.78125,0.0,0.0,0.0,486
487,1695833470741,-0.671875,-0.0146484375,0.22851562,-4.03125,-7.09375,7.65625,0.0,0.0,0.0,487
488,1695833470781,-0.8798828,0.0048828125,-0.016601562,14.8125,-27.53125,12.28125,0.0,0.0,0.0,488
489,1695833470821,-1.5966797,0.49902344,0.3046875,-4.46875,-76.5,-9.5,0.0,0.0,0.0,489
490,1695833470861,-1.3017578,0.47851562,0.16601562,17.1875,-132.40625,-34.46875,0.0,0.0,0.0,490
491,1695833470901,-0.9873047,0.7832031,0.5996094,33.375,-166.46875,-4.0625,0.0,0.0,0.0,491
492,1695833470941,-1.3662109,0.46191406,0.5605469,7.3125,-105.375,15.46875,0.0,0.0,0.0,492
493,1695833470981,-0.65625,0.27246094,0.55859375,-1.96875,-82.96875,3.5625,0.0,0.0,0.0,493
494,1695833471021,-0.5761719,0.20410156,0.47070312,-26.5,-9.53125,7.03125,0.0,0.0,0.0,494
495,1695833471061,-0.36035156,0.18652344,0.40234375,-31.75,25.5,-1.3125,0.0,0.0,0.0,495
496,1695833471101,-0.25683594,0.16601562,0.41601562,-16.4375,59.3125,5.9375,0.0,0.0,0.0,496
497,1695833471141,-0.13574219,0.05859375,0.3701172,-14.25,81.34375,-7.78125,0.0,0.0,0.0,497
498,1695833471181,-0.6328125,0.08984375,0.39941406,-4.21875,125.84375,-10.46875,-79.375,12.5,-96.9375,498
499,1695833471221,-0.9511719,0.08300781,0.21679688,43.3125,70.90625,-4.75,0.0,0.0,0.0,499
500,1695833471261,-0.6064453,0.31640625,0.4970703,39.28125,60.34375,-12.65625,0.0,0.0,0.0,500
501,1695833471301,-0.7373047,0.5263672,0.4638672,-99.75,29.65625,-13.40625,0.0,0.0,0.0,501
502,1695833471341,-1.2675781,0.61816406,-0.3173828,24.8125,44.46875,10.09375,0.0,0.0,0.0,502
503,1695833471381,-1.6396484,0.40722656,0.53027344,-46.21875,-36.625,-12.625,0.0,0.0,0.0,503
504,1695833471421,-1.0712891,-0.2421875,0.34472656,-55.125,-7.59375,-19.25,0.0,0.0,0.0,504
505,1695833471461,-0.9248047,-0.028320312,0.41992188,37.9375,-33.90625,-8.9375,0.0,0.0,0.0,505
506,1695833471501,-1.1523438,0.15917969,0.38378906,30.625,8.15625,-18.03125,0.0,0.0,0.0,506
507,1695833471541,-0.953125,0.33789062,0.3203125,25.5,64.5625,-6.25,0.0,0.0,0.0,507
508,1695833471581,-0.85839844,0.18066406,0.3486328,9.8125,30.875,10.46875,0.0,0.0,0.0,508
509,1695833471621,-0.7265625,0.20996094,0.16992188,16.09375,44.125,16.0625,0.0,0.0,0.0,509
510,1695833471661,-0.74316406,0.10839844,0.2841797,20.25,53.21875,16.1875,-79.5,10.5625,-106.875,510
511,1695833471701,-0.54296875,0.08886719,0.2421875,-9.59375,29.03125,12.78125,0.0,0.0,0.0,511
512,1695833471741,-0.5722656,-0.030273438,0.25878906,2.3125,16.03125,7.59375,0.0,0.0,0.0,512
513,1695833471781,-0.5107422,0.060546875,0.27734375,-9.71875,-6.78125,6.4375,0.0,0.0,0.0,513
514,1695833471821,-0.6845703,0.0234375,0.18066406,6.21875,-18.8125,14.3125,0.0,0.0,0.0,514
515,1695833471861,-1.390625,0.27929688,0.1640625,21.21875,-65.03125,5.875,0.0,0.0,0.0,515
516,1695833471901,-1.1855469,0.40722656,0.12597656,-22.28125,-126.46875,-6.3125,0.0,0.0,0.0,516
517,1695833471941,-1.2578125,0.69140625,0.34765625,45.28125,-195.5625,11.9375,0.0,0.0,0.0,517
518,1695833471981,-1.3457031,0.79296875,0.8330078,-63.875,-182.09375,38.34375,0.0,0.0,0.0,518
519,1695833472021,-0.9707031,0.5527344,0.5058594,6.28125,-77.34375,3.125,0.0,0.0,0.0,519
520,1695833472061,-0.49023438,-0.032226562,0.56640625,-31.5625,-29.5625,8.375,0.0,0.0,0.0,520
521,1695833472101,-0.4580078,0.041992188,0.3828125,-17.0,6.625,9.1875,0.0,0.0,0.0,521
522,1695833472141,-0.19140625,0.1328125,0.49609375,12.375,67.84375,13.9375,0.0,0.0,0.0,522
523,1695833472181,-0.22753906,0.09472656,0.44140625,8.53125,114.1875,21.21875,-80.125,16.375,-93.1875,523
524,1695833472221,-0.22460938,0.12109375,0.5107422,-25.65625,96.125,-30.0,0.0,0.0,0.0,524
525,1695833472261,-0.9121094,0.16308594,0.54296875,-2.53125,170.5,-35.125,0.0,0.0,0.0,525
526,1695833472301,-1.0761719,0.41601562,0.26953125,-18.4375,81.53125,-24.28125,0.0,0.0,0.0,526
527,1695833472341,-0.60253906,0.52246094,0.7285156,-78.15625,42.21875,-16.5625,0.0,0.0,0.0,527
528,1695833472381,-0.98535156,0.4111328,-0.22851562,-38.15625,-1.96875,26.4375,0.0,0.0,0.0,528
529,1695833472421,-1.5615234,0.12597656,0.29003906,19.03125,-25.53125,12.53125,0.0,0.0,0.0,529
530,1695833472461,-1.9355469,0.25976562,-0.060546875,-86.125,-36.875,0.6875,0.0,0.0,0.0,530
531,1695833472501,-0.7636719,-0.021484375,0.39648438,13.46875,-50.6875,-9.0,0.0,0.0,0.0,531
532,1695833472541,-0.6582031,0.3515625,0.2861328,35.25,14.21875,-7.0625,0.0,0.0,0.0,532
533,1695833472581,-1.0146484,0.40820312,-0.0048828125,10.1875,81.78125,31.59375,0.0,0.0,0.0,533
534,1695833472621,-1.1435547,0.01171875,0.5546875,38.6875,24.59375,17.78125,0.0,0.0,0.0,534
535,1695833472661,-0.7109375,0.10839844,0.16894531,-56.15625,36.65625,-0.90625,-78.875,17.5625,-107.875,535
536,1695833472701,-0.67871094,-0.061523438,0.3125,-0.03125,26.71875,3.125,0.0,0.0,0.0,536
537,1695833472741,-0.55078125,-0.034179688,0.3671875,-2.8125,7.5625,0.5625,0.0,0.0,0.0,537
538,1695833472781,-0.5439453,-0.11425781,0.21875,7.5625,-1.71875,-4.4375,0.0,0.0,0.0,538
539,1695833472821,-0.5566406,0.020507812,0.29003906,22.375,-7.53125,0.34375,0.0,0.0,0.0,539
540,1695833472861,-0.78222656,0.111328125,-0.020507812,31.34375,-32.125,10.34375,0.0,0.0,0.0,540
541,1695833472901,-1.5322266,0.44628906,0.22167969,13.34375,-84.84375,-11.4375,0.0,0.0,0.0,541
542,1695833472941,-1.4208984,0.5576172,0.22460938,5.21875,-148.625,-14.0625,0.0,0.0,0.0,542
543,1695833472981,-1.1542969,0.78222656,0.7783203,-30.34375,-173.28125,-4.84375,0.0,0.0,0.0,543
544,1695833473021,-1.1708984,0.47460938,0.6269531,-18.8125,-106.78125,7.34375,0.0,0.0,0.0,544
545,1695833473061,-0.8232422,0.047851562,0.65625,-22.71875,-100.25,-8.875,0.0,0.0,0.0,545
546,1695833473101,-0.5625,0.09277344,0.4892578,-8.5625,-22.46875,-3.75,0.0,0.0,0.0,546
547,1695833473141,-0.2890625,0.13867188,0.4267578,8.28125,-3.25,-2.0625,0.0,0.0,0.0,547
548,1695833473181,-0.19238281,0.103515625,0.5263672,19.75,56.0,6.90625,-80.125,16.375,-87.625,548
549,1695833473221,-0.20703125,0.005859375,0.47265625,10.125,77.125,6.5,0.0,0.0,0.0,549
550,1695833473261,-0.3408203,0.0703125,0.45996094,-1.78125,141.15625,-34.875,0.0,0.0,0.0,550
551,1695833473301,-1.3320312,0.14648438,0.44726562,8.59375,216.28125,2.53125,0.0,0.0,0.0,551
552,1695833473341,-0.6660156,0.3798828,0.6386719,-0.09375,49.96875,-16.75,0.0,0.0,0.0,552
553,1695833473381,-1.2832031,0.5673828,0.21972656,-3.1875,-24.625,26.5,0.0,0.0,0.0,553
554,1695833473421,-1.3769531,0.14746094,0.13476562,-24.0,-38.65625,10.09375,0.0,0.0,0.0,554
555,1695833473461,-0.75,0.0390625,0.3232422,-48.46875,-6.5625,-17.0,0.0,0.0,0.0,555
556,1695833473501,-1.5410156,-0.060546875,0.31054688,-10.75,14.875,-0.40625,0.0,0.0,0.0,556
557,1695833473541,-1.1396484,0.19140625,0.3359375,8.21875,10.53125,2.15625,0.0,0.0,0.0,557
558,1695833473581,-0.91015625,0.06542969,0.37890625,59.375,15.71875,-7.25,0.0,0.0,0.0,558
559,1695833473621,-0.81933594,0.28515625,0.28125,32.9375,57.40625,-7.0625,0.0,0.0,0.0,559
560,1695833473661,-0.7089844,0.20019531,0.14453125,45.75,37.6875,15.78125,-79.0625,16.375,-104.3125,560
561,1695833473701,-0.7050781,0.12597656,0.4326172,13.28125,39.46875,23.9375,0.0,0.0,0.0,561
562,1695833473741,-0.70703125,0.016601562,0.296875,-7.40625,33.125,10.15625,0.0,0.0,0.0,562
563,1695833473781,-0.6347656,0.06542969,0.30078125,12.5625,4.5625,13.625,0.0,0.0,0.0,563
564,1695833473821,-0.58203125,-0.046875,0.24414062,25.875,-8.4375,19.25,0.0,0.0,0.0,564
565,1695833473861,-0.61035156,-0.016601562,0.2890625,16.84375,-26.1875,13.21875,0.0,0.0,0.0,565
566,1695833473901,-0.80078125,0.08886719,0.24609375,6.09375,-25.46875,-7.1875,0.0,0.0,0.0,566
567,1695833473941,-1.2695312,0.29492188,0.22851562,-2.59375,-38.84375,-10.90625,0.0,0.0,0.0,567
568,1695833473981,-1.1796875,0.37109375,0.0859375,-3.9375,-83.6875,-23.46875,0.0,0.0,0.0,568
569,1695833474021,-1.3623047,0.54003906,0.42773438,31.0,-147.59375,-10.34375,0.0,0.0,0.0,569
570,1695833474061,-1.0576172,0.6982422,0.60839844,-56.59375,-164.5625,19.3125,0.0,0.0,0.0,570
571,1695833474101,-1.0253906,0.47070312,0.6376953,-1.25,-105.5,2.46875,0.0,0.0,0.0,571
572,1695833474141,-0.5,0.07714844,0.5205078,-22.40625,-31.9375,0.21875,0.0,0.0,0.0,572
573,1695833474181,-0.49902344,0.13378906,0.36523438,-23.625,3.09375,-0.46875,-78.4375,19.0625,-89.625,573
574,1695833474221,-0.2939453,0.08886719,0.49316406,9.125,47.71875,5.59375,0.0,0.0,0.0,574
575,1695833474261,-0.23242188,0.03515625,0.36132812,32.15625,99.09375,0.09375,0.0,0.0,0.0,575
576,1695833474301,-0.3017578,0.13574219,0.42382812,-14.90625,96.0625,-28.84375,0.0,0.0,0.0,576
577,1695833474341,-1.1142578,0.19335938,0.4560547,36.96875,189.375,-9.4375,0.0,0.0,0.0,577
578,1695833474381,-0.79296875,0.47070312,0.6191406,23.59375,53.4375,-15.84375,0.0,0.0,0.0,578
579,1695833474421,-0.8378906,0.26953125,0.64453125,-96.34375,34.09375,1.1875,0.0,0.0,0.0,579
580,1695833474461,-0.88183594,0.84765625,-0.046875,-26.03125,25.75,27.5,0.0,0.0,0.0,580
581,1695833474501,-1.4560547,-0.11328125,-0.34277344,45.75,-3.4375,19.3125,0.0,0.0,0.0,581
582,1695833474541,-1.5654297,0.3828125,0.421875,-99.1875,-16.3125,-8.9375,0.0,0.0,0.0,582
583,1695833474581,-1.1767578,-0.14355469,0.20019531,-68.0625,-28.46875,-27.9375,0.0,0.0,0.0,583
584,1695833474621,-0.75390625,0.19042969,0.15625,8.28125,-20.28125,-17.375,0.0,0.0,0.0,584
585,1695833474661,-0.7714844,0.24121094,0.28027344,65.0,7.84375,-0.84375,-79.5,15.8125,-102.0625,585
586,1695833474701,-1.1396484,0.07714844,0.37597656,10.0625,56.125,6.875,0.0,0.0,0.0,586
587,1695833474741,-0.9238281,0.013671875,0.22167969,12.3125,21.46875,10.15625,0.0,0.0,0.0,587
588,1695833474781,-0.71777344,0.09472656,0.3857422,20.5625,40.3125,1.0625,0.0,0.0,0.0,588
589,1695833474821,-0.7089844,0.21191406,0.2998047,25.625,22.1875,14.78125,0.0,0.0,0.0,589
590,1695833474861,-0.5253906,0.036132812,0.28710938,10.84375,8.46875,18.34375,0.0,0.0,0.0,590
591,1695833474901,-0.5957031,-0.07324219,0.3125,-2.28125,14.875,15.78125,0.0,0.0,0.0,591
592,1695833474941,-0.76171875,-0.1015625,0.107421875,-6.5625,4.5,17.84375,0.0,0.0,0.0,592
593,1695833474981,-1.2832031,0.20605469,0.07324219,20.90625,-42.375,13.09375,0.0,0.0,0.0,593
594,1695833475021,-1.4501953,0.60546875,0.25390625,-23.8125,-104.21875,-27.6875,0.0,0.0,0.0,594
595,1695833475061,-1.2998047,0.7441406,0.4580078,9.875,-205.65625,-27.875,0.0,0.0,0.0,595
596,1695833475101,-0.81640625,0.5625,0.6953125,-24.5,-138.03125,11.4375,0.0,0.0,0.0,596
597,1695833475141,-1.1074219,0.18359375,0.5732422,-9.78125,-107.3125,17.1875,0.0,0.0,0.0,597
598,1695833475181,-0.53515625,0.31445312,0.58984375,0.90625,-69.0625,7.09375,-78.0,18.5,-89.0,598
599,1695833475221,-0.5058594,0.15429688,0.61621094,-2.21875,22.875,-8.53125,0.0,0.0,0.0,599
600,1695833475261,-0.36621094,0.076171875,0.37402344,27.09375,51.6875,1.84375,0.0,0.0,0.0,600
601,1695833475301,-0.28125,0.06738281,0.328125,30.5625,56.75,3.125,0.0,0.0,0.0,601
602,1695833475341,-0.33007812,0.20996094,0.6669922,-9.28125,54.65625,-31.40625,0.0,0.0,0.0,602
603,1695833475381,-0.6171875,0.23242188,0.5253906,-51.53125,184.8125,-28.0,0.0,0.0,0.0,603
604,1695833475421,-1.0498047,0.3388672,0.21191406,5.84375,140.96875,-0.21875,0.0,0.0,0.0,604
605,1695833475461,-0.515625,0.3671875,0.66308594,-8.6875,-12.90625,9.1875,0.0,0.0,0.0,605
606,1695833475501,-0.97558594,0.14160156,0.125,-57.5625,16.28125,17.25,0.0,0.0,0.0,606
607,1695833475541,-1.3330078,0.5185547,-0.017578125,-3.375,38.4375,10.46875,0.0,0.0,0.0,607
608,1695833475581,-1.5546875,0.1484375,0.4501953,43.0625,-27.1875,-4.1875,0.0,0.0,0.0,608
609,1695833475621,-1.4560547,-0.05859375,0.46875,-25.84375,19.09375,-20.90625,0.0,0.0,0.0,609
610,1695833475661,-0.8359375,0.1953125,0.22851562,44.28125,-7.46875,-5.21875,-78.875,16.25,-103.375,610
611,1695833475701,-0.9589844,0.28125,0.2939453,22.875,24.09375,0.15625,0.0,0.0,0.0,611
612,1695833475741,-0.81933594,0.25976562,0.17871094,8.53125,33.5,10.09375,0.0,0.0,0.0,612
613,1695833475781,-0.71777344,0.12988281,0.21191406,-12.53125,39.03125,12.0625,0.0,0.0,0.0,613
614,1695833475821,-0.73339844,0.103515625,0.25,-5.6875,34.84375,9.96875,0.0,0.0,0.0,614
615,1695833475861,-0.5654297,0.03515625,0.26660156,-14.3125,14.15625,14.6875,0.0,0.0,0.0,615
616,1695833475901,-0.57714844,-0.080078125,0.28515625,6.75,0.59375,17.46875,0.0,0.0,0.0,616
617,1695833475941,-0.6425781,-0.12597656,0.21777344,0.90625,7.0,7.84375,0.0,0.0,0.0,617
618,1695833475981,-0.734375,-0.045898438,0.091796875,32.5,-20.34375,1.5625,0.0,0.0,0.0,618
619,1695833476021,-1.4833984,0.4189453,0.21484375,16.21875,-66.53125,-12.5625,0.0,0.0,0.0,619
620,1695833476061,-1.3554688,0.6386719,0.2763672,-19.0,-129.28125,-22.875,0.0,0.0,0.0,620
621,1695833476101,-1.1552734,0.70214844,0.3251953,8.96875,-143.15625,-10.53125,0.0,0.0,0.0,621
622,1695833476141,-1.2773438,0.5488281,0.69921875,-10.09375,-178.59375,31.9375,0.0,0.0,0.0,622
623,1695833476181,-0.99316406,0.34960938,0.61816406,-7.21875,-130.15625,13.9375,-79.375,17.125,-93.9375,623
624,1695833476221,-0.60839844,0.12402344,0.6611328,-24.3125,-20.03125,1.1875,0.0,0.0,0.0,624
625,1695833476261,-0.5214844,0.11230469,0.5371094,-3.5,15.78125,7.90625,0.0,0.0,0.0,625
626,1695833476301,-0.29589844,0.095703125,0.43066406,22.03125,61.625,16.8125,0.0,0.0,0.0,626
627,1695833476341,-0.25976562,0.07714844,0.3857422,24.65625,69.375,8.21875,0.0,0.0,0.0,627
628,1695833476381,-0.28027344,0.19238281,0.59277344,-9.34375,89.9375,-34.59375,0.0,0.0,0.0,628
629,1695833476421,-1.0234375,0.13964844,0.49414062,-4.21875,233.125,-12.4375,0.0,0.0,0.0,629
630,1695833476461,-0.7138672,0.31835938,0.28710938,-33.84375,44.78125,-14.625,0.0,0.0,0.0,630
631,1695833476501,-0.5761719,0.40429688,0.57714844,-19.375,25.8125,3.8125,0.0,0.0,0.0,631
632,1695833476541,-0.9902344,0.6201172,0.23339844,-41.9375,10.96875,18.6875,0.0,0.0,0.0,632
633,1695833476581,-1.4658203,0.14550781,-0.16894531,24.75,-16.375,8.21875,0.0,0.0,0.0,633
634,1695833476621,-1.6201172,0.16699219,0.4140625,-29.25,-38.90625,-3.8125,0.0,0.0,0.0,634
635,1695833476661,-1.1552734,-0.037109375,0.5527344,-28.53125,-22.78125,-18.46875,-77.125,18.0625,-104.4375,635
636,1695833476701,-0.9482422,0.13671875,0.27929688,7.0,-16.9375,-12.4375,0.0,0.0,0.0,636
637,1695833476741,-0.96777344,0.25097656,0.28515625,53.03125,27.5625,4.65625,0.0,0.0,0.0,637
638,1695833476781,-1.0097656,0.31933594,0.2861328,-7.53125,44.40625,9.4375,0.0,0.0,0.0,638
639,1695833476821,-0.8828125,0.14453125,0.34375,-28.8125,42.59375,6.4375,0.0,0.0,0.0,639
640,1695833476861,-0.7216797,0.099609375,0.16699219,-17.96875,37.65625,12.28125,0.0,0.0,0.0,640
641,1695833476901,-0.7216797,0.049804688,0.29492188,12.4375,22.25,14.78125,0.0,0.0,0.0,641
642,1695833476941,-0.5234375,0.02734375,0.25976562,20.84375,10.34375,15.03125,0.0,0.0,0.0,642
643,1695833476981,-0.5136719,-0.099609375,0.24414062,2.53125,9.03125,12.21875,0.0,0.0,0.0,643
644,1695833477021,-0.5722656,-0.087890625,0.044921875,10.34375,2.90625,4.53125,0.0,0.0,0.0,644
645,1695833477061,-0.84277344,0.10546875,0.20507812,-3.9375,-37.0,-1.6875,0.0,0.0,0.0,645
646,1695833477101,-1.4501953,0.43945312,0.18554688,-14.65625,-137.90625,-5.78125,0.0,0.0,0.0,646
647,1695833477141,-1.3330078,0.5019531,0.20605469,46.0625,-225.34375,-18.90625,0.0,0.0,0.0,647
648,1695833477181,-1.1708984,0.82421875,0.92578125,-13.6875,-239.21875,34.15625,-80.375,20.0,-96.375,648
649,1695833477221,-1.03125,0.37402344,0.7080078,-2.875,-116.03125,0.5625,0.0,0.0,0.0,649
650,1695833477261,-0.6640625,0.25878906,0.6455078,-50.3125,-77.34375,-0.03125,0.0,0.0,0.0,650
651,1695833477301,-0.71484375,0.23535156,0.66503906,-31.03125,0.96875,-4.5,0.0,0.0,0.0,651
652,1695833477341,-0.4326172,0.1640625,0.6933594,15.4375,15.90625,-0.65625,0.0,0.0,0.0,652
653,1695833477381,-0.2861328,0.13671875,0.6748047,8.21875,73.21875,3.5,0.0,0.0,0.0,653
654,1695833477421,-0.20214844,0.040039062,0.44628906,-5.875,109.125,8.09375,0.0,0.0,0.0,654
655,1695833477461,-0.20410156,0.0029296875,0.296875,2.1875,116.0625,25.53125,0.0,0.0,0.0,655
656,1695833477501,-0.796875,0.14550781,0.5048828,11.6875,171.25,-24.875,0.0,0.0,0.0,656
657,1695833477541,-1.171875,0.36914062,0.5878906,-8.8125,129.0,7.09375,0.0,0.0,0.0,657
658,1695833477581,-0.48339844,0.40234375,0.515625,19.6875,19.5625,-6.5625,0.0,0.0,0.0,658
659,1695833477621,-0.7939453,0.29101562,0.15917969,-99.5625,53.3125,12.28125,0.0,0.0,0.0,659
660,1695833477661,-1.4101562,0.4326172,-0.43652344,-32.25,51.8125,2.46875,-78.4375,19.0625,-104.125,660
661,1695833477701,-1.1591797,0.33691406,0.52246094,26.59375,-11.125,1.125,0.0,0.0,0.0,661
662,1695833477741,-1.5117188,-0.21679688,0.41503906,-76.5,17.75,-23.21875,0.0,0.0,0.0,662
663,1695833477781,-0.90527344,0.026367188,0.33984375,11.53125,-18.875,-12.375,0.0,0.0,0.0,663
664,1695833477821,-1.0019531,0.15917969,0.3798828,53.5625,6.21875,-2.46875,0.0,0.0,0.0,664
665,1695833477861,-0.7988281,0.2705078,0.19335938,16.78125,46.90625,12.84375,0.0,0.0,0.0,665
666,1695833477901,-0.8720703,0.21777344,0.25097656,38.875,35.25,14.96875,0.0,0.0,0.0,666
667,1695833477941,-0.58496094,0.16601562,0.3671875,-31.9375,44.59375,13.40625,0.0,0.0,0.0,667
668,1695833477981,-0.671875,0.0625,0.26953125,-21.6875,33.78125,14.0,0.0,0.0,0.0,668
669,1695833478021,-0.64453125,-0.15625,0.24414062,-23.40625,7.5,9.78125,0.0,0.0,0.0,669
670,1695833478061,-0.60058594,-0.25,0.111328125,23.96875,-7.59375,7.40625,0.0,0.0,0.0,670
671,1695833478101,-0.64453125,-0.1015625,0.24902344,56.875,-36.6875,12.90625,0.0,0.0,0.0,671
672,1695833478141,-1.1445312,0.16699219,0.08496094,64.625,-53.0,-0.03125,0.0,0.0,0.0,672
673,1695833478181,-1.4921875,0.78125,0.20214844,5.15625,-85.90625,-28.46875,-77.25,20.0,-106.375,673
674,1695833478221,-1.4960938,0.7636719,0.31054688,8.71875,-118.25,-51.5625,0.0,0.0,0.0,674
675,1695833478261,-1.1220703,0.6230469,0.3701172,-41.75,-112.75,-10.59375,0.0,0.0,0.0,675
676,1695833478301,-1.0341797,0.2939453,0.5253906,30.0,-142.34375,26.28125,0.0,0.0,0.0,676
677,1695833478341,-0.84472656,0.047851562,0.64941406,-13.03125,-113.0,-2.71875,0.0,0.0,0.0,677
678,1695833478381,-0.546875,0.29101562,0.49804688,1.5625,-5.625,-0.53125,0.0,0.0,0.0,678
679,1695833478421,-0.4169922,0.17382812,0.4189453,32.40625,41.0,-2.34375,0.0,0.0,0.0,679
680,1695833478461,-0.2890625,0.09082031,0.35839844,47.53125,42.9375,5.875,0.0,0.0,0.0,680
681,1695833478501,-0.125,0.016601562,0.4140625,8.46875,42.40625,-22.9375,0.0,0.0,0.0,681
682,1695833478541,-0.30859375,0.041992188,0.44921875,-18.09375,191.9375,-50.9375,0.0,0.0,0.0,682
683,1695833478581,-1.2421875,0.31152344,0.16210938,-29.1875,180.59375,6.875,0.0,0.0,0.0,683
684,1695833478621,-0.8076172,0.765625,0.5,-62.8125,51.4375,-18.21875,0.0,0.0,0.0,684
685,1695833478661,-1.3242188,0.56152344,0.08105469,-20.28125,-13.125,24.9375,-78.875,18.8125,-106.125,685
686,1695833478701,-1.4208984,0.08691406,-0.076171875,-24.25,-24.96875,12.90625,0.0,0.0,0.0,686
687,1695833478741,-1.3642578,0.032226562,0.546875,29.34375,-6.5,-6.9375,0.0,0.0,0.0,687
688,1695833478781,-1.4306641,0.0087890625,0.27441406,-42.9375,-1.53125,-14.5,0.0,0.0,0.0,688
689,1695833478821,-0.9951172,0.12109375,0.37304688,39.90625,-5.875,-4.0,0.0,0.0,0.0,689
690,1695833478861,-0.8574219,0.10449219,0.33691406,63.59375,13.59375,1.1875,0.0,0.0,0.0,690
691,1695833478901,-0.70214844,0.2939453,0.36621094,10.71875,39.15625,3.5,0.0,0.0,0.0,691
692,1695833478941,-0.80078125,0.072265625,0.22753906,-5.9375,33.1875,14.25,0.0,0.0,0.0,692
693,1695833478981,-0.58496094,0.028320312,0.23339844,32.03125,31.15625,5.09375,0.0,0.0,0.0,693
694,1695833479021,-0.5683594,-0.02734375,0.15527344,9.25,14.8125,17.65625,0.0,0.0,0.0,694
695,1695833479061,-0.671875,-0.0107421875,0.23144531,4.125,4.625,14.4375,0.0,0.0,0.0,695
696,1695833479101,-0.6533203,-0.0703125,0.13378906,15.71875,-3.75,6.375,0.0,0.0,0.0,696
697,1695833479141,-0.95996094,0.025390625,0.078125,39.34375,-30.59375,-2.96875,0.0,0.0,0.0,697
698,1695833479181,-1.3310547,0.47558594,0.140625,23.1875,-68.8125,-13.78125,-77.6875,19.8125,-109.25,698
699,1695833479221,-1.5419922,0.5654297,0.16699219,-39.03125,-121.46875,-25.78125,0.0,0.0,0.0,699
700,1695833479261,-1.2578125,0.7314453,0.65722656,-59.34375,-150.34375,-46.71875,0.0,0.0,0.0,700
701,1695833479301,-1.2480469,0.4501953,0.3720703,15.0,-154.3125,39.03125,0.0,0.0,0.0,701
702,1695833479341,-0.6972656,-0.024414062,0.53027344,11.28125,-191.71875,-17.6875,0.0,0.0,0.0,702
703,1695833479381,-0.47558594,0.1171875,0.5605469,5.84375,-33.34375,8.5,0.0,0.0,0.0,703
704,1695833479421,-0.34472656,0.14550781,0.46679688,37.03125,47.53125,6.8125,0.0,0.0,0.0,704
705,1695833479461,-0.34375,0.16210938,0.4189453,43.375,102.78125,9.1875,0.0,0.0,0.0,705
706,1695833479501,-0.32128906,0.0146484375,0.6591797,13.84375,94.71875,-30.6875,0.0,0.0,0.0,706
707,1695833479541,-0.40234375,0.0546875,0.3173828,4.25,112.40625,-42.75,0.0,0.0,0.0,707
708,1695833479581,-0.8359375,0.39648438,0.12890625,28.0,194.125,-1.6875,0.0,0.0,0.0,708
709,1695833479621,-0.8691406,0.5878906,0.5185547,-47.3125,-21.8125,-10.15625,0.0,0.0,0.0,709
710,1695833479661,-1.2119141,0.45703125,-0.033203125,-1.0625,55.03125,49.34375,-78.4375,17.5625,-104.75,710
711,1695833479701,-1.5234375,0.22851562,0.19140625,-49.34375,-14.1875,11.375,0.0,0.0,0.0,711
712,1695833479741,-1.5537109,-0.015625,0.49804688,1.9375,-13.375,-8.21875,0.0,0.0,0.0,712
713,1695833479781,-1.1035156,0.15332031,0.2578125,-44.875,-14.0625,-16.6875,0.0,0.0,0.0,713
714,1695833479821,-0.88378906,0.16308594,0.37695312,49.53125,-11.1875,-3.15625,0.0,0.0,0.0,714
715,1695833479861,-1.0615234,0.10449219,0.35839844,62.25,34.21875,8.6875,0.0,0.0,0.0,715
716,1695833479901,-0.83691406,0.21679688,0.16894531,14.9375,62.96875,9.5,0.0,0.0,0.0,716
717,1695833479941,-0.8203125,0.16210938,0.3046875,8.40625,36.90625,9.4375,0.0,0.0,0.0,717
718,1695833479981,-0.58496094,0.09082031,0.25585938,6.15625,39.59375,7.15625,0.0,0.0,0.0,718
719,1695833480021,-0.6035156,0.095703125,0.17480469,26.90625,29.59375,10.78125,0.0,0.0,0.0,719
720,1695833480061,-0.51660156,0.005859375,0.20703125,17.4375,15.78125,16.375,0.0,0.0,0.0,720
721,1695833480101,-0.6894531,0.021484375,0.30371094,11.40625,19.6875,12.71875,0.0,0.0,0.0,721
722,1695833480141,-0.8388672,-0.1953125,-0.015625,37.09375,12.6875,9.90625,0.0,0.0,0.0,722
723,1695833480181,-1.2949219,0.25097656,0.18261719,18.65625,-57.6875,-10.53125,-77.125,18.3125,-113.75,723
724,1695833480221,-1.3105469,0.76171875,0.3154297,-71.625,-149.6875,-14.625,0.0,0.0,0.0,724
725,1695833480261,-0.046875,0.060546875,0.60839844,-30.90625,-8.5,4.84375,0.0,0.0,0.0,751
726,1695833480301,-0.1015625,-0.08105469,0.3173828,-1.1875,48.125,2.78125,0.0,0.0,0.0,752
727,1695833480341,0.076171875,-0.048828125,0.27246094,15.25,65.03125,-6.125,0.0,0.0,0.0,753
728,1695833480381,0.06640625,0.041992188,0.375,18.46875,100.3125,0.4375,-78.4375,19.375,-87.5,754
729,1695833480421,-0.7207031,0.18945312,0.58984375,25.4375,169.21875,-20.53125,0.0,0.0,0.0,755
730,1695833480461,-1.3857422,0.25878906,0.5136719,40.9375,152.8125,-28.96875,0.0,0.0,0.0,756
731,1695833480501,-0.57910156,0.4296875,0.45898438,-9.71875,37.34375,-18.78125,0.0,0.0,0.0,757
732,1695833480541,-0.9970703,0.78027344,0.0234375,-92.78125,69.375,35.125,0.0,0.0,0.0,758
733,1695833480581,-1.9355469,0.3544922,0.08984375,-45.625,-23.28125,20.53125,0.0,0.0,0.0,759
734,1695833480621,-1.1787109,-0.22851562,0.34960938,-16.6875,6.21875,-37.09375,0.0,0.0,0.0,760
735,1695833480661,-0.8984375,0.0029296875,0.16113281,9.375,2.84375,-25.0625,0.0,0.0,0.0,761
736,1695833480701,-0.9550781,0.52734375,0.37695312,73.15625,20.0625,1.90625,0.0,0.0,0.0,762
737,1695833480741,-0.9609375,0.16210938,0.38867188,18.53125,68.53125,21.75,0.0,0.0,0.0,763
738,1695833480781,-0.8203125,0.21386719,0.29589844,-27.96875,49.65625,14.96875,0.0,0.0,0.0,764
739,1695833480821,-0.6582031,0.044921875,0.27929688,-2.875,50.34375,10.46875,0.0,0.0,0.0,765
740,1695833480861,-0.60839844,-0.01171875,0.32421875,7.5625,34.34375,13.4375,0.0,0.0,0.0,766
741,1695833480901,-0.6611328,-0.0048828125,0.203125,10.34375,22.125,12.71875,-78.875,20.875,-108.1875,767
742,1695833480941,-0.5449219,-0.009765625,0.24609375,39.53125,-7.65625,12.46875,0.0,0.0,0.0,768
743,1695833480981,-0.5839844,0.06738281,0.38085938,10.3125,-11.4375,6.96875,0.0,0.0,0.0,769
744,1695833481021,-0.7910156,-0.15136719,0.17773438,22.6875,-20.28125,6.0625,0.0,0.0,0.0,770
745,1695833481061,-1.2460938,0.21777344,-0.0107421875,35.03125,-70.4375,-2.90625,0.0,0.0,0.0,771
746,1695833481101,-1.359375,0.6064453,0.03515625,12.25,-133.25,-21.71875,0.0,0.0,0.0,772
747,1695833481141,-1.4482422,0.9160156,0.66796875,3.34375,-184.65625,-39.71875,0.0,0.0,0.0,773
748,1695833481181,-1.0927734,0.6826172,0.7128906,-5.5625,-135.9375,15.65625,0.0,0.0,0.0,774
749,1695833481221,-0.99609375,0.06738281,0.6064453,-20.40625,-110.5625,-15.125,0.0,0.0,0.0,775
750,1695833481261,-0.6171875,0.14160156,0.578125,-22.1875,-80.53125,9.25,0.0,0.0,0.0,776
751,1695833481301,-0.40625,0.08496094,0.49902344,8.59375,11.59375,-19.75,0.0,0.0,0.0,777
752,1695833481341,-0.296875,0.09667969,0.421875,33.3125,68.09375,2.09375,0.0,0.0,0.0,778
753,1695833481381,-0.24414062,0.044921875,0.43554688,31.15625,91.0625,-5.84375,-80.875,17.875,-90.8125,779
754,1695833481421,-0.3623047,0.06933594,0.45703125,1.5,129.375,-40.1875,0.0,0.0,0.0,780
755,1695833481461,-1.1601562,0.16113281,0.23535156,3.65625,254.5,1.5,0.0,0.0,0.0,781
756,1695833481501,-0.65722656,0.49316406,0.17578125,-99.8125,82.1875,-31.03125,0.0,0.0,0.0,782
757,1695833481541,-0.45703125,0.51464844,0.7685547,84.75,-50.625,13.28125,0.0,0.0,0.0,783
758,1695833481581,-1.2294922,0.20117188,-0.060546875,-99.3125,37.15625,33.46875,0.0,0.0,0.0,784
759,1695833481621,-1.4658203,0.48339844,-0.4873047,3.875,-1.78125,3.0625,0.0,0.0,0.0,785
