# Sensor type: 'Thingy'
# Activity type: Descending stairs
# Activity subtype: Normal
# Subject id: s1919579
# Notes: 
timestamp,accel_x,accel_y,accel_z,gyro_x,gyro_y,gyro_z,mag_x,mag_y,mag_z
1695833446422,-1.8085938,0.8515625,0.12109375,42.53125,-53.90625,21.8125,0.0,0.0,0.0
1695833446460,-1.9355469,-0.1640625,0.13085938,-77.90625,-75.625,35.1875,-71.25,9.5,-105.0625
1695833446502,-0.5253906,0.034179688,0.71777344,35.4375,-46.96875,-29.625,0.0,0.0,0.0
1695833446541,-1.0146484,0.2783203,0.45410156,-18.9375,47.90625,-16.03125,0.0,0.0,0.0
1695833446580,-1.0576172,0.24511719,0.115234375,33.3125,77.9375,5.15625,0.0,0.0,0.0
1695833446621,-0.875,0.25878906,0.27539062,70.28125,46.4375,3.9375,0.0,0.0,0.0
1695833446660,-0.67871094,0.2109375,0.30566406,-9.34375,51.0,-7.25,0.0,0.0,0.0
1695833446700,-0.58984375,0.3173828,0.28125,-21.25,63.34375,-2.28125,0.0,0.0,0.0
1695833446740,-0.640625,0.080078125,0.3701172,-2.28125,48.875,-1.0625,0.0,0.0,0.0
1695833446780,-0.6308594,0.09863281,0.328125,-28.03125,33.375,12.21875,0.0,0.0,0.0
1695833446821,-0.8027344,-9.765625E-4,0.27441406,-20.90625,15.25,13.40625,0.0,0.0,0.0
1695833446861,-0.73046875,-0.103515625,0.11328125,-6.78125,-5.5,1.5,0.0,0.0,0.0
1695833446901,-0.60546875,-0.0087890625,0.25878906,55.71875,-34.5625,0.8125,0.0,0.0,0.0
1695833446961,-0.9003906,0.20703125,-0.056640625,33.375,-32.78125,2.65625,-70.1875,12.3125,-111.0625
1695833446981,-1.578125,0.57910156,0.19433594,41.375,-125.5625,-22.1875,0.0,0.0,0.0
1695833447020,-1.3994141,0.8359375,0.024414062,40.28125,-201.5625,-3.6875,0.0,0.0,0.0
1695833447061,-0.8691406,0.7246094,1.0234375,2.125,-193.75,23.84375,0.0,0.0,0.0
1695833447102,-1.1738281,0.484375,0.47070312,-61.0625,-88.46875,31.34375,0.0,0.0,0.0
1695833447141,-0.7363281,0.056640625,0.71972656,-15.40625,-103.53125,9.3125,0.0,0.0,0.0
1695833447181,-0.6074219,0.19335938,0.6142578,7.125,-22.59375,2.09375,0.0,0.0,0.0
1695833447221,-0.33691406,0.21386719,0.4580078,27.15625,36.0,-0.9375,0.0,0.0,0.0
1695833447261,-0.18359375,0.15917969,0.4140625,21.53125,83.34375,11.4375,0.0,0.0,0.0
1695833447301,-0.25585938,0.20214844,0.39160156,8.71875,87.875,6.96875,0.0,0.0,0.0
1695833447341,-0.5800781,0.16992188,0.45214844,1.4375,134.9375,-58.09375,0.0,0.0,0.0
1695833447381,-0.83203125,0.24804688,0.5175781,-14.1875,132.78125,-29.09375,0.0,0.0,0.0
1695833447421,-0.66503906,0.3095703,0.27148438,6.5,81.03125,-29.9375,-72.0,13.6875,-104.75
1695833447460,-0.6425781,0.21679688,0.50097656,-7.59375,4.8125,-25.25,0.0,0.0,0.0
1695833447501,-0.66503906,0.47460938,0.26953125,-14.40625,27.21875,-19.09375,0.0,0.0,0.0
1695833447541,-1.2509766,0.45410156,0.3466797,82.0,-38.84375,9.96875,0.0,0.0,0.0
1695833447582,-1.9355469,0.18066406,0.13769531,-123.6875,21.53125,4.65625,0.0,0.0,0.0
1695833447621,-1.5576172,-0.1796875,0.32421875,7.1875,-9.0,-5.59375,0.0,0.0,0.0
1695833447661,-0.9746094,-0.028320312,0.16992188,-25.90625,-16.0625,-16.21875,0.0,0.0,0.0
1695833447720,-0.7919922,0.4248047,0.35839844,78.59375,20.0625,-27.5625,0.0,0.0,0.0
1695833447742,-0.9394531,0.25195312,0.31933594,46.3125,40.03125,2.28125,0.0,0.0,0.0
1695833447780,-0.78515625,0.1484375,0.17382812,-41.09375,52.90625,11.0625,0.0,0.0,0.0
1695833447820,-0.7314453,0.13867188,0.140625,-10.40625,38.5625,17.3125,0.0,0.0,0.0
1695833447861,-0.8076172,0.047851562,0.4375,11.9375,36.0,10.875,0.0,0.0,0.0
1695833447900,-0.64453125,0.024414062,0.39160156,-19.71875,32.875,10.15625,0.0,0.0,0.0
1695833447941,-0.65625,-0.12597656,0.18652344,-3.3125,17.875,12.59375,-75.3125,9.0625,-117.5
1695833447980,-0.49023438,-0.033203125,0.18554688,10.84375,-0.375,15.96875,0.0,0.0,0.0
1695833448021,-0.6982422,-0.013671875,0.20019531,6.40625,-6.0625,10.8125,0.0,0.0,0.0
1695833448062,-0.86035156,0.016601562,0.01953125,29.84375,-30.84375,4.34375,0.0,0.0,0.0
1695833448102,-1.5527344,0.35742188,0.12207031,25.5,-101.875,-4.0,0.0,0.0,0.0
1695833448140,-1.2646484,0.65625,-0.23046875,65.96875,-158.84375,-20.25,0.0,0.0,0.0
1695833448181,-1.1279297,0.8984375,0.82910156,-14.0,-231.34375,10.59375,0.0,0.0,0.0
1695833448222,-1.1699219,0.7011719,0.609375,-46.34375,-127.28125,32.6875,0.0,0.0,0.0
1695833448261,-1.1357422,0.034179688,0.73535156,-40.84375,-142.65625,-13.03125,0.0,0.0,0.0
1695833448320,-0.63378906,0.1171875,0.71875,-19.4375,-51.96875,1.6875,0.0,0.0,0.0
1695833448341,-0.29589844,0.15429688,0.5996094,5.28125,38.96875,-3.625,0.0,0.0,0.0
1695833448381,-0.33496094,0.1015625,0.43359375,4.1875,87.03125,17.96875,0.0,0.0,0.0
1695833448420,-0.14746094,0.036132812,0.30664062,18.21875,81.40625,6.875,-80.25,4.375,-95.125
1695833448482,-0.19238281,0.14453125,0.47070312,8.46875,113.4375,-34.8125,0.0,0.0,0.0
1695833448500,-1.0615234,0.18164062,0.4033203,17.375,202.1875,-15.28125,0.0,0.0,0.0
1695833448540,-0.67871094,0.4453125,0.13183594,-24.75,60.46875,-14.3125,0.0,0.0,0.0
1695833448581,-0.6582031,0.36621094,0.93359375,-4.21875,8.84375,-15.21875,0.0,0.0,0.0
1695833448620,-1.2070312,0.53222656,-0.16015625,-101.53125,33.5,-6.3125,0.0,0.0,0.0
1695833448662,-1.4658203,0.091796875,-0.16992188,9.03125,-9.0,-1.375,0.0,0.0,0.0
1695833448702,-1.90625,0.11816406,0.15820312,-3.4375,-1.40625,12.96875,0.0,0.0,0.0
1695833448740,-0.97753906,0.018554688,0.22265625,-2.15625,-10.6875,-1.3125,0.0,0.0,0.0
1695833448781,-0.7158203,0.17578125,0.29785156,15.4375,-2.75,-9.8125,0.0,0.0,0.0
1695833448821,-1.046875,0.28515625,0.12402344,-20.59375,62.3125,7.71875,0.0,0.0,0.0
1695833448860,-1.0322266,0.16015625,0.26171875,2.1875,39.34375,17.90625,0.0,0.0,0.0
1695833448901,-0.78515625,0.23144531,0.18457031,-5.875,24.9375,11.6875,0.0,0.0,0.0
1695833448941,-0.75390625,0.14941406,0.29492188,-8.25,29.34375,17.84375,-74.125,4.8125,-113.4375
1695833448981,-0.6484375,0.045898438,0.29003906,-23.875,22.9375,17.125,0.0,0.0,0.0
1695833449020,-0.6328125,-0.053710938,0.25097656,1.625,15.1875,14.5,0.0,0.0,0.0
1695833449060,-0.5126953,-0.07910156,0.09277344,25.3125,5.90625,11.4375,0.0,0.0,0.0
1695833449100,-0.5966797,0.0029296875,0.1171875,34.53125,7.96875,13.03125,0.0,0.0,0.0
1695833449141,-0.8232422,-0.022460938,0.1875,25.625,10.78125,3.3125,0.0,0.0,0.0
1695833449181,-0.75683594,0.24414062,0.12597656,-13.25,-39.1875,-0.9375,0.0,0.0,0.0
1695833449242,-1.4414062,0.4921875,0.19921875,-44.03125,-134.1875,-5.53125,0.0,0.0,0.0
1695833449261,-1.4716797,0.53808594,0.08691406,83.53125,-207.34375,-30.75,0.0,0.0,0.0
1695833449300,-1.1416016,0.8671875,0.80859375,-77.46875,-226.15625,24.25,0.0,0.0,0.0
1695833449341,-1.234375,0.51953125,0.6699219,40.3125,-129.21875,3.25,0.0,0.0,0.0
1695833449381,-0.5371094,0.1328125,0.6767578,-21.9375,-107.75,15.40625,0.0,0.0,0.0
1695833449423,-0.64453125,0.23046875,0.7060547,-14.3125,-23.625,2.40625,-75.625,9.8125,-89.125
1695833449461,-0.30566406,0.033203125,0.55859375,31.125,79.28125,-4.1875,0.0,0.0,0.0
1695833449502,-0.23535156,0.005859375,0.3623047,21.40625,123.59375,6.96875,0.0,0.0,0.0
1695833449541,-0.24707031,0.14453125,0.546875,18.0625,55.28125,-15.96875,0.0,0.0,0.0
1695833449581,-0.5878906,0.14941406,0.5410156,-20.84375,175.875,-50.03125,0.0,0.0,0.0
1695833449621,-1.0595703,0.3515625,0.13476562,-0.3125,202.875,-11.5625,0.0,0.0,0.0
1695833449661,-0.73339844,0.36816406,0.32714844,-30.40625,20.25,-17.84375,0.0,0.0,0.0
1695833449701,-0.71484375,0.44433594,0.5986328,-20.90625,32.8125,2.21875,0.0,0.0,0.0
1695833449741,-0.9267578,0.45214844,0.080078125,-53.46875,14.21875,17.40625,0.0,0.0,0.0
1695833449781,-1.3632812,0.2265625,-0.015625,-6.3125,-31.03125,0.5,0.0,0.0,0.0
1695833449821,-1.9355469,-0.0078125,0.3017578,-21.6875,-32.90625,-2.96875,0.0,0.0,0.0
1695833449861,-0.82421875,-0.016601562,0.3251953,-20.40625,-43.15625,-10.46875,0.0,0.0,0.0
1695833449901,-0.8613281,0.27148438,0.2861328,40.28125,0.71875,-10.03125,0.0,0.0,0.0
1695833449941,-1.1679688,0.23925781,0.25976562,33.5625,68.09375,7.84375,-74.6875,9.9375,-106.6875
1695833450000,-1.1191406,0.13769531,0.42382812,-7.15625,46.6875,3.1875,0.0,0.0,0.0
1695833450021,-0.68066406,0.18359375,0.15917969,7.96875,28.71875,6.75,0.0,0.0,0.0
1695833450060,-0.7685547,0.09472656,0.2705078,35.5625,23.53125,13.40625,0.0,0.0,0.0
1695833450101,-0.5810547,0.20019531,0.4267578,-2.15625,20.0,12.53125,0.0,0.0,0.0
1695833450141,-0.54003906,-0.080078125,0.11035156,-16.75,12.25,21.375,0.0,0.0,0.0
1695833450181,-0.42089844,-0.07324219,0.15527344,9.8125,2.4375,24.5,0.0,0.0,0.0
1695833450221,-0.68652344,-0.017578125,0.23535156,21.84375,-2.21875,20.34375,0.0,0.0,0.0
1695833450261,-1.0751953,0.072265625,-0.009765625,28.96875,-6.375,-0.21875,0.0,0.0,0.0
1695833450301,-1.5478516,0.62402344,0.22460938,-4.15625,-70.28125,-28.78125,0.0,0.0,0.0
1695833450341,-1.3525391,0.6191406,0.12402344,15.3125,-126.96875,-19.25,0.0,0.0,0.0
1695833450381,-1.1083984,0.6591797,0.49804688,-6.78125,-124.96875,-14.125,0.0,0.0,0.0
1695833450421,-1.1142578,0.5107422,0.38085938,19.5,-121.46875,36.21875,-75.75,11.75,-102.1875
1695833450461,-0.85058594,0.19042969,0.53515625,-3.6875,-142.84375,-18.46875,0.0,0.0,0.0
1695833450500,-0.5830078,0.09472656,0.4873047,-20.15625,-24.625,6.0,0.0,0.0,0.0
1695833450541,-0.3330078,0.12109375,0.41601562,-12.40625,10.125,-2.28125,0.0,0.0,0.0
1695833450581,-0.29882812,0.2109375,0.39453125,-1.90625,62.125,6.125,0.0,0.0,0.0
1695833450626,-0.16015625,0.07324219,0.4892578,-7.78125,65.15625,-10.78125,0.0,0.0,0.0
1695833450661,-0.31347656,0.10449219,0.5644531,-21.0625,129.3125,-33.84375,0.0,0.0,0.0
1695833450701,-1.3632812,0.12402344,0.12109375,-8.9375,187.125,24.25,0.0,0.0,0.0
1695833450762,-0.81152344,0.421875,0.2861328,-5.8125,88.65625,-9.5625,0.0,0.0,0.0
1695833450781,-0.70703125,0.4091797,1.0830078,-82.21875,-10.03125,12.90625,0.0,0.0,0.0
1695833450824,-1.5810547,0.40039062,-0.4033203,-22.96875,-12.59375,11.0625,0.0,0.0,0.0
1695833450861,-1.1904297,0.19140625,0.3642578,-37.375,-42.5,-11.4375,0.0,0.0,0.0
1695833450901,-1.1210938,-0.08105469,0.375,25.5625,-11.84375,-1.625,0.0,0.0,0.0
1695833450942,-1.2558594,-0.061523438,0.34765625,-23.34375,15.78125,-12.84375,-71.875,11.4375,-104.3125
1695833450980,-1.0673828,0.13574219,0.3203125,39.96875,19.09375,1.0625,0.0,0.0,0.0
1695833451021,-0.9277344,0.24121094,0.36523438,70.125,22.4375,4.96875,0.0,0.0,0.0
1695833451062,-0.7675781,0.2265625,0.25585938,30.4375,31.71875,4.53125,0.0,0.0,0.0
1695833451105,-0.68847656,0.24023438,0.25390625,26.84375,31.90625,7.40625,0.0,0.0,0.0
1695833451141,-0.6542969,0.12109375,0.3154297,0.59375,33.0,5.15625,0.0,0.0,0.0
1695833451181,-0.69921875,0.028320312,0.38476562,27.03125,8.71875,9.125,0.0,0.0,0.0
1695833451221,-0.6142578,-0.05078125,0.10058594,11.9375,-6.59375,9.84375,0.0,0.0,0.0
1695833451261,-0.4716797,0.044921875,0.32128906,25.1875,-18.3125,14.25,0.0,0.0,0.0
1695833451302,-0.67871094,-0.029296875,0.20800781,-26.5625,-11.8125,15.96875,0.0,0.0,0.0
1695833451346,-1.2568359,0.17578125,0.064453125,19.8125,-76.0625,4.25,0.0,0.0,0.0
1695833451381,-1.5009766,0.6533203,0.3232422,-45.4375,-124.90625,-23.96875,0.0,0.0,0.0
1695833451421,-1.4677734,1.0742188,0.42382812,13.96875,-170.375,-14.75,-71.875,13.5625,-104.3125
1695833451461,-1.1025391,0.6435547,0.6113281,2.5,-164.03125,14.78125,0.0,0.0,0.0
1695833451522,-0.9326172,0.18945312,0.7421875,-38.46875,-104.6875,2.65625,0.0,0.0,0.0
1695833451541,-0.6347656,0.119140625,0.59765625,-22.0,-37.25,13.40625,0.0,0.0,0.0
1695833451581,-0.38671875,0.06738281,0.46289062,7.5,8.03125,-6.5,0.0,0.0,0.0
1695833451621,-0.21679688,0.12695312,0.46679688,27.25,82.1875,3.875,0.0,0.0,0.0
1695833451660,-0.25976562,0.046875,0.35058594,24.75,80.0,11.75,0.0,0.0,0.0
1695833451701,-0.18554688,0.09667969,0.5214844,-2.53125,66.375,-44.84375,0.0,0.0,0.0
1695833451742,-0.8720703,0.19628906,0.43652344,-0.125,257.71875,-16.8125,0.0,0.0,0.0
1695833451782,-0.8701172,0.2890625,0.0703125,-49.5625,97.28125,-13.90625,0.0,0.0,0.0
1695833451821,-0.63378906,0.6123047,0.8984375,-16.9375,-8.5625,1.375,0.0,0.0,0.0
1695833451860,-1.328125,0.57421875,-0.3232422,-60.4375,40.8125,34.21875,0.0,0.0,0.0
1695833451901,-1.7929688,0.45214844,0.5048828,-3.125,-55.125,18.59375,0.0,0.0,0.0
1695833451941,-1.4365234,-0.18066406,0.09375,-22.53125,-24.0625,2.53125,-72.125,13.8125,-106.375
1695833451981,-0.65722656,-0.0029296875,0.53125,28.84375,-24.90625,-18.34375,0.0,0.0,0.0
1695833452021,-1.0546875,0.10839844,0.2548828,-21.9375,31.21875,-11.75,0.0,0.0,0.0
1695833452061,-1.0458984,0.23925781,0.23339844,45.03125,46.96875,0.75,0.0,0.0,0.0
1695833452101,-0.77734375,0.18554688,0.27539062,17.3125,31.125,9.5,0.0,0.0,0.0
1695833452141,-0.60253906,0.24121094,0.21679688,6.09375,39.90625,16.75,0.0,0.0,0.0
1695833452180,-0.6669922,0.09863281,0.30078125,-3.375,28.78125,15.96875,0.0,0.0,0.0
1695833452221,-0.7236328,0.09863281,0.26171875,-19.1875,14.875,15.78125,0.0,0.0,0.0
1695833452281,-0.6845703,-0.22070312,0.15820312,2.25,12.375,3.75,0.0,0.0,0.0
1695833452301,-0.63183594,-0.018554688,0.1484375,-9.28125,-1.40625,4.78125,0.0,0.0,0.0
1695833452340,-0.6748047,-0.056640625,0.2265625,11.21875,-24.90625,1.625,0.0,0.0,0.0
1695833452381,-0.9716797,0.09472656,0.030273438,-0.25,-48.53125,5.46875,0.0,0.0,0.0
1695833452421,-1.5224609,0.5449219,0.20996094,-12.40625,-115.625,-18.96875,-72.875,16.6875,-111.5
1695833452462,-1.3837891,0.6464844,0.18945312,27.625,-160.40625,-24.8125,0.0,0.0,0.0
1695833452499,-1.0830078,0.70996094,0.7216797,-25.65625,-171.84375,3.0,0.0,0.0,0.0
1695833452541,-1.0253906,0.37695312,0.52441406,25.875,-90.15625,2.84375,0.0,0.0,0.0
1695833452581,-0.66015625,0.040039062,0.63671875,1.75,-69.96875,-6.1875,0.0,0.0,0.0
1695833452621,-0.58496094,0.25878906,0.5810547,-1.0625,14.25,1.71875,0.0,0.0,0.0
1695833452661,-0.4375,0.18066406,0.546875,19.28125,76.09375,7.40625,0.0,0.0,0.0
1695833452701,-0.3876953,0.095703125,0.36523438,-0.09375,74.25,-5.21875,0.0,0.0,0.0
1695833452742,-0.3232422,0.087890625,0.359375,5.59375,69.6875,-31.78125,0.0,0.0,0.0
1695833452780,-0.7285156,0.16113281,0.4140625,-11.4375,178.15625,-28.40625,0.0,0.0,0.0
1695833452821,-0.9277344,0.34375,0.11035156,-9.59375,76.34375,-2.46875,0.0,0.0,0.0
1695833452862,-0.6191406,0.42382812,0.7216797,3.71875,-2.28125,1.625,0.0,0.0,0.0
1695833452900,-0.7578125,0.2626953,0.041992188,-94.5625,51.75,8.25,0.0,0.0,0.0
1695833452940,-1.1982422,0.484375,-0.033203125,29.21875,11.28125,26.625,-75.875,15.1875,-113.125
1695833452981,-1.7949219,0.29492188,0.23046875,-48.0625,-25.84375,19.6875,0.0,0.0,0.0
1695833453041,-1.5439453,-0.2626953,0.5986328,-19.78125,-34.8125,-0.78125,0.0,0.0,0.0
1695833453060,-0.96875,0.076171875,0.27929688,-39.25,7.5,-23.46875,0.0,0.0,0.0
1695833453100,-0.88183594,0.41601562,0.3251953,48.375,33.375,-6.1875,0.0,0.0,0.0
1695833453141,-1.0117188,0.12890625,0.24121094,37.28125,44.28125,14.125,0.0,0.0,0.0
1695833453181,-0.80078125,0.3017578,0.34277344,-10.40625,39.84375,13.5625,0.0,0.0,0.0
1695833453221,-0.7089844,0.20019531,0.15136719,-1.0,46.3125,14.5625,0.0,0.0,0.0
1695833453261,-0.6699219,0.049804688,0.29882812,5.78125,31.34375,13.625,0.0,0.0,0.0
1695833453301,-0.66796875,0.026367188,0.32617188,-24.96875,23.3125,8.75,0.0,0.0,0.0
1695833453341,-0.609375,-0.1640625,0.083984375,4.4375,11.28125,-0.03125,0.0,0.0,0.0
1695833453381,-0.5654297,-0.009765625,0.26464844,17.875,-7.21875,-3.15625,0.0,0.0,0.0
1695833453421,-0.64453125,0.032226562,0.12011719,19.8125,-26.9375,6.875,-74.875,14.75,-119.3125
1695833453461,-0.7363281,0.18066406,0.12792969,-4.59375,-46.65625,8.8125,0.0,0.0,0.0
1695833453501,-1.5957031,0.47460938,0.24023438,-31.21875,-105.125,4.65625,0.0,0.0,0.0
1695833453542,-1.4140625,0.34765625,0.12011719,20.84375,-173.71875,-16.8125,0.0,0.0,0.0
1695833453581,-1.4882812,0.8408203,0.9472656,-3.75,-242.375,9.125,0.0,0.0,0.0
1695833453621,-1.0810547,0.41601562,0.6201172,0.59375,-103.34375,11.75,0.0,0.0,0.0
1695833453661,-0.7294922,0.12890625,0.62890625,-19.0,-95.46875,20.59375,0.0,0.0,0.0
1695833453701,-0.5488281,0.171875,0.56347656,-14.0,-22.96875,0.5,0.0,0.0,0.0
1695833453741,-0.37695312,0.19921875,0.5332031,27.4375,60.90625,6.25,0.0,0.0,0.0
1695833453801,-0.24511719,0.10449219,0.42773438,18.53125,105.375,9.1875,0.0,0.0,0.0
1695833453820,-0.15625,0.087890625,0.3388672,1.3125,94.90625,-29.34375,0.0,0.0,0.0
1695833453861,-0.45898438,0.15527344,0.4267578,-12.09375,166.5625,-38.5,0.0,0.0,0.0
1695833453900,-1.0205078,0.37695312,0.10449219,33.3125,213.4375,13.03125,0.0,0.0,0.0
1695833453941,-0.59765625,0.50390625,0.6152344,-32.78125,-17.46875,-7.65625,-77.375,14.75,-111.625
1695833453981,-0.76171875,0.27441406,0.33007812,-64.71875,3.53125,0.8125,0.0,0.0,0.0
1695833454021,-1.4814453,0.35546875,-0.38671875,6.09375,4.875,1.125,0.0,0.0,0.0
1695833454061,-1.3544922,0.27441406,0.3232422,-26.5,-26.875,-5.28125,0.0,0.0,0.0
1695833454105,-1.4023438,-0.2861328,0.47753906,-14.90625,-9.1875,-17.90625,0.0,0.0,0.0
1695833454160,-0.8623047,0.08105469,0.3095703,-11.25,-2.40625,-18.15625,0.0,0.0,0.0
1695833454180,-1.0800781,0.1875,0.3642578,62.71875,23.34375,-10.0,0.0,0.0,0.0
1695833454226,-1.0771484,0.15820312,0.31152344,34.90625,48.03125,-0.65625,0.0,0.0,0.0
1695833454262,-0.8125,0.296875,0.21972656,14.8125,33.125,7.96875,0.0,0.0,0.0
1695833454302,-0.66015625,0.15234375,0.17578125,31.53125,41.25,13.34375,0.0,0.0,0.0
1695833454341,-0.65625,0.109375,0.31347656,10.71875,34.96875,13.15625,0.0,0.0,0.0
1695833454381,-0.57421875,0.01171875,0.21484375,-11.96875,18.15625,12.0,0.0,0.0,0.0
1695833454420,-0.5419922,-0.14746094,0.16699219,7.90625,8.09375,6.0,-74.125,14.4375,-112.6875
1695833454462,-0.42871094,-0.12011719,0.07519531,30.5,-8.1875,2.53125,0.0,0.0,0.0
1695833454501,-0.6123047,0.11621094,0.16894531,11.59375,-37.6875,1.71875,0.0,0.0,0.0
1695833454582,-1.3935547,0.29296875,0.18457031,-5.8125,-110.625,-1.1875,0.0,0.0,0.0
1695833454601,-1.6240234,0.5283203,0.21289062,-5.6875,-156.375,-26.34375,0.0,0.0,0.0
1695833454620,-1.3505859,0.9785156,0.5888672,-28.875,-231.40625,14.625,0.0,0.0,0.0
1695833454662,-0.83496094,0.5703125,0.8232422,70.59375,-151.375,1.375,0.0,0.0,0.0
1695833454701,-0.7988281,0.016601562,0.6425781,-66.5,-98.90625,-2.28125,0.0,0.0,0.0
1695833454741,-0.65722656,0.13085938,0.6044922,-27.53125,-0.625,2.40625,0.0,0.0,0.0
1695833454782,-0.5283203,0.13769531,0.65234375,24.875,60.09375,-2.78125,0.0,0.0,0.0
1695833454841,-0.39746094,0.078125,0.515625,43.0,87.1875,7.78125,0.0,0.0,0.0
1695833454860,-0.3330078,0.037109375,0.38378906,44.125,64.0625,-9.8125,0.0,0.0,0.0
1695833454901,-0.35253906,0.037109375,0.3046875,8.90625,145.0,-62.59375,0.0,0.0,0.0
1695833454941,-0.87109375,0.4111328,0.21679688,-27.96875,213.25,-0.90625,-76.625,14.4375,-103.6875
1695833454980,-0.7080078,0.44921875,0.390625,-20.59375,-14.71875,-15.40625,0.0,0.0,0.0
1695833455021,-0.8808594,0.55371094,0.40527344,-26.3125,-4.03125,13.8125,0.0,0.0,0.0
1695833455061,-1.3242188,0.45996094,-0.17285156,-36.46875,-24.84375,21.9375,0.0,0.0,0.0
1695833455100,-1.9082031,-0.34179688,0.25878906,-24.5,-71.3125,-0.09375,0.0,0.0,0.0
1695833455142,-0.83984375,-0.060546875,0.34375,-34.4375,-19.1875,-14.1875,0.0,0.0,0.0
1695833455182,-1.1279297,0.025390625,0.4638672,24.59375,-53.59375,-15.59375,0.0,0.0,0.0
1695833455220,-1.0986328,0.3857422,0.22753906,-6.65625,64.75,6.1875,0.0,0.0,0.0
1695833455282,-0.9267578,0.1015625,0.31640625,50.59375,38.4375,5.34375,0.0,0.0,0.0
1695833455321,-0.7236328,0.19726562,0.2421875,0.46875,60.53125,0.21875,0.0,0.0,0.0
1695833455340,-0.7548828,0.18359375,0.19238281,3.875,49.0625,13.15625,0.0,0.0,0.0
1695833455382,-0.7207031,0.107421875,0.4267578,9.375,45.9375,11.0625,0.0,0.0,0.0
1695833455421,-0.61328125,0.057617188,0.21484375,-20.34375,15.1875,20.53125,-75.0,15.625,-111.8125
1695833455461,-0.63671875,-0.12695312,0.2578125,7.84375,1.15625,15.21875,0.0,0.0,0.0
1695833455499,-0.63378906,-0.06738281,0.20800781,-5.875,0.28125,3.125,0.0,0.0,0.0
1695833455540,-0.734375,-0.0029296875,0.25878906,12.5,-17.34375,0.34375,0.0,0.0,0.0
1695833455581,-0.95703125,0.11621094,0.08691406,11.34375,-27.65625,0.03125,0.0,0.0,0.0
1695833455642,-1.4960938,0.4814453,0.103515625,10.0,-59.65625,-25.5,0.0,0.0,0.0
1695833455660,-1.3535156,0.6513672,0.22363281,42.71875,-132.34375,-15.40625,0.0,0.0,0.0
1695833455700,-1.1796875,0.6796875,0.6220703,-18.21875,-159.8125,7.53125,0.0,0.0,0.0
1695833455762,-0.87597656,0.57421875,0.52441406,12.625,-98.46875,31.6875,0.0,0.0,0.0
1695833455781,-0.9814453,0.14746094,0.5097656,-33.9375,-118.96875,7.28125,0.0,0.0,0.0
1695833455821,-0.6796875,0.12695312,0.5292969,-11.96875,-29.4375,13.6875,0.0,0.0,0.0
1695833455860,-0.37597656,0.16601562,0.40527344,11.875,30.625,7.59375,0.0,0.0,0.0
1695833455920,-0.390625,0.28222656,0.45507812,15.53125,70.40625,13.4375,0.0,0.0,0.0
1695833455962,-0.24609375,0.119140625,0.3642578,-10.6875,84.5625,-1.8125,-75.875,19.0625,-96.5
1695833455980,-0.36132812,0.09277344,0.48828125,-38.78125,91.78125,-30.8125,0.0,0.0,0.0
1695833456021,-1.0654297,0.20410156,0.2578125,-6.90625,166.71875,1.3125,0.0,0.0,0.0
1695833456082,-0.6455078,0.3408203,0.4716797,6.03125,31.96875,-20.59375,0.0,0.0,0.0
1695833456101,-0.56640625,0.17382812,0.42773438,-17.09375,21.59375,-1.875,0.0,0.0,0.0
1695833456142,-1.1035156,0.5878906,0.19726562,-66.3125,11.21875,19.0,0.0,0.0,0.0
1695833456181,-1.6787109,0.09082031,-0.23925781,-24.0625,7.125,-0.65625,0.0,0.0,0.0
1695833456222,-1.2978516,0.23144531,0.35742188,-5.28125,-13.4375,-9.0,0.0,0.0,0.0
1695833456261,-1.234375,-0.06542969,0.42382812,-17.59375,-11.75,-12.625,0.0,0.0,0.0
1695833456300,-0.9580078,0.24511719,0.091796875,-22.1875,-3.3125,5.21875,0.0,0.0,0.0
1695833456341,-1.0869141,0.09667969,0.4609375,93.125,25.1875,1.25,0.0,0.0,0.0
1695833456381,-0.984375,0.3232422,0.265625,-6.5,57.0625,6.75,0.0,0.0,0.0
1695833456441,-0.78515625,0.14941406,0.15234375,6.5,36.40625,9.96875,-74.125,15.5,-107.875
1695833456461,-0.63964844,0.12109375,0.31933594,18.59375,29.21875,11.6875,0.0,0.0,0.0
1695833456501,-0.66015625,0.15136719,0.38867188,-9.21875,30.3125,11.9375,0.0,0.0,0.0
1695833456541,-0.65234375,-0.08300781,0.21972656,4.125,7.375,10.8125,0.0,0.0,0.0
1695833456581,-0.609375,-0.12402344,0.24902344,8.09375,4.875,3.6875,0.0,0.0,0.0
1695833456621,-0.7451172,-0.04296875,0.26757812,16.03125,-13.1875,5.15625,0.0,0.0,0.0
1695833456661,-0.8232422,-0.022460938,0.001953125,44.65625,-20.59375,4.0625,0.0,0.0,0.0
1695833456720,-1.3349609,0.46289062,0.22558594,40.8125,-67.9375,-7.375,0.0,0.0,0.0
1695833456741,-1.4882812,0.62597656,0.11425781,7.25,-132.21875,-22.5,0.0,0.0,0.0
1695833456781,-1.2451172,0.87402344,0.60058594,-1.84375,-172.75,-9.5625,0.0,0.0,0.0
1695833456840,-0.9248047,0.50097656,0.5029297,-14.40625,-111.84375,29.125,0.0,0.0,0.0
1695833456861,-1.0742188,0.13867188,0.5419922,-40.59375,-150.65625,-2.40625,0.0,0.0,0.0
1695833456900,-0.6748047,0.14550781,0.6699219,-12.21875,-49.9375,0.5625,0.0,0.0,0.0
1695833456960,-0.4501953,0.10546875,0.5,17.0625,17.0,-5.34375,-74.5625,17.0,-89.125
1695833456981,-0.3076172,0.109375,0.36816406,36.46875,67.0625,6.1875,0.0,0.0,0.0
1695833457021,-0.25976562,0.11230469,0.41992188,16.03125,48.03125,3.5,0.0,0.0,0.0
1695833457061,-0.21289062,0.16699219,0.50097656,-16.9375,85.25,-29.53125,0.0,0.0,0.0
1695833457101,-0.9863281,0.1328125,0.45996094,14.5,208.0,-22.1875,0.0,0.0,0.0
1695833457141,-0.8642578,0.296875,0.20214844,-36.03125,47.71875,-30.5625,0.0,0.0,0.0
1695833457225,-0.6484375,0.5498047,0.6533203,10.59375,24.6875,-17.4375,0.0,0.0,0.0
1695833457241,-0.7451172,0.49804688,0.26953125,-60.0,46.75,2.53125,0.0,0.0,0.0
1695833457261,-1.3720703,0.23144531,-0.27246094,-3.125,13.46875,14.78125,0.0,0.0,0.0
1695833457301,-1.3447266,0.17675781,0.36523438,-15.46875,-26.75,9.71875,0.0,0.0,0.0
1695833457341,-1.6005859,-0.10839844,0.34375,-19.375,3.46875,0.28125,0.0,0.0,0.0
1695833457400,-0.96972656,0.13964844,0.16894531,-16.5625,-6.5625,-10.34375,0.0,0.0,0.0
1695833457441,-0.984375,0.15917969,0.33007812,34.34375,11.8125,-10.53125,-74.875,17.0,-103.375
1695833457461,-0.92578125,0.18164062,0.24804688,6.9375,42.84375,4.0,0.0,0.0,0.0
1695833457501,-0.9316406,0.20214844,0.25976562,7.25,30.5,10.46875,0.0,0.0,0.0
1695833457541,-0.6875,0.16894531,0.21875,1.5625,30.0,9.25,0.0,0.0,0.0
1695833457600,-0.72753906,0.060546875,0.24121094,11.625,22.3125,16.6875,0.0,0.0,0.0
1695833457621,-0.68847656,0.0234375,0.3046875,6.75,26.09375,7.53125,0.0,0.0,0.0
1695833457661,-0.6611328,-0.091796875,0.22167969,11.34375,5.40625,13.09375,0.0,0.0,0.0
1695833457701,-0.6767578,-0.076171875,0.22167969,15.5,1.5,11.625,0.0,0.0,0.0
1695833457741,-0.6875,-0.037109375,0.15136719,31.34375,-11.8125,9.84375,0.0,0.0,0.0
1695833457782,-0.88183594,0.080078125,0.055664062,43.5625,-26.125,4.25,0.0,0.0,0.0
1695833457826,-1.5683594,0.6123047,0.09472656,27.03125,-58.125,-10.84375,0.0,0.0,0.0
1695833457860,-1.2880859,0.6220703,0.099609375,-23.875,-105.71875,-17.5625,0.0,0.0,0.0
1695833457901,-1.3134766,0.69628906,0.625,-17.0,-138.125,-19.4375,0.0,0.0,0.0
1695833457961,-1.0761719,0.5292969,0.5126953,-59.71875,-87.0,8.5,-75.75,17.4375,-102.1875
1695833457980,-1.2138672,0.22265625,0.48339844,-5.4375,-126.71875,23.21875,0.0,0.0,0.0
1695833458021,-0.81152344,-0.06640625,0.51953125,-20.03125,-50.4375,-20.25,0.0,0.0,0.0
1695833458060,-0.33203125,0.07324219,0.22851562,11.28125,-3.9375,-11.875,0.0,0.0,0.0
1695833458101,-0.22851562,0.15039062,0.34765625,35.0625,48.6875,10.8125,0.0,0.0,0.0
1695833458143,-0.2939453,0.064453125,0.35839844,34.53125,47.21875,4.0,0.0,0.0,0.0
1695833458181,-0.33984375,0.119140625,0.5986328,-12.71875,101.78125,-32.03125,0.0,0.0,0.0
1695833458221,-1.1845703,0.1953125,0.22167969,-18.375,160.25,-7.3125,0.0,0.0,0.0
1695833458262,-0.64453125,0.45214844,0.19140625,0.90625,82.625,-17.625,0.0,0.0,0.0
1695833458301,-0.42089844,0.19335938,0.8388672,-39.3125,-44.625,1.96875,0.0,0.0,0.0
1695833458362,-0.82910156,0.41601562,0.020507812,-53.375,11.34375,13.03125,0.0,0.0,0.0
1695833458382,-1.6376953,0.14941406,-0.15722656,3.875,-22.40625,5.46875,0.0,0.0,0.0
1695833458441,-0.99316406,0.3203125,0.3515625,-2.6875,-33.71875,-2.90625,-76.5,16.0625,-107.75
1695833458460,-1.5146484,-0.11816406,0.64941406,-32.625,-2.53125,-6.5625,0.0,0.0,0.0
1695833458501,-0.90527344,0.01171875,0.16015625,-51.65625,21.78125,-27.0625,0.0,0.0,0.0
1695833458541,-0.9472656,0.07714844,0.4873047,78.71875,20.96875,-4.0,0.0,0.0,0.0
1695833458581,-0.9667969,0.15722656,0.3125,12.3125,32.28125,8.8125,0.0,0.0,0.0
1695833458622,-0.8203125,0.12109375,0.21191406,17.4375,37.03125,14.4375,0.0,0.0,0.0
1695833458661,-0.6533203,0.15917969,0.31054688,30.125,37.65625,13.9375,0.0,0.0,0.0
1695833458701,-0.6982422,0.13867188,0.33789062,-1.25,35.1875,16.4375,0.0,0.0,0.0
1695833458741,-0.6591797,0.00390625,0.29296875,-15.75,20.78125,18.15625,0.0,0.0,0.0
1695833458783,-0.66503906,-0.19335938,0.16503906,7.4375,6.28125,11.8125,0.0,0.0,0.0
1695833458841,-0.57714844,-0.13378906,0.1796875,40.5625,-17.65625,6.6875,0.0,0.0,0.0
1695833458881,-0.7714844,-0.0068359375,0.11035156,52.21875,-41.34375,4.0625,0.0,0.0,0.0
1695833458921,-1.4736328,0.45898438,0.10058594,44.0625,-76.125,-9.5,0.0,0.0,0.0
1695833458961,-1.3886719,0.8125,0.059570312,31.0,-124.15625,-15.0625,-75.4375,11.75,-110.4375
1695833459001,-1.1513672,0.90625,0.63671875,-29.875,-157.90625,-13.40625,0.0,0.0,0.0
1695833459041,-1.125,0.52246094,0.42578125,-11.625,-113.125,22.84375,0.0,0.0,0.0
1695833459122,-0.91308594,0.1953125,0.6386719,-19.78125,-142.53125,5.15625,0.0,0.0,0.0
1695833459125,-0.7246094,0.12109375,0.671875,-28.875,-41.8125,15.40625,0.0,0.0,0.0
1695833459161,-0.5214844,0.16699219,0.5126953,-6.125,13.96875,0.40625,0.0,0.0,0.0
1695833459201,-0.39648438,0.13964844,0.39941406,20.0625,55.53125,4.59375,0.0,0.0,0.0
1695833459241,-0.2861328,0.15039062,0.4140625,0.15625,36.90625,-1.375,0.0,0.0,0.0
1695833459281,-0.23632812,0.12988281,0.4296875,-17.28125,128.15625,-20.78125,0.0,0.0,0.0
1695833459341,-0.9140625,0.12890625,0.51660156,5.71875,235.46875,-6.8125,0.0,0.0,0.0
1695833459361,-0.7158203,0.19140625,0.2578125,-63.5,37.875,-17.375,0.0,0.0,0.0
1695833459401,-0.78808594,0.26464844,0.5703125,-0.5,25.0,-2.71875,0.0,0.0,0.0
1695833459441,-0.5908203,0.328125,0.33398438,-93.15625,23.0,-8.15625,-75.4375,11.0,-108.0625
1695833459480,-1.0527344,0.35839844,0.0859375,-7.28125,-15.09375,9.1875,0.0,0.0,0.0
1695833459521,-1.5478516,0.13574219,0.02734375,-16.625,-12.59375,-6.625,0.0,0.0,0.0
1695833459565,-1.703125,0.018554688,0.453125,20.25,-13.125,9.1875,0.0,0.0,0.0
1695833459601,-1.0517578,0.09472656,0.25390625,-74.96875,0.53125,-13.09375,0.0,0.0,0.0
1695833459641,-1.0195312,0.1953125,0.19042969,42.09375,2.125,-6.3125,0.0,0.0,0.0
1695833459681,-1.0693359,0.22851562,0.38867188,46.125,39.71875,3.1875,0.0,0.0,0.0
1695833459722,-0.9707031,0.28515625,0.21875,-15.40625,43.6875,10.53125,0.0,0.0,0.0
1695833459761,-0.7109375,0.12988281,0.16015625,12.1875,42.71875,10.03125,0.0,0.0,0.0
1695833459800,-0.6435547,0.10546875,0.29296875,4.9375,36.59375,17.1875,0.0,0.0,0.0
1695833459841,-0.7294922,0.045898438,0.30371094,-1.1875,27.09375,17.125,0.0,0.0,0.0
1695833459882,-0.70703125,-0.09863281,0.17480469,0.84375,15.53125,14.0625,0.0,0.0,0.0
1695833459921,-0.55859375,-0.05078125,0.19140625,24.875,-6.125,14.5625,0.0,0.0,0.0
1695833459981,-0.6142578,-0.01171875,0.18652344,35.1875,-14.40625,12.34375,-72.75,12.625,-111.625
1695833460001,-0.72265625,0.064453125,0.05078125,27.25,-28.28125,3.9375,0.0,0.0,0.0
1695833460040,-1.4189453,0.5839844,0.5029297,12.5625,-91.3125,-4.96875,0.0,0.0,0.0
1695833460080,-1.3701172,0.29492188,-0.017578125,41.375,-113.125,-14.5,0.0,0.0,0.0
1695833460121,-1.3242188,0.7939453,0.6845703,-69.40625,-137.71875,-28.78125,0.0,0.0,0.0
1695833460161,-1.046875,0.640625,0.2861328,9.4375,-63.625,18.40625,0.0,0.0,0.0
1695833460201,-0.9921875,0.29101562,0.5205078,-11.3125,-189.71875,9.78125,0.0,0.0,0.0
1695833460242,-0.7373047,0.13671875,0.60839844,-38.15625,-14.40625,23.9375,0.0,0.0,0.0
1695833460281,-0.5498047,0.28710938,0.40722656,-17.21875,20.625,15.21875,0.0,0.0,0.0
1695833460321,-0.4794922,0.18652344,0.5341797,9.125,65.71875,2.84375,0.0,0.0,0.0
1695833460361,-0.33203125,0.15820312,0.37402344,-7.03125,89.65625,3.875,0.0,0.0,0.0
1695833460401,-0.5175781,0.009765625,0.36328125,-4.59375,141.28125,-17.1875,0.0,0.0,0.0
1695833460465,-0.91503906,0.22265625,0.19238281,16.28125,121.6875,-9.5625,-76.375,13.6875,-102.375
1695833460521,-0.70703125,0.41601562,0.546875,4.9375,31.59375,-11.3125,0.0,0.0,0.0
1695833460540,-0.42382812,0.22851562,0.45507812,-45.1875,19.34375,-3.03125,0.0,0.0,0.0
1695833460601,-0.8857422,0.3310547,-0.016601562,-23.09375,13.34375,3.8125,0.0,0.0,0.0
1695833460604,-1.5146484,0.16699219,-0.10058594,6.9375,-2.9375,-1.0,0.0,0.0,0.0
1695833460641,-1.6044922,0.3466797,0.5488281,-33.21875,-11.8125,1.78125,0.0,0.0,0.0
1695833460681,-1.1025391,-0.021484375,0.20507812,-42.75,-10.5,-14.3125,0.0,0.0,0.0
1695833460721,-1.0429688,0.045898438,0.29492188,30.3125,-3.25,-9.875,0.0,0.0,0.0
1695833460885,-1.0029297,0.18652344,0.39941406,29.71875,44.59375,-8.03125,0.0,0.0,0.0
1695833460922,-0.9140625,0.26660156,0.24511719,20.125,22.25,10.40625,0.0,0.0,0.0
1695833460925,-0.67285156,0.12988281,0.16992188,19.28125,33.0,16.25,0.0,0.0,0.0
1695833460928,-0.6513672,0.12988281,0.27246094,24.46875,37.46875,10.15625,0.0,0.0,0.0
1695833460930,-0.68066406,0.07519531,0.3095703,10.34375,20.375,7.65625,0.0,0.0,0.0
1695833460961,-0.6220703,-0.018554688,0.16796875,-5.6875,8.96875,7.96875,-72.75,14.4375,-109.5625
1695833461001,-0.5859375,-0.043945312,0.22167969,4.5625,-2.75,5.46875,0.0,0.0,0.0
1695833461041,-0.6230469,0.01953125,0.28027344,2.375,-21.1875,9.96875,0.0,0.0,0.0
1695833461081,-1.1152344,0.10253906,0.056640625,5.65625,-38.09375,7.78125,0.0,0.0,0.0
1695833461121,-1.4882812,0.5644531,0.15136719,-3.1875,-86.125,-5.34375,0.0,0.0,0.0
1695833461161,-1.4013672,0.70996094,0.31054688,19.5,-126.59375,-10.40625,0.0,0.0,0.0
1695833461201,-1.09375,0.7675781,0.49902344,-33.84375,-119.03125,5.21875,0.0,0.0,0.0
1695833461263,-1.0976562,0.36132812,0.46289062,-7.59375,-137.65625,25.53125,0.0,0.0,0.0
1695833461281,-0.8828125,0.07714844,0.6640625,-21.625,-86.3125,-2.125,0.0,0.0,0.0
1695833461320,-0.56347656,0.15234375,0.46191406,-20.9375,4.5625,11.875,0.0,0.0,0.0
1695833461361,-0.42382812,0.17382812,0.43847656,-2.40625,59.75,6.375,0.0,0.0,0.0
1695833461401,-0.40722656,0.08984375,0.44628906,-8.9375,78.90625,5.59375,0.0,0.0,0.0
1695833461441,-0.17285156,0.10253906,0.48339844,-7.15625,114.53125,-17.375,-72.0,16.25,-97.125
1695833461481,-1.1132812,0.07324219,0.28320312,2.375,158.4375,19.375,0.0,0.0,0.0
1695833461521,-0.6435547,0.3935547,0.05859375,-40.53125,97.21875,-8.40625,0.0,0.0,0.0
1695833461561,-0.55859375,0.3623047,0.734375,61.9375,-13.625,-9.1875,0.0,0.0,0.0
1695833461601,-0.5488281,0.4345703,0.2548828,-104.6875,15.3125,3.875,0.0,0.0,0.0
1695833461641,-1.5507812,0.078125,-0.20996094,54.125,-18.09375,10.03125,0.0,0.0,0.0
1695833461681,-1.2421875,0.35058594,0.296875,-27.53125,-29.875,-7.78125,0.0,0.0,0.0
1695833461721,-1.3623047,-0.17871094,0.515625,-1.3125,-16.5625,-12.84375,0.0,0.0,0.0
1695833461761,-0.9628906,0.28515625,0.15136719,-53.125,-4.15625,-21.34375,0.0,0.0,0.0
1695833461801,-1.0410156,0.16113281,0.13183594,87.4375,-18.03125,1.0,0.0,0.0,0.0
1695833461861,-1.0488281,0.18945312,0.50878906,49.46875,43.5625,-0.84375,0.0,0.0,0.0
1695833461880,-1.0126953,0.29003906,0.26660156,-22.28125,45.46875,3.3125,0.0,0.0,0.0
1695833461921,-0.79296875,0.049804688,0.23144531,9.5625,34.40625,4.65625,0.0,0.0,0.0
1695833461961,-0.7158203,0.032226562,0.2548828,8.90625,41.0625,-0.28125,-72.0,16.5625,-108.1875
1695833462001,-0.6611328,0.12207031,0.34472656,31.96875,13.84375,7.15625,0.0,0.0,0.0
1695833462060,-0.6035156,0.0048828125,0.15722656,13.46875,7.125,18.09375,0.0,0.0,0.0
1695833462080,-0.5605469,-0.068359375,0.26953125,6.9375,10.3125,13.5625,0.0,0.0,0.0
1695833462121,-0.73046875,-0.08886719,0.17675781,26.90625,-6.78125,6.125,0.0,0.0,0.0
1695833462161,-1.0585938,0.20898438,0.091796875,32.15625,-45.3125,-0.46875,0.0,0.0,0.0
1695833462201,-1.3271484,0.4794922,0.0126953125,13.28125,-105.4375,-8.65625,0.0,0.0,0.0
1695833462241,-1.4082031,0.66015625,0.4013672,31.34375,-161.21875,-22.0,0.0,0.0,0.0
1695833462281,-1.1708984,0.73339844,0.43164062,-35.125,-168.90625,8.9375,0.0,0.0,0.0
1695833462321,-1.0527344,0.5371094,0.8027344,14.8125,-199.78125,2.40625,0.0,0.0,0.0
1695833462361,-0.9121094,0.1015625,0.7910156,-29.125,-44.5,-10.03125,0.0,0.0,0.0
1695833462401,-0.64746094,0.034179688,0.5410156,-8.5,23.3125,-14.8125,0.0,0.0,0.0
1695833462444,-0.2939453,-0.03125,0.26171875,59.125,95.3125,-9.1875,-72.625,15.0625,-92.875
1695833462481,-0.21289062,0.16503906,0.3173828,39.28125,62.125,-0.40625,0.0,0.0,0.0
1695833462521,-0.12011719,0.013671875,0.34375,36.84375,80.3125,-30.1875,0.0,0.0,0.0
1695833462562,-0.76660156,0.140625,0.49609375,4.375,175.34375,-4.0,0.0,0.0,0.0
1695833462600,-0.8769531,0.578125,0.15820312,-47.5,114.0625,-12.96875,0.0,0.0,0.0
1695833462641,-0.7089844,0.7734375,0.71972656,48.8125,-4.40625,6.375,0.0,0.0,0.0
1695833462685,-0.7734375,0.005859375,0.17285156,-99.375,10.125,21.375,0.0,0.0,0.0
1695833462722,-1.2441406,0.24121094,0.032226562,15.59375,24.8125,15.03125,0.0,0.0,0.0
1695833462760,-1.4892578,0.20605469,0.17285156,-44.15625,-0.09375,15.59375,0.0,0.0,0.0
1695833462801,-1.9111328,-0.024414062,0.7060547,6.8125,-24.84375,-3.15625,0.0,0.0,0.0
1695833462841,-1.0371094,0.125,0.16503906,-76.375,-6.0,-28.125,0.0,0.0,0.0
1695833462882,-0.81347656,0.13769531,0.29492188,64.8125,-26.25,-1.1875,0.0,0.0,0.0
1695833462926,-0.9501953,0.18164062,0.3857422,62.3125,32.6875,-1.3125,0.0,0.0,0.0
1695833463001,-0.8515625,0.3935547,0.21386719,0.84375,54.5625,11.375,-72.0,15.8125,-106.5625
1695833463004,-0.8203125,0.030273438,0.31933594,8.28125,45.15625,13.8125,0.0,0.0,0.0
1695833463046,-0.67871094,0.107421875,0.28222656,-9.78125,48.25,15.21875,0.0,0.0,0.0
1695833463080,-0.69433594,-0.041015625,0.3330078,22.3125,23.125,15.71875,0.0,0.0,0.0
1695833463123,-0.68066406,-0.14550781,0.20800781,6.09375,11.28125,18.875,0.0,0.0,0.0
1695833463165,-0.75,-0.095703125,0.203125,35.25,5.84375,8.875,0.0,0.0,0.0
1695833463200,-0.74902344,0.046875,0.052734375,70.125,-22.28125,6.0,0.0,0.0,0.0
1695833463241,-1.1689453,0.37402344,0.0703125,31.84375,-66.71875,-0.65625,0.0,0.0,0.0
1695833463281,-1.3466797,0.625,0.13183594,-0.5625,-124.78125,-23.46875,0.0,0.0,0.0
1695833463321,-1.0498047,0.81152344,0.4736328,-44.8125,-163.84375,-32.15625,0.0,0.0,0.0
1695833463361,-1.171875,0.4296875,0.49804688,-36.8125,-160.0,30.0,0.0,0.0,0.0
1695833463401,-1.0849609,0.1875,0.85253906,-30.53125,-192.34375,-17.90625,0.0,0.0,0.0
1695833463441,-0.5996094,0.14941406,0.69140625,-6.71875,-47.5625,-0.90625,-72.625,17.125,-93.1875
1695833463481,-0.58984375,0.10253906,0.578125,11.9375,-11.375,-14.5625,0.0,0.0,0.0
1695833463521,-0.2685547,0.19238281,0.47753906,39.21875,49.84375,3.375,0.0,0.0,0.0
1695833463561,-0.24609375,0.17578125,0.49121094,31.15625,66.375,13.28125,0.0,0.0,0.0
1695833463602,-0.18261719,0.23632812,0.40527344,15.90625,85.8125,10.8125,0.0,0.0,0.0
1695833463641,-0.6220703,0.1640625,0.5283203,3.28125,110.625,-5.53125,0.0,0.0,0.0
1695833463680,-0.9736328,0.15527344,0.33984375,16.59375,86.28125,-17.6875,0.0,0.0,0.0
1695833463721,-0.6796875,0.13867188,0.6953125,27.5,-26.5625,-27.5,0.0,0.0,0.0
1695833463762,-0.7939453,0.43945312,0.6455078,-0.3125,-5.09375,-14.625,0.0,0.0,0.0
1695833463801,-0.46289062,0.3125,0.9326172,0.28125,-33.9375,-13.28125,0.0,0.0,0.0
1695833463841,-0.62402344,0.57128906,0.2919922,0.59375,-5.03125,25.53125,0.0,0.0,0.0
1695833463880,-1.9355469,0.671875,0.42089844,-44.09375,-36.6875,39.21875,0.0,0.0,0.0
1695833463921,-0.88671875,0.45117188,0.24511719,-121.53125,28.71875,-31.53125,0.0,0.0,0.0
1695833463981,-0.76171875,-0.115234375,0.0,-18.625,50.21875,24.5625,-74.875,15.5,-100.6875
1695833464001,-1.2802734,-0.072265625,0.203125,2.4375,138.09375,21.21875,0.0,0.0,0.0
1695833464041,-1.0185547,0.38671875,0.22460938,-52.03125,137.6875,12.65625,0.0,0.0,0.0
1695833464081,-0.95703125,0.15234375,0.060546875,-38.65625,102.40625,16.75,0.0,0.0,0.0
1695833464121,-0.6894531,0.27148438,0.0,21.78125,82.9375,24.875,0.0,0.0,0.0
1695833464175,-0.7705078,-0.005859375,0.33496094,19.40625,62.3125,11.6875,0.0,0.0,0.0
1695833464201,-0.6201172,0.11621094,0.11816406,-53.90625,63.15625,24.5,0.0,0.0,0.0
1695833464240,-0.7988281,0.09765625,0.25,-49.46875,76.15625,25.21875,0.0,0.0,0.0
1695833464281,-0.9140625,-0.037109375,0.20507812,-9.46875,37.15625,27.0,0.0,0.0,0.0
1695833464342,-1.0751953,0.08300781,0.22949219,2.71875,19.625,25.34375,0.0,0.0,0.0
1695833464360,-1.0712891,0.17382812,0.32714844,6.21875,13.40625,18.09375,0.0,0.0,0.0
1695833464401,-1.2431641,0.12109375,0.25097656,-21.6875,8.71875,6.8125,0.0,0.0,0.0
1695833464440,-1.2753906,0.29492188,-0.12792969,7.4375,-18.03125,-1.8125,-66.3125,21.1875,-120.375
1695833464482,-0.99609375,0.13574219,-0.39941406,40.8125,-86.875,-35.125,0.0,0.0,0.0
1695833464520,-1.0888672,0.65527344,0.21289062,6.5625,-173.78125,-52.40625,0.0,0.0,0.0
1695833464562,-1.2167969,0.8027344,0.095703125,-65.875,-120.1875,-53.25,0.0,0.0,0.0
1695833464602,-1.1269531,0.59375,-0.013671875,-212.1875,-125.4375,-8.875,0.0,0.0,0.0
1695833464641,-0.8642578,0.107421875,-0.0625,32.5,-223.34375,33.84375,0.0,0.0,0.0
1695833464682,-0.98828125,0.15429688,0.52441406,23.0625,-305.625,-20.65625,0.0,0.0,0.0
1695833464721,-0.3671875,0.12011719,0.6855469,33.3125,-160.25,-7.90625,0.0,0.0,0.0
1695833464760,-0.25683594,0.0126953125,0.3330078,13.53125,-45.96875,-9.0625,0.0,0.0,0.0
1695833464802,0.051757812,-0.018554688,0.2607422,52.96875,2.5,-21.9375,0.0,0.0,0.0
1695833464841,9.765625E-4,0.076171875,0.40234375,33.25,84.9375,-19.625,0.0,0.0,0.0
1695833464881,-0.2763672,0.21582031,0.5605469,2.78125,85.0,-26.21875,0.0,0.0,0.0
1695833464921,-0.80859375,0.20214844,0.43359375,38.5,130.34375,-31.59375,0.0,0.0,0.0
1695833464961,-0.75878906,0.1953125,0.36914062,66.625,108.375,-43.6875,-76.5,16.375,-94.25
1695833465001,-0.7138672,0.14746094,0.5390625,15.375,112.90625,-16.5625,0.0,0.0,0.0
1695833465041,-0.8935547,0.484375,0.7158203,-75.28125,66.3125,-8.28125,0.0,0.0,0.0
1695833465085,-1.0537109,0.84277344,0.22265625,-68.4375,52.15625,13.34375,0.0,0.0,0.0
1695833465122,-1.7919922,0.32617188,-0.6904297,62.84375,26.78125,-7.40625,0.0,0.0,0.0
1695833465162,-1.8417969,0.12890625,0.61035156,8.34375,-110.4375,-16.9375,0.0,0.0,0.0
1695833465202,-0.6328125,-0.13183594,0.29785156,-38.84375,22.8125,-39.40625,0.0,0.0,0.0
1695833465241,-0.85253906,0.37890625,0.115234375,15.1875,10.25,-6.3125,0.0,0.0,0.0
1695833465281,-1.1972656,0.22070312,0.4169922,46.90625,19.6875,20.90625,0.0,0.0,0.0
1695833465322,-0.9658203,0.16308594,0.16601562,23.34375,41.375,20.46875,0.0,0.0,0.0
1695833465361,-0.7324219,0.18945312,0.31347656,-21.1875,45.15625,-9.5,0.0,0.0,0.0
1695833465402,-0.46289062,0.22070312,0.16894531,-18.4375,41.25,11.375,0.0,0.0,0.0
1695833465441,-0.64746094,0.12109375,0.44628906,1.03125,23.0625,27.0625,-74.375,13.8125,-107.75
1695833465482,-0.60839844,-0.033203125,0.23925781,-22.0625,14.5,22.375,0.0,0.0,0.0
1695833465521,-0.5966797,-0.14941406,0.1953125,-6.71875,3.78125,14.78125,0.0,0.0,0.0
1695833465561,-0.8144531,-0.001953125,0.33984375,7.0625,-11.3125,16.25,0.0,0.0,0.0
1695833465601,-0.86035156,-0.10449219,0.055664062,27.03125,-5.4375,5.09375,0.0,0.0,0.0
1695833465642,-1.4414062,0.4501953,0.20507812,51.9375,-52.75,-15.40625,0.0,0.0,0.0
1695833465681,-1.6455078,0.6484375,0.18652344,-7.65625,-110.75,-26.9375,0.0,0.0,0.0
1695833465721,-1.2666016,0.8876953,0.5732422,-47.4375,-190.75,-15.78125,0.0,0.0,0.0
1695833465761,-1.0136719,0.4580078,0.5732422,-53.25,-118.3125,5.8125,0.0,0.0,0.0
1695833465801,-1.0166016,0.10058594,0.76464844,-36.6875,-116.78125,11.5,0.0,0.0,0.0
1695833465841,-0.65625,0.13867188,0.58203125,-33.46875,-63.96875,-0.34375,0.0,0.0,0.0
1695833465881,-0.42871094,0.16601562,0.47753906,11.59375,-2.75,-12.3125,0.0,0.0,0.0
1695833465961,-0.19433594,0.08691406,0.26171875,15.78125,19.8125,5.03125,0.0,0.0,0.0
1695833465964,-0.16796875,0.140625,0.41796875,11.21875,54.65625,12.59375,-76.1875,13.5625,-89.75
1695833466001,-0.24609375,0.17382812,0.43164062,2.71875,101.78125,16.5625,0.0,0.0,0.0
1695833466062,-0.5722656,0.125,0.39453125,2.65625,145.0,-30.96875,0.0,0.0,0.0
1695833466081,-1.0673828,0.103515625,0.4765625,53.5625,145.125,4.40625,0.0,0.0,0.0
1695833466122,-0.8417969,0.2763672,0.5058594,4.4375,71.5625,-2.96875,0.0,0.0,0.0
1695833466160,-0.79785156,0.16796875,0.73535156,-28.09375,28.25,-5.21875,0.0,0.0,0.0
1695833466201,-0.93652344,0.8251953,0.3310547,-81.25,35.3125,-8.71875,0.0,0.0,0.0
1695833466241,-1.5214844,0.48242188,-0.18554688,-7.71875,-8.75,18.15625,0.0,0.0,0.0
1695833466281,-1.7080078,0.16308594,0.17871094,-39.8125,-43.71875,27.84375,0.0,0.0,0.0
1695833466320,-1.1279297,-0.20703125,0.48046875,-14.0,-4.46875,-19.6875,0.0,0.0,0.0
1695833466362,-0.81640625,0.13085938,0.29003906,-2.40625,8.15625,-18.15625,0.0,0.0,0.0
1695833466401,-0.9580078,0.328125,0.23339844,1.875,34.34375,6.4375,0.0,0.0,0.0
1695833466440,-0.95996094,0.16015625,0.34960938,20.1875,26.46875,14.25,-75.3125,13.375,-104.75
1695833466521,-0.8027344,0.20117188,0.203125,-21.8125,44.0625,13.40625,0.0,0.0,0.0
1695833466541,-0.703125,0.06640625,0.19140625,-0.6875,32.9375,19.0,0.0,0.0,0.0
1695833466561,-0.7451172,0.04296875,0.36035156,7.25,27.8125,19.3125,0.0,0.0,0.0
1695833466602,-0.6826172,0.06542969,0.3173828,-12.90625,16.34375,14.5625,0.0,0.0,0.0
1695833466642,-0.58691406,-0.024414062,0.20800781,-17.28125,3.15625,15.28125,0.0,0.0,0.0
1695833466680,-0.6621094,-0.034179688,0.21972656,-5.5625,-9.21875,14.375,0.0,0.0,0.0
1695833466742,-0.7285156,-0.0234375,0.23632812,6.875,-21.1875,4.84375,0.0,0.0,0.0
1695833466761,-1.0986328,0.30078125,0.25878906,-1.375,-61.84375,-4.75,0.0,0.0,0.0
1695833466800,-1.3847656,0.4765625,0.076171875,-5.75,-110.75,-14.8125,0.0,0.0,0.0
1695833466842,-1.4335938,0.671875,0.32910156,36.0625,-159.0625,-10.96875,0.0,0.0,0.0
1695833466881,-1.0722656,0.6582031,0.58691406,-33.46875,-176.90625,20.59375,0.0,0.0,0.0
1695833466921,-0.91796875,0.359375,0.56347656,-39.6875,-123.25,16.125,0.0,0.0,0.0
1695833466963,-0.68066406,0.026367188,0.640625,-33.59375,-45.90625,9.96875,-74.125,15.1875,-89.125
1695833467001,-0.453125,0.19433594,0.5498047,-5.03125,26.28125,7.84375,0.0,0.0,0.0
1695833467042,-0.3330078,0.09765625,0.5126953,3.9375,65.0,20.96875,0.0,0.0,0.0
1695833467080,-0.3203125,0.09667969,0.36132812,17.375,76.75,7.53125,0.0,0.0,0.0
1695833467120,-0.3095703,0.1171875,0.5527344,-22.125,112.34375,-43.375,0.0,0.0,0.0
1695833467182,-1.2167969,0.13085938,0.29882812,3.53125,214.65625,1.0625,0.0,0.0,0.0
1695833467201,-0.79785156,0.30859375,0.2783203,-12.03125,70.0625,-18.34375,0.0,0.0,0.0
1695833467240,-0.52734375,0.3251953,0.74121094,21.90625,8.28125,2.53125,0.0,0.0,0.0
1695833467281,-0.7714844,0.47265625,0.21191406,-39.75,11.34375,2.90625,0.0,0.0,0.0
1695833467321,-1.4404297,0.17285156,-0.14941406,22.4375,3.78125,9.3125,0.0,0.0,0.0
1695833467361,-1.7431641,0.42285156,0.39257812,-67.875,-26.5625,8.3125,0.0,0.0,0.0
1695833467401,-1.2529297,-0.20605469,0.32226562,-22.0625,-13.8125,-10.09375,0.0,0.0,0.0
1695833467440,-0.6796875,0.2109375,0.2734375,-9.90625,-11.0,-16.875,-74.875,16.25,-101.3125
1695833467480,-0.9765625,0.21386719,0.30566406,43.75,12.5625,2.46875,0.0,0.0,0.0
1695833467522,-1.1298828,0.15332031,0.34277344,18.78125,40.03125,5.8125,0.0,0.0,0.0
1695833467560,-0.79785156,0.1484375,0.25683594,-6.78125,31.0625,2.84375,0.0,0.0,0.0
1695833467601,-0.6484375,0.16699219,0.24804688,17.75,29.03125,9.84375,0.0,0.0,0.0
1695833467665,-0.80566406,0.107421875,0.33496094,11.09375,27.375,15.15625,0.0,0.0,0.0
1695833467680,-0.6767578,0.048828125,0.27246094,16.03125,7.5,14.1875,0.0,0.0,0.0
1695833467721,-0.62402344,-0.06347656,0.2763672,2.59375,1.15625,8.875,0.0,0.0,0.0
1695833467760,-0.68847656,-0.025390625,0.17089844,-2.34375,-3.0,2.28125,0.0,0.0,0.0
1695833467801,-0.7373047,0.03515625,0.17675781,24.28125,-17.40625,2.40625,0.0,0.0,0.0
1695833467861,-1.0029297,0.24707031,0.11328125,-7.65625,-43.90625,4.125,0.0,0.0,0.0
1695833467880,-1.4375,0.5390625,0.23046875,-23.21875,-119.9375,-18.59375,0.0,0.0,0.0
1695833467921,-1.1904297,0.6513672,0.33203125,6.5625,-212.53125,-9.5,0.0,0.0,0.0
1695833467961,-1.1191406,0.5644531,0.82714844,-32.90625,-163.40625,26.75,-76.625,17.3125,-95.4375
1695833468001,-0.92089844,0.32617188,0.61621094,-12.71875,-90.78125,-8.75,0.0,0.0,0.0
1695833468041,-0.5361328,0.12988281,0.66503906,2.3125,-43.59375,0.6875,0.0,0.0,0.0
1695833468103,-0.5234375,0.14648438,0.5722656,-9.1875,6.9375,4.53125,0.0,0.0,0.0
1695833468121,-0.33691406,0.12597656,0.53222656,5.34375,63.21875,3.1875,0.0,0.0,0.0
1695833468161,-0.27734375,0.061523438,0.484375,13.28125,77.1875,6.0,0.0,0.0,0.0
1695833468201,-0.28808594,0.1171875,0.46191406,0.96875,68.59375,-7.71875,0.0,0.0,0.0
1695833468241,-0.67871094,0.14257812,0.4794922,15.5,170.9375,-27.0,0.0,0.0,0.0
1695833468281,-1.1416016,0.29101562,0.375,4.1875,130.71875,4.3125,0.0,0.0,0.0
1695833468322,-0.61621094,0.30566406,0.5185547,14.25,52.0,-8.03125,0.0,0.0,0.0
1695833468362,-0.70996094,0.42578125,0.2919922,-74.40625,25.0,1.0,0.0,0.0,0.0
1695833468401,-1.2851562,0.19433594,-0.15527344,30.0625,-10.28125,8.9375,0.0,0.0,0.0
1695833468463,-1.5585938,0.39648438,0.35058594,-19.375,-28.59375,-4.75,-75.4375,15.3125,-101.4375
1695833468481,-1.1708984,-0.123046875,0.4736328,-7.28125,-21.125,-21.71875,0.0,0.0,0.0
1695833468521,-0.8203125,0.23535156,0.18261719,7.90625,-6.5625,-24.6875,0.0,0.0,0.0
1695833468562,-1.0029297,0.046875,0.4453125,32.9375,3.9375,-2.21875,0.0,0.0,0.0
1695833468601,-1.1376953,0.14257812,0.3701172,7.71875,49.65625,-8.53125,0.0,0.0,0.0
1695833468660,-0.8623047,0.19042969,0.32128906,11.21875,30.5,6.1875,0.0,0.0,0.0
1695833468682,-0.6855469,0.041015625,0.17382812,13.21875,37.09375,13.625,0.0,0.0,0.0
1695833468720,-0.6826172,0.119140625,0.3310547,62.53125,21.96875,10.28125,0.0,0.0,0.0
1695833468780,-0.61328125,0.09375,0.35058594,6.21875,21.21875,13.09375,0.0,0.0,0.0
1695833468804,-0.640625,-0.11230469,0.17480469,-7.34375,7.0625,17.71875,0.0,0.0,0.0
1695833468841,-0.7519531,-0.041992188,0.2607422,1.8125,1.8125,13.625,0.0,0.0,0.0
1695833468881,-0.8544922,-0.041992188,0.032226562,29.40625,-25.65625,1.78125,0.0,0.0,0.0
1695833468921,-1.2978516,0.46777344,0.23925781,1.9375,-77.34375,-9.9375,0.0,0.0,0.0
1695833468961,-1.2060547,0.6611328,-0.0068359375,-20.09375,-128.6875,-16.8125,-76.625,15.8125,-104.125
1695833469001,-1.0380859,0.77246094,0.515625,11.6875,-162.90625,-5.84375,0.0,0.0,0.0
1695833469041,-1.1611328,0.42089844,0.7158203,-20.28125,-139.40625,24.9375,0.0,0.0,0.0
1695833469081,-0.98535156,0.13574219,0.6230469,-23.53125,-89.96875,-0.78125,0.0,0.0,0.0
1695833469121,-0.6972656,0.16503906,0.58691406,-26.375,-30.90625,8.5625,0.0,0.0,0.0
1695833469160,-0.4970703,0.16796875,0.48046875,-1.71875,4.6875,0.15625,0.0,0.0,0.0
1695833469200,-0.34570312,0.19335938,0.4580078,3.9375,66.6875,9.96875,0.0,0.0,0.0
1695833469241,-0.3046875,0.10546875,0.42871094,5.65625,63.59375,3.0,0.0,0.0,0.0
1695833469282,-0.25097656,0.026367188,0.31933594,17.125,112.84375,-25.25,0.0,0.0,0.0
1695833469322,-0.9873047,-0.022460938,0.40625,38.9375,206.9375,-1.375,0.0,0.0,0.0
1695833469362,-0.83496094,0.5126953,0.4638672,-29.125,68.84375,-22.0625,0.0,0.0,0.0
1695833469420,-0.65722656,0.49316406,0.5751953,-30.46875,14.5625,5.59375,0.0,0.0,0.0
1695833469461,-1.2041016,0.3857422,0.20507812,13.09375,-6.96875,17.78125,-75.875,13.6875,-102.625
1695833469480,-1.4433594,0.14746094,-0.37402344,-91.03125,25.1875,-9.3125,0.0,0.0,0.0
1695833469522,-1.2265625,0.01953125,0.30371094,-29.0625,-32.3125,-11.3125,0.0,0.0,0.0
1695833469587,-0.9433594,0.040039062,0.28027344,-31.4375,-11.4375,-9.0625,0.0,0.0,0.0
1695833469600,-1.0742188,0.10253906,0.29101562,42.46875,-0.375,4.53125,0.0,0.0,0.0
1695833469641,-0.9980469,0.15039062,0.34375,25.375,32.28125,3.375,0.0,0.0,0.0
1695833469680,-0.91015625,0.20898438,0.37109375,7.625,29.71875,3.75,0.0,0.0,0.0
1695833469721,-0.77734375,0.12890625,0.27929688,-13.4375,44.96875,10.34375,0.0,0.0,0.0
1695833469761,-0.76464844,0.0048828125,0.2607422,4.125,36.25,14.5,0.0,0.0,0.0
1695833469801,-0.70214844,0.051757812,0.26367188,13.96875,25.1875,12.0,0.0,0.0,0.0
1695833469841,-0.6953125,-0.06738281,0.3330078,4.9375,7.625,11.5625,0.0,0.0,0.0
1695833469882,-0.6738281,-0.01953125,0.24609375,16.40625,-1.25,4.65625,0.0,0.0,0.0
1695833469921,-0.63964844,0.032226562,0.24316406,16.46875,-17.40625,2.53125,0.0,0.0,0.0
1695833469963,-0.72265625,-0.018554688,0.15820312,7.78125,-19.125,5.8125,-76.8125,15.3125,-106.6875
1695833470000,-1.2304688,0.25097656,0.1484375,26.40625,-72.71875,2.15625,0.0,0.0,0.0
1695833470041,-1.2714844,0.48632812,0.26464844,19.28125,-128.5625,-24.5,0.0,0.0,0.0
1695833470082,-1.2128906,0.7548828,0.37304688,-11.8125,-174.03125,-14.5,0.0,0.0,0.0
1695833470121,-1.2431641,0.6933594,0.68652344,4.0,-163.28125,30.84375,0.0,0.0,0.0
1695833470161,-0.9033203,0.23242188,0.7285156,-13.8125,-87.1875,1.5,0.0,0.0,0.0
1695833470201,-0.6269531,0.13085938,0.56933594,-15.46875,-19.5625,5.03125,0.0,0.0,0.0
1695833470240,-0.5966797,0.19335938,0.5673828,0.59375,15.59375,-1.6875,0.0,0.0,0.0
1695833470281,-0.45507812,0.15332031,0.49414062,22.1875,55.28125,2.21875,0.0,0.0,0.0
1695833470322,-0.30664062,0.16113281,0.4892578,20.125,63.15625,-6.1875,0.0,0.0,0.0
1695833470362,-0.21582031,0.07910156,0.3388672,5.125,114.90625,-41.53125,0.0,0.0,0.0
1695833470401,-0.68847656,0.119140625,0.3095703,17.0,189.75,-30.125,0.0,0.0,0.0
1695833470440,-0.7890625,0.38867188,0.2734375,-9.40625,41.125,-4.4375,-76.8125,12.8125,-101.125
1695833470521,-0.37109375,0.28515625,0.43066406,-29.75,18.28125,-4.4375,0.0,0.0,0.0
1695833470524,-1.3857422,0.5830078,0.13476562,-17.21875,10.1875,15.90625,0.0,0.0,0.0
1695833470561,-1.9355469,0.32421875,0.42578125,-60.1875,-24.4375,-0.40625,0.0,0.0,0.0
1695833470621,-1.6181641,-0.020507812,0.47460938,10.46875,-13.3125,-12.125,0.0,0.0,0.0
1695833470640,-0.8017578,0.16015625,0.2763672,-42.25,-4.15625,-18.65625,0.0,0.0,0.0
1695833470680,-1.0410156,0.0625,0.18554688,48.6875,2.1875,12.59375,0.0,0.0,0.0
1695833470720,-1.1416016,0.20019531,0.51464844,47.59375,43.0625,-3.75,0.0,0.0,0.0
1695833470761,-0.8330078,0.3173828,0.18164062,-7.46875,44.1875,7.09375,0.0,0.0,0.0
1695833470801,-0.6953125,0.06542969,0.17871094,1.625,44.125,9.59375,0.0,0.0,0.0
1695833470841,-0.609375,0.10253906,0.29003906,5.40625,41.84375,12.84375,0.0,0.0,0.0
1695833470881,-0.7294922,0.06640625,0.2783203,6.28125,22.3125,17.59375,0.0,0.0,0.0
1695833470922,-0.63378906,-0.020507812,0.27148438,19.6875,7.6875,14.125,0.0,0.0,0.0
1695833470961,-0.69140625,-0.043945312,0.32226562,-4.28125,1.375,11.6875,-76.5,12.5,-108.375
1695833471002,-0.76464844,-0.04296875,0.07910156,1.4375,-17.78125,5.40625,0.0,0.0,0.0
1695833471061,-1.2607422,0.37402344,0.13085938,-11.3125,-65.3125,-10.53125,0.0,0.0,0.0
1695833471081,-1.3496094,0.5205078,0.01171875,12.5,-130.9375,-28.59375,0.0,0.0,0.0
1695833471141,-1.3369141,0.8066406,0.71777344,1.625,-215.84375,-14.4375,0.0,0.0,0.0
1695833471161,-1.0849609,0.4814453,0.45996094,-26.25,-120.75,20.78125,0.0,0.0,0.0
1695833471200,-0.7705078,0.1171875,0.61816406,-14.0,-144.96875,-0.34375,0.0,0.0,0.0
1695833471241,-0.6035156,0.20996094,0.5683594,-22.28125,-27.25,16.03125,0.0,0.0,0.0
1695833471283,-0.4560547,0.18945312,0.6113281,14.5,30.8125,7.53125,0.0,0.0,0.0
1695833471321,-0.3984375,0.15917969,0.5488281,13.40625,99.84375,20.21875,0.0,0.0,0.0
1695833471361,-0.41210938,0.1171875,0.43066406,-5.625,90.875,5.15625,0.0,0.0,0.0
1695833471419,-0.22753906,0.14648438,0.5966797,-42.875,105.4375,-36.90625,0.0,0.0,0.0
1695833471441,-0.81640625,0.25390625,0.25,6.8125,187.25,11.5625,-77.6875,13.375,-97.5625
1695833471481,-0.4716797,0.17871094,0.2685547,56.25,-6.0625,-3.46875,0.0,0.0,0.0
1695833471520,-1.0644531,0.3876953,0.21484375,-21.25,9.1875,3.1875,0.0,0.0,0.0
1695833471561,-1.7148438,0.35253906,-0.5966797,-52.1875,54.1875,-6.125,0.0,0.0,0.0
1695833471601,-1.4863281,0.15136719,0.7294922,-31.4375,-45.90625,-13.09375,0.0,0.0,0.0
1695833471642,-1.1240234,-0.061523438,0.18945312,-73.0,8.90625,-17.0625,0.0,0.0,0.0
1695833471681,-1.0058594,0.028320312,0.33984375,82.0625,-2.03125,3.6875,0.0,0.0,0.0
1695833471741,-1.0351562,0.203125,0.46679688,29.03125,33.84375,-8.15625,0.0,0.0,0.0
1695833471760,-0.7910156,0.31640625,0.34375,22.5,40.875,-0.09375,0.0,0.0,0.0
1695833471801,-0.6816406,0.123046875,0.2109375,7.5625,36.78125,16.0625,0.0,0.0,0.0
1695833471861,-0.6455078,0.099609375,0.25976562,9.375,41.71875,13.40625,0.0,0.0,0.0
1695833471881,-0.6982422,0.01953125,0.35058594,15.96875,22.75,11.3125,0.0,0.0,0.0
1695833471921,-0.6015625,0.028320312,0.16796875,7.96875,14.21875,7.71875,-76.375,12.9375,-107.125
1695833471960,-0.7109375,0.095703125,0.36621094,3.40625,3.15625,7.78125,0.0,0.0,0.0
1695833472001,-0.671875,-0.0146484375,0.22851562,-4.03125,-7.09375,7.65625,0.0,0.0,0.0
1695833472041,-0.8798828,0.0048828125,-0.016601562,14.8125,-27.53125,12.28125,0.0,0.0,0.0
1695833472081,-1.5966797,0.49902344,0.3046875,-4.46875,-76.5,-9.5,0.0,0.0,0.0
1695833472121,-1.3017578,0.47851562,0.16601562,17.1875,-132.40625,-34.46875,0.0,0.0,0.0
1695833472161,-0.9873047,0.7832031,0.5996094,33.375,-166.46875,-4.0625,0.0,0.0,0.0
1695833472200,-1.3662109,0.46191406,0.5605469,7.3125,-105.375,15.46875,0.0,0.0,0.0
1695833472241,-0.65625,0.27246094,0.55859375,-1.96875,-82.96875,3.5625,0.0,0.0,0.0
1695833472281,-0.5761719,0.20410156,0.47070312,-26.5,-9.53125,7.03125,0.0,0.0,0.0
1695833472321,-0.36035156,0.18652344,0.40234375,-31.75,25.5,-1.3125,0.0,0.0,0.0
1695833472361,-0.25683594,0.16601562,0.41601562,-16.4375,59.3125,5.9375,0.0,0.0,0.0
1695833472401,-0.13574219,0.05859375,0.3701172,-14.25,81.34375,-7.78125,0.0,0.0,0.0
1695833472441,-0.6328125,0.08984375,0.39941406,-4.21875,125.84375,-10.46875,-79.375,12.5,-96.9375
1695833472481,-0.9511719,0.08300781,0.21679688,43.3125,70.90625,-4.75,0.0,0.0,0.0
1695833472541,-0.6064453,0.31640625,0.4970703,39.28125,60.34375,-12.65625,0.0,0.0,0.0
1695833472561,-0.7373047,0.5263672,0.4638672,-99.75,29.65625,-13.40625,0.0,0.0,0.0
1695833472601,-1.2675781,0.61816406,-0.3173828,24.8125,44.46875,10.09375,0.0,0.0,0.0
1695833472642,-1.6396484,0.40722656,0.53027344,-46.21875,-36.625,-12.625,0.0,0.0,0.0
1695833472681,-1.0712891,-0.2421875,0.34472656,-55.125,-7.59375,-19.25,0.0,0.0,0.0
1695833472721,-0.9248047,-0.028320312,0.41992188,37.9375,-33.90625,-8.9375,0.0,0.0,0.0
1695833472762,-1.1523438,0.15917969,0.38378906,30.625,8.15625,-18.03125,0.0,0.0,0.0
1695833472801,-0.953125,0.33789062,0.3203125,25.5,64.5625,-6.25,0.0,0.0,0.0
1695833472840,-0.85839844,0.18066406,0.3486328,9.8125,30.875,10.46875,0.0,0.0,0.0
1695833472881,-0.7265625,0.20996094,0.16992188,16.09375,44.125,16.0625,0.0,0.0,0.0
1695833472920,-0.74316406,0.10839844,0.2841797,20.25,53.21875,16.1875,-79.5,10.5625,-106.875
1695833472961,-0.54296875,0.08886719,0.2421875,-9.59375,29.03125,12.78125,0.0,0.0,0.0
1695833473004,-0.5722656,-0.030273438,0.25878906,2.3125,16.03125,7.59375,0.0,0.0,0.0
1695833473040,-0.5107422,0.060546875,0.27734375,-9.71875,-6.78125,6.4375,0.0,0.0,0.0
1695833473081,-0.6845703,0.0234375,0.18066406,6.21875,-18.8125,14.3125,0.0,0.0,0.0
1695833473121,-1.390625,0.27929688,0.1640625,21.21875,-65.03125,5.875,0.0,0.0,0.0
1695833473160,-1.1855469,0.40722656,0.12597656,-22.28125,-126.46875,-6.3125,0.0,0.0,0.0
1695833473202,-1.2578125,0.69140625,0.34765625,45.28125,-195.5625,11.9375,0.0,0.0,0.0
1695833473241,-1.3457031,0.79296875,0.8330078,-63.875,-182.09375,38.34375,0.0,0.0,0.0
1695833473286,-0.9707031,0.5527344,0.5058594,6.28125,-77.34375,3.125,0.0,0.0,0.0
1695833473320,-0.49023438,-0.032226562,0.56640625,-31.5625,-29.5625,8.375,0.0,0.0,0.0
1695833473360,-0.4580078,0.041992188,0.3828125,-17.0,6.625,9.1875,0.0,0.0,0.0
1695833473401,-0.19140625,0.1328125,0.49609375,12.375,67.84375,13.9375,0.0,0.0,0.0
1695833473442,-0.22753906,0.09472656,0.44140625,8.53125,114.1875,21.21875,-80.125,16.375,-93.1875
1695833473481,-0.22460938,0.12109375,0.5107422,-25.65625,96.125,-30.0,0.0,0.0,0.0
1695833473521,-0.9121094,0.16308594,0.54296875,-2.53125,170.5,-35.125,0.0,0.0,0.0
1695833473582,-1.0761719,0.41601562,0.26953125,-18.4375,81.53125,-24.28125,0.0,0.0,0.0
1695833473601,-0.60253906,0.52246094,0.7285156,-78.15625,42.21875,-16.5625,0.0,0.0,0.0
1695833473660,-0.98535156,0.4111328,-0.22851562,-38.15625,-1.96875,26.4375,0.0,0.0,0.0
1695833473681,-1.5615234,0.12597656,0.29003906,19.03125,-25.53125,12.53125,0.0,0.0,0.0
1695833473720,-1.9355469,0.25976562,-0.060546875,-86.125,-36.875,0.6875,0.0,0.0,0.0
1695833473761,-0.7636719,-0.021484375,0.39648438,13.46875,-50.6875,-9.0,0.0,0.0,0.0
1695833473801,-0.6582031,0.3515625,0.2861328,35.25,14.21875,-7.0625,0.0,0.0,0.0
1695833473841,-1.0146484,0.40820312,-0.0048828125,10.1875,81.78125,31.59375,0.0,0.0,0.0
1695833473880,-1.1435547,0.01171875,0.5546875,38.6875,24.59375,17.78125,0.0,0.0,0.0
1695833473921,-0.7109375,0.10839844,0.16894531,-56.15625,36.65625,-0.90625,-78.875,17.5625,-107.875
1695833473961,-0.67871094,-0.061523438,0.3125,-0.03125,26.71875,3.125,0.0,0.0,0.0
1695833474000,-0.55078125,-0.034179688,0.3671875,-2.8125,7.5625,0.5625,0.0,0.0,0.0
1695833474041,-0.5439453,-0.11425781,0.21875,7.5625,-1.71875,-4.4375,0.0,0.0,0.0
1695833474081,-0.5566406,0.020507812,0.29003906,22.375,-7.53125,0.34375,0.0,0.0,0.0
1695833474161,-0.78222656,0.111328125,-0.020507812,31.34375,-32.125,10.34375,0.0,0.0,0.0
1695833474166,-1.5322266,0.44628906,0.22167969,13.34375,-84.84375,-11.4375,0.0,0.0,0.0
1695833474200,-1.4208984,0.5576172,0.22460938,5.21875,-148.625,-14.0625,0.0,0.0,0.0
1695833474241,-1.1542969,0.78222656,0.7783203,-30.34375,-173.28125,-4.84375,0.0,0.0,0.0
1695833474281,-1.1708984,0.47460938,0.6269531,-18.8125,-106.78125,7.34375,0.0,0.0,0.0
1695833474321,-0.8232422,0.047851562,0.65625,-22.71875,-100.25,-8.875,0.0,0.0,0.0
1695833474361,-0.5625,0.09277344,0.4892578,-8.5625,-22.46875,-3.75,0.0,0.0,0.0
1695833474401,-0.2890625,0.13867188,0.4267578,8.28125,-3.25,-2.0625,0.0,0.0,0.0
1695833474441,-0.19238281,0.103515625,0.5263672,19.75,56.0,6.90625,-80.125,16.375,-87.625
1695833474481,-0.20703125,0.005859375,0.47265625,10.125,77.125,6.5,0.0,0.0,0.0
1695833474520,-0.3408203,0.0703125,0.45996094,-1.78125,141.15625,-34.875,0.0,0.0,0.0
1695833474561,-1.3320312,0.14648438,0.44726562,8.59375,216.28125,2.53125,0.0,0.0,0.0
1695833474601,-0.6660156,0.3798828,0.6386719,-0.09375,49.96875,-16.75,0.0,0.0,0.0
1695833474642,-1.2832031,0.5673828,0.21972656,-3.1875,-24.625,26.5,0.0,0.0,0.0
1695833474682,-1.3769531,0.14746094,0.13476562,-24.0,-38.65625,10.09375,0.0,0.0,0.0
1695833474721,-0.75,0.0390625,0.3232422,-48.46875,-6.5625,-17.0,0.0,0.0,0.0
1695833474761,-1.5410156,-0.060546875,0.31054688,-10.75,14.875,-0.40625,0.0,0.0,0.0
1695833474802,-1.1396484,0.19140625,0.3359375,8.21875,10.53125,2.15625,0.0,0.0,0.0
1695833474842,-0.91015625,0.06542969,0.37890625,59.375,15.71875,-7.25,0.0,0.0,0.0
1695833474881,-0.81933594,0.28515625,0.28125,32.9375,57.40625,-7.0625,0.0,0.0,0.0
1695833474921,-0.7089844,0.20019531,0.14453125,45.75,37.6875,15.78125,-79.0625,16.375,-104.3125
1695833474961,-0.7050781,0.12597656,0.4326172,13.28125,39.46875,23.9375,0.0,0.0,0.0
1695833475001,-0.70703125,0.016601562,0.296875,-7.40625,33.125,10.15625,0.0,0.0,0.0
1695833475042,-0.6347656,0.06542969,0.30078125,12.5625,4.5625,13.625,0.0,0.0,0.0
1695833475081,-0.58203125,-0.046875,0.24414062,25.875,-8.4375,19.25,0.0,0.0,0.0
1695833475121,-0.61035156,-0.016601562,0.2890625,16.84375,-26.1875,13.21875,0.0,0.0,0.0
1695833475161,-0.80078125,0.08886719,0.24609375,6.09375,-25.46875,-7.1875,0.0,0.0,0.0
1695833475201,-1.2695312,0.29492188,0.22851562,-2.59375,-38.84375,-10.90625,0.0,0.0,0.0
1695833475240,-1.1796875,0.37109375,0.0859375,-3.9375,-83.6875,-23.46875,0.0,0.0,0.0
1695833475281,-1.3623047,0.54003906,0.42773438,31.0,-147.59375,-10.34375,0.0,0.0,0.0
1695833475321,-1.0576172,0.6982422,0.60839844,-56.59375,-164.5625,19.3125,0.0,0.0,0.0
1695833475380,-1.0253906,0.47070312,0.6376953,-1.25,-105.5,2.46875,0.0,0.0,0.0
1695833475401,-0.5,0.07714844,0.5205078,-22.40625,-31.9375,0.21875,0.0,0.0,0.0
1695833475440,-0.49902344,0.13378906,0.36523438,-23.625,3.09375,-0.46875,-78.4375,19.0625,-89.625
1695833475481,-0.2939453,0.08886719,0.49316406,9.125,47.71875,5.59375,0.0,0.0,0.0
1695833475521,-0.23242188,0.03515625,0.36132812,32.15625,99.09375,0.09375,0.0,0.0,0.0
1695833475561,-0.3017578,0.13574219,0.42382812,-14.90625,96.0625,-28.84375,0.0,0.0,0.0
1695833475602,-1.1142578,0.19335938,0.4560547,36.96875,189.375,-9.4375,0.0,0.0,0.0
1695833475641,-0.79296875,0.47070312,0.6191406,23.59375,53.4375,-15.84375,0.0,0.0,0.0
1695833475682,-0.8378906,0.26953125,0.64453125,-96.34375,34.09375,1.1875,0.0,0.0,0.0
1695833475721,-0.88183594,0.84765625,-0.046875,-26.03125,25.75,27.5,0.0,0.0,0.0
1695833475761,-1.4560547,-0.11328125,-0.34277344,45.75,-3.4375,19.3125,0.0,0.0,0.0
1695833475801,-1.5654297,0.3828125,0.421875,-99.1875,-16.3125,-8.9375,0.0,0.0,0.0
1695833475841,-1.1767578,-0.14355469,0.20019531,-68.0625,-28.46875,-27.9375,0.0,0.0,0.0
1695833475881,-0.75390625,0.19042969,0.15625,8.28125,-20.28125,-17.375,0.0,0.0,0.0
1695833475940,-0.7714844,0.24121094,0.28027344,65.0,7.84375,-0.84375,-79.5,15.8125,-102.0625
1695833475962,-1.1396484,0.07714844,0.37597656,10.0625,56.125,6.875,0.0,0.0,0.0
1695833476001,-0.9238281,0.013671875,0.22167969,12.3125,21.46875,10.15625,0.0,0.0,0.0
1695833476041,-0.71777344,0.09472656,0.3857422,20.5625,40.3125,1.0625,0.0,0.0,0.0
1695833476081,-0.7089844,0.21191406,0.2998047,25.625,22.1875,14.78125,0.0,0.0,0.0
1695833476121,-0.5253906,0.036132812,0.28710938,10.84375,8.46875,18.34375,0.0,0.0,0.0
1695833476160,-0.5957031,-0.07324219,0.3125,-2.28125,14.875,15.78125,0.0,0.0,0.0
1695833476202,-0.76171875,-0.1015625,0.107421875,-6.5625,4.5,17.84375,0.0,0.0,0.0
1695833476241,-1.2832031,0.20605469,0.07324219,20.90625,-42.375,13.09375,0.0,0.0,0.0
1695833476281,-1.4501953,0.60546875,0.25390625,-23.8125,-104.21875,-27.6875,0.0,0.0,0.0
1695833476323,-1.2998047,0.7441406,0.4580078,9.875,-205.65625,-27.875,0.0,0.0,0.0
1695833476361,-0.81640625,0.5625,0.6953125,-24.5,-138.03125,11.4375,0.0,0.0,0.0
1695833476402,-1.1074219,0.18359375,0.5732422,-9.78125,-107.3125,17.1875,0.0,0.0,0.0
1695833476442,-0.53515625,0.31445312,0.58984375,0.90625,-69.0625,7.09375,-78.0,18.5,-89.0
1695833476481,-0.5058594,0.15429688,0.61621094,-2.21875,22.875,-8.53125,0.0,0.0,0.0
1695833476521,-0.36621094,0.076171875,0.37402344,27.09375,51.6875,1.84375,0.0,0.0,0.0
1695833476561,-0.28125,0.06738281,0.328125,30.5625,56.75,3.125,0.0,0.0,0.0
1695833476601,-0.33007812,0.20996094,0.6669922,-9.28125,54.65625,-31.40625,0.0,0.0,0.0
1695833476642,-0.6171875,0.23242188,0.5253906,-51.53125,184.8125,-28.0,0.0,0.0,0.0
1695833476702,-1.0498047,0.3388672,0.21191406,5.84375,140.96875,-0.21875,0.0,0.0,0.0
1695833476720,-0.515625,0.3671875,0.66308594,-8.6875,-12.90625,9.1875,0.0,0.0,0.0
1695833476760,-0.97558594,0.14160156,0.125,-57.5625,16.28125,17.25,0.0,0.0,0.0
1695833476801,-1.3330078,0.5185547,-0.017578125,-3.375,38.4375,10.46875,0.0,0.0,0.0
1695833476861,-1.5546875,0.1484375,0.4501953,43.0625,-27.1875,-4.1875,0.0,0.0,0.0
1695833476881,-1.4560547,-0.05859375,0.46875,-25.84375,19.09375,-20.90625,0.0,0.0,0.0
1695833476921,-0.8359375,0.1953125,0.22851562,44.28125,-7.46875,-5.21875,-78.875,16.25,-103.375
1695833476961,-0.9589844,0.28125,0.2939453,22.875,24.09375,0.15625,0.0,0.0,0.0
1695833477000,-0.81933594,0.25976562,0.17871094,8.53125,33.5,10.09375,0.0,0.0,0.0
1695833477042,-0.71777344,0.12988281,0.21191406,-12.53125,39.03125,12.0625,0.0,0.0,0.0
1695833477081,-0.73339844,0.103515625,0.25,-5.6875,34.84375,9.96875,0.0,0.0,0.0
1695833477120,-0.5654297,0.03515625,0.26660156,-14.3125,14.15625,14.6875,0.0,0.0,0.0
1695833477161,-0.57714844,-0.080078125,0.28515625,6.75,0.59375,17.46875,0.0,0.0,0.0
1695833477202,-0.6425781,-0.12597656,0.21777344,0.90625,7.0,7.84375,0.0,0.0,0.0
1695833477239,-0.734375,-0.045898438,0.091796875,32.5,-20.34375,1.5625,0.0,0.0,0.0
1695833477280,-1.4833984,0.4189453,0.21484375,16.21875,-66.53125,-12.5625,0.0,0.0,0.0
1695833477320,-1.3554688,0.6386719,0.2763672,-19.0,-129.28125,-22.875,0.0,0.0,0.0
1695833477361,-1.1552734,0.70214844,0.3251953,8.96875,-143.15625,-10.53125,0.0,0.0,0.0
1695833477400,-1.2773438,0.5488281,0.69921875,-10.09375,-178.59375,31.9375,0.0,0.0,0.0
1695833477440,-0.99316406,0.34960938,0.61816406,-7.21875,-130.15625,13.9375,-79.375,17.125,-93.9375
1695833477497,-0.60839844,0.12402344,0.6611328,-24.3125,-20.03125,1.1875,0.0,0.0,0.0
1695833477522,-0.5214844,0.11230469,0.5371094,-3.5,15.78125,7.90625,0.0,0.0,0.0
1695833477561,-0.29589844,0.095703125,0.43066406,22.03125,61.625,16.8125,0.0,0.0,0.0
1695833477601,-0.25976562,0.07714844,0.3857422,24.65625,69.375,8.21875,0.0,0.0,0.0
1695833477640,-0.28027344,0.19238281,0.59277344,-9.34375,89.9375,-34.59375,0.0,0.0,0.0
1695833477683,-1.0234375,0.13964844,0.49414062,-4.21875,233.125,-12.4375,0.0,0.0,0.0
1695833477721,-0.7138672,0.31835938,0.28710938,-33.84375,44.78125,-14.625,0.0,0.0,0.0
1695833477781,-0.5761719,0.40429688,0.57714844,-19.375,25.8125,3.8125,0.0,0.0,0.0
1695833477800,-0.9902344,0.6201172,0.23339844,-41.9375,10.96875,18.6875,0.0,0.0,0.0
1695833477841,-1.4658203,0.14550781,-0.16894531,24.75,-16.375,8.21875,0.0,0.0,0.0
1695833477900,-1.6201172,0.16699219,0.4140625,-29.25,-38.90625,-3.8125,0.0,0.0,0.0
1695833477920,-1.1552734,-0.037109375,0.5527344,-28.53125,-22.78125,-18.46875,-77.125,18.0625,-104.4375
1695833477961,-0.9482422,0.13671875,0.27929688,7.0,-16.9375,-12.4375,0.0,0.0,0.0
1695833478000,-0.96777344,0.25097656,0.28515625,53.03125,27.5625,4.65625,0.0,0.0,0.0
1695833478040,-1.0097656,0.31933594,0.2861328,-7.53125,44.40625,9.4375,0.0,0.0,0.0
1695833478080,-0.8828125,0.14453125,0.34375,-28.8125,42.59375,6.4375,0.0,0.0,0.0
1695833478122,-0.7216797,0.099609375,0.16699219,-17.96875,37.65625,12.28125,0.0,0.0,0.0
1695833478161,-0.7216797,0.049804688,0.29492188,12.4375,22.25,14.78125,0.0,0.0,0.0
1695833478200,-0.5234375,0.02734375,0.25976562,20.84375,10.34375,15.03125,0.0,0.0,0.0
1695833478242,-0.5136719,-0.099609375,0.24414062,2.53125,9.03125,12.21875,0.0,0.0,0.0
1695833478302,-0.5722656,-0.087890625,0.044921875,10.34375,2.90625,4.53125,0.0,0.0,0.0
1695833478320,-0.84277344,0.10546875,0.20507812,-3.9375,-37.0,-1.6875,0.0,0.0,0.0
1695833478361,-1.4501953,0.43945312,0.18554688,-14.65625,-137.90625,-5.78125,0.0,0.0,0.0
1695833478400,-1.3330078,0.5019531,0.20605469,46.0625,-225.34375,-18.90625,0.0,0.0,0.0
1695833478440,-1.1708984,0.82421875,0.92578125,-13.6875,-239.21875,34.15625,-80.375,20.0,-96.375
1695833478480,-1.03125,0.37402344,0.7080078,-2.875,-116.03125,0.5625,0.0,0.0,0.0
1695833478521,-0.6640625,0.25878906,0.6455078,-50.3125,-77.34375,-0.03125,0.0,0.0,0.0
1695833478561,-0.71484375,0.23535156,0.66503906,-31.03125,0.96875,-4.5,0.0,0.0,0.0
1695833478601,-0.4326172,0.1640625,0.6933594,15.4375,15.90625,-0.65625,0.0,0.0,0.0
1695833478642,-0.2861328,0.13671875,0.6748047,8.21875,73.21875,3.5,0.0,0.0,0.0
1695833478681,-0.20214844,0.040039062,0.44628906,-5.875,109.125,8.09375,0.0,0.0,0.0
1695833478721,-0.20410156,0.0029296875,0.296875,2.1875,116.0625,25.53125,0.0,0.0,0.0
1695833478761,-0.796875,0.14550781,0.5048828,11.6875,171.25,-24.875,0.0,0.0,0.0
1695833478801,-1.171875,0.36914062,0.5878906,-8.8125,129.0,7.09375,0.0,0.0,0.0
1695833478841,-0.48339844,0.40234375,0.515625,19.6875,19.5625,-6.5625,0.0,0.0,0.0
1695833478881,-0.7939453,0.29101562,0.15917969,-99.5625,53.3125,12.28125,0.0,0.0,0.0
1695833478921,-1.4101562,0.4326172,-0.43652344,-32.25,51.8125,2.46875,-78.4375,19.0625,-104.125
1695833478961,-1.1591797,0.33691406,0.52246094,26.59375,-11.125,1.125,0.0,0.0,0.0
1695833479001,-1.5117188,-0.21679688,0.41503906,-76.5,17.75,-23.21875,0.0,0.0,0.0
1695833479041,-0.90527344,0.026367188,0.33984375,11.53125,-18.875,-12.375,0.0,0.0,0.0
1695833479081,-1.0019531,0.15917969,0.3798828,53.5625,6.21875,-2.46875,0.0,0.0,0.0
1695833479122,-0.7988281,0.2705078,0.19335938,16.78125,46.90625,12.84375,0.0,0.0,0.0
1695833479160,-0.8720703,0.21777344,0.25097656,38.875,35.25,14.96875,0.0,0.0,0.0
1695833479201,-0.58496094,0.16601562,0.3671875,-31.9375,44.59375,13.40625,0.0,0.0,0.0
1695833479242,-0.671875,0.0625,0.26953125,-21.6875,33.78125,14.0,0.0,0.0,0.0
1695833479281,-0.64453125,-0.15625,0.24414062,-23.40625,7.5,9.78125,0.0,0.0,0.0
1695833479322,-0.60058594,-0.25,0.111328125,23.96875,-7.59375,7.40625,0.0,0.0,0.0
1695833479361,-0.64453125,-0.1015625,0.24902344,56.875,-36.6875,12.90625,0.0,0.0,0.0
1695833479401,-1.1445312,0.16699219,0.08496094,64.625,-53.0,-0.03125,0.0,0.0,0.0
1695833479443,-1.4921875,0.78125,0.20214844,5.15625,-85.90625,-28.46875,-77.25,20.0,-106.375
1695833479481,-1.4960938,0.7636719,0.31054688,8.71875,-118.25,-51.5625,0.0,0.0,0.0
1695833479540,-1.1220703,0.6230469,0.3701172,-41.75,-112.75,-10.59375,0.0,0.0,0.0
1695833479561,-1.0341797,0.2939453,0.5253906,30.0,-142.34375,26.28125,0.0,0.0,0.0
1695833479601,-0.84472656,0.047851562,0.64941406,-13.03125,-113.0,-2.71875,0.0,0.0,0.0
1695833479641,-0.546875,0.29101562,0.49804688,1.5625,-5.625,-0.53125,0.0,0.0,0.0
1695833479700,-0.4169922,0.17382812,0.4189453,32.40625,41.0,-2.34375,0.0,0.0,0.0
1695833479721,-0.2890625,0.09082031,0.35839844,47.53125,42.9375,5.875,0.0,0.0,0.0
1695833479761,-0.125,0.016601562,0.4140625,8.46875,42.40625,-22.9375,0.0,0.0,0.0
1695833479801,-0.30859375,0.041992188,0.44921875,-18.09375,191.9375,-50.9375,0.0,0.0,0.0
1695833479842,-1.2421875,0.31152344,0.16210938,-29.1875,180.59375,6.875,0.0,0.0,0.0
1695833479881,-0.8076172,0.765625,0.5,-62.8125,51.4375,-18.21875,0.0,0.0,0.0
1695833479921,-1.3242188,0.56152344,0.08105469,-20.28125,-13.125,24.9375,-78.875,18.8125,-106.125
1695833479961,-1.4208984,0.08691406,-0.076171875,-24.25,-24.96875,12.90625,0.0,0.0,0.0
1695833480001,-1.3642578,0.032226562,0.546875,29.34375,-6.5,-6.9375,0.0,0.0,0.0
1695833480041,-1.4306641,0.0087890625,0.27441406,-42.9375,-1.53125,-14.5,0.0,0.0,0.0
1695833480083,-0.9951172,0.12109375,0.37304688,39.90625,-5.875,-4.0,0.0,0.0,0.0
1695833480121,-0.8574219,0.10449219,0.33691406,63.59375,13.59375,1.1875,0.0,0.0,0.0
1695833480161,-0.70214844,0.2939453,0.36621094,10.71875,39.15625,3.5,0.0,0.0,0.0
1695833480201,-0.80078125,0.072265625,0.22753906,-5.9375,33.1875,14.25,0.0,0.0,0.0
1695833480239,-0.58496094,0.028320312,0.23339844,32.03125,31.15625,5.09375,0.0,0.0,0.0
1695833480283,-0.5683594,-0.02734375,0.15527344,9.25,14.8125,17.65625,0.0,0.0,0.0
1695833480321,-0.671875,-0.0107421875,0.23144531,4.125,4.625,14.4375,0.0,0.0,0.0
1695833480360,-0.6533203,-0.0703125,0.13378906,15.71875,-3.75,6.375,0.0,0.0,0.0
1695833480401,-0.95996094,0.025390625,0.078125,39.34375,-30.59375,-2.96875,0.0,0.0,0.0
1695833480441,-1.3310547,0.47558594,0.140625,23.1875,-68.8125,-13.78125,-77.6875,19.8125,-109.25
1695833480480,-1.5419922,0.5654297,0.16699219,-39.03125,-121.46875,-25.78125,0.0,0.0,0.0
1695833480521,-1.2578125,0.7314453,0.65722656,-59.34375,-150.34375,-46.71875,0.0,0.0,0.0
1695833480560,-1.2480469,0.4501953,0.3720703,15.0,-154.3125,39.03125,0.0,0.0,0.0
1695833480603,-0.6972656,-0.024414062,0.53027344,11.28125,-191.71875,-17.6875,0.0,0.0,0.0
1695833480641,-0.47558594,0.1171875,0.5605469,5.84375,-33.34375,8.5,0.0,0.0,0.0
1695833480681,-0.34472656,0.14550781,0.46679688,37.03125,47.53125,6.8125,0.0,0.0,0.0
1695833480721,-0.34375,0.16210938,0.4189453,43.375,102.78125,9.1875,0.0,0.0,0.0
1695833480760,-0.32128906,0.0146484375,0.6591797,13.84375,94.71875,-30.6875,0.0,0.0,0.0
1695833480804,-0.40234375,0.0546875,0.3173828,4.25,112.40625,-42.75,0.0,0.0,0.0
1695833480843,-0.8359375,0.39648438,0.12890625,28.0,194.125,-1.6875,0.0,0.0,0.0
1695833480880,-0.8691406,0.5878906,0.5185547,-47.3125,-21.8125,-10.15625,0.0,0.0,0.0
1695833480920,-1.2119141,0.45703125,-0.033203125,-1.0625,55.03125,49.34375,-78.4375,17.5625,-104.75
1695833480961,-1.5234375,0.22851562,0.19140625,-49.34375,-14.1875,11.375,0.0,0.0,0.0
1695833481001,-1.5537109,-0.015625,0.49804688,1.9375,-13.375,-8.21875,0.0,0.0,0.0
1695833481041,-1.1035156,0.15332031,0.2578125,-44.875,-14.0625,-16.6875,0.0,0.0,0.0
1695833481081,-0.88378906,0.16308594,0.37695312,49.53125,-11.1875,-3.15625,0.0,0.0,0.0
1695833481120,-1.0615234,0.10449219,0.35839844,62.25,34.21875,8.6875,0.0,0.0,0.0
1695833481161,-0.83691406,0.21679688,0.16894531,14.9375,62.96875,9.5,0.0,0.0,0.0
1695833481201,-0.8203125,0.16210938,0.3046875,8.40625,36.90625,9.4375,0.0,0.0,0.0
1695833481242,-0.58496094,0.09082031,0.25585938,6.15625,39.59375,7.15625,0.0,0.0,0.0
1695833481282,-0.6035156,0.095703125,0.17480469,26.90625,29.59375,10.78125,0.0,0.0,0.0
1695833481320,-0.51660156,0.005859375,0.20703125,17.4375,15.78125,16.375,0.0,0.0,0.0
1695833481361,-0.6894531,0.021484375,0.30371094,11.40625,19.6875,12.71875,0.0,0.0,0.0
1695833481400,-0.8388672,-0.1953125,-0.015625,37.09375,12.6875,9.90625,0.0,0.0,0.0
1695833481440,-1.2949219,0.25097656,0.18261719,18.65625,-57.6875,-10.53125,-77.125,18.3125,-113.75
1695833481480,-1.3105469,0.76171875,0.3154297,-71.625,-149.6875,-14.625,0.0,0.0,0.0
1695833481521,-1.4492188,0.6298828,0.4140625,105.4375,-221.875,-16.53125,0.0,0.0,0.0
1695833481561,-1.0683594,0.46679688,0.83984375,-2.09375,-150.21875,16.9375,0.0,0.0,0.0
1695833481601,-0.8046875,0.17675781,0.5810547,-15.46875,-127.28125,-1.3125,0.0,0.0,0.0
1695833481641,-0.50097656,0.27539062,0.56933594,-10.34375,-62.15625,-2.21875,0.0,0.0,0.0
1695833481681,-0.4453125,0.17773438,0.5341797,-13.09375,11.6875,-24.375,0.0,0.0,0.0
1695833481722,-0.10644531,0.06640625,0.30078125,34.96875,86.90625,-12.125,0.0,0.0,0.0
1695833481761,-0.12695312,-0.018554688,0.25585938,46.90625,78.90625,11.6875,0.0,0.0,0.0
1695833481800,-0.35839844,0.12597656,0.6699219,39.59375,48.1875,-6.6875,0.0,0.0,0.0
1695833481861,-0.95703125,0.28808594,0.46777344,30.0625,127.90625,-36.59375,0.0,0.0,0.0
1695833481881,-1.4228516,0.5957031,0.5644531,-15.875,-21.75,-15.78125,0.0,0.0,0.0
1695833481920,-0.4951172,0.49023438,1.0976562,25.3125,-100.96875,-10.15625,-79.9375,16.5625,-102.375
1695833481961,-0.15820312,0.20605469,0.76171875,4.75,38.0625,-5.78125,0.0,0.0,0.0
1695833482041,-1.9355469,0.45898438,0.5097656,18.65625,-130.28125,-10.34375,0.0,0.0,0.0
1695833482045,-1.9355469,0.5488281,-0.16894531,-115.0625,22.03125,-8.71875,0.0,0.0,0.0
1695833482081,-0.8173828,-0.030273438,0.26464844,34.28125,-3.6875,-37.15625,0.0,0.0,0.0
1695833482121,-0.84375,0.060546875,0.14941406,40.8125,77.875,-7.59375,0.0,0.0,0.0
1695833482161,-1.2695312,0.43652344,0.5029297,-33.28125,163.6875,-12.78125,0.0,0.0,0.0
1695833482220,-0.9589844,0.7763672,0.15820312,-169.15625,248.59375,23.84375,0.0,0.0,0.0
1695833482241,-0.9550781,0.12109375,-0.296875,-49.9375,74.875,55.4375,0.0,0.0,0.0
1695833482281,-0.68847656,-0.29589844,0.3251953,54.1875,61.5,9.125,0.0,0.0,0.0
1695833482323,-0.4716797,0.2705078,0.16699219,-66.1875,80.0625,4.59375,0.0,0.0,0.0
1695833482366,-0.8144531,0.07324219,0.4033203,-13.09375,52.21875,23.9375,0.0,0.0,0.0
1695833482401,-0.75878906,0.13867188,0.20605469,-16.0,38.0,22.53125,0.0,0.0,0.0
1695833482460,-0.9003906,0.14355469,0.24707031,-11.5,31.46875,23.71875,-73.8125,18.3125,-118.5625
1695833482480,-0.9970703,0.19042969,0.20605469,-28.53125,4.3125,14.0625,0.0,0.0,0.0
1695833482521,-1.2441406,0.3486328,-0.1796875,0.34375,-55.4375,-12.65625,0.0,0.0,0.0
1695833482561,-1.2998047,0.37109375,0.040039062,-6.125,-192.8125,-53.6875,0.0,0.0,0.0
1695833482601,-1.3789062,0.74121094,0.0107421875,-45.375,-144.4375,-75.71875,0.0,0.0,0.0
1695833482641,-1.5185547,0.8544922,0.068359375,-207.15625,-115.9375,-0.46875,0.0,0.0,0.0
1695833482681,-0.8544922,0.3544922,0.0625,-38.28125,-218.71875,64.46875,0.0,0.0,0.0
1695833482721,-1.0546875,0.24023438,0.56933594,-1.25,-271.1875,17.53125,0.0,0.0,0.0
1695833482762,-0.48632812,0.14941406,0.62402344,33.4375,-117.4375,8.875,0.0,0.0,0.0
1695833482801,-0.046875,0.060546875,0.60839844,-30.90625,-8.5,4.84375,0.0,0.0,0.0
1695833482842,-0.1015625,-0.08105469,0.3173828,-1.1875,48.125,2.78125,0.0,0.0,0.0
1695833482882,0.076171875,-0.048828125,0.27246094,15.25,65.03125,-6.125,0.0,0.0,0.0
1695833482941,0.06640625,0.041992188,0.375,18.46875,100.3125,0.4375,-78.4375,19.375,-87.5
1695833482960,-0.7207031,0.18945312,0.58984375,25.4375,169.21875,-20.53125,0.0,0.0,0.0
1695833483021,-1.3857422,0.25878906,0.5136719,40.9375,152.8125,-28.96875,0.0,0.0,0.0
1695833483041,-0.57910156,0.4296875,0.45898438,-9.71875,37.34375,-18.78125,0.0,0.0,0.0
1695833483082,-0.9970703,0.78027344,0.0234375,-92.78125,69.375,35.125,0.0,0.0,0.0
1695833483120,-1.9355469,0.3544922,0.08984375,-45.625,-23.28125,20.53125,0.0,0.0,0.0
1695833483161,-1.1787109,-0.22851562,0.34960938,-16.6875,6.21875,-37.09375,0.0,0.0,0.0
1695833483201,-0.8984375,0.0029296875,0.16113281,9.375,2.84375,-25.0625,0.0,0.0,0.0
1695833483241,-0.9550781,0.52734375,0.37695312,73.15625,20.0625,1.90625,0.0,0.0,0.0
1695833483302,-0.9609375,0.16210938,0.38867188,18.53125,68.53125,21.75,0.0,0.0,0.0
1695833483325,-0.8203125,0.21386719,0.29589844,-27.96875,49.65625,14.96875,0.0,0.0,0.0
1695833483361,-0.6582031,0.044921875,0.27929688,-2.875,50.34375,10.46875,0.0,0.0,0.0
1695833483403,-0.60839844,-0.01171875,0.32421875,7.5625,34.34375,13.4375,0.0,0.0,0.0
1695833483460,-0.6611328,-0.0048828125,0.203125,10.34375,22.125,12.71875,-78.875,20.875,-108.1875
1695833483481,-0.5449219,-0.009765625,0.24609375,39.53125,-7.65625,12.46875,0.0,0.0,0.0
1695833483521,-0.5839844,0.06738281,0.38085938,10.3125,-11.4375,6.96875,0.0,0.0,0.0
1695833483561,-0.7910156,-0.15136719,0.17773438,22.6875,-20.28125,6.0625,0.0,0.0,0.0
1695833483601,-1.2460938,0.21777344,-0.0107421875,35.03125,-70.4375,-2.90625,0.0,0.0,0.0
1695833483641,-1.359375,0.6064453,0.03515625,12.25,-133.25,-21.71875,0.0,0.0,0.0
1695833483681,-1.4482422,0.9160156,0.66796875,3.34375,-184.65625,-39.71875,0.0,0.0,0.0
1695833483721,-1.0927734,0.6826172,0.7128906,-5.5625,-135.9375,15.65625,0.0,0.0,0.0
1695833483761,-0.99609375,0.06738281,0.6064453,-20.40625,-110.5625,-15.125,0.0,0.0,0.0
1695833483821,-0.6171875,0.14160156,0.578125,-22.1875,-80.53125,9.25,0.0,0.0,0.0
1695833483839,-0.40625,0.08496094,0.49902344,8.59375,11.59375,-19.75,0.0,0.0,0.0
1695833483880,-0.296875,0.09667969,0.421875,33.3125,68.09375,2.09375,0.0,0.0,0.0
1695833483941,-0.24414062,0.044921875,0.43554688,31.15625,91.0625,-5.84375,-80.875,17.875,-90.8125
1695833483961,-0.3623047,0.06933594,0.45703125,1.5,129.375,-40.1875,0.0,0.0,0.0
1695833484001,-1.1601562,0.16113281,0.23535156,3.65625,254.5,1.5,0.0,0.0,0.0
1695833484042,-0.65722656,0.49316406,0.17578125,-99.8125,82.1875,-31.03125,0.0,0.0,0.0
1695833484081,-0.45703125,0.51464844,0.7685547,84.75,-50.625,13.28125,0.0,0.0,0.0
1695833484119,-1.2294922,0.20117188,-0.060546875,-99.3125,37.15625,33.46875,0.0,0.0,0.0
1695833484160,-1.4658203,0.48339844,-0.4873047,3.875,-1.78125,3.0625,0.0,0.0,0.0
1695833484200,-1.3388672,0.095703125,0.7705078,13.03125,-34.4375,-15.71875,0.0,0.0,0.0
1695833484261,-1.4365234,-0.14746094,0.34472656,-63.5,21.78125,-19.09375,0.0,0.0,0.0
1695833484280,-1.1513672,0.0078125,0.19921875,16.65625,-6.5,9.53125,0.0,0.0,0.0
1695833484320,-0.88671875,0.21582031,0.26464844,55.09375,16.71875,5.6875,0.0,0.0,0.0
1695833484361,-0.76660156,0.33203125,0.29003906,7.71875,35.75,12.46875,0.0,0.0,0.0
1695833484401,-0.74902344,0.171875,0.23046875,-3.625,33.96875,22.59375,0.0,0.0,0.0
1695833484461,-0.65722656,0.15917969,0.31835938,-12.21875,41.65625,14.6875,-79.375,17.4375,-108.0625
1695833484481,-0.71191406,0.048828125,0.3515625,-32.96875,26.96875,19.375,0.0,0.0,0.0
1695833484520,-0.7421875,-0.19726562,0.26171875,-19.5625,7.625,16.125,0.0,0.0,0.0
1695833484560,-0.6845703,-0.17773438,0.18652344,4.125,-3.25,2.03125,0.0,0.0,0.0
1695833484602,-0.7626953,-0.043945312,0.27539062,48.3125,-22.46875,1.0,0.0,0.0,0.0
1695833484641,-0.8232422,0.12695312,0.13867188,35.875,-19.5,-1.875,0.0,0.0,0.0
1695833484681,-1.4824219,0.5029297,0.12988281,0.59375,-63.4375,-7.78125,0.0,0.0,0.0
1695833484800,-1.3476562,0.5410156,0.11621094,17.5,-132.84375,-29.625,0.0,0.0,0.0
1695833484821,-1.0917969,0.6845703,0.38085938,-22.71875,-141.3125,-26.65625,0.0,0.0,0.0
1695833484842,-1.3408203,0.48828125,0.40429688,-5.875,-147.40625,35.84375,0.0,0.0,0.0
1695833484845,-0.75683594,0.37597656,0.55859375,28.25,-157.25,-6.875,0.0,0.0,0.0
1695833484882,-0.4169922,0.07324219,0.54589844,-15.75,-36.15625,3.75,0.0,0.0,0.0
1695833484961,-0.43164062,0.064453125,0.4345703,3.03125,26.09375,4.53125,-78.4375,17.5625,-87.5
1695833484963,-0.21582031,0.048828125,0.4169922,23.65625,76.9375,13.625,0.0,0.0,0.0
1695833485001,-0.25,0.056640625,0.47851562,15.84375,84.625,-14.3125,0.0,0.0,0.0
1695833485049,-0.62402344,0.15136719,0.79296875,-45.71875,126.3125,-51.90625,0.0,0.0,0.0
1695833485081,-1.1083984,0.3955078,0.21972656,-11.625,192.4375,-14.25,0.0,0.0,0.0
1695833485130,-0.61328125,0.34277344,0.453125,-56.59375,29.84375,-20.46875,0.0,0.0,0.0
1695833485160,-0.6386719,0.34960938,0.2939453,-66.5,24.09375,10.8125,0.0,0.0,0.0
1695833485222,-1.1435547,0.47851562,-0.328125,3.34375,11.53125,31.09375,0.0,0.0,0.0
1695833485241,-1.6240234,0.26464844,0.25097656,-33.03125,-26.875,29.25,0.0,0.0,0.0
1695833485281,-1.3623047,-0.3095703,0.5683594,-47.125,-24.8125,-8.75,0.0,0.0,0.0
1695833485322,-1.0507812,0.0078125,0.296875,12.1875,-34.375,-21.8125,0.0,0.0,0.0
1695833485361,-0.9482422,0.21386719,0.31933594,8.09375,3.9375,-11.375,0.0,0.0,0.0
1695833485401,-0.85058594,0.22167969,0.2548828,44.59375,28.84375,8.3125,0.0,0.0,0.0
1695833485461,-0.9199219,0.171875,0.42578125,9.5,22.1875,16.375,-81.4375,17.4375,-104.3125
1695833485521,-0.7832031,0.15527344,0.30371094,-19.65625,49.65625,11.0625,0.0,0.0,0.0
1695833485540,-0.7636719,-0.015625,0.25,-4.71875,38.0625,13.75,0.0,0.0,0.0
1695833485580,-0.61621094,-0.055664062,0.28515625,-10.46875,17.1875,13.5625,0.0,0.0,0.0
1695833485620,-0.6269531,-0.11425781,0.2109375,-12.96875,2.65625,7.34375,0.0,0.0,0.0
1695833485661,-0.63183594,-0.0048828125,0.21972656,34.96875,-18.875,8.625,0.0,0.0,0.0
1695833485722,-0.7470703,-0.0390625,0.17382812,49.25,-9.34375,14.625,0.0,0.0,0.0
1695833485741,-1.1103516,0.24511719,0.043945312,23.125,-23.8125,-2.125,0.0,0.0,0.0
1695833485780,-1.4785156,0.46875,0.18359375,8.59375,-86.03125,-35.8125,0.0,0.0,0.0
1695833485820,-1.4707031,0.84375,0.43359375,-7.59375,-156.9375,-24.75,0.0,0.0,0.0
1695833485861,-1.1035156,0.70703125,0.58496094,-85.84375,-145.21875,6.625,0.0,0.0,0.0
1695833485921,-1.1904297,0.41308594,0.60253906,58.03125,-155.78125,31.59375,0.0,0.0,0.0
1695833485940,-0.6484375,-0.015625,0.6845703,0.59375,-86.1875,7.53125,-80.125,17.875,-89.75
1695833485981,-0.61621094,0.13964844,0.47070312,-23.21875,-29.875,-0.15625,0.0,0.0,0.0
1695833486021,-0.21777344,0.19335938,0.3798828,17.1875,40.15625,1.71875,0.0,0.0,0.0
1695833486061,-0.2763672,0.12011719,0.40527344,32.5,71.15625,17.46875,0.0,0.0,0.0
1695833486101,-0.16503906,0.103515625,0.41015625,13.15625,68.03125,5.28125,0.0,0.0,0.0
1695833486141,-0.41308594,0.16601562,0.5839844,-27.71875,140.59375,-42.34375,0.0,0.0,0.0
1695833486180,-1.2011719,0.13671875,0.39453125,-21.375,166.125,-8.9375,0.0,0.0,0.0
1695833486220,-0.6171875,0.3017578,0.2841797,-5.4375,69.3125,-12.78125,0.0,0.0,0.0
1695833486260,-0.69140625,0.203125,0.7939453,-29.5,8.40625,1.625,0.0,0.0,0.0
1695833486302,-1.1767578,0.62402344,-0.07421875,17.625,33.96875,12.15625,0.0,0.0,0.0
1695833486362,-1.2763672,0.015625,0.123046875,35.25,-30.40625,-13.9375,0.0,0.0,0.0
1695833486381,-1.7832031,0.022460938,0.029296875,-17.0,12.375,-20.53125,0.0,0.0,0.0
1695833486442,-1.0185547,0.0048828125,0.3330078,7.3125,-26.03125,-6.8125,0.0,0.0,0.0
1695833486479,-0.8808594,0.14746094,0.34179688,18.0625,-16.875,-16.8125,-80.5625,15.5,-103.125
1695833486499,-1.0361328,0.19140625,0.25585938,26.71875,42.15625,3.9375,0.0,0.0,0.0
1695833486538,-1.0458984,0.11230469,0.123046875,26.65625,34.21875,10.59375,0.0,0.0,0.0
1695833486579,-0.6777344,0.20605469,0.28222656,27.09375,26.78125,2.53125,0.0,0.0,0.0
1695833486622,-0.52734375,0.22753906,0.083984375,11.34375,27.5625,12.65625,0.0,0.0,0.0
