timestamp,accel_x,accel_y,accel_z,gyro_x,gyro_y,gyro_z
1695840133870,0.14550781,-0.9817505,0.121032715,-5.140625,2.6875,-0.84375
1695840133910,0.13989258,-0.97613525,0.14251709,0.796875,2.90625,-1.203125
1695840133950,0.11230469,-0.9866333,0.1437378,0.828125,0.53125,-1.3125
1695840133990,0.057128906,-0.9898071,0.137146,-1.828125,0.046875,1.0625
1695840134030,0.0793457,-0.9746704,0.13861084,-0.359375,1.328125,1.046875
1695840134070,0.11035156,-0.9920044,0.13519287,0.53125,2.671875,0.875
1695840134110,0.11279297,-0.9907837,0.12689209,0.734375,2.796875,0.421875
1695840134150,0.13476562,-0.9805298,0.11834717,-1.328125,2.71875,-0.5
1695840134190,0.119628906,-0.99542236,0.12762451,1.265625,3.53125,-0.921875
1695840134230,0.109375,-0.9915161,0.12591553,1.4375,1.0625,-0.03125
1695840134270,0.1184082,-0.98223877,0.117614746,-1.0625,-0.765625,0.53125
1695840134310,0.13598633,-0.97735596,0.13128662,-1.71875,1.5,0.046875
1695840134350,0.125,-0.97906494,0.13153076,1.125,1.671875,0.109375
1695840134390,0.08959961,-0.9812622,0.12030029,3.140625,0.75,0.140625
1695840134430,0.07714844,-1.0061646,0.10858154,3.625,0.140625,1.71875
1695840134470,0.099365234,-0.98516846,0.11175537,0.875,1.84375,1.6875
1695840134510,0.13842773,-0.9751587,0.109313965,-2.0625,3.609375,0.71875
1695840134550,0.14770508,-0.99468994,0.101745605,-1.34375,3.28125,-0.953125
1695840134590,0.13745117,-0.9866333,0.113464355,-0.53125,2.109375,-1.984375
1695840134630,0.1394043,-0.97540283,0.1305542,-1.09375,-1.359375,-0.796875
1695840134670,0.1340332,-0.97662354,0.14959717,-2.34375,-2.375,-0.390625
1695840134710,0.122802734,-0.9824829,0.13690186,-2.5,-2.71875,-0.0625
1695840134750,0.1237793,-0.986145,0.1408081,-2.59375,-3.390625,-0.1875
1695840134790,0.10571289,-0.97052,0.13739014,-2.5625,-5.796875,-0.78125
1695840134830,0.08544922,-0.9885864,0.11981201,-0.984375,-4.109375,0.53125
1695840134870,0.06298828,-0.9920044,0.14202881,0.515625,-3.25,-0.03125
1695840134910,0.07885742,-0.9885864,0.13519287,1.703125,-2.546875,0.859375
1695840134950,0.10058594,-0.98272705,0.1239624,0.25,-2.53125,1.984375
1695840134990,0.125,-0.9834595,0.12957764,0.875,0.109375,1.328125
1695840135030,0.118652344,-0.9927368,0.1305542,1.1875,2.796875,0.21875
1695840135070,0.12011719,-0.9883423,0.1317749,0.71875,1.5625,0.203125
1695840135110,0.12207031,-0.9795532,0.14251709,-0.375,0.90625,-0.328125
1695840135150,0.12036133,-0.987854,0.13739014,-0.65625,2.796875,0.28125
1695840135190,0.12426758,-0.98223877,0.124694824,-3.109375,2.328125,-0.125
1695840135230,0.1015625,-0.98565674,0.13446045,-1.28125,0.96875,-0.296875
1695840135270,0.095947266,-0.9780884,0.14764404,0.8125,-0.046875,0.265625
1695840135310,0.11645508,-0.98809814,0.1359253,-0.484375,0.5,0.453125
1695840135350,0.122558594,-0.98101807,0.13128662,-1.984375,1.40625,-1.0
1695840135390,0.099121094,-0.99224854,0.15106201,-0.015625,2.171875,-1.125
1695840135430,0.09423828,-0.9898071,0.14593506,0.421875,2.828125,0.28125
1695840135470,0.091796875,-0.9729614,0.12786865,-2.640625,2.21875,-0.390625
1695840135510,0.099121094,-0.9846802,0.15301514,1.296875,0.015625,-0.21875
1695840135550,0.10888672,-0.9937134,0.14471436,2.96875,1.28125,1.53125
1695840135590,0.12475586,-0.9907837,0.13397217,1.671875,2.875,0.34375
1695840135630,0.1081543,-0.97320557,0.13641357,1.296875,2.609375,0.078125
1695840135670,0.104003906,-0.9763794,0.13543701,-0.6875,0.59375,0.578125
1695840135710,0.125,-0.9812622,0.14520264,-0.5,0.375,0.109375
1695840135750,0.107421875,-0.98272705,0.13983154,2.296875,1.234375,-0.453125
1695840135790,0.103759766,-0.98223877,0.13104248,2.59375,1.734375,0.859375
1695840135830,0.11035156,-0.98687744,0.12176514,-0.375,0.8125,1.390625
1695840135870,0.10107422,-0.98809814,0.12567139,-0.40625,0.84375,-0.21875
1695840135910,0.103515625,-0.9807739,0.14593506,0.890625,1.15625,0.171875
1695840135950,0.107666016,-0.99713135,0.13787842,0.546875,1.34375,0.921875
1695840135990,0.115478516,-0.9729614,0.11566162,-2.0,0.59375,0.078125
1695840136030,0.103515625,-0.9793091,0.12713623,-0.953125,0.328125,-0.03125
1695840136070,0.11791992,-0.9807739,0.11956787,0.375,0.671875,0.6875
1695840136110,0.12548828,-0.9907837,0.13909912,0.921875,1.390625,0.375
1695840136150,0.11401367,-0.9846802,0.13641357,1.328125,1.78125,0.0
1695840136190,0.114746094,-0.97979736,0.1305542,-0.421875,1.296875,0.46875
1695840136230,0.11279297,-0.9920044,0.1293335,-0.875,1.03125,0.28125
1695840136270,0.114990234,-0.98760986,0.14471436,0.609375,1.71875,-0.1875
1695840136310,0.11303711,-0.98638916,0.12640381,1.34375,0.9375,0.1875
1695840136350,0.11035156,-0.97906494,0.11517334,0.921875,1.265625,0.390625
1695840136390,0.111083984,-0.9841919,0.12640381,1.234375,0.765625,0.28125
1695840136430,0.11279297,-1.0020142,0.12176514,0.78125,1.5,0.3125
1695840136470,0.11254883,-0.98150635,0.121032715,-0.828125,1.828125,-0.234375
1695840136510,0.10083008,-0.9758911,0.12786865,-1.640625,0.46875,-0.515625
1695840136550,0.11230469,-0.99591064,0.13226318,-0.484375,0.296875,-0.375
1695840136590,0.1159668,-0.9927368,0.12298584,0.671875,1.84375,0.921875
1695840136630,0.11694336,-0.97320557,0.109558105,0.34375,3.078125,0.34375
1695840136670,0.10498047,-0.98565674,0.13031006,0.3125,1.203125,-0.5625
1695840136710,0.10131836,-0.9859009,0.11663818,-2.359375,0.53125,0.546875
1695840136750,0.123291016,-0.9763794,0.11639404,-4.296875,1.265625,-0.625
1695840136790,0.10083008,-0.99420166,0.13909912,1.921875,1.671875,-0.796875
1695840136830,0.09863281,-0.99346924,0.1359253,2.21875,0.828125,0.96875
1695840136870,0.103271484,-0.97125244,0.12884521,-0.171875,0.5,0.359375
1695840136910,0.119384766,-0.9841919,0.11956787,-0.84375,1.5625,0.015625
1695840136950,0.11010742,-0.9932251,0.13104248,0.875,0.953125,0.40625
1695840136990,0.10864258,-0.9873657,0.1329956,0.59375,0.53125,-0.078125
1695840137030,0.12109375,-0.9800415,0.12200928,-0.625,0.75,0.015625
1695840137070,0.12597656,-0.97613525,0.105895996,-1.703125,-0.328125,-0.359375
1695840137110,0.11376953,-0.9800415,0.1305542,0.03125,-0.40625,-0.65625
1695840137150,0.092285156,-0.99176025,0.13812256,2.6875,1.453125,0.078125
1695840137190,0.107177734,-0.9859009,0.124694824,-0.265625,2.03125,1.015625
1695840137230,0.10205078,-0.9741821,0.10736084,-2.359375,0.609375,0.484375
1695840137270,0.10424805,-0.97857666,0.1251831,-0.96875,0.859375,-0.703125
1695840137310,0.09667969,-1.0056763,0.14056396,1.265625,1.1875,0.375
1695840137350,0.10424805,-0.98809814,0.121276855,0.6875,2.03125,0.625
1695840137390,0.12109375,-0.97369385,0.1161499,-0.5,1.890625,-0.53125
1695840137430,0.10888672,-0.98443604,0.1251831,1.15625,1.515625,0.40625
1695840137470,0.11987305,-0.9763794,0.12200928,2.09375,1.5625,1.140625
1695840137510,0.11987305,-0.99102783,0.120788574,3.96875,1.75,0.90625
1695840137550,0.11328125,-0.99005127,0.113708496,3.203125,1.5625,1.0
1695840137590,0.11376953,-0.9866333,0.11395264,-0.640625,0.109375,0.359375
1695840137630,0.1171875,-0.9837036,0.11273193,-1.984375,0.03125,-0.28125
1695840137670,0.09741211,-0.98809814,0.120788574,-0.515625,1.265625,-0.34375
1695840137710,0.10546875,-0.9866333,0.11077881,-0.109375,1.234375,0.5
1695840137750,0.1184082,-0.9793091,0.11419678,-0.859375,1.015625,0.46875
1695840137790,0.12182617,-0.98565674,0.11444092,-0.25,1.03125,0.015625
1695840137830,0.115234375,-0.9854126,0.11199951,-0.75,1.359375,0.171875
1695840137870,0.109375,-0.98394775,0.12030029,-0.8125,0.890625,0.015625
1695840137910,0.11425781,-0.991272,0.12762451,-1.4375,0.703125,0.015625
1695840137950,0.11303711,-0.98321533,0.12420654,-1.65625,-0.171875,-0.4375
1695840137990,0.10498047,-0.9751587,0.12860107,0.484375,0.859375,0.03125
1695840138030,0.09008789,-0.9871216,0.13153076,0.96875,1.34375,0.234375
1695840138070,0.10913086,-0.99664307,0.11883545,-0.140625,1.265625,1.234375
1695840138110,0.12695312,-0.97857666,0.1149292,-0.953125,1.75,0.0625
1695840138150,0.10864258,-0.98565674,0.12176514,0.296875,2.03125,-0.21875
1695840138190,0.11303711,-0.9890747,0.12054443,0.65625,2.03125,0.78125
1695840138230,0.11352539,-0.9885864,0.12298584,-0.6875,1.0625,0.15625
1695840138270,0.11328125,-0.9849243,0.12615967,-1.203125,0.953125,-0.015625
1695840138310,0.1184082,-0.9885864,0.13104248,-0.875,1.0625,0.296875
1695840138350,0.106933594,-0.9780884,0.12347412,-1.65625,0.890625,0.125
1695840138390,0.10205078,-0.97613525,0.1329956,-0.390625,0.46875,-0.125
1695840138430,0.1081543,-0.9849243,0.12884521,0.34375,0.9375,0.4375
1695840138470,0.118652344,-0.98028564,0.12200928,0.125,1.84375,0.328125
1695840138510,0.111572266,-0.9805298,0.124694824,0.5625,1.9375,-0.03125
1695840138550,0.11303711,-0.97247314,0.13421631,0.296875,1.3125,-0.078125
1695840138590,0.10424805,-0.9968872,0.13128662,1.359375,0.6875,0.53125
1695840138630,0.11694336,-0.9837036,0.12322998,-0.296875,1.6875,0.359375
1695840138670,0.11230469,-0.97735596,0.1149292,-1.1875,1.921875,-0.421875
1695840138710,0.100097656,-0.987854,0.13275146,1.0,1.609375,-0.09375
1695840138750,0.1027832,-0.9807739,0.1227417,0.15625,1.484375,0.515625
1695840138790,0.119140625,-0.9898071,0.11883545,-2.296875,1.25,-0.265625
1695840138830,0.11035156,-0.991272,0.13079834,0.296875,1.625,0.203125
1695840138870,0.107910156,-0.97662354,0.12249756,-0.703125,0.21875,0.28125
1695840138910,0.1171875,-0.98101807,0.121520996,0.484375,1.9375,0.125
1695840138950,0.10571289,-0.98760986,0.12347412,0.21875,1.765625,0.625
1695840138990,0.11425781,-0.9981079,0.12713623,0.203125,0.28125,0.734375
1695840139030,0.11206055,-0.9866333,0.12371826,0.984375,1.6875,-0.296875
1695840139070,0.10644531,-0.9768677,0.13006592,0.40625,1.390625,-0.59375
1695840139110,0.1081543,-0.9776001,0.121276855,-0.75,0.71875,-0.015625
1695840139150,0.10522461,-0.98883057,0.12371826,0.328125,1.796875,0.09375
1695840139190,0.11401367,-0.9890747,0.117614746,1.53125,2.34375,-0.015625
1695840139230,0.107666016,-0.98028564,0.113464355,1.359375,2.0625,0.125
1695840139270,0.10229492,-0.98687744,0.12347412,1.578125,1.65625,0.296875
1695840139310,0.119384766,-0.9907837,0.12347412,0.515625,1.921875,0.078125
1695840139350,0.10107422,-0.9812622,0.11566162,-1.28125,0.765625,-0.03125
1695840139390,0.09741211,-0.9951782,0.12884521,-0.859375,-0.75,-0.4375
1695840139430,0.09741211,-0.99005127,0.12591553,-2.390625,-0.984375,0.5
1695840139470,0.11352539,-0.9937134,0.124938965,-4.0,-0.0625,0.828125
1695840139510,0.10205078,-0.9612427,0.113464355,-3.171875,-0.296875,-0.3125
1695840139550,0.10644531,-1.000061,0.13470459,-0.421875,0.90625,0.484375
1695840139590,0.11376953,-0.986145,0.14349365,-0.171875,2.265625,1.46875
1695840139630,0.114990234,-0.97491455,0.1281128,-1.53125,1.4375,0.6875
1695840139670,0.11694336,-0.9702759,0.12908936,-2.21875,1.1875,0.0
1695840139710,0.12402344,-0.989563,0.14715576,-2.0625,1.546875,-0.015625
1695840139750,0.10986328,-0.97735596,0.1395874,-1.65625,0.71875,-0.171875
1695840139790,0.10522461,-0.99224854,0.14056396,0.8125,0.46875,-0.21875
1695840139830,0.107421875,-0.98028564,0.13690186,1.15625,1.3125,0.84375
1695840139870,0.111328125,-0.9771118,0.1227417,0.203125,1.796875,1.140625
1695840139910,0.11816406,-0.9710083,0.12860107,1.640625,1.59375,0.203125
1695840139950,0.12133789,-0.9873657,0.14691162,1.953125,1.890625,0.171875
1695840139990,0.11669922,-0.98931885,0.13812256,-0.796875,0.65625,0.359375
1695840140030,0.1081543,-0.98809814,0.1305542,-1.625,1.0,-0.09375
1695840140070,0.11376953,-0.98394775,0.13909912,-2.890625,0.71875,-0.015625
1695840140110,0.12426758,-0.9829712,0.13812256,-2.4375,1.9375,0.0625
1695840140150,0.115478516,-0.9758911,0.13983154,-0.5,2.171875,-0.421875
1695840140190,0.10498047,-0.991272,0.13250732,-1.875,1.234375,-0.6875
1695840140230,0.111816406,-0.987854,0.13861084,-0.53125,5.125,-0.578125
1695840140270,0.11230469,-0.9807739,0.15692139,5.0,5.0625,-0.515625
1695840140310,0.10205078,-0.9751587,0.15472412,0.640625,2.578125,-0.375
1695840140350,0.09692383,-0.9819946,0.14447021,-0.953125,0.484375,-0.125
1695840140390,0.11035156,-0.9890747,0.14227295,-0.015625,1.484375,-0.125
1695840140430,0.119384766,-0.98883057,0.13494873,0.21875,1.5625,-0.359375
1695840140470,0.09814453,-0.9819946,0.12713623,-0.5625,2.359375,-0.3125
1695840140510,0.104003906,-0.98321533,0.14129639,2.59375,2.75,-0.5
1695840140550,0.1015625,-0.98394775,0.13885498,2.03125,1.546875,0.125
1695840140590,0.11352539,-0.9854126,0.13641357,1.21875,2.640625,0.21875
1695840140630,0.11401367,-0.98638916,0.12640381,1.3125,2.515625,-0.515625
1695840140670,0.09472656,-0.97076416,0.12762451,-0.59375,0.46875,-1.0
1695840140710,0.09301758,-0.9939575,0.13861084,1.25,0.25,0.359375
1695840140750,0.107666016,-0.98272705,0.12030029,-1.921875,1.4375,1.0625
1695840140790,0.107910156,-0.991272,0.1149292,-0.046875,2.40625,-0.328125
1695840140830,0.099365234,-0.9866333,0.12786865,3.0,3.828125,-0.3125
1695840140870,0.111083984,-0.9841919,0.12860107,1.671875,2.3125,-0.40625
1695840140910,0.10083008,-0.9812622,0.13226318,1.484375,2.296875,-0.421875
1695840140950,0.1003418,-0.987854,0.11932373,1.015625,2.328125,0.15625
1695840140990,0.099121094,-0.986145,0.11956787,1.421875,2.453125,-0.34375
1695840141030,0.10473633,-0.98809814,0.12567139,1.234375,0.921875,0.109375
1695840141070,0.10180664,-0.9727173,0.17669678,3.875,-0.6875,0.9375
1695840141110,0.10571289,-0.9951782,0.16790771,7.140625,1.734375,2.796875
1695840141150,0.10107422,-0.9607544,0.14520264,4.15625,0.84375,1.25
1695840141190,0.1184082,-0.9636841,0.14544678,3.421875,-0.828125,0.5
1695840141230,0.1027832,-0.99176025,0.13983154,2.65625,-0.046875,1.140625
1695840141270,0.10864258,-0.98443604,0.13909912,-1.25,0.5625,0.3125
1695840141310,0.10595703,-0.9768677,0.15008545,-1.21875,0.796875,-0.84375
1695840141350,0.09863281,-0.97784424,0.15472412,-0.5625,-0.421875,0.125
1695840141390,0.09057617,-0.98809814,0.14764404,-0.15625,-0.859375,1.015625
1695840141430,0.1159668,-0.989563,0.14471436,-1.921875,0.203125,0.453125
1695840141470,0.10522461,-0.96539307,0.15618896,-0.296875,1.375,-0.171875
1695840141510,0.10205078,-0.9763794,0.1618042,0.859375,0.03125,0.15625
1695840141550,0.10620117,-0.9927368,0.15447998,0.21875,0.703125,0.6875
1695840141590,0.10620117,-0.9807739,0.15570068,-0.765625,1.265625,0.09375
1695840141630,0.107910156,-0.99053955,0.11883545,-3.140625,0.265625,-0.03125
1695840141670,0.111816406,-0.98687744,0.12713623,-0.25,-0.609375,-1.390625
1695840141710,0.10473633,-0.9636841,0.12445068,-0.796875,-0.234375,0.484375
1695840141750,0.11303711,-0.9771118,0.113464355,-1.671875,0.421875,1.109375
1695840141790,0.11767578,-0.9871216,0.10614014,-2.828125,0.828125,-0.203125
1695840141830,0.09082031,-1.0078735,0.13934326,1.3125,-0.046875,-0.71875
1695840141870,0.09716797,-0.98443604,0.12542725,0.359375,0.734375,1.390625
1695840141910,0.11669922,-0.9717407,0.10418701,-1.359375,1.0,-0.046875
1695840141950,0.110839844,-0.9890747,0.121520996,-0.90625,1.109375,-0.21875
1695840141990,0.103027344,-0.9866333,0.12738037,-0.21875,0.765625,0.640625
1695840142030,0.12109375,-0.97857666,0.12615967,-0.75,1.0,0.015625
1695840142070,0.11816406,-0.98028564,0.12420654,-0.359375,1.140625,-0.203125
1695840142110,0.10473633,-0.98394775,0.13421631,0.171875,0.40625,0.75
1695840142150,0.11767578,-0.9837036,0.13201904,-0.671875,1.328125,0.34375
1695840142190,0.11401367,-0.9783325,0.12615967,0.546875,1.71875,-0.25
1695840142230,0.099853516,-0.97979736,0.12664795,3.375,1.28125,0.65625
1695840142270,0.10644531,-0.98883057,0.11419678,0.578125,1.484375,0.609375
1695840142310,0.12597656,-0.98101807,0.12176514,-0.78125,0.875,-0.25
1695840142350,0.119140625,-0.99005127,0.12615967,0.46875,1.21875,0.015625
1695840142390,0.095458984,-0.9846802,0.10296631,-0.53125,0.046875,0.828125
1695840142430,0.111816406,-0.97247314,0.11541748,0.5625,1.28125,-0.109375
1695840142470,0.10546875,-0.9968872,0.13665771,1.515625,1.171875,0.859375
1695840142510,0.10864258,-1.0110474,0.11981201,-0.59375,1.46875,1.1875
1695840142550,0.1159668,-0.9692993,0.11175537,-2.734375,1.703125,-0.734375
1695840142590,0.107910156,-0.99224854,0.12860107,0.09375,1.03125,-0.59375
1695840142630,0.10986328,-0.9866333,0.12347412,-0.546875,1.109375,0.765625
1695840142670,0.11328125,-0.9849243,0.124938965,-1.25,0.984375,-0.390625
1695840142710,0.103515625,-0.9834595,0.12445068,0.015625,1.796875,-0.296875
1695840142750,0.103515625,-0.9859009,0.121032715,0.484375,0.984375,0.765625
1695840142790,0.10888672,-0.9961548,0.11029053,-0.546875,0.9375,0.140625
1695840142830,0.10986328,-0.97662354,0.11859131,-0.734375,2.953125,-0.4375
1695840142870,0.10620117,-0.9812622,0.117126465,1.296875,2.359375,-0.09375
1695840142910,0.10131836,-0.9898071,0.13153076,0.25,1.46875,-0.09375
1695840142950,0.111572266,-0.9819946,0.13323975,1.328125,1.28125,0.375
1695840142990,0.11230469,-0.99053955,0.11053467,-0.546875,0.875,0.46875
1695840143030,0.11767578,-0.99468994,0.11810303,-1.078125,0.75,0.21875
1695840143070,0.11010742,-0.98394775,0.11956787,0.96875,0.859375,-0.125
1695840143110,0.10424805,-0.9976196,0.12591553,2.46875,2.078125,0.53125
1695840143150,0.095947266,-0.98760986,0.10223389,-0.96875,0.171875,0.171875
1695840143190,0.103271484,-0.9663696,0.10418701,-3.125,0.15625,-0.453125
1695840143230,0.11206055,-1.0012817,0.13812256,1.3125,1.234375,-0.078125
1695840143270,0.1081543,-0.9817505,0.11590576,-0.8125,1.703125,0.984375
1695840143310,0.11621094,-0.97320557,0.1161499,-1.609375,0.671875,-0.46875
1695840143350,0.10473633,-0.98272705,0.12420654,-0.34375,0.9375,-0.125
1695840143390,0.111572266,-0.9898071,0.13128662,-0.953125,0.625,0.703125
1695840143430,0.11254883,-0.9824829,0.13275146,-0.46875,0.765625,-0.046875
1695840143470,0.10571289,-0.97906494,0.13153076,0.5,1.4375,-0.140625
1695840143510,0.107421875,-0.99224854,0.1329956,0.59375,0.765625,0.953125
1695840143550,0.103027344,-0.9800415,0.12176514,-0.484375,1.03125,0.15625
1695840143590,0.10424805,-0.9841919,0.12738037,-0.234375,0.859375,-0.296875
1695840143630,0.1105957,-0.9829712,0.12322998,0.421875,1.359375,0.8125
1695840143670,0.11279297,-0.97857666,0.121276855,-0.828125,1.203125,0.15625
1695840143710,0.10522461,-0.9883423,0.12567139,0.609375,1.140625,-0.1875
1695840143750,0.10620117,-0.9924927,0.12640381,0.546875,0.859375,0.1875
1695840143790,0.10961914,-0.9949341,0.13006592,0.453125,1.703125,0.53125
1695840143830,0.11010742,-0.9883423,0.12762451,0.03125,1.53125,-0.015625
1695840143870,0.10498047,-0.98101807,0.12567139,-0.765625,0.453125,0.125
1695840143910,0.096191406,-0.9885864,0.13543701,1.171875,0.6875,0.3125
1695840143950,0.111083984,-0.9981079,0.12298584,0.703125,1.453125,0.671875
1695840143990,0.1184082,-0.97613525,0.10247803,-1.640625,1.53125,0.078125
1695840144030,0.11035156,-0.98150635,0.11932373,-0.640625,1.0,-0.375
1695840144070,0.096191406,-0.99468994,0.13446045,0.484375,-0.078125,0.125
1695840144110,0.110839844,-0.9795532,0.12176514,-1.203125,1.25,0.84375
1695840144150,0.111083984,-0.99176025,0.12176514,-0.359375,1.265625,0.21875
1695840144190,0.103759766,-0.9849243,0.12322998,-0.078125,1.03125,0.484375
1695840144230,0.115478516,-0.9793091,0.13397217,0.421875,1.65625,0.640625
1695840144270,0.11450195,-0.97442627,0.12957764,0.671875,1.46875,-0.25
1695840144310,0.10449219,-0.9890747,0.12762451,-0.078125,0.421875,-0.53125
1695840144350,0.09814453,-0.9968872,0.12371826,0.140625,0.125,0.59375
1695840144390,0.10449219,-0.98687744,0.12249756,0.859375,1.671875,0.828125
1695840144430,0.10644531,-0.9741821,0.12054443,-0.046875,1.6875,0.453125
1695840144470,0.10839844,-0.98565674,0.11907959,-0.421875,1.46875,0.078125
1695840144510,0.111816406,-0.98394775,0.11981201,-0.265625,0.625,0.234375
1695840144550,0.11450195,-0.9920044,0.124938965,1.46875,1.484375,-0.09375
1695840144590,0.10888672,-0.987854,0.11395264,0.328125,2.109375,0.109375
1695840144630,0.10595703,-0.9812622,0.12322998,-0.5625,1.140625,0.375
1695840144670,0.10253906,-0.99224854,0.12908936,0.796875,0.859375,0.140625
1695840144710,0.11230469,-0.986145,0.11859131,0.296875,1.40625,0.328125
1695840144750,0.099853516,-0.9873657,0.11810303,-1.046875,1.15625,0.15625
1695840144790,0.10546875,-0.9849243,0.11932373,-1.3125,0.765625,-0.4375
1695840144830,0.10253906,-0.99005127,0.13739014,-0.984375,0.125,-0.28125
1695840144870,0.10424805,-0.9924927,0.12420654,-1.484375,1.140625,0.859375
1695840144910,0.11621094,-0.97784424,0.11590576,-1.703125,1.765625,-0.125
1695840144950,0.111083984,-0.9915161,0.13006592,-0.1875,1.625,-0.03125
1695840144990,0.104003906,-0.97125244,0.12542725,-0.671875,0.875,0.34375
1695840145030,0.111572266,-0.991272,0.12445068,-0.671875,0.609375,0.15625
1695840145070,0.114990234,-0.9783325,0.12738037,-1.484375,1.71875,0.03125
1695840145110,0.099121094,-0.97979736,0.13226318,-0.21875,0.984375,-0.21875
1695840145150,0.107177734,-0.98883057,0.1293335,-0.953125,1.078125,0.03125
1695840145190,0.11230469,-0.98931885,0.13104248,-2.90625,1.4375,-0.359375
1695840145230,0.107666016,-0.97979736,0.14666748,-0.5,0.84375,-0.65625
1695840145270,0.09326172,-0.9854126,0.14788818,0.921875,1.921875,1.0625
1695840145310,0.10498047,-0.9932251,0.14202881,-0.5625,1.046875,0.8125
1695840145350,0.11279297,-0.9768677,0.13909912,-0.171875,2.0625,0.15625
1695840145390,0.111083984,-0.9883423,0.1329956,1.53125,2.140625,0.46875
1695840145430,0.110839844,-0.9846802,0.12420654,-0.515625,1.6875,0.25
1695840145470,0.1081543,-0.98321533,0.13494873,-1.0625,-0.09375,-0.03125
1695840145510,0.10107422,-0.97735596,0.13128662,-0.015625,0.875,0.453125
1695840145550,0.11035156,-0.99542236,0.15350342,0.78125,0.9375,0.421875
1695840145590,0.099853516,-0.9834595,0.14959717,-2.46875,1.125,1.109375
1695840145630,0.11230469,-0.97003174,0.12982178,-2.15625,3.046875,-0.078125
1695840145670,0.12182617,-0.99786377,0.13348389,3.96875,1.078125,0.375
1695840145710,0.11328125,-0.9812622,0.13885498,7.09375,-0.578125,-0.125
1695840145750,0.10131836,-0.97613525,0.12200928,3.296875,-0.5,-0.046875
1695840145790,0.09643555,-0.97442627,0.13275146,4.03125,0.171875,1.03125
1695840145830,0.10620117,-1.0105591,0.12249756,6.8125,-0.046875,0.953125
1695840145870,0.11352539,-0.9924927,0.09564209,5.234375,0.03125,1.234375
1695840145910,0.09838867,-0.97906494,0.08099365,0.21875,-0.25,0.375
1695840145950,0.11791992,-0.9758911,0.0927124,-5.53125,-1.46875,-0.015625
1695840145990,0.10986328,-0.99176025,0.11639404,-5.9375,-1.453125,-0.28125
1695840146030,0.099365234,-0.9939575,0.13641357,0.09375,-0.671875,0.78125
1695840146070,0.10473633,-0.99346924,0.113464355,-0.546875,0.109375,0.90625
1695840146110,0.13183594,-0.9697876,0.113220215,-1.875,1.421875,0.0625
1695840146150,0.11450195,-0.98516846,0.12298584,-1.84375,0.75,0.140625
1695840146190,0.1015625,-0.9898071,0.13323975,-2.640625,0.078125,-0.359375
1695840146230,0.109375,-0.9920044,0.14154053,-1.984375,0.1875,-0.0625
1695840146270,0.1105957,-0.97906494,0.11468506,-0.296875,1.75,0.078125
1695840146310,0.107177734,-0.9763794,0.113220215,-0.28125,1.15625,-0.265625
1695840146350,0.103271484,-0.99664307,0.13031006,-1.0,-0.578125,0.140625
1695840146390,0.11279297,-0.9817505,0.13250732,-0.5,0.796875,0.5
1695840146430,0.103271484,-0.98028564,0.13128662,0.265625,1.53125,-0.734375
1695840146470,0.10229492,-0.9807739,0.13690186,-0.375,1.0625,-0.296875
1695840146510,0.10620117,-0.98516846,0.13739014,-2.265625,0.515625,0.171875
1695840146550,0.111572266,-0.99102783,0.14642334,-0.09375,1.3125,-0.203125
1695840146590,0.11694336,-0.98760986,0.1317749,0.796875,1.328125,0.390625
1695840146630,0.10986328,-0.9751587,0.13250732,-0.40625,1.015625,-0.046875
1695840146670,0.10839844,-0.9812622,0.13079834,-0.484375,1.203125,-0.265625
1695840146710,0.10205078,-0.98394775,0.13421631,0.453125,1.03125,0.234375
1695840146750,0.11376953,-0.9902954,0.13885498,0.4375,1.78125,0.671875
1695840146790,0.107177734,-0.98443604,0.12371826,-0.921875,1.390625,-0.21875
1695840146830,0.09008789,-0.98443604,0.1239624,-0.328125,1.1875,-0.53125
1695840146870,0.106933594,-0.98931885,0.1437378,0.15625,0.765625,0.484375
1695840146910,0.11401367,-0.9819946,0.13397217,-0.59375,1.421875,0.53125
1695840146950,0.11645508,-0.9819946,0.12957764,0.265625,2.0625,0.140625
1695840146990,0.09887695,-0.9824829,0.13446045,0.84375,1.921875,0.546875
1695840147030,0.10986328,-0.9939575,0.14251709,0.453125,1.171875,0.625
1695840147070,0.11401367,-0.9776001,0.12884521,-0.6875,0.65625,0.046875
1695840147110,0.09741211,-0.98150635,0.13763428,0.3125,1.375,0.015625
1695840147150,0.10522461,-0.9883423,0.14031982,-0.65625,0.609375,0.578125
1695840147190,0.1159668,-0.9846802,0.1383667,-1.78125,0.3125,-0.25
1695840147230,0.104003906,-0.9841919,0.14031982,0.359375,1.703125,-0.375
1695840147270,0.09716797,-0.9746704,0.13226318,-0.34375,1.75,0.3125
1695840147310,0.107177734,-0.98223877,0.14105225,-1.34375,0.34375,-0.484375
1695840147350,0.10620117,-0.986145,0.14788818,1.703125,1.0,0.28125
1695840147390,0.1105957,-0.9890747,0.13397217,0.484375,1.015625,0.671875
1695840147430,0.111572266,-0.98101807,0.13421631,-0.546875,1.546875,-0.140625
1695840147470,0.09741211,-0.97540283,0.14154053,-1.3125,0.515625,0.078125
1695840147510,0.10058594,-0.9885864,0.14447021,-0.609375,0.3125,-0.09375
1695840147550,0.11376953,-0.9817505,0.13006592,-1.828125,1.5625,0.375
1695840147590,0.10888672,-0.9771118,0.13031006,-2.40625,1.890625,-0.265625
1695840147630,0.104003906,-0.9793091,0.14056396,-1.90625,1.15625,-0.75
1695840147670,0.10595703,-0.9907837,0.15765381,-0.578125,0.671875,0.28125
1695840147710,0.103271484,-0.9805298,0.1515503,1.140625,1.609375,0.484375
1695840147750,0.095458984,-0.9873657,0.14666748,0.46875,2.921875,0.25
1695840147790,0.0949707,-0.98101807,0.14471436,-1.984375,1.71875,0.125
1695840147830,0.092285156,-0.9741821,0.14959717,-2.109375,0.3125,-0.375
1695840147870,0.10107422,-0.99224854,0.16375732,-0.21875,1.796875,0.3125
1695840147910,0.095703125,-0.9902954,0.15472412,1.21875,1.0625,1.140625
1695840147950,0.10986328,-0.97979736,0.13494873,-0.171875,0.140625,0.46875
1695840147990,0.11328125,-0.9829712,0.14276123,0.296875,1.6875,-0.328125
1695840148030,0.10961914,-0.9854126,0.15252686,-0.671875,1.015625,0.203125
1695840148070,0.103027344,-0.986145,0.15447998,-0.140625,0.875,-0.140625
1695840148110,0.09838867,-0.9849243,0.15203857,1.265625,1.625,0.5
1695840148150,0.10131836,-0.986145,0.1449585,0.578125,1.34375,0.828125
1695840148190,0.11303711,-0.9898071,0.14300537,-0.859375,1.109375,0.015625
1695840148230,0.106933594,-0.96417236,0.1395874,-0.234375,1.578125,-0.328125
1695840148270,0.09472656,-0.9793091,0.14910889,0.40625,0.953125,-0.203125
1695840148310,0.10546875,-0.9898071,0.14276123,0.75,1.640625,1.0625
1695840148350,0.10644531,-0.97857666,0.14178467,0.671875,0.53125,0.4375
1695840148390,0.103271484,-0.97662354,0.121032715,-1.59375,1.1875,-0.25
1695840148430,0.1171875,-0.9985962,0.14959717,-1.5625,1.1875,0.046875
1695840148470,0.09838867,-0.9819946,0.15740967,0.328125,0.453125,0.40625
1695840148510,0.100097656,-0.9805298,0.14569092,1.09375,0.59375,0.1875
1695840148550,0.10424805,-0.98028564,0.15032959,0.15625,1.328125,0.3125
1695840148590,0.10083008,-0.98931885,0.14422607,-1.375,0.90625,0.28125
1695840148630,0.10229492,-0.99957275,0.14691162,-0.234375,1.0625,-0.078125
1695840148670,0.111328125,-0.9763794,0.14593506,-0.125,1.609375,-0.03125
1695840148710,0.1105957,-0.9780884,0.14276123,-0.4375,0.640625,0.390625
1695840148750,0.10205078,-0.98321533,0.14666748,0.625,0.78125,0.328125
1695840148790,0.10571289,-0.9849243,0.1449585,0.078125,0.984375,0.15625
1695840148830,0.104003906,-0.98516846,0.14764404,-0.296875,1.265625,0.3125
1695840148870,0.09765625,-0.9883423,0.1473999,0.234375,0.984375,0.09375
1695840148910,0.09375,-0.99664307,0.14349365,-0.875,1.265625,0.171875
1695840148950,0.100097656,-0.96954346,0.14349365,-1.40625,1.84375,-0.203125
1695840148990,0.099121094,-0.9807739,0.15863037,0.78125,1.765625,0.125
1695840149030,0.10864258,-0.9902954,0.1408081,0.140625,1.921875,0.671875
1695840149070,0.10083008,-0.98272705,0.12225342,-2.1875,2.65625,0.140625
1695840149110,0.10961914,-0.9859009,0.14324951,0.109375,3.140625,-1.140625
1695840149150,0.10961914,-0.9841919,0.16473389,-0.40625,1.3125,0.09375
1695840149190,0.10571289,-0.9751587,0.15228271,-0.25,2.046875,0.109375
1695840149230,0.107910156,-0.9846802,0.13885498,-0.015625,2.328125,-0.625
1695840149270,0.10986328,-0.991272,0.14129639,1.015625,2.734375,0.21875
1695840149310,0.103759766,-0.98638916,0.15423584,0.125,1.84375,-0.078125
1695840149350,0.09887695,-0.98516846,0.1564331,0.25,2.78125,-0.453125
1695840149390,0.091552734,-0.9805298,0.14422607,0.328125,2.21875,-0.234375
1695840149430,0.1003418,-0.9824829,0.1449585,1.1875,3.046875,0.3125
1695840149470,0.10205078,-0.99420166,0.15203857,0.8125,1.59375,0.0625
1695840149510,0.09667969,-0.9776001,0.13470459,0.1875,1.125,0.078125
1695840149550,0.107666016,-0.98638916,0.13690186,1.265625,3.359375,-0.15625
1695840149590,0.103027344,-0.9807739,0.14251709,-0.71875,1.859375,-0.390625
1695840149630,0.09838867,-0.9920044,0.14227295,0.03125,0.671875,0.140625
1695840149670,0.107421875,-0.97906494,0.14324951,-0.375,0.90625,0.609375
1695840149710,0.114990234,-0.987854,0.13787842,0.078125,1.734375,0.25
1695840149750,0.09692383,-0.97613525,0.14154053,1.515625,1.390625,0.296875
1695840149790,0.09814453,-0.99053955,0.14227295,-0.0625,0.671875,0.203125
1695840149830,0.11328125,-0.99224854,0.137146,-1.375,0.15625,-0.359375
1695840149870,0.09643555,-0.9819946,0.13665771,-0.046875,1.421875,-0.15625
1695840149910,0.076416016,-0.9927368,0.15081787,4.0625,0.96875,0.40625
1695840149950,0.10571289,-0.9817505,0.14984131,2.578125,-1.390625,1.046875
1695840149990,0.09863281,-0.96661377,0.1281128,1.5,-0.6875,1.109375
1695840150030,0.106933594,-0.98638916,0.13616943,5.109375,0.859375,0.671875
1695840150070,0.107421875,-1.0054321,0.117614746,5.78125,0.453125,1.5
1695840150110,0.10571289,-0.987854,0.097595215,2.8125,-0.421875,1.4375
1695840150150,0.119628906,-0.97784424,0.10394287,-1.59375,-0.796875,0.359375
1695840150190,0.10107422,-0.97906494,0.117370605,-3.46875,-0.8125,0.21875
1695840150230,0.10644531,-0.99346924,0.12664795,-2.0625,-0.515625,0.65625
1695840150270,0.099365234,-0.9968872,0.12005615,-1.125,0.109375,0.8125
1695840150310,0.11669922,-0.98101807,0.1071167,-1.640625,1.15625,0.21875
1695840150350,0.119140625,-0.9710083,0.11859131,-1.40625,1.203125,-0.65625
1695840150390,0.09741211,-0.9849243,0.13153076,-1.34375,1.390625,-0.03125
1695840150430,0.1003418,-0.99420166,0.13665771,-0.703125,0.578125,-0.046875
1695840150470,0.103515625,-0.98394775,0.13226318,-0.578125,0.421875,0.40625
1695840150510,0.111572266,-0.9746704,0.11810303,-2.296875,1.15625,-0.1875
1695840150550,0.099365234,-0.9902954,0.13641357,-3.03125,1.15625,-0.53125
1695840150590,0.09838867,-0.986145,0.15130615,-1.65625,1.21875,-0.96875
1695840150630,0.08496094,-0.97735596,0.14764404,1.171875,1.234375,0.25
1695840150670,0.09692383,-0.9898071,0.13568115,1.609375,2.234375,0.875
1695840150710,0.1081543,-0.97198486,0.13739014,-1.484375,2.484375,-0.4375
1695840150750,0.111328125,-0.99298096,0.14202881,-0.734375,0.953125,-0.140625
1695840150790,0.110839844,-0.9817505,0.14202881,0.125,0.609375,0.4375
1695840150830,0.107910156,-0.9780884,0.13885498,0.28125,1.328125,-0.203125
1695840150870,0.10205078,-0.98760986,0.13079834,1.015625,1.359375,0.34375
1695840150910,0.09643555,-0.98443604,0.14520264,0.71875,0.625,0.703125
1695840150950,0.1003418,-0.98516846,0.13983154,0.265625,1.390625,0.59375
1695840150990,0.095214844,-0.98150635,0.13934326,2.53125,1.171875,0.71875
1695840151030,0.09887695,-0.9890747,0.12567139,1.34375,0.59375,1.203125
1695840151070,0.10522461,-0.9898071,0.13543701,0.140625,1.46875,0.4375
1695840151110,0.10522461,-0.9871216,0.13494873,0.875,1.0625,0.375
1695840151150,0.103027344,-1.0012817,0.1281128,-0.140625,1.4375,1.03125
1695840151190,0.1159668,-0.9807739,0.11810303,-3.28125,1.453125,0.046875
1695840151230,0.1105957,-0.973938,0.13665771,-0.609375,1.4375,-0.21875
1695840151270,0.10424805,-0.98883057,0.15130615,1.5625,1.1875,1.03125
1695840151310,0.1171875,-0.99786377,0.13372803,0.046875,1.453125,1.40625
1695840151350,0.119140625,-0.9805298,0.1251831,-2.09375,1.359375,-0.546875
1695840151390,0.109375,-0.9729614,0.120788574,-0.390625,1.1875,-0.296875
1695840151430,0.10986328,-0.9837036,0.13104248,1.53125,0.71875,0.625
1695840151470,0.09667969,-0.9717407,0.12640381,4.390625,1.1875,0.625
1695840151510,0.091308594,-0.9788208,0.12591553,7.046875,2.0,1.9375
1695840151550,0.1184082,-1.0120239,0.11541748,5.734375,3.15625,3.90625
1695840151590,0.114990234,-0.99005127,0.11175537,-0.703125,1.203125,1.546875
1695840151630,0.13989258,-0.97979736,0.11151123,-3.171875,0.21875,-1.71875
1695840151670,0.12451172,-0.99346924,0.1083374,-2.328125,0.46875,-0.65625
1695840151710,0.10449219,-0.99102783,0.120788574,-0.9375,0.09375,0.46875
1695840151750,0.106933594,-0.99005127,0.13885498,0.625,0.984375,-0.078125
1695840151790,0.11279297,-0.97979736,0.124938965,-0.484375,1.109375,1.25
1695840151830,0.12792969,-0.97320557,0.11175537,-1.78125,1.328125,1.046875
1695840151870,0.12548828,-0.98638916,0.10882568,-1.328125,0.953125,-0.015625
1695840151910,0.111816406,-0.9902954,0.1239624,-1.53125,-0.21875,-1.21875
1695840151950,0.10498047,-0.9795532,0.13104248,-0.53125,0.328125,0.53125
1695840151990,0.10083008,-0.97662354,0.11859131,-0.6875,1.078125,0.265625
1695840152030,0.11035156,-0.991272,0.11663818,-0.84375,0.734375,0.21875
1695840152070,0.111572266,-0.99884033,0.12835693,-0.0625,1.375,0.921875
1695840152110,0.123535156,-0.98638916,0.12176514,0.109375,1.28125,0.46875
1695840152150,0.115234375,-0.9795532,0.12860107,-0.171875,1.6875,-0.328125
1695840152190,0.11816406,-0.9846802,0.12835693,-0.921875,1.03125,-0.21875
1695840152230,0.12231445,-0.98223877,0.12860107,-1.453125,0.46875,-0.171875
1695840152270,0.10449219,-0.9776001,0.12738037,0.78125,2.765625,-0.71875
1695840152310,0.12866211,-1.0056763,0.14227295,4.640625,1.0625,-0.109375
1695840152350,0.10449219,-0.97369385,0.11981201,5.765625,1.1875,1.265625
1695840152390,0.11987305,-0.9812622,0.105163574,6.03125,1.34375,0.484375
1695840152430,0.091308594,-0.9846802,0.105651855,4.171875,-0.15625,1.125
1695840152470,0.11254883,-0.98321533,0.10028076,-1.265625,-0.40625,0.875
1695840152510,0.1340332,-0.99420166,0.09637451,2.171875,1.34375,0.484375
1695840152550,0.12866211,-0.97247314,0.07537842,2.984375,1.78125,0.140625
1695840152590,0.10620117,-0.9824829,0.08660889,-1.65625,-1.578125,0.203125
1695840152630,0.11376953,-0.9817505,0.098083496,-5.0625,-0.71875,-0.140625
1695840152670,0.12451172,-0.9817505,0.10784912,-4.90625,-0.6875,-0.078125
1695840152710,0.11279297,-0.9993286,0.12249756,-1.75,-0.578125,0.234375
1695840152750,0.0949707,-0.9800415,0.11102295,-0.640625,-0.84375,0.25
1695840152790,0.11303711,-0.9771118,0.10687256,-0.546875,-0.0625,0.265625
1695840152830,0.119628906,-0.99176025,0.1149292,-1.890625,0.546875,-0.296875
1695840152870,0.10913086,-0.97979736,0.13079834,-0.90625,0.203125,-0.65625
1695840152910,0.110839844,-0.9883423,0.12322998,0.359375,0.734375,0.1875
1695840152950,0.123291016,-0.97979736,0.11248779,-1.171875,0.40625,0.390625
1695840152990,0.118896484,-0.9854126,0.12225342,-1.296875,0.65625,-0.03125
1695840153030,0.11328125,-0.9846802,0.1281128,-0.453125,0.546875,-0.03125
1695840153070,0.10522461,-0.989563,0.12371826,0.71875,0.5,0.484375
1695840153110,0.10986328,-0.97906494,0.10760498,-0.875,0.078125,0.40625
1695840153150,0.10961914,-0.97442627,0.117614746,-0.375,0.21875,-0.328125
1695840153190,0.111328125,-0.99420166,0.1317749,0.0625,1.5,0.6875
1695840153230,0.11450195,-0.9920044,0.121520996,-2.4375,0.859375,-0.09375
1695840153270,0.10913086,-0.96881104,0.124694824,-1.40625,0.8125,-0.21875
1695840153310,0.103759766,-0.9741821,0.12884521,0.53125,0.875,0.4375
1695840153350,0.1159668,-1.0022583,0.13128662,-0.046875,1.703125,1.515625
1695840153390,0.12963867,-0.99468994,0.1293335,-2.453125,1.5625,0.375
1695840153430,0.103515625,-0.9819946,0.12835693,-1.421875,2.203125,-0.296875
1695840153470,0.107910156,-0.9595337,0.14129639,1.96875,0.53125,1.265625
1695840153510,0.11621094,-0.9697876,0.13665771,0.765625,1.484375,0.140625
1695840153550,0.119140625,-0.9949341,0.1317749,-1.46875,1.1875,-0.71875
1695840153590,0.114746094,-1.003479,0.13494873,-0.75,1.046875,-0.140625
1695840153630,0.110839844,-0.97662354,0.13519287,1.765625,1.40625,0.34375
1695840153670,0.10888672,-0.9807739,0.1251831,0.34375,1.015625,0.421875
1695840153710,0.11694336,-0.9854126,0.12713623,-1.21875,0.515625,0.265625
1695840153750,0.123535156,-0.98565674,0.13250732,0.234375,0.953125,-0.078125
1695840153790,0.11669922,-0.97491455,0.12542725,0.75,1.375,0.171875
1695840153830,0.1081543,-0.9776001,0.13128662,-0.203125,0.515625,0.21875
1695840153870,0.12402344,-0.9939575,0.13983154,-0.046875,0.65625,0.5625
1695840153910,0.12451172,-0.98809814,0.12347412,-1.609375,0.9375,0.28125
1695840153950,0.11254883,-0.9727173,0.13031006,-1.25,1.28125,-0.25
1695840153990,0.10571289,-0.98687744,0.15032959,-0.84375,0.9375,-0.234375
1695840154030,0.10668945,-0.989563,0.14276123,0.890625,1.109375,0.84375
1695840154070,0.115722656,-0.97979736,0.12054443,-1.28125,0.5625,0.15625
1695840154110,0.119384766,-0.9751587,0.12738037,-1.546875,1.234375,-0.046875
1695840154150,0.118652344,-0.98638916,0.1317749,-0.0625,1.375,0.546875
1695840154190,0.119628906,-0.9663696,0.13616943,-1.125,0.71875,-0.015625
1695840154230,0.10961914,-0.9849243,0.1461792,-0.109375,0.796875,0.03125
1695840154270,0.115234375,-0.9841919,0.13665771,-0.671875,0.46875,0.53125
1695840154310,0.11669922,-0.9932251,0.14105225,-0.234375,0.984375,0.109375
1695840154350,0.10180664,-0.9680786,0.14202881,0.140625,1.1875,0.15625
1695840154390,0.11352539,-0.9873657,0.13909912,0.140625,0.921875,0.109375
1695840154430,0.11743164,-0.9817505,0.12860107,-0.390625,0.875,0.421875
1695840154470,0.118652344,-0.9846802,0.14007568,-0.40625,0.734375,-0.015625
1695840154510,0.119140625,-0.9812622,0.14251709,-0.796875,1.390625,-0.34375
1695840154550,0.11230469,-0.9795532,0.14593506,-0.96875,1.34375,0.0625
1695840154590,0.10229492,-0.9768677,0.14666748,0.265625,0.734375,0.25
1695840154630,0.11450195,-0.98809814,0.14422607,-0.265625,1.125,0.1875
1695840154670,0.11328125,-0.9793091,0.1437378,-0.609375,0.828125,0.03125
1695840154710,0.100097656,-0.9871216,0.14129639,-0.015625,1.328125,0.234375
1695840154750,0.11279297,-0.9783325,0.1449585,-0.25,0.875,0.078125
1695840154790,0.111816406,-0.97857666,0.13983154,-0.359375,0.984375,0.109375
1695840154830,0.11230469,-0.9854126,0.14276123,0.046875,1.15625,0.3125
1695840154870,0.11279297,-0.9834595,0.1408081,-0.4375,1.234375,0.203125
1695840154910,0.10864258,-0.98321533,0.15032959,-0.0625,0.890625,-0.265625
1695840154950,0.11010742,-0.9963989,0.1515503,0.421875,1.375,0.203125
1695840154990,0.11230469,-0.9776001,0.14422607,-0.71875,1.28125,-0.078125
1695840155030,0.110839844,-0.97369385,0.1461792,-0.546875,0.953125,-0.4375
1695840155070,0.09716797,-0.9949341,0.15447998,1.0,0.953125,0.265625
1695840155110,0.119628906,-0.9944458,0.14202881,-0.296875,0.84375,1.109375
1695840155150,0.11425781,-0.9717407,0.12689209,-1.125,0.8125,-0.359375
1695840155190,0.1015625,-0.98321533,0.14764404,-0.125,1.265625,-0.09375
1695840155230,0.107910156,-0.9902954,0.14935303,0.09375,0.96875,0.78125
1695840155270,0.118896484,-0.97906494,0.14569092,-0.53125,1.25,-0.109375
1695840155310,0.095947266,-0.97784424,0.14447021,0.546875,1.65625,-0.140625
1695840155350,0.104003906,-0.99420166,0.15325928,-0.125,1.0,0.53125
1695840155390,0.11303711,-0.9795532,0.14984131,-1.046875,1.03125,0.234375
1695840155430,0.107177734,-0.9824829,0.14935303,-0.71875,1.46875,-0.1875
1695840155470,0.10864258,-0.9795532,0.14764404,-0.6875,1.421875,0.15625
1695840155510,0.10473633,-0.97857666,0.15252686,-1.453125,0.5625,-0.09375
1695840155550,0.10668945,-0.98565674,0.15032959,-0.34375,1.0,-0.03125
1695840155590,0.11816406,-0.9837036,0.14959717,-0.953125,0.9375,0.25
1695840155630,0.11328125,-0.9849243,0.15472412,-1.28125,0.859375,-0.203125
1695840155670,0.10595703,-0.98687744,0.16009521,-0.5625,1.171875,0.015625
1695840155710,0.103759766,-0.9800415,0.15447998,-0.4375,1.078125,0.078125
1695840155750,0.11230469,-0.9741821,0.16229248,-0.484375,1.234375,-0.015625
1695840155790,0.10595703,-0.9817505,0.16326904,0.109375,1.109375,0.15625
1695840155830,0.10131836,-0.98931885,0.1564331,-0.25,1.21875,0.328125
1695840155870,0.11328125,-0.9841919,0.1473999,-0.65625,1.46875,0.203125
1695840155910,0.107421875,-0.9780884,0.1630249,0.15625,1.1875,0.125
1695840155950,0.10546875,-0.98760986,0.1605835,1.03125,1.5625,0.34375
1695840155990,0.11035156,-0.98760986,0.1486206,-1.03125,1.40625,0.0
1695840156030,0.1081543,-0.972229,0.1539917,-0.84375,0.625,0.046875
1695840156070,0.10522461,-0.9915161,0.16522217,-0.171875,0.953125,-0.03125
1695840156110,0.10961914,-0.98321533,0.1552124,-0.9375,1.390625,0.453125
1695840156150,0.10913086,-0.98443604,0.15106201,-1.296875,1.109375,-0.09375
1695840156190,0.10498047,-0.9729614,0.16033936,-0.078125,0.984375,-0.390625
1695840156230,0.10839844,-0.98516846,0.16522217,-1.1875,0.875,-0.140625
1695840156270,0.10522461,-0.9819946,0.16571045,-1.1875,0.953125,-0.234375
1695840156310,0.09692383,-0.9883423,0.16888428,0.390625,0.796875,-0.21875
1695840156350,0.09716797,-0.9807739,0.15960693,-1.9375,-0.265625,0.125
1695840156390,0.111328125,-0.9607544,0.15863037,-1.796875,0.15625,-0.796875
1695840156430,0.103759766,-0.9873657,0.17254639,0.796875,1.671875,0.015625
1695840156470,0.099609375,-0.9866333,0.1708374,-0.265625,1.296875,0.9375
1695840156510,0.11254883,-0.9741821,0.15814209,1.0,1.515625,0.09375
1695840156550,0.11645508,-0.97979736,0.16766357,-0.25,1.40625,0.078125
1695840156590,0.12011719,-0.98443604,0.16912842,-2.875,0.328125,-0.484375
1695840156630,0.09448242,-0.97613525,0.17425537,-0.21875,-0.03125,-1.953125
1695840156670,0.08544922,-0.9690552,0.17010498,1.0625,0.046875,-0.53125
1695840156710,0.083740234,-0.9939575,0.17254639,-0.625,-0.34375,0.75
1695840156750,0.09765625,-0.9829712,0.17303467,0.484375,1.09375,0.390625
1695840156790,0.09643555,-0.9717407,0.17718506,2.015625,2.484375,-0.40625
1695840156830,0.08959961,-0.9854126,0.17327881,2.0,2.421875,0.46875
1695840156870,0.10449219,-0.98223877,0.16571045,-0.9375,0.640625,0.8125
1695840156910,0.11328125,-0.9771118,0.14398193,-0.75,1.0,0.21875
1695840156950,0.10986328,-0.99102783,0.16033936,-0.109375,1.9375,-0.5625
1695840156990,0.09350586,-0.9854126,0.17669678,-0.171875,1.765625,0.84375
1695840157030,0.09423828,-0.9751587,0.1564331,0.265625,1.234375,0.453125
1695840157070,0.095214844,-0.97662354,0.15423584,1.640625,1.953125,0.140625
1695840157110,0.09741211,-0.97735596,0.15325928,3.703125,5.640625,0.796875
1695840157150,0.10498047,-1.0020142,0.16278076,6.109375,6.140625,0.953125
1695840157190,0.080078125,-0.9710083,0.1618042,1.40625,0.703125,0.75
1695840157230,0.09082031,-0.97857666,0.14959717,-2.296875,-2.328125,1.125
1695840157270,0.12231445,-0.9837036,0.1359253,-4.328125,-0.390625,0.640625
1695840157310,0.12573242,-0.9932251,0.1437378,-0.4375,2.203125,-0.515625
1695840157350,0.10913086,-0.9651489,0.15838623,1.328125,1.8125,-0.21875
1695840157390,0.099365234,-0.9807739,0.16229248,0.375,0.25,0.5625
1695840157430,0.10913086,-0.9788208,0.15301514,0.453125,0.578125,1.125
1695840157470,0.11791992,-0.99176025,0.1564331,1.3125,2.28125,1.015625
1695840157510,0.099853516,-0.9890747,0.15179443,0.71875,2.03125,0.265625
1695840157550,0.09838867,-0.9924927,0.15301514,-1.328125,0.140625,0.015625
1695840157590,0.103027344,-0.97003174,0.1486206,-1.09375,-0.140625,0.34375
1695840157630,0.11450195,-0.9898071,0.15545654,0.171875,0.96875,-0.046875
1695840157670,0.111083984,-0.9780884,0.13568115,-0.78125,1.484375,0.109375
1695840157710,0.106933594,-0.9668579,0.1408081,-1.5,0.875,-0.4375
1695840157750,0.106933594,-0.99957275,0.1630249,0.21875,0.59375,-0.625
1695840157790,0.107421875,-0.9807739,0.152771,0.484375,1.640625,1.25
1695840157830,0.106933594,-0.9780884,0.14007568,0.484375,1.3125,0.140625
1695840157870,0.10180664,-0.9776001,0.15106201,0.265625,1.71875,-0.234375
1695840157910,0.10644531,-0.99005127,0.15570068,-0.921875,0.09375,0.078125
1695840157950,0.111083984,-0.9741821,0.14398193,-0.90625,0.8125,-0.234375
1695840157990,0.10473633,-0.9805298,0.15301514,0.5625,1.90625,-0.625
1695840158030,0.10449219,-0.9915161,0.15203857,0.734375,0.953125,0.390625
1695840158070,0.10571289,-0.9902954,0.15179443,-0.84375,1.046875,0.40625
1695840158110,0.10083008,-0.98150635,0.14935303,-0.71875,1.390625,-0.109375
1695840158150,0.10083008,-0.98687744,0.152771,-0.359375,2.40625,0.09375
1695840158190,0.096191406,-0.9890747,0.1515503,-1.671875,3.296875,0.078125
1695840158230,0.107421875,-0.9793091,0.14398193,-1.59375,5.046875,-1.59375
1695840158270,0.10253906,-0.9741821,0.16009521,1.96875,5.6875,-0.703125
1695840158310,0.10229492,-0.9866333,0.16033936,1.09375,4.578125,-0.390625
1695840158350,0.10498047,-0.98028564,0.15325928,3.046875,4.703125,-0.15625
1695840158390,0.11328125,-0.97613525,0.15618896,4.375,2.390625,-0.453125
1695840158430,0.1027832,-0.9849243,0.14886475,-0.875,-1.53125,0.453125
1695840158470,0.0847168,-0.98565674,0.13812256,1.609375,-0.578125,0.1875
1695840158510,0.10961914,-0.99713135,0.14666748,4.21875,-0.859375,-0.34375
1695840158550,0.10498047,-0.99005127,0.1564331,1.421875,-1.5625,1.34375
1695840158590,0.091308594,-0.97003174,0.1239624,0.453125,-0.75,1.265625
1695840158630,0.1159668,-0.9846802,0.12005615,2.78125,-0.546875,-0.703125
1695840158670,0.10083008,-1.0090942,0.12591553,4.890625,-0.515625,1.40625
1695840158710,0.09814453,-0.9849243,0.11444092,-1.96875,-1.40625,1.4375
1695840158750,0.100097656,-0.9690552,0.11956787,-3.484375,0.25,-0.328125
1695840158790,0.10058594,-0.9961548,0.13079834,-1.40625,-0.03125,0.515625
1695840158830,0.1027832,-0.9990845,0.12738037,-1.109375,-0.015625,1.1875
1695840158870,0.10253906,-0.98394775,0.1293335,-2.375,0.203125,-0.140625
1695840158910,0.11010742,-0.972229,0.14056396,-2.328125,0.859375,-0.578125
1695840158950,0.103515625,-0.9873657,0.1408081,-1.53125,0.671875,0.296875
1695840158990,0.09887695,-0.9890747,0.14837646,-1.375,0.484375,0.1875
1695840159030,0.1015625,-0.9776001,0.15374756,0.078125,0.890625,0.09375
1695840159070,0.103515625,-0.9841919,0.14569092,-0.953125,1.421875,0.4375
1695840159110,0.11206055,-0.97979736,0.13616943,-2.03125,0.671875,-0.328125
1695840159150,0.111816406,-0.97076416,0.14398193,-1.328125,0.796875,-0.9375
1695840159190,0.08984375,-0.9834595,0.15130615,0.359375,0.8125,-0.484375
1695840159230,0.099365234,-0.9871216,0.14886475,0.140625,1.15625,0.59375
1695840159270,0.10424805,-0.98931885,0.14129639,-0.96875,1.34375,0.0625
1695840159310,0.10058594,-0.9805298,0.14886475,-0.671875,0.984375,-0.390625
1695840159350,0.1015625,-0.98565674,0.15350342,-0.625,1.53125,0.265625
1695840159390,0.1027832,-0.97857666,0.14910889,-2.25,1.75,-0.25
1695840159430,0.10083008,-0.9834595,0.15692139,-0.40625,1.734375,-0.75
1695840159470,0.09863281,-0.9968872,0.16326904,0.046875,1.015625,0.328125
1695840159510,0.091552734,-0.96759033,0.14471436,-0.484375,0.296875,0.5
1695840159550,0.10498047,-0.9763794,0.14129639,0.15625,1.40625,-0.390625
1695840159590,0.10522461,-0.9697876,0.16229248,1.03125,2.40625,0.28125
1695840159630,0.09277344,-1.0088501,0.14959717,0.3125,2.171875,0.6875
1695840159670,0.09472656,-1.0090942,0.13348389,-3.84375,8.296875,-0.265625
1695840159710,0.12109375,-0.9534302,0.1605835,0.40625,6.84375,-1.421875
1695840159750,0.092041016,-0.9717407,0.17230225,0.859375,3.03125,-1.046875
1695840159790,0.09448242,-1.0010376,0.16156006,-1.21875,3.296875,0.21875
1695840159830,0.099609375,-0.97003174,0.14178467,-1.234375,3.046875,-1.609375
1695840159870,0.1027832,-0.98150635,0.16815186,2.625,1.375,-0.71875
1695840159910,0.09716797,-0.9819946,0.16815186,0.453125,-0.515625,1.65625
1695840159950,0.09741211,-0.9920044,0.13787842,-2.796875,0.28125,0.015625
1695840159990,0.10473633,-0.97662354,0.14984131,-0.828125,0.578125,-0.609375
1695840160030,0.083984375,-0.986145,0.1671753,1.265625,0.40625,0.734375
1695840160070,0.09765625,-0.99102783,0.15789795,-0.8125,0.703125,0.5
1695840160110,0.103759766,-0.9788208,0.1486206,-1.09375,1.484375,-0.515625
1695840160150,0.09277344,-0.9834595,0.16131592,-0.34375,1.046875,-0.171875
1695840160190,0.08862305,-0.9829712,0.15570068,-0.296875,0.453125,-0.125
1695840160230,0.08251953,-0.9885864,0.1593628,0.0625,1.015625,0.390625
1695840160270,0.095214844,-0.9846802,0.15570068,0.828125,2.125,0.53125
1695840160310,0.09667969,-0.98883057,0.15447998,-0.34375,1.390625,0.140625
1695840160350,0.09692383,-0.98101807,0.1515503,-1.109375,1.3125,-0.046875
1695840160390,0.1027832,-0.9924927,0.15838623,0.3125,1.90625,-0.25
1695840160430,0.096191406,-0.9841919,0.15863037,-0.03125,0.90625,0.078125
1695840160470,0.09033203,-0.9697876,0.16351318,-0.875,0.859375,-0.078125
1695840160510,0.095458984,-0.9939575,0.18548584,2.09375,-0.125,-0.703125
1695840160550,0.083496094,-1.0112915,0.17230225,4.890625,-1.015625,2.484375
1695840160590,0.111816406,-0.97979736,0.15692139,-1.5625,-1.734375,0.4375
1695840160630,0.08618164,-0.96099854,0.14129639,-4.8125,-1.15625,-1.421875
1695840160670,0.075927734,-0.99591064,0.15716553,0.421875,-0.828125,0.890625
1695840160710,0.10424805,-0.9924927,0.15692139,3.296875,0.0625,1.390625
1695840160750,0.107910156,-0.96417236,0.12298584,0.921875,1.46875,0.765625
1695840160790,0.08691406,-0.9692993,0.14227295,0.3125,0.8125,0.171875
1695840160830,0.08105469,-1.006897,0.16790771,-0.71875,-1.625,0.390625
1695840160870,0.1015625,-0.98931885,0.14837646,0.984375,0.53125,1.6875
1695840160910,0.10913086,-0.9758911,0.12738037,0.109375,1.390625,-0.0625
1695840160950,0.09448242,-0.9817505,0.15765381,-1.828125,1.03125,-1.015625
1695840160990,0.08862305,-0.98321533,0.16668701,-1.109375,-0.328125,0.796875
1695840161030,0.08984375,-0.9841919,0.15106201,-0.875,0.234375,0.171875
1695840161070,0.10107422,-0.9793091,0.15887451,-1.796875,1.015625,-0.03125
1695840161110,0.08959961,-0.9817505,0.16644287,-0.921875,0.96875,0.296875
1695840161150,0.09765625,-0.98638916,0.16009521,-1.640625,0.625,-0.078125
1695840161190,0.096191406,-0.97906494,0.16375732,-0.875,1.5625,0.0
1695840161230,0.09350586,-0.98028564,0.17303467,0.25,1.140625,0.5625
1695840161270,0.09326172,-0.97857666,0.16546631,0.140625,0.515625,0.40625
1695840161310,0.10131836,-0.9800415,0.16448975,-0.46875,1.625,0.171875
1695840161350,0.09692383,-0.9873657,0.15350342,-1.3125,0.625,-0.1875
1695840161390,0.09765625,-0.9807739,0.16473389,-0.90625,1.078125,-0.3125
1695840161430,0.091552734,-0.9812622,0.17767334,0.71875,1.484375,-0.046875
1695840161470,0.09741211,-0.97906494,0.16351318,0.546875,0.890625,0.859375
1695840161510,0.09643555,-0.9837036,0.1642456,-0.890625,1.0625,0.125
1695840161550,0.09716797,-0.98321533,0.1618042,-0.3125,1.140625,-0.390625
1695840161590,0.092285156,-0.97906494,0.15838623,0.84375,1.203125,0.265625
1695840161630,0.10253906,-0.9768677,0.152771,0.421875,1.171875,0.234375
1695840161670,0.08911133,-0.98687744,0.16790771,1.171875,1.265625,0.078125
1695840161710,0.09033203,-0.98883057,0.16937256,-0.484375,1.484375,0.484375
1695840161750,0.099853516,-0.9854126,0.15814209,-0.5,1.140625,0.296875
1695840161790,0.092285156,-0.98443604,0.1720581,-0.546875,-0.078125,0.015625
1695840161830,0.09765625,-0.9817505,0.16571045,-0.0625,0.828125,0.359375
1695840161870,0.09667969,-0.9776001,0.16473389,-0.28125,1.40625,0.34375
1695840161910,0.09765625,-0.9812622,0.16131592,-0.640625,1.40625,-0.109375
1695840161950,0.08520508,-0.9841919,0.17059326,-0.03125,0.953125,0.109375
1695840161990,0.09106445,-0.9795532,0.16864014,0.125,0.484375,0.6875
1695840162030,0.0871582,-0.9849243,0.15863037,0.453125,1.359375,0.421875
1695840162070,0.10253906,-0.97491455,0.15008545,0.296875,1.84375,-0.453125
1695840162110,0.092041016,-0.97369385,0.15594482,-1.71875,0.96875,-0.34375
1695840162150,0.083496094,-0.9885864,0.17449951,-0.109375,0.71875,-0.453125
1695840162190,0.091308594,-0.9949341,0.16741943,0.828125,0.5625,0.875
1695840162230,0.109375,-0.975647,0.15252686,-0.671875,1.125,0.28125
1695840162270,0.09350586,-0.96954346,0.17449951,-1.59375,1.234375,-1.0
1695840162310,0.08203125,-0.9807739,0.17523193,0.6875,1.171875,0.125
1695840162350,0.088378906,-0.98272705,0.16204834,1.125,1.5,0.984375
1695840162390,0.091796875,-0.9793091,0.15716553,1.21875,1.625,0.9375
1695840162430,0.09790039,-0.9849243,0.16107178,0.890625,1.375,0.3125
1695840162470,0.09741211,-0.9824829,0.15325928,0.3125,1.125,0.453125
1695840162510,0.09008789,-0.97540283,0.15594482,0.9375,1.5,0.140625
1695840162550,0.08911133,-0.99346924,0.16815186,0.9375,0.515625,0.484375
1695840162590,0.080078125,-0.9812622,0.1630249,0.59375,1.640625,0.265625
1695840162630,0.09887695,-1.008606,0.16619873,3.34375,1.75,0.4375
1695840162670,0.115478516,-0.95513916,0.15960693,1.40625,1.46875,0.921875
1695840162710,0.095458984,-0.98931885,0.15032959,2.078125,0.3125,0.3125
1695840162750,0.09326172,-0.9866333,0.12615967,1.359375,0.828125,0.6875
1695840162790,0.08959961,-0.9702759,0.15496826,0.65625,-0.328125,0.3125
1695840162830,0.091796875,-0.98443604,0.15765381,2.515625,0.578125,0.625
1695840162870,0.09301758,-0.9788208,0.13690186,-0.09375,0.265625,0.84375
1695840162910,0.10229492,-0.9915161,0.13421631,-2.96875,-0.171875,-0.109375
1695840162950,0.079833984,-0.97052,0.13690186,-0.625,0.484375,0.28125
1695840162990,0.09277344,-0.987854,0.15545654,0.109375,-0.46875,-0.3125
1695840163030,0.1237793,-1.0010376,0.16009521,-1.59375,1.828125,0.625
1695840163070,0.103759766,-0.9734497,0.15106201,-0.53125,2.1875,1.25
1695840163110,0.095214844,-0.97906494,0.14178467,0.90625,0.40625,1.25
1695840163150,0.10913086,-0.98687744,0.15130615,-2.890625,-1.078125,0.84375
1695840163190,0.1003418,-0.9805298,0.15960693,-2.390625,0.234375,-0.046875
1695840163230,0.08862305,-0.9741821,0.15667725,0.671875,1.65625,-0.1875
1695840163270,0.087890625,-0.9819946,0.1461792,-1.078125,-0.046875,-0.046875
1695840163310,0.09716797,-0.9780884,0.16033936,-0.984375,0.546875,0.484375
1695840163350,0.104003906,-0.9871216,0.1593628,0.5625,1.25,0.640625
1695840163390,0.106933594,-0.98150635,0.15740967,-0.765625,1.640625,0.21875
1695840163430,0.10253906,-0.97247314,0.16864014,-1.40625,1.5,-0.203125
1695840163470,0.09863281,-0.9920044,0.16351318,1.140625,0.984375,0.46875
1695840163510,0.11206055,-0.9859009,0.14349365,0.28125,0.5,0.359375
1695840163550,0.10131836,-0.975647,0.15325928,-0.40625,1.78125,-0.59375
1695840163590,0.0871582,-0.97784424,0.17108154,-0.90625,1.625,-0.109375
1695840163630,0.095214844,-0.9898071,0.16351318,-1.1875,1.5625,0.015625
1695840163670,0.10083008,-0.9812622,0.15789795,-1.484375,1.34375,-0.8125
1695840163710,0.09008789,-0.97076416,0.16766357,-0.75,1.515625,-0.234375
1695840163750,0.087646484,-0.9871216,0.17156982,-0.484375,1.140625,-0.40625
1695840163790,0.09301758,-0.9837036,0.16571045,0.796875,0.765625,0.609375
1695840163830,0.10571289,-0.9885864,0.16082764,0.453125,1.578125,0.4375
1695840163870,0.10571289,-0.9805298,0.15252686,-0.90625,1.265625,-0.171875
1695840163910,0.11010742,-0.9949341,0.14593506,-1.75,0.703125,0.0
1695840163950,0.11767578,-0.9807739,0.1564331,-0.578125,0.859375,-1.328125
1695840163990,0.08642578,-0.9727173,0.19476318,4.28125,2.140625,-0.421875
1695840164030,0.0637207,-0.98760986,0.19378662,3.453125,1.984375,1.375
1695840164070,0.07910156,-0.9854126,0.15570068,-0.28125,0.703125,2.09375
1695840164110,0.110839844,-0.9837036,0.15447998,-0.78125,2.53125,-0.015625
1695840164150,0.09448242,-0.99346924,0.16156006,3.578125,2.65625,-1.265625
1695840164190,0.087402344,-0.9898071,0.14764404,1.828125,1.03125,-0.1875
1695840164230,0.08911133,-0.9758911,0.1383667,-1.1875,-0.34375,-0.125
