timestamp,accel_x,accel_y,accel_z,gyro_x,gyro_y,gyro_z
1695840926236,0.056884766,-0.987854,0.13543701,-1.296875,0.28125,0.71875
1695840926276,0.064697266,-0.9788208,0.13616943,-1.984375,1.859375,0.6875
1695840926316,0.060302734,-0.987854,0.14422607,-0.015625,1.8125,0.984375
1695840926356,0.07104492,-0.9890747,0.14300537,-0.34375,0.390625,0.34375
1695840926396,0.07104492,-0.9898071,0.1461792,-0.9375,0.625,0.078125
1695840926436,0.068603516,-0.99346924,0.14715576,1.0,1.734375,0.109375
1695840926476,0.061523438,-1.0015259,0.15667725,2.859375,2.34375,0.6875
1695840926516,0.037353516,-0.9871216,0.14935303,2.03125,1.0625,1.296875
1695840926556,0.064941406,-0.9534302,0.12249756,-0.78125,1.53125,0.546875
1695840926596,0.095947266,-0.98638916,0.09686279,-2.484375,-0.65625,-1.078125
1695840926636,0.0847168,-1.0132446,0.10223389,-0.109375,2.859375,0.046875
1695840926676,0.055419922,-0.9990845,0.13031006,3.921875,3.53125,0.078125
1695840926716,0.046875,-0.95684814,0.16033936,1.53125,-0.171875,-0.65625
1695840926756,0.057128906,-0.9714966,0.14349365,-0.0625,-2.625,0.296875
1695840926796,0.07324219,-1.0132446,0.12908936,-2.703125,-1.609375,0.28125
1695840926836,0.07836914,-1.0037231,0.1251831,-2.921875,1.65625,-0.296875
1695840926876,0.064208984,-0.9961548,0.11566162,-2.75,1.6875,-0.734375
1695840926916,0.053710938,-0.9932251,0.1251831,-4.84375,1.09375,-1.375
1695840926956,0.052490234,-0.99053955,0.13665771,-7.21875,5.109375,-2.453125
1695840926996,0.06201172,-0.9780884,0.16741943,-1.171875,8.265625,-0.453125
1695840927036,0.06640625,-0.99591064,0.18084717,-1.015625,3.640625,-0.03125
1695840927076,0.05126953,-0.9692993,0.16253662,-5.0,1.171875,-1.359375
1695840927116,0.036621094,-0.96954346,0.16888428,-2.5,1.234375,-2.1875
1695840927156,0.044677734,-0.99591064,0.16644287,-1.453125,1.515625,0.390625
1695840927196,0.055419922,-0.98565674,0.16595459,-1.296875,0.546875,0.765625
1695840927236,0.05053711,-0.9890747,0.16546631,-1.96875,2.703125,-1.4375
1695840927276,0.052978516,-0.9776001,0.17254639,-0.671875,2.78125,-0.546875
1695840927316,0.06347656,-0.98565674,0.18133545,-1.015625,1.15625,0.4375
1695840927356,0.057617188,-0.9776001,0.1749878,-1.359375,0.65625,-0.375
1695840927396,0.035888672,-0.9924927,0.18450928,-1.375,1.171875,-0.578125
1695840927436,0.048828125,-0.9854126,0.1864624,-0.671875,1.828125,0.78125
1695840927476,0.048339844,-0.9812622,0.18426514,0.1875,1.3125,0.671875
1695840927516,0.03881836,-0.9890747,0.19915771,0.03125,-0.359375,1.28125
1695840927556,0.025878906,-0.99420166,0.18450928,-1.359375,-2.40625,1.1875
1695840927596,0.057617188,-0.991272,0.17010498,-2.65625,1.734375,-0.625
1695840927636,0.07348633,-0.9951782,0.18328857,-2.3125,3.328125,-1.578125
1695840927676,0.053955078,-0.9944458,0.18206787,-4.46875,2.65625,-1.6875
1695840927716,0.057861328,-0.95562744,0.17572021,-3.234375,0.984375,-2.0
1695840927756,0.044921875,-0.9714966,0.1942749,-0.390625,-0.140625,-0.703125
1695840927796,0.044433594,-0.9854126,0.20672607,-0.96875,1.421875,0.03125
1695840927836,0.048339844,-0.99224854,0.19696045,-1.3125,2.046875,-0.53125
1695840927876,0.040039062,-0.975647,0.20819092,-0.1875,2.671875,0.3125
1695840927916,0.04321289,-0.9746704,0.20794678,0.765625,1.65625,0.8125
1695840927956,0.03540039,-0.97857666,0.20355225,-0.703125,1.03125,0.421875
1695840927996,0.035888672,-0.98150635,0.18817139,-0.875,0.953125,-0.03125
1695840928036,0.052734375,-0.9846802,0.18743896,-0.375,3.0625,-0.78125
1695840928076,0.044921875,-0.9795532,0.20379639,0.390625,1.921875,-0.40625
1695840928116,0.029785156,-0.9824829,0.19573975,-0.46875,1.9375,-0.453125
1695840928156,0.04321289,-0.98931885,0.20184326,-0.4375,1.78125,-0.625
1695840928196,0.035888672,-0.9890747,0.20648193,1.625,2.3125,0.234375
1695840928236,0.04345703,-0.9902954,0.20159912,2.515625,4.921875,0.1875
1695840928276,0.041015625,-0.9771118,0.20721436,0.8125,4.0,-1.8125
1695840928316,0.03491211,-0.9776001,0.19989014,2.578125,2.6875,-1.25
1695840928356,0.037841797,-0.97491455,0.19329834,1.3125,1.375,-0.78125
1695840928396,0.02734375,-0.96759033,0.19500732,-0.828125,0.375,-0.140625
1695840928436,0.033935547,-0.99102783,0.18988037,-0.34375,0.515625,0.109375
1695840928476,0.051757812,-0.98638916,0.18719482,0.328125,1.125,0.28125
1695840928516,0.041992188,-0.97979736,0.18939209,-0.34375,0.890625,0.453125
1695840928556,0.033203125,-0.9578247,0.16546631,2.65625,1.9375,0.359375
1695840928596,0.055419922,-0.96954346,0.2008667,5.984375,-0.828125,2.515625
1695840928636,0.012939453,-1.0154419,0.21282959,3.75,-0.90625,3.375
1695840928676,0.012207031,-1.0164185,0.17889404,2.125,1.5625,0.859375
1695840928716,0.046142578,-0.973938,0.16448975,-0.71875,1.71875,1.890625
1695840928756,0.08959961,-0.9619751,0.14715576,-1.953125,2.21875,-0.75
1695840928796,0.072509766,-0.99176025,0.16619873,0.234375,1.359375,-2.5
1695840928836,0.02368164,-1.0029907,0.17767334,0.53125,-0.65625,-0.421875
1695840928876,0.03515625,-1.0112915,0.17108154,-0.09375,2.25,0.421875
1695840928916,0.06518555,-0.98101807,0.15838623,-0.96875,5.359375,-0.53125
1695840928956,0.061523438,-0.989563,0.16326904,1.390625,5.203125,-2.4375
1695840928996,0.042236328,-0.98516846,0.18670654,-0.421875,3.140625,-2.078125
1695840929036,0.010009766,-0.95880127,0.20184326,-0.6875,-1.046875,-0.46875
1695840929076,0.0,-0.97979736,0.18304443,-2.140625,-1.6875,0.6875
1695840929116,0.040283203,-0.9866333,0.1786499,-1.609375,0.484375,-0.4375
1695840929156,0.040527344,-0.9907837,0.17010498,-0.59375,0.5,0.078125
1695840929196,0.018554688,-0.9883423,0.18548584,0.390625,0.09375,0.15625
1695840929236,0.015625,-0.9834595,0.1906128,-0.984375,-1.1875,1.34375
1695840929276,0.048095703,-0.9727173,0.17816162,-1.359375,1.515625,1.125
1695840929316,0.10180664,-0.94073486,0.23236084,-2.796875,-12.078125,2.375
1695840929356,-0.04638672,-0.98809814,0.16571045,-13.328125,-24.703125,8.140625
1695840929396,-0.008300781,-1.0134888,0.2489624,-1.515625,-7.421875,1.625
1695840929436,0.17797852,-0.97491455,0.19158936,8.671875,4.25,2.0
1695840929476,0.041748047,-1.0354614,0.15570068,3.875,3.578125,0.359375
1695840929516,0.036865234,-0.96539307,0.19232178,3.4375,4.21875,2.078125
1695840929556,0.03515625,-0.96173096,0.20965576,4.78125,1.546875,1.34375
1695840929596,0.05102539,-0.9812622,0.17303467,-2.09375,1.265625,-0.109375
1695840929636,0.05883789,-0.9793091,0.16766357,-0.15625,0.9375,1.125
1695840929676,0.080566406,-0.99591064,0.19158936,0.8125,2.796875,0.0
1695840929716,0.03125,-0.99713135,0.18231201,-0.078125,2.359375,-0.765625
1695840929756,0.034423828,-0.98028564,0.17547607,0.0625,0.984375,1.09375
1695840929796,0.06958008,-0.9841919,0.17645264,-0.09375,5.375,0.15625
1695840929836,0.07519531,-0.99176025,0.18304443,1.96875,6.015625,-0.625
1695840929876,0.024902344,-0.9758911,0.19525146,0.53125,0.875,-0.296875
1695840929916,0.020751953,-0.9898071,0.19012451,-0.46875,0.46875,0.6875
1695840929956,0.07397461,-0.97857666,0.17010498,-0.703125,5.421875,-0.984375
1695840929996,0.079589844,-0.9795532,0.16937256,-1.3125,2.265625,-0.578125
1695840930036,0.041015625,-0.98150635,0.1852417,-1.203125,0.34375,-1.4375
1695840930076,0.03491211,-0.9854126,0.18719482,0.171875,2.484375,-0.15625
1695840930116,0.04736328,-0.9885864,0.18597412,0.0625,3.6875,0.46875
1695840930156,0.04321289,-0.98321533,0.18206787,0.28125,2.65625,0.375
1695840930196,0.032714844,-0.9841919,0.17767334,0.078125,1.703125,0.28125
1695840930236,0.036132812,-0.9902954,0.17938232,-0.28125,1.984375,-0.0625
1695840930276,0.0637207,-0.9776001,0.16937256,-1.28125,1.796875,0.234375
1695840930316,0.048583984,-1.0012817,0.16766357,1.609375,4.484375,-2.34375
1695840930356,0.036376953,-0.99468994,0.18060303,2.46875,4.640625,-0.6875
1695840930396,0.03564453,-0.9902954,0.18475342,1.5,4.1875,0.03125
1695840930436,0.050048828,-0.97540283,0.17572021,0.484375,2.75,0.203125
1695840930476,0.05126953,-0.9714966,0.18255615,1.640625,1.71875,-0.125
1695840930516,0.042236328,-0.9890747,0.1786499,1.46875,1.8125,-0.3125
1695840930556,0.050048828,-0.98516846,0.17279053,-0.328125,0.484375,-0.015625
1695840930596,0.038085938,-0.9788208,0.16937256,-1.3125,-0.9375,0.25
1695840930636,0.045654297,-0.9846802,0.16009521,-0.609375,2.28125,-0.09375
1695840930676,0.050048828,-0.9837036,0.17010498,0.0625,1.4375,0.375
1695840930716,0.03881836,-0.98883057,0.18109131,0.5625,1.46875,0.265625
1695840930756,0.042236328,-0.9834595,0.17449951,-0.453125,0.171875,0.4375
1695840930796,0.048339844,-0.98443604,0.15960693,-1.390625,1.984375,-0.3125
1695840930836,0.040283203,-0.9890747,0.16473389,-0.046875,1.859375,-0.921875
1695840930876,0.03564453,-0.97906494,0.18817139,1.28125,1.1875,0.78125
1695840930916,0.033691406,-0.9885864,0.17962646,0.171875,1.625,0.484375
1695840930956,0.04663086,-0.98394775,0.16937256,0.484375,1.578125,0.21875
1695840930996,0.04736328,-0.98150635,0.17547607,1.578125,1.59375,0.65625
1695840931036,0.05419922,-0.9793091,0.16888428,-0.359375,0.765625,0.46875
1695840931076,0.046142578,-0.9937134,0.17132568,-1.28125,0.578125,-0.09375
1695840931116,0.036621094,-0.9741821,0.17279053,-1.96875,-1.28125,0.546875
1695840931156,0.044921875,-0.99102783,0.16546631,-0.21875,0.8125,0.421875
1695840931196,0.046875,-0.9981079,0.16790771,0.484375,2.171875,0.625
1695840931236,0.040527344,-0.9846802,0.17181396,0.0,0.71875,0.28125
1695840931276,0.034423828,-0.98272705,0.17572021,0.265625,1.453125,-0.1875
1695840931316,0.05029297,-0.986145,0.17449951,-0.421875,1.28125,-0.125
1695840931356,0.052978516,-0.9939575,0.16253662,0.09375,1.828125,-0.03125
1695840931396,0.051513672,-0.987854,0.16351318,0.28125,1.53125,0.234375
1695840931436,0.04345703,-0.98760986,0.16326904,0.984375,2.03125,-0.59375
1695840931476,0.043945312,-0.9854126,0.17132568,0.4375,1.578125,-0.28125
1695840931516,0.041259766,-0.98687744,0.17694092,1.40625,1.953125,0.390625
1695840931556,0.03515625,-1.0003052,0.16644287,1.515625,2.390625,-0.125
1695840931596,0.050048828,-0.9854126,0.16400146,1.796875,2.265625,-0.015625
1695840931636,0.03149414,-0.9817505,0.16571045,0.921875,0.90625,0.328125
1695840931676,0.032714844,-0.9883423,0.15325928,-0.15625,1.765625,-0.21875
1695840931716,0.049804688,-0.9819946,0.15618896,0.8125,1.359375,-0.40625
1695840931756,0.048583984,-0.9817505,0.15081787,3.15625,-0.03125,0.234375
1695840931796,0.043945312,-0.97247314,0.15985107,2.421875,-0.96875,0.171875
1695840931836,0.029052734,-1.0012817,0.16741943,0.984375,0.8125,0.75
1695840931876,0.044677734,-0.98443604,0.13983154,-0.34375,1.21875,1.0
1695840931916,0.033447266,-0.987854,0.14007568,0.8125,-1.515625,0.78125
1695840931956,0.03930664,-0.9915161,0.15472412,0.703125,0.734375,0.984375
1695840931996,0.052001953,-0.99468994,0.15618896,-0.421875,1.0625,0.140625
1695840932036,0.040283203,-0.9795532,0.14691162,-1.453125,0.359375,-0.1875
1695840932076,0.032470703,-0.9924927,0.15203857,-0.4375,0.0,0.578125
1695840932116,0.060302734,-0.99346924,0.15545654,-0.78125,1.046875,0.296875
1695840932156,0.053222656,-0.9854126,0.16546631,-0.921875,0.671875,0.015625
1695840932196,0.020263672,-0.9932251,0.16546631,0.578125,-0.40625,0.421875
1695840932236,0.030761719,-0.9890747,0.15374756,0.28125,-0.390625,1.390625
1695840932276,0.056152344,-0.99005127,0.1486206,-2.6875,0.984375,1.609375
1695840932316,0.060302734,-0.98760986,0.14227295,-1.953125,1.15625,-0.515625
1695840932356,0.048339844,-0.99346924,0.15228271,-1.609375,1.0625,-1.421875
1695840932396,0.04711914,-0.98809814,0.15985107,-2.765625,1.21875,-0.59375
1695840932436,0.049072266,-0.9819946,0.16229248,-1.890625,3.09375,-0.578125
1695840932476,0.041503906,-0.9768677,0.16693115,-0.515625,2.015625,0.15625
1695840932516,0.03564453,-0.99468994,0.1696167,0.125,1.3125,0.703125
1695840932556,0.049316406,-0.98638916,0.16815186,-0.78125,1.796875,-0.25
1695840932596,0.040039062,-0.9871216,0.17449951,-0.859375,0.59375,-0.609375
1695840932636,0.03564453,-0.9998169,0.17156982,-0.421875,1.609375,-0.40625
1695840932676,0.040039062,-0.9849243,0.1642456,-1.171875,0.9375,-0.09375
1695840932716,0.045410156,-0.98150635,0.16229248,-0.96875,0.9375,-0.171875
1695840932756,0.05053711,-0.97662354,0.1749878,-1.34375,0.84375,-0.46875
1695840932796,0.032226562,-0.98638916,0.17327881,-0.1875,0.4375,0.265625
1695840932836,0.05029297,-0.9873657,0.1774292,-0.671875,1.078125,0.390625
1695840932876,0.044433594,-0.9854126,0.1762085,-0.359375,0.78125,0.21875
1695840932916,0.028320312,-0.9795532,0.18133545,-0.578125,-0.96875,0.203125
1695840932956,0.022949219,-0.98150635,0.19573975,-0.3125,-2.75,-0.296875
1695840932996,0.03491211,-0.97906494,0.19891357,-0.546875,-1.484375,1.234375
1695840933036,0.03955078,-0.9985962,0.18963623,-1.03125,0.359375,0.828125
1695840933076,0.04736328,-0.9873657,0.18035889,-5.53125,-2.078125,0.546875
1695840933116,0.044433594,-0.94415283,0.21185303,-9.96875,-11.03125,3.21875
1695840933156,0.010009766,-0.9585571,0.230896,-10.15625,-20.671875,4.84375
1695840933196,0.017578125,-1.005188,0.20965576,-4.265625,-10.640625,3.96875
1695840933236,0.07299805,-1.0493774,0.18353271,0.84375,2.71875,0.546875
1695840933276,0.12402344,-0.9849243,0.19110107,0.8125,10.171875,-1.203125
1695840933316,0.03515625,-0.97320557,0.24017334,10.0625,6.0,-1.28125
1695840933356,-0.030273438,-0.9500122,0.23040771,6.8125,-2.59375,2.875
1695840933396,0.041992188,-0.96759033,0.18353271,2.578125,-2.4375,2.484375
1695840933436,0.087890625,-0.9985962,0.18426514,1.90625,1.71875,0.796875
1695840933476,0.057373047,-1.0098267,0.19329834,2.59375,2.328125,0.46875
1695840933516,0.035888672,-0.97784424,0.18670654,1.046875,1.640625,0.359375
1695840933556,0.046875,-0.9717407,0.17669678,-0.109375,1.09375,0.84375
1695840933596,0.061767578,-0.9890747,0.17645264,-0.953125,0.3125,0.78125
1695840933636,0.0546875,-0.9763794,0.19525146,-0.5,-0.3125,0.28125
1695840933676,0.055664062,-1.010315,0.18963623,0.671875,1.75,0.125
1695840933716,0.059570312,-0.98565674,0.18865967,-2.390625,2.84375,-0.25
1695840933756,0.05859375,-0.9697876,0.19085693,-1.59375,1.234375,0.484375
1695840933796,0.05102539,-0.9976196,0.1918335,0.03125,1.0625,-0.09375
1695840933836,0.048339844,-0.98760986,0.19036865,-0.21875,1.015625,0.203125
1695840933876,0.047607422,-0.9837036,0.19940186,0.078125,1.671875,0.515625
1695840933916,0.05126953,-0.9829712,0.18548584,-0.765625,1.921875,0.125
1695840933956,0.052978516,-0.98687744,0.18890381,-0.03125,2.234375,-0.171875
1695840933996,0.056884766,-0.9812622,0.1930542,0.4375,2.140625,0.28125
1695840934036,0.060302734,-0.96954346,0.17181396,2.890625,3.375,0.125
1695840934076,0.075683594,-0.9883423,0.18670654,4.25,3.40625,0.5
1695840934116,0.051757812,-0.9741821,0.20062256,1.984375,0.421875,0.671875
1695840934156,0.022705078,-0.99542236,0.19232178,0.359375,-1.0,-0.296875
1695840934196,0.056640625,-0.98028564,0.17034912,-0.453125,1.546875,0.390625
1695840934236,0.08496094,-0.9678345,0.16815186,-2.140625,3.671875,-0.9375
1695840934276,0.047851562,-0.9692993,0.18548584,-1.796875,1.484375,-1.203125
1695840934316,0.020263672,-1.006897,0.20721436,1.46875,1.59375,0.625
1695840934356,0.04272461,-0.98443604,0.19451904,1.0625,2.0625,2.015625
1695840934396,0.059326172,-0.9768677,0.1749878,-0.546875,3.09375,1.40625
1695840934436,0.072021484,-0.97784424,0.17254639,-1.265625,2.109375,-0.265625
1695840934476,0.052001953,-0.9963989,0.18426514,-0.875,0.796875,-0.21875
1695840934516,0.04321289,-0.99468994,0.18109131,-0.65625,-0.625,0.234375
1695840934556,0.057128906,-0.99298096,0.17449951,0.546875,0.953125,0.421875
1695840934596,0.07397461,-0.9727173,0.17816162,-0.203125,3.09375,-0.140625
1695840934636,0.060791016,-0.98809814,0.19207764,-1.046875,1.875,-0.015625
1695840934676,0.04272461,-0.9854126,0.19403076,-0.78125,0.921875,0.234375
1695840934716,0.0546875,-0.986145,0.18548584,-0.828125,1.90625,-0.03125
1695840934756,0.056152344,-0.98443604,0.17523193,-0.40625,2.25,-0.40625
1695840934796,0.04248047,-0.98321533,0.18426514,-0.453125,1.96875,-0.359375
1695840934836,0.03466797,-0.99346924,0.16912842,-1.453125,5.96875,-1.046875
1695840934876,0.080322266,-1.000061,0.17767334,2.25,12.9375,-3.3125
1695840934916,0.07788086,-0.97320557,0.19647217,2.765625,7.609375,-1.25
1695840934956,0.016113281,-0.9614868,0.19134521,0.71875,1.90625,-0.6875
1695840934996,0.027832031,-0.97540283,0.19207764,1.03125,2.28125,-0.5625
1695840935036,0.0715332,-0.98443604,0.19012451,1.359375,1.453125,-0.09375
1695840935076,0.06298828,-0.9846802,0.17547607,-1.015625,-2.75,1.3125
1695840935116,0.026123047,-0.99176025,0.16986084,-0.453125,-1.96875,-0.546875
1695840935156,0.057861328,-0.99176025,0.16815186,2.34375,1.4375,-0.125
1695840935196,0.06738281,-0.97979736,0.1762085,4.375,-0.640625,0.515625
1695840935236,0.03881836,-0.9727173,0.16400146,1.21875,-0.890625,1.171875
1695840935276,0.047851562,-0.99102783,0.1696167,-1.296875,-0.15625,-0.9375
1695840935316,0.049804688,-0.9968872,0.18060303,0.25,2.1875,0.546875
1695840935356,0.05029297,-0.98565674,0.16937256,-0.28125,2.15625,0.359375
1695840935396,0.032470703,-0.9837036,0.1696167,-1.984375,0.671875,-0.140625
1695840935436,0.043945312,-0.98028564,0.1671753,-0.640625,1.515625,-0.09375
1695840935476,0.057128906,-1.0027466,0.1696167,0.515625,1.671875,0.21875
1695840935516,0.043945312,-0.9949341,0.15740967,0.90625,3.984375,-0.78125
1695840935556,0.053466797,-0.97784424,0.1630249,3.390625,6.75,-1.640625
1695840935596,0.046142578,-0.97491455,0.17791748,3.75,3.578125,-0.390625
1695840935636,0.022460938,-0.99053955,0.15985107,1.9375,-0.078125,0.390625
1695840935676,0.053955078,-0.98516846,0.15545654,0.265625,1.03125,0.359375
1695840935716,0.0625,-0.9841919,0.16668701,-0.640625,0.0625,-0.359375
1695840935756,0.045166016,-0.9890747,0.14959717,-0.609375,0.359375,-0.546875
1695840935796,0.036865234,-0.991272,0.15325928,2.609375,0.5625,-0.109375
1695840935836,0.043945312,-1.0027466,0.16204834,2.8125,-0.125,0.34375
1695840935876,0.05053711,-0.9763794,0.15496826,-0.703125,-0.015625,0.765625
1695840935916,0.040039062,-0.98321533,0.1449585,0.921875,1.265625,-0.890625
1695840935956,0.04345703,-0.98150635,0.15716553,-2.0625,1.28125,-0.390625
1695840935996,0.032958984,-0.99884033,0.16571045,-0.640625,1.984375,0.359375
1695840936036,0.017822266,-1.0037231,0.15985107,1.421875,2.15625,1.734375
1695840936076,0.05126953,-0.9771118,0.14422607,-1.046875,2.640625,0.96875
1695840936116,0.057617188,-0.9780884,0.14300537,-0.59375,0.96875,-0.546875
1695840936156,0.044433594,-1.0090942,0.1486206,2.625,0.921875,-0.75
1695840936196,0.033203125,-0.9907837,0.14959717,-0.171875,0.6875,-0.03125
1695840936236,0.04663086,-0.97979736,0.14691162,-0.328125,0.703125,0.0625
1695840936276,0.059326172,-0.9871216,0.14886475,-0.328125,1.46875,-0.0625
1695840936316,0.052734375,-0.9981079,0.1539917,-0.359375,2.3125,-0.421875
1695840936356,0.025634766,-0.99420166,0.16009521,0.640625,1.21875,-0.015625
1695840936396,0.02734375,-0.986145,0.15838623,0.453125,0.609375,1.53125
1695840936436,0.04638672,-0.9898071,0.14959717,-0.421875,2.328125,0.1875
1695840936476,0.040283203,-0.9873657,0.15130615,-0.046875,1.578125,-0.453125
1695840936516,0.025634766,-0.9949341,0.14666748,1.734375,-0.46875,0.28125
1695840936556,0.043945312,-0.987854,0.14422607,-0.390625,0.9375,0.53125
1695840936596,0.053466797,-0.98516846,0.1383667,0.15625,1.765625,0.28125
1695840936636,0.040527344,-0.9985962,0.15252686,1.25,1.546875,0.28125
1695840936676,0.047607422,-0.9817505,0.16131592,-0.453125,0.984375,0.390625
1695840936716,0.037841797,-0.9920044,0.15472412,-1.671875,0.484375,0.671875
1695840936756,0.05419922,-0.9976196,0.14959717,-1.328125,1.609375,-0.375
1695840936796,0.048339844,-0.9902954,0.14715576,-1.1875,1.734375,-0.484375
1695840936836,0.033203125,-0.9776001,0.15179443,-1.453125,0.78125,0.28125
1695840936876,0.034179688,-0.99468994,0.1605835,-2.140625,-0.34375,0.4375
1695840936916,0.03564453,-0.991272,0.1618042,-2.046875,1.46875,0.921875
1695840936956,0.060058594,-0.99664307,0.15692139,-1.5,1.671875,0.84375
1695840936996,0.051757812,-0.9956665,0.16546631,-2.546875,1.8125,0.46875
1695840937036,0.035888672,-0.9800415,0.17596436,-1.875,-0.234375,1.28125
1695840937076,0.030761719,-0.9873657,0.18035889,-5.0625,-2.1875,1.1875
1695840937116,0.049316406,-0.96417236,0.20794678,-13.015625,-10.796875,1.0625
1695840937156,0.029785156,-0.93951416,0.23065186,-16.984375,-20.46875,4.171875
1695840937196,0.024902344,-1.0188599,0.20184326,-6.859375,-4.5625,0.734375
1695840937236,0.1159668,-1.0093384,0.17645264,-1.5625,9.234375,-0.578125
1695840937276,0.07055664,-0.9795532,0.21942139,7.234375,5.296875,0.171875
1695840937316,0.026855469,-0.9507446,0.23797607,4.609375,-4.71875,1.40625
1695840937356,0.028076172,-0.96588135,0.22528076,3.96875,-1.109375,0.515625
1695840937396,0.09301758,-0.973938,0.18939209,4.34375,4.109375,0.9375
1695840937436,0.08325195,-0.9949341,0.20428467,8.71875,2.8125,2.53125
1695840937476,0.04272461,-0.95440674,0.18719482,-1.109375,-9.03125,3.59375
1695840937516,0.006591797,-1.0112915,0.18011475,3.015625,-2.453125,-1.25
1695840937556,0.08569336,-0.975647,0.15692139,-2.59375,3.875,2.015625
1695840937596,0.0769043,-0.99346924,0.17132568,3.109375,3.53125,0.28125
1695840937636,0.041015625,-0.96661377,0.19744873,0.3125,1.15625,-0.1875
1695840937676,0.036865234,-0.9734497,0.19989014,-0.03125,-1.28125,0.5
1695840937716,0.061279297,-0.9963989,0.18695068,-2.140625,-0.15625,0.421875
1695840937756,0.064697266,-1.005188,0.19036865,-0.296875,1.484375,0.75
1695840937796,0.056884766,-0.98101807,0.18011475,0.46875,2.53125,0.21875
1695840937836,0.053466797,-0.98443604,0.18255615,-1.5625,2.125,-0.359375
1695840937876,0.059570312,-0.9829712,0.18890381,-0.09375,0.765625,0.03125
1695840937916,0.052001953,-0.9939575,0.19622803,0.4375,0.03125,0.75
1695840937956,0.06225586,-0.9885864,0.1786499,-1.890625,2.65625,0.203125
1695840937996,0.06567383,-0.9800415,0.18817139,-2.15625,3.640625,-0.265625
1695840938036,0.047607422,-0.98565674,0.20892334,-0.546875,1.765625,-0.609375
1695840938076,0.040283203,-0.9834595,0.19525146,-0.515625,1.578125,0.15625
1695840938116,0.06542969,-0.96051025,0.16888428,3.375,5.625,-0.59375
1695840938156,0.07128906,-0.98687744,0.19818115,6.890625,4.578125,0.71875
1695840938196,0.045410156,-0.9920044,0.20843506,1.96875,-0.9375,1.609375
1695840938236,0.041992188,-0.9805298,0.19134521,-0.765625,-1.59375,0.28125
1695840938276,0.07495117,-0.98443604,0.17401123,-3.515625,3.015625,-0.46875
1695840938316,0.072509766,-0.9873657,0.18621826,-1.9375,2.8125,-0.453125
1695840938356,0.041748047,-0.9907837,0.19793701,-0.046875,1.15625,-0.1875
1695840938396,0.048583984,-0.9800415,0.19476318,-1.6875,0.734375,0.515625
1695840938436,0.060302734,-0.97662354,0.17816162,-2.5,2.4375,-0.078125
1695840938476,0.072753906,-0.97540283,0.18597412,-0.46875,2.609375,-0.046875
1695840938516,0.04663086,-0.9849243,0.2086792,0.796875,0.1875,-0.109375
1695840938556,0.03857422,-0.9871216,0.1954956,-1.15625,-0.125,0.09375
1695840938596,0.060302734,-0.9829712,0.17230225,-2.1875,4.25,0.125
1695840938636,0.096191406,-1.0108032,0.1798706,2.109375,10.109375,-3.5625
1695840938676,0.056884766,-0.97442627,0.19671631,0.78125,5.6875,-1.21875
1695840938716,0.0146484375,-0.9829712,0.20281982,2.5625,4.078125,-2.078125
1695840938756,0.03540039,-0.9585571,0.20770264,1.40625,2.328125,0.71875
1695840938796,0.053955078,-0.98443604,0.19769287,-1.671875,-0.296875,0.0625
1695840938836,0.055664062,-0.9812622,0.18939209,-3.234375,0.15625,-0.171875
1695840938876,0.060302734,-0.9968872,0.18719482,-0.125,1.8125,0.109375
1695840938916,0.05029297,-0.975647,0.18597412,-1.796875,1.15625,0.296875
1695840938956,0.039794922,-0.9558716,0.19036865,-1.703125,-2.0,0.328125
1695840938996,0.03930664,-0.9841919,0.20184326,1.6875,0.453125,0.5625
1695840939036,0.05126953,-0.9949341,0.20697021,0.9375,0.984375,0.765625
1695840939076,0.04736328,-0.9824829,0.21624756,-0.59375,-1.0,0.8125
1695840939116,0.021728516,-0.9805298,0.215271,-0.5,-2.140625,1.953125
1695840939156,0.04345703,-0.9990845,0.17962646,-0.5,0.84375,1.125
1695840939196,0.08300781,-0.96539307,0.17156982,-2.421875,1.203125,-0.21875
1695840939236,0.08569336,-0.96661377,0.1930542,-0.84375,0.140625,-0.921875
1695840939276,0.064453125,-0.9805298,0.184021,0.4375,-0.046875,-0.984375
1695840939316,0.07006836,-1.000061,0.2074585,-0.703125,0.703125,-0.171875
1695840939356,0.05517578,-0.98516846,0.20892334,-0.546875,1.375,0.84375
1695840939396,0.03466797,-0.958313,0.17376709,-0.90625,0.875,0.28125
1695840939436,0.03149414,-0.9800415,0.20770264,-1.890625,0.53125,-0.90625
1695840939476,0.03100586,-1.005188,0.19525146,1.5625,4.5625,0.234375
1695840939516,0.049804688,-0.98687744,0.18060303,0.828125,6.765625,-0.640625
1695840939556,0.05053711,-0.97906494,0.20062256,-0.328125,5.71875,-3.03125
1695840939596,0.045410156,-0.9800415,0.20770264,1.890625,3.28125,-0.59375
1695840939636,0.037841797,-0.9824829,0.17694092,0.703125,2.15625,-0.0625
1695840939676,0.060546875,-0.98150635,0.17962646,0.375,4.703125,-1.015625
1695840939716,0.056884766,-0.97735596,0.1930542,2.734375,4.75,-1.578125
1695840939756,0.04638672,-0.975647,0.2074585,2.375,3.0625,-0.796875
1695840939796,0.020996094,-0.9768677,0.21746826,4.703125,-1.46875,1.46875
1695840939836,0.052490234,-0.987854,0.17425537,-0.171875,-2.046875,2.59375
1695840939876,0.061523438,-0.9795532,0.15716553,-2.96875,-0.359375,-0.46875
1695840939916,0.05493164,-0.98565674,0.18060303,2.109375,1.59375,-0.625
1695840939956,0.038330078,-0.9883423,0.19769287,1.921875,-0.546875,0.75
1695840939996,0.029541016,-0.975647,0.20257568,-0.21875,-1.390625,1.0
1695840940036,0.044677734,-0.97076416,0.215271,-0.59375,-6.8125,2.34375
1695840940076,0.022460938,-0.97540283,0.14349365,-8.0,-13.578125,4.453125
1695840940116,0.07006836,-1.0308228,0.1642456,-2.515625,4.03125,-1.265625
1695840940156,0.08496094,-0.9956665,0.20574951,1.328125,6.546875,-1.328125
1695840940196,0.011474609,-0.98565674,0.1786499,0.03125,1.078125,-1.078125
1695840940236,0.029052734,-0.9541626,0.20281982,0.265625,-0.3125,0.71875
1695840940276,0.05834961,-0.99176025,0.2177124,0.046875,-1.28125,1.078125
1695840940316,0.049316406,-0.9902954,0.16864014,-2.125,0.609375,-0.0625
1695840940356,0.05053711,-0.97320557,0.17767334,-0.015625,3.203125,-0.34375
1695840940396,0.037353516,-0.9985962,0.20599365,-0.375,4.21875,-1.15625
1695840940436,0.03930664,-0.9834595,0.19476318,-2.546875,3.171875,-1.125
1695840940476,0.037841797,-0.9685669,0.18988037,-0.625,1.515625,-0.21875
1695840940516,0.041992188,-0.98272705,0.20013428,0.34375,1.171875,0.359375
1695840940556,0.04248047,-0.9937134,0.19744873,1.265625,2.671875,1.046875
1695840940596,0.049316406,-0.97369385,0.18865967,0.984375,1.828125,-0.84375
1695840940636,0.05493164,-0.9656372,0.19769287,3.6875,-0.578125,-0.84375
1695840940676,0.04321289,-0.98272705,0.18621826,6.921875,0.890625,1.375
1695840940716,0.04711914,-0.9780884,0.16326904,8.390625,1.0625,2.1875
1695840940756,0.05419922,-0.9939575,0.15423584,9.84375,1.8125,1.578125
1695840940796,0.036132812,-1.0046997,0.16400146,7.046875,0.453125,4.59375
1695840940836,0.038330078,-0.9849243,0.15814209,-0.25,-0.375,1.65625
1695840940876,0.06298828,-1.0020142,0.14910889,-1.796875,1.0625,-0.703125
1695840940916,0.06274414,-0.9990845,0.14788818,-0.796875,1.390625,-0.09375
1695840940956,0.056396484,-0.97979736,0.14276123,0.25,0.359375,-0.09375
1695840940996,0.043701172,-1.0056763,0.14984131,-0.484375,-0.046875,-0.515625
1695840941036,0.05517578,-0.9758911,0.14276123,-2.15625,0.09375,0.1875
1695840941076,0.06225586,-0.9800415,0.1383667,1.625,1.453125,0.1875
1695840941116,0.052978516,-0.9885864,0.14520264,3.03125,1.1875,0.53125
1695840941156,0.040039062,-1.0020142,0.16693115,0.921875,-0.53125,0.65625
1695840941196,0.042236328,-0.99102783,0.14202881,-1.96875,0.125,0.875
1695840941236,0.06323242,-0.9846802,0.13153076,-1.3125,0.90625,0.09375
1695840941276,0.05029297,-0.98760986,0.15057373,-0.078125,1.328125,-0.78125
1695840941316,0.04711914,-0.9898071,0.15814209,0.578125,1.109375,-0.0625
1695840941356,0.04248047,-0.9949341,0.14642334,0.734375,0.265625,0.890625
1695840941396,0.06665039,-0.99053955,0.14910889,-0.4375,1.65625,0.703125
1695840941436,0.05883789,-0.97735596,0.13812256,-1.328125,1.234375,-0.234375
1695840941476,0.043701172,-0.9898071,0.14715576,-0.8125,1.421875,0.296875
1695840941516,0.044433594,-0.99591064,0.15887451,1.515625,0.640625,0.9375
1695840941556,0.040039062,-0.9973755,0.15716553,0.375,0.046875,0.953125
1695840941596,0.06958008,-0.98760986,0.13421631,-0.25,1.6875,1.078125
1695840941636,0.06542969,-0.9800415,0.1359253,-1.703125,2.515625,-0.40625
1695840941676,0.06298828,-0.9944458,0.14276123,-1.03125,1.625,-1.453125
1695840941716,0.059570312,-0.9968872,0.14788818,0.0,2.265625,-0.859375
1695840941756,0.07006836,-0.98638916,0.15179443,2.515625,4.015625,-0.890625
1695840941796,0.042236328,-0.9927368,0.15740967,3.65625,2.0,0.25
1695840941836,0.03125,-0.9768677,0.15814209,-0.734375,-0.296875,1.25
1695840941876,0.06518555,-0.9871216,0.14593506,-1.3125,1.828125,0.484375
1695840941916,0.05810547,-0.9993286,0.14544678,0.140625,2.53125,-0.875
1695840941956,0.044433594,-0.98883057,0.1437378,-0.90625,0.765625,-0.359375
1695840941996,0.053710938,-0.9829712,0.13763428,-0.71875,0.96875,0.296875
1695840942036,0.055419922,-0.98272705,0.12567139,-0.1875,1.65625,0.203125
1695840942076,0.063964844,-0.9854126,0.13397217,2.28125,3.828125,-0.328125
1695840942116,0.05102539,-0.9920044,0.13885498,3.625,4.046875,0.015625
1695840942156,0.04248047,-0.9939575,0.15032959,2.4375,2.359375,-0.03125
1695840942196,0.040771484,-0.9871216,0.15081787,-0.03125,-0.671875,0.5625
1695840942236,0.05126953,-0.98931885,0.14520264,-3.28125,-0.234375,0.921875
1695840942276,0.061523438,-1.00177,0.12957764,-1.75,3.09375,-1.0
1695840942316,0.059570312,-0.986145,0.137146,0.78125,1.53125,-0.390625
1695840942356,0.041748047,-0.9944458,0.15252686,0.875,1.421875,1.296875
1695840942396,0.057128906,-0.9866333,0.13616943,-1.96875,1.46875,-0.0625
1695840942436,0.06591797,-0.9846802,0.1281128,-0.46875,2.265625,0.015625
1695840942476,0.05126953,-0.991272,0.13250732,0.5625,2.015625,0.578125
1695840942516,0.05053711,-0.9949341,0.1329956,-2.328125,0.8125,-0.578125
1695840942556,0.046142578,-0.9920044,0.14276123,-2.015625,2.640625,-0.921875
1695840942596,0.05053711,-0.9883423,0.14935303,-0.140625,4.046875,-0.21875
1695840942636,0.053710938,-0.9824829,0.15008545,-1.234375,3.921875,-0.953125
1695840942676,0.049072266,-0.9776001,0.168396,-3.453125,0.546875,-0.5
1695840942716,0.04663086,-0.98394775,0.14642334,-3.234375,1.046875,-0.234375
1695840942756,0.041992188,-1.0007935,0.14129639,0.0,1.65625,-0.75
1695840942796,0.057617188,-0.9690552,0.16473389,0.671875,-2.109375,0.015625
1695840942836,0.019042969,-0.9734497,0.16448975,-2.125,-6.28125,1.515625
1695840942876,0.044189453,-1.0005493,0.17230225,1.296875,2.140625,1.921875
1695840942916,0.072753906,-0.99884033,0.15594482,4.546875,3.53125,1.984375
1695840942956,0.061035156,-0.9800415,0.14129639,1.640625,-0.375,0.765625
1695840942996,0.026123047,-0.97662354,0.14276123,-0.625,-2.28125,0.625
1695840943036,0.04345703,-1.0007935,0.16473389,-3.8125,-2.03125,-0.234375
1695840943076,0.06274414,-0.9993286,0.16253662,-2.28125,1.421875,1.0
1695840943116,0.079833984,-1.0076294,0.13983154,-1.09375,3.984375,0.671875
1695840943156,0.057128906,-0.9998169,0.12640381,-3.296875,5.953125,-1.640625
1695840943196,0.045654297,-0.98321533,0.14935303,-0.234375,10.0,-4.078125
1695840943236,0.031982422,-0.97906494,0.16400146,5.578125,6.703125,-1.328125
1695840943276,0.042236328,-0.989563,0.15667725,1.15625,5.6875,-0.75
1695840943316,0.0637207,-0.9651489,0.14886475,-0.390625,3.4375,-2.484375
1695840943356,0.048095703,-0.9690552,0.1605835,0.109375,-0.328125,-0.046875
1695840943396,0.0056152344,-0.99420166,0.14886475,-0.734375,-1.890625,1.0
1695840943436,0.03881836,-1.0044556,0.15838623,-0.046875,-0.53125,-0.625
1695840943476,0.04638672,-0.9795532,0.1593628,1.53125,-1.0,0.453125
1695840943516,0.044189453,-0.98321533,0.14935303,3.609375,0.875,0.0625
1695840943556,0.040771484,-0.9729614,0.14031982,3.96875,-0.171875,0.359375
1695840943596,0.03540039,-0.9932251,0.13787842,4.046875,-1.671875,1.375
1695840943636,0.04248047,-0.9956665,0.1408081,0.984375,-0.828125,1.5
1695840943676,0.04638672,-1.0025024,0.13763428,-0.1875,-0.46875,1.171875
1695840943716,0.03173828,-0.9841919,0.1161499,-0.734375,-0.03125,0.1875
1695840943756,0.044433594,-0.9902954,0.13275146,0.46875,0.34375,0.34375
1695840943796,0.03930664,-0.9859009,0.13787842,0.828125,1.125,0.625
1695840943836,0.047851562,-0.99102783,0.1317749,0.5,0.234375,-0.28125
1695840943876,0.046875,-0.9795532,0.12322998,3.375,0.28125,0.875
1695840943916,0.05126953,-0.9729614,0.11834717,8.71875,0.734375,2.03125
1695840943956,0.05078125,-1.0127563,0.113708496,6.953125,0.640625,3.515625
1695840943996,0.037109375,-1.0012817,0.117126465,-0.578125,-1.078125,2.890625
1695840944036,0.045898438,-1.0010376,0.11468506,-1.484375,-0.03125,0.046875
1695840944076,0.05810547,-1.0073853,0.10809326,1.21875,1.90625,0.125
1695840944116,0.051513672,-0.991272,0.1071167,-2.15625,0.765625,0.375
1695840944156,0.045898438,-0.9924927,0.11175537,-0.953125,0.8125,-0.015625
1695840944196,0.03955078,-0.9846802,0.13519287,-1.578125,-0.03125,-0.0625
1695840944236,0.049072266,-0.99102783,0.11956787,-1.734375,1.015625,1.0
1695840944276,0.06323242,-0.9883423,0.09881592,-0.796875,1.640625,0.859375
1695840944316,0.059814453,-0.9968872,0.113220215,-0.546875,0.9375,-0.359375
1695840944356,0.056884766,-0.99468994,0.1161499,-1.34375,1.265625,0.109375
1695840944396,0.045410156,-0.98638916,0.12054443,-1.859375,-0.015625,-0.078125
1695840944436,0.04663086,-0.98883057,0.11907959,-0.46875,0.03125,0.140625
1695840944476,0.060302734,-0.9985962,0.117614746,0.03125,1.921875,0.390625
1695840944516,0.048828125,-0.9885864,0.11834717,-0.25,0.875,0.125
1695840944556,0.04711914,-0.989563,0.12591553,-0.34375,0.765625,-0.015625
1695840944596,0.059570312,-0.99005127,0.1239624,-0.0625,2.109375,0.359375
1695840944636,0.04638672,-0.9890747,0.12542725,-0.859375,0.9375,0.125
1695840944676,0.048583984,-1.0005493,0.117126465,-0.40625,1.140625,0.109375
1695840944716,0.05517578,-0.98687744,0.11785889,0.1875,1.4375,0.46875
1695840944756,0.06616211,-0.9783325,0.12445068,0.28125,2.75,0.546875
1695840944796,0.05126953,-0.9854126,0.1329956,0.5625,1.796875,-0.59375
1695840944836,0.030029297,-1.0037231,0.13690186,1.265625,0.453125,0.390625
1695840944876,0.043945312,-0.9866333,0.12420654,0.4375,0.671875,2.0625
1695840944916,0.07299805,-0.9846802,0.11834717,1.28125,3.296875,0.78125
1695840944956,0.05883789,-0.9898071,0.11102295,1.140625,1.921875,-0.46875
1695840944996,0.051513672,-0.97979736,0.11883545,-1.5,-0.796875,-0.375
1695840945036,0.055908203,-0.9963989,0.1227417,-0.328125,1.109375,0.484375
1695840945076,0.056396484,-1.0037231,0.11199951,1.3125,2.40625,0.53125
1695840945116,0.051513672,-0.991272,0.11077881,0.109375,1.5,0.140625
1695840945156,0.05444336,-0.9841919,0.1251831,0.625,1.375,0.171875
1695840945196,0.059326172,-0.9939575,0.12738037,-0.09375,1.1875,0.09375
1695840945236,0.05053711,-0.99176025,0.12322998,-1.140625,0.96875,-0.15625
1695840945276,0.05029297,-0.98028564,0.12176514,0.453125,1.734375,0.078125
1695840945316,0.06274414,-0.9939575,0.11834717,0.890625,2.203125,0.09375
1695840945356,0.059326172,-0.9898071,0.1149292,-1.53125,0.984375,0.453125
1695840945396,0.056884766,-0.9956665,0.116882324,0.171875,0.734375,0.21875
1695840945436,0.05126953,-0.9973755,0.12200928,0.734375,0.453125,0.296875
1695840945476,0.060302734,-0.9866333,0.11248779,-1.109375,0.0,0.015625
1695840945516,0.04321289,-0.9902954,0.11224365,-2.34375,-0.5,0.15625
1695840945556,0.044677734,-0.9973755,0.13787842,-5.828125,-1.453125,0.078125
1695840945596,0.039794922,-0.9885864,0.17449951,-10.46875,-2.984375,1.578125
1695840945636,0.024658203,-0.9763794,0.14324951,-14.265625,-4.59375,1.921875
1695840945676,0.11816406,-0.9907837,0.16864014,0.453125,-0.5625,0.3125
1695840945716,0.07373047,-1.0178833,0.14398193,7.5,0.8125,-1.953125
1695840945756,0.021728516,-0.9795532,0.13275146,-3.5,-3.375,0.671875
1695840945796,0.041259766,-0.9614868,0.18353271,-4.28125,-1.078125,0.796875
1695840945836,0.064941406,-0.9758911,0.19476318,1.5,0.59375,-0.21875
1695840945876,0.06713867,-1.0039673,0.15057373,-0.09375,-0.046875,2.0625
1695840945916,0.068359375,-0.9668579,0.13323975,-2.375,2.046875,0.953125
1695840945956,0.028808594,-0.9981079,0.16619873,0.875,0.796875,0.71875
1695840945996,0.06347656,-0.97320557,0.15545654,-1.078125,3.515625,0.484375
1695840946036,0.07373047,-0.98516846,0.15789795,0.265625,2.453125,-0.546875
1695840946076,0.07055664,-1.0032349,0.14886475,0.859375,5.359375,-1.359375
1695840946116,0.052490234,-0.9866333,0.15447998,0.53125,6.609375,-3.046875
1695840946156,0.043701172,-0.98516846,0.16815186,2.65625,6.640625,-1.3125
1695840946196,0.037353516,-0.9846802,0.15960693,1.625,6.265625,-0.625
1695840946236,0.059814453,-0.9939575,0.15008545,0.328125,5.515625,-0.703125
1695840946276,0.048095703,-0.9871216,0.15740967,1.09375,4.75,-0.546875
1695840946316,0.034423828,-0.99176025,0.17254639,2.8125,1.21875,0.03125
1695840946356,0.04638672,-0.97369385,0.13397217,0.296875,1.546875,0.28125
1695840946396,0.056640625,-0.97784424,0.1461792,2.546875,1.84375,-1.0
1695840946436,0.060302734,-0.99835205,0.14959717,5.765625,1.703125,-0.09375
1695840946476,0.037109375,-0.98101807,0.14031982,0.84375,-0.921875,2.375
1695840946516,0.05078125,-0.9998169,0.13494873,-0.40625,0.40625,1.078125
1695840946556,0.07495117,-0.9841919,0.1251831,1.234375,3.078125,-1.140625
1695840946596,0.05419922,-0.97662354,0.12664795,4.3125,2.015625,0.078125
1695840946636,0.049316406,-0.98638916,0.13323975,8.328125,1.640625,1.046875
1695840946676,0.042236328,-1.0171509,0.11883545,3.09375,-1.125,3.0625
1695840946716,0.057861328,-0.9990845,0.11273193,-0.78125,0.3125,1.015625
1695840946756,0.060302734,-0.9800415,0.11932373,1.875,1.265625,-0.1875
1695840946796,0.060546875,-0.99420166,0.10418701,0.1875,1.25,-0.328125
1695840946836,0.059326172,-0.9927368,0.11199951,0.65625,1.828125,-0.046875
1695840946876,0.05444336,-1.000061,0.101257324,1.859375,0.46875,0.171875
1695840946916,0.05444336,-0.9927368,0.109802246,1.765625,0.03125,0.6875
1695840946956,0.060791016,-0.9939575,0.09979248,2.25,1.703125,0.765625
1695840946996,0.063964844,-0.99102783,0.094177246,3.484375,1.625,0.59375
1695840947036,0.060058594,-0.9944458,0.09124756,3.703125,0.796875,1.265625
1695840947076,0.061035156,-0.9805298,0.08026123,4.921875,1.671875,1.046875
1695840947116,0.064697266,-0.9937134,0.081970215,6.453125,0.875,1.984375
1695840947156,0.052734375,-1.0178833,0.07220459,3.5625,1.78125,2.359375
1695840947196,0.056884766,-1.0020142,0.07952881,1.515625,0.375,1.046875
1695840947236,0.068603516,-1.0025024,0.074645996,-1.046875,1.59375,0.8125
1695840947276,0.08227539,-0.991272,0.06072998,-1.125,2.796875,0.234375
1695840947316,0.063964844,-0.99835205,0.06976318,-1.765625,1.6875,-1.53125
1695840947356,0.05810547,-0.9968872,0.08074951,-1.75,-0.265625,-1.28125
1695840947396,0.060302734,-0.9993286,0.08026123,-2.359375,0.46875,0.765625
1695840947436,0.087646484,-0.97247314,0.0692749,-3.09375,-0.0625,-0.28125
1695840947476,0.049560547,-0.99786377,0.08929443,-2.671875,-2.0625,-2.09375
1695840947516,0.04736328,-1.006897,0.10101318,-0.40625,0.3125,0.234375
1695840947556,0.064453125,-0.9932251,0.0927124,-1.375,2.0,0.5625
1695840947596,0.048583984,-0.9837036,0.08856201,-1.015625,0.1875,-1.453125
1695840947636,0.045410156,-0.9993286,0.09613037,0.609375,-0.359375,0.53125
1695840947676,0.057128906,-0.991272,0.09637451,-0.46875,1.515625,1.796875
1695840947716,0.0703125,-0.9829712,0.08270264,-0.078125,1.765625,0.453125
1695840947756,0.06298828,-0.991272,0.10247803,0.5625,-0.140625,-0.359375
1695840947796,0.05859375,-1.0027466,0.0993042,1.390625,-0.140625,0.953125
1695840947836,0.05908203,-1.0027466,0.09857178,2.765625,1.828125,1.265625
1695840947876,0.060791016,-1.0044556,0.07318115,-0.828125,0.6875,1.71875
1695840947916,0.06298828,-1.0134888,0.070251465,-0.703125,2.46875,-1.078125
1695840947956,0.061279297,-0.96417236,0.097839355,2.84375,1.546875,-0.171875
1695840947996,0.087402344,-0.9680786,0.06854248,1.984375,3.6875,1.8125
1695840948036,0.09057617,-0.9717407,0.04144287,-2.28125,0.015625,-1.046875
1695840948076,0.049804688,-1.0003052,0.06536865,0.40625,-0.671875,-1.546875
1695840948116,0.052734375,-1.0269165,0.09173584,4.671875,2.25,1.96875
1695840948156,0.06323242,-0.98150635,0.066101074,1.734375,4.078125,2.40625
1695840948196,0.060058594,-0.9702759,0.07513428,0.40625,3.171875,0.765625
1695840948236,0.0637207,-0.9902954,0.08782959,-0.796875,0.578125,-0.5625
1695840948276,0.048339844,-1.0186157,0.093688965,-3.046875,0.1875,0.421875
1695840948316,0.076416016,-0.99468994,0.078063965,-0.40625,2.125,0.71875
1695840948356,0.064453125,-0.99542236,0.06072998,2.015625,2.578125,0.421875
1695840948396,0.06616211,-0.9807739,0.06414795,1.140625,2.1875,-0.046875
1695840948436,0.061279297,-0.99468994,0.07562256,4.421875,1.84375,1.28125
1695840948476,0.08642578,-0.99102783,0.070495605,3.109375,2.515625,3.296875
1695840948516,0.087646484,-0.99884033,0.05218506,0.390625,1.28125,1.625
1695840948556,0.068603516,-0.9949341,0.05609131,-0.78125,0.21875,0.34375
1695840948596,0.072265625,-1.0095825,0.066833496,1.6875,1.875,1.015625
1695840948636,0.08520508,-0.99835205,0.05999756,0.96875,2.734375,0.65625
1695840948676,0.06616211,-0.99053955,0.047790527,-1.15625,0.828125,-0.234375
1695840948716,0.07763672,-1.0007935,0.06317139,-0.828125,1.484375,-0.59375
1695840948756,0.075683594,-0.98760986,0.07366943,0.84375,2.28125,0.296875
1695840948796,0.07885742,-0.9854126,0.04901123,-0.046875,2.1875,0.65625
1695840948836,0.07836914,-0.987854,0.053894043,-1.046875,1.0625,-0.375
1695840948876,0.0715332,-0.9976196,0.061462402,-0.75,0.5625,0.078125
1695840948916,0.08203125,-1.0049438,0.05340576,-0.703125,1.6875,-0.21875
1695840948956,0.080566406,-0.97857666,0.06536865,-1.125,0.890625,-0.6875
1695840948996,0.06591797,-0.9800415,0.085876465,0.671875,0.203125,-0.546875
1695840949036,0.060058594,-1.005188,0.08343506,-0.015625,-1.65625,0.515625
1695840949076,0.0703125,-1.0154419,0.05731201,-0.796875,0.03125,0.75
1695840949116,0.08569336,-0.9939575,0.04949951,-0.53125,0.1875,-1.046875
1695840949156,0.0637207,-0.9746704,0.06512451,0.46875,-1.15625,-1.53125
1695840949196,0.076416016,-0.97198486,0.06854248,-1.390625,0.703125,-0.875
1695840949236,0.06518555,-0.98150635,0.06536865,-5.828125,-2.078125,-1.234375
1695840949276,0.013183594,-1.024231,0.094177246,-7.203125,-2.8125,1.875
1695840949316,0.0769043,-1.0286255,0.11566162,-5.609375,1.421875,2.609375
1695840949356,0.088134766,-0.9829712,0.1149292,-11.140625,-6.828125,-0.484375
1695840949396,0.034179688,-0.94366455,0.15203857,-26.359375,-13.8125,0.46875
1695840949436,0.055419922,-0.9714966,0.16107178,-15.59375,-0.28125,-2.59375
1695840949476,0.15771484,-1.0484009,0.17279053,-0.84375,-1.5625,-2.734375
1695840949516,0.047851562,-0.99884033,0.17718506,-5.71875,-13.296875,5.015625
1695840949556,-0.08618164,-0.9480591,0.057556152,-2.9375,-1.171875,3.171875
1695840949596,0.20751953,-0.92144775,0.1720581,5.4375,8.640625,4.140625
1695840949636,0.09472656,-1.0496216,0.19744873,13.84375,4.1875,-2.34375
1695840949676,0.052246094,-0.9817505,0.14251709,1.234375,-2.40625,1.296875
1695840949716,0.05029297,-0.9378052,0.15179443,5.296875,0.234375,1.53125
1695840949756,0.07324219,-1.0149536,0.13665771,0.03125,3.6875,-1.984375
1695840949796,0.072265625,-0.9993286,0.13739014,0.5625,-1.359375,0.703125
1695840949836,0.078125,-0.9651489,0.1564331,5.34375,1.234375,0.6875
1695840949876,0.06591797,-1.0054321,0.14056396,-0.796875,2.734375,-0.109375
1695840949916,0.05883789,-0.9795532,0.13348389,-2.71875,0.078125,1.421875
1695840949956,0.0871582,-0.9746704,0.11932373,1.78125,-0.296875,1.765625
1695840949996,0.0949707,-0.9885864,0.13397217,-0.34375,1.65625,-0.09375
1695840950036,0.060302734,-0.9951782,0.15081787,-0.375,0.5,-0.5625
1695840950076,0.061035156,-0.98809814,0.13690186,-0.28125,-0.65625,0.5625
1695840950116,0.08227539,-0.98394775,0.12982178,-1.734375,2.125,0.265625
1695840950156,0.087646484,-0.99005127,0.10443115,-2.84375,2.515625,-1.234375
1695840950196,0.07421875,-0.9915161,0.14764404,-4.515625,1.515625,-1.375
1695840950236,0.052001953,-0.98223877,0.1749878,-0.609375,-0.109375,1.375
1695840950276,0.052978516,-0.97613525,0.14788818,3.921875,5.453125,2.125
1695840950316,0.087890625,-0.9998169,0.15301514,4.375,4.90625,-0.390625
1695840950356,0.095947266,-0.9883423,0.16888428,0.203125,1.546875,0.15625
1695840950396,0.061035156,-0.9702759,0.15179443,-0.828125,-0.84375,0.703125
1695840950436,0.07836914,-0.98809814,0.13934326,2.0625,1.625,0.828125
1695840950476,0.091308594,-0.991272,0.1239624,1.515625,2.109375,-0.53125
1695840950516,0.06689453,-0.9800415,0.13641357,1.859375,0.171875,-0.21875
1695840950556,0.076660156,-0.989563,0.13787842,2.0625,1.890625,0.921875
1695840950596,0.072509766,-0.9927368,0.13250732,-1.640625,1.546875,0.796875
1695840950636,0.08520508,-0.98883057,0.13543701,-3.4375,0.328125,0.203125
1695840950676,0.075927734,-0.987854,0.124938965,-3.25,1.265625,-0.140625
1695840950716,0.08276367,-0.9937134,0.13983154,-0.921875,2.21875,0.5
1695840950756,0.064208984,-0.9837036,0.14300537,0.9375,2.3125,0.53125
1695840950796,0.049072266,-0.97857666,0.13885498,3.171875,2.15625,1.453125
1695840950836,0.099609375,-0.99298096,0.13470459,0.59375,1.421875,1.515625
1695840950876,0.09375,-0.9824829,0.13372803,-2.328125,0.875,0.390625
1695840950916,0.08276367,-0.98565674,0.13616943,-0.21875,-0.5,-1.5
1695840950956,0.057617188,-0.9944458,0.13983154,1.75,2.015625,0.359375
1695840950996,0.084472656,-0.987854,0.14300537,-1.0,2.109375,1.578125
1695840951036,0.08959961,-0.9890747,0.13665771,-2.984375,2.125,0.734375
1695840951076,0.11743164,-0.9949341,0.13568115,-1.890625,2.046875,0.34375
1695840951116,0.06665039,-0.9619751,0.13909912,2.421875,2.734375,0.765625
1695840951156,0.06518555,-0.9714966,0.14520264,2.953125,2.109375,1.078125
1695840951196,0.08544922,-0.9998169,0.1593628,1.359375,1.609375,0.609375
1695840951236,0.08251953,-1.006897,0.12615967,0.625,0.859375,0.265625
1695840951276,0.084228516,-0.98101807,0.13909912,-0.421875,1.96875,0.078125
1695840951316,0.087646484,-0.9795532,0.14984131,-1.140625,0.375,-0.84375
1695840951356,0.061523438,-0.9817505,0.13665771,-3.03125,0.09375,0.703125
1695840951396,0.10498047,-0.9768677,0.12322998,0.9375,1.90625,0.234375
1695840951436,0.10424805,-1.0022583,0.1293335,3.296875,2.96875,0.6875
1695840951476,0.0859375,-0.9795532,0.13006592,-0.3125,-0.796875,0.203125
1695840951516,0.08886719,-0.9714966,0.124938965,-0.65625,-0.578125,0.265625
1695840951556,0.09033203,-0.98516846,0.13568115,-0.625,0.96875,0.734375
1695840951596,0.09008789,-1.0007935,0.13226318,0.140625,0.90625,0.140625
1695840951636,0.07470703,-0.98760986,0.1251831,1.140625,0.765625,-0.09375
1695840951676,0.076416016,-0.9829712,0.13641357,2.578125,0.75,0.046875
1695840951716,0.07714844,-1.00177,0.1437378,1.640625,1.96875,1.515625
1695840951756,0.092285156,-0.9819946,0.12640381,-2.21875,1.546875,0.03125
1695840951796,0.088134766,-0.9834595,0.12371826,-2.375,0.75,-0.5625
1695840951836,0.07836914,-0.99884033,0.13885498,-0.265625,1.015625,-0.375
1695840951876,0.0871582,-0.98760986,0.13543701,-0.765625,1.8125,1.03125
1695840951916,0.107666016,-0.97125244,0.11859131,-2.234375,1.171875,-0.703125
1695840951956,0.091308594,-0.9824829,0.14227295,0.65625,2.15625,-1.234375
1695840951996,0.080322266,-1.0020142,0.15716553,3.109375,2.578125,0.5
1695840952036,0.071777344,-0.9924927,0.13494873,-0.53125,-0.078125,1.25
1695840952076,0.07885742,-0.97052,0.113708496,-2.109375,1.4375,0.328125
1695840952116,0.08251953,-0.9812622,0.14398193,-0.265625,1.65625,-0.578125
1695840952156,0.09057617,-1.003479,0.13885498,-0.90625,1.390625,-0.40625
1695840952196,0.071777344,-0.9873657,0.1317749,-2.5625,0.46875,-0.609375
1695840952236,0.08300781,-0.986145,0.13006592,-1.171875,1.453125,0.21875
1695840952276,0.09667969,-0.98883057,0.14202881,0.765625,3.328125,-0.609375
1695840952316,0.080078125,-0.98638916,0.14544678,0.21875,1.0,-0.875
1695840952356,0.0769043,-0.98101807,0.14520264,-0.453125,1.15625,0.234375
1695840952396,0.08569336,-0.9817505,0.13006592,0.75,3.78125,0.296875
1695840952436,0.095458984,-0.9883423,0.13641357,3.5625,5.0,-0.859375
1695840952476,0.07763672,-0.99053955,0.1329956,5.765625,2.8125,-1.265625
1695840952516,0.057373047,-0.97198486,0.12420654,3.15625,1.859375,-0.140625
1695840952556,0.09033203,-0.9956665,0.1227417,0.46875,1.71875,0.90625
1695840952596,0.08544922,-0.9985962,0.10614014,-0.6875,1.296875,0.34375
1695840952636,0.07495117,-0.9824829,0.121520996,0.484375,-0.328125,-0.15625
1695840952676,0.06225586,-0.9902954,0.12030029,0.609375,1.625,0.21875
1695840952716,0.08227539,-0.9866333,0.124938965,-0.796875,3.34375,0.296875
1695840952756,0.072509766,-0.98638916,0.11590576,-0.40625,1.53125,-0.25
1695840952796,0.07788086,-1.0005493,0.11102295,-0.265625,2.75,-0.25
1695840952836,0.0949707,-1.003479,0.113708496,-1.03125,6.40625,-0.875
1695840952876,0.084472656,-0.9981079,0.11053467,1.96875,5.328125,-2.359375
1695840952916,0.067871094,-0.98883057,0.12445068,4.171875,3.6875,-0.640625
1695840952956,0.06982422,-0.96295166,0.12200928,0.359375,1.9375,0.78125
1695840952996,0.067871094,-0.99005127,0.113464355,-1.3125,-1.796875,-0.515625
1695840953036,0.08251953,-0.98809814,0.1161499,-1.71875,1.0,-0.34375
1695840953076,0.06665039,-0.9985962,0.1161499,1.125,0.484375,-0.40625
1695840953116,0.05883789,-0.9783325,0.11151123,-1.625,-1.125,0.125
1695840953156,0.064941406,-0.97613525,0.12542725,-3.640625,-3.578125,0.3125
1695840953196,0.055664062,-0.9859009,0.14129639,-3.859375,-1.046875,-0.03125
1695840953236,0.08959961,-1.0088501,0.16375732,-3.71875,1.1875,0.21875
1695840953276,0.07714844,-1.0029907,0.18450928,-14.546875,-7.71875,1.453125
1695840953316,0.028076172,-0.97125244,0.1918335,-28.8125,-19.828125,1.609375
1695840953356,0.013427734,-0.9673462,0.2267456,-22.53125,-16.578125,0.71875
1695840953396,0.1003418,-0.96661377,0.13372803,-6.125,1.875,0.515625
1695840953436,0.22241211,-0.99957275,0.17718506,7.734375,10.40625,2.4375
1695840953476,0.048339844,-0.99005127,0.25042725,18.0625,0.75,-0.140625
1695840953516,-0.0024414062,-0.97613525,0.20526123,4.765625,-4.09375,2.140625
1695840953556,0.043945312,-0.92803955,0.16815186,-1.78125,-0.484375,3.328125
1695840953596,0.15429688,-1.0005493,0.1798706,4.4375,5.09375,1.484375
1695840953636,0.08666992,-1.0147095,0.19622803,6.828125,1.484375,0.578125
1695840953676,0.032226562,-0.9793091,0.17449951,2.40625,-0.8125,0.09375
1695840953716,0.072265625,-0.9627075,0.1618042,-0.375,2.546875,0.484375
1695840953756,0.0925293,-0.9768677,0.15057373,0.515625,3.125,0.984375
1695840953796,0.076660156,-0.9898071,0.16888428,3.265625,-0.625,-0.015625
1695840953836,0.07788086,-0.9873657,0.17303467,0.453125,0.9375,-0.40625
1695840953876,0.083740234,-0.99224854,0.17474365,0.984375,2.34375,0.046875
1695840953916,0.07714844,-0.98223877,0.17254639,-0.96875,0.8125,0.453125
1695840953956,0.08496094,-0.9800415,0.14447021,-1.828125,0.984375,-0.140625
1695840953996,0.09814453,-0.9817505,0.17034912,-0.546875,1.984375,-0.359375
1695840954036,0.0769043,-0.989563,0.17840576,-0.078125,0.28125,-0.75
1695840954076,0.06616211,-0.98150635,0.18011475,-0.21875,0.96875,-0.015625
1695840954116,0.08300781,-0.97369385,0.17327881,-0.71875,2.25,0.515625
1695840954156,0.07763672,-0.99957275,0.16107178,-1.6875,2.8125,-0.171875
1695840954196,0.06982422,-0.9998169,0.17034912,-2.53125,5.84375,-0.65625
1695840954236,0.0769043,-0.99053955,0.184021,3.515625,7.546875,-1.171875
1695840954276,0.06347656,-0.9829712,0.16693115,-0.53125,3.5,-1.140625
1695840954316,0.052246094,-0.97320557,0.17303467,-1.765625,1.515625,-1.234375
1695840954356,0.064697266,-0.98443604,0.17327881,2.53125,3.40625,-0.40625
1695840954396,0.10180664,-0.98809814,0.16400146,0.796875,3.640625,-0.046875
1695840954436,0.08935547,-0.98883057,0.15594482,-1.09375,0.78125,-0.796875
1695840954476,0.057861328,-0.9805298,0.17376709,-0.515625,2.71875,-1.53125
1695840954516,0.07128906,-0.9834595,0.1954956,2.546875,2.046875,-0.5
1695840954556,0.059326172,-0.97369385,0.15911865,-1.765625,0.5625,0.625
1695840954596,0.0625,-0.98687744,0.1539917,-0.890625,3.828125,-0.53125
1695840954636,0.08886719,-1.0032349,0.17425537,5.1875,6.921875,-2.078125
1695840954676,0.05126953,-0.9927368,0.18011475,1.8125,2.0,-0.234375
1695840954716,0.03955078,-0.973938,0.1671753,-2.8125,-2.53125,1.609375
1695840954756,0.06958008,-0.9907837,0.15032959,-1.703125,3.671875,-0.28125
1695840954796,0.10571289,-0.9963989,0.14447021,-1.421875,4.75,-2.15625
1695840954836,0.05078125,-1.0020142,0.18109131,-2.171875,2.9375,-1.390625
1695840954876,0.034179688,-0.98321533,0.18695068,-1.421875,2.234375,-0.890625
1695840954916,0.05126953,-0.96343994,0.1605835,0.015625,2.03125,-0.75
1695840954956,0.09472656,-0.97442627,0.16571045,0.46875,-1.421875,0.625
1695840954996,0.061279297,-0.98638916,0.17034912,-0.15625,-1.109375,-0.515625
1695840955036,0.055908203,-0.9751587,0.17694092,-1.40625,-1.21875,-0.15625
1695840955076,0.060791016,-0.9417114,0.113708496,8.359375,-0.890625,0.25
1695840955116,0.10131836,-1.0249634,0.14227295,16.0,-1.015625,-1.953125
1695840955156,0.026855469,-1.0164185,0.17669678,6.3125,-4.609375,-1.140625
1695840955196,0.017089844,-0.987854,0.14984131,-3.25,0.75,2.59375
1695840955236,0.033447266,-0.944397,0.10467529,1.765625,2.5625,2.28125
1695840955276,0.083984375,-1.0261841,0.1239624,3.78125,0.03125,-1.3125
1695840955316,0.05078125,-1.0090942,0.14031982,-0.171875,-0.5625,1.28125
1695840955356,0.032226562,-0.98883057,0.13031006,-0.828125,-0.328125,2.078125
1695840955396,0.0625,-0.9727173,0.105407715,-2.453125,2.71875,0.90625
1695840955436,0.08691406,-1.0078735,0.13763428,1.0,3.03125,-0.859375
1695840955476,0.045410156,-0.99542236,0.124694824,1.125,0.46875,0.515625
1695840955516,0.037597656,-0.99664307,0.1317749,-0.703125,0.15625,0.59375
1695840955556,0.08300781,-0.954895,0.13812256,-1.3125,0.28125,0.078125
1695840955596,0.083496094,-1.0088501,0.13031006,0.546875,0.15625,-0.78125
1695840955636,0.06225586,-1.0029907,0.117126465,-2.25,0.453125,-0.390625
1695840955676,0.053955078,-0.97003174,0.13494873,1.046875,1.65625,0.484375
1695840955716,0.049560547,-0.99298096,0.13983154,5.34375,2.328125,1.640625
1695840955756,0.060791016,-1.0071411,0.12738037,3.25,2.3125,2.46875
1695840955796,0.06347656,-0.991272,0.11834717,2.28125,1.828125,1.625
1695840955836,0.053466797,-0.9866333,0.10101318,-0.0625,0.515625,0.140625
1695840955876,0.072265625,-0.99005127,0.11126709,-2.53125,2.078125,0.234375
1695840955916,0.072021484,-0.97369385,0.11395264,-1.84375,1.6875,-0.921875
1695840955956,0.048339844,-1.0164185,0.1239624,3.8125,0.78125,-0.5
1695840955996,0.05834961,-0.97198486,0.10296631,5.4375,2.1875,4.015625
1695840956036,0.08496094,-0.9956665,0.08758545,0.609375,3.0,3.109375
1695840956076,0.09033203,-0.9866333,0.10614014,-1.3125,1.203125,0.40625
1695840956116,0.08105469,-0.99224854,0.1083374,3.875,1.296875,-0.328125
1695840956156,0.07080078,-0.9819946,0.11273193,4.78125,2.546875,2.296875
1695840956196,0.068847656,-1.013977,0.097839355,5.234375,3.984375,3.609375
1695840956236,0.06933594,-0.98516846,0.08441162,-0.515625,0.609375,0.84375
1695840956276,0.08935547,-0.989563,0.0927124,-1.578125,-2.3125,-1.734375
1695840956316,0.092285156,-0.9951782,0.097839355,1.515625,2.5,1.140625
1695840956356,0.05834961,-0.98809814,0.08343506,-0.171875,2.265625,0.984375
1695840956396,0.075683594,-0.9951782,0.09832764,-1.8125,-0.53125,-0.671875
1695840956436,0.080322266,-0.9961548,0.11004639,-3.796875,-0.546875,0.359375
1695840956476,0.08862305,-0.9834595,0.10101318,-0.765625,1.90625,0.921875
1695840956516,0.072753906,-0.98687744,0.07733154,1.125,1.890625,-0.296875
1695840956556,0.072021484,-0.99176025,0.09124756,-1.5625,-0.6875,-0.109375
1695840956596,0.080322266,-0.9846802,0.105163574,-2.453125,-0.296875,0.546875
