timestamp,accel_x,accel_y,accel_z,gyro_x,gyro_y,gyro_z,ind
1695395375324,0.015136719,-0.94854736,0.2929077,4.078125,1.328125,0.953125,31
1695395375364,0.0048828125,-0.9522095,0.29022217,3.703125,0.25,0.84375,32
1695395375404,0.010009766,-0.96466064,0.2633667,1.359375,-0.28125,1.0,33
1695395375444,0.0056152344,-0.9573364,0.3048706,3.28125,0.390625,1.25,34
1695395375484,-0.0012207031,-0.9570923,0.27386475,0.703125,-0.28125,1.484375,35
1695395375524,-0.0063476562,-0.9487915,0.28729248,0.78125,1.5625,1.609375,36
1695395375564,0.021484375,-0.9468384,0.29437256,2.046875,1.328125,0.046875,37
1695395375604,0.017333984,-0.9463501,0.29144287,2.75,2.5,-1.0,38
1695395375644,0.024414062,-0.96539307,0.27557373,3.5,2.9375,-1.34375,39
1695395375684,0.024169922,-0.9578247,0.27703857,3.671875,1.671875,-0.03125,40
1695395375724,0.009277344,-0.9470825,0.25946045,1.25,0.71875,-0.09375,41
1695395375764,0.014160156,-0.9673462,0.276062,0.796875,0.953125,1.125,42
1695395375804,0.016601562,-0.9541626,0.27191162,0.484375,-0.234375,0.65625,43
1695395375844,0.016113281,-0.9456177,0.26531982,-0.5625,-0.796875,-0.046875,44
1695395375884,0.012207031,-0.96295166,0.26971436,0.0625,-0.59375,-0.5,45
1695395375924,0.014892578,-0.9558716,0.277771,-0.21875,-0.296875,-0.734375,46
1695395375964,0.009765625,-0.9522095,0.27337646,-0.140625,-0.71875,-0.953125,47
1695395376004,0.010009766,-0.956604,0.2592163,-1.375,-1.796875,-0.765625,48
1695395376044,0.005859375,-0.9614868,0.29071045,1.734375,0.390625,-0.359375,49
1695395376084,0.012939453,-0.9717407,0.25628662,-0.84375,-1.203125,-0.40625,50
1695395376124,0.0014648438,-0.96173096,0.2843628,-0.203125,-0.453125,-0.25,51
1695395376164,0.020019531,-0.9536743,0.27386475,-1.25,-2.265625,-0.859375,52
1695395376204,0.006591797,-0.95758057,0.27191162,-1.671875,-1.546875,-0.890625,53
1695395376244,0.0068359375,-0.9656372,0.2711792,-0.796875,-0.890625,-0.578125,54
1695395376284,0.013183594,-0.9585571,0.2789917,1.671875,0.3125,-0.046875,55
1695395376324,0.0041503906,-0.9612427,0.2616577,0.0625,0.34375,-0.921875,56
1695395376364,-0.00024414062,-0.9573364,0.2772827,0.015625,-0.203125,-0.4375,57
1695395376404,0.014160156,-0.96343994,0.27874756,0.5,0.375,-0.625,58
1695395376444,0.009765625,-0.94854736,0.27044678,-0.390625,-0.671875,-0.609375,59
1695395376484,0.010253906,-0.96295166,0.27386475,-0.84375,-1.375,-0.625,60
1695395376524,-0.0021972656,-0.95635986,0.27947998,-1.28125,-2.109375,-0.546875,61
1695395376564,-0.0024414062,-0.96051025,0.2892456,-1.046875,-1.21875,-0.5,62
1695395376604,0.01171875,-0.9470825,0.2802124,-1.640625,-2.453125,-0.453125,63
1695395376644,-0.0017089844,-0.9505005,0.27337646,-2.546875,-2.8125,-0.375,64
1695395376684,-0.0024414062,-0.9495239,0.30804443,1.46875,-1.609375,-0.4375,65
1695395376724,0.001953125,-0.95928955,0.276062,-3.0625,-3.40625,-0.84375,66
1695395376764,-0.028564453,-0.95391846,0.2994995,-1.46875,-2.53125,-0.203125,67
1695395376804,-0.016601562,-0.956604,0.30145264,0.25,0.546875,0.03125,68
1695395376844,-0.008544922,-0.94854736,0.29559326,-0.640625,-0.59375,0.8125,69
1695395376884,-0.010009766,-0.9561157,0.30804443,-1.171875,0.53125,1.15625,70
1695395376924,-0.0087890625,-0.9561157,0.31341553,0.109375,-0.296875,0.40625,71
1695395376964,-0.0063476562,-0.9483032,0.29119873,-1.84375,-0.8125,-0.46875,72
1695395377004,-0.0107421875,-0.9404907,0.31219482,-1.71875,-2.15625,-0.609375,73
1695395377044,-0.014404297,-0.9470825,0.3139038,-0.53125,-0.125,-0.765625,74
1695395377084,-0.0048828125,-0.9458618,0.29486084,-0.59375,-0.734375,-0.234375,75
1695395377124,-0.0061035156,-0.94317627,0.30291748,-0.875,-1.921875,0.25,76
1695395377164,-0.012207031,-0.9390259,0.307312,1.890625,0.203125,0.0625,77
1695395377204,0.0029296875,-0.942688,0.3048706,1.46875,2.390625,1.25,78
1695395377244,-0.001953125,-0.9480591,0.31976318,1.296875,1.0,1.875,79
1695395377284,-0.008300781,-0.9463501,0.31292725,-0.15625,0.421875,-0.046875,80
1695395377324,0.0063476562,-0.9517212,0.28997803,-1.578125,0.59375,-0.265625,81
1695395377364,0.017333984,-0.9312134,0.29071045,-1.796875,-0.140625,1.203125,82
1695395377404,-0.0078125,-0.9505005,0.32513428,2.6875,-0.46875,-0.046875,83
1695395377444,0.0056152344,-0.95977783,0.29534912,-0.78125,-0.640625,-0.234375,84
1695395377484,-0.009765625,-0.94366455,0.30413818,-0.75,-1.328125,-0.328125,85
1695395377524,-0.0026855469,-0.9500122,0.31170654,1.765625,0.171875,0.328125,86
1695395377564,0.0053710938,-0.94781494,0.30267334,-0.125,-1.078125,0.078125,87
1695395377604,-0.0043945312,-0.9487915,0.3131714,0.296875,-0.890625,0.078125,88
1695395377644,-0.008056641,-0.95025635,0.3163452,0.0,-0.515625,0.15625,89
1695395377684,-0.0034179688,-0.944397,0.31048584,-0.84375,-2.5,-0.3125,90
1695395377724,-0.0068359375,-0.9373169,0.31707764,-1.359375,-2.71875,-0.703125,91
1695395377764,-0.0107421875,-0.9487915,0.31463623,-0.421875,-1.078125,-0.40625,92
1695395377804,-0.012451172,-0.9468384,0.3163452,0.09375,-0.390625,0.0625,93
1695395377844,-0.011474609,-0.94366455,0.3053589,-0.796875,-2.4375,-0.421875,94
1695395377884,-0.010986328,-0.9402466,0.3143921,-1.09375,-3.28125,-1.265625,95
1695395377924,-0.015625,-0.95391846,0.3209839,-0.28125,-1.03125,-0.796875,96
1695395377964,-0.026123047,-0.9458618,0.31170654,-0.0625,-0.125,-0.078125,97
1695395378004,-0.017333984,-0.94415283,0.3163452,1.078125,-0.109375,0.0,98
1695395378044,-0.017578125,-0.9429321,0.32391357,0.4375,-0.015625,-0.15625,99
1695395378084,-0.009033203,-0.93170166,0.31976318,1.09375,-0.46875,0.03125,100
1695395378124,-0.022705078,-0.95391846,0.3060913,-0.640625,-1.0625,-0.15625,101
1695395378164,-0.016113281,-0.9446411,0.322937,2.265625,0.171875,-0.296875,102
1695395378204,-0.018554688,-0.93951416,0.29779053,-2.640625,-1.609375,-0.625,103
1695395378244,-0.020019531,-0.9380493,0.30926514,-0.484375,-1.5,-0.65625,104
1695395378284,-0.016845703,-0.9553833,0.31707764,1.03125,0.03125,0.15625,105
1695395378324,-0.022705078,-0.94000244,0.30804443,-0.140625,-0.859375,-0.1875,106
1695395378364,-0.020019531,-0.9463501,0.31585693,-0.078125,-0.59375,-0.109375,107
1695395378404,-0.020507812,-0.9483032,0.31732178,0.375,-0.265625,-0.03125,108
1695395378444,-0.018554688,-0.9390259,0.3065796,-0.71875,-1.84375,-0.296875,109
1695395378484,-0.022216797,-0.9373169,0.31732178,0.0,-1.90625,-0.390625,110
1695395378524,-0.021728516,-0.9495239,0.31585693,-0.125,-0.96875,-0.59375,111
1695395378564,-0.028076172,-0.94537354,0.3192749,0.921875,-0.8125,-0.109375,112
1695395378604,-0.045166016,-0.94610596,0.3234253,1.265625,-2.734375,-0.6875,113
1695395378644,-0.028564453,-0.9458618,0.31243896,-0.3125,-0.609375,-0.609375,114
1695395378684,-0.032958984,-0.94415283,0.3168335,0.34375,-0.375,-0.53125,115
1695395378724,-0.036376953,-0.94903564,0.3126831,0.140625,0.203125,-0.78125,116
1695395378764,-0.03125,-0.9536743,0.31488037,0.078125,0.359375,-1.09375,117
1695395378804,-0.02709961,-0.9522095,0.3156128,0.078125,0.609375,-0.984375,118
1695395378844,-0.029541016,-0.94537354,0.3126831,0.109375,0.96875,-0.625,119
1695395378884,-0.046875,-0.95806885,0.29852295,-0.296875,0.03125,-1.53125,151
1695395378924,-0.05517578,-0.9492798,0.29730225,0.203125,1.0,-0.671875,152
1695395378964,-0.055908203,-0.94244385,0.28607178,0.625,-0.046875,-0.78125,153
1695395379004,-0.047851562,-0.9522095,0.2929077,0.625,0.5625,-0.328125,154
1695395379044,-0.044433594,-0.9524536,0.30291748,1.046875,-0.828125,1.015625,155
1695395379084,-0.05053711,-0.944397,0.30462646,0.484375,-0.40625,0.75,156
1695395379124,-0.05810547,-0.94415283,0.29925537,1.21875,-0.21875,0.0625,157
1695395379164,-0.056396484,-0.9402466,0.29901123,0.9375,-0.640625,-0.46875,158
1695395379204,-0.049072266,-0.9546509,0.30218506,1.265625,0.0,0.453125,159
1695395379244,-0.055664062,-0.95440674,0.30462646,2.015625,-0.21875,1.359375,160
1695395379284,-0.052001953,-0.9456177,0.30682373,1.234375,0.75,1.546875,161
1695395379324,-0.049804688,-0.9607544,0.28240967,0.21875,-0.203125,0.75,162
1695395379364,-0.047607422,-0.95440674,0.30804443,2.671875,0.5,-0.390625,163
1695395379404,-0.03881836,-0.9619751,0.28289795,-0.359375,-0.5625,0.015625,164
1695395379444,-0.05834961,-0.9492798,0.29681396,0.3125,-0.03125,0.28125,165
1695395379484,-0.056152344,-0.95758057,0.29534912,0.171875,0.40625,-0.515625,166
1695395379524,-0.053955078,-0.95513916,0.29388428,-0.046875,1.546875,0.09375,167
1695395379564,-0.044189453,-0.9500122,0.28631592,-0.25,2.234375,-0.0625,168
1695395379604,-0.036376953,-0.94781494,0.2855835,0.046875,1.78125,0.40625,169
1695395379644,-0.03857422,-0.9619751,0.2897339,-0.953125,0.359375,0.75,170
1695395379684,-0.041503906,-0.95196533,0.28875732,-1.59375,-0.234375,0.421875,171
1695395379724,-0.044189453,-0.9505005,0.29901123,-1.953125,-0.640625,0.59375,172
1695395379764,-0.044921875,-0.9480591,0.29534912,-1.046875,-1.015625,0.234375,173
1695395379804,-0.03881836,-0.9500122,0.29656982,-1.515625,-0.828125,0.015625,174
1695395379844,-0.045166016,-0.9500122,0.30511475,-1.140625,-1.859375,-0.078125,175
1695395379884,-0.05078125,-0.9536743,0.30316162,-1.09375,-1.765625,-0.109375,176
1695395379924,-0.046875,-0.94122314,0.2975464,-1.359375,-1.25,-0.21875,177
1695395379964,-0.040283203,-0.9468384,0.29901123,-0.390625,-0.65625,1.015625,178
1695395380004,-0.03857422,-0.9512329,0.31048584,0.234375,0.09375,0.484375,179
1695395380044,-0.046875,-0.9590454,0.31072998,-1.109375,0.640625,0.484375,180
1695395380084,-0.041015625,-0.9451294,0.31341553,1.390625,0.609375,0.625,181
1695395380124,-0.04663086,-0.95318604,0.31365967,-0.140625,1.0625,0.078125,182
1695395380164,-0.037109375,-0.9495239,0.31756592,0.515625,1.390625,-1.140625,183
1695395380204,-0.040771484,-0.94415283,0.30462646,-1.84375,0.4375,-0.8125,184
1695395380244,-0.047607422,-0.94537354,0.30950928,0.90625,2.125,-0.3125,185
1695395380284,-0.043701172,-0.9541626,0.307312,0.21875,2.921875,0.34375,186
1695395380324,-0.032226562,-0.9483032,0.30218506,-0.328125,2.296875,-0.109375,187
1695395380364,-0.03515625,-0.9480591,0.30413818,0.375,2.875,1.171875,188
1695395380404,-0.03173828,-0.9524536,0.31854248,1.359375,2.828125,1.21875,189
1695395380444,-0.022460938,-0.94610596,0.29901123,-0.40625,2.6875,0.140625,190
1695395380484,-0.02734375,-0.9468384,0.29510498,-0.203125,1.953125,0.90625,191
1695395380524,-0.03125,-0.944397,0.31292725,1.34375,0.765625,0.59375,192
1695395380564,-0.029785156,-0.94976807,0.31243896,0.5,0.75,0.25,193
1695395380604,-0.03540039,-0.9517212,0.30169678,0.09375,0.34375,0.03125,194
1695395380644,-0.03125,-0.9512329,0.30267334,0.125,0.0,-0.3125,195
1695395380684,-0.022216797,-0.95269775,0.3114624,0.953125,0.875,-0.375,196
1695395380724,-0.030761719,-0.9480591,0.324646,0.015625,0.734375,0.375,197
1695395380764,-0.03100586,-0.94610596,0.29534912,-0.4375,0.609375,-0.03125,198
1695395380804,-0.014160156,-0.95880127,0.30975342,1.78125,1.46875,0.796875,199
1695395380844,-0.021972656,-0.94976807,0.32489014,2.234375,1.46875,0.671875,200
1695395380884,-0.016113281,-0.95513916,0.3007202,0.546875,2.984375,0.359375,201
1695395380924,-0.025390625,-0.9458618,0.2909546,0.921875,1.765625,1.171875,202
1695395380964,-0.020751953,-0.9475708,0.31536865,2.4375,2.015625,0.53125,203
1695395381004,-0.018310547,-0.9480591,0.29193115,-0.28125,1.46875,0.40625,204
1695395381044,-0.021972656,-0.9451294,0.29974365,0.609375,1.421875,0.609375,205
1695395381084,-0.005126953,-0.9536743,0.29925537,1.5,1.375,0.4375,206
1695395381124,-0.020751953,-0.95318604,0.30169678,1.75,0.828125,0.40625,207
1695395381164,-0.015625,-0.94610596,0.29656982,0.453125,1.8125,-0.125,208
1695395381204,-0.029296875,-0.9561157,0.30218506,1.25,3.34375,0.1875,209
1695395381244,-0.017333984,-0.95562744,0.28851318,0.125,2.078125,-0.765625,210
1695395381284,-0.009765625,-0.9468384,0.28070068,0.078125,1.203125,-0.8125,211
1695395381324,-0.0087890625,-0.94610596,0.28900146,-0.15625,-0.046875,-0.015625,212
1695395381364,-0.016845703,-0.9500122,0.30218506,0.078125,-1.0,-0.203125,213
1695395381404,-0.0087890625,-0.9495239,0.2987671,-0.0625,-1.59375,-1.015625,214
1695395381444,-0.021972656,-0.9512329,0.30560303,0.1875,-3.078125,-1.15625,215
1695395381484,-0.029541016,-0.9414673,0.31072998,-0.828125,-2.171875,-1.484375,216
1695395381524,-0.032470703,-0.94073486,0.30462646,-1.46875,0.078125,-1.8125,217
1695395381564,-0.02758789,-0.944397,0.2897339,-2.03125,-0.890625,-0.34375,218
1695395381604,-0.03564453,-0.94244385,0.31829834,1.171875,0.84375,0.96875,219
1695395381644,-0.021972656,-0.9505005,0.29510498,0.703125,-1.1875,-0.0625,220
1695395381684,-0.029296875,-0.94415283,0.29925537,-0.4375,-0.984375,-0.078125,221
1695395381724,-0.032714844,-0.956604,0.31048584,-0.359375,-0.421875,-0.375,222
1695395381764,-0.028564453,-0.94195557,0.3143921,-0.171875,0.4375,-0.484375,223
1695395381804,-0.017822266,-0.9541626,0.30096436,0.265625,1.015625,0.234375,224
1695395381844,-0.031982422,-0.94903564,0.31048584,0.59375,0.59375,0.078125,225
1695395381884,-0.020751953,-0.9495239,0.2999878,0.921875,0.640625,-0.65625,226
1695395381924,-0.022705078,-0.944397,0.3007202,0.484375,1.03125,-0.421875,227
1695395381964,-0.026367188,-0.94854736,0.30316162,0.515625,1.15625,-0.328125,228
1695395382004,-0.024169922,-0.94610596,0.3085327,1.15625,1.765625,0.109375,229
1695395382044,-0.024414062,-0.9434204,0.30291748,1.71875,2.71875,0.390625,230
1695395382084,-0.02709961,-0.9534302,0.28240967,1.65625,1.78125,0.640625,231
1695395382124,-0.010253906,-0.93829346,0.2970581,0.796875,0.921875,0.3125,232
1695395382164,0.0043945312,-0.9546509,0.2909546,0.21875,1.84375,-0.296875,233
1695395382204,-0.02368164,-0.95977783,0.29241943,-1.390625,0.921875,0.46875,234
1695395382244,-0.018554688,-0.9595337,0.3065796,0.828125,1.796875,-0.046875,235
1695395382284,-0.0078125,-0.94488525,0.2904663,-0.25,1.046875,0.34375,236
1695395382324,-0.009033203,-0.9487915,0.30096436,0.09375,0.84375,0.5625,237
1695395382364,-0.014404297,-0.9522095,0.2921753,-0.015625,-0.03125,0.1875,238
1695395382404,-0.0107421875,-0.9541626,0.29974365,0.984375,0.390625,0.328125,239
1695395382444,-0.015625,-0.9487915,0.2975464,-0.40625,-0.578125,-0.125,240
1695395382484,-0.018798828,-0.95147705,0.3036499,0.9375,0.65625,0.46875,241
1695395382524,-0.018066406,-0.95269775,0.30194092,1.125,0.0,0.390625,242
1695395382564,-0.019042969,-0.9475708,0.29803467,1.15625,0.515625,0.171875,243
1695395382604,-0.018798828,-0.9558716,0.29437256,0.859375,0.078125,-0.015625,244
1695395382644,-0.01928711,-0.9487915,0.29486084,1.15625,0.515625,0.015625,245
1695395382684,-0.0075683594,-0.944397,0.2880249,0.734375,0.3125,-0.4375,246
1695395382724,-0.014160156,-0.9639282,0.28900146,1.40625,0.84375,-0.09375,247
1695395382764,-0.010986328,-0.944397,0.2999878,1.8125,-0.171875,-0.46875,248
1695395382804,-0.009765625,-0.96710205,0.29559326,1.53125,1.25,-0.75,249
1695395382844,-0.016601562,-0.940979,0.2753296,-1.625,-1.40625,-1.140625,250
1695395382884,-0.013916016,-0.95635986,0.2970581,0.546875,1.46875,-0.203125,251
1695395382924,0.0073242188,-0.9570923,0.28485107,-0.84375,0.375,-0.546875,252
1695395382964,-0.0068359375,-0.9495239,0.28118896,-1.578125,0.15625,-0.03125,253
1695395383004,-0.0056152344,-0.95025635,0.29925537,-1.796875,-1.40625,-0.703125,254
1695395383044,0.0009765625,-0.9429321,0.28656006,-2.625,-2.203125,-0.5,255
1695395383084,-0.010986328,-0.9299927,0.2904663,-3.59375,-6.484375,-0.234375,256
1695395383124,-0.017822266,-0.94903564,0.30926514,-0.484375,-2.578125,1.171875,257
1695395383164,-0.021484375,-0.9534302,0.31610107,0.515625,-3.375,0.390625,258
1695395383204,-0.03564453,-0.95025635,0.3204956,1.015625,-5.046875,1.609375,259
1695395383244,-0.033691406,-0.94073486,0.2975464,-0.703125,-5.140625,1.859375,260
1695395383284,-0.017089844,-0.94244385,0.3114624,-0.15625,-4.296875,1.40625,261
1695395383324,-0.032470703,-0.95440674,0.3258667,-0.703125,-3.375,2.390625,262
1695395383364,-0.068603516,-0.97491455,0.32928467,1.765625,-4.59375,-0.15625,263
1695395383404,-0.041015625,-0.95513916,0.33807373,1.859375,-2.328125,0.9375,264
1695395383444,-0.029296875,-0.95318604,0.32366943,0.796875,-0.140625,0.109375,265
1695395383484,-0.03100586,-0.9365845,0.31829834,1.375,0.484375,0.46875,266
1695395383524,-0.022460938,-0.9624634,0.2921753,-0.296875,0.375,-0.265625,267
1695395383564,-0.0234375,-0.9446411,0.33758545,2.875,2.140625,-1.203125,268
1695395383604,-0.032470703,-0.9570923,0.29412842,-1.9375,-0.09375,-1.890625,269
1695395383644,-0.035888672,-0.94537354,0.3114624,0.125,-0.03125,-2.015625,270
1695395383684,-0.020263672,-0.95806885,0.32855225,1.8125,2.234375,-1.40625,271
1695395383724,-0.025634766,-0.9446411,0.30145264,0.71875,2.0625,-1.0,272
1695395383764,-0.026611328,-0.9517212,0.30633545,0.5625,0.328125,-1.734375,273
1695395383804,-0.020751953,-0.9614868,0.31243896,1.34375,1.734375,-1.296875,274
1695395383844,-0.020751953,-0.94195557,0.2994995,-0.265625,-0.296875,-1.890625,275
1695395383884,-0.026367188,-0.9483032,0.30316162,-0.046875,-0.203125,-2.15625,276
1695395383924,-0.039794922,-0.942688,0.31292725,-0.203125,-0.296875,-1.671875,277
1695395383964,-0.028564453,-0.94903564,0.30462646,0.90625,-0.359375,-1.0625,278
1695395384004,-0.037841797,-0.9487915,0.3053589,0.234375,-0.34375,-0.5625,279
1695395384044,-0.04638672,-0.95440674,0.309021,0.03125,-0.296875,-1.53125,280
1695395384084,-0.03466797,-0.9483032,0.30413818,0.40625,0.34375,-1.65625,281
1695395384124,-0.03930664,-0.93878174,0.30633545,0.5625,0.15625,-0.421875,282
1695395384164,-0.04296875,-0.9429321,0.30023193,0.171875,0.09375,-0.703125,283
1695395384204,-0.049560547,-0.95684814,0.30804443,0.140625,0.1875,-1.171875,284
1695395384244,-0.04638672,-0.95098877,0.30560303,-0.5,1.0625,-1.328125,285
1695395384284,-0.033691406,-0.9458618,0.29608154,0.0,1.140625,-0.546875,286
1695395384324,-0.044921875,-0.9522095,0.3048706,0.390625,-0.53125,-0.6875,287
1695395384364,-0.053710938,-0.9492798,0.30389404,-0.125,0.1875,-0.765625,288
1695395384404,-0.06347656,-0.94073486,0.30438232,0.75,0.5,-1.25,289
1695395384444,-0.052978516,-0.9534302,0.29510498,-0.859375,0.828125,-1.96875,290
1695395384484,-0.04736328,-0.9505005,0.31243896,1.328125,2.5,-1.03125,291
1695395384524,-0.057373047,-0.93927,0.27874756,-2.34375,0.25,-0.765625,292
1695395384564,-0.057617188,-0.9512329,0.29656982,1.0,0.328125,-1.078125,293
1695395384604,-0.052978516,-0.958313,0.3024292,-0.09375,0.984375,-0.75,294
1695395384644,-0.0625,-0.9417114,0.29022217,-0.046875,0.515625,-1.21875,295
1695395384684,-0.057128906,-0.95562744,0.29193115,0.03125,0.359375,-1.109375,296
1695395384724,-0.056152344,-0.9561157,0.2982788,0.609375,0.734375,-0.6875,297
1695395384764,-0.064208984,-0.9451294,0.29730225,0.78125,0.015625,-0.40625,298
1695395384804,-0.0637207,-0.9483032,0.28167725,3.0625,0.359375,-0.546875,299
1695395384844,-0.06347656,-0.9512329,0.3024292,2.109375,1.09375,0.3125,300
1695395384884,-0.059814453,-0.95977783,0.293396,1.375,0.359375,0.25,301
1695395384924,-0.056396484,-0.9505005,0.2929077,1.3125,0.421875,-0.4375,302
1695395384964,-0.06567383,-0.94488525,0.29608154,0.78125,0.375,0.046875,303
1695395385004,-0.072021484,-0.9492798,0.29632568,0.359375,0.59375,0.078125,304
1695395385044,-0.0637207,-0.95318604,0.30023193,1.078125,2.1875,-0.15625,305
1695395385084,-0.055908203,-0.95635986,0.2982788,1.828125,2.4375,0.3125,306
1695395385124,-0.05053711,-0.9446411,0.29510498,0.3125,3.40625,0.375,307
1695395385164,-0.05078125,-0.9495239,0.27191162,0.65625,2.859375,0.421875,308
1695395385204,-0.03491211,-0.9492798,0.28851318,2.1875,1.90625,-0.15625,309
1695395385244,-0.033203125,-0.95391846,0.29437256,2.140625,1.703125,0.921875,310
1695395385284,-0.044189453,-0.96051025,0.28631592,5.5625,1.0625,1.875,311
1695395385324,-0.0390625,-0.94854736,0.28851318,2.78125,0.953125,0.921875,312
1695395385364,-0.048583984,-0.96099854,0.28338623,0.453125,0.25,0.125,313
1695395385404,-0.04663086,-0.9446411,0.29364014,2.15625,0.6875,-0.125,314
1695395385444,-0.0390625,-0.9595337,0.2682495,0.375,1.046875,-0.265625,315
1695395385484,-0.049560547,-0.94659424,0.28094482,0.21875,-0.203125,-0.765625,316
1695395385524,-0.037109375,-0.9536743,0.28704834,-0.5,0.34375,-1.671875,317
1695395385564,-0.04321289,-0.9585571,0.2802124,-1.328125,0.046875,-0.46875,318
1695395385604,-0.048828125,-0.960022,0.28289795,-1.671875,0.203125,-0.671875,319
1695395385644,-0.04272461,-0.9661255,0.2868042,-1.4375,0.609375,-0.046875,320
1695395385684,-0.051513672,-0.94659424,0.29022217,-1.03125,0.59375,-0.125,321
1695395385724,-0.045898438,-0.9470825,0.27825928,-0.546875,0.5,-1.078125,322
1695395385764,-0.040283203,-0.94976807,0.28753662,-0.5625,0.375,-0.875,323
1695395385804,-0.04711914,-0.9558716,0.2819214,-1.078125,-0.390625,-0.3125,324
1695395385844,-0.046142578,-0.9492798,0.28070068,-0.078125,-0.484375,-0.078125,325
1695395385884,-0.048095703,-0.9517212,0.29364014,0.25,-0.828125,0.125,326
1695395385924,-0.045166016,-0.9546509,0.2921753,0.34375,-1.09375,-0.15625,327
1695395385964,-0.060791016,-0.9463501,0.29071045,0.3125,-0.984375,0.0,328
1695395386004,-0.060058594,-0.95196533,0.29437256,0.40625,-0.15625,0.390625,329
1695395386044,-0.05517578,-0.95880127,0.2946167,-0.5,-0.203125,0.34375,330
1695395386084,-0.053955078,-0.95147705,0.29656982,-0.90625,0.21875,-0.09375,331
1695395386124,-0.055908203,-0.9380493,0.2843628,-0.234375,0.28125,0.1875,332
1695395386164,-0.048095703,-0.95318604,0.30194092,-0.328125,0.421875,-0.3125,333
1695395386204,-0.05078125,-0.94903564,0.3024292,-0.65625,0.171875,-0.15625,334
1695395386244,-0.061035156,-0.95147705,0.29730225,-1.390625,-0.203125,-0.421875,335
1695395386284,-0.05102539,-0.9421997,0.30267334,-1.59375,-0.390625,-0.671875,336
1695395386324,-0.049804688,-0.9529419,0.31121826,-0.328125,0.140625,-0.765625,337
1695395386364,-0.051513672,-0.94415283,0.28582764,-2.90625,-1.1875,-0.890625,338
1695395386404,-0.06542969,-0.95025635,0.31365967,-1.390625,-0.796875,-0.46875,339
1695395386444,-0.060302734,-0.94976807,0.309021,-1.453125,0.046875,-0.453125,340
1695395386484,-0.06689453,-0.942688,0.30169678,1.59375,-0.71875,1.171875,341
1695395386524,-0.067871094,-0.96099854,0.31488037,2.46875,1.015625,1.109375,342
1695395386564,-0.037841797,-0.9360962,0.31292725,-0.734375,3.359375,0.96875,343
1695395386604,-0.04272461,-0.95318604,0.30462646,0.9375,1.140625,2.390625,344
1695395386644,-0.052734375,-0.9451294,0.30438232,0.96875,2.15625,-0.125,345
1695395386684,-0.043701172,-0.95196533,0.30047607,0.984375,1.5625,0.1875,346
1695395386724,-0.04345703,-0.95684814,0.30950928,0.3125,1.046875,0.25,347
1695395386764,-0.04296875,-0.9451294,0.3024292,0.421875,0.84375,-0.21875,348
1695395386804,-0.037109375,-0.94244385,0.29901123,-1.015625,0.765625,-0.078125,349
1695395386844,-0.041992188,-0.9480591,0.30877686,-0.390625,0.21875,-0.46875,350
1695395386884,-0.047851562,-0.95196533,0.30828857,0.578125,1.109375,-0.359375,351
1695395386924,-0.04272461,-0.95098877,0.31219482,0.25,1.40625,1.15625,352
1695395386964,-0.049316406,-0.94781494,0.31195068,0.28125,1.984375,1.265625,353
1695395387004,-0.035888672,-0.9458618,0.29730225,0.5625,2.234375,0.9375,354
1695395387044,-0.030029297,-0.95098877,0.31463623,1.28125,2.078125,1.21875,355
1695395387084,-0.03881836,-0.94415283,0.30682373,-0.015625,1.40625,0.984375,356
1695395387124,-0.02758789,-0.9480591,0.28729248,0.390625,0.390625,0.0625,357
1695395387164,-0.028564453,-0.94854736,0.3139038,3.078125,1.171875,-0.0625,358
1695395387204,-0.029785156,-0.9492798,0.29803467,0.84375,0.5,-0.375,359
1695395387244,-0.041992188,-0.9500122,0.30023193,1.046875,-0.15625,0.3125,360
1695395387284,-0.03955078,-0.95391846,0.31048584,1.5,2.03125,-0.328125,361
1695395387324,-0.03100586,-0.95196533,0.2921753,-1.015625,1.171875,0.390625,362
1695395387364,-0.030761719,-0.9517212,0.29486084,0.65625,1.671875,-0.015625,363
1695395387404,-0.02734375,-0.95440674,0.29656982,-0.28125,1.953125,-0.4375,364
1695395387444,-0.022949219,-0.9546509,0.2999878,0.703125,1.125,-0.4375,365
1695395387484,-0.025634766,-0.9512329,0.2982788,1.0625,1.984375,-0.8125,366
1695395387524,-0.018798828,-0.942688,0.29437256,0.921875,1.9375,0.171875,367
1695395387564,-0.026367188,-0.9500122,0.29534912,1.0625,0.703125,0.046875,368
1695395387604,-0.025634766,-0.95098877,0.29266357,1.234375,0.734375,0.484375,369
1695395387644,-0.033691406,-0.95635986,0.28826904,1.609375,0.640625,0.40625,370
1695395387684,-0.030029297,-0.9541626,0.28875732,1.40625,0.890625,0.234375,371
1695395387724,-0.02709961,-0.94976807,0.2892456,0.875,0.390625,0.640625,372
1695395387764,-0.032958984,-0.9492798,0.28900146,0.671875,0.125,0.359375,373
1695395387804,-0.03100586,-0.95196533,0.28900146,0.53125,1.109375,0.5,374
1695395387844,-0.014160156,-0.956604,0.2929077,1.109375,0.546875,0.203125,375
1695395387884,-0.01977539,-0.9505005,0.2880249,0.484375,-0.40625,-0.171875,376
1695395387924,-0.012939453,-0.94854736,0.29803467,-1.9375,-0.890625,-1.90625,377
1695395387964,-0.03125,-0.95196533,0.2909546,-4.65625,-1.984375,-1.734375,378
1695395388004,-0.029052734,-0.9487915,0.3012085,-0.796875,0.6875,-0.953125,379
1695395388044,-0.0234375,-0.95513916,0.28778076,-0.421875,0.046875,-0.25,380
1695395388084,-0.033935547,-0.9417114,0.29437256,-0.3125,0.46875,-0.03125,381
1695395388124,-0.024658203,-0.95806885,0.30462646,0.765625,1.0,0.3125,382
1695395388164,-0.030273438,-0.9522095,0.30511475,1.078125,0.59375,-0.125,383
1695395388204,-0.026123047,-0.9524536,0.29901123,0.03125,0.359375,-0.4375,384
1695395388244,-0.03540039,-0.95684814,0.30047607,-0.140625,0.21875,-0.40625,385
1695395388284,-0.022460938,-0.9439087,0.29364014,-0.25,0.640625,-0.0625,386
1695395388324,-0.033447266,-0.94903564,0.2958374,0.28125,0.515625,0.65625,387
1695395388364,-0.025390625,-0.9451294,0.2994995,0.4375,1.015625,0.515625,388
1695395388404,-0.030761719,-0.94976807,0.30194092,0.75,0.671875,0.796875,389
1695395388444,-0.03540039,-0.9446411,0.29388428,0.625,0.109375,0.453125,390
1695395388484,-0.034179688,-0.95318604,0.2999878,0.453125,0.515625,0.3125,391
1695395388524,-0.02758789,-0.9590454,0.30023193,0.515625,0.78125,-0.09375,392
1695395388564,-0.021484375,-0.9373169,0.30584717,0.328125,0.671875,-0.046875,393
1695395388604,-0.014404297,-0.94854736,0.30340576,0.859375,1.3125,-0.59375,394
1695395388644,-0.025146484,-0.95147705,0.28753662,-2.0625,-0.3125,-0.484375,395
1695395388684,-0.024902344,-0.94903564,0.31170654,0.015625,0.578125,-0.1875,396
1695395388724,-0.020751953,-0.9505005,0.293396,-0.296875,-0.140625,-0.53125,397
1695395388764,-0.030273438,-0.9483032,0.30413818,-0.296875,0.15625,-0.25,398
1695395388804,-0.026123047,-0.95318604,0.30438232,-0.125,-0.390625,-0.609375,399
1695395388844,-0.024902344,-0.9500122,0.3060913,1.015625,-0.03125,-0.15625,400
1695395388884,-0.030273438,-0.9480591,0.30145264,0.359375,-0.375,-0.625,401
1695395388924,-0.033935547,-0.942688,0.30804443,0.265625,-0.359375,-0.578125,402
1695395388964,-0.024902344,-0.9475708,0.30706787,0.328125,-0.75,-0.828125,403
1695395389004,-0.03491211,-0.94244385,0.3012085,0.15625,0.0,-0.390625,404
1695395389044,-0.03955078,-0.9470825,0.2987671,0.09375,0.390625,-0.203125,405
1695395389084,-0.036132812,-0.95196533,0.30291748,1.40625,0.734375,0.46875,406
1695395389124,-0.03125,-0.94415283,0.30389404,1.3125,0.875,0.359375,407
1695395389164,-0.032714844,-0.9522095,0.29852295,0.484375,1.109375,0.203125,408
1695395389204,-0.027832031,-0.9570923,0.2748413,-0.1875,1.171875,-0.21875,409
1695395389244,-0.024902344,-0.94195557,0.30218506,3.828125,0.96875,0.28125,410
1695395389284,-0.021972656,-0.9663696,0.2868042,1.390625,1.390625,0.390625,411
1695395389324,-0.03881836,-0.9507446,0.29315186,0.53125,0.21875,0.265625,412
1695395389364,-0.026123047,-0.9578247,0.30413818,1.65625,1.703125,0.171875,413
1695395389404,-0.02368164,-0.94903564,0.2826538,-0.34375,0.390625,0.3125,414
1695395389444,-0.018310547,-0.9517212,0.291687,0.5625,0.75,0.375,415
1695395389484,-0.021972656,-0.9483032,0.2868042,0.40625,0.359375,-0.15625,416
1695395389524,-0.022216797,-0.956604,0.28460693,0.890625,-0.15625,0.03125,417
1695395389564,-0.016113281,-0.9505005,0.293396,0.171875,-1.109375,-0.578125,418
1695395389604,-0.029785156,-0.95196533,0.29803467,0.5,-0.09375,-0.375,419
1695395389644,-0.020996094,-0.9553833,0.2929077,0.34375,-0.0625,0.0,420
1695395389684,-0.028564453,-0.94976807,0.29559326,0.375,0.21875,0.15625,421
1695395389724,-0.020507812,-0.9500122,0.29266357,0.234375,0.421875,0.328125,422
1695395389764,-0.02709961,-0.9612427,0.29632568,0.21875,0.1875,0.078125,423
1695395389804,-0.025634766,-0.9536743,0.2929077,0.53125,0.859375,0.109375,424
1695395389844,-0.0041503906,-0.9573364,0.27703857,0.640625,0.171875,1.125,425
1695395389884,-0.024902344,-0.942688,0.29559326,0.390625,-1.234375,-0.078125,426
1695395389924,-0.028076172,-0.95391846,0.28704834,-1.015625,-1.1875,-0.78125,427
1695395389964,-0.017578125,-0.9522095,0.30291748,1.75,-0.140625,-0.484375,428
1695395390004,-0.024902344,-0.9561157,0.27386475,-2.890625,-1.625,-0.34375,429
1695395390044,-0.033935547,-0.954895,0.2975464,-1.28125,-0.78125,-0.875,430
1695395390084,-0.025634766,-0.9585571,0.30560303,0.421875,0.6875,-0.515625,431
1695395390124,-0.020019531,-0.94610596,0.28778076,-0.59375,-0.109375,-0.015625,432
1695395390164,-0.024902344,-0.95025635,0.2975464,-0.984375,-0.71875,-0.375,433
1695395390204,-0.03149414,-0.9534302,0.30340576,-0.59375,-0.71875,-0.90625,434
1695395390244,-0.022460938,-0.9500122,0.29315186,-0.921875,-0.625,-0.5625,435
1695395390284,-0.036865234,-0.9500122,0.2970581,-1.78125,-1.125,-0.75,436
1695395390324,-0.034179688,-0.9505005,0.29974365,-0.078125,0.046875,-0.40625,437
1695395390364,-0.032714844,-0.95318604,0.29852295,-0.21875,-0.578125,-0.28125,438
1695395390404,-0.030029297,-0.94781494,0.293396,0.15625,-0.1875,-0.390625,439
1695395390444,-0.03466797,-0.9439087,0.2999878,-0.53125,-0.140625,-0.265625,440
1695395390484,-0.039794922,-0.9463501,0.30389404,-0.171875,-0.3125,-0.625,441
1695395390524,-0.029785156,-0.94317627,0.3048706,-0.65625,-0.40625,-1.140625,442
1695395390564,-0.036865234,-0.9512329,0.31097412,-0.265625,-0.625,-0.53125,443
1695395390604,-0.036376953,-0.94903564,0.30828857,-0.203125,-0.515625,-1.0625,444
1695395390644,-0.044433594,-0.94244385,0.30804443,1.0625,-0.265625,-0.359375,445
1695395390684,-0.041259766,-0.9553833,0.29681396,-0.5,-0.5625,-0.8125,446
1695395390724,-0.033935547,-0.9505005,0.31365967,0.796875,0.6875,-0.734375,447
1695395390764,-0.052001953,-0.942688,0.29486084,-2.390625,-1.453125,-0.90625,448
1695395390804,-0.045166016,-0.93829346,0.31243896,0.125,0.21875,-0.875,449
1695395390844,-0.041992188,-0.9546509,0.31097412,0.03125,0.96875,-0.390625,450
1695395390884,-0.04345703,-0.9480591,0.3024292,-0.203125,0.171875,-0.4375,451
1695395390924,-0.04321289,-0.9421997,0.3007202,-0.484375,0.25,-0.421875,452
1695395390964,-0.04736328,-0.95269775,0.31243896,0.171875,0.6875,-0.078125,453
1695395391004,-0.041503906,-0.9578247,0.3163452,0.578125,0.453125,0.359375,454
1695395391044,-0.04345703,-0.9458618,0.29534912,-0.046875,-0.546875,-0.4375,455
1695395391084,-0.04638672,-0.94854736,0.3085327,1.640625,-0.46875,0.53125,456
1695395391124,-0.03955078,-0.94610596,0.31097412,-0.03125,-0.578125,-0.78125,457
1695395391164,-0.052001953,-0.9500122,0.29901123,-1.21875,-1.109375,0.546875,458
1695395391204,-0.043945312,-0.9380493,0.3036499,-1.328125,-0.921875,-0.8125,459
1695395391244,-0.034423828,-0.93341064,0.3143921,-0.828125,-1.5,-0.84375,460
1695395391284,-0.056396484,-0.9446411,0.31878662,-0.65625,-1.203125,-0.71875,461
1695395391324,-0.053955078,-0.93536377,0.31072998,0.171875,-0.46875,-1.578125,462
1695395391364,-0.043945312,-0.9404907,0.3217163,-0.734375,-2.015625,-1.71875,463
1695395391404,-0.05444336,-0.9475708,0.3180542,-0.4375,-1.6875,-1.28125,464
1695395391444,-0.06518555,-0.9312134,0.32196045,-0.5625,-1.734375,-0.46875,465
1695395391484,-0.07080078,-0.94415283,0.3180542,-0.734375,-1.984375,-0.484375,466
1695395391524,-0.060302734,-0.9417114,0.34246826,1.515625,-0.109375,-0.6875,467
1695395391564,-0.061279297,-0.95025635,0.30291748,-2.1875,-2.03125,-0.375,468
1695395391604,-0.06982422,-0.9314575,0.31829834,-0.59375,-0.703125,-0.40625,469
1695395391644,-0.061523438,-0.95025635,0.32806396,0.859375,0.640625,0.25,470
1695395391684,-0.06762695,-0.9404907,0.32440186,0.34375,0.96875,0.296875,471
1695395391724,-0.057128906,-0.9480591,0.3241577,0.046875,1.046875,0.546875,472
1695395391764,-0.055419922,-0.9351196,0.32562256,0.046875,0.171875,0.171875,473
1695395391804,-0.044433594,-0.9351196,0.3283081,-0.359375,0.390625,-0.078125,474
1695395391844,-0.052246094,-0.9356079,0.31903076,1.140625,-0.640625,-0.15625,475
1695395391884,-0.052001953,-0.9421997,0.3204956,1.0625,0.71875,-0.421875,476
1695395391924,-0.06201172,-0.9434204,0.3168335,1.28125,0.46875,-0.25,477
1695395391964,-0.060058594,-0.9429321,0.3156128,0.609375,0.59375,-0.25,478
1695395392004,-0.06347656,-0.94244385,0.31195068,0.84375,0.21875,0.078125,479
1695395392044,-0.05102539,-0.94073486,0.3156128,0.953125,1.078125,0.140625,480
1695395392084,-0.049316406,-0.94415283,0.31341553,0.328125,-0.125,-0.4375,481
1695395392124,-0.05883789,-0.9360962,0.31121826,-0.421875,-0.84375,-0.953125,482
1695395392164,-0.056396484,-0.944397,0.31732178,-0.46875,0.265625,-0.34375,483
1695395392204,-0.060791016,-0.94854736,0.31756592,0.3125,0.234375,0.234375,484
1695395392244,-0.05908203,-0.9397583,0.3241577,0.046875,-0.015625,-0.375,485
1695395392284,-0.055908203,-0.94244385,0.32489014,0.921875,1.0625,-0.34375,486
1695395392324,-0.064697266,-0.942688,0.322937,-0.796875,0.609375,-0.578125,487
1695395392364,-0.049316406,-0.9390259,0.32269287,-1.546875,1.765625,-1.921875,488
1695395392404,-0.057861328,-0.9343872,0.30340576,-2.75,-0.484375,-0.921875,489
1695395392444,-0.064941406,-0.9451294,0.3234253,-0.390625,0.15625,-0.890625,490
1695395392484,-0.06201172,-0.9480591,0.3283081,0.203125,0.625,-0.65625,491
1695395392524,-0.07006836,-0.94000244,0.3180542,-0.109375,-0.390625,-0.46875,492
1695395392564,-0.05859375,-0.94854736,0.3217163,0.6875,0.53125,-0.234375,493
1695395392604,-0.06982422,-0.9417114,0.3222046,0.171875,-0.1875,0.0625,494
1695395392644,-0.06298828,-0.9434204,0.32659912,0.78125,0.40625,-0.46875,495
1695395392684,-0.07006836,-0.9434204,0.31854248,0.390625,0.40625,-0.171875,496
1695395392724,-0.0703125,-0.9414673,0.32781982,0.734375,0.375,-0.03125,497
1695395392764,-0.06616211,-0.9351196,0.32025146,0.03125,0.15625,-0.015625,498
1695395392804,-0.06738281,-0.9439087,0.3270874,0.359375,0.265625,-0.15625,499
1695395392844,-0.06665039,-0.942688,0.32440186,0.109375,0.125,0.09375,500
1695395392884,-0.067871094,-0.94122314,0.32366943,0.40625,0.171875,0.5625,501
1695395392924,-0.055419922,-0.93634033,0.3204956,0.609375,-0.625,0.375,502
1695395392964,-0.07519531,-0.94366455,0.32977295,-0.171875,-0.171875,0.65625,503
1695395393004,-0.064941406,-0.93927,0.3287964,-0.078125,-0.0625,0.296875,504
1695395393044,-0.06689453,-0.9439087,0.33294678,0.078125,0.09375,0.140625,505
1695395393084,-0.06567383,-0.94976807,0.33709717,0.4375,1.296875,0.21875,506
1695395393124,-0.060546875,-0.93878174,0.3222046,0.515625,1.484375,0.203125,507
1695395393164,-0.048828125,-0.9402466,0.31854248,0.75,2.21875,0.09375,508
1695395393204,-0.064208984,-0.9351196,0.31610107,-1.046875,0.203125,0.4375,509
1695395393244,-0.06738281,-0.9421997,0.33831787,0.78125,0.84375,0.03125,510
1695395393284,-0.060546875,-0.9487915,0.32513428,-0.4375,1.84375,-0.265625,511
1695395393324,-0.059326172,-0.9365845,0.3209839,0.0,2.1875,0.40625,512
1695395393364,-0.061035156,-0.9439087,0.32440186,0.875,2.203125,1.09375,513
1695395393404,-0.05834961,-0.9380493,0.32635498,1.546875,1.609375,0.953125,514
1695395393444,-0.05126953,-0.94366455,0.33050537,1.140625,1.828125,0.546875,515
1695395393484,-0.053466797,-0.9397583,0.32025146,1.3125,2.53125,0.84375,516
1695395393524,-0.045898438,-0.9343872,0.31854248,1.09375,0.859375,0.75,517
1695395393564,-0.053466797,-0.9451294,0.3287964,1.421875,0.59375,0.515625,518
1695395393604,-0.048339844,-0.9373169,0.31732178,1.03125,0.421875,0.40625,519
1695395393644,-0.053466797,-0.9356079,0.31585693,1.0625,0.0,0.328125,520
1695395393684,-0.049804688,-0.940979,0.32196045,1.109375,-0.15625,-0.015625,521
1695395393724,-0.045410156,-0.9429321,0.31829834,0.828125,0.515625,-0.0625,522
1695395393764,-0.049072266,-0.94415283,0.3156128,1.125,1.21875,0.15625,523
1695395393804,-0.047851562,-0.9456177,0.32489014,1.53125,0.53125,0.15625,524
1695395393844,-0.048583984,-0.9480591,0.3295288,1.53125,0.0625,-0.0625,525
1695395393884,-0.051513672,-0.9417114,0.3270874,-0.484375,-1.453125,-0.5625,526
1695395393924,-0.06567383,-0.9439087,0.30706787,-5.359375,-3.28125,-2.140625,527
1695395393964,-0.03515625,-0.94000244,0.3319702,-0.296875,2.96875,0.015625,528
1695395394004,-0.048828125,-0.95269775,0.3131714,1.546875,1.265625,0.609375,529
1695395394044,-0.055908203,-0.9390259,0.31976318,1.25,0.984375,-0.65625,530
1695395394084,-0.047607422,-0.9463501,0.32025146,1.875,2.375,0.125,531
1695395394124,-0.048339844,-0.9492798,0.3143921,2.0,1.390625,0.203125,532
1695395394164,-0.044677734,-0.9483032,0.31097412,1.765625,1.765625,-0.0625,533
1695395394204,-0.044921875,-0.9463501,0.3114624,1.453125,2.5,0.84375,534
1695395394244,-0.046875,-0.9487915,0.30560303,1.6875,1.5625,0.5,535
1695395394284,-0.03857422,-0.9421997,0.3053589,1.203125,1.46875,0.390625,536
1695395394324,-0.04345703,-0.9446411,0.30828857,1.125,1.15625,0.484375,537
1695395394364,-0.040039062,-0.94781494,0.30023193,0.859375,0.71875,0.578125,538
1695395394404,-0.03564453,-0.9463501,0.30023193,0.703125,0.15625,0.171875,539
1695395394444,-0.037597656,-0.94488525,0.3048706,0.453125,0.125,-0.078125,540
1695395394484,-0.0390625,-0.9492798,0.29656982,-0.15625,-0.703125,-0.140625,541
1695395394524,-0.0390625,-0.95391846,0.32196045,2.234375,-0.515625,-0.078125,542
1695395394564,-0.0390625,-0.95147705,0.28826904,0.53125,0.28125,-0.84375,543
1695395394604,-0.048828125,-0.95269775,0.30926514,0.265625,1.234375,0.3125,544
1695395394644,-0.03564453,-0.95025635,0.30633545,0.53125,1.265625,-0.484375,545
1695395394684,-0.035888672,-0.9524536,0.29925537,-0.15625,2.234375,-0.015625,546
1695395394724,-0.047851562,-0.95880127,0.2975464,0.734375,2.171875,-0.140625,547
1695395394764,-0.033935547,-0.9505005,0.31414795,1.78125,2.4375,0.078125,548
1695395394804,-0.033691406,-0.9414673,0.29241943,1.6875,2.109375,0.171875,549
1695395394844,-0.041015625,-0.9495239,0.29779053,1.59375,1.890625,0.25,550
1695395394884,-0.03125,-0.9524536,0.2929077,1.96875,2.453125,0.546875,551
1695395394924,-0.03149414,-0.9429321,0.27972412,1.234375,2.171875,0.9375,552
1695395394964,-0.032470703,-0.9570923,0.2897339,2.484375,2.265625,1.234375,553
1695395395004,-0.024658203,-0.95440674,0.28729248,0.90625,1.109375,0.234375,554
1695395395044,-0.031982422,-0.95513916,0.29901123,1.15625,1.90625,-0.25,555
1695395395084,-0.021484375,-0.9492798,0.2958374,2.0625,1.796875,0.5,556
1695395395124,-0.023925781,-0.9534302,0.2802124,0.828125,0.734375,0.3125,557
1695395395164,-0.02758789,-0.95440674,0.2946167,2.109375,2.4375,-0.109375,558
1695395395204,-0.029541016,-0.9624634,0.26605225,0.75,1.09375,-0.421875,559
1695395395244,-0.038330078,-0.96295166,0.28656006,2.0,1.890625,0.546875,560
1695395395284,-0.005859375,-0.9624634,0.2814331,1.90625,2.734375,0.546875,561
1695395395324,-0.022216797,-0.94976807,0.26800537,2.140625,2.828125,0.671875,562
1695395395364,-0.027832031,-0.95440674,0.26507568,3.1875,2.40625,-0.046875,563
1695395395404,-0.017822266,-0.94732666,0.26922607,2.21875,1.859375,-0.296875,564
1695395395444,-0.013916016,-0.95684814,0.2670288,-0.125,0.796875,-0.921875,565
1695395395484,-0.026611328,-0.9614868,0.26654053,0.8125,1.4375,-1.0,566
1695395395524,-0.021728516,-0.96343994,0.27386475,1.109375,1.21875,-1.59375,567
1695395395564,-0.019042969,-0.95513916,0.2662964,-0.0625,0.421875,-1.21875,568
1695395395604,-0.01928711,-0.9529419,0.26068115,0.5625,0.765625,-0.359375,569
1695395395644,-0.012207031,-0.95513916,0.2682495,0.78125,0.109375,0.046875,570
1695395395684,-0.018554688,-0.95269775,0.26483154,0.65625,0.328125,0.234375,571
1695395395724,-0.017822266,-0.95562744,0.24749756,1.421875,1.125,0.625,572
1695395395764,-0.0234375,-0.9458618,0.27069092,1.609375,1.34375,1.125,573
1695395395804,-0.015380859,-0.9578247,0.26531982,2.5625,1.4375,0.53125,574
1695395395844,-0.020019531,-0.95440674,0.24090576,0.734375,0.875,0.203125,575
1695395395884,-0.016357422,-0.95928955,0.26727295,1.859375,1.671875,0.84375,576
1695395395924,-0.014404297,-0.95562744,0.25482178,1.015625,0.703125,0.609375,577
1695395395964,-0.018066406,-0.9649048,0.2543335,1.625,1.375,0.984375,578
1695395396004,-0.020751953,-0.96221924,0.27069092,2.8125,1.28125,1.15625,579
1695395396044,-0.012451172,-0.9529419,0.24456787,1.515625,0.25,0.640625,580
1695395396084,-0.020263672,-0.9619751,0.25042725,-0.03125,-0.25,0.515625,581
1695395396124,-0.007080078,-0.96343994,0.2518921,0.109375,0.34375,-0.078125,582
1695395396164,-0.013916016,-0.96881104,0.24871826,0.34375,0.34375,0.34375,583
1695395396204,-0.0036621094,-0.9661255,0.2411499,0.28125,0.609375,0.421875,584
1695395396244,-0.0087890625,-0.9692993,0.25091553,0.875,-0.671875,0.3125,585
1695395396284,-0.016357422,-0.9702759,0.24847412,0.203125,-1.125,0.53125,586
1695395396324,-0.013916016,-0.9570923,0.25360107,-1.203125,-1.046875,0.375,587
1695395396364,0.0056152344,-0.956604,0.25335693,-1.84375,0.984375,1.28125,588
1695395396404,-0.0026855469,-0.9536743,0.2579956,-0.5625,0.6875,1.890625,589
1695395396444,0.011474609,-0.9710083,0.26409912,2.203125,1.140625,0.296875,590
1695395396484,-0.0068359375,-0.95196533,0.23944092,-1.921875,-1.8125,-1.671875,591
1695395396524,-0.0026855469,-0.95269775,0.2633667,-0.3125,0.515625,-0.515625,592
1695395396564,0.008056641,-0.9612427,0.2543335,-0.359375,-0.234375,-0.21875,593
1695395396604,0.011230469,-0.9627075,0.24847412,-1.609375,0.484375,0.265625,594
1695395396644,0.0014648438,-0.9561157,0.26507568,-0.875,-0.34375,-0.015625,595
1695395396684,0.009033203,-0.96221924,0.26922607,-0.453125,-2.046875,-1.453125,596
1695395396724,-0.0034179688,-0.9541626,0.26531982,-1.875,-3.25,-2.15625,597
1695395396764,-0.010009766,-0.96221924,0.27191162,-0.34375,-0.796875,-0.953125,598
1695395396804,-0.017578125,-0.9668579,0.2645874,0.0625,-0.734375,-0.734375,599
1695395396844,-0.013183594,-0.9639282,0.26068115,-0.46875,-1.375,-0.671875,600
1695395396884,-0.013671875,-0.95513916,0.26849365,-1.140625,-1.125,-0.78125,601
1695395396924,-0.0087890625,-0.9541626,0.2741089,-0.796875,-0.640625,-0.046875,602
1695395396964,-0.024169922,-0.9612427,0.27215576,-0.28125,-1.125,-0.375,603
1695395397004,-0.01977539,-0.9578247,0.27923584,-0.625,0.328125,-0.578125,604
1695395397044,-0.016601562,-0.9595337,0.27825928,-0.375,0.421875,-0.109375,605
1695395397084,-0.023925781,-0.9475708,0.2929077,0.859375,-0.375,0.0625,606
1695395397124,-0.023925781,-0.9456177,0.27142334,-1.8125,-0.84375,-0.609375,607
1695395397164,-0.015625,-0.956604,0.28656006,0.875,1.1875,-0.171875,608
1695395397204,-0.028320312,-0.9456177,0.2699585,-3.28125,-2.03125,-0.734375,609
1695395397244,-0.027832031,-0.9529419,0.28289795,-1.390625,0.0,-0.515625,610
1695395397284,-0.016113281,-0.95806885,0.2850952,-0.21875,0.34375,-0.359375,611
1695395397324,-0.017578125,-0.95098877,0.28460693,-0.546875,-0.640625,0.0625,612
1695395397364,-0.022949219,-0.95684814,0.28338623,-1.546875,-1.453125,-0.78125,613
1695395397404,-0.026611328,-0.9585571,0.2897339,0.0625,-0.796875,-0.390625,614
1695395397444,-0.020507812,-0.95635986,0.28778076,-0.328125,-1.390625,-0.71875,615
1695395397484,-0.03173828,-0.9529419,0.29022217,0.0,-0.578125,0.078125,616
1695395397524,-0.020996094,-0.95318604,0.2909546,0.34375,-0.890625,-0.328125,617
1695395397564,-0.026123047,-0.9507446,0.28631592,-0.71875,-1.765625,-0.359375,618
1695395397604,-0.026367188,-0.958313,0.29241943,-0.765625,-1.421875,-0.625,619
1695395397644,-0.026123047,-0.95513916,0.29656982,-1.09375,-1.65625,-0.59375,620
1695395397684,-0.033203125,-0.9492798,0.29559326,-0.25,-1.1875,-0.453125,621
1695395397724,-0.02758789,-0.9573364,0.29901123,-0.40625,-1.4375,-0.53125,622
1695395397764,-0.03149414,-0.9512329,0.2958374,-0.953125,-1.609375,-0.28125,623
1695395397804,-0.03881836,-0.9541626,0.30316162,0.53125,-1.546875,-0.25,624
1695395397844,-0.030273438,-0.95025635,0.29437256,-2.046875,-1.296875,-0.75,625
1695395397884,-0.026855469,-0.95880127,0.30755615,0.578125,0.078125,-0.34375,626
1695395397924,-0.036865234,-0.942688,0.2850952,-2.734375,-2.515625,-1.125,627
1695395397964,-0.040527344,-0.9487915,0.3114624,-0.578125,-1.75,-0.375,628
1695395398004,-0.041748047,-0.9558716,0.30804443,-0.796875,-0.734375,-0.5,629
1695395398044,-0.038330078,-0.9470825,0.30706787,-0.859375,-0.46875,-0.640625,630
1695395398084,-0.038085938,-0.9546509,0.30511475,-0.53125,-0.109375,0.265625,631
1695395398124,-0.04663086,-0.9522095,0.3053589,0.453125,0.015625,-0.03125,632
1695395398164,-0.03100586,-0.94122314,0.30340576,0.609375,-0.46875,-0.109375,633
1695395398204,-0.040283203,-0.9458618,0.3085327,1.078125,-0.90625,0.078125,634
1695395398244,-0.036376953,-0.9558716,0.31219482,0.46875,-0.140625,-0.390625,635
1695395398284,-0.0390625,-0.94195557,0.3060913,-0.21875,-0.25,0.171875,636
1695395398324,-0.043945312,-0.9480591,0.3065796,-0.203125,-0.484375,-0.015625,637
1695395398364,-0.03857422,-0.9475708,0.30267334,0.671875,-0.390625,-0.109375,638
1695395398404,-0.043701172,-0.9492798,0.30755615,0.65625,-0.3125,-0.171875,639
1695395398444,-0.040771484,-0.95025635,0.30218506,0.046875,-0.171875,0.078125,640
1695395398484,-0.048095703,-0.9500122,0.30926514,0.140625,-0.484375,-0.046875,641
1695395398524,-0.040039062,-0.960022,0.3053589,1.390625,-0.546875,0.28125,642
1695395398564,-0.040771484,-0.9402466,0.30145264,0.125,-0.921875,-0.578125,643
1695395398604,-0.033935547,-0.95391846,0.3143921,0.09375,-0.15625,-0.3125,644
1695395398644,-0.04296875,-0.94732666,0.2970581,-2.609375,-2.296875,-0.375,645
1695395398684,-0.05102539,-0.94195557,0.31732178,-0.609375,-1.765625,-0.71875,646
1695395398724,-0.038330078,-0.95513916,0.30828857,-0.59375,0.140625,-0.421875,647
1695395398764,-0.041259766,-0.9480591,0.31488037,-0.84375,-1.375,-0.1875,648
1695395398804,-0.045166016,-0.9446411,0.31097412,-0.984375,-1.265625,-0.59375,649
1695395398844,-0.048339844,-0.94976807,0.31170654,-0.328125,-1.03125,-0.171875,650
1695395398884,-0.045166016,-0.9505005,0.31878662,-0.90625,-1.578125,-0.546875,651
1695395398924,-0.057617188,-0.93585205,0.31414795,-0.296875,-1.359375,0.015625,652
1695395398964,-0.051513672,-0.94854736,0.3143921,0.421875,-0.734375,-0.296875,653
1695395399004,-0.048339844,-0.94195557,0.31536865,0.1875,-0.8125,-0.0625,654
1695395399044,-0.051757812,-0.9434204,0.31781006,0.515625,-0.765625,0.15625,655
1695395399084,-0.049316406,-0.9495239,0.31854248,0.78125,-0.578125,-0.140625,656
1695395399124,-0.056640625,-0.94976807,0.31243896,0.765625,-0.140625,-0.296875,657
1695395399164,-0.049560547,-0.9458618,0.31170654,0.578125,-0.328125,-0.1875,658
1695395399204,-0.055908203,-0.94537354,0.31243896,0.640625,0.328125,-0.578125,659
1695395399244,-0.05102539,-0.960022,0.31414795,0.921875,0.578125,-0.3125,660
1695395399284,-0.052978516,-0.9351196,0.31414795,0.28125,0.6875,-0.765625,661
1695395399324,-0.052001953,-0.95098877,0.31292725,0.71875,1.03125,-0.640625,662
1695395399364,-0.06298828,-0.9378052,0.30438232,-1.21875,-0.015625,-0.75,663
1695395399404,-0.05883789,-0.9368286,0.31854248,-0.0625,0.234375,-1.09375,664
1695395399444,-0.053222656,-0.9456177,0.32000732,0.34375,0.953125,-0.65625,665
1695395399484,-0.055908203,-0.9402466,0.3131714,-0.59375,0.109375,-0.765625,666
1695395399524,-0.05883789,-0.93218994,0.31488037,-0.03125,0.46875,-0.953125,667
1695395399564,-0.053710938,-0.9468384,0.31878662,0.09375,0.1875,-0.90625,668
1695395399604,-0.053710938,-0.9429321,0.3126831,0.125,-0.078125,-0.828125,669
1695395399644,-0.05834961,-0.9421997,0.31488037,-0.109375,0.390625,-0.625,670
1695395399684,-0.059814453,-0.94488525,0.31854248,0.25,0.90625,-0.609375,671
1695395399724,-0.059814453,-0.942688,0.3163452,0.0625,-0.234375,-0.640625,672
1695395399764,-0.061523438,-0.94854736,0.31903076,0.171875,0.203125,-0.625,673
1695395399804,-0.060791016,-0.94366455,0.3217163,1.0625,0.140625,-0.78125,674
1695395399844,-0.068115234,-0.9429321,0.3143921,0.671875,0.90625,-0.484375,675
1695395399884,-0.06347656,-0.944397,0.3114624,0.4375,0.625,-0.359375,676
1695395399924,-0.06542969,-0.9385376,0.32244873,0.484375,0.921875,-0.484375,677
1695395399964,-0.061767578,-0.940979,0.30316162,-1.125,0.5625,-0.5625,678
1695395400004,-0.06958008,-0.94073486,0.3295288,1.578125,1.734375,-0.734375,679
1695395400044,-0.06616211,-0.9512329,0.30316162,-1.640625,0.40625,-0.671875,680
1695395400084,-0.06665039,-0.93951416,0.31707764,-0.390625,0.921875,-0.703125,681
1695395400124,-0.055419922,-0.940979,0.32537842,-0.0625,1.8125,-0.671875,682
1695395400164,-0.059326172,-0.94537354,0.31854248,-0.3125,0.859375,-0.390625,683
1695395400204,-0.06616211,-0.94659424,0.32244873,0.078125,0.703125,-0.40625,684
1695395400244,-0.0625,-0.94073486,0.3192749,-0.078125,0.640625,-0.375,685
1695395400284,-0.061279297,-0.93341064,0.32073975,-0.515625,0.3125,-0.4375,686
1695395400324,-0.06591797,-0.93341064,0.31707764,-0.546875,-0.1875,-0.1875,687
1695395400364,-0.06933594,-0.9470825,0.32977295,0.5,0.296875,-0.125,688
1695395400404,-0.064208984,-0.9429321,0.31976318,0.0,-0.3125,0.109375,689
1695395400444,-0.07104492,-0.94366455,0.3258667,0.078125,-0.59375,-0.203125,690
1695395400484,-0.06982422,-0.9348755,0.32122803,-0.0625,-0.21875,-0.171875,691
1695395400524,-0.07495117,-0.940979,0.322937,0.203125,-0.453125,0.265625,692
1695395400564,-0.06738281,-0.9378052,0.3300171,0.4375,0.375,-0.109375,693
1695395400604,-0.064453125,-0.9380493,0.32073975,-0.09375,0.46875,0.328125,694
1695395400644,-0.072265625,-0.9458618,0.32635498,0.109375,0.421875,0.078125,695
1695395400684,-0.06567383,-0.92803955,0.33221436,0.703125,0.75,-0.265625,696
1695395400724,-0.057128906,-0.9475708,0.32196045,0.53125,0.140625,-0.15625,697
1695395400764,-0.06933594,-0.93878174,0.31829834,-0.8125,-0.921875,0.015625,698
1695395400804,-0.06567383,-0.94000244,0.33709717,-0.21875,-0.359375,-0.25,699
1695395400844,-0.068847656,-0.94903564,0.33026123,0.109375,0.390625,0.1875,700
1695395400884,-0.06225586,-0.93707275,0.33319092,0.0,0.65625,0.015625,701
1695395400924,-0.057617188,-0.940979,0.31951904,0.0,0.9375,0.3125,702
1695395400964,-0.07128906,-0.9429321,0.32366943,0.4375,0.078125,0.09375,703
1695395401004,-0.05908203,-0.93829346,0.32904053,0.296875,1.1875,-0.46875,704
1695395401044,-0.064453125,-0.9451294,0.32489014,0.34375,1.171875,0.46875,705
1695395401084,-0.064453125,-0.94659424,0.3241577,1.609375,1.40625,0.25,706
1695395401124,-0.059814453,-0.9336548,0.31976318,0.515625,0.9375,0.078125,707
1695395401164,-0.064697266,-0.93463135,0.33172607,0.546875,0.953125,0.1875,708
1695395401204,-0.06274414,-0.95147705,0.32513428,1.265625,1.25,0.421875,709
1695395401244,-0.061523438,-0.93756104,0.3204956,1.25,1.921875,0.046875,710
1695395401284,-0.05859375,-0.95196533,0.3204956,0.578125,1.15625,0.421875,711
1695395401324,-0.064697266,-0.9505005,0.31195068,0.0,0.78125,0.0,712
1695395401364,-0.052246094,-0.9380493,0.32806396,1.375,0.9375,0.0,713
1695395401404,-0.05419922,-0.95635986,0.3151245,-0.421875,0.515625,-0.25,714
1695395401444,-0.060058594,-0.9314575,0.30926514,-0.75,-0.328125,-0.328125,715
1695395401484,-0.061767578,-0.9404907,0.3307495,0.359375,1.03125,0.015625,716
1695395401524,-0.055419922,-0.9439087,0.3168335,-0.375,0.171875,-0.046875,717
1695395401564,-0.06616211,-0.9390259,0.33392334,0.34375,0.671875,0.140625,718
1695395401604,-0.05126953,-0.93341064,0.3156128,0.375,1.21875,0.15625,719
1695395401644,-0.051513672,-0.9446411,0.31829834,0.265625,0.359375,0.484375,720
1695395401684,-0.059570312,-0.9414673,0.32244873,0.5,0.171875,0.109375,721
1695395401724,-0.057128906,-0.9470825,0.31951904,1.140625,0.546875,0.4375,722
1695395401764,-0.050048828,-0.9439087,0.32122803,0.859375,0.296875,0.171875,723
1695395401804,-0.053466797,-0.9380493,0.31756592,0.40625,0.1875,0.0625,724
1695395401844,-0.05810547,-0.9505005,0.32269287,0.609375,-0.25,-0.015625,725
1695395401884,-0.053710938,-0.9470825,0.31976318,0.296875,0.1875,-0.296875,726
1695395401924,-0.05834961,-0.9505005,0.32025146,0.03125,0.65625,-0.09375,727
1695395401964,-0.051513672,-0.95318604,0.32025146,1.046875,1.03125,-0.03125,728
1695395402004,-0.055908203,-0.93585205,0.32366943,1.3125,1.078125,-0.171875,729
1695395402044,-0.049560547,-0.9468384,0.31341553,0.5625,0.796875,-0.578125,730
1695395402084,-0.060058594,-0.93341064,0.3060913,-1.296875,-0.59375,0.03125,731
1695395402124,-0.053222656,-0.9404907,0.33050537,0.203125,0.765625,-0.03125,732
1695395402164,-0.051757812,-0.9434204,0.31048584,-1.34375,0.671875,-0.546875,733
1695395402204,-0.05053711,-0.9439087,0.32733154,-0.65625,0.59375,-0.234375,734
1695395402244,-0.049804688,-0.9475708,0.3192749,-0.34375,1.15625,-0.546875,735
1695395402284,-0.052490234,-0.9421997,0.31829834,0.625,0.640625,-0.03125,736
1695395402324,-0.05419922,-0.94732666,0.32000732,0.296875,0.171875,-0.203125,737
1695395402364,-0.050048828,-0.94854736,0.32244873,0.859375,0.3125,0.78125,738
1695395402404,-0.052978516,-0.9326782,0.32147217,-0.203125,-1.4375,-0.09375,739
1695395402444,-0.06738281,-0.94073486,0.32440186,0.4375,-0.28125,-0.84375,740
1695395402484,-0.05053711,-0.94073486,0.31878662,0.25,0.609375,0.0625,741
1695395402524,-0.057861328,-0.9397583,0.32757568,1.625,0.59375,0.03125,742
1695395402564,-0.053222656,-0.9446411,0.31732178,0.90625,0.40625,-0.578125,743
1695395402604,-0.0546875,-0.95880127,0.30169678,-0.15625,0.625,-0.109375,744
1695395402644,-0.057373047,-0.93536377,0.3295288,1.96875,-0.046875,-0.078125,745
1695395402684,-0.052734375,-0.9585571,0.31365967,0.15625,0.75,-0.359375,746
1695395402724,-0.06567383,-0.94732666,0.31854248,-0.375,0.8125,0.1875,747
1695395402764,-0.052490234,-0.9470825,0.32489014,0.96875,1.546875,-0.1875,748
1695395402804,-0.04663086,-0.940979,0.31097412,-0.359375,0.875,-0.125,749
1695395402844,-0.049072266,-0.9458618,0.32904053,0.453125,0.96875,0.078125,750
1695395402884,-0.05126953,-0.9414673,0.3143921,0.625,0.96875,0.078125,751
1695395402924,-0.052001953,-0.940979,0.3143921,0.578125,1.3125,0.125,752
1695395402964,-0.056640625,-0.94317627,0.31097412,0.359375,0.34375,0.15625,753
1695395403004,-0.0546875,-0.9468384,0.31585693,1.703125,0.28125,0.1875,754
1695395403044,-0.056152344,-0.93536377,0.3102417,1.171875,0.09375,-0.015625,755
1695395403084,-0.05419922,-0.94073486,0.31170654,0.8125,-0.265625,-0.03125,756
1695395403124,-0.05493164,-0.94366455,0.30975342,0.765625,-0.8125,-0.203125,757
1695395403164,-0.053710938,-0.9439087,0.3102417,0.53125,-0.5625,-0.125,758
1695395403204,-0.05517578,-0.9456177,0.31121826,0.546875,0.109375,-0.171875,759
1695395403244,-0.045898438,-0.9541626,0.28875732,-0.453125,0.21875,-0.03125,760
1695395403284,-0.049560547,-0.9470825,0.32684326,2.390625,0.03125,0.0,761
1695395403324,-0.049804688,-0.9495239,0.29681396,0.453125,0.28125,-0.4375,762
1695395403364,-0.064208984,-0.94854736,0.31341553,0.125,0.171875,-0.078125,763
1695395403404,-0.045654297,-0.9470825,0.31732178,0.6875,0.625,-0.4375,764
1695395403444,-0.047851562,-0.9458618,0.30340576,-0.5,-0.5,-0.578125,765
1695395403484,-0.05859375,-0.95025635,0.3163452,0.546875,0.609375,-0.578125,766
1695395403524,-0.052246094,-0.9356079,0.30975342,-0.171875,-0.078125,-0.84375,767
1695395403564,-0.04638672,-0.94073486,0.29486084,0.03125,0.8125,-0.71875,768
1695395403604,-0.0637207,-0.9446411,0.30316162,0.375,0.28125,-0.296875,769
1695395403644,-0.056884766,-0.9458618,0.3102417,0.375,-0.609375,-1.0,770
1695395403684,-0.056884766,-0.9360962,0.3078003,-0.796875,-0.921875,-1.0625,771
1695395403724,-0.057128906,-0.9439087,0.31121826,-1.09375,-0.484375,-0.984375,772
1695395403764,-0.055908203,-0.9483032,0.31341553,-0.390625,-0.234375,-0.65625,773
1695395403804,-0.056884766,-0.9468384,0.31292725,0.21875,0.046875,-0.78125,774
1695395403844,-0.0625,-0.9404907,0.31048584,-0.3125,-0.0625,-0.375,775
1695395403884,-0.056152344,-0.9470825,0.31756592,0.71875,0.171875,-0.171875,776
1695395403924,-0.06323242,-0.9529419,0.30462646,0.703125,0.0625,-0.140625,777
1695395403964,-0.051513672,-0.9456177,0.28875732,-0.4375,-0.015625,0.234375,778
1695395404004,-0.056152344,-0.9536743,0.32635498,3.359375,0.25,0.46875,779
1695395404044,-0.057861328,-0.9475708,0.291687,-0.046875,0.0,0.109375,780
1695395404084,-0.0703125,-0.9534302,0.31365967,0.71875,0.109375,0.40625,781
1695395404124,-0.06201172,-0.9529419,0.32000732,1.859375,1.34375,0.359375,782
1695395404164,-0.061035156,-0.94000244,0.2987671,-0.140625,0.296875,0.328125,783
1695395404204,-0.057373047,-0.94854736,0.3131714,0.421875,1.375,0.625,784
1695395404244,-0.06298828,-0.95147705,0.32489014,1.703125,1.0625,0.84375,785
1695395404284,-0.053222656,-0.94732666,0.3007202,-0.078125,1.46875,0.671875,786
1695395404324,-0.056884766,-0.94073486,0.3007202,-1.109375,0.15625,-0.171875,787
1695395404364,-0.052246094,-0.95196533,0.3102417,0.65625,1.171875,0.5625,788
1695395404404,-0.050048828,-0.944397,0.309021,0.28125,0.328125,0.125,789
1695395404444,-0.048095703,-0.9512329,0.2999878,0.046875,0.703125,-0.09375,790
1695395404484,-0.053710938,-0.9446411,0.3053589,0.078125,-0.046875,0.078125,791
1695395404524,-0.05908203,-0.94903564,0.30706787,0.53125,0.21875,0.1875,792
1695395404564,-0.053466797,-0.94537354,0.29730225,0.015625,0.671875,0.1875,793
1695395404604,-0.044921875,-0.9468384,0.30999756,-0.21875,0.234375,0.25,794
1695395404644,-0.045654297,-0.9505005,0.30926514,0.21875,-0.015625,0.328125,795
1695395404684,-0.05029297,-0.94122314,0.31195068,0.296875,0.015625,0.046875,796
1695395404724,-0.04663086,-0.94781494,0.3065796,0.109375,0.0625,-0.015625,797
1695395404764,-0.052246094,-0.9492798,0.31097412,0.234375,0.125,0.34375,798
1695395404804,-0.05102539,-0.95806885,0.30389404,-0.140625,0.625,0.5625,799
1695395404844,-0.051757812,-0.93414307,0.31732178,1.015625,0.03125,0.59375,800
1695395404884,-0.041503906,-0.9636841,0.29730225,-0.75,1.09375,0.53125,801
1695395404924,-0.051513672,-0.9446411,0.30706787,-1.625,-1.25,-0.15625,802
1695395404964,-0.053710938,-0.9451294,0.3283081,1.21875,1.515625,0.0,803
1695395405004,-0.041992188,-0.9417114,0.30340576,-0.234375,0.078125,-0.09375,804
1695395405044,-0.053466797,-0.94732666,0.31732178,0.296875,0.078125,-0.046875,805
1695395405084,-0.04345703,-0.9495239,0.3151245,-0.3125,-0.34375,-0.078125,806
1695395405124,-0.048339844,-0.9602661,0.31951904,0.3125,-0.359375,-0.109375,807
1695395405164,-0.048828125,-0.9414673,0.31341553,-1.234375,-0.25,-0.28125,808
1695395405204,-0.045898438,-0.9470825,0.32025146,0.09375,-0.171875,0.234375,809
1695395405244,-0.051757812,-0.9451294,0.31903076,0.5625,-0.171875,0.25,810
1695395405284,-0.05078125,-0.9463501,0.31414795,0.078125,-0.828125,0.078125,811
1695395405324,-0.052246094,-0.9414673,0.31365967,0.046875,-0.140625,-0.28125,812
1695395405364,-0.047851562,-0.9421997,0.31976318,0.1875,-0.4375,-0.34375,813
1695395405404,-0.04711914,-0.9434204,0.31781006,0.0625,-0.234375,-0.53125,814
1695395405444,-0.046142578,-0.94244385,0.31756592,0.03125,-0.765625,-0.3125,815
1695395405484,-0.052978516,-0.94244385,0.32659912,-0.078125,-0.21875,-0.53125,816
1695395405524,-0.04711914,-0.9500122,0.31707764,-0.640625,-0.359375,-0.3125,817
1695395405564,-0.060546875,-0.94415283,0.31732178,-0.328125,-1.078125,-0.359375,818
1695395405604,-0.047851562,-0.94659424,0.31756592,-0.75,-1.171875,-0.984375,819
1695395405644,-0.059814453,-0.95147705,0.32904053,0.125,-1.09375,-0.421875,820
1695395405684,-0.056396484,-0.9385376,0.3151245,-0.875,-1.46875,-1.046875,821
