timestamp,accel_x,accel_y,accel_z,gyro_x,gyro_y,gyro_z,ind
1695648773230,-0.36889648,-0.82891846,0.4586792,-0.046875,-1.0625,-0.15625,0
1695648773270,-0.37036133,-0.82940674,0.45404053,-0.734375,-0.78125,-0.09375,1
1695648773310,-0.3569336,-0.84039307,0.45281982,-2.984375,-1.140625,-1.0,2
1695648773350,-0.3466797,-0.82598877,0.4401245,-1.578125,-1.265625,-0.828125,3
1695648773390,-0.35668945,-0.8106079,0.43914795,-0.765625,-2.375,-0.75,4
1695648773430,-0.37695312,-0.8152466,0.4389038,-0.65625,-2.359375,-2.359375,5
1695648773470,-0.3918457,-0.80718994,0.44818115,-0.40625,-2.546875,-3.59375,6
1695648773510,-0.40185547,-0.819397,0.4569702,0.640625,-1.078125,-3.0,7
1695648773550,-0.38549805,-0.8362427,0.45257568,1.765625,0.78125,-1.609375,8
1695648773590,-0.39916992,-0.8196411,0.45916748,-0.1875,2.8125,-0.640625,9
1695648773630,-0.39501953,-0.7996216,0.45404053,-0.59375,2.71875,-0.921875,10
1695648773670,-0.3959961,-0.81085205,0.46502686,0.96875,2.75,-1.515625,11
1695648773710,-0.37768555,-0.8208618,0.43621826,1.125,3.5,-2.6875,12
1695648773750,-0.36645508,-0.80303955,0.45404053,5.75,2.5625,-1.015625,13
1695648773790,-0.38085938,-0.82476807,0.47210693,0.34375,2.65625,-1.828125,14
1695648773830,-0.37451172,-0.8098755,0.45184326,1.1875,1.671875,-3.984375,15
1695648773870,-0.37597656,-0.79937744,0.44256592,1.40625,-2.84375,-2.515625,16
1695648773910,-0.37841797,-0.7979126,0.44500732,6.703125,-2.9375,0.921875,17
1695648773950,-0.39331055,-0.8399048,0.4159546,4.15625,-2.703125,0.734375,18
1695648773990,-0.41479492,-0.82940674,0.40374756,2.28125,-1.40625,-0.875,19
1695648774030,-0.41210938,-0.8135376,0.42401123,1.875,1.390625,0.53125,20
1695648774070,-0.421875,-0.8286743,0.42279053,0.203125,2.34375,2.171875,21
1695648774110,-0.4099121,-0.8328247,0.4225464,0.109375,3.046875,0.4375,22
1695648774150,-0.40698242,-0.8135376,0.42010498,-1.34375,5.484375,0.53125,23
1695648774190,-0.40478516,-0.8093872,0.3949585,-1.4375,4.15625,2.046875,24
1695648774230,-0.35791016,-0.8687134,0.44476318,3.53125,-0.390625,0.21875,25
1695648774270,-0.34106445,-0.895813,0.48968506,-0.1875,2.796875,0.5625,26
1695648774310,-0.3203125,-0.8076782,0.4454956,-8.578125,2.234375,2.90625,27
1695648774350,-0.35009766,-0.7793579,0.43743896,1.25,-1.875,2.984375,28
1695648774390,-0.38110352,-0.817688,0.47210693,0.71875,-2.921875,0.140625,29
1695648774430,-0.4116211,-0.8250122,0.46795654,-0.40625,-0.109375,-0.859375,30
1695648774470,-0.39453125,-0.79034424,0.4196167,3.421875,-0.25,-0.25,31
1695648774510,-0.35546875,-0.81085205,0.4537964,-1.546875,-2.5,-1.078125,32
1695648774550,-0.3684082,-0.8389282,0.45355225,-3.296875,0.875,-0.96875,33
1695648774590,-0.36621094,-0.8110962,0.4093628,-3.203125,-0.9375,-2.3125,34
1695648774630,-0.3852539,-0.79888916,0.45037842,-0.0625,-2.6875,-2.5,35
1695648774670,-0.3955078,-0.815979,0.46087646,-1.625,0.21875,-2.8125,36
1695648774710,-0.3876953,-0.819397,0.43450928,-3.78125,0.15625,-0.640625,37
1695648774750,-0.39282227,-0.8010864,0.43597412,-0.9375,-0.625,-0.40625,38
1695648774790,-0.39257812,-0.8225708,0.45819092,0.484375,0.46875,0.46875,39
1695648774830,-0.3955078,-0.82940674,0.45770264,-1.703125,2.40625,1.609375,40
1695648774870,-0.38427734,-0.81256104,0.46136475,0.046875,2.109375,0.09375,41
1695648774910,-0.3671875,-0.80792236,0.46331787,0.078125,0.59375,0.1875,42
1695648774950,-0.37353516,-0.80670166,0.4713745,-0.125,0.0625,0.09375,43
1695648774990,-0.37573242,-0.8076782,0.47283936,0.296875,0.453125,0.4375,44
1695648775030,-0.37231445,-0.8135376,0.46209717,0.59375,0.59375,0.9375,45
1695648775070,-0.38305664,-0.8101196,0.46502686,-0.421875,-0.46875,0.203125,46
1695648775110,-0.37939453,-0.7966919,0.45843506,-1.046875,-0.34375,-0.328125,47
1695648775150,-0.39331055,-0.8076782,0.45599365,-0.8125,0.296875,0.96875,48
1695648775190,-0.3840332,-0.81427,0.46575928,-0.578125,0.65625,-0.015625,49
1695648775230,-0.37329102,-0.80914307,0.4640503,1.625,1.390625,-0.78125,50
1695648775270,-0.3791504,-0.800354,0.4701538,-0.234375,-0.359375,-0.875,51
1695648775310,-0.37036133,-0.8184204,0.46185303,-1.234375,0.640625,-1.453125,52
1695648775350,-0.3725586,-0.7920532,0.46380615,-1.375,-0.359375,-1.3125,53
1695648775390,-0.37646484,-0.79766846,0.47601318,0.5625,-1.140625,-0.515625,54
1695648775430,-0.38378906,-0.8115845,0.48138428,1.0625,-0.359375,0.234375,55
1695648775470,-0.38061523,-0.8140259,0.47235107,-0.546875,0.09375,0.125,56
1695648775510,-0.3918457,-0.79400635,0.46600342,-0.046875,-0.96875,-1.5,57
1695648775550,-0.39672852,-0.798645,0.47894287,-0.46875,-0.890625,-1.171875,58
1695648775590,-0.37890625,-0.7949829,0.47161865,-0.078125,-0.71875,-0.734375,59
1695648775630,-0.3762207,-0.8123169,0.48358154,1.21875,-0.25,-0.421875,60
1695648775670,-0.38476562,-0.81915283,0.47088623,0.71875,-0.21875,-0.0625,61
1695648775710,-0.38867188,-0.7949829,0.46722412,-0.46875,-0.1875,-0.9375,62
1695648775750,-0.39379883,-0.7932739,0.45916748,-0.6875,0.078125,0.8125,63
1695648775790,-0.38452148,-0.8015747,0.46697998,-0.875,-1.765625,-1.59375,64
1695648775830,-0.3864746,-0.79571533,0.47479248,-1.96875,-1.8125,-1.640625,65
1695648775870,-0.3959961,-0.8062134,0.4640503,-0.78125,-2.484375,-0.578125,66
1695648775910,-0.38916016,-0.7974243,0.47381592,-0.546875,-3.203125,-0.8125,67
1695648775950,-0.4033203,-0.7949829,0.48114014,-1.03125,-1.28125,-1.015625,68
1695648775990,-0.40771484,-0.7908325,0.4804077,1.0,0.28125,-0.75,69
1695648776030,-0.40307617,-0.7932739,0.45721436,0.6875,-0.15625,-0.796875,70
1695648776070,-0.41064453,-0.79278564,0.48553467,1.15625,0.71875,-0.75,71
1695648776110,-0.39526367,-0.81500244,0.4562378,-1.3125,0.203125,-0.875,72
1695648776150,-0.39990234,-0.78570557,0.47332764,0.34375,-0.390625,-0.703125,73
1695648776190,-0.40112305,-0.79766846,0.47625732,1.140625,-0.140625,-0.03125,74
1695648776230,-0.41577148,-0.7944946,0.47406006,0.234375,0.078125,-0.078125,75
1695648776270,-0.42578125,-0.7859497,0.4689331,0.125,0.15625,-0.28125,76
1695648776310,-0.40551758,-0.784729,0.4640503,0.46875,0.25,0.34375,77
1695648776350,-0.39282227,-0.8008423,0.47772217,1.265625,0.171875,0.078125,78
1695648776390,-0.4033203,-0.79473877,0.47357178,-1.1875,0.78125,0.03125,79
1695648776430,-0.4025879,-0.7905884,0.46209717,0.015625,0.984375,0.25,80
1695648776470,-0.40161133,-0.79278564,0.47528076,0.9375,0.203125,0.078125,81
1695648776510,-0.40014648,-0.79473877,0.47747803,-1.171875,0.828125,0.1875,82
1695648776550,-0.39453125,-0.788147,0.4706421,1.0,0.03125,-0.25,83
1695648776590,-0.39941406,-0.7835083,0.48944092,0.109375,-0.203125,-0.1875,84
1695648776630,-0.39770508,-0.7942505,0.46966553,0.390625,-0.046875,-0.328125,85
1695648776670,-0.40795898,-0.7979126,0.47454834,0.625,-0.921875,-0.265625,86
1695648776710,-0.41015625,-0.78619385,0.4713745,-0.84375,-0.234375,0.234375,87
1695648776750,-0.41015625,-0.79229736,0.47625732,-0.59375,-0.390625,-0.875,88
1695648776790,-0.41064453,-0.7876587,0.4713745,-1.421875,-0.53125,-0.703125,89
1695648776830,-0.40112305,-0.7839966,0.4713745,-0.296875,-0.03125,-0.5625,90
1695648776870,-0.4111328,-0.78326416,0.49066162,0.71875,-0.53125,-1.0,91
1695648776910,-0.41845703,-0.79278564,0.4730835,-0.90625,0.078125,-0.5625,92
1695648776950,-0.40942383,-0.7827759,0.46844482,-0.0625,0.0,-0.625,93
1695648776990,-0.40844727,-0.7932739,0.49017334,0.546875,0.265625,-0.234375,94
1695648777030,-0.4140625,-0.786438,0.48382568,-1.015625,0.78125,0.203125,95
1695648777070,-0.41015625,-0.77667236,0.4725952,-0.546875,0.625,-0.515625,96
1695648777110,-0.40600586,-0.7815552,0.49066162,0.328125,-0.1875,-0.015625,97
1695648777150,-0.4111328,-0.7764282,0.47991943,1.6875,0.25,0.5,98
1695648777190,-0.40966797,-0.7854614,0.47869873,0.859375,0.484375,0.578125,99
1695648777230,-0.4013672,-0.7920532,0.47747803,0.6875,0.3125,-0.21875,100
1695648777270,-0.40185547,-0.7817993,0.4850464,0.453125,-0.484375,-0.125,101
1695648777310,-0.41259766,-0.78497314,0.47332764,-0.21875,0.078125,0.125,102
1695648777350,-0.4086914,-0.79815674,0.48138428,-0.109375,0.234375,-0.40625,103
1695648777390,-0.4152832,-0.7817993,0.48114014,-1.796875,-0.0625,-0.90625,104
1695648777430,-0.4074707,-0.7827759,0.47332764,0.265625,0.625,-0.109375,105
1695648777470,-0.40551758,-0.78985596,0.48114014,0.90625,0.046875,-0.046875,106
1695648777510,-0.4033203,-0.78448486,0.48065186,0.78125,0.125,0.140625,107
1695648777550,-0.4111328,-0.79034424,0.48724365,0.984375,0.3125,0.125,108
1695648777590,-0.40722656,-0.7859497,0.47869873,0.765625,-0.28125,-0.109375,109
1695648777630,-0.41186523,-0.78741455,0.4772339,1.125,-0.125,0.046875,110
1695648777670,-0.40771484,-0.7774048,0.480896,-0.296875,-0.328125,-0.171875,111
1695648777710,-0.40795898,-0.7930298,0.4718628,1.109375,0.078125,-0.5,112
1695648777750,-0.4033203,-0.786438,0.4743042,-0.453125,-0.75,-0.875,113
1695648777790,-0.4189453,-0.78985596,0.47528076,-0.53125,-0.328125,-0.71875,114
1695648777830,-0.42089844,-0.7959595,0.4755249,-0.0625,1.140625,0.0625,115
1695648777870,-0.40844727,-0.7727661,0.48602295,-0.078125,-0.359375,-0.625,116
1695648777910,-0.4111328,-0.7798462,0.47894287,-0.28125,0.1875,-0.28125,117
1695648777950,-0.4177246,-0.7854614,0.48406982,0.140625,0.1875,-0.34375,118
1695648777990,-0.4091797,-0.77960205,0.4796753,0.078125,-0.390625,-0.296875,119
1695648778030,-0.40820312,-0.78570557,0.48284912,0.328125,0.078125,0.265625,120
1695648778070,-0.41357422,-0.7842407,0.4935913,0.203125,0.234375,-0.140625,121
1695648778110,-0.40966797,-0.77593994,0.4772339,0.140625,0.34375,-0.1875,122
1695648778150,-0.41479492,-0.7835083,0.47991943,0.53125,0.375,-0.015625,123
1695648778190,-0.41381836,-0.7774048,0.48016357,0.046875,0.6875,-0.421875,124
1695648778230,-0.4169922,-0.7803345,0.4833374,0.46875,0.234375,-0.140625,125
1695648778270,-0.40698242,-0.7839966,0.4833374,0.84375,0.1875,-0.109375,126
1695648778310,-0.41845703,-0.7852173,0.4772339,0.8125,-0.28125,0.015625,127
1695648778350,-0.4140625,-0.78009033,0.47821045,0.09375,0.015625,-0.453125,128
1695648778390,-0.4189453,-0.79034424,0.4779663,1.53125,-0.234375,0.40625,129
1695648778430,-0.4309082,-0.78619385,0.4882202,0.046875,1.109375,0.359375,130
1695648778470,-0.40307617,-0.7739868,0.4664917,-0.171875,0.203125,-0.921875,131
1695648778510,-0.4038086,-0.7744751,0.48968506,1.4375,-0.25,-1.234375,132
1695648778550,-0.41430664,-0.78204346,0.465271,-0.15625,-0.453125,-0.5625,133
1695648778590,-0.4206543,-0.7979126,0.4869995,1.265625,-0.796875,-0.875,134
1695648778630,-0.421875,-0.7918091,0.47821045,0.96875,0.671875,0.859375,135
1695648778670,-0.41918945,-0.77593994,0.47576904,-0.15625,1.109375,0.921875,136
1695648778710,-0.4169922,-0.77423096,0.47869873,0.296875,0.5,0.8125,137
1695648778750,-0.41870117,-0.7810669,0.48431396,0.515625,0.171875,0.234375,138
1695648778790,-0.4189453,-0.7905884,0.47601318,-1.0,0.484375,-0.390625,139
1695648778830,-0.4099121,-0.78302,0.4821167,-0.765625,0.921875,-0.3125,140
1695648778870,-0.40551758,-0.77911377,0.49163818,0.359375,0.484375,0.234375,141
1695648778910,-0.40307617,-0.7859497,0.48382568,0.5625,-0.078125,-0.25,142
1695648778950,-0.40722656,-0.78570557,0.47991943,0.875,-0.5,-0.34375,143
1695648778990,-0.41455078,-0.78619385,0.48651123,1.078125,-0.1875,-0.328125,144
1695648779030,-0.4182129,-0.78131104,0.47747803,0.609375,-0.515625,-0.109375,145
1695648779070,-0.4206543,-0.7908325,0.46917725,0.203125,-0.09375,-0.21875,146
1695648779110,-0.4086914,-0.7822876,0.47943115,0.78125,-0.328125,-0.265625,147
1695648779150,-0.40893555,-0.7918091,0.47821045,0.328125,-0.015625,-0.5,148
1695648779190,-0.41992188,-0.7901001,0.47650146,0.046875,0.078125,-0.1875,149
1695648779230,-0.41503906,-0.784729,0.4743042,0.28125,0.53125,-0.28125,150
1695648779270,-0.4104004,-0.7822876,0.48944092,1.296875,-0.296875,-0.34375,151
1695648779310,-0.4128418,-0.7883911,0.47528076,-0.265625,0.25,-0.3125,152
1695648779350,-0.4116211,-0.7671509,0.46966553,0.453125,-0.21875,-0.546875,153
1695648779390,-0.4169922,-0.7901001,0.4862671,1.203125,-1.09375,-0.515625,154
1695648779430,-0.43676758,-0.79571533,0.4755249,-1.09375,0.53125,-0.3125,155
1695648779470,-0.421875,-0.7854614,0.4677124,0.359375,1.375,0.21875,156
1695648779510,-0.42749023,-0.7866821,0.479187,-0.5,0.671875,0.546875,157
1695648779550,-0.3930664,-0.7695923,0.48529053,2.140625,0.5,-0.34375,158
1695648779590,-0.40771484,-0.78985596,0.48651123,0.796875,-0.1875,0.765625,159
1695648779630,-0.41870117,-0.7901001,0.47283936,-1.25,1.046875,0.0,160
1695648779670,-0.4111328,-0.7810669,0.47772217,0.0,0.21875,-0.078125,161
1695648779710,-0.40356445,-0.7786255,0.4772339,0.3125,-0.015625,0.296875,162
1695648779750,-0.41430664,-0.7859497,0.48138428,1.171875,-0.0625,0.578125,163
1695648779790,-0.4194336,-0.7925415,0.47406006,1.390625,-0.328125,-0.046875,164
1695648779830,-0.41064453,-0.784729,0.47894287,1.828125,1.6875,-0.265625,165
1695648779870,-0.41430664,-0.79400635,0.49017334,1.5625,2.734375,1.515625,166
1695648779910,-0.42333984,-0.7896118,0.4928589,2.015625,2.71875,1.84375,167
1695648779950,-0.40673828,-0.7925415,0.4767456,1.5625,0.9375,0.453125,168
1695648779990,-0.39575195,-0.77545166,0.48114014,2.8125,0.875,0.9375,169
1695648780030,-0.38964844,-0.80426025,0.463562,-0.15625,1.640625,0.984375,170
1695648780070,-0.39746094,-0.7954712,0.47698975,0.546875,1.09375,0.125,171
1695648780110,-0.39257812,-0.7901001,0.46185303,-1.421875,-0.28125,-0.171875,172
1695648780150,-0.3947754,-0.7827759,0.47991943,0.296875,-0.8125,-0.5625,173
1695648780190,-0.3984375,-0.8032837,0.47698975,0.046875,-0.78125,-0.40625,174
1695648780230,-0.4111328,-0.79156494,0.4713745,-1.1875,-0.34375,-0.71875,175
1695648780270,-0.41015625,-0.78375244,0.46624756,0.28125,-0.65625,-0.453125,176
1695648780310,-0.41235352,-0.7932739,0.4887085,1.1875,-0.734375,0.265625,177
1695648780350,-0.40722656,-0.7930298,0.47869873,0.640625,-0.890625,0.375,178
1695648780390,-0.39672852,-0.7842407,0.46746826,0.390625,-0.4375,-0.390625,179
1695648780430,-0.41308594,-0.7920532,0.4689331,-0.15625,-0.3125,0.671875,180
1695648780470,-0.40893555,-0.7949829,0.480896,-0.703125,0.171875,-0.09375,181
1695648780510,-0.39819336,-0.78863525,0.479187,0.40625,0.703125,0.21875,182
1695648780550,-0.39794922,-0.78448486,0.47381592,0.390625,0.546875,0.265625,183
1695648780590,-0.40576172,-0.79766846,0.47576904,0.8125,-0.046875,0.0625,184
1695648780630,-0.40551758,-0.7954712,0.47406006,-0.15625,-0.25,-0.171875,185
1695648780670,-0.4091797,-0.7839966,0.48065186,-0.015625,0.3125,0.03125,186
1695648780710,-0.4013672,-0.784729,0.4725952,0.484375,-0.203125,-0.046875,187
1695648780750,-0.40551758,-0.7908325,0.47161865,1.265625,-0.671875,-0.328125,188
1695648780790,-0.4104004,-0.7954712,0.48675537,0.140625,0.4375,-0.359375,189
1695648780830,-0.41333008,-0.80303955,0.46380615,-1.375,0.09375,-0.453125,190
1695648780870,-0.40307617,-0.7786255,0.47869873,0.25,-0.078125,-0.328125,191
1695648780910,-0.40405273,-0.79473877,0.48382568,0.21875,-0.265625,-0.109375,192
1695648780950,-0.40966797,-0.7974243,0.48553467,-0.859375,-0.03125,-0.15625,193
1695648780990,-0.40161133,-0.78570557,0.480896,-0.015625,0.1875,-0.375,194
1695648781030,-0.40771484,-0.7949829,0.47772217,-0.1875,-0.171875,0.21875,195
1695648781070,-0.40942383,-0.7805786,0.47503662,0.015625,-0.140625,-0.03125,196
1695648781110,-0.40307617,-0.79473877,0.47894287,-0.421875,0.1875,-0.59375,197
1695648781150,-0.41357422,-0.7888794,0.48651123,-0.375,0.15625,0.640625,198
1695648781190,-0.4050293,-0.78326416,0.48114014,0.515625,-0.484375,-0.296875,199
1695648781230,-0.4025879,-0.7925415,0.48406982,-0.25,-0.15625,-0.3125,200
1695648781270,-0.3959961,-0.7920532,0.47113037,-0.984375,0.4375,0.03125,201
1695648781310,-0.42114258,-0.7871704,0.479187,-0.765625,-0.1875,0.21875,202
1695648781350,-0.41235352,-0.78082275,0.47869873,0.46875,0.578125,0.28125,203
1695648781390,-0.40551758,-0.78863525,0.48138428,0.734375,0.984375,0.5,204
1695648781430,-0.40356445,-0.79107666,0.48529053,1.1875,1.1875,0.4375,205
1695648781470,-0.4020996,-0.7803345,0.48260498,1.1875,1.046875,0.09375,206
1695648781510,-0.39990234,-0.79278564,0.47821045,1.0,0.1875,-0.046875,207
1695648781550,-0.40283203,-0.7871704,0.49310303,1.796875,0.734375,0.53125,208
1695648781590,-0.4025879,-0.7971802,0.47406006,-1.359375,0.5625,0.1875,209
1695648781630,-0.39746094,-0.7749634,0.4869995,-0.328125,0.109375,-0.625,210
1695648781670,-0.38842773,-0.78741455,0.4923706,0.265625,-0.296875,-0.640625,211
1695648781710,-0.40527344,-0.78619385,0.4862671,-0.296875,-0.265625,-0.046875,212
1695648781750,-0.40844727,-0.78082275,0.47503662,0.03125,-0.15625,-0.484375,213
1695648781790,-0.40454102,-0.7839966,0.48309326,-0.015625,-0.390625,-0.03125,214
1695648781830,-0.40478516,-0.7852173,0.4869995,0.421875,-0.09375,0.25,215
1695648781870,-0.39770508,-0.78692627,0.48895264,0.328125,-0.15625,-0.484375,216
1695648781910,-0.40405273,-0.7888794,0.4850464,0.546875,-0.234375,-0.109375,217
1695648781950,-0.40478516,-0.7913208,0.48162842,0.78125,0.453125,-0.515625,218
1695648781990,-0.40722656,-0.7896118,0.48724365,0.515625,0.34375,0.328125,219
1695648782030,-0.40600586,-0.77471924,0.48236084,0.59375,-0.03125,0.0625,220
1695648782070,-0.40039062,-0.7905884,0.48016357,0.171875,-0.09375,-0.171875,221
1695648782110,-0.40429688,-0.786438,0.47772217,0.46875,0.5,-0.1875,222
1695648782150,-0.4050293,-0.78302,0.49383545,-0.953125,-0.265625,-1.046875,223
1695648782190,-0.40551758,-0.7827759,0.48724365,-1.078125,-0.125,-0.71875,224
1695648782230,-0.40600586,-0.79034424,0.48382568,-0.3125,0.234375,-0.328125,225
1695648782270,-0.41064453,-0.77911377,0.4928589,1.25,0.453125,0.015625,226
1695648782310,-0.40771484,-0.78131104,0.4857788,-0.25,0.5625,-0.09375,227
1695648782350,-0.40795898,-0.78082275,0.49139404,0.625,0.4375,-0.734375,228
1695648782390,-0.41186523,-0.77960205,0.48187256,-1.375,-0.265625,-0.5,229
1695648782430,-0.4074707,-0.7852173,0.48919678,0.71875,-0.25,-0.640625,230
1695648782470,-0.41503906,-0.7920532,0.4940796,0.140625,0.0625,0.09375,231
1695648782510,-0.41455078,-0.78375244,0.48382568,-0.53125,0.75,-0.171875,232
1695648782550,-0.40942383,-0.77593994,0.48968506,0.40625,0.09375,-0.0625,233
1695648782590,-0.41137695,-0.7810669,0.4911499,0.03125,0.328125,0.203125,234
1695648782630,-0.40722656,-0.784729,0.48773193,0.375,0.328125,0.40625,235
1695648782670,-0.4033203,-0.78009033,0.49188232,0.140625,0.015625,-0.328125,236
1695648782710,-0.40673828,-0.7852173,0.4953003,0.890625,-0.125,0.265625,237
1695648782750,-0.41064453,-0.7810669,0.48724365,0.140625,0.390625,-0.046875,238
1695648782790,-0.41455078,-0.78692627,0.49505615,0.28125,0.015625,0.03125,239
1695648782830,-0.40795898,-0.7781372,0.494812,-1.234375,-0.109375,-1.15625,240
1695648782870,-0.40478516,-0.7793579,0.48919678,0.609375,0.125,-0.28125,241
1695648782910,-0.4091797,-0.7822876,0.4935913,0.0625,-0.359375,-0.203125,242
1695648782950,-0.4128418,-0.7859497,0.4845581,0.5,0.078125,-0.046875,243
1695648782990,-0.4165039,-0.7769165,0.49871826,0.15625,0.375,0.078125,244
1695648783030,-0.40551758,-0.7703247,0.4899292,0.390625,-0.09375,-0.265625,245
1695648783070,-0.41088867,-0.78204346,0.48895264,0.453125,-0.140625,-0.515625,246
1695648783110,-0.4152832,-0.7769165,0.49725342,0.734375,-0.046875,-0.09375,247
1695648783150,-0.40576172,-0.7893677,0.4887085,-0.3125,-0.015625,-0.421875,248
1695648783190,-0.40478516,-0.7710571,0.496521,0.8125,0.96875,-0.5,249
1695648783230,-0.41088867,-0.7817993,0.4821167,-1.46875,0.109375,-0.28125,250
1695648783270,-0.41967773,-0.7727661,0.49017334,-0.328125,-0.015625,-0.625,251
1695648783310,-0.42089844,-0.786438,0.49456787,0.375,0.328125,0.03125,252
1695648783350,-0.41503906,-0.77545166,0.49383545,-0.296875,0.765625,-0.03125,253
1695648783390,-0.40576172,-0.7732544,0.48553467,-0.109375,0.34375,-0.296875,254
1695648783430,-0.4104004,-0.77471924,0.49163818,0.640625,0.203125,-0.0625,255
1695648783470,-0.40966797,-0.7756958,0.48968506,0.921875,-0.109375,0.234375,256
1695648783510,-0.40454102,-0.78302,0.49871826,0.78125,1.0,-0.0625,257
1695648783550,-0.41845703,-0.7871704,0.51068115,1.15625,2.9375,1.640625,258
1695648783590,-0.4169922,-0.77838135,0.5031128,1.390625,1.515625,1.25,259
1695648783630,-0.40112305,-0.7737427,0.48236084,2.53125,-0.21875,0.390625,260
1695648783670,-0.4020996,-0.78375244,0.4960327,0.59375,0.375,1.15625,261
1695648783710,-0.3930664,-0.78131104,0.49066162,0.875,0.125,0.421875,262
1695648783750,-0.39501953,-0.78985596,0.49139404,-0.171875,-0.734375,-0.34375,263
1695648783790,-0.40576172,-0.7786255,0.47869873,0.546875,-0.03125,-0.09375,264
1695648783830,-0.4086914,-0.7871704,0.48529053,0.796875,-0.5,0.046875,265
1695648783870,-0.3984375,-0.7822876,0.48406982,-0.640625,-0.40625,-0.5,266
1695648783910,-0.40625,-0.7781372,0.48016357,0.59375,-0.46875,-0.1875,267
1695648783950,-0.4086914,-0.7908325,0.48724365,0.109375,-0.59375,-0.28125,268
1695648783990,-0.4140625,-0.7793579,0.49627686,1.9375,-0.8125,0.453125,269
1695648784030,-0.4050293,-0.78619385,0.49212646,-0.171875,-0.796875,-0.296875,270
1695648784070,-0.40063477,-0.7810669,0.48016357,-0.171875,0.046875,-0.046875,271
1695648784110,-0.40478516,-0.7805786,0.48675537,-0.75,-0.359375,0.109375,272
1695648784150,-0.4050293,-0.78131104,0.48529053,0.390625,-0.3125,-0.375,273
1695648784190,-0.40673828,-0.7871704,0.49017334,0.453125,0.0625,0.015625,274
1695648784230,-0.41259766,-0.7788696,0.48309326,0.125,0.3125,0.015625,275
1695648784270,-0.40893555,-0.7835083,0.4874878,-0.1875,0.125,-0.21875,276
1695648784310,-0.4050293,-0.784729,0.4869995,0.15625,0.09375,0.03125,277
1695648784350,-0.40844727,-0.7803345,0.49432373,1.21875,0.046875,0.296875,278
1695648784390,-0.40625,-0.7930298,0.48529053,0.359375,0.59375,-0.09375,279
1695648784430,-0.4025879,-0.7822876,0.49456787,0.484375,0.265625,0.015625,280
1695648784470,-0.3984375,-0.7822876,0.48797607,0.609375,0.109375,-0.09375,281
1695648784510,-0.40625,-0.78131104,0.4869995,0.453125,0.03125,-0.171875,282
1695648784550,-0.4099121,-0.7866821,0.48553467,0.140625,0.375,-0.1875,283
1695648784590,-0.40014648,-0.7866821,0.48724365,0.59375,-0.125,-0.21875,284
1695648784630,-0.40966797,-0.78497314,0.48651123,-0.046875,0.484375,0.015625,285
1695648784670,-0.40454102,-0.77960205,0.48480225,0.46875,0.75,0.015625,286
1695648784710,-0.40161133,-0.78692627,0.48944092,0.203125,0.640625,-0.15625,287
1695648784750,-0.40576172,-0.78009033,0.48406982,0.140625,0.125,-0.078125,288
1695648784790,-0.40771484,-0.7803345,0.49432373,0.78125,0.21875,-0.015625,289
1695648784830,-0.39819336,-0.78985596,0.48382568,0.5625,0.453125,0.0,290
1695648784870,-0.40405273,-0.78009033,0.48773193,0.609375,0.03125,-0.0625,291
1695648784910,-0.40234375,-0.7893677,0.4833374,0.390625,0.28125,-0.40625,292
1695648784950,-0.4008789,-0.78448486,0.49554443,1.34375,0.703125,-0.3125,293
1695648784990,-0.4091797,-0.78790283,0.4796753,-0.578125,0.40625,-0.28125,294
1695648785030,-0.40527344,-0.7793579,0.4845581,0.21875,-0.015625,-0.5,295
1695648785070,-0.39916992,-0.79278564,0.4911499,0.296875,-0.203125,-0.046875,296
1695648785110,-0.40771484,-0.7866821,0.48895264,-0.296875,0.515625,0.40625,297
1695648785150,-0.40600586,-0.78302,0.49188232,0.015625,-0.046875,-0.296875,298
1695648785190,-0.41308594,-0.78009033,0.49920654,0.484375,0.328125,0.25,299
1695648785230,-0.40405273,-0.7803345,0.48406982,1.234375,-0.0625,0.34375,300
1695648785270,-0.3947754,-0.78448486,0.4928589,1.859375,0.21875,0.578125,301
1695648785310,-0.40673828,-0.7866821,0.4869995,-0.765625,0.78125,-0.625,302
1695648785350,-0.40307617,-0.78692627,0.48724365,-0.421875,0.484375,-1.046875,303
1695648785390,-0.39892578,-0.7793579,0.48968506,-1.109375,0.28125,-0.34375,304
1695648785430,-0.40527344,-0.78326416,0.48846436,-0.09375,0.125,0.03125,305
1695648785470,-0.40405273,-0.7835083,0.49334717,0.859375,-0.15625,0.265625,306
1695648785510,-0.39282227,-0.7839966,0.5006714,0.578125,-0.0625,0.125,307
1695648785550,-0.39672852,-0.77471924,0.48919678,0.453125,-0.265625,-0.203125,308
1695648785590,-0.4050293,-0.7715454,0.48358154,-0.078125,-0.390625,-0.765625,309
1695648785630,-0.40795898,-0.786438,0.48919678,-0.96875,-0.28125,-0.46875,310
1695648785670,-0.41015625,-0.78570557,0.4887085,-0.15625,-0.140625,-0.484375,311
1695648785710,-0.4104004,-0.7827759,0.49456787,0.0625,0.203125,-0.234375,312
1695648785750,-0.41381836,-0.7769165,0.49969482,0.78125,0.0,0.0625,313
1695648785790,-0.4013672,-0.78204346,0.48919678,0.46875,0.0625,-0.328125,314
1695648785830,-0.40625,-0.78082275,0.49871826,0.3125,0.578125,-0.5,315
1695648785870,-0.4086914,-0.78009033,0.48675537,-0.734375,0.140625,-0.28125,316
1695648785910,-0.41333008,-0.77227783,0.48773193,-0.03125,-0.234375,-0.59375,317
1695648785950,-0.40966797,-0.7810669,0.494812,0.171875,-0.109375,-0.46875,318
1695648785990,-0.41357422,-0.7737427,0.49310303,-0.5,0.203125,-0.515625,319
1695648786030,-0.4169922,-0.77838135,0.48480225,-0.09375,0.03125,-0.578125,320
1695648786070,-0.41552734,-0.7896118,0.49310303,1.53125,0.28125,0.171875,321
1695648786110,-0.41064453,-0.78570557,0.5018921,0.921875,0.6875,0.546875,322
1695648786150,-0.40820312,-0.7642212,0.49798584,-0.5625,0.3125,-0.546875,323
1695648786190,-0.4111328,-0.76885986,0.48553467,0.34375,-0.140625,-0.328125,324
1695648786230,-0.41430664,-0.7859497,0.5014038,0.78125,0.1875,0.359375,325
1695648786270,-0.4104004,-0.7815552,0.49993896,0.90625,-0.0625,0.15625,326
1695648786310,-0.40527344,-0.7776489,0.4850464,1.484375,0.296875,0.109375,327
1695648786350,-0.40600586,-0.7769165,0.48065186,2.0625,0.234375,0.5625,328
1695648786390,-0.40722656,-0.77911377,0.49261475,1.546875,0.171875,0.59375,329
1695648786430,-0.41455078,-0.7774048,0.48895264,0.9375,0.34375,0.3125,330
1695648786470,-0.40673828,-0.788147,0.49041748,2.375,0.265625,0.359375,331
1695648786510,-0.40966797,-0.7817993,0.48651123,1.8125,0.375,0.59375,332
1695648786550,-0.39794922,-0.79571533,0.4850464,1.0,0.5,0.375,333
1695648786590,-0.39526367,-0.784729,0.48236084,1.109375,0.1875,0.234375,334
1695648786630,-0.40844727,-0.7815552,0.49139404,0.953125,0.234375,0.34375,335
1695648786670,-0.4086914,-0.7918091,0.480896,-0.0625,0.421875,-0.25,336
1695648786710,-0.40185547,-0.78497314,0.49163818,0.03125,0.921875,-0.484375,337
1695648786750,-0.40112305,-0.7913208,0.47283936,-2.21875,0.125,-0.8125,338
1695648786790,-0.40405273,-0.78204346,0.48919678,-1.65625,0.078125,-1.578125,339
1695648786830,-0.39941406,-0.7883911,0.48895264,-1.203125,0.0625,-1.09375,340
1695648786870,-0.4104004,-0.78375244,0.49041748,-1.40625,0.578125,-0.9375,341
1695648786910,-0.41455078,-0.78375244,0.48309326,-0.328125,0.5,-0.90625,342
1695648786950,-0.41381836,-0.7798462,0.4923706,0.515625,0.3125,0.34375,343
1695648786990,-0.40356445,-0.77838135,0.49261475,0.484375,0.078125,0.109375,344
1695648787030,-0.4033203,-0.77716064,0.4862671,-0.3125,-0.25,-0.59375,345
1695648787070,-0.40576172,-0.7764282,0.5009155,-0.96875,-0.328125,-1.078125,346
1695648787110,-0.41381836,-0.7793579,0.49725342,-1.640625,-0.5625,-1.421875,347
1695648787150,-0.40722656,-0.7764282,0.50115967,-2.109375,-0.390625,-1.4375,348
1695648787190,-0.42163086,-0.77301025,0.5001831,-1.203125,-0.078125,-0.828125,349
1695648787230,-0.4128418,-0.767395,0.49700928,0.5,0.609375,-0.59375,350
1695648787270,-0.40893555,-0.786438,0.51678467,3.03125,5.046875,1.375,351
1695648787310,-0.44140625,-0.7842407,0.5116577,1.5625,3.28125,3.921875,352
1695648787350,-0.41674805,-0.76031494,0.5145874,5.15625,0.015625,1.140625,353
1695648787390,-0.39990234,-0.7774048,0.5048218,2.625,1.09375,1.015625,354
1695648787430,-0.39086914,-0.7776489,0.4874878,-2.171875,0.265625,0.203125,355
1695648787470,-0.40942383,-0.78131104,0.5126343,-1.03125,0.34375,-0.34375,356
1695648787510,-0.40966797,-0.7839966,0.5062866,-3.03125,1.46875,0.5,357
1695648787550,-0.40527344,-0.77960205,0.47650146,-4.9375,0.234375,-0.28125,358
1695648787590,-0.38720703,-0.7605591,0.49066162,-3.421875,-0.390625,-0.125,359
1695648787630,-0.38378906,-0.7593384,0.48651123,-5.03125,0.015625,0.375,360
1695648787670,-0.38745117,-0.75982666,0.5162964,-2.203125,-2.5,-1.453125,361
1695648787710,-0.39648438,-0.7698364,0.52264404,-2.171875,-1.890625,-1.71875,362
1695648787750,-0.41186523,-0.7647095,0.5228882,0.609375,-1.140625,0.046875,363
1695648787790,-0.4074707,-0.7595825,0.5307007,0.15625,-0.84375,-1.140625,364
1695648787830,-0.40527344,-0.755188,0.5153198,0.453125,-0.734375,-0.453125,365
1695648787870,-0.4182129,-0.7588501,0.5165405,2.125,-0.546875,0.375,366
1695648787910,-0.41503906,-0.76446533,0.5084839,0.703125,-0.03125,-0.484375,367
1695648787950,-0.4169922,-0.76275635,0.50946045,1.5625,0.109375,0.03125,368
1695648787990,-0.41064453,-0.77008057,0.51361084,1.40625,0.578125,0.609375,369
1695648788030,-0.40576172,-0.7654419,0.5182495,1.203125,1.1875,0.375,370
1695648788070,-0.40795898,-0.7630005,0.5126343,0.375,1.046875,0.265625,371
1695648788110,-0.40722656,-0.7647095,0.5109253,0.125,0.578125,0.1875,372
1695648788150,-0.40014648,-0.7630005,0.5162964,0.796875,-0.171875,-0.109375,373
1695648788190,-0.40039062,-0.7608032,0.5075073,1.734375,-1.171875,-0.203125,374
1695648788230,-0.4074707,-0.7671509,0.5062866,2.71875,-1.3125,-0.53125,375
1695648788270,-0.4116211,-0.7803345,0.5072632,3.46875,-0.078125,-0.46875,376
1695648788310,-0.4243164,-0.7756958,0.5018921,2.859375,-0.125,0.484375,377
1695648788350,-0.4284668,-0.77227783,0.50042725,1.9375,0.4375,0.671875,378
1695648788390,-0.41381836,-0.7908325,0.494812,0.984375,2.21875,0.921875,379
1695648788430,-0.4194336,-0.7822876,0.49505615,-1.84375,2.15625,1.765625,380
1695648788470,-0.4013672,-0.76568604,0.49700928,0.328125,0.96875,0.5,381
1695648788510,-0.39453125,-0.7769165,0.5043335,0.078125,1.1875,1.09375,382
1695648788550,-0.3930664,-0.7683716,0.50823975,-0.59375,1.171875,1.0,383
1695648788590,-0.38720703,-0.7737427,0.51239014,0.359375,0.65625,-0.109375,384
1695648788630,-0.38964844,-0.7793579,0.512146,1.171875,0.59375,0.640625,385
1695648788670,-0.3935547,-0.78131104,0.5075073,1.015625,0.234375,0.5625,386
1695648788710,-0.39282227,-0.7715454,0.5026245,0.28125,0.21875,-0.3125,387
1695648788750,-0.38891602,-0.7727661,0.496521,-0.140625,0.0625,-0.015625,388
1695648788790,-0.40112305,-0.7737427,0.50164795,1.078125,-0.703125,-0.5625,389
1695648788830,-0.40014648,-0.7737427,0.50994873,1.328125,-0.890625,-0.890625,390
1695648788870,-0.40429688,-0.77838135,0.50164795,0.78125,-0.6875,-0.5625,391
1695648788910,-0.40771484,-0.78326416,0.50286865,1.171875,-0.578125,-0.09375,392
1695648788950,-0.40527344,-0.7822876,0.50042725,0.53125,-0.078125,0.234375,393
1695648788990,-0.4033203,-0.78009033,0.4911499,0.421875,-0.40625,-0.078125,394
1695648789030,-0.39746094,-0.7803345,0.49798584,0.921875,-0.140625,0.015625,395
1695648789070,-0.40600586,-0.7752075,0.5023804,0.171875,-0.125,-0.3125,396
1695648789110,-0.39453125,-0.7764282,0.4874878,0.359375,-0.4375,-0.25,397
1695648789150,-0.39770508,-0.77227783,0.5050659,1.796875,0.171875,0.046875,398
1695648789190,-0.39160156,-0.79034424,0.48797607,-0.125,0.28125,-0.078125,399
1695648789230,-0.40429688,-0.7822876,0.49261475,0.171875,-0.78125,-0.71875,400
1695648789270,-0.39111328,-0.78912354,0.49725342,1.171875,-0.515625,-0.1875,401
1695648789310,-0.4116211,-0.7913208,0.48968506,0.265625,0.578125,0.203125,402
1695648789350,-0.40625,-0.7732544,0.4911499,0.0625,0.046875,-0.3125,403
1695648789390,-0.4020996,-0.7798462,0.49139404,0.71875,-0.234375,0.0,404
1695648789430,-0.39672852,-0.7749634,0.48895264,0.53125,0.59375,0.34375,405
1695648789470,-0.40039062,-0.7776489,0.49700928,0.25,0.34375,0.25,406
1695648789510,-0.4099121,-0.77545166,0.49676514,-0.65625,-0.28125,-0.421875,407
1695648789550,-0.39575195,-0.7798462,0.4960327,0.65625,-0.09375,-0.28125,408
1695648789590,-0.4050293,-0.7788696,0.49749756,0.453125,-0.921875,0.03125,409
1695648789630,-0.40039062,-0.7803345,0.4953003,0.140625,0.4375,-0.265625,410
1695648789670,-0.4025879,-0.78302,0.50115967,1.421875,-0.296875,0.03125,411
1695648789710,-0.4033203,-0.77789307,0.4977417,0.34375,-0.1875,0.015625,412
1695648789750,-0.4033203,-0.7793579,0.49456787,0.84375,0.203125,-0.140625,413
1695648789790,-0.40527344,-0.78082275,0.49261475,0.828125,-0.53125,-0.171875,414
1695648789830,-0.40795898,-0.78326416,0.48968506,0.296875,-0.15625,-0.0625,415
1695648789870,-0.40454102,-0.78448486,0.4953003,0.21875,0.0,-0.125,416
1695648789910,-0.40527344,-0.77667236,0.4928589,0.90625,-0.359375,-0.21875,417
1695648789950,-0.40234375,-0.78131104,0.48382568,-0.125,-0.1875,-0.21875,418
1695648789990,-0.39990234,-0.7810669,0.5060425,1.359375,0.71875,-0.03125,419
1695648790030,-0.40771484,-0.7810669,0.48187256,-1.59375,0.09375,-0.140625,420
1695648790070,-0.4038086,-0.7695923,0.49627686,0.328125,-0.53125,-0.671875,421
1695648790110,-0.40405273,-0.78082275,0.49578857,0.3125,0.046875,0.046875,422
1695648790150,-0.40454102,-0.7803345,0.49066162,-0.1875,-0.09375,-0.25,423
1695648790190,-0.40429688,-0.7871704,0.49749756,0.0,0.359375,-0.25,424
1695648790230,-0.40551758,-0.7764282,0.49017334,0.640625,0.71875,0.46875,425
1695648790270,-0.40307617,-0.77593994,0.4928589,1.484375,-0.296875,0.203125,426
1695648790310,-0.40283203,-0.78912354,0.49017334,-0.421875,0.109375,-0.4375,427
1695648790350,-0.40649414,-0.7852173,0.4928589,0.734375,-0.171875,-0.28125,428
1695648790390,-0.40527344,-0.7822876,0.496521,1.25,0.140625,0.15625,429
1695648790430,-0.40478516,-0.7798462,0.48895264,0.78125,-0.109375,0.203125,430
1695648790470,-0.40844727,-0.78204346,0.48480225,0.375,0.171875,0.046875,431
1695648790510,-0.40478516,-0.7781372,0.48944092,-0.1875,-0.359375,-0.09375,432
1695648790550,-0.41381836,-0.78204346,0.4953003,0.109375,0.03125,-0.09375,433
1695648790590,-0.40405273,-0.78570557,0.49041748,0.328125,-0.171875,-0.3125,434
1695648790630,-0.4091797,-0.77227783,0.48797607,0.359375,0.203125,-0.15625,435
1695648790670,-0.40429688,-0.7905884,0.48529053,0.0625,1.125,0.03125,436
1695648790710,-0.40551758,-0.7815552,0.4923706,0.265625,0.28125,-0.1875,437
1695648790750,-0.4025879,-0.7866821,0.48236084,0.0,0.1875,-0.046875,438
1695648790790,-0.40966797,-0.77227783,0.49700928,1.65625,-0.34375,0.125,439
1695648790830,-0.4025879,-0.78863525,0.4869995,0.625,0.171875,-0.09375,440
1695648790870,-0.40112305,-0.7737427,0.47894287,-0.625,-0.40625,-0.828125,441
1695648790910,-0.40649414,-0.7786255,0.49822998,0.078125,0.015625,-0.53125,442
1695648790950,-0.40722656,-0.78570557,0.49578857,0.453125,0.125,0.203125,443
1695648790990,-0.40893555,-0.7774048,0.4850464,-0.5625,-0.140625,-0.234375,444
1695648791030,-0.4020996,-0.78375244,0.4850464,0.953125,1.078125,0.15625,445
1695648791070,-0.4074707,-0.78009033,0.49505615,1.09375,0.03125,0.28125,446
1695648791110,-0.40429688,-0.7703247,0.494812,0.078125,0.546875,0.015625,447
1695648791150,-0.40356445,-0.786438,0.49554443,0.3125,0.046875,-0.296875,448
1695648791190,-0.40625,-0.77960205,0.49188232,0.875,-0.015625,-0.203125,449
1695648791230,-0.40527344,-0.78375244,0.48553467,0.578125,0.21875,-0.015625,450
1695648791270,-0.40698242,-0.78790283,0.4977417,1.015625,0.234375,0.0625,451
1695648791310,-0.40673828,-0.7737427,0.4882202,0.453125,-0.171875,-0.203125,452
1695648791350,-0.41796875,-0.7815552,0.4899292,0.3125,-0.296875,-0.359375,453
1695648791390,-0.40722656,-0.7883911,0.4887085,0.4375,-0.09375,0.15625,454
1695648791430,-0.4140625,-0.7815552,0.49188232,-0.625,-0.140625,-0.4375,455
1695648791470,-0.41064453,-0.7764282,0.49432373,0.59375,0.015625,0.1875,456
1695648791510,-0.40771484,-0.7815552,0.49700928,-1.0,0.09375,-0.59375,457
1695648791550,-0.40478516,-0.77545166,0.48675537,0.828125,0.78125,-0.015625,458
1695648791590,-0.41723633,-0.7769165,0.49383545,0.234375,-0.84375,-0.484375,459
1695648791630,-0.40625,-0.78082275,0.5026245,2.53125,0.03125,0.65625,460
1695648791670,-0.41625977,-0.7932739,0.49822998,-0.609375,0.515625,-0.359375,461
1695648791710,-0.41137695,-0.7649536,0.48675537,-1.578125,0.09375,-1.4375,462
1695648791750,-0.40795898,-0.7683716,0.49310303,-1.03125,-0.328125,-1.921875,463
1695648791790,-0.40893555,-0.788147,0.48797607,-1.421875,0.65625,-0.21875,464
1695648791830,-0.41333008,-0.7739868,0.49139404,-0.796875,0.0,-1.1875,465
1695648791870,-0.40893555,-0.7835083,0.4923706,-0.171875,0.203125,-0.203125,466
1695648791910,-0.41870117,-0.76934814,0.49993896,1.203125,0.078125,0.203125,467
1695648791950,-0.4099121,-0.772522,0.496521,-0.484375,-0.078125,-0.625,468
1695648791990,-0.4165039,-0.772522,0.49066162,-0.734375,0.078125,-0.703125,469
1695648792030,-0.41796875,-0.7827759,0.5026245,0.75,0.0,0.09375,470
1695648792070,-0.4104004,-0.7822876,0.49261475,0.8125,0.0,-0.1875,471
1695648792110,-0.41357422,-0.772522,0.5014038,-0.28125,2.5625,-0.4375,472
1695648792150,-0.41918945,-0.7901001,0.51556396,0.140625,5.953125,1.6875,473
1695648792190,-0.42236328,-0.7761841,0.5162964,1.4375,4.6875,2.640625,474
1695648792230,-0.40063477,-0.77423096,0.5126343,2.859375,3.265625,2.34375,475
1695648792270,-0.3972168,-0.7737427,0.50286865,-0.46875,2.140625,2.1875,476
1695648792310,-0.3828125,-0.7732544,0.5043335,-0.671875,0.484375,0.40625,477
1695648792350,-0.38232422,-0.77008057,0.50823975,-3.78125,-1.140625,-1.125,478
1695648792390,-0.37548828,-0.76885986,0.5036011,1.625,-1.171875,-0.296875,479
1695648792430,-0.3840332,-0.7805786,0.50408936,1.078125,-1.484375,-0.09375,480
1695648792470,-0.40039062,-0.7793579,0.49188232,0.703125,-1.28125,-1.125,481
1695648792510,-0.3959961,-0.77716064,0.48114014,-0.734375,-0.78125,-0.96875,482
1695648792550,-0.4165039,-0.7678833,0.50897217,1.125,-1.265625,-0.84375,483
1695648792590,-0.40820312,-0.79034424,0.5180054,1.28125,-1.265625,-0.640625,484
1695648792630,-0.40527344,-0.7781372,0.49261475,0.234375,-0.171875,-0.1875,485
1695648792670,-0.40966797,-0.77056885,0.48284912,-0.9375,-1.046875,-0.3125,486
1695648792710,-0.42089844,-0.7720337,0.480896,-8.421875,-0.484375,0.453125,487
1695648792750,-0.38745117,-0.76031494,0.52386475,-2.0,-0.75,0.296875,488
1695648792790,-0.38671875,-0.7883911,0.52948,0.90625,-0.9375,0.328125,489
1695648792830,-0.41064453,-0.78448486,0.52923584,1.96875,-0.53125,1.21875,490
1695648792870,-0.40966797,-0.7456665,0.5360718,-0.109375,0.453125,1.515625,491
1695648792910,-0.39868164,-0.76446533,0.53240967,0.78125,-1.09375,1.59375,492
1695648792950,-0.41235352,-0.7842407,0.5092163,4.765625,0.5625,2.765625,493
1695648792990,-0.40307617,-0.7944946,0.47503662,6.296875,1.640625,1.890625,494
1695648793030,-0.40063477,-0.8262329,0.5092163,6.453125,4.140625,1.484375,495
1695648793070,-0.39672852,-0.80548096,0.48114014,-1.234375,4.5,1.421875,496
1695648793110,-0.3876953,-0.74102783,0.494812,-3.9375,4.125,0.3125,497
1695648793150,-0.37670898,-0.76885986,0.5023804,-4.3125,3.5625,-0.15625,498
1695648793190,-0.3857422,-0.7979126,0.50701904,-4.140625,1.5625,0.53125,499
1695648793230,-0.37841797,-0.7654419,0.5170288,-5.65625,-1.625,0.578125,500
1695648793270,-0.37304688,-0.7473755,0.51727295,-6.125,-2.078125,-0.65625,501
1695648793310,-0.38110352,-0.75128174,0.5192261,-3.96875,-3.484375,-0.71875,502
1695648793350,-0.38110352,-0.7666626,0.54681396,-0.203125,-2.3125,-0.78125,503
1695648793390,-0.38549805,-0.7852173,0.5438843,-0.765625,-1.40625,-0.765625,504
1695648793430,-0.37890625,-0.7698364,0.5477905,0.859375,-0.515625,0.203125,505
1695648793470,-0.3840332,-0.75909424,0.53582764,0.265625,-1.1875,-0.140625,506
1695648793510,-0.3864746,-0.76519775,0.5270386,0.234375,-1.359375,-0.40625,507
1695648793550,-0.39819336,-0.769104,0.53118896,0.078125,-0.6875,-0.109375,508
1695648793590,-0.41357422,-0.755188,0.5219116,-1.28125,-1.453125,-0.21875,509
1695648793630,-0.40454102,-0.756897,0.5231323,0.203125,-0.421875,-0.09375,510
1695648793670,-0.38061523,-0.7612915,0.5165405,-0.46875,-0.515625,-0.625,511
1695648793710,-0.38916016,-0.76885986,0.5387573,-0.015625,0.46875,0.0625,512
1695648793750,-0.39501953,-0.7637329,0.5375366,-0.609375,-0.34375,-0.515625,513
1695648793790,-0.40234375,-0.7600708,0.5289917,-0.5,0.0625,-0.578125,514
1695648793830,-0.40942383,-0.7576294,0.53778076,-1.4375,0.6875,0.234375,515
1695648793870,-0.39257812,-0.7583618,0.5331421,-1.328125,0.296875,-0.328125,516
1695648793910,-0.39208984,-0.7542114,0.53826904,0.40625,-0.359375,-0.140625,517
1695648793950,-0.39379883,-0.7490845,0.54315186,1.78125,-1.03125,0.203125,518
1695648793990,-0.39501953,-0.7715454,0.5319214,0.203125,-0.5,-0.34375,519
1695648794030,-0.39770508,-0.76153564,0.5507202,1.265625,0.421875,0.03125,520
1695648794070,-0.39233398,-0.75665283,0.5199585,-1.59375,0.15625,-0.59375,521
1695648794110,-0.38989258,-0.75323486,0.52801514,-0.640625,-1.65625,-1.5,522
1695648794150,-0.39672852,-0.77423096,0.53289795,-0.390625,-1.515625,-1.796875,523
1695648794190,-0.42089844,-0.76275635,0.5519409,0.28125,0.515625,-0.4375,524
1695648794230,-0.40649414,-0.7463989,0.5285034,-0.65625,-0.09375,-0.109375,525
1695648794270,-0.40454102,-0.76104736,0.5421753,1.109375,-0.5625,0.53125,526
1695648794310,-0.40014648,-0.75006104,0.54241943,0.125,-0.53125,1.03125,527
1695648794350,-0.40600586,-0.7463989,0.5355835,1.21875,0.375,0.796875,528
1695648794390,-0.40014648,-0.74884033,0.52996826,0.703125,-0.734375,-0.234375,529
1695648794430,-0.3935547,-0.7559204,0.53533936,1.78125,0.28125,-0.015625,530
1695648794470,-0.40942383,-0.7630005,0.52996826,1.296875,-0.203125,0.125,531
1695648794510,-0.4033203,-0.7630005,0.5216675,-0.578125,-0.390625,-0.875,532
1695648794550,-0.39086914,-0.76031494,0.53118896,-0.4375,0.0625,-1.375,533
1695648794590,-0.38354492,-0.75445557,0.52923584,-1.609375,-0.453125,-1.609375,534
1695648794630,-0.42114258,-0.73516846,0.5368042,1.796875,-1.328125,-0.875,535
1695648794670,-0.4272461,-0.7461548,0.5336304,0.875,-1.234375,-0.71875,536
1695648794710,-0.41430664,-0.7632446,0.53118896,0.375,-0.21875,-1.46875,537
1695648794750,-0.42016602,-0.7686157,0.5258179,0.40625,0.46875,-0.21875,538
1695648794790,-0.41625977,-0.76348877,0.5265503,0.71875,0.65625,0.078125,539
1695648794830,-0.40844727,-0.7498169,0.5446167,1.9375,0.625,-0.09375,540
1695648794870,-0.3984375,-0.753479,0.52801514,0.875,1.09375,0.046875,541
1695648794910,-0.41357422,-0.74224854,0.5180054,1.15625,-1.1875,-0.078125,542
1695648794950,-0.4025879,-0.755188,0.5338745,2.453125,-1.109375,-0.640625,543
1695648794990,-0.40600586,-0.75982666,0.5282593,2.6875,-0.921875,-0.390625,544
1695648795030,-0.41918945,-0.7473755,0.5153198,1.203125,-1.0,-0.765625,545
1695648795070,-0.41577148,-0.7493286,0.5241089,0.1875,-1.5625,-2.203125,546
1695648795110,-0.42089844,-0.76031494,0.51556396,-0.109375,-1.09375,-1.78125,547
1695648795150,-0.42944336,-0.7620239,0.508728,-0.859375,-1.265625,-0.78125,548
1695648795190,-0.42919922,-0.7498169,0.52337646,-0.03125,-0.375,-1.171875,549
1695648795230,-0.41674805,-0.75665283,0.5409546,2.171875,-0.4375,-1.671875,550
1695648795270,-0.41845703,-0.76275635,0.524353,2.640625,-0.0625,-0.546875,551
1695648795310,-0.42749023,-0.75909424,0.5236206,4.015625,0.203125,-0.890625,552
1695648795350,-0.4255371,-0.76812744,0.494812,0.46875,0.046875,0.078125,553
1695648795390,-0.43017578,-0.76031494,0.49578857,-2.390625,0.78125,0.625,554
1695648795430,-0.43969727,-0.74786377,0.51483154,-0.953125,-0.09375,0.578125,555
1695648795470,-0.4284668,-0.7527466,0.50653076,-0.734375,-0.421875,-0.3125,556
1695648795510,-0.42578125,-0.75372314,0.52386475,1.03125,-0.265625,-0.484375,557
1695648795550,-0.42138672,-0.7600708,0.5326538,1.578125,0.453125,0.125,558
1695648795590,-0.41748047,-0.76690674,0.5285034,1.140625,0.84375,0.046875,559
1695648795630,-0.40649414,-0.7749634,0.49969482,1.484375,0.515625,0.109375,560
1695648795670,-0.44628906,-0.741272,0.5165405,0.265625,-0.546875,1.828125,561
1695648795710,-0.43530273,-0.74298096,0.51116943,-0.78125,0.71875,-0.375,562
1695648795750,-0.42773438,-0.7522583,0.50653076,-0.21875,-1.09375,-1.515625,563
1695648795790,-0.42651367,-0.7559204,0.5158081,1.671875,0.453125,-1.359375,564
1695648795830,-0.4255371,-0.7593384,0.5265503,2.59375,0.5,-0.1875,565
1695648795870,-0.40527344,-0.7527466,0.5128784,2.4375,1.265625,-0.171875,566
1695648795910,-0.41748047,-0.75860596,0.5162964,3.65625,0.0625,0.921875,567
1695648795950,-0.4267578,-0.75787354,0.49749756,6.078125,0.21875,1.859375,568
1695648795990,-0.43359375,-0.77838135,0.47454834,3.40625,0.234375,0.25,569
1695648796030,-0.4465332,-0.7769165,0.49017334,3.515625,0.609375,1.171875,570
1695648796070,-0.4428711,-0.7798462,0.49163818,1.265625,2.0,1.6875,571
1695648796110,-0.40771484,-0.7571411,0.5001831,1.75,1.984375,-0.765625,572
1695648796150,-0.3881836,-0.75567627,0.5060425,2.484375,0.515625,-0.1875,573
1695648796190,-0.39013672,-0.7761841,0.50286865,2.46875,-0.0625,0.875,574
1695648796230,-0.41503906,-0.7896118,0.5075073,2.890625,-1.421875,0.46875,575
1695648796270,-0.42944336,-0.7908325,0.48480225,2.140625,-0.34375,-0.078125,576
1695648796310,-0.4333496,-0.7774048,0.46746826,1.96875,0.28125,0.140625,577
1695648796350,-0.43554688,-0.76397705,0.46990967,0.71875,0.71875,0.125,578
1695648796390,-0.42089844,-0.7817993,0.47357178,0.703125,0.9375,-1.21875,579
1695648796430,-0.41455078,-0.80352783,0.49188232,1.578125,0.421875,-0.21875,580
1695648796470,-0.40673828,-0.7786255,0.4899292,-0.0625,1.015625,0.203125,581
1695648796510,-0.41625977,-0.7739868,0.5101929,2.484375,0.140625,0.359375,582
1695648796550,-0.41796875,-0.79644775,0.47601318,1.03125,2.21875,0.8125,583
1695648796590,-0.42285156,-0.7608032,0.4833374,0.59375,0.84375,1.609375,584
1695648796630,-0.39868164,-0.78790283,0.46185303,-1.15625,0.25,-1.703125,585
1695648796670,-0.4033203,-0.7788696,0.49554443,2.265625,0.46875,-1.25,586
1695648796710,-0.40454102,-0.7942505,0.4767456,-0.125,-3.078125,-1.078125,587
1695648796750,-0.421875,-0.7859497,0.4862671,0.921875,-3.71875,-3.0,588
1695648796790,-0.4182129,-0.75982666,0.46990967,-0.6875,-3.015625,-2.171875,589
1695648796830,-0.4230957,-0.7542114,0.479187,0.484375,-2.6875,-2.171875,590
1695648796870,-0.44702148,-0.78009033,0.463562,5.625,2.09375,0.359375,591
1695648796910,-0.4248047,-0.78619385,0.46453857,9.921875,2.0625,-1.09375,592
1695648796950,-0.4399414,-0.8154907,0.49676514,5.765625,-0.21875,-1.953125,593
1695648796990,-0.44213867,-0.78009033,0.4557495,2.78125,0.015625,-1.765625,594
1695648797030,-0.4309082,-0.7839966,0.46697998,2.359375,2.03125,0.640625,595
1695648797070,-0.43237305,-0.80426025,0.45037842,0.03125,1.390625,-0.359375,596
1695648797110,-0.41455078,-0.80914307,0.44403076,-0.703125,1.515625,-1.0,597
1695648797150,-0.41503906,-0.80010986,0.41766357,3.84375,-1.640625,-2.828125,598
1695648797190,-0.47216797,-0.8557739,0.46307373,9.6875,-0.515625,-0.921875,599
1695648797230,-0.40014648,-0.7666626,0.4015503,-2.78125,0.953125,-1.765625,600
1695648797270,-0.4411621,-0.75372314,0.42230225,0.5625,-2.0625,4.1875,601
1695648797310,-0.48120117,-0.8201294,0.47894287,-1.859375,1.890625,2.859375,602
1695648797350,-0.42260742,-0.8040161,0.4520874,1.703125,1.265625,-0.8125,603
1695648797390,-0.39575195,-0.7686157,0.4171753,0.21875,0.265625,0.78125,604
1695648797430,-0.44213867,-0.78741455,0.46551514,-0.265625,-0.359375,0.9375,605
1695648797470,-0.44628906,-0.8118286,0.45770264,-3.203125,0.90625,-1.328125,606
1695648797510,-0.40234375,-0.79693604,0.43328857,-2.59375,0.09375,-0.015625,607
1695648797550,-0.41625977,-0.7979126,0.46185303,-2.015625,-0.03125,1.390625,608
1695648797590,-0.4338379,-0.7710571,0.44378662,-1.953125,1.21875,-0.546875,609
1695648797630,-0.4272461,-0.7744751,0.45794678,1.921875,0.953125,-0.078125,610
1695648797670,-0.41430664,-0.79815674,0.47161865,-0.265625,0.28125,-0.015625,611
1695648797710,-0.41088867,-0.79937744,0.45721436,-1.125,0.265625,0.65625,612
1695648797750,-0.42749023,-0.7971802,0.47235107,1.609375,0.375,1.078125,613
1695648797790,-0.42382812,-0.78863525,0.44940186,0.078125,-0.375,0.1875,614
1695648797830,-0.4206543,-0.79351807,0.4569702,1.96875,-0.265625,0.328125,615
1695648797870,-0.43041992,-0.7854614,0.44940186,0.296875,0.09375,-0.203125,616
1695648797910,-0.42651367,-0.7944946,0.44744873,0.859375,-0.375,0.0,617
1695648797950,-0.42871094,-0.8015747,0.4574585,1.125,0.5,0.65625,618
1695648797990,-0.4296875,-0.7998657,0.4484253,0.09375,0.671875,0.140625,619
1695648798030,-0.42285156,-0.79888916,0.45477295,0.359375,0.875,0.140625,620
1695648798070,-0.4169922,-0.7971802,0.45770264,0.046875,1.546875,0.875,621
1695648798110,-0.4230957,-0.7810669,0.4586792,0.0625,-0.1875,-0.34375,622
1695648798150,-0.4104004,-0.7949829,0.4569702,-0.125,-0.65625,-0.078125,623
1695648798190,-0.41137695,-0.78692627,0.4623413,0.75,-0.96875,0.46875,624
1695648798230,-0.41455078,-0.7974243,0.4442749,-0.375,-1.8125,-0.984375,625
1695648798270,-0.4206543,-0.78790283,0.45648193,1.40625,-0.3125,-1.15625,626
1695648798310,-0.43115234,-0.803772,0.45941162,0.578125,-0.046875,-0.921875,627
1695648798350,-0.43066406,-0.79034424,0.4508667,0.875,0.046875,-1.09375,628
1695648798390,-0.4243164,-0.7793579,0.449646,0.640625,0.25,-1.28125,629
1695648798430,-0.4321289,-0.8015747,0.44891357,0.5,0.484375,-0.421875,630
1695648798470,-0.43041992,-0.7974243,0.4484253,0.890625,0.515625,-0.078125,631
1695648798510,-0.44311523,-0.7930298,0.44622803,0.09375,0.734375,0.09375,632
1695648798550,-0.4248047,-0.7905884,0.4442749,0.8125,0.421875,0.296875,633
1695648798590,-0.42211914,-0.7949829,0.4586792,0.875,0.125,0.46875,634
1695648798630,-0.42578125,-0.79522705,0.45648193,1.359375,0.265625,0.75,635
1695648798670,-0.4243164,-0.80010986,0.44769287,2.6875,0.484375,0.625,636
1695648798710,-0.4116211,-0.7942505,0.4442749,1.640625,0.328125,0.484375,637
1695648798750,-0.41870117,-0.7996216,0.44525146,1.390625,0.5625,0.078125,638
1695648798790,-0.4206543,-0.7991333,0.44525146,1.09375,0.765625,0.203125,639
1695648798830,-0.42871094,-0.79815674,0.44744873,1.078125,0.421875,0.53125,640
1695648798870,-0.41845703,-0.80010986,0.43719482,0.625,0.03125,-0.015625,641
1695648798910,-0.42333984,-0.79156494,0.44354248,1.5,0.125,1.9375,642
1695648798950,-0.4165039,-0.80059814,0.43572998,1.109375,-0.53125,3.015625,643
1695648798990,-0.40039062,-0.80914307,0.44158936,-0.328125,-1.453125,2.640625,644
1695648799030,-0.4255371,-0.8452759,0.44647217,-2.359375,-1.265625,2.234375,645
1695648799070,-0.41455078,-0.7971802,0.44256592,-0.015625,1.375,-0.78125,646
1695648799110,-0.38500977,-0.7883911,0.4545288,1.421875,0.3125,-0.234375,647
1695648799150,-0.4020996,-0.81451416,0.44989014,-0.078125,0.328125,2.296875,648
1695648799190,-0.4169922,-0.8118286,0.449646,2.859375,0.9375,0.25,649
1695648799230,-0.40893555,-0.8106079,0.4335327,1.9375,1.734375,1.09375,650
1695648799270,-0.40576172,-0.8086548,0.4262085,0.578125,0.6875,1.171875,651
1695648799310,-0.4169922,-0.80718994,0.4376831,-0.140625,0.734375,0.359375,652
1695648799350,-0.40966797,-0.7979126,0.44354248,-0.3125,1.03125,-0.0625,653
1695648799390,-0.39282227,-0.81134033,0.44500732,-0.21875,0.1875,-0.03125,654
1695648799430,-0.38623047,-0.81207275,0.45062256,0.203125,-0.015625,0.6875,655
1695648799470,-0.39501953,-0.81451416,0.44158936,-0.046875,-0.84375,-0.125,656
1695648799510,-0.3955078,-0.8081665,0.44281006,0.515625,-1.125,-0.265625,657
1695648799550,-0.41577148,-0.7974243,0.44573975,0.390625,-0.40625,0.484375,658
1695648799590,-0.4086914,-0.8010864,0.4376831,1.15625,-0.84375,-1.046875,659
1695648799630,-0.4038086,-0.81817627,0.44158936,1.515625,0.125,-0.46875,660
1695648799670,-0.41015625,-0.80352783,0.44403076,0.125,1.140625,-0.671875,661
1695648799710,-0.39331055,-0.81500244,0.43206787,1.359375,-0.875,-1.890625,662
1695648799750,-0.3984375,-0.8128052,0.46038818,3.171875,-0.671875,-0.40625,663
1695648799790,-0.4099121,-0.81817627,0.4328003,0.703125,-0.53125,-0.265625,664
1695648799830,-0.42163086,-0.7949829,0.4286499,0.0625,-1.0625,-1.171875,665
1695648799870,-0.4206543,-0.800354,0.42230225,1.484375,-1.0625,-1.265625,666
1695648799910,-0.4243164,-0.8164673,0.42718506,1.15625,-0.0625,0.125,667
1695648799950,-0.41674805,-0.8086548,0.43060303,-1.0,-0.59375,-1.296875,668
1695648799990,-0.42016602,-0.8115845,0.4364624,1.46875,-0.34375,-0.984375,669
1695648800030,-0.40576172,-0.81036377,0.432312,0.765625,0.0625,0.09375,670
1695648800070,-0.41723633,-0.81866455,0.43719482,0.96875,0.109375,0.484375,671
1695648800110,-0.41308594,-0.8128052,0.42962646,0.453125,1.015625,0.1875,672
1695648800150,-0.41748047,-0.80548096,0.43621826,1.640625,0.96875,0.21875,673
1695648800190,-0.41381836,-0.81500244,0.42303467,1.453125,0.109375,0.3125,674
1695648800230,-0.4177246,-0.80303955,0.42132568,0.5,0.09375,0.078125,675
1695648800270,-0.41357422,-0.802063,0.41986084,-1.171875,-0.625,-0.96875,676
1695648800310,-0.41723633,-0.80792236,0.43304443,0.0,0.484375,-0.453125,677
1695648800350,-0.40454102,-0.81329346,0.4315796,-1.859375,2.0,0.015625,678
1695648800390,-0.42626953,-0.81036377,0.42913818,-3.75,0.546875,1.0,679
1695648800430,-0.43188477,-0.79937744,0.45843506,-2.265625,0.3125,0.265625,680
1695648800470,-0.41259766,-0.79400635,0.45892334,-2.890625,-0.5,-1.671875,681
1695648800510,-0.42578125,-0.81207275,0.46502686,-4.4375,2.15625,-0.9375,682
1695648800550,-0.41308594,-0.82403564,0.43475342,-6.296875,3.296875,-0.296875,683
1695648800590,-0.42382812,-0.7744751,0.47894287,-2.203125,3.09375,-0.265625,684
1695648800630,-0.39941406,-0.7810669,0.4623413,-2.28125,1.296875,-0.96875,685
1695648800670,-0.40283203,-0.80133057,0.4562378,-0.296875,0.421875,-2.890625,686
1695648800710,-0.4086914,-0.8225708,0.4701538,1.546875,1.28125,-1.140625,687
1695648800750,-0.39868164,-0.7683716,0.4628296,-1.21875,-0.515625,0.1875,688
1695648800790,-0.4038086,-0.7781372,0.46600342,-2.859375,-1.140625,0.71875,689
1695648800830,-0.39648438,-0.7901001,0.48162842,-0.953125,-1.40625,-1.46875,690
1695648800870,-0.41235352,-0.77716064,0.45892334,-2.015625,-2.5,-1.984375,691
1695648800910,-0.43017578,-0.7888794,0.45941162,-0.234375,-2.359375,-2.015625,692
1695648800950,-0.44580078,-0.78985596,0.47576904,1.3125,-1.453125,-0.96875,693
1695648800990,-0.4399414,-0.78912354,0.47235107,-1.203125,-0.578125,-0.359375,694
1695648801030,-0.4248047,-0.7854614,0.46429443,-2.109375,-0.546875,-0.09375,695
1695648801070,-0.4272461,-0.78253174,0.47113037,0.4375,-0.71875,1.140625,696
1695648801110,-0.43017578,-0.78204346,0.48016357,-0.875,0.828125,0.265625,697
1695648801150,-0.41674805,-0.7815552,0.45819092,-0.375,1.4375,0.6875,698
1695648801190,-0.4255371,-0.7756958,0.4772339,1.21875,0.390625,0.75,699
1695648801230,-0.4169922,-0.7835083,0.479187,0.53125,0.25,0.03125,700
1695648801270,-0.4165039,-0.78009033,0.46673584,-0.40625,0.015625,0.3125,701
1695648801310,-0.42041016,-0.7852173,0.48602295,0.671875,-0.21875,-0.4375,702
1695648801350,-0.42578125,-0.788147,0.47698975,0.296875,0.234375,0.515625,703
1695648801390,-0.42407227,-0.7810669,0.47161865,-0.515625,0.5,-0.125,704
1695648801430,-0.421875,-0.78985596,0.46502686,0.203125,0.375,-0.078125,705
1695648801470,-0.42016602,-0.77911377,0.48431396,1.078125,1.171875,-0.125,706
1695648801510,-0.4194336,-0.7930298,0.47894287,0.65625,0.359375,1.03125,707
1695648801550,-0.42504883,-0.7803345,0.4869995,0.21875,0.390625,-0.828125,708
1695648801590,-0.4194336,-0.772522,0.46966553,0.375,0.0,-0.859375,709
1695648801630,-0.42089844,-0.7822876,0.47869873,1.234375,-0.1875,-0.140625,710
1695648801670,-0.42260742,-0.79400635,0.47381592,0.734375,-0.625,-0.453125,711
1695648801710,-0.42895508,-0.7925415,0.47503662,-0.671875,-0.671875,-0.828125,712
1695648801750,-0.42871094,-0.78497314,0.47528076,0.375,-0.484375,-0.265625,713
1695648801790,-0.43017578,-0.7749634,0.46966553,-0.21875,-0.59375,-0.53125,714
1695648801830,-0.43164062,-0.77349854,0.48284912,0.34375,-0.703125,-0.6875,715
1695648801870,-0.421875,-0.7908325,0.46185303,-0.140625,-0.828125,0.0625,716
1695648801910,-0.42944336,-0.7822876,0.48187256,2.28125,-0.359375,-0.328125,717
1695648801950,-0.4255371,-0.7913208,0.46600342,-0.859375,-0.125,0.203125,718
1695648801990,-0.43066406,-0.7600708,0.47039795,-0.1875,-0.296875,-0.734375,719
1695648802030,-0.42797852,-0.7817993,0.4767456,0.734375,-0.109375,0.25,720
1695648802070,-0.4387207,-0.78497314,0.47576904,-0.359375,0.28125,0.859375,721
1695648802110,-0.42773438,-0.7822876,0.47381592,0.125,0.046875,-0.296875,722
1695648802150,-0.43310547,-0.7805786,0.4755249,1.046875,0.109375,0.140625,723
1695648802190,-0.42700195,-0.77471924,0.47576904,-0.15625,-0.03125,0.203125,724
1695648802230,-0.43139648,-0.7798462,0.47503662,-0.671875,-0.328125,-0.25,725
1695648802270,-0.4284668,-0.7905884,0.47381592,-0.4375,-0.421875,-0.0625,726
1695648802310,-0.42358398,-0.772522,0.4804077,0.25,0.0625,0.46875,727
1695648802350,-0.42260742,-0.7805786,0.47576904,1.09375,-0.1875,-0.21875,728
1695648802390,-0.4255371,-0.7805786,0.4755249,1.296875,1.3125,-0.390625,729
1695648802430,-0.4243164,-0.7781372,0.46917725,1.390625,0.984375,0.015625,730
1695648802470,-0.43237305,-0.7854614,0.47088623,1.953125,1.703125,-0.078125,731
1695648802510,-0.43115234,-0.7854614,0.48162842,0.234375,2.828125,0.03125,732
1695648802550,-0.43652344,-0.7810669,0.4784546,-0.734375,3.796875,0.609375,733
1695648802590,-0.4345703,-0.78692627,0.47650146,0.078125,1.421875,0.578125,734
1695648802630,-0.41992188,-0.7793579,0.4940796,1.1875,0.84375,-0.234375,735
1695648802670,-0.40600586,-0.7866821,0.45941162,-1.953125,1.4375,-0.046875,736
1695648802710,-0.41235352,-0.7678833,0.47625732,0.078125,1.234375,0.46875,737
1695648802750,-0.4074707,-0.79107666,0.49261475,1.265625,0.421875,0.375,738
1695648802790,-0.42578125,-0.78302,0.4857788,-0.3125,0.734375,0.0,739
1695648802830,-0.42285156,-0.78082275,0.480896,-0.28125,0.765625,-0.4375,740
1695648802870,-0.4189453,-0.79229736,0.4940796,0.921875,1.453125,0.0625,741
1695648802910,-0.42382812,-0.7842407,0.47650146,-2.234375,0.5625,-0.609375,742
1695648802950,-0.42944336,-0.77911377,0.47747803,-1.40625,0.734375,-1.6875,743
1695648802990,-0.4111328,-0.77301025,0.49920654,0.1875,1.765625,-0.0625,744
1695648803030,-0.41577148,-0.7817993,0.48675537,-0.5625,0.953125,0.46875,745
1695648803070,-0.42626953,-0.77471924,0.48431396,0.0625,-0.0625,0.140625,746
1695648803110,-0.42382812,-0.7788696,0.49261475,-0.0625,1.03125,0.109375,747
1695648803150,-0.4116211,-0.7798462,0.4928589,-0.09375,1.125,0.0625,748
1695648803190,-0.40966797,-0.78912354,0.49700928,-0.53125,0.953125,0.375,749
1695648803230,-0.40527344,-0.7822876,0.49163818,-0.796875,1.546875,0.4375,750
1695648803270,-0.41064453,-0.769104,0.4923706,-0.734375,1.265625,-0.421875,751
1695648803310,-0.42236328,-0.7715454,0.49993896,-0.078125,0.921875,0.484375,752
1695648803350,-0.41137695,-0.77911377,0.50213623,0.09375,2.0625,0.328125,753
1695648803390,-0.4165039,-0.7698364,0.50897217,-0.5,1.78125,-0.546875,754
1695648803430,-0.40820312,-0.77349854,0.49993896,-1.890625,1.078125,-0.484375,755
1695648803470,-0.4050293,-0.7695923,0.5072632,-1.625,0.4375,-0.609375,756
1695648803510,-0.40307617,-0.76763916,0.4935913,-0.390625,-0.390625,0.4375,757
1695648803550,-0.40893555,-0.7617798,0.49383545,0.328125,-0.984375,0.875,758
1695648803590,-0.40844727,-0.77008057,0.5001831,0.46875,-1.125,0.1875,759
