# Sensor type: Thingy
# Activity type: Miscellaneous movements
# Activity subtype: Normal
# Subject id: s2603885
# Notes: M
timestamp,accel_x,accel_y,accel_z,gyro_x,gyro_y,gyro_z,mag_x,mag_y,mag_z
1695396929201,-0.9355469,0.42285156,0.38476562,-19.40625,3.03125,2.9375,0.0,0.0,0.0
1695396929228,-0.9082031,0.4111328,0.39160156,-24.15625,5.28125,9.6875,0.0,0.0,0.0
1695396929282,-0.9248047,0.4580078,0.37304688,-34.3125,-14.125,4.5,0.0,0.0,0.0
1695396929307,-0.828125,0.4248047,0.46289062,-60.96875,-11.3125,5.71875,0.0,0.0,0.0
1695396929359,-0.84277344,0.3232422,0.3779297,-84.65625,-1.1875,1.40625,-38.6875,27.375,8.5
1695396929386,-0.73046875,0.25097656,0.4423828,-63.0625,8.71875,0.3125,0.0,0.0,0.0
1695396929439,-0.79589844,0.29296875,0.37109375,-56.875,15.25,14.9375,0.0,0.0,0.0
1695396929463,-0.72265625,0.38964844,0.45214844,-51.4375,51.4375,28.6875,0.0,0.0,0.0
1695396929517,-0.8359375,0.49804688,0.45507812,-74.34375,62.96875,28.125,0.0,0.0,0.0
1695396929544,-0.8925781,0.4609375,0.4091797,-72.03125,51.1875,11.15625,0.0,0.0,0.0
1695396929597,-0.82128906,0.31640625,0.27441406,-50.78125,30.9375,-11.25,0.0,0.0,0.0
1695396929621,-0.7285156,0.16601562,0.3251953,-44.625,71.09375,-21.90625,0.0,0.0,0.0
1695396929676,-1.15625,0.29101562,0.28222656,-2.6875,28.90625,7.6875,0.0,0.0,0.0
1695396929701,-1.2158203,-0.29003906,0.15234375,-7.875,24.875,-3.0,0.0,0.0,0.0
1695396929753,-0.9316406,-0.16503906,0.057617188,45.09375,34.15625,-29.4375,0.0,0.0,0.0
1695396929783,-1.0390625,-0.10253906,0.044921875,101.1875,3.65625,-52.96875,0.0,0.0,0.0
1695396929831,-1.0419922,0.0126953125,0.047851562,120.53125,2.65625,-50.53125,-43.9375,22.4375,4.125
1695396929859,-0.9609375,0.18554688,0.09082031,105.90625,-11.875,-9.71875,0.0,0.0,0.0
1695396929912,-1.0273438,0.08105469,0.059570312,83.625,-14.71875,5.71875,0.0,0.0,0.0
1695396929969,-1.0253906,-0.02734375,0.06347656,87.84375,-7.46875,-17.46875,0.0,0.0,0.0
1695396929991,-1.0898438,0.04296875,0.056640625,91.8125,-9.78125,-25.34375,0.0,0.0,0.0
1695396930042,-1.0224609,0.13085938,0.03515625,85.5,-14.5,-16.0625,0.0,0.0,0.0
1695396930069,-0.99902344,0.16796875,0.028320312,81.0625,-14.0625,-5.125,0.0,0.0,0.0
1695396930121,-0.94921875,0.17675781,0.10058594,63.0,-10.875,1.34375,0.0,0.0,0.0
1695396930145,-0.9941406,0.13769531,0.123046875,52.90625,-5.09375,-5.8125,0.0,0.0,0.0
1695396930201,-0.9375,0.12890625,0.14941406,51.15625,2.96875,-7.4375,0.0,0.0,0.0
1695396930226,-0.9746094,0.18847656,0.08496094,39.96875,8.09375,2.125,0.0,0.0,0.0
1695396930280,-1.0458984,0.19921875,0.0234375,16.40625,5.34375,7.8125,0.0,0.0,0.0
1695396930304,-1.046875,0.2861328,0.040039062,-12.28125,1.4375,7.875,0.0,0.0,0.0
1695396930359,-0.95214844,0.41992188,0.0703125,-47.25,3.09375,1.875,-44.5625,25.125,-9.0625
1695396930384,-0.93359375,0.5,0.052734375,-89.0625,4.5625,10.625,0.0,0.0,0.0
1695396930437,-0.9873047,0.29003906,-0.0126953125,-122.1875,9.0,26.25,0.0,0.0,0.0
1695396930462,-0.9951172,0.22851562,0.045898438,-121.59375,-6.25,30.09375,0.0,0.0,0.0
1695396930515,-1.0078125,0.4501953,0.15527344,-138.0625,-24.125,35.9375,0.0,0.0,0.0
1695396930541,-0.9746094,0.3876953,0.16992188,-139.15625,-29.3125,43.21875,0.0,0.0,0.0
1695396930594,-0.8144531,0.26757812,0.24316406,-138.78125,-12.28125,37.28125,0.0,0.0,0.0
1695396930620,-0.7685547,0.2919922,0.2890625,-130.0625,-11.90625,35.28125,0.0,0.0,0.0
1695396930672,-0.9169922,0.22851562,0.26660156,-119.6875,-4.96875,35.46875,0.0,0.0,0.0
1695396930703,-0.9033203,0.19335938,0.45898438,-109.875,-5.6875,30.875,0.0,0.0,0.0
1695396930751,-0.97265625,0.21582031,0.5205078,-90.9375,5.0,33.625,0.0,0.0,0.0
1695396930804,-0.9121094,0.034179688,0.62597656,-48.875,15.59375,21.96875,0.0,0.0,0.0
1695396930829,-0.7285156,0.055664062,0.59277344,-36.1875,27.375,11.40625,-36.75,21.25,17.9375
1695396930882,-0.7207031,0.18457031,0.47460938,-19.21875,34.90625,5.5,0.0,0.0,0.0
1695396930908,-0.8417969,0.37695312,0.50097656,-0.96875,20.5,-0.25,0.0,0.0,0.0
1695396930961,-0.8623047,0.4169922,0.38476562,4.59375,-6.78125,12.25,0.0,0.0,0.0
1695396930987,-0.8730469,0.3828125,0.47558594,-9.75,-6.5,-6.40625,0.0,0.0,0.0
1695396931039,-0.984375,0.34472656,0.44140625,-2.8125,23.90625,-10.3125,0.0,0.0,0.0
1695396931092,-0.9003906,-0.07421875,0.19628906,-15.1875,31.40625,12.1875,0.0,0.0,0.0
1695396931119,-1.0458984,-0.091796875,0.13769531,5.0,15.90625,14.46875,0.0,0.0,0.0
1695396931145,-0.984375,-0.03515625,0.16308594,30.59375,24.21875,0.90625,0.0,0.0,0.0
1695396931198,-1.0439453,-0.12207031,0.2421875,37.59375,22.5625,-37.28125,0.0,0.0,0.0
1695396931223,-0.9355469,-0.07519531,0.2626953,56.8125,7.125,-33.4375,0.0,0.0,0.0
1695396931279,-0.9794922,0.017578125,0.20898438,85.9375,-6.90625,-11.0,0.0,0.0,0.0
1695396931302,-0.96484375,-0.0107421875,0.13964844,118.09375,-10.9375,-13.90625,0.0,0.0,0.0
1695396931355,-0.99609375,-0.0107421875,0.15625,135.125,-6.25,-29.4375,-42.625,25.0,8.1875
1695396931381,-1.0390625,0.0078125,0.15429688,141.59375,-10.40625,-30.34375,0.0,0.0,0.0
1695396931437,-1.0175781,0.0029296875,0.09863281,147.46875,-6.25,-22.46875,0.0,0.0,0.0
1695396931467,-1.015625,0.07128906,0.020507812,139.15625,-10.21875,-24.96875,0.0,0.0,0.0
1695396931512,-1.0546875,0.15332031,0.0068359375,136.90625,-11.90625,-19.59375,0.0,0.0,0.0
1695396931539,-1.0371094,0.19433594,0.02734375,130.625,-13.875,-19.21875,0.0,0.0,0.0
1695396931591,-0.96484375,0.3642578,0.0546875,126.90625,-22.0,-17.53125,0.0,0.0,0.0
1695396931643,-1.1044922,0.4658203,0.041992188,129.875,-47.1875,-1.78125,0.0,0.0,0.0
1695396931670,-1.0410156,0.32128906,0.029296875,105.59375,-51.34375,5.96875,0.0,0.0,0.0
1695396931722,-0.86816406,0.4375,0.0546875,70.1875,-35.0,-7.28125,0.0,0.0,0.0
1695396931748,-0.80859375,0.5175781,0.009765625,65.125,-25.15625,-13.3125,0.0,0.0,0.0
1695396931803,-0.8935547,0.5048828,0.015625,26.75,-30.125,-14.90625,0.0,0.0,0.0
1695396931855,-0.8847656,0.47265625,0.061523438,-9.03125,-33.46875,-11.78125,-45.4375,25.0,-7.875
1695396931879,-0.8857422,0.40625,0.07128906,-40.09375,-10.53125,-7.28125,0.0,0.0,0.0
1695396931907,-0.8808594,0.33007812,0.12109375,-39.5,-8.3125,-1.40625,0.0,0.0,0.0
1695396931958,-0.93359375,0.24511719,0.265625,-20.09375,-11.25,11.09375,0.0,0.0,0.0
1695396931984,-0.92871094,0.29492188,0.3857422,-27.71875,-6.71875,0.0,0.0,0.0,0.0
1695396932038,-0.88183594,0.115234375,0.234375,-38.21875,15.53125,-21.3125,0.0,0.0,0.0
1695396932064,-0.90625,0.13378906,0.16015625,1.09375,22.375,-34.96875,0.0,0.0,0.0
1695396932120,-0.9091797,0.3388672,0.20507812,31.125,43.125,5.375,0.0,0.0,0.0
1695396932144,-1.2578125,0.10253906,0.29003906,35.78125,6.375,46.375,0.0,0.0,0.0
1695396932197,-0.98828125,-0.1171875,0.18066406,39.5625,23.65625,15.6875,0.0,0.0,0.0
1695396932220,-0.96777344,0.025390625,0.32714844,74.90625,17.75,-15.5625,0.0,0.0,0.0
1695396932274,-1.0126953,0.016601562,0.28222656,79.71875,-7.90625,-32.78125,0.0,0.0,0.0
1695396932301,-1.0048828,-0.032226562,0.11230469,83.0,-6.0625,-41.25,0.0,0.0,0.0
1695396932352,-0.9873047,0.061523438,0.043945312,86.5,5.59375,-21.625,-45.625,22.3125,-11.4375
1695396932381,-1.0195312,0.103515625,0.10058594,77.625,-11.625,-7.75,0.0,0.0,0.0
1695396932432,-0.9892578,0.03125,0.1484375,67.125,-24.375,-5.125,0.0,0.0,0.0
1695396932483,-1.0087891,-0.0048828125,0.12988281,52.6875,-18.9375,-10.0,0.0,0.0,0.0
1695396932509,-1.0517578,-0.08984375,0.08691406,55.78125,-24.90625,-6.96875,0.0,0.0,0.0
1695396932561,-1.0175781,-0.076171875,0.030273438,91.3125,-15.15625,-1.34375,0.0,0.0,0.0
1695396932617,-1.0009766,-0.013671875,0.017578125,106.9375,-20.34375,2.5,0.0,0.0,0.0
1695396932641,-1.1455078,0.13867188,9.765625E-4,130.625,-29.0625,-6.40625,0.0,0.0,0.0
1695396932667,-1.1259766,0.24707031,-0.041015625,131.78125,-30.28125,-6.53125,0.0,0.0,0.0
1695396932719,-0.9765625,0.36816406,-0.0107421875,121.21875,-33.21875,-2.875,0.0,0.0,0.0
1695396932746,-0.83691406,0.4814453,0.028320312,108.46875,-48.65625,10.3125,0.0,0.0,0.0
1695396932798,-0.8203125,0.47265625,0.068359375,72.5,-54.78125,12.5625,0.0,0.0,0.0
1695396932825,-0.8564453,0.4736328,0.07910156,41.9375,-50.75,-3.90625,-48.625,16.0,-16.875
1695396932880,-0.9277344,0.5175781,0.14550781,26.96875,-29.8125,-5.875,0.0,0.0,0.0
1695396932906,-0.8613281,0.40820312,0.11328125,25.5625,5.46875,-1.71875,0.0,0.0,0.0
1695396932956,-0.85546875,0.50683594,0.080078125,23.0625,22.875,5.90625,0.0,0.0,0.0
1695396932982,-0.9111328,0.5722656,0.060546875,1.03125,37.6875,22.9375,0.0,0.0,0.0
1695396933037,-0.94433594,0.5761719,0.060546875,-21.71875,34.28125,25.6875,0.0,0.0,0.0
1695396933065,-0.875,0.49121094,0.08300781,-46.4375,29.59375,22.59375,0.0,0.0,0.0
1695396933114,-0.88183594,0.38671875,0.060546875,-63.21875,18.40625,8.71875,0.0,0.0,0.0
1695396933140,-0.8691406,0.4345703,0.08496094,-51.9375,22.4375,8.1875,0.0,0.0,0.0
1695396933192,-0.87402344,0.44140625,0.15429688,-47.3125,19.625,15.0625,0.0,0.0,0.0
1695396933220,-0.8251953,0.4482422,0.19726562,-47.96875,12.5,7.8125,0.0,0.0,0.0
1695396933271,-0.88964844,0.44433594,0.18066406,-41.9375,10.125,1.65625,0.0,0.0,0.0
1695396933377,-0.7949219,0.4560547,0.22070312,-31.1875,7.1875,-5.75,-46.5,21.6875,-16.125
1695396933380,-0.8173828,0.50390625,0.24414062,-22.9375,-0.75,-11.84375,0.0,0.0,0.0
1695396933403,-1.0273438,0.55566406,0.16015625,-20.25,-34.1875,-15.875,0.0,0.0,0.0
1695396933430,-1.1416016,0.4423828,0.16699219,-11.0,-42.125,-11.125,0.0,0.0,0.0
1695396933480,-0.8330078,0.33691406,0.28710938,-25.625,5.53125,-10.75,0.0,0.0,0.0
1695396933507,-0.63671875,0.0107421875,0.123046875,-36.0,38.8125,7.4375,0.0,0.0,0.0
1695396933559,-1.5244141,-0.072265625,0.091796875,-20.09375,-7.84375,9.75,0.0,0.0,0.0
1695396933587,-0.93359375,-0.17480469,0.22070312,39.0,-17.21875,-30.15625,0.0,0.0,0.0
1695396933639,-1.0859375,0.08691406,0.28125,-6.71875,7.5,-46.09375,0.0,0.0,0.0
1695396933664,-0.9326172,0.13476562,0.15820312,-16.96875,2.78125,-41.25,0.0,0.0,0.0
1695396933717,-1.0527344,-0.025390625,0.123046875,-16.65625,20.125,7.0625,0.0,0.0,0.0
1695396933749,-0.95703125,-0.026367188,0.15136719,-6.65625,9.0,22.40625,0.0,0.0,0.0
1695396933797,-0.95410156,0.10253906,0.14160156,-2.5,-2.65625,14.9375,0.0,0.0,0.0
1695396933822,-0.9873047,0.072265625,0.10546875,15.875,-4.0625,-0.1875,-45.9375,20.1875,-12.5
1695396933875,-0.99609375,0.20410156,0.18261719,9.21875,4.3125,-8.84375,0.0,0.0,0.0
1695396933908,-0.9472656,0.3076172,0.12011719,7.25,0.03125,7.6875,0.0,0.0,0.0
1695396933954,-0.9951172,0.17480469,0.11425781,-5.84375,13.46875,7.0625,0.0,0.0,0.0
1695396933980,-0.9970703,0.11816406,0.123046875,0.0,11.34375,-10.8125,0.0,0.0,0.0
1695396934033,-0.9658203,0.12792969,0.14453125,7.5625,3.875,-7.8125,0.0,0.0,0.0
1695396934086,-1.0195312,0.16601562,0.14648438,-13.125,-0.75,1.875,0.0,0.0,0.0
1695396934139,-0.9667969,0.17578125,0.09472656,-7.875,2.1875,12.6875,0.0,0.0,0.0
1695396934165,-0.9638672,0.14257812,0.1484375,-16.34375,-2.71875,12.75,0.0,0.0,0.0
1695396934189,-0.9794922,0.053710938,0.1171875,-20.25,-9.28125,10.375,0.0,0.0,0.0
1695396934242,-1.0458984,-0.02734375,0.0390625,-12.75,-8.8125,14.59375,0.0,0.0,0.0
1695396934269,-0.98535156,0.07421875,0.03125,-19.59375,1.5625,16.59375,0.0,0.0,0.0
1695396934326,-0.96972656,0.2607422,0.10058594,-37.84375,13.96875,24.03125,0.0,0.0,0.0
1695396934347,-1.0,0.33496094,0.119140625,-52.65625,19.6875,19.71875,-45.75,22.4375,-14.75
1695396934401,-0.9970703,0.51660156,0.18457031,-36.375,19.21875,10.96875,0.0,0.0,0.0
1695396934427,-1.0214844,0.52246094,0.33691406,-50.96875,22.3125,20.6875,0.0,0.0,0.0
1695396934480,-0.92578125,0.5966797,0.28222656,-53.96875,27.3125,3.53125,0.0,0.0,0.0
1695396934504,-0.94140625,0.52734375,0.3984375,-31.96875,8.15625,11.21875,0.0,0.0,0.0
1695396934557,-0.7861328,0.34472656,0.33691406,-42.90625,1.75,14.65625,0.0,0.0,0.0
1695396934582,-0.6201172,0.30566406,0.28222656,-22.15625,-14.59375,-13.3125,0.0,0.0,0.0
1695396934636,-0.8779297,0.28710938,0.14746094,-14.21875,-33.59375,-16.3125,0.0,0.0,0.0
1695396934663,-0.94921875,0.33984375,0.13378906,-6.78125,14.9375,-26.875,0.0,0.0,0.0
1695396934715,-0.94433594,0.41796875,0.390625,-46.6875,40.1875,-26.375,0.0,0.0,0.0
1695396934742,-0.9277344,0.48632812,0.25878906,-77.625,-9.46875,-7.375,0.0,0.0,0.0
1695396934794,-0.984375,0.30566406,0.125,-48.9375,-5.8125,17.9375,0.0,0.0,0.0
1695396934846,-0.94140625,0.32910156,0.29589844,-35.21875,6.75,31.3125,-46.5,22.4375,-5.4375
1695396934899,-0.96875,0.3779297,0.29882812,-39.625,-3.0625,40.09375,0.0,0.0,0.0
1695396934925,-0.9140625,0.39746094,0.3310547,-58.71875,-5.6875,37.65625,0.0,0.0,0.0
1695396934952,-0.8388672,0.33203125,0.30566406,-51.21875,0.34375,31.84375,0.0,0.0,0.0
1695396935007,-0.75097656,0.2861328,0.33496094,-52.5,5.59375,22.9375,0.0,0.0,0.0
1695396935029,-0.7470703,0.23339844,0.3154297,-48.9375,10.28125,15.1875,0.0,0.0,0.0
1695396935082,-0.80566406,0.31152344,0.39648438,-41.5625,20.90625,3.71875,0.0,0.0,0.0
1695396935109,-0.86816406,0.32617188,0.421875,-32.03125,15.90625,0.25,0.0,0.0,0.0
1695396935164,-0.90722656,0.3095703,0.43359375,-21.3125,2.53125,-1.59375,0.0,0.0,0.0
1695396935188,-0.92578125,0.37304688,0.42089844,-18.4375,-16.0625,-8.1875,0.0,0.0,0.0
1695396935240,-0.8261719,0.59765625,0.5488281,-24.34375,-31.875,-24.34375,0.0,0.0,0.0
1695396935266,-0.79296875,0.5498047,0.38183594,31.25,-35.90625,11.65625,0.0,0.0,0.0
1695396935320,-0.80078125,0.27246094,0.4169922,8.0,-5.375,10.5,0.0,0.0,0.0
1695396935346,-1.0302734,0.3798828,0.1328125,-41.5625,53.6875,3.09375,-42.1875,27.375,1.75
1695396935398,-0.9814453,0.2861328,0.0107421875,-20.875,47.71875,2.1875,0.0,0.0,0.0
1695396935423,-0.9550781,0.0546875,0.052734375,-58.59375,44.78125,-13.5625,0.0,0.0,0.0
1695396935477,-1.2324219,-0.02734375,-0.0029296875,-100.78125,64.25,-32.65625,0.0,0.0,0.0
1695396935503,-0.95703125,0.17675781,0.14453125,-131.40625,58.34375,-19.0,0.0,0.0,0.0
1695396935558,-0.9111328,0.11230469,0.22558594,-135.125,41.0,0.46875,0.0,0.0,0.0
1695396935581,-0.9873047,0.01953125,0.1796875,-158.25,32.6875,-1.78125,0.0,0.0,0.0
1695396935659,-1.0419922,-0.12207031,0.13574219,-112.90625,16.15625,0.90625,0.0,0.0,0.0
1695396935662,-0.9794922,0.048828125,0.1015625,-40.78125,15.46875,16.15625,0.0,0.0,0.0
1695396935713,-0.984375,0.18164062,0.18066406,-30.9375,21.71875,5.90625,0.0,0.0,0.0
1695396935764,-1.0644531,0.24316406,0.17089844,-79.90625,25.90625,-0.90625,0.0,0.0,0.0
1695396935792,-0.9765625,0.125,0.08886719,-64.875,16.8125,19.84375,0.0,0.0,0.0
1695396935844,-0.9863281,0.030273438,0.0625,-73.125,28.0,4.875,-45.625,19.4375,4.875
1695396935870,-0.9980469,0.048828125,0.13183594,-59.5,17.3125,-3.4375,0.0,0.0,0.0
1695396935922,-0.9423828,0.06640625,0.10644531,-40.84375,18.0625,7.5625,0.0,0.0,0.0
1695396935948,-0.9189453,0.0107421875,0.08691406,-40.78125,21.46875,17.03125,0.0,0.0,0.0
1695396936002,-1.0009766,0.07421875,0.14941406,-55.96875,19.09375,12.5,0.0,0.0,0.0
1695396936029,-0.9746094,0.111328125,0.12109375,-70.25,7.5625,11.78125,0.0,0.0,0.0
1695396936080,-1.1171875,0.043945312,0.1484375,-73.25,-5.21875,5.375,0.0,0.0,0.0
1695396936107,-1.1494141,0.02734375,0.13867188,-60.59375,-10.09375,-1.09375,0.0,0.0,0.0
1695396936160,-0.9892578,0.24316406,0.1484375,-36.375,-16.4375,7.6875,0.0,0.0,0.0
1695396936185,-0.9091797,0.30859375,0.09375,-24.09375,-13.75,32.15625,0.0,0.0,0.0
1695396936238,-0.82910156,0.20996094,0.23144531,-18.3125,-22.65625,37.53125,0.0,0.0,0.0
1695396936263,-0.8808594,0.3388672,0.28808594,-39.3125,-27.90625,27.03125,0.0,0.0,0.0
1695396936320,-1.0371094,0.29882812,0.23339844,-45.40625,-28.8125,13.1875,0.0,0.0,0.0
1695396936341,-0.9140625,0.17285156,0.29589844,-18.625,-31.21875,10.75,-41.5625,18.25,13.3125
1695396936421,-0.89160156,0.17871094,0.3876953,-33.625,-18.875,15.625,0.0,0.0,0.0
1695396936425,-0.87597656,0.18359375,0.4482422,-11.78125,-29.625,14.40625,0.0,0.0,0.0
1695396936475,-0.75390625,0.21972656,0.44726562,-8.1875,-22.40625,5.375,0.0,0.0,0.0
1695396936506,-0.79589844,0.17675781,0.4609375,-8.78125,-11.0,0.65625,0.0,0.0,0.0
1695396936553,-0.86035156,0.13867188,0.5263672,-11.90625,12.96875,-17.40625,0.0,0.0,0.0
1695396936604,-0.9316406,0.044921875,0.46875,2.5,5.90625,-8.71875,0.0,0.0,0.0
1695396936633,-0.9355469,0.18164062,0.41601562,27.53125,3.875,-8.625,0.0,0.0,0.0
1695396936685,-1.1181641,0.22558594,0.48339844,92.40625,-29.5,26.0625,0.0,0.0,0.0
1695396936709,-0.92871094,-0.020507812,0.19628906,85.15625,7.25,3.90625,0.0,0.0,0.0
1695396936762,-1.2412109,-0.0029296875,0.07128906,80.625,43.6875,-35.59375,0.0,0.0,0.0
1695396936793,-0.81640625,0.19238281,0.18359375,144.59375,13.21875,-45.40625,0.0,0.0,0.0
1695396936842,-0.9980469,0.08886719,-0.0068359375,139.65625,6.5625,-17.75,-42.75,23.625,9.125
1695396936869,-0.99902344,0.047851562,0.11328125,115.0625,-8.5625,-33.21875,0.0,0.0,0.0
1695396936919,-0.99121094,0.13671875,0.13964844,103.6875,5.78125,-17.71875,0.0,0.0,0.0
1695396936946,-1.1328125,-0.055664062,0.19042969,103.21875,-12.28125,-10.1875,0.0,0.0,0.0
1695396937001,-1.0371094,-0.12695312,0.21582031,110.34375,-38.28125,-7.75,0.0,0.0,0.0
1695396937025,-1.1542969,-0.12597656,0.13574219,126.03125,-39.375,-3.0625,0.0,0.0,0.0
1695396937077,-0.9921875,-0.083984375,0.12988281,153.0625,-45.6875,-20.28125,0.0,0.0,0.0
1695396937104,-1.1054688,0.022460938,9.765625E-4,215.34375,-70.40625,-29.59375,0.0,0.0,0.0
1695396937183,-1.109375,0.24511719,-0.12109375,231.875,-104.5625,-41.875,0.0,0.0,0.0
1695396937187,-0.8671875,0.4345703,0.083984375,185.65625,-111.40625,-47.4375,0.0,0.0,0.0
1695396937234,-1.0087891,0.43847656,0.07910156,162.96875,-121.90625,-44.5,0.0,0.0,0.0
1695396937261,-1.1132812,-0.0078125,0.10058594,176.625,-105.71875,-53.65625,0.0,0.0,0.0
1695396937313,-0.98535156,0.3408203,0.07128906,187.0,-89.0,-81.5625,0.0,0.0,0.0
1695396937366,-0.7607422,0.5136719,0.41015625,128.84375,-51.03125,-65.875,-44.4375,19.625,-4.375
1695396937391,-0.7998047,0.23339844,0.25976562,91.5,-14.53125,-47.125,0.0,0.0,0.0
1695396937444,-0.76171875,0.009765625,0.123046875,107.65625,16.21875,-45.59375,0.0,0.0,0.0
1695396937473,-0.79296875,0.19433594,0.15625,131.46875,33.625,-43.71875,0.0,0.0,0.0
1695396937524,-1.1972656,0.28808594,0.0859375,130.875,-4.40625,-27.65625,0.0,0.0,0.0
1695396937550,-0.81933594,0.28027344,0.08105469,142.28125,6.03125,-13.90625,0.0,0.0,0.0
1695396937604,-1.1074219,0.11621094,0.083984375,99.5625,30.125,17.15625,0.0,0.0,0.0
1695396937632,-1.3496094,-0.025390625,0.20214844,85.625,10.84375,-25.5625,0.0,0.0,0.0
1695396937684,-0.9326172,0.037109375,0.24511719,105.53125,-17.28125,-44.6875,0.0,0.0,0.0
1695396937707,-1.0332031,0.04296875,0.1953125,121.53125,-27.1875,-25.46875,0.0,0.0,0.0
1695396937759,-1.0166016,0.08984375,0.16015625,110.59375,-24.125,-25.53125,0.0,0.0,0.0
1695396937790,-1.0205078,0.059570312,0.03515625,116.6875,-9.25,-9.09375,0.0,0.0,0.0
1695396937838,-0.9814453,0.04296875,0.09667969,99.4375,-5.21875,-20.375,-48.3125,5.375,-17.125
1695396937865,-0.8691406,0.034179688,0.0234375,105.34375,-4.46875,-17.21875,0.0,0.0,0.0
1695396937944,-0.9169922,-0.017578125,0.0126953125,98.21875,6.625,-15.875,0.0,0.0,0.0
1695396937948,-0.9580078,0.053710938,-0.1015625,94.0,-9.84375,-18.5625,0.0,0.0,0.0
1695396937996,-1.0791016,0.23339844,-0.20117188,82.71875,-31.625,-26.25,0.0,0.0,0.0
1695396938022,-1.2001953,0.6826172,-0.03515625,55.78125,-59.84375,-38.875,0.0,0.0,0.0
1695396938074,-0.9658203,0.74316406,0.01171875,-34.96875,-35.25,-16.375,0.0,0.0,0.0
1695396938103,-1.0546875,0.54003906,-0.049804688,-38.875,-58.125,14.34375,0.0,0.0,0.0
1695396938153,-0.9189453,0.40039062,0.22265625,-86.1875,-49.9375,44.1875,0.0,0.0,0.0
1695396938179,-0.93359375,0.53125,0.20410156,-138.4375,-43.71875,55.0625,0.0,0.0,0.0
1695396938233,-0.9873047,0.29492188,0.1875,-138.78125,-39.9375,53.28125,0.0,0.0,0.0
1695396938287,-0.75390625,0.13867188,0.33007812,-150.375,-1.4375,34.40625,0.0,0.0,0.0
1695396938312,-0.6972656,0.22949219,0.42089844,-130.6875,32.8125,35.21875,0.0,0.0,0.0
1695396938364,-0.8154297,0.171875,0.61328125,-96.8125,47.03125,30.75,-49.1875,7.3125,-5.0
1695396938396,-0.70410156,0.078125,0.5253906,-97.40625,27.09375,8.1875,0.0,0.0,0.0
1695396938442,-0.8466797,0.07324219,0.5292969,-74.28125,31.96875,8.1875,0.0,0.0,0.0
1695396938470,-1.2714844,0.29492188,0.3779297,-18.5625,12.6875,26.78125,0.0,0.0,0.0
1695396938521,-0.9033203,0.080078125,0.3623047,19.03125,10.40625,49.875,0.0,0.0,0.0
1695396938548,-0.85839844,-0.07910156,0.29296875,-8.71875,31.71875,-3.0,0.0,0.0,0.0
1695396938600,-0.99902344,-0.0546875,0.24609375,21.125,15.96875,-33.9375,0.0,0.0,0.0
1695396938633,-1.1015625,-0.12207031,0.08691406,78.375,2.78125,-8.1875,0.0,0.0,0.0
1695396938679,-0.984375,-0.06347656,0.18066406,73.4375,17.375,-15.875,0.0,0.0,0.0
1695396938706,-0.9453125,0.11425781,0.21484375,55.90625,3.46875,-12.8125,0.0,0.0,0.0
1695396938757,-1.0595703,0.048828125,0.20507812,55.46875,-11.375,-9.53125,0.0,0.0,0.0
1695396938783,-1.0224609,-0.0087890625,0.24707031,84.53125,-10.46875,-14.65625,0.0,0.0,0.0
1695396938837,-0.93066406,0.040039062,0.059570312,96.4375,-22.25,-5.3125,-49.5,5.9375,-12.5
1695396938862,-0.9238281,0.11328125,0.0234375,118.21875,-23.28125,-6.84375,0.0,0.0,0.0
1695396938914,-1.03125,0.23339844,0.109375,115.71875,-18.75,-18.75,0.0,0.0,0.0
1695396938942,-1.0097656,0.23339844,0.18164062,87.28125,-7.78125,-26.1875,0.0,0.0,0.0
1695396938993,-0.9746094,0.12890625,0.14257812,52.90625,1.5,-15.9375,0.0,0.0,0.0
1695396939020,-0.9941406,-0.016601562,0.14550781,42.71875,8.21875,-5.4375,0.0,0.0,0.0
1695396939072,-0.98339844,-0.10546875,0.1171875,62.5625,3.8125,-4.75,0.0,0.0,0.0
1695396939126,-1.0234375,0.0068359375,0.1328125,79.03125,-1.125,-14.59375,0.0,0.0,0.0
1695396939151,-1.0166016,0.048828125,0.06347656,74.71875,-8.0,-15.875,0.0,0.0,0.0
1695396939205,-1.0126953,0.4423828,0.09375,58.59375,-1.25,-20.75,0.0,0.0,0.0
1695396939235,-1.0283203,0.63183594,-0.068359375,38.875,-17.96875,-17.53125,0.0,0.0,0.0
1695396939282,-1.0498047,0.5595703,0.057617188,-2.0,-27.125,-2.09375,0.0,0.0,0.0
1695396939308,-0.9550781,0.63671875,0.068359375,-9.65625,-37.5,11.90625,0.0,0.0,0.0
1695396939361,-0.8544922,0.6953125,0.026367188,-26.5,-26.03125,32.90625,-49.9375,-1.25,-8.75
1695396939390,-0.85058594,0.6035156,0.09277344,-71.53125,-2.03125,39.84375,0.0,0.0,0.0
1695396939440,-0.85839844,0.43359375,0.11425781,-91.125,5.34375,37.90625,0.0,0.0,0.0
1695396939467,-0.7988281,0.4013672,0.13964844,-112.1875,19.8125,30.875,0.0,0.0,0.0
1695396939519,-0.85253906,0.44140625,0.21875,-118.71875,36.78125,32.09375,0.0,0.0,0.0
1695396939545,-0.93847656,0.4033203,0.2109375,-120.84375,37.09375,33.75,0.0,0.0,0.0
1695396939601,-0.87402344,0.30566406,0.22265625,-125.5625,33.96875,29.53125,0.0,0.0,0.0
1695396939623,-0.9267578,0.375,0.2890625,-113.65625,44.90625,23.96875,0.0,0.0,0.0
1695396939678,-1.0488281,0.35351562,0.31640625,-101.8125,25.5625,21.84375,0.0,0.0,0.0
1695396939701,-0.9765625,0.328125,0.31933594,-100.84375,19.8125,16.09375,0.0,0.0,0.0
1695396939755,-0.83984375,0.24121094,0.3515625,-102.96875,20.0625,16.65625,0.0,0.0,0.0
1695396939780,-0.78515625,0.107421875,0.32421875,-92.59375,24.5625,5.1875,0.0,0.0,0.0
1695396939833,-0.8330078,0.17480469,0.23925781,-72.8125,20.71875,1.15625,-47.4375,12.25,-11.4375
1695396939860,-1.0058594,0.059570312,0.27539062,-44.6875,14.9375,3.71875,0.0,0.0,0.0
1695396939912,-1.0214844,0.08203125,0.22558594,-50.28125,26.84375,-8.5625,0.0,0.0,0.0
1695396939993,-1.0732422,0.0390625,0.1171875,-39.5625,25.75,-18.9375,0.0,0.0,0.0
1695396940001,-0.9736328,-0.01171875,0.091796875,-24.59375,23.71875,-6.78125,0.0,0.0,0.0
1695396940045,-1.1025391,-0.0068359375,0.109375,-33.5625,20.71875,2.6875,0.0,0.0,0.0
1695396940070,-1.0087891,0.080078125,0.18847656,-38.9375,18.28125,8.0,0.0,0.0,0.0
1695396940123,-0.9892578,0.111328125,0.19726562,-61.78125,10.34375,17.40625,0.0,0.0,0.0
1695396940149,-1.0458984,0.06347656,0.03125,-66.96875,4.5625,16.65625,0.0,0.0,0.0
1695396940205,-1.0820312,0.07519531,0.047851562,-39.125,-2.53125,21.71875,0.0,0.0,0.0
1695396940226,-0.9824219,0.12695312,0.15820312,-57.625,-8.5,29.46875,0.0,0.0,0.0
1695396940280,-0.9824219,0.14746094,0.22265625,-72.03125,-23.59375,28.75,0.0,0.0,0.0
1695396940307,-0.9394531,0.12011719,0.17089844,-74.78125,-23.8125,20.3125,0.0,0.0,0.0
1695396940361,-0.984375,0.09375,0.203125,-52.375,-17.53125,12.25,-45.75,17.5,-8.125
1695396940388,-0.99609375,0.18066406,0.26953125,-35.53125,-27.84375,10.4375,0.0,0.0,0.0
1695396940436,-0.8046875,0.33398438,0.47070312,-32.90625,-22.65625,16.90625,0.0,0.0,0.0
1695396940464,-0.8486328,0.36621094,0.50683594,-2.3125,-32.25,18.4375,0.0,0.0,0.0
1695396940516,-0.7910156,0.2861328,0.45996094,10.1875,-29.1875,5.25,0.0,0.0,0.0
1695396940543,-0.6923828,0.31835938,0.42382812,3.65625,6.34375,-1.09375,0.0,0.0,0.0
1695396940597,-0.78808594,0.38964844,0.37695312,-12.09375,36.65625,-0.84375,0.0,0.0,0.0
1695396940622,-0.87890625,0.40820312,0.28027344,-23.9375,50.34375,9.40625,0.0,0.0,0.0
1695396940674,-0.84277344,0.42089844,0.20410156,-36.9375,62.25,15.875,0.0,0.0,0.0
1695396940725,-0.85546875,0.49023438,0.14453125,-54.25,85.6875,22.40625,0.0,0.0,0.0
1695396940752,-0.89160156,0.58984375,0.08886719,-52.1875,83.125,43.5,0.0,0.0,0.0
1695396940804,-0.9550781,0.64941406,-0.041015625,-81.53125,88.53125,49.25,0.0,0.0,0.0
1695396940833,-0.9609375,0.6347656,-0.038085938,-111.75,84.15625,18.96875,-42.4375,24.375,-12.5
1695396940883,-1.0068359,0.40625,0.037109375,-138.3125,45.21875,4.15625,0.0,0.0,0.0
1695396940910,-0.91503906,0.16894531,0.15820312,-127.5,20.0625,-10.8125,0.0,0.0,0.0
1695396940966,-1.1064453,0.061523438,0.1171875,-119.25,3.65625,-6.65625,0.0,0.0,0.0
1695396940988,-0.93359375,0.1328125,0.06738281,-116.09375,38.125,12.6875,0.0,0.0,0.0
1695396941042,-1.1689453,-0.0029296875,-0.026367188,-99.71875,39.78125,28.5625,0.0,0.0,0.0
1695396941069,-1.0751953,-0.21191406,0.015625,-106.6875,48.0,-8.65625,0.0,0.0,0.0
1695396941121,-1.0703125,-0.034179688,-0.01953125,-86.84375,41.59375,-37.1875,0.0,0.0,0.0
1695396941146,-0.9951172,0.10546875,0.055664062,-103.8125,27.03125,-10.4375,0.0,0.0,0.0
1695396941202,-0.95996094,0.091796875,0.11425781,-122.0,2.96875,22.40625,0.0,0.0,0.0
1695396941224,-1.0419922,-0.11035156,0.055664062,-123.03125,-6.5625,33.03125,0.0,0.0,0.0
1695396941279,-1.0283203,-0.19238281,0.12695312,-82.40625,2.78125,14.8125,0.0,0.0,0.0
1695396941305,-1.0537109,-0.11816406,0.29003906,-44.375,0.90625,-6.84375,0.0,0.0,0.0
1695396941360,-0.9824219,0.051757812,0.23242188,-16.34375,-6.1875,-8.90625,-42.4375,25.4375,2.5
1695396941384,-0.94433594,0.087890625,0.1328125,1.90625,-5.21875,-0.0625,0.0,0.0,0.0
1695396941436,-0.9794922,0.09082031,0.115234375,20.15625,-4.28125,-3.84375,0.0,0.0,0.0
1695396941461,-1.0097656,0.1015625,0.18847656,21.375,5.28125,-8.0,0.0,0.0,0.0
1695396941514,-0.984375,0.07910156,0.203125,6.65625,4.6875,-2.09375,0.0,0.0,0.0
1695396941567,-0.96484375,0.00390625,0.14355469,8.1875,-2.09375,-0.5,0.0,0.0,0.0
1695396941593,-1.0097656,-0.034179688,0.20214844,16.3125,-9.53125,3.84375,0.0,0.0,0.0
1695396941644,-1.0488281,-0.09082031,0.1171875,45.15625,-15.65625,-1.15625,0.0,0.0,0.0
1695396941676,-1.0009766,0.1015625,0.1328125,66.21875,-14.90625,-5.8125,0.0,0.0,0.0
1695396941725,-0.9716797,0.37695312,0.22070312,62.1875,-13.625,2.125,0.0,0.0,0.0
1695396941749,-1.0927734,0.35742188,0.24121094,52.0625,-22.96875,5.0625,0.0,0.0,0.0
1695396941803,-0.99609375,0.14160156,0.17578125,65.125,-28.46875,7.4375,0.0,0.0,0.0
1695396941827,-0.8798828,0.12792969,0.11621094,87.28125,-22.96875,-2.75,-41.5625,26.375,-0.625
1695396941882,-0.8964844,0.2626953,0.2939453,92.28125,-33.34375,-4.8125,0.0,0.0,0.0
1695396941906,-0.9296875,0.32617188,0.265625,99.125,-49.34375,-9.78125,0.0,0.0,0.0
1695396941959,-1.0166016,0.25683594,0.14746094,117.875,-61.53125,-26.5625,0.0,0.0,0.0
1695396941994,-0.9824219,0.2939453,0.22460938,114.8125,-92.25,-34.78125,0.0,0.0,0.0
1695396942039,-1.0097656,0.2548828,0.38085938,110.71875,-105.4375,-44.5,0.0,0.0,0.0
1695396942067,-0.7714844,0.13183594,0.203125,140.6875,-97.6875,-46.625,0.0,0.0,0.0
1695396942117,-0.8457031,0.15136719,0.26171875,111.75,-72.28125,-50.59375,0.0,0.0,0.0
1695396942143,-0.95703125,0.19140625,0.328125,120.78125,-77.71875,-55.78125,0.0,0.0,0.0
1695396942199,-1.0146484,0.3935547,0.51464844,110.46875,-46.28125,-60.78125,0.0,0.0,0.0
1695396942222,-0.7753906,0.31347656,0.42578125,87.09375,-19.96875,-56.09375,0.0,0.0,0.0
1695396942274,-0.6533203,0.07421875,0.38476562,82.75,13.34375,-62.5625,0.0,0.0,0.0
1695396942303,-0.59472656,-0.032226562,0.3720703,74.28125,52.84375,-62.125,0.0,0.0,0.0
1695396942355,-1.0888672,0.10253906,0.046875,93.25,66.4375,-66.15625,-46.375,16.125,-4.25
1695396942407,-1.3916016,0.25683594,0.115234375,116.59375,29.40625,-49.3125,0.0,0.0,0.0
1695396942432,-0.8779297,0.32226562,0.08984375,98.21875,54.125,-5.4375,0.0,0.0,0.0
1695396942484,-0.6855469,0.3466797,0.10449219,106.625,22.5625,38.03125,0.0,0.0,0.0
1695396942513,-1.0839844,0.10546875,-0.01953125,64.21875,23.28125,25.9375,0.0,0.0,0.0
1695396942563,-1.109375,0.02734375,0.17382812,77.53125,23.1875,-30.8125,0.0,0.0,0.0
1695396942595,-0.98339844,0.10546875,0.038085938,100.15625,-11.0,-38.53125,0.0,0.0,0.0
1695396942642,-0.9042969,0.15136719,0.09375,115.25,-14.84375,-23.375,0.0,0.0,0.0
1695396942669,-1.0351562,0.078125,0.11230469,118.09375,-6.5625,-14.53125,0.0,0.0,0.0
1695396942724,-1.0605469,0.02734375,0.109375,130.1875,-20.21875,-20.375,0.0,0.0,0.0
1695396942747,-1.0820312,0.11328125,0.10253906,130.1875,-22.46875,-31.0625,0.0,0.0,0.0
1695396942799,-1.0107422,0.15039062,0.099609375,113.34375,-16.1875,-33.03125,0.0,0.0,0.0
1695396942829,-1.0917969,0.099609375,0.08300781,93.625,-30.34375,-26.75,-48.4375,2.375,-17.3125
1695396942879,-1.0195312,0.06542969,0.06542969,80.3125,-21.8125,-15.5,0.0,0.0,0.0
1695396942905,-1.0039062,0.13183594,-0.0146484375,52.375,-19.71875,-6.90625,0.0,0.0,0.0
1695396942959,-0.97558594,0.14648438,0.016601562,45.21875,-15.78125,-3.4375,0.0,0.0,0.0
1695396942984,-0.9716797,0.12695312,0.06347656,9.59375,-2.65625,3.78125,0.0,0.0,0.0
1695396943037,-0.97753906,0.16113281,0.12890625,-0.4375,3.75,16.59375,0.0,0.0,0.0
1695396943063,-0.98535156,0.09277344,0.15136719,-12.28125,2.78125,22.03125,0.0,0.0,0.0
1695396943115,-0.9941406,-0.013671875,0.14941406,0.4375,4.125,13.53125,0.0,0.0,0.0
1695396943143,-0.9638672,-0.060546875,0.2109375,47.3125,-1.96875,8.125,0.0,0.0,0.0
1695396943199,-1.0810547,0.17285156,0.203125,72.4375,-30.15625,0.46875,0.0,0.0,0.0
1695396943247,-1.0908203,0.083984375,0.20507812,93.8125,-32.90625,2.5,0.0,0.0,0.0
1695396943271,-1.0224609,0.16699219,0.15722656,112.4375,-54.875,0.125,0.0,0.0,0.0
1695396943324,-0.8847656,0.25878906,0.16992188,127.1875,-70.34375,-9.84375,0.0,0.0,0.0
1695396943353,-0.8310547,0.29101562,0.14550781,138.96875,-73.875,-22.03125,-48.1875,0.5625,-7.6875
1695396943404,-0.9511719,0.32226562,0.17285156,152.40625,-77.28125,-23.375,0.0,0.0,0.0
1695396943430,-0.97265625,0.24121094,0.22167969,145.625,-59.53125,-28.09375,0.0,0.0,0.0
1695396943482,-0.9716797,0.2890625,0.18164062,139.90625,-45.78125,-46.09375,0.0,0.0,0.0
1695396943519,-0.9121094,0.3623047,0.11035156,134.15625,-40.0,-53.84375,0.0,0.0,0.0
1695396943563,-0.89746094,0.36621094,0.16210938,124.15625,-29.75,-48.53125,0.0,0.0,0.0
1695396943586,-0.9199219,0.3515625,0.16503906,103.46875,-22.71875,-39.625,0.0,0.0,0.0
1695396943639,-0.89746094,0.40429688,0.15820312,84.96875,-14.59375,-27.53125,0.0,0.0,0.0
1695396943666,-0.87109375,0.40039062,0.107421875,79.28125,-5.9375,-18.5,0.0,0.0,0.0
1695396943719,-0.9472656,0.4169922,0.08984375,75.5,-7.09375,-16.125,0.0,0.0,0.0
1695396943746,-0.9511719,0.50878906,0.14160156,68.0,2.0625,-3.375,0.0,0.0,0.0
1695396943799,-1.0019531,0.42871094,0.05078125,75.375,-4.46875,17.21875,0.0,0.0,0.0
1695396943826,-0.9355469,0.3798828,0.001953125,-1.78125,19.8125,12.875,-47.5625,0.375,7.4375
1695396943876,-0.8955078,0.26171875,0.06347656,-43.5625,0.15625,-0.5,0.0,0.0,0.0
1695396943902,-0.9394531,0.15917969,0.107421875,-40.03125,-8.4375,-19.59375,0.0,0.0,0.0
1695396943955,-1.0097656,0.14648438,0.19628906,-83.6875,1.03125,-8.90625,0.0,0.0,0.0
1695396943983,-0.98535156,0.06640625,0.21972656,-106.25,6.625,19.53125,0.0,0.0,0.0
1695396944033,-0.9980469,0.013671875,0.15039062,-108.21875,19.6875,15.8125,0.0,0.0,0.0
1695396944085,-1.0634766,0.09863281,0.14648438,-91.0,13.71875,6.90625,0.0,0.0,0.0
1695396944112,-0.9453125,0.18652344,0.15332031,-96.0625,22.875,10.0,0.0,0.0,0.0
1695396944165,-0.97753906,0.140625,0.17675781,-118.53125,25.1875,13.90625,0.0,0.0,0.0
1695396944192,-0.96972656,0.061523438,0.109375,-133.46875,28.78125,22.53125,0.0,0.0,0.0
1695396944244,-1.0058594,-0.056640625,0.12402344,-124.21875,28.125,20.4375,0.0,0.0,0.0
1695396944269,-0.96777344,-0.0625,0.1484375,-107.59375,16.9375,15.4375,0.0,0.0,0.0
1695396944322,-1.0302734,-0.0625,0.21679688,-90.5,3.34375,20.0625,0.0,0.0,0.0
1695396944350,-0.9980469,-0.03515625,0.22949219,-79.78125,-3.3125,28.4375,-48.625,-5.0,-3.8125
1695396944402,-0.9707031,-0.061523438,0.21777344,-80.0,-5.75,33.6875,0.0,0.0,0.0
1695396944426,-0.9902344,-0.046875,0.15527344,-66.40625,-8.4375,26.65625,0.0,0.0,0.0
1695396944506,-0.9472656,0.038085938,0.19238281,-44.5,-3.9375,22.40625,0.0,0.0,0.0
1695396944513,-0.89453125,0.16992188,0.25976562,-24.71875,4.75,16.84375,0.0,0.0,0.0
1695396944558,-0.87597656,0.20800781,0.4736328,-8.65625,11.9375,24.21875,0.0,0.0,0.0
1695396944585,-1.0205078,0.30078125,0.4296875,13.625,9.0625,16.21875,0.0,0.0,0.0
1695396944637,-1.0722656,0.2890625,0.57714844,72.75,-2.8125,2.4375,0.0,0.0,0.0
1695396944663,-0.95996094,0.5107422,0.45117188,62.6875,-30.46875,-14.53125,0.0,0.0,0.0
1695396944717,-0.6777344,0.37695312,0.49023438,55.65625,0.53125,-10.4375,0.0,0.0,0.0
1695396944741,-0.8017578,0.32714844,0.50097656,43.59375,-13.6875,-3.0625,0.0,0.0,0.0
1695396944795,-0.84765625,0.22363281,0.4736328,49.5625,0.78125,2.9375,0.0,0.0,0.0
1695396944847,-0.8339844,0.2265625,0.35839844,75.5,3.09375,-1.09375,-49.9375,0.5625,-2.3125
1695396944877,-0.8486328,0.28808594,0.3330078,86.125,5.0,-10.125,0.0,0.0,0.0
1695396944925,-0.8613281,0.24609375,0.33984375,95.59375,12.5625,-15.3125,0.0,0.0,0.0
1695396944952,-0.89941406,0.27539062,0.29785156,91.0,0.53125,-14.78125,0.0,0.0,0.0
1695396945005,-0.93066406,0.34375,0.2548828,95.875,-9.53125,-10.9375,0.0,0.0,0.0
1695396945032,-0.95214844,0.2685547,0.15820312,103.75,-10.875,-12.40625,0.0,0.0,0.0
1695396945086,-0.98535156,0.24121094,0.08496094,122.125,-24.0625,-14.03125,0.0,0.0,0.0
1695396945110,-0.9121094,0.4140625,0.049804688,106.4375,-24.75,-15.625,0.0,0.0,0.0
1695396945163,-0.8359375,0.4013672,-0.034179688,71.90625,-7.28125,-22.03125,0.0,0.0,0.0
1695396945188,-0.8486328,0.35839844,-0.0126953125,64.5625,-0.8125,-23.125,0.0,0.0,0.0
1695396945241,-1.0966797,0.27441406,-0.026367188,67.5625,-13.9375,-17.9375,0.0,0.0,0.0
1695396945268,-1.1171875,0.12988281,0.109375,60.125,-5.28125,-11.59375,0.0,0.0,0.0
1695396945321,-1.0087891,0.14941406,0.06738281,55.46875,-1.59375,-1.28125,0.0,0.0,0.0
1695396945349,-0.96777344,0.13671875,0.055664062,49.375,-10.9375,-4.8125,-48.625,1.75,-0.375
1695396945401,-1.0429688,0.19042969,0.07714844,36.625,-9.84375,-16.125,0.0,0.0,0.0
1695396945425,-1.0175781,0.111328125,0.109375,10.1875,1.9375,-18.125,0.0,0.0,0.0
1695396945478,-0.95996094,0.09863281,0.07421875,6.65625,7.84375,-13.3125,0.0,0.0,0.0
1695396945505,-0.9892578,0.095703125,0.11035156,-7.875,13.28125,-3.53125,0.0,0.0,0.0
1695396945557,-0.98046875,0.091796875,0.12597656,-26.84375,17.8125,-1.21875,0.0,0.0,0.0
1695396945582,-0.9794922,0.15234375,0.10839844,-35.75,13.71875,6.59375,0.0,0.0,0.0
1695396945635,-0.9394531,0.25878906,0.064453125,-48.03125,14.3125,7.5,0.0,0.0,0.0
1695396945661,-0.99902344,0.34960938,-0.022460938,-60.46875,4.0,6.15625,0.0,0.0,0.0
1695396945715,-1.0244141,0.4091797,-0.040039062,-78.5625,-7.78125,10.25,0.0,0.0,0.0
1695396945768,-1.0556641,0.47851562,-0.025390625,-97.90625,-23.03125,10.90625,0.0,0.0,0.0
1695396945802,-1.0195312,0.44921875,0.024414062,-120.0,-17.15625,16.0,0.0,0.0,0.0
1695396945845,-0.92871094,0.43945312,0.12597656,-114.0,-13.3125,22.9375,-50.125,-2.4375,-1.6875
1695396945871,-0.921875,0.38671875,0.23046875,-94.40625,-15.21875,27.21875,0.0,0.0,0.0
1695396945924,-0.9482422,0.3154297,0.32421875,-78.84375,-44.5625,27.40625,0.0,0.0,0.0
1695396945950,-0.9248047,0.37402344,0.375,-61.03125,-66.1875,21.59375,0.0,0.0,0.0
1695396946003,-0.8720703,0.3232422,0.47753906,-42.46875,-79.5625,19.40625,0.0,0.0,0.0
1695396946032,-0.77734375,0.2607422,0.52441406,-34.25,-57.6875,7.25,0.0,0.0,0.0
1695396946082,-0.7167969,0.26171875,0.48828125,-22.59375,-34.5,0.65625,0.0,0.0,0.0
1695396946108,-0.6796875,0.28222656,0.46875,-10.6875,5.84375,-10.8125,0.0,0.0,0.0
1695396946160,-0.6591797,0.265625,0.47070312,-3.84375,38.5,-16.59375,0.0,0.0,0.0
1695396946185,-0.64453125,0.21289062,0.40429688,0.78125,58.40625,-12.28125,0.0,0.0,0.0
1695396946241,-0.70410156,0.19335938,0.39941406,-7.09375,69.8125,-15.5,0.0,0.0,0.0
1695396946291,-0.9941406,0.1796875,0.390625,13.25,53.6875,-18.0625,0.0,0.0,0.0
1695396946318,-1.1611328,0.42871094,0.32714844,40.53125,60.46875,-9.9375,0.0,0.0,0.0
1695396946344,-1.03125,0.5048828,0.0625,47.4375,57.53125,-7.21875,-49.5,-3.0625,-0.5
1695396946397,-1.0117188,0.3642578,0.057617188,-11.46875,60.65625,-5.375,0.0,0.0,0.0
1695396946423,-0.68359375,0.12011719,0.01171875,-59.15625,50.46875,0.53125,0.0,0.0,0.0
1695396946475,-0.8798828,0.061523438,-0.060546875,-54.3125,36.125,1.9375,0.0,0.0,0.0
1695396946528,-1.1191406,-0.0087890625,0.14453125,-7.5625,25.625,-7.75,0.0,0.0,0.0
1695396946554,-1.0341797,-0.030273438,0.09472656,-43.46875,42.71875,-11.53125,0.0,0.0,0.0
1695396946633,-1.1708984,-0.041992188,0.001953125,-16.59375,50.875,-0.96875,0.0,0.0,0.0
1695396946637,-1.21875,0.14648438,0.28710938,-17.8125,1.5,5.71875,0.0,0.0,0.0
1695396946685,-0.9160156,-0.07324219,0.24023438,-38.75,-9.84375,-1.59375,0.0,0.0,0.0
1695396946713,-0.9638672,-0.13476562,0.13769531,2.9375,-9.0625,-8.5,0.0,0.0,0.0
1695396946765,-1.015625,0.0048828125,0.140625,42.125,-0.625,-5.25,0.0,0.0,0.0
1695396946789,-0.9794922,0.23242188,0.13476562,41.1875,-0.75,2.5625,0.0,0.0,0.0
1695396946841,-0.921875,0.21484375,0.14355469,30.34375,2.1875,9.34375,-49.0625,-5.0,-11.625
1695396946894,-0.9638672,0.030273438,0.045898438,32.46875,-3.1875,1.34375,0.0,0.0,0.0
1695396946922,-1.0693359,0.0078125,0.048828125,37.53125,-13.6875,-7.09375,0.0,0.0,0.0
1695396946948,-1.1542969,0.08886719,9.765625E-4,37.1875,-27.96875,-5.5,0.0,0.0,0.0
1695396947000,-1.0068359,0.25097656,-0.0107421875,18.6875,-36.625,-10.375,0.0,0.0,0.0
1695396947052,-0.9433594,0.51953125,-0.017578125,11.0625,-42.1875,-25.53125,0.0,0.0,0.0
1695396947082,-1.0292969,0.46972656,-0.001953125,-15.125,-42.375,-13.375,0.0,0.0,0.0
1695396947105,-1.078125,0.40625,0.0029296875,-46.09375,-43.46875,10.25,0.0,0.0,0.0
1695396947159,-0.98339844,0.45703125,0.107421875,-66.40625,-48.96875,34.90625,0.0,0.0,0.0
1695396947184,-0.88671875,0.49804688,0.24316406,-106.5,-41.03125,50.46875,0.0,0.0,0.0
1695396947237,-0.9160156,0.34960938,0.28125,-130.125,-35.0,47.25,0.0,0.0,0.0
1695396947264,-0.8798828,0.17675781,0.30078125,-102.0625,-39.15625,36.0625,0.0,0.0,0.0
1695396947314,-0.82714844,0.15917969,0.42285156,-76.34375,-23.9375,34.84375,0.0,0.0,0.0
1695396947367,-0.77734375,0.11621094,0.4345703,-49.125,11.03125,42.15625,-47.6875,0.25,2.1875
1695396947395,-0.66796875,0.25195312,0.51953125,-39.4375,73.59375,36.875,0.0,0.0,0.0
1695396947447,-0.7216797,0.27734375,0.52734375,-56.875,86.71875,19.84375,0.0,0.0,0.0
1695396947472,-0.8466797,0.21386719,0.43066406,-53.21875,44.90625,0.90625,0.0,0.0,0.0
1695396947524,-1.0585938,0.2763672,0.5097656,-32.78125,11.75,-4.9375,0.0,0.0,0.0
1695396947552,-1.2480469,0.24511719,0.3408203,-29.90625,33.0,24.34375,0.0,0.0,0.0
1695396947609,-0.8652344,0.11230469,0.30078125,-37.09375,29.15625,37.84375,0.0,0.0,0.0
1695396947629,-0.8935547,0.078125,0.22265625,-30.5625,10.34375,10.625,0.0,0.0,0.0
1695396947683,-0.93847656,-0.0087890625,0.11621094,4.28125,-1.78125,2.5,0.0,0.0,0.0
1695396947710,-1.0927734,-0.14550781,0.119140625,24.28125,11.75,-27.15625,0.0,0.0,0.0
1695396947761,-1.0576172,0.041015625,0.13085938,30.28125,5.09375,-35.78125,0.0,0.0,0.0
1695396947814,-0.984375,0.12988281,0.125,29.375,-0.3125,-15.875,0.0,0.0,0.0
1695396947849,-0.9296875,0.14941406,0.19628906,15.875,10.1875,-19.59375,-48.3125,1.75,-9.625
1695396947867,-0.9716797,0.013671875,0.18164062,12.09375,5.15625,-14.46875,0.0,0.0,0.0
1695396947917,-1.0400391,-0.09472656,0.13964844,44.375,-2.40625,-17.46875,0.0,0.0,0.0
1695396947945,-1.0097656,-0.06640625,0.203125,72.28125,-2.9375,-18.3125,0.0,0.0,0.0
1695396947998,-0.9941406,0.0107421875,0.19433594,93.3125,-14.78125,-21.1875,0.0,0.0,0.0
1695396948025,-1.0205078,0.0390625,0.15820312,111.5,-20.65625,-21.0,0.0,0.0,0.0
1695396948076,-1.0205078,0.06347656,0.1484375,108.09375,-18.875,-18.0625,0.0,0.0,0.0
1695396948103,-0.98535156,0.01171875,0.103515625,103.6875,-23.75,-12.5625,0.0,0.0,0.0
1695396948154,-1.0097656,-9.765625E-4,0.13183594,110.65625,-28.9375,-11.0625,0.0,0.0,0.0
1695396948207,-1.0556641,-0.041015625,0.13183594,112.71875,-34.0625,-16.46875,0.0,0.0,0.0
1695396948237,-1.0009766,-0.022460938,0.095703125,111.5,-28.53125,-22.34375,0.0,0.0,0.0
1695396948287,-0.9892578,0.12890625,0.107421875,106.6875,-8.5,-17.46875,0.0,0.0,0.0
1695396948312,-0.9824219,0.328125,0.13671875,98.875,-3.25,-11.71875,0.0,0.0,0.0
1695396948365,-1.0458984,0.44628906,0.052734375,83.875,-13.1875,-19.09375,-49.1875,-3.375,-0.5
1695396948391,-0.9277344,0.4169922,0.034179688,74.53125,-44.875,-32.84375,0.0,0.0,0.0
1695396948445,-0.8808594,0.58496094,0.0048828125,52.375,-55.8125,-40.53125,0.0,0.0,0.0
1695396948469,-1.0771484,0.71777344,0.11230469,33.5,-57.5,-39.6875,0.0,0.0,0.0
1695396948522,-1.3525391,0.4873047,-0.001953125,-69.09375,0.96875,-45.40625,0.0,0.0,0.0
1695396948586,-0.8378906,0.85839844,0.5283203,30.6875,-75.21875,26.96875,0.0,0.0,0.0
1695396948603,-0.84375,0.37695312,0.07910156,-19.46875,-16.4375,25.25,0.0,0.0,0.0
1695396948627,-0.91503906,0.47070312,0.22460938,-56.40625,-11.5625,63.09375,0.0,0.0,0.0
1695396948679,-0.8779297,0.5126953,0.28710938,-85.3125,-3.4375,69.09375,0.0,0.0,0.0
1695396948709,-0.79589844,0.3515625,0.28320312,-115.0,13.03125,61.875,0.0,0.0,0.0
1695396948760,-0.89160156,0.29882812,0.32714844,-111.09375,27.9375,57.84375,0.0,0.0,0.0
1695396948784,-0.85546875,0.29882812,0.32910156,-95.6875,39.71875,50.21875,0.0,0.0,0.0
1695396948838,-0.90234375,0.25097656,0.4111328,-88.4375,62.65625,41.1875,-50.25,-2.0,5.9375
1695396948864,-0.80566406,0.38183594,0.3955078,-94.1875,55.53125,35.875,0.0,0.0,0.0
1695396948918,-0.99121094,0.5058594,0.26953125,-65.25,27.03125,58.59375,0.0,0.0,0.0
1695396948943,-0.9814453,0.29785156,0.37109375,-59.9375,22.4375,48.46875,0.0,0.0,0.0
1695396948994,-1.0175781,0.19824219,0.12011719,-112.5,32.9375,33.25,0.0,0.0,0.0
1695396949048,-0.984375,0.024414062,0.17675781,-105.71875,32.375,23.90625,0.0,0.0,0.0
1695396949074,-0.9121094,-0.17675781,0.03515625,-96.375,10.71875,27.78125,0.0,0.0,0.0
1695396949126,-0.9033203,-0.24023438,0.07324219,-83.5,20.90625,11.90625,0.0,0.0,0.0
1695396949151,-0.99902344,0.029296875,0.1953125,-90.40625,20.0,13.90625,0.0,0.0,0.0
1695396949205,-1.0986328,0.07910156,0.328125,-115.53125,6.34375,21.34375,0.0,0.0,0.0
1695396949232,-1.0986328,-0.15332031,0.3310547,-118.15625,6.75,8.0625,0.0,0.0,0.0
1695396949282,-1.0800781,-0.21289062,0.35839844,-78.71875,16.65625,1.03125,0.0,0.0,0.0
1695396949337,-1.0683594,-0.049804688,0.3359375,-37.15625,14.1875,9.03125,0.0,0.0,0.0
1695396949362,-1.0224609,-9.765625E-4,0.2841797,-13.96875,15.125,12.4375,-48.9375,4.4375,-3.1875
1695396949389,-0.9951172,0.20898438,0.32421875,-12.375,15.0625,10.125,0.0,0.0,0.0
1695396949442,-0.8642578,0.15527344,0.2734375,-33.625,30.0625,14.28125,0.0,0.0,0.0
1695396949469,-1.0332031,0.08203125,0.26953125,-45.09375,38.375,19.21875,0.0,0.0,0.0
1695396949522,-0.9453125,0.115234375,0.265625,-46.6875,41.0625,22.46875,0.0,0.0,0.0
1695396949546,-0.91796875,0.234375,0.27539062,-44.375,29.28125,34.0,0.0,0.0,0.0
1695396949600,-0.8808594,0.3251953,0.2841797,-33.125,15.375,29.28125,0.0,0.0,0.0
1695396949625,-0.9111328,0.546875,0.265625,-31.125,-7.71875,19.40625,0.0,0.0,0.0
1695396949678,-0.91503906,0.6064453,0.27441406,-35.03125,-22.71875,22.75,0.0,0.0,0.0
1695396949703,-0.85058594,0.5527344,0.38964844,-34.71875,-27.71875,29.84375,0.0,0.0,0.0
1695396949757,-0.7753906,0.43066406,0.53027344,-58.84375,-23.8125,37.03125,0.0,0.0,0.0
1695396949783,-0.765625,0.29492188,0.6308594,-70.0,-37.625,46.0625,0.0,0.0,0.0
1695396949835,-0.8359375,0.25195312,0.5839844,-72.875,-15.71875,49.75,-47.4375,13.0,-2.875
1695396949889,-0.7998047,0.12890625,0.63378906,-43.5625,9.625,41.125,0.0,0.0,0.0
1695396949918,-0.6767578,0.1171875,0.63183594,5.75,-0.375,15.5,0.0,0.0,0.0
1695396949967,-0.6777344,0.18847656,0.58203125,34.78125,0.78125,-3.0,0.0,0.0,0.0
1695396949994,-0.6669922,0.21582031,0.5830078,42.0625,17.5625,-35.90625,0.0,0.0,0.0
1695396950045,-0.7832031,0.19335938,0.6269531,41.6875,29.46875,-44.4375,0.0,0.0,0.0
1695396950099,-0.828125,0.11035156,0.61816406,52.5,3.75,-40.78125,0.0,0.0,0.0
1695396950126,-0.859375,0.076171875,0.4560547,78.4375,-20.96875,-60.3125,0.0,0.0,0.0
1695396950149,-0.8623047,0.14648438,0.3828125,102.40625,-0.09375,-71.84375,0.0,0.0,0.0
1695396950203,-0.87109375,0.25195312,0.38476562,116.09375,33.78125,-55.90625,0.0,0.0,0.0
1695396950230,-1.0224609,0.21875,0.3046875,104.75,17.4375,-42.375,0.0,0.0,0.0
1695396950282,-1.3134766,0.06347656,0.12988281,101.4375,1.3125,-44.0625,0.0,0.0,0.0
1695396950307,-1.0996094,-0.02734375,0.17871094,124.4375,11.625,-39.4375,0.0,0.0,0.0
1695396950361,-0.9013672,0.043945312,0.076171875,153.5625,-5.15625,-26.875,-49.0625,2.5,-10.5625
1695396950388,-1.0224609,-0.115234375,0.022460938,159.0,-3.75,-27.96875,0.0,0.0,0.0
1695396950439,-1.0332031,-0.16503906,-0.005859375,180.0,-11.875,-38.09375,0.0,0.0,0.0
1695396950465,-1.0527344,0.026367188,-0.0146484375,193.25,-25.65625,-30.40625,0.0,0.0,0.0
1695396950517,-1.1425781,0.12402344,0.030273438,175.125,-40.78125,-31.25,0.0,0.0,0.0
1695396950544,-1.0683594,0.12695312,0.059570312,156.875,-42.0,-35.59375,0.0,0.0,0.0
1695396950598,-1.0136719,0.09667969,0.047851562,122.125,-39.03125,-22.46875,0.0,0.0,0.0
1695396950684,-0.9423828,0.078125,-0.0087890625,122.625,-43.96875,-11.53125,0.0,0.0,0.0
1695396950687,-0.93066406,0.17089844,0.024414062,123.59375,-23.53125,-15.09375,0.0,0.0,0.0
1695396950729,-0.9277344,0.31152344,0.08496094,91.96875,-1.3125,-20.625,0.0,0.0,0.0
1695396950753,-0.9609375,0.3154297,0.08300781,47.125,4.875,-11.96875,0.0,0.0,0.0
1695396950809,-1.03125,0.13964844,0.12011719,17.40625,11.46875,-0.5625,0.0,0.0,0.0
1695396950858,-0.9589844,0.036132812,0.11035156,0.96875,23.65625,13.0,-48.0,-1.375,-0.0625
1695396950884,-1.0439453,-0.022460938,0.1171875,8.65625,10.25,17.5625,0.0,0.0,0.0
1695396950914,-1.0273438,0.08105469,0.15429688,3.84375,3.15625,11.53125,0.0,0.0,0.0
1695396950964,-0.96777344,0.12695312,0.043945312,-23.8125,2.125,16.78125,0.0,0.0,0.0
1695396950990,-0.9814453,0.24121094,-0.045898438,-38.09375,-2.9375,23.875,0.0,0.0,0.0
1695396951043,-1.0712891,0.70214844,0.024414062,-42.65625,-19.71875,22.46875,0.0,0.0,0.0
1695396951069,-0.89160156,0.7324219,-0.005859375,-69.8125,-6.0,40.875,0.0,0.0,0.0
1695396951122,-0.9013672,0.51464844,0.046875,-124.09375,16.46875,36.875,0.0,0.0,0.0
1695396951147,-0.95703125,0.5908203,0.15332031,-130.90625,-6.6875,30.34375,0.0,0.0,0.0
1695396951201,-0.8935547,0.6298828,0.095703125,-156.375,-15.875,51.21875,0.0,0.0,0.0
1695396951227,-0.8691406,0.5185547,0.12792969,-176.6875,12.84375,60.40625,0.0,0.0,0.0
1695396951282,-0.8671875,0.33203125,0.14746094,-211.59375,46.1875,55.96875,0.0,0.0,0.0
1695396951305,-0.9091797,0.33691406,0.21191406,-195.75,56.25,52.65625,0.0,0.0,0.0
1695396951357,-0.9560547,0.1796875,0.37597656,-154.0625,41.3125,64.6875,-49.0625,5.375,-2.75
1695396951386,-0.8564453,0.08105469,0.4404297,-135.125,-1.96875,44.125,0.0,0.0,0.0
1695396951438,-0.84277344,0.125,0.42285156,-134.59375,12.0625,27.03125,0.0,0.0,0.0
1695396951462,-0.73535156,0.16210938,0.4658203,-121.15625,47.78125,19.96875,0.0,0.0,0.0
1695396951515,-0.83203125,0.28808594,0.5996094,-98.375,41.84375,38.875,0.0,0.0,0.0
1695396951568,-0.75683594,0.18847656,0.45507812,-64.34375,24.09375,49.0,0.0,0.0,0.0
1695396951619,-0.7949219,0.22460938,0.50097656,-72.75,51.5625,19.15625,0.0,0.0,0.0
1695396951647,-0.7519531,0.34277344,0.52441406,-59.8125,60.65625,5.4375,0.0,0.0,0.0
1695396951698,-0.8847656,0.47753906,0.57128906,-56.75,48.1875,-4.09375,0.0,0.0,0.0
1695396951725,-1.1894531,0.41210938,0.41992188,-55.40625,12.6875,-4.9375,0.0,0.0,0.0
1695396951752,-1.0419922,-0.020507812,0.5205078,-40.46875,16.40625,-14.71875,0.0,0.0,0.0
1695396951808,-0.7265625,0.033203125,0.2607422,-13.0625,15.25,-2.5625,0.0,0.0,0.0
1695396951830,-0.93652344,0.20507812,0.28125,18.9375,-2.34375,12.8125,-48.1875,9.875,-10.125
1695396951889,-0.9453125,-0.10449219,0.15527344,-4.5,4.75,3.34375,0.0,0.0,0.0
1695396951908,-1.0742188,-0.22949219,0.09765625,6.09375,13.53125,-26.625,0.0,0.0,0.0
1695396951961,-1.0341797,-0.040039062,0.119140625,26.375,8.9375,-23.5625,0.0,0.0,0.0
1695396951987,-0.96484375,0.11816406,0.17480469,9.03125,10.125,-15.375,0.0,0.0,0.0
1695396952039,-0.9824219,0.043945312,0.21386719,-6.21875,5.84375,-10.1875,0.0,0.0,0.0
1695396952068,-1.0527344,-0.18066406,0.18457031,13.25,0.09375,-14.28125,0.0,0.0,0.0
1695396952121,-0.9716797,-0.15625,0.21582031,51.9375,-6.5625,-18.75,0.0,0.0,0.0
1695396952145,-0.99121094,-0.05859375,0.26367188,85.625,-18.75,-18.875,0.0,0.0,0.0
1695396952197,-1.0058594,0.045898438,0.19335938,102.90625,-21.1875,-22.78125,0.0,0.0,0.0
1695396952224,-1.0185547,0.0546875,0.12597656,117.1875,-15.40625,-25.40625,0.0,0.0,0.0
1695396952277,-0.9814453,0.049804688,0.051757812,122.1875,-11.8125,-27.84375,0.0,0.0,0.0
1695396952311,-1.0214844,0.17382812,0.08496094,126.15625,-11.25,-28.625,0.0,0.0,0.0
1695396952382,-0.9951172,0.18261719,0.14550781,109.0,-4.0,-22.53125,-48.9375,2.625,-11.4375
1695396952412,-0.9794922,0.13183594,0.14257812,88.1875,1.4375,-13.84375,0.0,0.0,0.0
1695396952434,-0.94628906,0.03125,0.13378906,75.5625,5.53125,-3.46875,0.0,0.0,0.0
1695396952487,-0.94921875,0.083984375,0.19628906,77.46875,12.0,5.90625,0.0,0.0,0.0
1695396952511,-0.93652344,0.00390625,0.18457031,75.0625,10.65625,3.84375,0.0,0.0,0.0
1695396952564,-1.0332031,-0.029296875,0.12792969,98.9375,-9.34375,-8.90625,0.0,0.0,0.0
1695396952591,-1.0136719,0.119140625,0.18847656,121.21875,-14.375,-16.96875,0.0,0.0,0.0
1695396952643,-1.1357422,0.38964844,0.14355469,120.78125,-25.96875,-20.375,0.0,0.0,0.0
1695396952671,-1.0361328,0.48828125,0.10058594,100.90625,-33.71875,-21.96875,0.0,0.0,0.0
1695396952723,-0.9082031,0.5576172,0.076171875,92.28125,-52.15625,-25.75,0.0,0.0,0.0
1695396952753,-0.91796875,0.66015625,0.026367188,90.46875,-51.28125,-26.6875,0.0,0.0,0.0
1695396952801,-1.0039062,0.6894531,0.099609375,80.625,-59.34375,-20.03125,0.0,0.0,0.0
1695396952840,-0.8232422,0.4814453,0.12890625,68.46875,-40.5,-15.8125,-48.3125,-3.1875,-2.75
1695396952880,-0.8564453,0.4169922,0.095703125,41.6875,-20.46875,-6.34375,0.0,0.0,0.0
1695396952909,-0.9013672,0.40039062,0.20800781,41.875,-24.875,12.25,0.0,0.0,0.0
1695396952960,-0.93066406,0.46289062,0.31640625,15.8125,-25.53125,22.9375,0.0,0.0,0.0
1695396952985,-0.8261719,0.37304688,0.26660156,-1.34375,-1.1875,21.53125,0.0,0.0,0.0
1695396953037,-0.7685547,0.3017578,0.26171875,6.65625,13.96875,7.1875,0.0,0.0,0.0
1695396953064,-0.7685547,0.33984375,0.32617188,21.3125,13.96875,-3.78125,0.0,0.0,0.0
1695396953143,-0.85546875,0.38085938,0.27929688,21.0625,6.21875,-12.03125,0.0,0.0,0.0
1695396953148,-0.8144531,0.359375,0.15332031,26.5,-0.75,-26.5625,0.0,0.0,0.0
1695396953194,-1.0195312,0.4267578,0.16796875,51.15625,-2.875,-27.90625,0.0,0.0,0.0
1695396953246,-1.1689453,0.5048828,0.15234375,55.3125,11.6875,-1.96875,0.0,0.0,0.0
1695396953276,-1.1982422,0.13378906,0.15625,0.84375,-25.78125,18.90625,0.0,0.0,0.0
1695396953327,-0.8964844,-0.0126953125,0.22167969,-18.25,5.90625,-6.96875,0.0,0.0,0.0
1695396953352,-0.9511719,-0.043945312,0.09472656,17.40625,5.71875,-11.53125,-49.9375,-1.25,2.9375
1695396953407,-1.0751953,0.025390625,0.19042969,17.21875,-2.8125,-23.0,0.0,0.0,0.0
1695396953437,-1.0039062,0.11425781,0.18066406,20.9375,-3.25,-11.78125,0.0,0.0,0.0
1695396953484,-0.9550781,0.16601562,0.28710938,-13.3125,13.09375,-5.0,0.0,0.0,0.0
1695396953509,-0.9658203,0.12597656,0.14160156,-28.875,3.40625,-10.375,0.0,0.0,0.0
1695396953562,-0.9658203,0.06933594,0.07421875,-8.96875,-1.0625,-4.21875,0.0,0.0,0.0
1695396953591,-0.95703125,0.17382812,0.16015625,-18.5,-1.53125,-4.46875,0.0,0.0,0.0
1695396953644,-0.9472656,0.1875,0.19433594,-19.03125,-2.21875,8.71875,0.0,0.0,0.0
1695396953667,-0.94433594,0.0546875,0.24804688,2.625,0.34375,12.1875,0.0,0.0,0.0
1695396953719,-0.9892578,0.16894531,0.2578125,-12.21875,0.15625,-2.09375,0.0,0.0,0.0
1695396953747,-1.0322266,0.14550781,0.19042969,-22.09375,-12.90625,-8.1875,0.0,0.0,0.0
1695396953798,-1.0410156,0.107421875,0.12109375,-21.71875,-10.59375,-1.84375,0.0,0.0,0.0
1695396953824,-0.9667969,0.16601562,0.0703125,-25.09375,-10.75,6.46875,-48.0,-3.9375,2.375
1695396953905,-0.94140625,0.16503906,0.087890625,-14.46875,-25.46875,17.15625,0.0,0.0,0.0
1695396953907,-0.9472656,0.09472656,0.07910156,-7.1875,-25.65625,19.53125,0.0,0.0,0.0
1695396953957,-1.0019531,0.107421875,0.06738281,-4.34375,-33.15625,19.46875,0.0,0.0,0.0
1695396954010,-0.99902344,0.15625,0.1328125,-2.0,-33.71875,17.28125,0.0,0.0,0.0
1695396954035,-0.96191406,0.18554688,0.13085938,-1.9375,-27.25,6.78125,0.0,0.0,0.0
1695396954087,-0.9003906,0.27148438,0.1796875,-22.75,-22.0625,-0.84375,0.0,0.0,0.0
1695396954114,-0.8076172,0.37109375,0.36328125,-54.5,20.5,1.09375,0.0,0.0,0.0
1695396954166,-0.8203125,0.4658203,0.6669922,-71.46875,53.3125,-1.21875,0.0,0.0,0.0
1695396954192,-1.1708984,0.38867188,0.61328125,-46.4375,43.625,6.78125,0.0,0.0,0.0
1695396954246,-0.9902344,0.1875,0.4267578,-11.28125,-6.78125,-1.03125,0.0,0.0,0.0
1695396954271,-0.9033203,0.31640625,0.51660156,18.3125,-15.53125,16.59375,0.0,0.0,0.0
1695396954324,-0.7841797,0.2734375,0.6660156,14.59375,-8.875,16.15625,0.0,0.0,0.0
1695396954349,-0.8017578,0.15136719,0.50878906,36.6875,-14.375,2.9375,-47.5625,-1.6875,6.875
1695396954402,-0.6689453,0.18457031,0.42871094,37.34375,-4.0625,-3.78125,0.0,0.0,0.0
1695396954428,-0.73828125,0.29296875,0.33691406,16.96875,49.0625,7.125,0.0,0.0,0.0
1695396954481,-0.7314453,0.4482422,0.33984375,-5.84375,66.03125,2.125,0.0,0.0,0.0
1695396954507,-0.8154297,0.3359375,0.36523438,-55.59375,70.125,-6.46875,0.0,0.0,0.0
1695396954559,-0.8847656,0.2734375,0.078125,-50.78125,75.1875,-1.65625,0.0,0.0,0.0
1695396954591,-1.0537109,0.3125,0.15234375,8.71875,85.6875,17.28125,0.0,0.0,0.0
1695396954639,-1.0380859,0.45898438,0.12109375,5.5625,60.46875,-4.75,0.0,0.0,0.0
1695396954665,-1.0654297,0.5644531,-0.05859375,-88.125,44.15625,-4.9375,0.0,0.0,0.0
1695396954718,-0.87597656,0.12207031,0.21582031,-0.96875,25.75,-13.25,0.0,0.0,0.0
1695396954744,-0.84472656,0.2939453,0.057617188,-22.59375,2.96875,-20.625,0.0,0.0,0.0
1695396954798,-0.9980469,0.21386719,0.083984375,-21.78125,11.53125,0.0,0.0,0.0,0.0
1695396954852,-0.96875,0.068359375,0.0546875,-6.78125,5.0,-1.84375,-47.5625,-3.5,-11.0
1695396954875,-0.8691406,0.026367188,0.055664062,5.3125,15.3125,-15.9375,0.0,0.0,0.0
1695396954955,-0.9873047,0.02734375,0.111328125,24.0625,7.625,-25.09375,0.0,0.0,0.0
1695396954963,-1.3681641,0.13183594,0.18457031,26.75,-0.1875,-20.28125,0.0,0.0,0.0
1695396955011,-1.1083984,0.059570312,0.17480469,20.4375,-9.34375,-3.0625,0.0,0.0,0.0
1695396955033,-0.8779297,0.03515625,0.16015625,18.3125,-5.34375,-9.46875,0.0,0.0,0.0
1695396955084,-0.89453125,0.16308594,0.09472656,24.0625,-8.125,-19.59375,0.0,0.0,0.0
1695396955113,-0.97753906,0.076171875,0.083984375,12.15625,-3.4375,-11.0,0.0,0.0,0.0
1695396955165,-1.0273438,0.047851562,0.061523438,4.03125,7.375,-0.5625,0.0,0.0,0.0
1695396955189,-0.99609375,0.10546875,0.08984375,-1.875,5.78125,4.5,0.0,0.0,0.0
1695396955242,-0.97753906,0.07324219,0.10839844,-2.875,2.0,4.5625,0.0,0.0,0.0
1695396955271,-1.0087891,0.055664062,0.109375,-1.9375,-0.3125,-3.125,0.0,0.0,0.0
1695396955321,-1.0068359,0.125,0.021484375,-2.6875,2.59375,-5.0625,0.0,0.0,0.0
1695396955348,-0.99609375,0.123046875,0.001953125,-0.90625,-2.34375,1.15625,-47.25,-6.0625,-12.0625
1695396955400,-1.015625,0.12597656,0.051757812,7.4375,-10.6875,1.46875,0.0,0.0,0.0
1695396955425,-0.9980469,0.16699219,0.06640625,5.0,-16.125,0.46875,0.0,0.0,0.0
1695396955480,-1.0419922,0.19628906,0.038085938,1.28125,-27.90625,-2.1875,0.0,0.0,0.0
1695396955504,-1.1025391,0.23632812,0.11328125,8.0,-50.625,-6.84375,0.0,0.0,0.0
1695396955557,-1.1816406,0.23925781,0.06933594,19.59375,-64.28125,-10.5,0.0,0.0,0.0
1695396955584,-1.0009766,0.26953125,0.115234375,28.5625,-92.5625,1.21875,0.0,0.0,0.0
1695396955638,-0.8652344,0.3330078,0.24414062,36.9375,-122.46875,22.6875,0.0,0.0,0.0
1695396955690,-0.6533203,0.40625,0.3857422,7.25,-85.78125,41.125,0.0,0.0,0.0
1695396955716,-0.9951172,0.19238281,0.56640625,-16.59375,-69.71875,28.625,0.0,0.0,0.0
1695396955775,-0.8388672,0.16113281,0.48828125,-5.6875,-43.0625,8.90625,0.0,0.0,0.0
1695396955794,-0.5029297,0.16699219,0.515625,-3.59375,7.71875,-14.46875,0.0,0.0,0.0
1695396955847,-0.4658203,0.15039062,0.640625,-14.59375,52.84375,-15.1875,-45.4375,-3.5,10.625
1695396955873,-0.7011719,0.07324219,0.49609375,-10.25,60.09375,-16.84375,0.0,0.0,0.0
1695396955925,-1.546875,0.55371094,0.5605469,27.53125,14.875,-11.125,0.0,0.0,0.0
1695396955953,-0.79003906,0.296875,0.45996094,25.625,-31.8125,23.125,0.0,0.0,0.0
1695396956010,-0.5,0.15527344,0.23925781,-29.90625,46.78125,12.625,0.0,0.0,0.0
1695396956033,-1.2392578,0.0,0.1875,-1.9375,38.4375,-3.78125,0.0,0.0,0.0
1695396956082,-0.96875,0.0625,0.31933594,41.09375,-10.9375,-24.34375,0.0,0.0,0.0
1695396956109,-0.9316406,0.15820312,0.12207031,26.125,24.75,-22.78125,0.0,0.0,0.0
1695396956162,-0.9472656,0.16601562,0.19433594,1.84375,38.5625,-23.5625,0.0,0.0,0.0
1695396956187,-0.9628906,0.18652344,0.21582031,-7.09375,25.0,-6.90625,0.0,0.0,0.0
1695396956239,-0.97265625,0.022460938,0.22753906,-15.25,32.03125,-8.78125,0.0,0.0,0.0
1695396956266,-0.9472656,0.0029296875,0.15039062,-3.28125,29.71875,-1.28125,0.0,0.0,0.0
1695396956321,-0.96191406,0.08496094,0.18847656,12.75,38.625,-0.3125,0.0,0.0,0.0
1695396956371,-0.9736328,0.12988281,0.19238281,16.25,27.75,1.09375,-48.3125,-6.375,-3.5
1695396956398,-0.9736328,0.15039062,0.12207031,12.09375,19.5625,1.59375,0.0,0.0,0.0
1695396956423,-1.0214844,0.13671875,0.10253906,11.53125,14.5625,1.875,0.0,0.0,0.0
1695396956476,-0.9785156,0.07421875,0.12988281,9.28125,12.84375,2.5,0.0,0.0,0.0
1695396956529,-0.9550781,0.037109375,0.09765625,20.5625,14.625,1.28125,0.0,0.0,0.0
1695396956556,-1.0097656,0.018554688,0.107421875,29.59375,19.75,3.65625,0.0,0.0,0.0
1695396956607,-1.0537109,0.11035156,0.03125,39.84375,9.875,-4.28125,0.0,0.0,0.0
1695396956638,-1.0234375,0.16992188,0.0546875,31.0625,-5.15625,-4.875,0.0,0.0,0.0
1695396956689,-1.0292969,0.26367188,0.06347656,36.0,-17.0,-9.53125,0.0,0.0,0.0
1695396956713,-1.0947266,0.4169922,0.07324219,19.03125,-35.96875,-5.75,0.0,0.0,0.0
1695396956764,-1.1494141,0.33496094,0.047851562,-0.59375,-55.0625,4.21875,0.0,0.0,0.0
1695396956791,-1.015625,0.36621094,0.12402344,-13.5625,-74.84375,5.4375,0.0,0.0,0.0
1695396956845,-0.9199219,0.45214844,0.13085938,-27.84375,-87.25,9.59375,-48.4375,-4.375,-0.5
1695396956869,-0.7919922,0.41210938,0.328125,-42.96875,-63.875,10.1875,0.0,0.0,0.0
1695396956924,-1.0429688,0.28710938,0.30078125,-47.78125,-52.15625,15.1875,0.0,0.0,0.0
1695396956949,-0.81933594,0.140625,0.33984375,-27.34375,-46.53125,21.34375,0.0,0.0,0.0
1695396957006,-0.6357422,0.1875,0.359375,-33.25,-17.0,19.71875,0.0,0.0,0.0
1695396957029,-0.60839844,0.25878906,0.39453125,-32.34375,21.90625,11.46875,0.0,0.0,0.0
1695396957079,-0.8017578,0.2421875,0.453125,-33.625,36.28125,12.375,0.0,0.0,0.0
1695396957107,-0.90625,0.2841797,0.5205078,-39.71875,16.71875,2.6875,0.0,0.0,0.0
1695396957159,-1.2109375,0.2607422,0.5966797,-51.8125,-5.5,3.71875,0.0,0.0,0.0
1695396957185,-0.7529297,0.171875,0.3857422,-30.75,-2.8125,25.875,0.0,0.0,0.0
1695396957237,-0.58984375,0.3515625,0.36816406,-35.21875,47.90625,34.1875,0.0,0.0,0.0
1695396957263,-0.95996094,0.21191406,0.34765625,-32.28125,38.8125,15.875,0.0,0.0,0.0
1695396957319,-1.0410156,0.234375,0.3330078,-57.5,19.03125,-6.15625,0.0,0.0,0.0
1695396957368,-1.0712891,0.09472656,0.24609375,-28.5,40.8125,7.625,-48.9375,-3.375,1.875
1695396957397,-1.0498047,-0.10058594,0.2421875,-33.25,60.78125,-0.6875,0.0,0.0,0.0
1695396957448,-0.9892578,0.091796875,0.26757812,-33.5625,55.15625,-12.40625,0.0,0.0,0.0
1695396957474,-0.9628906,0.1328125,0.3154297,-43.75,41.3125,-3.375,0.0,0.0,0.0
1695396957526,-0.9609375,0.049804688,0.15136719,-71.34375,40.875,-7.03125,0.0,0.0,0.0
1695396957552,-0.8857422,0.12792969,0.0068359375,-55.96875,40.15625,7.6875,0.0,0.0,0.0
1695396957605,-1.0283203,0.12109375,0.19140625,-40.9375,41.25,12.09375,0.0,0.0,0.0
1695396957632,-1.0087891,0.13378906,0.3076172,-53.09375,21.15625,19.09375,0.0,0.0,0.0
1695396957683,-1.0107422,0.022460938,0.020507812,-79.65625,59.125,35.40625,0.0,0.0,0.0
1695396957720,-0.9863281,0.047851562,0.12207031,-55.46875,30.125,22.9375,0.0,0.0,0.0
1695396957763,-1.0087891,0.0078125,0.095703125,-64.34375,26.53125,20.625,0.0,0.0,0.0
1695396957789,-1.0458984,-0.08984375,0.076171875,-52.625,19.4375,22.21875,0.0,0.0,0.0
1695396957844,-1.2148438,0.044921875,0.0126953125,-16.78125,3.34375,10.1875,-48.625,1.4375,-18.5
1695396957867,-1.109375,0.4404297,-0.0078125,-14.28125,-4.0625,4.5,0.0,0.0,0.0
1695396957922,-0.96972656,0.57128906,-0.068359375,-40.21875,-12.53125,13.1875,0.0,0.0,0.0
1695396957951,-0.9140625,0.4501953,-0.16015625,-59.03125,-19.71875,14.21875,0.0,0.0,0.0
1695396958002,-0.85253906,0.484375,0.0078125,-85.8125,-23.09375,23.6875,0.0,0.0,0.0
1695396958029,-0.8779297,0.5986328,0.034179688,-126.21875,-18.21875,35.9375,0.0,0.0,0.0
1695396958078,-0.93652344,0.4404297,0.016601562,-144.09375,-0.5625,40.78125,0.0,0.0,0.0
1695396958104,-0.9560547,0.29492188,0.05859375,-150.875,6.8125,42.40625,0.0,0.0,0.0
1695396958157,-0.9824219,0.30078125,0.1875,-160.03125,7.71875,40.53125,0.0,0.0,0.0
1695396958209,-1.0214844,0.2841797,0.28027344,-159.1875,14.03125,44.125,0.0,0.0,0.0
1695396958234,-0.90722656,0.21582031,0.24316406,-153.875,11.28125,55.34375,0.0,0.0,0.0
1695396958288,-0.8691406,0.16894531,0.2890625,-139.46875,26.40625,57.4375,0.0,0.0,0.0
1695396958314,-0.8613281,0.21679688,0.36035156,-127.25,42.875,48.8125,0.0,0.0,0.0
1695396958366,-0.8798828,0.23828125,0.390625,-109.625,48.125,41.25,-47.6875,18.375,-7.6875
1695396958391,-0.8417969,0.24023438,0.37597656,-96.125,42.21875,33.9375,0.0,0.0,0.0
1695396958445,-0.82714844,0.2734375,0.3701172,-81.125,39.59375,29.59375,0.0,0.0,0.0
1695396958475,-0.8720703,0.26953125,0.37402344,-73.1875,29.03125,25.25,0.0,0.0,0.0
1695396958523,-0.85058594,0.35742188,0.43066406,-70.3125,26.03125,18.3125,0.0,0.0,0.0
1695396958549,-0.8154297,0.34277344,0.45703125,-64.75,29.34375,10.8125,0.0,0.0,0.0
1695396958602,-0.8310547,0.31152344,0.4375,-49.8125,16.28125,0.1875,0.0,0.0,0.0
1695396958631,-0.9267578,0.3203125,0.39160156,-23.6875,-2.875,-10.125,0.0,0.0,0.0
1695396958682,-0.93847656,0.359375,0.3828125,-13.1875,2.90625,-17.53125,0.0,0.0,0.0
1695396958707,-1.015625,0.34570312,0.4580078,-16.0,-1.1875,-14.09375,0.0,0.0,0.0
1695396958759,-0.8984375,0.24609375,0.42871094,-26.375,-1.0,-7.34375,0.0,0.0,0.0
1695396958791,-0.8222656,0.24414062,0.3623047,-36.5,11.6875,4.03125,0.0,0.0,0.0
1695396958839,-0.9658203,0.024414062,0.24511719,-6.09375,3.28125,10.25,-45.625,21.25,-3.9375
1695396958864,-0.91308594,-0.045898438,0.11425781,2.375,26.09375,-14.09375,0.0,0.0,0.0
1695396958917,-1.0410156,0.009765625,0.11328125,19.40625,30.1875,-41.6875,0.0,0.0,0.0
1695396958945,-1.0439453,0.12109375,0.068359375,26.5625,19.15625,-39.8125,0.0,0.0,0.0
1695396958996,-1.0625,0.09277344,0.11328125,15.9375,15.0,-23.25,0.0,0.0,0.0
1695396959050,-0.9824219,0.099609375,0.12695312,-12.75,17.3125,-7.5,0.0,0.0,0.0
1695396959074,-1.0087891,0.10253906,0.099609375,-19.96875,20.4375,5.84375,0.0,0.0,0.0
1695396959128,-0.99902344,0.056640625,0.15332031,-16.125,9.5625,3.15625,0.0,0.0,0.0
1695396959155,-0.99902344,0.01953125,0.13867188,-10.6875,9.875,2.1875,0.0,0.0,0.0
1695396959206,-0.9951172,0.10449219,0.111328125,-6.09375,10.59375,1.53125,0.0,0.0,0.0
1695396959232,-0.96191406,0.1640625,0.10058594,-11.28125,15.71875,6.46875,0.0,0.0,0.0
1695396959285,-1.0537109,0.16796875,0.13574219,-24.71875,11.09375,3.15625,0.0,0.0,0.0
1695396959311,-0.95214844,0.171875,0.14453125,-39.1875,16.21875,4.28125,0.0,0.0,0.0
1695396959363,-0.9794922,0.103515625,0.14550781,-45.84375,15.65625,8.28125,-46.5,19.875,-10.25
1695396959391,-0.9326172,-0.0126953125,0.22949219,-39.0625,19.375,2.625,0.0,0.0,0.0
1695396959443,-0.9785156,-0.07128906,0.26953125,-18.1875,15.96875,1.9375,0.0,0.0,0.0
1695396959471,-0.98535156,-0.034179688,0.29882812,1.90625,16.40625,-0.625,0.0,0.0,0.0
1695396959522,-1.0087891,0.052734375,0.23730469,12.875,8.09375,-3.59375,0.0,0.0,0.0
1695396959548,-0.9980469,0.103515625,0.15917969,21.5,-14.125,-9.78125,0.0,0.0,0.0
1695396959602,-1.0019531,0.15820312,0.13671875,31.96875,-35.46875,-13.25,0.0,0.0,0.0
1695396959628,-1.1933594,0.23242188,0.20800781,27.90625,-39.15625,-20.375,0.0,0.0,0.0
1695396959679,-1.203125,0.21289062,0.1171875,18.8125,-42.125,-8.0,0.0,0.0,0.0
1695396959704,-0.9453125,0.21386719,0.10058594,28.125,-40.90625,11.84375,0.0,0.0,0.0
1695396959758,-0.8828125,0.2890625,0.20605469,57.125,-61.1875,22.09375,0.0,0.0,0.0
1695396959786,-0.83691406,0.3251953,0.33007812,27.09375,-66.0,32.90625,0.0,0.0,0.0
1695396959837,-0.95996094,0.31054688,0.32128906,7.5,-56.28125,34.78125,-44.25,20.5,-3.9375
1695396959890,-0.9003906,0.24902344,0.34960938,1.03125,-39.03125,22.15625,0.0,0.0,0.0
1695396959915,-0.8125,0.29882812,0.35742188,-20.125,-25.96875,11.96875,0.0,0.0,0.0
1695396959968,-0.7167969,0.2763672,0.3310547,-21.59375,-1.4375,-2.625,0.0,0.0,0.0
1695396959994,-0.68652344,0.2578125,0.3701172,-24.03125,15.125,0.71875,0.0,0.0,0.0
1695396960050,-0.75683594,0.2998047,0.42871094,-26.0625,27.9375,8.0,0.0,0.0,0.0
1695396960071,-0.80371094,0.41210938,0.421875,-30.09375,32.5,12.03125,0.0,0.0,0.0
1695396960124,-0.94140625,0.44921875,0.48046875,-45.53125,10.78125,16.46875,0.0,0.0,0.0
1695396960153,-1.1152344,0.40527344,0.63378906,-53.28125,-20.46875,12.09375,0.0,0.0,0.0
1695396960255,-0.8027344,0.055664062,0.51953125,-33.9375,-27.4375,8.59375,0.0,0.0,0.0
1695396960258,-0.75683594,0.23925781,0.35742188,-11.40625,36.78125,17.9375,0.0,0.0,0.0
1695396960283,-1.1689453,0.21191406,0.29785156,5.1875,37.59375,9.21875,0.0,0.0,0.0
1695396960308,-0.92578125,0.24121094,0.24121094,-4.875,35.0625,-9.90625,0.0,0.0,0.0
1695396960361,-0.9550781,0.17285156,-0.0029296875,-42.40625,46.84375,-16.0,-42.9375,22.75,-0.625
1695396960387,-1.0019531,0.078125,0.005859375,-33.3125,26.46875,-8.71875,0.0,0.0,0.0
1695396960443,-0.95214844,0.19335938,0.12011719,-39.84375,33.0625,-3.0625,0.0,0.0,0.0
1695396960465,-1.046875,0.13378906,0.19628906,-80.0,27.375,5.25,0.0,0.0,0.0
1695396960519,-1.0419922,0.043945312,0.032226562,-91.90625,17.9375,8.71875,0.0,0.0,0.0
1695396960544,-1.0244141,0.07324219,0.068359375,-68.0625,22.625,15.4375,0.0,0.0,0.0
1695396960597,-0.8232422,0.16113281,0.3984375,-46.09375,38.6875,-7.375,0.0,0.0,0.0
1695396960651,-1.1962891,0.38378906,-0.103515625,-187.375,21.84375,5.0625,0.0,0.0,0.0
1695396960677,-0.94628906,-0.055664062,0.18261719,-126.40625,40.625,24.59375,0.0,0.0,0.0
1695396960755,-1.0859375,0.041015625,0.057617188,-125.96875,16.8125,28.4375,0.0,0.0,0.0
1695396960761,-0.98535156,-0.038085938,0.07128906,-139.59375,17.8125,29.90625,0.0,0.0,0.0
1695396960808,-1.0429688,-0.13183594,0.07910156,-112.71875,17.625,30.8125,0.0,0.0,0.0
1695396960835,-0.9863281,0.08300781,0.20507812,-76.53125,0.09375,21.0,-41.125,19.3125,5.0625
1695396960887,-0.9658203,0.2841797,0.24707031,-102.59375,4.9375,31.5625,0.0,0.0,0.0
1695396960921,-0.9873047,0.13867188,0.13867188,-104.75,-4.40625,40.9375,0.0,0.0,0.0
1695396960965,-0.8701172,0.13378906,0.107421875,-84.84375,-14.1875,43.625,0.0,0.0,0.0
1695396960993,-0.9091797,0.3515625,0.25,-90.15625,2.84375,70.4375,0.0,0.0,0.0
1695396961047,-1.0673828,0.46777344,0.3515625,-134.8125,30.8125,83.625,0.0,0.0,0.0
1695396961070,-0.8779297,0.20214844,0.31445312,-150.875,40.5,82.75,0.0,0.0,0.0
1695396961123,-0.96875,0.109375,0.3203125,-134.9375,36.71875,67.8125,0.0,0.0,0.0
1695396961148,-0.9355469,0.171875,0.390625,-122.5,21.84375,40.28125,0.0,0.0,0.0
1695396961206,-0.8613281,0.22558594,0.33398438,-93.9375,15.25,34.53125,0.0,0.0,0.0
1695396961227,-0.8378906,0.19726562,0.38183594,-60.59375,33.71875,33.5625,0.0,0.0,0.0
1695396961279,-0.8535156,0.3203125,0.43066406,-79.71875,31.59375,21.53125,0.0,0.0,0.0
1695396961306,-0.8564453,0.3955078,0.35839844,-87.46875,18.84375,14.28125,0.0,0.0,0.0
1695396961361,-0.8671875,0.34179688,0.4345703,-91.84375,13.03125,5.125,-38.875,14.8125,18.25
1695396961385,-0.94140625,0.32226562,0.46484375,-62.3125,-7.71875,1.09375,0.0,0.0,0.0
1695396961438,-0.90527344,0.17089844,0.44921875,-44.90625,-19.625,4.9375,0.0,0.0,0.0
1695396961490,-0.8544922,0.20117188,0.1953125,-41.3125,-11.625,10.90625,0.0,0.0,0.0
1695396961517,-0.92578125,0.296875,0.18652344,-34.71875,45.09375,20.1875,0.0,0.0,0.0
1695396961568,-1.0126953,0.19921875,0.25878906,-58.78125,11.5625,15.3125,0.0,0.0,0.0
1695396961597,-0.9765625,0.16015625,0.1015625,-72.25,14.25,7.125,0.0,0.0,0.0
1695396961647,-0.9765625,0.1640625,0.18847656,-65.125,29.28125,12.4375,0.0,0.0,0.0
1695396961674,-1.0214844,0.17480469,0.27929688,-76.28125,33.625,10.125,0.0,0.0,0.0
1695396961728,-0.9892578,0.14550781,0.25976562,-81.84375,36.1875,-0.3125,0.0,0.0,0.0
1695396961755,-0.9794922,0.109375,0.20996094,-75.6875,33.0,0.25,0.0,0.0,0.0
1695396961804,-0.9355469,0.15136719,0.21679688,-68.28125,33.0,-2.75,0.0,0.0,0.0
1695396961833,-0.9423828,0.171875,0.21875,-68.40625,23.25,-0.5625,-41.6875,3.125,18.25
1695396961887,-0.99609375,0.12109375,0.19335938,-73.65625,11.75,2.9375,0.0,0.0,0.0
1695396961910,-1.0009766,0.095703125,0.21679688,-69.8125,12.25,-0.75,0.0,0.0,0.0
1695396961962,-0.93066406,0.25878906,0.1953125,-75.875,15.71875,-2.4375,0.0,0.0,0.0
1695396961989,-0.9941406,0.040039062,0.22558594,-69.875,19.09375,9.40625,0.0,0.0,0.0
1695396962040,-0.9970703,0.057617188,0.053710938,-93.875,15.0,3.65625,0.0,0.0,0.0
1695396962067,-1.0009766,0.029296875,0.22265625,-44.6875,22.4375,2.0,0.0,0.0,0.0
1695396962120,-1.0195312,0.07324219,0.20214844,-52.25,19.5,7.25,0.0,0.0,0.0
1695396962147,-0.9814453,0.12597656,0.17578125,-70.8125,20.1875,10.96875,0.0,0.0,0.0
1695396962199,-1.0048828,0.11328125,0.171875,-76.90625,21.21875,18.3125,0.0,0.0,0.0
1695396962253,-0.9433594,0.08691406,0.17871094,-87.03125,26.34375,16.59375,0.0,0.0,0.0
1695396962276,-0.98046875,0.046875,0.15625,-83.75,23.65625,20.375,0.0,0.0,0.0
1695396962329,-0.96875,-0.028320312,0.20019531,-70.8125,24.15625,18.96875,0.0,0.0,0.0
1695396962360,-1.0107422,-0.05859375,0.19433594,-52.125,14.8125,23.0,-45.0,-7.125,6.875
1695396962407,-0.9941406,-0.06738281,0.18164062,-45.21875,14.875,23.4375,0.0,0.0,0.0
1695396962435,-0.9746094,-0.026367188,0.16796875,-45.96875,14.75,16.21875,0.0,0.0,0.0
1695396962487,-0.98535156,-0.045898438,0.17382812,-42.25,5.09375,11.09375,0.0,0.0,0.0
1695396962515,-1.0175781,0.034179688,0.14160156,-27.65625,0.15625,2.25,0.0,0.0,0.0
1695396962569,-1.0019531,0.23925781,0.13574219,-29.46875,-7.84375,-0.5,0.0,0.0,0.0
1695396962592,-0.99609375,0.24804688,0.12597656,-55.46875,-18.34375,7.875,0.0,0.0,0.0
1695396962645,-0.96484375,0.19140625,0.17871094,-59.25,-16.625,6.40625,0.0,0.0,0.0
1695396962674,-1.0039062,0.21582031,0.203125,-84.15625,-13.5,8.78125,0.0,0.0,0.0
1695396962727,-0.96972656,0.23242188,0.16699219,-105.65625,-17.0625,12.6875,0.0,0.0,0.0
1695396962752,-1.0068359,0.12695312,0.13085938,-78.5,-25.59375,23.625,0.0,0.0,0.0
1695396962803,-1.0166016,0.14648438,0.28027344,-76.0625,-31.5,22.03125,0.0,0.0,0.0
1695396962830,-0.96875,0.19726562,0.359375,-67.75,-51.21875,27.9375,-47.25,-8.625,6.5625
1695396962883,-0.9140625,0.123046875,0.4580078,-56.625,-53.5,39.375,0.0,0.0,0.0
1695396962909,-0.9033203,0.14941406,0.48828125,-56.21875,-42.25,36.625,0.0,0.0,0.0
1695396962960,-0.8388672,0.12402344,0.47851562,-35.46875,-32.96875,31.6875,0.0,0.0,0.0
1695396963013,-0.8203125,0.15039062,0.5126953,-17.15625,-17.09375,25.15625,0.0,0.0,0.0
1695396963042,-0.7998047,0.2421875,0.50390625,-11.46875,-10.8125,19.90625,0.0,0.0,0.0
1695396963065,-0.7861328,0.2783203,0.45410156,-8.90625,-10.625,15.25,0.0,0.0,0.0
1695396963117,-0.7314453,0.27148438,0.44140625,-13.1875,7.375,22.15625,0.0,0.0,0.0
1695396963169,-0.8095703,0.28515625,0.4501953,-28.125,26.09375,20.25,0.0,0.0,0.0
1695396963197,-0.75878906,0.29101562,0.5107422,-43.15625,37.8125,22.09375,0.0,0.0,0.0
1695396963248,-0.7861328,0.2607422,0.5019531,-61.21875,48.75,25.25,0.0,0.0,0.0
1695396963274,-0.87890625,0.2763672,0.44335938,-64.75,53.5625,19.84375,0.0,0.0,0.0
1695396963328,-1.0996094,0.3154297,0.515625,-32.46875,27.375,21.0625,0.0,0.0,0.0
1695396963360,-0.96191406,0.13476562,0.3515625,-36.0625,1.9375,22.59375,-46.6875,-3.375,4.875
1695396963408,-0.6933594,0.22460938,0.29589844,-43.6875,26.78125,14.09375,0.0,0.0,0.0
1695396963432,-1.0195312,0.26757812,0.26171875,-33.5,31.15625,5.1875,0.0,0.0,0.0
1695396963484,-1.1337891,0.1484375,0.22363281,-36.3125,24.34375,2.5,0.0,0.0,0.0
1695396963515,-0.99121094,-0.017578125,0.2109375,-62.875,53.03125,1.53125,0.0,0.0,0.0
1695396963569,-0.9013672,0.07910156,0.48046875,1.15625,27.625,-11.125,0.0,0.0,0.0
1695396963590,-0.97265625,0.25683594,0.083984375,-169.375,58.34375,-9.59375,0.0,0.0,0.0
1695396963642,-1.0341797,-0.14941406,0.2421875,-68.0,44.53125,8.46875,0.0,0.0,0.0
1695396963672,-0.88671875,-0.080078125,0.18066406,-57.25,31.59375,-10.25,0.0,0.0,0.0
1695396963721,-0.93066406,0.19433594,0.12109375,-22.75,49.96875,3.09375,0.0,0.0,0.0
1695396963778,-0.92578125,0.19140625,0.23925781,-30.75,32.375,10.5625,0.0,0.0,0.0
1695396963800,-0.9580078,0.107421875,0.1953125,-44.6875,19.09375,20.6875,0.0,0.0,0.0
1695396963853,-0.984375,-0.0625,0.20605469,-45.65625,32.375,20.1875,-50.4375,-3.9375,-11.3125
1695396963879,-0.95214844,-0.0703125,0.19726562,-32.53125,26.09375,11.90625,0.0,0.0,0.0
1695396963905,-0.96972656,-0.05078125,0.09863281,-13.0625,24.625,9.6875,0.0,0.0,0.0
1695396963962,-1.0410156,0.036132812,0.061523438,-5.375,16.9375,10.875,0.0,0.0,0.0
1695396964010,-1.0439453,0.0625,0.053710938,-4.9375,6.4375,6.65625,0.0,0.0,0.0
1695396964035,-1.1396484,0.1640625,0.111328125,9.28125,-6.25,-0.375,0.0,0.0,0.0
1695396964090,-1.1425781,0.20214844,0.13769531,-0.1875,-18.40625,6.78125,0.0,0.0,0.0
1695396964114,-1.0712891,0.2578125,0.123046875,-10.875,-27.375,11.15625,0.0,0.0,0.0
1695396964168,-0.9980469,0.30566406,0.1015625,-11.28125,-49.03125,8.40625,0.0,0.0,0.0
1695396964195,-0.9296875,0.39746094,0.19140625,-14.84375,-68.0625,2.5,0.0,0.0,0.0
1695396964247,-0.8779297,0.3828125,0.21191406,-32.15625,-56.53125,-5.8125,0.0,0.0,0.0
1695396964273,-0.9296875,0.28710938,0.20410156,-24.65625,-52.8125,-6.53125,0.0,0.0,0.0
1695396964326,-0.9111328,0.22851562,0.29882812,-9.59375,-42.375,5.1875,0.0,0.0,0.0
1695396964352,-0.8457031,0.27441406,0.31640625,-29.84375,-19.3125,16.21875,-50.875,-0.625,-2.75
1695396964404,-0.8183594,0.28222656,0.2998047,-42.40625,0.78125,10.25,0.0,0.0,0.0
1695396964430,-0.8183594,0.22753906,0.35742188,-58.59375,11.15625,8.46875,0.0,0.0,0.0
1695396964482,-0.84765625,0.1796875,0.35839844,-56.21875,8.28125,15.1875,0.0,0.0,0.0
1695396964537,-0.890625,0.24707031,0.36523438,-50.90625,15.84375,27.21875,0.0,0.0,0.0
1695396964562,-0.9082031,0.24902344,0.4453125,-53.96875,22.25,26.0625,0.0,0.0,0.0
1695396964587,-0.8720703,0.1796875,0.44921875,-49.75,19.8125,13.4375,0.0,0.0,0.0
1695396964644,-0.8886719,0.13085938,0.37695312,-36.1875,23.46875,8.25,0.0,0.0,0.0
1695396964670,-1.0751953,0.22265625,0.35253906,-37.15625,31.28125,9.21875,0.0,0.0,0.0
1695396964719,-0.95214844,0.33203125,0.3095703,-36.0625,35.875,23.0,0.0,0.0,0.0
1695396964746,-0.8720703,0.21191406,0.21289062,-48.59375,35.1875,23.5,0.0,0.0,0.0
1695396964799,-1.0234375,0.15820312,0.1796875,-67.875,20.71875,-6.90625,0.0,0.0,0.0
1695396964850,-0.9824219,0.17675781,0.21972656,-42.78125,27.15625,-10.875,-49.9375,4.75,-10.875
1695396964877,-0.9785156,0.078125,0.11816406,-55.1875,29.09375,2.125,0.0,0.0,0.0
1695396964931,-0.984375,0.036132812,0.13378906,-51.6875,30.0625,2.5625,0.0,0.0,0.0
1695396964954,-1.0283203,0.009765625,0.22558594,-43.46875,24.46875,7.0625,0.0,0.0,0.0
1695396965007,-1.0380859,0.030273438,0.23046875,-47.4375,18.84375,-0.1875,0.0,0.0,0.0
1695396965034,-0.9560547,0.08691406,0.16699219,-52.0,18.28125,6.96875,0.0,0.0,0.0
1695396965087,-0.9658203,0.08203125,0.171875,-50.90625,24.40625,12.8125,0.0,0.0,0.0
1695396965113,-0.9951172,0.083984375,0.12792969,-43.40625,12.5625,20.0625,0.0,0.0,0.0
1695396965165,-0.99609375,0.040039062,0.13671875,-45.03125,16.34375,21.46875,0.0,0.0,0.0
1695396965191,-1.0,0.029296875,0.15917969,-43.15625,15.125,21.34375,0.0,0.0,0.0
1695396965242,-1.0126953,-0.0107421875,0.087890625,-44.90625,11.75,23.875,0.0,0.0,0.0
1695396965298,-1.0117188,0.001953125,0.10839844,-50.90625,10.0,26.3125,0.0,0.0,0.0
1695396965321,-0.99121094,0.057617188,0.09667969,-57.90625,5.03125,25.4375,0.0,0.0,0.0
1695396965348,-0.9892578,0.09863281,0.08984375,-58.65625,-0.4375,22.875,-48.3125,12.875,-16.375
1695396965403,-1.0009766,0.19140625,0.09667969,-47.59375,-7.40625,20.4375,0.0,0.0,0.0
1695396965430,-0.9892578,0.25195312,0.10546875,-54.375,-4.0,22.21875,0.0,0.0,0.0
1695396965490,-0.98828125,0.31445312,0.12207031,-56.625,-6.4375,28.5625,0.0,0.0,0.0
1695396965507,-0.96972656,0.3828125,0.18164062,-57.375,-0.75,32.40625,0.0,0.0,0.0
1695396965560,-0.86621094,0.3955078,0.22753906,-66.71875,11.8125,36.0625,0.0,0.0,0.0
1695396965585,-0.91308594,0.36914062,0.24023438,-69.40625,26.21875,39.90625,0.0,0.0,0.0
1695396965640,-0.8876953,0.33984375,0.29589844,-62.125,31.84375,32.84375,0.0,0.0,0.0
1695396965689,-0.95214844,0.3203125,0.29296875,-52.90625,19.5625,25.875,0.0,0.0,0.0
1695396965717,-0.87402344,0.296875,0.33398438,-51.34375,15.96875,13.25,0.0,0.0,0.0
1695396965774,-0.8808594,0.3623047,0.30371094,-50.78125,4.8125,3.84375,0.0,0.0,0.0
1695396965795,-0.91015625,0.3642578,0.21191406,-44.25,-0.375,8.0,0.0,0.0,0.0
1695396965849,-0.8417969,0.3232422,0.16992188,-43.34375,27.1875,6.46875,-45.625,23.625,-11.125
1695396965874,-0.875,0.3388672,0.16699219,-57.5625,41.59375,-2.375,0.0,0.0,0.0
1695396965929,-0.8701172,0.375,0.18359375,-70.0625,38.8125,-3.71875,0.0,0.0,0.0
1695396965952,-0.9013672,0.3544922,0.119140625,-65.25,36.59375,6.71875,0.0,0.0,0.0
1695396966006,-0.9453125,0.32910156,0.11230469,-60.0,47.15625,8.0,0.0,0.0,0.0
1695396966060,-0.92285156,0.33496094,0.08105469,-68.78125,55.9375,3.0,0.0,0.0,0.0
1695396966085,-1.0214844,0.38964844,0.07421875,-81.0,50.6875,-0.5625,0.0,0.0,0.0
1695396966111,-1.0214844,0.3564453,0.055664062,-81.84375,38.5625,0.65625,0.0,0.0,0.0
1695396966162,-1.0576172,0.27539062,0.13964844,-84.59375,19.5625,-3.25,0.0,0.0,0.0
1695396966189,-0.9736328,0.203125,0.12011719,-90.40625,20.5,-6.59375,0.0,0.0,0.0
1695396966246,-0.9736328,0.18261719,0.11425781,-73.84375,23.90625,-1.90625,0.0,0.0,0.0
1695396966268,-0.99609375,0.14453125,0.115234375,-42.59375,7.5625,4.875,0.0,0.0,0.0
1695396966320,-0.95703125,0.072265625,0.13476562,-32.84375,10.65625,-6.84375,0.0,0.0,0.0
1695396966373,-1.0390625,0.029296875,0.18945312,-16.40625,8.03125,-16.59375,-45.4375,25.0,-8.125
1695396966402,-1.0283203,-0.0068359375,0.1640625,1.40625,10.71875,-20.8125,0.0,0.0,0.0
1695396966425,-1.0078125,0.11328125,0.14257812,0.1875,12.25,-13.84375,0.0,0.0,0.0
1695396966478,-0.9970703,0.1171875,0.12890625,-23.3125,-2.40625,-7.34375,0.0,0.0,0.0
1695396966532,-0.9941406,0.051757812,0.12988281,-31.0,-2.59375,-6.71875,0.0,0.0,0.0
1695396966557,-0.9609375,0.0068359375,0.13378906,-27.15625,4.4375,-6.15625,0.0,0.0,0.0
1695396966617,-0.97753906,-0.03515625,0.14941406,-9.40625,8.21875,-0.5625,0.0,0.0,0.0
1695396966635,-0.9941406,-0.05078125,0.13867188,2.6875,13.09375,1.78125,0.0,0.0,0.0
1695396966688,-1.0185547,0.0068359375,0.14648438,12.625,7.71875,-0.1875,0.0,0.0,0.0
1695396966714,-0.99316406,0.07714844,0.15429688,14.71875,4.625,3.0,0.0,0.0,0.0
1695396966767,-0.95410156,0.119140625,0.15332031,6.15625,2.53125,4.28125,0.0,0.0,0.0
1695396966818,-0.97265625,0.06640625,0.11328125,3.125,6.5625,6.15625,0.0,0.0,0.0
1695396966844,-1.03125,0.0390625,0.06542969,16.125,4.375,5.84375,-46.1875,22.75,-10.25
1695396966871,-1.0136719,0.08691406,0.08203125,21.5,-0.3125,3.90625,0.0,0.0,0.0
1695396966924,-1.0214844,0.10839844,0.055664062,21.78125,-6.84375,4.28125,0.0,0.0,0.0
1695396966950,-1.015625,0.09667969,0.026367188,28.1875,-9.90625,6.46875,0.0,0.0,0.0
1695396967002,-1.0625,0.115234375,0.018554688,30.875,-11.1875,7.8125,0.0,0.0,0.0
1695396967029,-1.0839844,0.18945312,0.020507812,35.28125,-22.59375,8.46875,0.0,0.0,0.0
1695396967086,-1.0644531,0.2890625,0.08496094,33.03125,-27.375,11.65625,0.0,0.0,0.0
1695396967109,-1.0273438,0.3173828,0.099609375,18.6875,-40.125,18.375,0.0,0.0,0.0
1695396967161,-1.0488281,0.3701172,0.10546875,10.375,-58.75,19.40625,0.0,0.0,0.0
1695396967186,-0.9628906,0.42382812,0.091796875,8.4375,-74.46875,19.03125,0.0,0.0,0.0
1695396967241,-0.8183594,0.38964844,0.18652344,10.625,-67.9375,27.53125,0.0,0.0,0.0
1695396967265,-0.8330078,0.31835938,0.22070312,2.5625,-54.84375,22.28125,0.0,0.0,0.0
1695396967317,-0.9433594,0.3173828,0.2265625,-4.75,-54.46875,5.0625,0.0,0.0,0.0
1695396967404,-0.7519531,0.3466797,0.32714844,15.8125,-24.375,-1.15625,-40.5,27.375,-0.375
1695396967408,-0.6982422,0.359375,0.31640625,9.9375,-0.75,-10.9375,0.0,0.0,0.0
1695396967449,-0.7890625,0.2685547,0.22363281,12.28125,23.40625,-24.1875,0.0,0.0,0.0
1695396967474,-0.85253906,0.29589844,0.27539062,41.125,36.25,-18.4375,0.0,0.0,0.0
1695396967529,-1.0341797,0.43066406,0.34277344,37.53125,26.28125,-19.15625,0.0,0.0,0.0
1695396967580,-0.9355469,0.38964844,0.22460938,41.09375,-23.34375,-7.4375,0.0,0.0,0.0
1695396967607,-0.8808594,0.39453125,0.2529297,46.21875,-24.90625,1.34375,0.0,0.0,0.0
1695396967632,-0.8535156,0.3876953,0.25195312,32.84375,10.1875,2.6875,0.0,0.0,0.0
1695396967683,-0.9296875,0.38867188,0.23144531,13.96875,19.8125,5.90625,0.0,0.0,0.0
1695396967717,-0.93066406,0.27539062,0.234375,39.375,19.625,1.15625,0.0,0.0,0.0
1695396967767,-0.921875,0.22265625,0.25683594,41.5,18.59375,-5.125,0.0,0.0,0.0
1695396967790,-0.87109375,0.234375,0.17773438,16.59375,23.65625,-14.46875,0.0,0.0,0.0
1695396967842,-0.9980469,0.36914062,0.12695312,23.3125,15.0625,-10.5625,-44.5625,25.875,-9.8125
1695396967869,-1.0888672,0.30371094,0.16796875,37.21875,-2.71875,-1.84375,0.0,0.0,0.0
1695396967922,-0.9951172,0.3095703,0.16992188,7.5625,-6.5,-3.46875,0.0,0.0,0.0
1695396967948,-0.93847656,0.31933594,0.15429688,-2.5625,-1.4375,-3.96875,0.0,0.0,0.0
1695396967999,-0.93847656,0.2890625,0.20703125,0.25,2.53125,-1.65625,0.0,0.0,0.0
1695396968030,-0.9794922,0.24609375,0.16113281,2.4375,0.71875,-1.28125,0.0,0.0,0.0
1695396968079,-0.9501953,0.26757812,0.17382812,0.25,-0.9375,-0.84375,0.0,0.0,0.0
1695396968135,-0.9326172,0.27148438,0.18554688,-4.46875,0.84375,-1.84375,0.0,0.0,0.0
1695396968156,-0.95214844,0.26660156,0.16601562,-2.0,-0.6875,-2.5,0.0,0.0,0.0
1695396968212,-0.953125,0.26171875,0.17578125,3.65625,0.53125,-1.46875,0.0,0.0,0.0
1695396968243,-0.9658203,0.27734375,0.17285156,2.9375,0.71875,-1.40625,0.0,0.0,0.0
1695396968289,-0.9472656,0.28125,0.15429688,0.0625,-0.3125,-2.09375,0.0,0.0,0.0
1695396968342,-0.94628906,0.27734375,0.14160156,-0.4375,0.03125,-2.09375,0.0,0.0,0.0
1695396968368,-0.96777344,0.2763672,0.13671875,-1.34375,-0.25,-1.53125,-44.5625,24.6875,-10.125
1695396968396,-0.94628906,0.2861328,0.13964844,-2.5,1.03125,-1.59375,0.0,0.0,0.0
1695396968446,-0.9345703,0.28222656,0.15820312,-2.4375,0.84375,-1.40625,0.0,0.0,0.0
1695396968472,-0.93847656,0.28027344,0.1640625,-2.125,-0.25,-1.40625,0.0,0.0,0.0
1695396968524,-0.94921875,0.2861328,0.15039062,-1.28125,-0.6875,-0.84375,0.0,0.0,0.0
1695396968551,-0.9453125,0.29101562,0.16503906,-0.78125,-1.0,-1.15625,0.0,0.0,0.0
1695396968603,-0.95410156,0.29785156,0.18457031,-1.28125,-0.09375,-1.96875,0.0,0.0,0.0
1695396968630,-0.94140625,0.27539062,0.16992188,1.53125,-1.71875,-1.09375,0.0,0.0,0.0
1695396968682,-0.9511719,0.2841797,0.18164062,5.3125,-2.59375,-0.4375,0.0,0.0,0.0
1695396968709,-0.953125,0.28027344,0.17773438,7.25,-4.0,-1.40625,0.0,0.0,0.0
1695396968762,-0.9560547,0.2861328,0.17773438,7.21875,-4.71875,-2.125,0.0,0.0,0.0
1695396968788,-0.93652344,0.29882812,0.17578125,5.375,-3.6875,-2.03125,0.0,0.0,0.0
1695396968840,-0.9355469,0.29589844,0.18359375,5.5,-2.40625,-0.96875,-43.6875,24.5625,-10.25
1695396968867,-0.9423828,0.2861328,0.18359375,6.28125,-2.65625,-0.375,0.0,0.0,0.0
1695396968919,-0.94628906,0.2783203,0.18554688,5.8125,-1.71875,-0.75,0.0,0.0,0.0
1695396968973,-0.94921875,0.28027344,0.19335938,6.59375,-0.8125,-0.90625,0.0,0.0,0.0
1695396968996,-0.9404297,0.28027344,0.20214844,7.5,-4.09375,-1.53125,0.0,0.0,0.0
1695396969103,-0.9453125,0.27929688,0.17871094,8.0625,-5.03125,-1.65625,0.0,0.0,0.0
1695396969106,-0.9433594,0.28808594,0.16113281,7.75,-2.09375,-1.78125,0.0,0.0,0.0
1695396969128,-0.9472656,0.28808594,0.171875,5.8125,-2.40625,-1.96875,0.0,0.0,0.0
1695396969154,-0.93847656,0.29882812,0.17285156,3.1875,-0.09375,-1.15625,0.0,0.0,0.0
1695396969206,-0.9453125,0.28710938,0.17285156,1.28125,1.5625,-0.5,0.0,0.0,0.0
1695396969239,-0.9472656,0.2890625,0.16503906,1.53125,-1.4375,-0.8125,0.0,0.0,0.0
1695396969293,-0.94140625,0.29785156,0.16503906,0.90625,-0.375,-0.6875,0.0,0.0,0.0
1695396969312,-0.9472656,0.28808594,0.18066406,1.28125,0.03125,-0.625,0.0,0.0,0.0
1695396969365,-0.93847656,0.2998047,0.18164062,2.3125,-2.28125,-0.625,-45.4375,24.5625,-8.625
1695396969391,-0.94433594,0.2890625,0.19140625,2.375,-2.875,0.0625,0.0,0.0,0.0
1695396969445,-0.9453125,0.30859375,0.18945312,1.78125,-1.375,-0.8125,0.0,0.0,0.0
1695396969470,-0.9394531,0.29785156,0.19726562,1.34375,-2.09375,-0.1875,0.0,0.0,0.0
1695396969522,-0.93066406,0.28710938,0.21289062,1.34375,-0.09375,-0.25,0.0,0.0,0.0
1695396969549,-0.9404297,0.2939453,0.20605469,0.96875,0.09375,-1.28125,0.0,0.0,0.0
