timestamp,accel_x,accel_y,accel_z,gyro_x,gyro_y,gyro_z,mag_x,mag_y,mag_z,ind
1695396985430,-0.7998047,-0.26171875,0.29003906,-100.875,88.40625,-17.34375,0.0,0.0,0.0,16
1695396985470,-0.84375,-0.22265625,0.0048828125,-144.03125,77.375,-31.25,0.0,0.0,0.0,17
1695396985510,-1.0654297,0.1484375,0.17578125,-108.59375,69.875,8.1875,0.0,0.0,0.0,18
1695396985550,-0.9160156,0.08300781,0.2841797,-91.71875,55.53125,14.71875,0.0,0.0,0.0,19
1695396985590,-0.8105469,-0.19042969,-0.0068359375,-54.4375,21.90625,24.78125,0.0,0.0,0.0,20
1695396985630,-1.3085938,-0.2919922,0.21386719,3.59375,57.125,-26.4375,0.0,0.0,0.0,21
1695396985670,-1.1621094,0.3125,0.28222656,26.3125,55.78125,-28.625,0.0,0.0,0.0,22
1695396985710,-1.4238281,0.20507812,0.33789062,-19.15625,90.6875,17.34375,0.0,0.0,0.0,23
1695396985750,-1.4667969,0.091796875,0.453125,-25.3125,77.1875,2.75,0.0,0.0,0.0,24
1695396985790,-1.0712891,0.15234375,0.40429688,-28.9375,37.46875,-2.375,0.0,0.0,0.0,25
1695396985830,-0.42382812,-0.032226562,0.032226562,-44.0625,-9.28125,-22.21875,-46.8125,23.1875,-8.625,26
1695396985870,0.018554688,0.14257812,-0.5517578,3.90625,-83.28125,-64.34375,0.0,0.0,0.0,27
1695396985910,-1.1298828,0.5878906,-0.14355469,95.40625,-251.125,-77.875,0.0,0.0,0.0,28
1695396985950,-1.3037109,1.2021484,0.4716797,-28.75,-281.03125,-53.96875,0.0,0.0,0.0,29
1695396985990,-0.80566406,-0.125,1.2080078,56.15625,-238.3125,-6.65625,0.0,0.0,0.0,30
1695396986030,-1.5996094,-0.08300781,0.86328125,-38.09375,-106.46875,-17.46875,0.0,0.0,0.0,31
1695396986070,-0.77734375,0.2890625,0.75097656,55.1875,-31.34375,25.375,0.0,0.0,0.0,32
1695396986110,-0.40527344,0.296875,0.6972656,4.59375,66.09375,28.4375,0.0,0.0,0.0,33
1695396986150,0.001953125,0.2548828,-0.07519531,-39.65625,22.375,6.03125,0.0,0.0,0.0,34
1695396986190,0.71972656,0.35742188,-0.37304688,-110.40625,74.5625,-19.65625,0.0,0.0,0.0,35
1695396986230,-0.89746094,0.953125,0.12011719,-84.28125,75.0,19.03125,0.0,0.0,0.0,36
1695396986270,-1.9990234,0.021484375,-0.25,-318.59375,-56.78125,118.34375,0.0,0.0,0.0,37
1695396986310,-0.27734375,-1.2460938,0.3984375,26.0625,65.09375,31.5625,0.0,0.0,0.0,38
1695396986350,-1.5966797,0.5234375,0.61621094,-86.84375,195.84375,-8.78125,-40.9375,13.0,16.875,39
1695396986390,-1.734375,-0.022460938,0.88378906,-40.46875,149.6875,68.71875,0.0,0.0,0.0,40
1695396986430,-1.0898438,-0.484375,0.5878906,-95.34375,105.875,-29.0625,0.0,0.0,0.0,41
1695396986470,-0.6347656,-0.30078125,0.24023438,-32.09375,82.75,34.65625,0.0,0.0,0.0,42
1695396986510,-0.044921875,-0.16601562,-0.27441406,37.125,38.375,12.9375,0.0,0.0,0.0,43
1695396986550,-0.35253906,0.39453125,0.0,23.6875,-69.90625,0.0,0.0,0.0,0.0,44
1695396986590,-0.5234375,0.94628906,-0.17480469,29.3125,-151.03125,-20.8125,0.0,0.0,0.0,45
1695396986630,-1.7373047,0.35546875,-0.30859375,64.75,-265.15625,-15.3125,0.0,0.0,0.0,46
1695396986670,-1.7158203,-0.3017578,0.36816406,-126.03125,-203.375,-9.46875,0.0,0.0,0.0,47
1695396986710,-1.6884766,-0.11328125,0.93652344,-49.6875,-111.65625,-3.71875,0.0,0.0,0.0,48
1695396986750,-0.9042969,0.22753906,1.0898438,62.375,-3.0,3.09375,0.0,0.0,0.0,49
1695396986790,-0.36523438,0.056640625,0.56640625,53.96875,12.5625,32.34375,0.0,0.0,0.0,50
1695396986830,0.061523438,0.18652344,-0.025390625,39.5625,-4.0625,-1.96875,-32.6875,14.8125,23.8125,51
1695396986870,0.42773438,0.12597656,-0.16113281,-16.90625,36.40625,-24.53125,0.0,0.0,0.0,52
1695396986910,-0.47070312,0.3076172,-0.33691406,-31.5,129.1875,16.0625,0.0,0.0,0.0,53
1695396986950,-1.7255859,0.7626953,0.5839844,-97.46875,-37.96875,28.8125,0.0,0.0,0.0,54
1695396986990,-1.1357422,-1.2871094,-0.20703125,33.03125,29.34375,-18.0625,0.0,0.0,0.0,55
1695396987030,-1.3847656,-0.08105469,-0.032226562,-31.84375,146.15625,34.90625,0.0,0.0,0.0,56
1695396987070,-1.4316406,0.90527344,0.4951172,-33.75,111.96875,70.75,0.0,0.0,0.0,57
1695396987110,-1.8935547,-0.15234375,1.1621094,-52.1875,145.4375,35.46875,0.0,0.0,0.0,58
1695396987150,-0.8828125,0.03515625,0.65625,-35.09375,84.34375,1.65625,0.0,0.0,0.0,59
1695396987190,-0.6582031,-0.36621094,0.038085938,-25.03125,52.46875,83.75,0.0,0.0,0.0,60
1695396987230,0.07421875,-0.06542969,-0.18457031,48.71875,4.0,0.3125,0.0,0.0,0.0,61
1695396987270,-0.31445312,0.41503906,-0.21191406,49.5,-101.28125,-23.75,0.0,0.0,0.0,62
1695396987310,-0.8339844,0.5439453,-0.17382812,74.9375,-216.625,-38.875,0.0,0.0,0.0,63
1695396987350,-1.7539062,0.71191406,0.5263672,33.875,-242.6875,-23.375,-37.375,19.0,17.625,64
1695396987390,-1.2460938,0.76464844,0.8876953,-15.125,-196.84375,-5.5,0.0,0.0,0.0,65
1695396987430,-1.6103516,-0.0146484375,1.078125,-18.75,-7.28125,-23.25,0.0,0.0,0.0,66
1695396987470,-0.4873047,-0.015625,0.8828125,82.53125,20.3125,1.9375,0.0,0.0,0.0,67
1695396987510,-0.5576172,-0.2607422,0.5,73.5625,29.9375,44.90625,0.0,0.0,0.0,68
1695396987550,-0.1015625,0.234375,0.0390625,39.625,33.125,-30.71875,0.0,0.0,0.0,69
1695396987590,0.08496094,0.29101562,-0.2578125,14.21875,23.46875,-30.21875,0.0,0.0,0.0,70
1695396987630,-0.6201172,0.33398438,-0.3017578,-13.5625,67.90625,25.625,0.0,0.0,0.0,71
1695396987670,-1.2607422,0.4345703,-0.064453125,-111.21875,-5.15625,7.375,0.0,0.0,0.0,72
1695396987710,-1.9990234,-0.32714844,0.032226562,9.78125,-131.71875,13.78125,0.0,0.0,0.0,73
1695396987750,-1.203125,0.16796875,0.3955078,22.84375,142.6875,1.28125,0.0,0.0,0.0,74
1695396987790,-1.3457031,0.7011719,0.5830078,-47.78125,143.09375,24.03125,0.0,0.0,0.0,75
1695396987830,-1.6230469,-0.25976562,0.625,-8.25,155.125,23.75,-32.5625,21.375,15.375,76
1695396987870,-1.1767578,0.13964844,0.5185547,-17.6875,112.71875,-4.21875,0.0,0.0,0.0,77
1695396987910,-0.625,-0.15820312,0.23828125,6.53125,70.28125,70.625,0.0,0.0,0.0,78
1695396987950,-0.099609375,-0.11816406,-0.19726562,10.8125,2.46875,28.5,0.0,0.0,0.0,79
1695396987990,-0.4482422,-0.056640625,-0.26367188,35.40625,-81.4375,-37.0,0.0,0.0,0.0,80
1695396988030,-0.80078125,0.47070312,-0.056640625,86.96875,-182.5625,-80.5625,0.0,0.0,0.0,81
1695396988070,-1.9990234,0.7626953,0.5673828,114.75,-308.4375,-69.28125,0.0,0.0,0.0,82
1695396988110,-0.80078125,0.6035156,0.6347656,77.34375,-186.59375,-47.25,0.0,0.0,0.0,83
1695396988150,-1.609375,0.0068359375,0.8691406,14.28125,-81.0,-52.125,0.0,0.0,0.0,84
1695396988190,-0.86328125,0.2578125,0.8095703,128.25,-10.15625,-70.875,0.0,0.0,0.0,85
1695396988230,-0.5449219,0.099609375,0.64746094,125.4375,-23.28125,0.125,0.0,0.0,0.0,86
1695396988270,-0.29882812,0.10546875,0.049804688,72.75,29.21875,-24.53125,0.0,0.0,0.0,87
1695396988310,0.06347656,0.36621094,0.09082031,9.875,23.84375,-48.34375,0.0,0.0,0.0,88
1695396988350,-0.026367188,0.31054688,-0.1484375,-74.09375,108.9375,2.125,-30.75,22.75,15.375,89
1695396988390,-1.1054688,0.5810547,0.09082031,-67.4375,11.625,11.78125,0.0,0.0,0.0,90
1695396988430,-1.9990234,0.18164062,-0.51953125,-56.9375,-205.84375,90.09375,0.0,0.0,0.0,91
1695396988470,-0.14257812,-0.32128906,0.2783203,-24.90625,112.90625,-11.1875,0.0,0.0,0.0,92
1695396988510,-1.5322266,0.5839844,0.81933594,-17.5,146.03125,-26.0,0.0,0.0,0.0,93
1695396988550,-1.5761719,0.20214844,0.30859375,-48.28125,105.28125,84.09375,0.0,0.0,0.0,94
1695396988590,-1.4736328,-0.38183594,0.8496094,-59.03125,138.46875,-2.125,0.0,0.0,0.0,95
1695396988630,-1.0517578,0.016601562,0.8066406,-2.625,86.65625,31.5,0.0,0.0,0.0,96
1695396988670,-0.62890625,-0.33203125,0.20898438,-17.6875,78.84375,61.875,0.0,0.0,0.0,97
1695396988710,0.115234375,-0.29003906,-0.19140625,57.8125,16.28125,2.6875,0.0,0.0,0.0,98
1695396988750,-0.39160156,0.01953125,-0.22558594,87.90625,-71.75,-34.25,0.0,0.0,0.0,99
1695396988790,-0.8144531,0.63378906,-0.021484375,105.09375,-170.6875,-67.875,0.0,0.0,0.0,100
1695396988830,-1.9628906,0.7578125,0.32128906,113.53125,-290.90625,-51.09375,-34.375,23.1875,5.0625,101
1695396988870,-0.9013672,0.4453125,0.3544922,29.375,-201.25,-43.28125,0.0,0.0,0.0,102
1695396988910,-1.4775391,0.015625,0.87597656,17.03125,-99.03125,-52.96875,0.0,0.0,0.0,103
1695396988950,-0.87890625,0.23242188,0.8535156,144.59375,-12.59375,-75.4375,0.0,0.0,0.0,104
1695396988990,-0.64746094,0.13671875,0.7919922,115.71875,-29.25,-4.15625,0.0,0.0,0.0,105
1695396989030,-0.48632812,0.12792969,0.28027344,99.375,19.09375,-14.21875,0.0,0.0,0.0,106
1695396989070,-0.16113281,0.39648438,0.095703125,55.125,41.25,-34.375,0.0,0.0,0.0,107
1695396989110,0.041992188,0.3623047,-0.059570312,-58.09375,79.9375,-16.71875,0.0,0.0,0.0,108
1695396989150,-0.79589844,0.38867188,-0.038085938,-103.6875,33.5625,-17.09375,0.0,0.0,0.0,109
1695396989190,-1.7626953,0.59375,0.2841797,-125.25,-73.875,-2.8125,0.0,0.0,0.0,110
1695396989230,-1.078125,-1.1943359,0.32617188,27.78125,72.90625,-4.21875,0.0,0.0,0.0,111
1695396989270,-1.40625,0.26757812,0.28027344,7.5625,121.8125,11.34375,0.0,0.0,0.0,112
1695396989310,-1.5166016,0.60058594,0.36914062,-95.875,142.3125,68.125,0.0,0.0,0.0,113
1695396989350,-1.6210938,-0.43554688,0.875,-111.3125,156.59375,3.65625,-35.4375,18.875,2.375,114
1695396989390,-1.0800781,-0.0048828125,0.7578125,-43.15625,109.46875,13.0625,0.0,0.0,0.0,115
1695396989430,-0.578125,-0.14453125,0.33984375,-38.21875,97.46875,59.8125,0.0,0.0,0.0,116
1695396989470,-0.3330078,-0.3310547,-0.13769531,15.125,19.5,44.25,0.0,0.0,0.0,117
1695396989510,-0.37402344,0.068359375,-0.19824219,35.21875,-64.21875,-1.28125,0.0,0.0,0.0,118
1695396989550,-0.76464844,0.48046875,-0.17578125,85.03125,-154.6875,-50.65625,0.0,0.0,0.0,119
1695396989590,-1.7822266,0.6230469,0.578125,138.3125,-292.875,-51.75,0.0,0.0,0.0,120
1695396989630,-1.3964844,0.40527344,0.25976562,39.75,-221.6875,-34.96875,0.0,0.0,0.0,121
1695396989670,-1.6005859,0.041992188,0.8876953,-8.71875,-113.125,-22.71875,0.0,0.0,0.0,122
1695396989710,-1.1035156,0.11621094,0.9277344,127.6875,0.71875,-59.03125,0.0,0.0,0.0,123
1695396989750,-0.60546875,0.13378906,0.65527344,88.0625,-12.21875,16.40625,0.0,0.0,0.0,124
1695396989790,-0.25878906,0.203125,0.10839844,54.4375,21.96875,-0.0625,0.0,0.0,0.0,125
1695396989830,0.34375,0.4609375,-0.005859375,-13.25,32.03125,-43.59375,-34.6875,20.375,8.1875,126
1695396989870,0.30859375,0.34960938,-0.013671875,-132.09375,124.0,-38.8125,0.0,0.0,0.0,127
1695396989910,-1.1660156,0.35058594,-0.08984375,-160.34375,46.78125,-8.5,0.0,0.0,0.0,128
1695396989950,-1.9990234,0.119140625,-0.091796875,-28.6875,-172.1875,48.03125,0.0,0.0,0.0,129
1695396989990,-0.57128906,-0.56640625,0.0087890625,14.15625,128.875,-31.125,0.0,0.0,0.0,130
1695396990030,-1.4658203,0.73046875,0.7783203,-67.9375,143.84375,1.53125,0.0,0.0,0.0,131
1695396990070,-1.6630859,0.08984375,0.40527344,-124.75,96.21875,89.09375,0.0,0.0,0.0,132
1695396990110,-1.6474609,-0.55566406,0.7939453,-96.0625,172.46875,-7.09375,0.0,0.0,0.0,133
1695396990150,-0.9511719,0.0703125,0.63183594,-62.0625,91.65625,30.28125,0.0,0.0,0.0,134
1695396990190,-0.56347656,0.0126953125,0.18847656,-68.71875,81.15625,69.03125,0.0,0.0,0.0,135
1695396990230,-0.06347656,-0.25097656,-0.059570312,-10.3125,3.65625,32.59375,0.0,0.0,0.0,136
1695396990270,-0.24316406,-0.0029296875,-0.140625,29.90625,-76.125,-22.84375,0.0,0.0,0.0,137
1695396990310,-0.89941406,0.43066406,-0.1015625,75.75,-186.0625,-72.9375,0.0,0.0,0.0,138
1695396990350,-1.9990234,0.7919922,0.56933594,71.65625,-279.5,-100.46875,-38.125,14.8125,5.375,139
1695396990390,-0.50390625,0.6074219,0.82910156,28.625,-224.75,-50.96875,0.0,0.0,0.0,140
1695396990430,-1.6621094,-0.001953125,1.0292969,-29.0,-65.15625,-17.21875,0.0,0.0,0.0,141
1695396990470,-0.75,0.083984375,0.9716797,47.375,13.09375,1.34375,0.0,0.0,0.0,142
1695396990510,-0.31640625,-0.043945312,0.7138672,50.65625,23.34375,39.96875,0.0,0.0,0.0,143
1695396990550,-0.07714844,0.06738281,-0.018554688,31.9375,38.25,22.15625,0.0,0.0,0.0,144
1695396990590,0.328125,0.2998047,-0.11621094,16.40625,41.53125,-24.59375,0.0,0.0,0.0,145
1695396990630,-0.57910156,0.46972656,-0.07128906,-45.21875,93.4375,-10.875,0.0,0.0,0.0,146
1695396990670,-1.8720703,0.79003906,0.43066406,-166.625,-33.71875,-4.53125,0.0,0.0,0.0,147
1695396990710,-1.8408203,-0.8486328,-0.115234375,15.9375,-117.09375,14.03125,0.0,0.0,0.0,148
1695396990750,-1.3945312,-0.2861328,0.2109375,-12.28125,144.9375,46.625,0.0,0.0,0.0,149
1695396990790,-1.2275391,0.77246094,0.7470703,-12.3125,96.40625,30.75,0.0,0.0,0.0,150
1695396990830,-1.7978516,-0.24511719,0.18554688,-133.96875,193.78125,32.46875,-37.8125,13.0,9.125,151
1695396990870,-1.2988281,-0.44140625,0.85058594,-75.9375,142.4375,-8.65625,0.0,0.0,0.0,152
1695396990910,-0.6220703,0.060546875,0.5253906,-14.46875,78.78125,61.40625,0.0,0.0,0.0,153
1695396990950,-0.6855469,-0.13183594,-0.026367188,-18.96875,77.125,71.28125,0.0,0.0,0.0,154
1695396990990,-0.06738281,0.107421875,-0.10839844,-10.25,-11.5,17.6875,0.0,0.0,0.0,155
1695396991030,-0.11230469,0.049804688,-0.2265625,29.53125,-92.625,-0.125,0.0,0.0,0.0,156
1695396991070,-1.0117188,0.54785156,-0.0859375,49.6875,-187.9375,-50.0625,0.0,0.0,0.0,157
1695396991110,-1.9990234,0.8251953,0.4892578,10.625,-278.40625,-83.625,0.0,0.0,0.0,158
1695396991150,-1.0917969,0.7167969,0.3828125,-80.75,-188.4375,-42.84375,0.0,0.0,0.0,159
1695396991190,-1.6074219,-0.083984375,1.0849609,5.4375,-34.03125,-34.96875,0.0,0.0,0.0,160
1695396991230,-0.4482422,-0.026367188,0.89160156,104.875,-40.0,3.59375,0.0,0.0,0.0,161
1695396991270,-0.34765625,0.14550781,0.6923828,56.15625,20.78125,50.53125,0.0,0.0,0.0,162
1695396991310,-0.09863281,0.38964844,-0.038085938,9.46875,35.5,8.46875,-30.4375,16.75,20.1875,163
1695396991350,0.40039062,0.30371094,-0.034179688,5.25,-9.78125,-5.9375,0.0,0.0,0.0,164
1695396991390,-0.17871094,0.22363281,-0.0859375,-103.40625,135.53125,12.75,0.0,0.0,0.0,165
1695396991430,-1.4453125,0.4453125,0.0048828125,-187.5625,10.1875,-21.5625,0.0,0.0,0.0,166
1695396991470,-1.9990234,-0.16015625,-0.23144531,-39.71875,-155.0625,45.28125,0.0,0.0,0.0,167
1695396991510,-0.87890625,-0.3701172,0.3076172,-54.8125,137.6875,22.15625,0.0,0.0,0.0,168
1695396991550,-1.4296875,0.61816406,0.6269531,-67.5,105.8125,4.9375,0.0,0.0,0.0,169
1695396991590,-1.5205078,0.095703125,0.26367188,-104.375,114.78125,59.03125,0.0,0.0,0.0,170
1695396991630,-1.4521484,-0.22460938,0.59277344,-125.0,148.96875,2.75,0.0,0.0,0.0,171
1695396991670,-0.8808594,0.026367188,0.52246094,-120.375,97.8125,56.875,0.0,0.0,0.0,172
1695396991710,-0.9140625,-0.19335938,0.20605469,-102.28125,69.625,52.71875,0.0,0.0,0.0,173
1695396991750,-0.4296875,-0.19628906,-0.12207031,-80.25,7.0,34.3125,0.0,0.0,0.0,174
1695396991790,-0.0126953125,-0.107421875,-0.02734375,-19.21875,-53.65625,18.0,0.0,0.0,0.0,175
1695396991830,-0.2763672,0.5058594,0.001953125,7.6875,-88.34375,-18.0,-39.1875,9.375,11.8125,176
1695396991870,-1.3828125,0.5332031,0.20800781,20.09375,-228.03125,-43.9375,0.0,0.0,0.0,177
1695396991910,-1.8603516,0.0146484375,0.3095703,-80.0,-180.625,-74.53125,0.0,0.0,0.0,178
1695396991950,-1.7548828,0.21191406,0.80859375,-22.8125,-141.5625,-48.96875,0.0,0.0,0.0,179
1695396991990,-1.3027344,-0.15332031,1.140625,26.0625,-53.375,-55.53125,0.0,0.0,0.0,180
1695396992030,-0.5517578,0.22265625,0.9482422,65.8125,-19.90625,15.25,0.0,0.0,0.0,181
1695396992070,-0.31054688,0.20214844,0.6582031,21.0625,31.71875,51.25,0.0,0.0,0.0,182
1695396992110,-0.203125,0.28125,0.06738281,-32.40625,101.3125,-0.84375,0.0,0.0,0.0,183
1695396992150,0.026367188,0.390625,-0.024414062,-54.875,62.78125,14.8125,0.0,0.0,0.0,184
1695396992190,-0.3330078,0.14941406,0.2265625,-101.1875,126.5625,20.0625,0.0,0.0,0.0,185
1695396992230,-0.62402344,0.40429688,-0.13378906,-170.65625,89.6875,-4.75,0.0,0.0,0.0,186
1695396992270,-1.9990234,0.65625,-0.17285156,-53.21875,-162.96875,45.46875,0.0,0.0,0.0,187
1695396992310,-1.0869141,-0.578125,0.040039062,-78.1875,109.21875,1.59375,-31.8125,-0.625,22.3125,188
1695396992350,-1.671875,0.35742188,0.23730469,-223.15625,154.09375,-11.1875,0.0,0.0,0.0,189
1695396992390,-1.5097656,0.15527344,0.26464844,-154.28125,66.25,64.09375,0.0,0.0,0.0,190
1695396992430,-1.7958984,-0.5107422,0.4326172,-194.46875,140.25,29.125,0.0,0.0,0.0,191
1695396992470,-1.1542969,-0.3125,0.79589844,-120.65625,105.3125,32.15625,0.0,0.0,0.0,192
1695396992510,-0.8935547,-0.14160156,0.375,-93.875,61.625,63.96875,0.0,0.0,0.0,193
1695396992550,-0.74316406,-0.26757812,0.16503906,-71.65625,22.1875,29.125,0.0,0.0,0.0,194
1695396992590,-0.21484375,-0.051757812,-0.11230469,-29.0,-49.59375,-7.9375,0.0,0.0,0.0,195
1695396992630,-0.18261719,0.22363281,-0.11230469,15.5,-108.59375,-9.53125,0.0,0.0,0.0,196
1695396992670,-0.7783203,0.625,-0.25,16.0,-187.6875,-8.5625,0.0,0.0,0.0,197
1695396992710,-1.6298828,0.5488281,0.41601562,-59.5625,-251.1875,-0.375,0.0,0.0,0.0,198
1695396992750,-1.8847656,0.09667969,0.7441406,-106.8125,-262.34375,-20.6875,0.0,0.0,0.0,199
1695396992790,-1.6083984,-0.35839844,1.0058594,11.0,-96.625,8.65625,0.0,0.0,0.0,200
1695396992830,-0.8417969,0.29101562,1.2148438,50.53125,28.3125,-8.625,-27.9375,-11.4375,24.6875,201
1695396992870,-0.4814453,0.24902344,0.8964844,3.71875,25.25,55.53125,0.0,0.0,0.0,202
1695396992910,-0.18945312,0.12792969,-0.0625,-47.4375,16.875,36.75,0.0,0.0,0.0,203
1695396992950,0.33789062,0.3828125,-0.032226562,-25.625,43.375,36.0625,0.0,0.0,0.0,204
1695396992990,0.038085938,0.3388672,-0.25683594,-107.34375,148.28125,40.21875,0.0,0.0,0.0,205
1695396993030,-0.6035156,0.21386719,0.043945312,-217.53125,129.625,27.03125,0.0,0.0,0.0,206
1695396993070,-1.6894531,0.5654297,0.171875,-128.96875,-108.28125,21.90625,0.0,0.0,0.0,207
1695396993110,-1.3515625,-0.8564453,-0.06542969,-7.375,19.75,61.75,0.0,0.0,0.0,208
1695396993150,-1.3300781,0.080078125,0.39746094,-111.625,136.09375,26.71875,0.0,0.0,0.0,209
1695396993190,-1.7871094,0.5576172,0.47558594,-159.84375,79.8125,18.71875,0.0,0.0,0.0,210
1695396993230,-1.6298828,-0.45703125,0.67089844,-92.40625,122.34375,36.625,0.0,0.0,0.0,211
1695396993270,-1.1640625,-0.15234375,0.7675781,-74.71875,134.3125,24.21875,0.0,0.0,0.0,212
1695396993310,-0.9423828,-0.041015625,0.5751953,-64.5625,83.0,72.09375,-42.75,-15.1875,-6.9375,213
1695396993350,-0.5957031,-0.29296875,0.1484375,-60.90625,58.9375,51.5,0.0,0.0,0.0,214
1695396993390,-0.14257812,-0.061523438,-0.16601562,-13.96875,-18.8125,15.5,0.0,0.0,0.0,215
1695396993430,-0.16113281,0.31347656,0.01171875,33.75,-89.6875,-26.6875,0.0,0.0,0.0,216
1695396993470,-0.6347656,0.5263672,-0.22070312,57.1875,-179.03125,-40.84375,0.0,0.0,0.0,217
1695396993510,-1.8769531,0.4033203,0.43847656,27.65625,-282.84375,-24.53125,0.0,0.0,0.0,218
1695396993550,-1.4423828,0.4638672,0.9765625,-13.84375,-211.03125,-32.28125,0.0,0.0,0.0,219
1695396993590,-1.7285156,-0.12207031,0.9472656,2.0625,-80.65625,-38.625,0.0,0.0,0.0,220
1695396993630,-0.7128906,0.15429688,0.9609375,98.9375,-3.0,-21.96875,0.0,0.0,0.0,221
1695396993670,-0.36035156,0.19433594,0.9091797,69.40625,27.03125,35.875,0.0,0.0,0.0,222
1695396993710,-0.21582031,0.16113281,0.015625,18.96875,49.0,19.78125,0.0,0.0,0.0,223
1695396993750,0.15527344,0.3671875,0.06738281,0.4375,23.46875,8.46875,0.0,0.0,0.0,224
1695396993790,0.171875,0.3232422,-0.11230469,-81.0,115.09375,11.59375,0.0,0.0,0.0,225
1695396993830,-0.5048828,0.25683594,-0.049804688,-158.9375,106.125,24.21875,-41.5625,-10.6875,10.3125,226
1695396993870,-1.9990234,0.8388672,0.6738281,-78.0,-168.46875,28.875,0.0,0.0,0.0,227
1695396993910,-0.17675781,-1.1416016,0.69140625,44.8125,92.625,-38.6875,0.0,0.0,0.0,228
1695396993950,-1.7324219,0.24316406,0.4560547,-34.4375,86.34375,11.46875,0.0,0.0,0.0,229
1695396993990,-1.5263672,0.34472656,0.4921875,-97.03125,101.40625,56.6875,0.0,0.0,0.0,230
1695396994030,-1.6015625,-0.5576172,0.76464844,-68.1875,140.78125,1.28125,0.0,0.0,0.0,231
1695396994070,-1.0478516,-0.087890625,0.77441406,-36.1875,129.6875,28.1875,0.0,0.0,0.0,232
1695396994110,-0.67578125,-0.24804688,0.29785156,-24.90625,95.125,57.3125,0.0,0.0,0.0,233
1695396994150,-0.43164062,-0.26953125,-0.3203125,13.0,39.78125,35.28125,0.0,0.0,0.0,234
1695396994190,-0.21875,0.19042969,-0.1640625,49.1875,-63.625,3.53125,0.0,0.0,0.0,235
1695396994230,-0.5,0.48632812,-0.059570312,65.84375,-144.375,-29.96875,0.0,0.0,0.0,236
1695396994270,-1.2890625,0.50390625,0.13671875,97.53125,-256.96875,-35.96875,0.0,0.0,0.0,237
1695396994310,-1.9990234,0.12207031,0.3173828,-70.375,-219.125,-18.0,-42.75,-10.125,1.875,238
1695396994350,-1.5878906,-0.037109375,0.8076172,-8.125,-190.625,15.125,0.0,0.0,0.0,239
1695396994390,-1.0722656,-0.052734375,0.9394531,87.03125,9.375,-70.0625,0.0,0.0,0.0,240
1695396994430,-0.3564453,0.21875,0.7685547,77.03125,-8.9375,17.09375,0.0,0.0,0.0,241
1695396994470,-0.24609375,0.20214844,0.25390625,66.21875,35.6875,31.0,0.0,0.0,0.0,242
1695396994510,0.13085938,0.30859375,-0.016601562,9.40625,46.4375,-6.03125,0.0,0.0,0.0,243
1695396994550,0.31347656,0.23730469,-0.041015625,-115.40625,110.75,-13.125,0.0,0.0,0.0,244
1695396994590,-0.86035156,0.29882812,-0.12207031,-195.1875,109.0,11.28125,0.0,0.0,0.0,245
1695396994630,-1.9990234,0.68847656,0.37890625,-109.6875,-88.71875,23.3125,0.0,0.0,0.0,246
1695396994670,-1.0126953,-1.4345703,0.037109375,21.96875,30.0,57.625,0.0,0.0,0.0,247
1695396994710,-1.6171875,-0.0078125,0.7050781,-32.71875,158.90625,8.28125,0.0,0.0,0.0,248
1695396994750,-1.1347656,0.55566406,0.15234375,-43.8125,89.28125,38.4375,0.0,0.0,0.0,249
1695396994790,-1.7714844,-0.48632812,0.86816406,-55.78125,210.125,20.375,0.0,0.0,0.0,250
1695396994830,-0.98339844,0.036132812,0.5361328,-50.46875,124.375,15.375,-44.25,-10.875,-9.375,251
1695396994870,-0.4482422,-0.072265625,0.17480469,-14.9375,65.03125,80.0,0.0,0.0,0.0,252
1695396994910,-0.4111328,-0.33203125,-0.23632812,10.875,-7.09375,38.25,0.0,0.0,0.0,253
1695396994950,-0.22460938,-0.0146484375,-0.09082031,39.5625,-73.3125,-37.46875,0.0,0.0,0.0,254
1695396994990,-0.73046875,0.45996094,-0.15820312,83.3125,-156.4375,-66.34375,0.0,0.0,0.0,255
1695396995030,-1.875,0.5703125,0.359375,110.65625,-308.25,-52.5,0.0,0.0,0.0,256
1695396995070,-1.4140625,0.44433594,0.5517578,45.28125,-244.84375,-43.09375,0.0,0.0,0.0,257
1695396995110,-1.7324219,0.18847656,1.0830078,1.03125,-107.4375,-20.34375,0.0,0.0,0.0,258
1695396995150,-0.95214844,0.07421875,0.88183594,88.5,-13.15625,-47.125,0.0,0.0,0.0,259
1695396995190,-0.33691406,0.10546875,0.6308594,85.4375,10.59375,11.09375,0.0,0.0,0.0,260
1695396995230,-0.11230469,0.09472656,-0.017578125,56.71875,21.46875,16.96875,0.0,0.0,0.0,261
1695396995270,0.25585938,0.47460938,0.0546875,-2.3125,35.75,-12.75,0.0,0.0,0.0,262
1695396995310,0.1171875,0.36328125,-0.23046875,-116.21875,127.1875,-5.25,-39.1875,-10.5625,11.8125,263
1695396995350,-1.0302734,0.3076172,0.1875,-151.84375,10.25,-0.8125,0.0,0.0,0.0,264
1695396995390,-1.9990234,0.75683594,0.32128906,-135.625,-144.0,45.21875,0.0,0.0,0.0,265
1695396995430,-0.24609375,-1.1044922,0.6044922,-1.53125,154.03125,9.46875,0.0,0.0,0.0,266
1695396995470,-1.6044922,0.19433594,0.5800781,-43.75,143.46875,-8.5625,0.0,0.0,0.0,267
1695396995510,-1.4550781,0.28320312,0.36914062,-69.8125,129.75,64.375,0.0,0.0,0.0,268
1695396995550,-1.6923828,-0.4970703,0.78027344,-82.28125,169.65625,13.96875,0.0,0.0,0.0,269
1695396995590,-1.0234375,0.15136719,0.5595703,-40.9375,117.28125,19.65625,0.0,0.0,0.0,270
1695396995630,-0.5214844,-0.05078125,0.20507812,-50.65625,80.65625,65.84375,0.0,0.0,0.0,271
1695396995670,-0.18652344,-0.265625,-0.24804688,-19.21875,-1.125,27.46875,0.0,0.0,0.0,272
1695396995710,-0.16601562,-0.087890625,-0.11816406,31.96875,-89.4375,-24.71875,0.0,0.0,0.0,273
1695396995750,-0.6074219,0.44921875,-0.19433594,80.75,-167.9375,-62.625,0.0,0.0,0.0,274
1695396995790,-1.9990234,0.6621094,1.0185547,112.90625,-381.96875,-61.34375,0.0,0.0,0.0,275
1695396995830,-0.6748047,0.6640625,0.88964844,66.78125,-207.1875,-34.25,-39.9375,-11.875,1.625,276
1695396995870,-1.7910156,0.060546875,1.0068359,-22.34375,-93.65625,-19.46875,0.0,0.0,0.0,277
1695396995910,-0.9316406,0.13183594,0.9355469,53.40625,1.125,-37.25,0.0,0.0,0.0,278
1695396995950,-0.33203125,0.06640625,0.6982422,73.0625,11.625,38.5,0.0,0.0,0.0,279
1695396995990,-0.07128906,0.015625,0.038085938,57.625,48.625,26.90625,0.0,0.0,0.0,280
1695396996030,0.41796875,0.42285156,0.034179688,-16.125,62.71875,-11.84375,0.0,0.0,0.0,281
1695396996070,0.09765625,0.35839844,-0.4482422,-126.65625,125.65625,-7.6875,0.0,0.0,0.0,282
1695396996110,-1.4638672,0.4794922,0.5644531,-141.59375,18.15625,9.03125,0.0,0.0,0.0,283
1695396996150,-1.9990234,-0.11621094,-0.19042969,-60.0625,-176.40625,50.90625,0.0,0.0,0.0,284
1695396996190,-0.018554688,-0.6230469,0.18554688,-35.71875,153.4375,13.4375,0.0,0.0,0.0,285
1695396996230,-1.6787109,0.5673828,0.671875,-26.625,144.625,-2.09375,0.0,0.0,0.0,286
1695396996270,-1.5566406,0.22167969,0.23632812,-96.375,106.375,67.75,0.0,0.0,0.0,287
1695396996310,-1.6669922,-0.41503906,0.8515625,-99.25,174.40625,16.15625,-41.875,-8.875,-11.0,288
1695396996350,-0.86621094,0.057617188,0.6748047,-44.0625,95.25,32.28125,0.0,0.0,0.0,289
1695396996390,-0.6582031,-0.078125,0.203125,-52.78125,71.4375,76.15625,0.0,0.0,0.0,290
1695396996430,-0.26464844,-0.28515625,-0.033203125,-13.5,20.625,37.59375,0.0,0.0,0.0,291
1695396996470,-0.1640625,-0.10449219,-0.10839844,31.4375,-55.8125,3.34375,0.0,0.0,0.0,292
1695396996510,-0.57910156,0.45410156,-0.07421875,79.15625,-131.5,-50.46875,0.0,0.0,0.0,293
1695396996550,-1.9990234,0.6738281,0.609375,149.0625,-321.1875,-74.71875,0.0,0.0,0.0,294
1695396996590,-1.46875,0.21484375,0.453125,12.28125,-191.5,-40.28125,0.0,0.0,0.0,295
1695396996630,-1.8632812,-0.08496094,0.72753906,-34.84375,-126.3125,9.21875,0.0,0.0,0.0,296
1695396996670,-1.1494141,-0.26464844,1.015625,80.375,-32.375,-47.1875,0.0,0.0,0.0,297
1695396996710,-0.3876953,0.0546875,0.75097656,102.46875,-19.90625,17.40625,0.0,0.0,0.0,298
1695396996750,-0.24316406,0.17675781,0.1796875,69.9375,27.6875,17.21875,0.0,0.0,0.0,299
1695396996790,0.21289062,0.3720703,0.013671875,22.53125,56.0625,-12.09375,0.0,0.0,0.0,300
1695396996830,0.26757812,0.26464844,-0.045898438,-111.6875,106.71875,-6.53125,-38.4375,-5.875,4.875,301
1695396996870,-0.85546875,0.3720703,0.047851562,-170.78125,77.1875,-11.65625,0.0,0.0,0.0,302
1695396996910,-1.9990234,0.6542969,0.8359375,-102.0625,-157.90625,-4.9375,0.0,0.0,0.0,303
1695396996950,-0.123046875,-1.1386719,0.4658203,36.375,116.25,25.3125,0.0,0.0,0.0,304
1695396996990,-1.5888672,0.1640625,0.6298828,-42.25,161.40625,-18.875,0.0,0.0,0.0,305
1695396997030,-1.1611328,0.5390625,0.203125,-80.125,103.1875,60.78125,0.0,0.0,0.0,306
1695396997070,-1.9990234,-0.8183594,0.9189453,-67.9375,194.9375,22.40625,0.0,0.0,0.0,307
1695396997110,-0.98828125,0.25683594,0.51171875,-53.78125,137.8125,11.46875,0.0,0.0,0.0,308
1695396997150,-0.51464844,0.038085938,0.15429688,-39.1875,83.84375,82.75,0.0,0.0,0.0,309
1695396997190,-0.4951172,-0.3173828,-0.25878906,-25.375,2.65625,65.5625,0.0,0.0,0.0,310
1695396997230,-0.16992188,-0.09765625,-0.2109375,29.90625,-76.125,-2.4375,0.0,0.0,0.0,311
1695396997270,-0.61816406,0.39257812,-0.22558594,79.96875,-171.03125,-52.375,0.0,0.0,0.0,312
1695396997310,-1.9990234,0.6738281,0.87597656,113.90625,-356.90625,-60.0,-40.5,-1.6875,-14.0,313
1695396997350,-0.9277344,0.32617188,0.7607422,37.84375,-236.21875,-21.1875,0.0,0.0,0.0,314
1695396997390,-1.9990234,-0.07714844,1.0917969,-15.875,-108.25,-17.75,0.0,0.0,0.0,315
1695396997430,-0.9042969,0.080078125,0.9746094,97.0625,17.125,-60.0,0.0,0.0,0.0,316
1695396997470,-0.3408203,0.09277344,0.7011719,118.53125,7.625,30.15625,0.0,0.0,0.0,317
1695396997510,-0.14550781,-0.021484375,0.040039062,81.0625,37.6875,22.03125,0.0,0.0,0.0,318
1695396997550,0.29296875,0.37597656,-0.08496094,29.0,27.03125,-13.25,0.0,0.0,0.0,319
1695396997590,0.07910156,0.29101562,-0.032226562,-119.03125,122.71875,-23.75,0.0,0.0,0.0,320
1695396997630,-1.0546875,0.5517578,0.083984375,-173.8125,67.65625,-9.46875,0.0,0.0,0.0,321
1695396997670,-1.9990234,0.3330078,0.37402344,-31.25,-185.0625,21.96875,0.0,0.0,0.0,322
1695396997710,-0.46289062,-1.3369141,0.0234375,25.09375,118.6875,26.0625,0.0,0.0,0.0,323
1695396997750,-1.5751953,0.47753906,0.9794922,-1.03125,178.09375,-59.6875,0.0,0.0,0.0,324
1695396997790,-1.0693359,0.38085938,0.30273438,-11.03125,83.96875,56.46875,0.0,0.0,0.0,325
1695396997830,-1.6865234,-0.5800781,0.68652344,-49.6875,191.4375,2.8125,-44.6875,-1.6875,-9.9375,326
1695396997870,-1.2695312,0.13085938,0.63183594,-37.09375,114.25,19.78125,0.0,0.0,0.0,327
1695396997910,-0.4013672,0.015625,0.296875,-42.53125,84.9375,78.96875,0.0,0.0,0.0,328
1695396997950,-0.328125,-0.38183594,-0.24804688,-18.3125,27.5625,58.46875,0.0,0.0,0.0,329
1695396997990,-0.36132812,-0.015625,-0.15722656,39.0,-51.21875,-17.75,0.0,0.0,0.0,330
1695396998030,-0.73046875,0.33496094,-0.22363281,81.84375,-163.65625,-65.5,0.0,0.0,0.0,331
1695396998070,-1.9990234,0.453125,0.5839844,153.4375,-334.3125,-72.40625,0.0,0.0,0.0,332
1695396998110,-0.87890625,0.57714844,0.49023438,100.15625,-222.3125,-21.71875,0.0,0.0,0.0,333
1695396998150,-1.7041016,0.10058594,1.0185547,13.3125,-121.78125,-22.28125,0.0,0.0,0.0,334
1695396998190,-1.015625,0.16210938,0.9433594,100.96875,-5.21875,-71.34375,0.0,0.0,0.0,335
1695396998230,-0.5732422,0.111328125,0.6376953,132.09375,-10.625,12.625,0.0,0.0,0.0,336
1695396998270,-0.2109375,0.030273438,0.23242188,87.90625,43.25,9.625,0.0,0.0,0.0,337
1695396998310,0.13769531,0.31835938,0.025390625,14.28125,39.96875,-30.40625,-43.375,-1.6875,6.125,338
1695396998350,0.16503906,0.2783203,-0.07421875,-98.4375,80.78125,-26.4375,0.0,0.0,0.0,339
1695396998390,-0.7861328,0.47558594,-0.25683594,-108.65625,45.5,6.78125,0.0,0.0,0.0,340
1695396998430,-1.9990234,0.66796875,0.43847656,-117.6875,-136.25,92.34375,0.0,0.0,0.0,341
1695396998470,-0.1328125,-0.9033203,0.016601562,-40.21875,73.78125,36.9375,0.0,0.0,0.0,342
1695396998510,-1.7128906,0.15234375,0.87890625,7.6875,167.28125,-25.03125,0.0,0.0,0.0,343
1695396998550,-0.8544922,0.5966797,0.375,-54.25,121.875,19.15625,0.0,0.0,0.0,344
1695396998590,-1.5908203,-0.41601562,0.76953125,-46.5625,203.15625,12.5,0.0,0.0,0.0,345
1695396998630,-1.0341797,0.13574219,0.58203125,-24.28125,100.3125,32.96875,0.0,0.0,0.0,346
1695396998670,-0.48632812,-0.15527344,0.38378906,-37.21875,63.21875,81.21875,0.0,0.0,0.0,347
1695396998710,-0.21875,-0.7265625,-0.20996094,13.75,19.34375,48.9375,0.0,0.0,0.0,348
1695396998750,-0.30664062,-0.013671875,0.024414062,95.65625,-52.625,-37.25,0.0,0.0,0.0,349
1695396998790,-0.9189453,0.375,-0.31933594,143.6875,-159.75,-74.40625,0.0,0.0,0.0,350
1695396998830,-1.9990234,0.66015625,0.20410156,203.0625,-309.09375,-92.84375,-46.5,-1.6875,-9.9375,351
1695396998870,-0.91503906,0.70410156,0.24316406,77.875,-198.375,-35.28125,0.0,0.0,0.0,352
1695396998910,-1.6621094,0.4033203,0.8798828,32.71875,-77.21875,-57.6875,0.0,0.0,0.0,353
1695396998950,-1.1035156,0.040039062,0.8935547,60.125,-33.46875,-49.25,0.0,0.0,0.0,354
1695396998990,-0.4609375,-0.07519531,0.6455078,113.65625,-30.96875,-4.15625,0.0,0.0,0.0,355
1695396999030,-0.23046875,-0.0009765625,0.0146484375,109.125,11.625,-4.59375,0.0,0.0,0.0,356
1695396999070,0.11230469,0.37695312,0.125,9.15625,42.46875,-41.625,0.0,0.0,0.0,357
1695396999110,0.1015625,0.32617188,-0.17285156,-116.03125,98.84375,-39.5625,0.0,0.0,0.0,358
1695396999150,-0.9482422,0.546875,-0.046875,-92.96875,-10.03125,-2.9375,0.0,0.0,0.0,359
1695396999190,-1.9990234,0.27734375,0.2998047,-132.5625,-108.59375,90.5,0.0,0.0,0.0,360
1695396999230,-0.92089844,-1.3251953,0.3935547,14.78125,139.03125,29.46875,0.0,0.0,0.0,361
1695396999270,-1.6542969,0.25097656,1.0146484,9.84375,118.5,-67.09375,0.0,0.0,0.0,362
1695396999310,-1.4462891,0.3359375,0.37695312,-5.4375,111.1875,43.6875,-43.9375,-8.125,-1.125,363
1695396999350,-1.5244141,-0.375,0.8613281,-74.65625,189.375,23.125,0.0,0.0,0.0,364
1695396999390,-0.76953125,-0.017578125,0.5048828,4.03125,94.34375,32.09375,0.0,0.0,0.0,365
1695396999430,-0.46679688,-0.13964844,-0.043945312,-14.09375,62.1875,78.5,0.0,0.0,0.0,366
1695396999470,-0.30859375,-0.32128906,-0.25390625,22.53125,-13.09375,30.8125,0.0,0.0,0.0,367
1695396999510,-0.38867188,0.13671875,-0.13085938,68.59375,-92.71875,-36.9375,0.0,0.0,0.0,368
1695396999550,-1.140625,0.31445312,-0.10644531,134.65625,-219.1875,-84.90625,0.0,0.0,0.0,369
1695396999590,-1.9990234,0.7285156,-0.06347656,-3.65625,-230.125,-94.71875,0.0,0.0,0.0,370
1695396999630,-0.9628906,0.5332031,0.10449219,7.4375,-181.65625,-33.875,0.0,0.0,0.0,371
1695396999670,-1.4814453,0.020507812,0.9316406,67.6875,-24.0625,-63.46875,0.0,0.0,0.0,372
1695396999710,-0.61328125,0.1171875,0.7988281,101.25,-14.125,0.125,0.0,0.0,0.0,373
1695396999750,-0.34765625,0.08496094,0.53027344,115.84375,8.46875,18.3125,0.0,0.0,0.0,374
1695396999790,-0.15527344,0.3330078,-0.0029296875,69.03125,49.125,-11.0,0.0,0.0,0.0,375
1695396999830,0.14355469,0.3798828,0.18945312,-12.21875,17.5,-19.53125,-42.9375,-4.25,9.875,376
1695396999870,-0.40039062,0.3564453,-0.22753906,-121.875,88.84375,-18.875,0.0,0.0,0.0,377
1695396999910,-0.9248047,0.5341797,-0.08984375,-97.96875,-10.625,-27.46875,0.0,0.0,0.0,378
1695396999950,-1.9990234,-0.19921875,-0.6904297,-45.90625,-170.3125,124.5625,0.0,0.0,0.0,379
1695396999990,-0.65234375,-0.3017578,0.7050781,-43.34375,182.0,-43.21875,0.0,0.0,0.0,380
1695397000030,-1.6806641,0.54785156,0.6904297,-36.25,112.28125,-49.875,0.0,0.0,0.0,381
1695397000070,-1.5039062,0.15429688,0.2890625,-56.6875,157.625,51.625,0.0,0.0,0.0,382
1695397000110,-1.6025391,-0.29589844,0.77734375,-117.3125,146.84375,18.125,0.0,0.0,0.0,383
1695397000150,-0.59472656,-0.27929688,0.6269531,-47.96875,86.84375,42.21875,0.0,0.0,0.0,384
1695397000190,-0.56933594,-0.4296875,-0.12207031,-21.125,39.15625,61.03125,0.0,0.0,0.0,385
1695397000230,-0.16601562,-0.21484375,-0.11816406,60.84375,-28.28125,6.03125,0.0,0.0,0.0,386
1695397000270,-0.4970703,0.23925781,-0.15039062,115.34375,-125.09375,-47.0625,0.0,0.0,0.0,387
1695397000310,-1.3720703,0.55371094,0.15625,150.46875,-263.75,-70.3125,-48.4375,-8.3125,-6.625,388
1695397000350,-1.9990234,0.46484375,0.068359375,-37.71875,-200.28125,-78.0625,0.0,0.0,0.0,389
1695397000390,-1.0585938,0.42285156,0.39257812,-30.21875,-175.75,-13.0,0.0,0.0,0.0,390
1695397000430,-1.4277344,-0.19726562,1.0859375,44.0,-21.1875,-55.3125,0.0,0.0,0.0,391
1695397000470,-0.421875,0.018554688,0.9091797,114.1875,38.375,2.625,0.0,0.0,0.0,392
1695397000510,-0.3671875,0.115234375,0.5761719,83.5625,52.21875,27.71875,0.0,0.0,0.0,393
1695397000550,-0.033203125,0.48046875,0.0068359375,54.25,55.71875,-14.09375,0.0,0.0,0.0,394
1695397000590,0.18457031,0.33984375,0.030273438,-0.4375,20.5,-18.375,0.0,0.0,0.0,395
1695397000630,-0.75878906,0.18457031,-0.17285156,-95.28125,95.9375,-13.4375,0.0,0.0,0.0,396
1695397000670,-1.3867188,0.6074219,-0.12011719,-151.25,-7.90625,-19.71875,0.0,0.0,0.0,397
1695397000710,-1.2910156,-0.23046875,-0.45117188,-67.5625,-61.0625,75.875,0.0,0.0,0.0,398
1695397000750,-1.3056641,-0.75683594,0.5654297,-33.3125,155.8125,-6.34375,0.0,0.0,0.0,399
1695397000790,-1.4599609,0.5625,0.6425781,-57.0625,89.59375,-35.21875,0.0,0.0,0.0,400
1695397000830,-1.5029297,0.072265625,0.58984375,-52.96875,152.25,39.96875,-46.5,-10.6875,1.0,401
1695397000870,-1.4511719,-0.32910156,0.6357422,-101.0,142.0625,30.8125,0.0,0.0,0.0,402
1695397000910,-0.6640625,-0.24023438,0.59277344,-30.28125,89.15625,52.25,0.0,0.0,0.0,403
1695397000950,-0.5859375,-0.2919922,-0.0029296875,-12.375,46.0625,65.375,0.0,0.0,0.0,404
1695397000990,-0.1328125,-0.18945312,-0.08300781,42.78125,-19.78125,13.78125,0.0,0.0,0.0,405
1695397001030,-0.38671875,0.25390625,-0.125,94.59375,-105.1875,-45.40625,0.0,0.0,0.0,406
1695397001070,-1.2753906,0.4951172,0.12402344,131.96875,-239.9375,-79.90625,0.0,0.0,0.0,407
1695397001110,-1.9990234,0.22558594,-0.17480469,-10.0,-203.15625,-84.65625,0.0,0.0,0.0,408
1695397001150,-1.0664062,0.47265625,0.15820312,-0.71875,-200.875,-5.8125,0.0,0.0,0.0,409
1695397001190,-1.4199219,0.10253906,1.0742188,1.46875,-51.78125,-67.09375,0.0,0.0,0.0,410
1695397001230,-0.4736328,0.14355469,0.93652344,87.03125,-9.90625,1.15625,0.0,0.0,0.0,411
1695397001270,-0.38671875,0.01953125,0.84472656,84.65625,54.71875,36.875,0.0,0.0,0.0,412
1695397001310,-0.20703125,0.06542969,0.12109375,9.03125,66.03125,-8.65625,-39.9375,-7.25,16.3125,413
1695397001350,0.125,0.3359375,0.083984375,1.03125,2.96875,-39.375,0.0,0.0,0.0,414
1695397001390,-0.6191406,0.4921875,-0.09863281,-57.875,64.1875,-27.65625,0.0,0.0,0.0,415
1695397001430,-0.9824219,0.6142578,-0.026367188,-119.5,23.28125,-14.40625,0.0,0.0,0.0,416
1695397001470,-1.9990234,0.21972656,0.11035156,-35.9375,-159.5625,66.53125,0.0,0.0,0.0,417
1695397001510,-1.1611328,-0.86621094,0.67871094,-27.78125,144.34375,0.0,0.0,0.0,0.0,418
1695397001550,-1.2822266,0.328125,0.4423828,-14.09375,88.90625,-8.71875,0.0,0.0,0.0,419
1695397001590,-1.4892578,0.09375,0.21289062,-97.21875,166.84375,30.4375,0.0,0.0,0.0,420
1695397001630,-1.5849609,-0.33007812,0.7138672,-89.65625,164.71875,16.34375,0.0,0.0,0.0,421
1695397001670,-1.0527344,-0.23339844,0.6777344,-32.53125,98.78125,45.46875,0.0,0.0,0.0,422
1695397001710,-0.6933594,-0.19433594,0.23828125,-13.375,75.1875,61.65625,0.0,0.0,0.0,423
1695397001750,-0.3486328,-0.21191406,-0.16503906,13.25,5.65625,54.8125,0.0,0.0,0.0,424
1695397001790,-0.060546875,-0.043945312,-0.21582031,66.21875,-67.40625,-5.125,0.0,0.0,0.0,425
1695397001830,-0.7734375,0.30078125,-0.22949219,117.625,-165.25,-65.8125,-44.875,-6.9375,-8.0,426
1695397001870,-1.9990234,0.77246094,0.59375,99.125,-326.625,-79.84375,0.0,0.0,0.0,427
1695397001910,-1.1240234,0.43554688,0.32128906,28.125,-227.0,-33.6875,0.0,0.0,0.0,428
1695397001950,-1.8486328,-0.01171875,0.86816406,10.75,-108.125,-5.3125,0.0,0.0,0.0,429
1695397001990,-1.0283203,0.083984375,0.8105469,81.46875,-38.71875,-25.34375,0.0,0.0,0.0,430
1695397002030,-0.2734375,0.15039062,0.734375,76.53125,0.71875,36.96875,0.0,0.0,0.0,431
1695397002070,-0.2109375,-0.044921875,0.19628906,53.03125,61.375,32.90625,0.0,0.0,0.0,432
1695397002110,0.11230469,0.35253906,0.14648438,13.4375,52.15625,-13.4375,0.0,0.0,0.0,433
1695397002150,0.0087890625,0.25585938,0.048828125,-78.4375,76.75,-21.1875,0.0,0.0,0.0,434
1695397002190,-0.73828125,0.21582031,-0.05859375,-97.96875,70.40625,-5.75,0.0,0.0,0.0,435
1695397002230,-1.6357422,0.30664062,-0.01953125,-87.40625,-47.5,16.65625,0.0,0.0,0.0,436
1695397002270,-1.5498047,-0.33984375,-0.25097656,-34.84375,12.625,20.0,0.0,0.0,0.0,437
1695397002310,-1.1152344,0.044921875,0.80078125,-19.03125,131.28125,-5.75,-39.0,-11.4375,10.875,438
1695397002350,-0.8544922,0.71191406,0.2783203,-33.3125,93.90625,1.09375,0.0,0.0,0.0,439
1695397002390,-1.7636719,-0.43945312,0.41992188,-75.5625,179.25,27.40625,0.0,0.0,0.0,440
1695397002430,-1.3164062,-0.07519531,0.8330078,-71.21875,155.375,-6.71875,0.0,0.0,0.0,441
1695397002470,-0.92578125,-0.11816406,0.5625,-19.40625,80.78125,57.25,0.0,0.0,0.0,442
1695397002510,-0.5371094,-0.2783203,-0.038085938,-33.9375,35.8125,61.28125,0.0,0.0,0.0,443
1695397002550,-0.18554688,-0.27441406,-0.22851562,34.4375,-44.28125,31.125,0.0,0.0,0.0,444
1695397002590,-0.29589844,0.27148438,-0.08300781,102.65625,-126.78125,-43.875,0.0,0.0,0.0,445
1695397002630,-1.2529297,0.4033203,0.038085938,125.0625,-264.25,-72.5625,0.0,0.0,0.0,446
1695397002670,-1.9990234,0.10644531,-0.1171875,-77.40625,-145.03125,-65.1875,0.0,0.0,0.0,447
1695397002710,-1.0390625,0.32421875,0.43359375,17.9375,-221.46875,-5.6875,0.0,0.0,0.0,448
1695397002750,-1.3583984,-0.2705078,1.2089844,46.625,-22.46875,-79.40625,0.0,0.0,0.0,449
1695397002790,-0.49902344,0.13769531,0.8330078,85.09375,16.21875,-1.46875,0.0,0.0,0.0,450
1695397002830,-0.3232422,0.13769531,0.5546875,87.90625,46.25,29.96875,-34.0625,-11.0,19.125,451
1695397002870,0.013671875,0.23828125,0.0078125,43.09375,74.1875,-3.71875,0.0,0.0,0.0,452
1695397002910,0.28808594,0.32128906,0.038085938,-16.0625,25.0625,-7.75,0.0,0.0,0.0,453
1695397002950,-0.6044922,0.36914062,-0.09472656,-66.90625,96.21875,-16.0625,0.0,0.0,0.0,454
1695397002990,-1.4023438,0.7451172,0.15039062,-143.96875,-20.46875,-8.84375,0.0,0.0,0.0,455
1695397003030,-1.9990234,-0.49121094,-0.6503906,-59.625,-132.78125,60.1875,0.0,0.0,0.0,456
1695397003070,-1.0009766,-0.44628906,0.7910156,5.25,155.9375,-15.4375,0.0,0.0,0.0,457
1695397003110,-1.375,0.4716797,0.5205078,-19.46875,60.59375,-39.90625,0.0,0.0,0.0,458
1695397003150,-1.5517578,0.064453125,0.33007812,-68.25,150.0625,27.71875,0.0,0.0,0.0,459
1695397003190,-1.4316406,-0.3515625,0.6279297,-86.53125,128.34375,33.6875,0.0,0.0,0.0,460
1695397003230,-0.93847656,-0.046875,0.68066406,-16.40625,101.96875,46.0625,0.0,0.0,0.0,461
1695397003270,-0.5625,-0.24511719,0.20410156,-43.40625,77.96875,73.53125,0.0,0.0,0.0,462
1695397003310,-0.38867188,-0.3466797,-0.125,16.84375,15.65625,46.4375,-40.9375,-7.25,-6.9375,463
1695397003350,-0.3046875,0.083984375,-0.12402344,71.03125,-69.21875,-5.0625,0.0,0.0,0.0,464
1695397003390,-0.8486328,0.20214844,-0.23046875,129.8125,-172.03125,-64.9375,0.0,0.0,0.0,465
1695397003430,-1.9990234,0.67871094,0.38671875,94.53125,-304.9375,-87.78125,0.0,0.0,0.0,466
1695397003470,-1.0839844,0.7392578,0.3798828,5.5,-186.0,-46.4375,0.0,0.0,0.0,467
1695397003510,-1.6933594,0.09863281,0.84472656,8.71875,-73.03125,-52.375,0.0,0.0,0.0,468
1695397003550,-0.93066406,-0.0234375,0.7519531,119.3125,-53.375,-29.1875,0.0,0.0,0.0,469
1695397003590,-0.23828125,0.001953125,0.5595703,132.09375,-11.25,8.125,0.0,0.0,0.0,470
1695397003630,-0.19921875,0.09082031,0.45996094,107.65625,69.6875,5.1875,0.0,0.0,0.0,471
1695397003670,-0.21777344,0.36132812,0.23339844,54.9375,67.25,-27.78125,0.0,0.0,0.0,472
1695397003710,-0.20019531,0.32714844,0.061523438,-29.71875,2.96875,-18.0625,0.0,0.0,0.0,473
1695397003750,-0.8125,0.4345703,-0.18164062,-34.65625,16.8125,-2.75,0.0,0.0,0.0,474
1695397003790,-1.5673828,0.42285156,-0.072265625,-48.28125,-48.3125,24.71875,0.0,0.0,0.0,475
1695397003830,-1.1220703,-0.3408203,-0.3017578,-126.34375,0.90625,32.15625,-32.5625,-6.0625,15.6875,476
1695397003870,-1.2001953,0.024414062,1.0595703,-28.0625,141.46875,-29.125,0.0,0.0,0.0,477
1695397003910,-0.99121094,0.35253906,0.36816406,-23.8125,79.21875,-7.9375,0.0,0.0,0.0,478
1695397003950,-1.453125,-0.22265625,0.3671875,-62.0625,176.5,18.375,0.0,0.0,0.0,479
1695397003990,-1.4990234,-0.12890625,0.72753906,-72.625,148.65625,19.09375,0.0,0.0,0.0,480
1695397004030,-1.0625,-0.21484375,0.71972656,-13.59375,74.1875,59.9375,0.0,0.0,0.0,481
1695397004070,-0.69140625,-0.31445312,0.3125,-22.15625,62.0,56.875,0.0,0.0,0.0,482
1695397004110,-0.28125,-0.2578125,-0.17480469,36.9375,-11.0625,45.28125,0.0,0.0,0.0,483
1695397004150,-0.28515625,0.13769531,-0.052734375,113.09375,-85.96875,-9.53125,0.0,0.0,0.0,484
1695397004190,-0.8779297,0.25585938,-0.087890625,133.0,-190.4375,-66.34375,0.0,0.0,0.0,485
1695397004230,-1.8642578,0.6152344,0.30078125,94.3125,-268.875,-73.96875,0.0,0.0,0.0,486
1695397004270,-0.94433594,0.4609375,0.30371094,54.09375,-182.03125,-46.75,0.0,0.0,0.0,487
1695397004310,-1.6074219,0.08496094,0.98046875,41.4375,-94.5,-47.625,-32.125,-3.8125,18.25,488
1695397004350,-0.9140625,0.23339844,0.78515625,102.28125,-8.3125,-61.71875,0.0,0.0,0.0,489
1695397004390,-0.47460938,0.18847656,0.6044922,132.9375,8.90625,-13.75,0.0,0.0,0.0,490
1695397004430,-0.3359375,0.080078125,0.31445312,88.8125,46.25,-17.875,0.0,0.0,0.0,491
1695397004470,-0.21386719,0.3232422,0.21972656,55.125,55.34375,-36.6875,0.0,0.0,0.0,492
1695397004510,-0.48339844,0.32226562,-0.059570312,-23.75,50.53125,-2.09375,0.0,0.0,0.0,493
1695397004550,-0.86328125,0.28710938,-0.16308594,-5.625,-16.6875,2.875,0.0,0.0,0.0,494
1695397004590,-1.4462891,0.3876953,0.24414062,1.21875,-123.25,26.78125,0.0,0.0,0.0,495
1695397004630,-0.75,-0.30664062,-0.27539062,-130.625,34.40625,7.9375,0.0,0.0,0.0,496
1695397004670,-1.6582031,-0.22753906,0.890625,21.375,116.1875,-25.46875,0.0,0.0,0.0,497
1695397004710,-1.2382812,0.3046875,0.5625,21.1875,69.625,0.375,0.0,0.0,0.0,498
1695397004750,-1.4277344,-0.06933594,0.53027344,-16.1875,159.59375,-4.15625,0.0,0.0,0.0,499
1695397004790,-1.2070312,-0.041015625,0.6796875,-33.09375,126.5,10.5,0.0,0.0,0.0,500
1695397004830,-1.0166016,-0.13476562,0.6230469,2.5625,67.53125,48.8125,-35.875,-2.4375,8.5,501
1695397004870,-0.60839844,-0.40625,0.140625,3.25,28.84375,46.9375,0.0,0.0,0.0,502
1695397004910,-0.12988281,-0.31347656,-0.26367188,69.34375,-22.34375,16.84375,0.0,0.0,0.0,503
1695397004950,-0.47753906,0.1640625,-0.09472656,137.5625,-89.125,-23.5,0.0,0.0,0.0,504
1695397004990,-1.2753906,0.39746094,0.072265625,166.375,-195.6875,-87.40625,0.0,0.0,0.0,505
1695397005030,-1.9990234,0.5136719,0.08886719,66.40625,-216.6875,-90.8125,0.0,0.0,0.0,506
1695397005070,-0.97265625,0.5517578,0.13085938,78.375,-162.25,-29.0625,0.0,0.0,0.0,507
1695397005110,-1.3808594,0.37695312,0.8105469,42.0,-73.5,-85.5625,0.0,0.0,0.0,508
1695397005150,-0.79296875,0.234375,0.6660156,91.25,-35.78125,-53.21875,0.0,0.0,0.0,509
1695397005190,-0.4794922,0.06933594,0.65625,135.0625,-10.34375,-32.40625,0.0,0.0,0.0,510
1695397005230,-0.390625,0.13476562,0.45507812,98.9375,31.21875,-42.125,0.0,0.0,0.0,511
1695397005270,-0.5078125,0.3359375,0.3623047,65.25,77.75,-58.28125,0.0,0.0,0.0,512
1695397005310,-0.47265625,0.23242188,0.059570312,6.78125,25.875,-27.09375,-27.0,7.0,20.625,513
1695397005350,-0.5253906,0.025390625,-0.24023438,29.0625,-5.75,-5.5,0.0,0.0,0.0,514
1695397005390,-0.81152344,0.49316406,0.2861328,54.1875,-66.25,-9.34375,0.0,0.0,0.0,515
1695397005430,-1.9990234,-0.24414062,-0.6269531,-172.78125,36.40625,42.65625,0.0,0.0,0.0,516
1695397005470,-0.9453125,-0.11816406,0.8808594,-63.59375,51.875,-7.375,0.0,0.0,0.0,517
1695397005510,-1.1630859,0.33203125,0.23925781,-2.75,72.75,-19.0,0.0,0.0,0.0,518
1695397005550,-1.4306641,-0.0703125,0.52246094,-58.65625,136.8125,19.40625,0.0,0.0,0.0,519
1695397005590,-1.1230469,-0.26953125,0.58691406,-77.8125,134.75,4.875,0.0,0.0,0.0,520
1695397005630,-1.1435547,-0.3515625,0.66503906,-2.375,88.125,35.34375,0.0,0.0,0.0,521
1695397005670,-0.8623047,-0.42089844,0.24316406,-4.03125,45.8125,30.03125,0.0,0.0,0.0,522
1695397005710,-0.39648438,-0.32128906,-0.15820312,57.5625,-20.78125,13.0625,0.0,0.0,0.0,523
1695397005750,-0.16113281,0.18066406,-0.017578125,124.9375,-79.5625,-6.28125,0.0,0.0,0.0,524
1695397005790,-0.89746094,0.54785156,0.024414062,132.4375,-153.34375,-69.59375,0.0,0.0,0.0,525
1695397005830,-1.6044922,0.49316406,0.029296875,69.875,-248.8125,-90.53125,-29.5625,6.25,13.875,526
1695397005870,-1.1054688,0.34960938,0.5361328,86.1875,-193.5625,-56.71875,0.0,0.0,0.0,527
1695397005910,-1.5302734,0.22851562,0.9902344,59.03125,-90.21875,-77.34375,0.0,0.0,0.0,528
1695397005950,-1.1601562,0.18261719,0.8720703,87.71875,-38.53125,-70.4375,0.0,0.0,0.0,529
1695397005990,-0.6611328,0.13378906,0.73339844,123.96875,-3.0625,-39.4375,0.0,0.0,0.0,530
1695397006030,-0.26757812,0.0126953125,0.50878906,108.40625,51.90625,-20.28125,0.0,0.0,0.0,531
1695397006070,-0.27246094,0.21679688,0.33496094,39.96875,106.5625,-30.09375,0.0,0.0,0.0,532
1695397006110,-0.3173828,0.31445312,0.05859375,-4.875,79.875,-35.46875,0.0,0.0,0.0,533
1695397006150,-0.9267578,0.41015625,0.044921875,63.71875,-19.5,9.28125,0.0,0.0,0.0,534
1695397006190,-1.5566406,0.099609375,-0.10546875,36.4375,-99.875,11.15625,0.0,0.0,0.0,535
1695397006230,-0.078125,0.18847656,0.24707031,3.3125,-71.4375,14.65625,0.0,0.0,0.0,536
1695397006270,-1.1660156,-0.017578125,0.23144531,-99.96875,71.8125,-33.03125,0.0,0.0,0.0,537
1695397006310,-1.4335938,-0.3046875,0.50097656,18.625,44.71875,-47.96875,-19.5,8.0625,20.0625,538
1695397006350,-1.3554688,-0.03125,0.55859375,26.125,53.4375,13.5,0.0,0.0,0.0,539
1695397006390,-1.0966797,-0.15332031,0.4609375,15.6875,108.0,-34.0,0.0,0.0,0.0,540
1695397006430,-1.1064453,-0.080078125,0.5732422,24.125,112.59375,-21.71875,0.0,0.0,0.0,541
1695397006470,-1.1083984,-0.1328125,0.3720703,7.4375,87.1875,-3.375,0.0,0.0,0.0,542
1695397006510,-0.85253906,-0.36914062,0.16503906,48.09375,29.71875,2.25,0.0,0.0,0.0,543
1695397006550,-0.7001953,-0.20898438,0.037109375,119.375,-54.71875,15.125,0.0,0.0,0.0,544
1695397006590,-0.4951172,0.15332031,0.057617188,183.28125,-108.40625,11.96875,0.0,0.0,0.0,545
1695397006630,-0.6328125,0.41796875,-0.06738281,179.375,-160.59375,-6.40625,0.0,0.0,0.0,546
1695397006670,-1.2451172,0.20507812,0.21875,91.5625,-223.09375,-18.125,0.0,0.0,0.0,547
1695397006710,-1.7294922,0.39257812,0.69140625,-2.0,-161.9375,-85.5625,0.0,0.0,0.0,548
1695397006750,-1.2490234,-0.036132812,0.7636719,119.15625,-76.8125,-81.4375,0.0,0.0,0.0,549
1695397006790,-1.0810547,0.0234375,0.73828125,144.53125,9.5625,-128.125,0.0,0.0,0.0,550
1695397006830,-0.7685547,0.2109375,0.5361328,150.46875,50.40625,-101.8125,-16.8125,19.3125,11.9375,551
1695397006870,-0.5810547,-0.0703125,0.35351562,183.40625,45.5625,-68.5,0.0,0.0,0.0,552
1695397006910,-0.3095703,0.0078125,0.15234375,173.09375,70.84375,-65.3125,0.0,0.0,0.0,553
1695397006950,-0.5253906,0.17773438,-0.14648438,134.28125,70.90625,-55.4375,0.0,0.0,0.0,554
1695397006990,-0.63964844,0.2861328,0.020507812,106.5625,26.96875,-33.625,0.0,0.0,0.0,555
1695397007030,-0.7167969,0.33496094,0.12890625,129.75,-48.25,-12.6875,0.0,0.0,0.0,556
1695397007070,-1.6845703,0.060546875,-0.09765625,94.90625,-38.59375,10.8125,0.0,0.0,0.0,557
1695397007110,-0.9589844,0.0146484375,0.59375,12.5625,77.5625,-79.46875,0.0,0.0,0.0,558
1695397007150,-1.9658203,0.0146484375,0.2919922,58.71875,-7.21875,-34.0625,0.0,0.0,0.0,559
1695397007190,-1.2978516,-0.12988281,0.47070312,50.65625,-7.84375,-27.03125,0.0,0.0,0.0,560
1695397007230,-1.3603516,-0.15527344,0.36816406,56.28125,28.78125,-24.53125,0.0,0.0,0.0,561
1695397007270,-1.0732422,-0.22070312,0.3671875,61.78125,33.375,2.0,0.0,0.0,0.0,562
1695397007310,-0.77441406,-0.19726562,0.24316406,85.4375,26.84375,10.96875,-27.4375,20.5,-12.8125,563
1695397007350,-0.55859375,-0.1875,0.06738281,110.40625,7.5625,8.1875,0.0,0.0,0.0,564
1695397007390,-0.58496094,-0.1640625,-0.16210938,154.90625,-45.1875,-10.3125,0.0,0.0,0.0,565
1695397007430,-0.5253906,0.13574219,-0.06347656,196.21875,-90.46875,-42.59375,0.0,0.0,0.0,566
1695397007470,-0.9169922,0.39648438,0.02734375,154.84375,-144.6875,-57.25,0.0,0.0,0.0,567
1695397007510,-1.3125,0.67285156,0.3125,83.375,-169.5625,-78.8125,0.0,0.0,0.0,568
1695397007550,-1.1279297,0.42578125,0.4423828,80.5,-153.34375,-82.65625,0.0,0.0,0.0,569
1695397007590,-1.5742188,0.12890625,0.7714844,59.75,-68.375,-69.03125,0.0,0.0,0.0,570
1695397007630,-0.9707031,0.091796875,0.6191406,121.59375,-71.75,-93.4375,0.0,0.0,0.0,571
1695397007670,-0.7470703,0.5527344,0.73828125,90.875,-57.5,-41.75,0.0,0.0,0.0,572
1695397007710,-0.56347656,0.33789062,0.5527344,57.625,-5.03125,-29.96875,0.0,0.0,0.0,573
1695397007750,-0.3095703,0.06640625,0.51660156,5.0625,42.21875,-25.875,0.0,0.0,0.0,574
1695397007790,-0.43847656,0.28027344,0.46777344,-19.65625,123.625,-20.6875,0.0,0.0,0.0,575
1695397007830,-0.47265625,0.20117188,0.09277344,-12.8125,118.4375,15.125,-36.9375,2.5,-6.5,576
1695397007870,-0.16503906,-0.16015625,-0.16308594,-16.34375,77.375,2.9375,0.0,0.0,0.0,577
1695397007910,-1.3095703,0.005859375,0.19824219,-57.96875,36.0625,-31.625,0.0,0.0,0.0,578
1695397007950,-1.9990234,0.12597656,0.3017578,-73.90625,64.3125,-52.5625,0.0,0.0,0.0,579
1695397007990,-0.98339844,0.07519531,0.21386719,-44.96875,64.125,47.46875,0.0,0.0,0.0,580
1695397008030,-1.6689453,-0.001953125,0.2783203,-83.375,125.21875,25.875,0.0,0.0,0.0,581
1695397008070,-1.5400391,-0.5703125,0.6923828,-32.40625,151.21875,-9.71875,0.0,0.0,0.0,582
1695397008110,-1.1464844,-0.14941406,0.41796875,-58.46875,130.03125,2.8125,0.0,0.0,0.0,583
1695397008150,-0.78027344,-0.091796875,0.20507812,-8.71875,49.71875,69.15625,0.0,0.0,0.0,584
1695397008190,-0.3828125,-0.005859375,-0.08105469,17.46875,-19.84375,39.5,0.0,0.0,0.0,585
1695397008230,-0.18554688,0.09082031,-0.15429688,48.21875,-88.46875,-7.03125,0.0,0.0,0.0,586
1695397008270,-0.86621094,0.18164062,-0.20605469,119.8125,-189.84375,-54.4375,0.0,0.0,0.0,587
1695397008310,-1.9990234,0.96875,0.47070312,33.625,-298.34375,-75.5625,-37.0625,7.3125,-17.875,588
1695397008350,-0.60546875,0.43652344,0.25976562,-20.6875,-240.0625,-8.1875,0.0,0.0,0.0,589
1695397008390,-1.6767578,-0.09277344,0.8417969,-12.8125,-92.0625,-4.34375,0.0,0.0,0.0,590
1695397008430,-0.80566406,0.016601562,0.9892578,37.40625,-16.5,17.6875,0.0,0.0,0.0,591
1695397008470,-0.12597656,0.20019531,0.8017578,39.5,27.3125,22.21875,0.0,0.0,0.0,592
1695397008510,-0.19335938,0.048828125,0.041015625,6.03125,52.71875,35.75,0.0,0.0,0.0,593
1695397008550,0.07128906,0.24707031,0.24121094,-21.90625,62.3125,4.5625,0.0,0.0,0.0,594
1695397008590,0.00390625,0.109375,-0.10644531,-89.15625,105.09375,-5.1875,0.0,0.0,0.0,595
1695397008630,-0.9189453,0.7050781,0.18359375,-81.125,20.625,-2.75,0.0,0.0,0.0,596
1695397008670,-1.9990234,-0.3330078,-1.1923828,-146.25,-57.34375,117.5625,0.0,0.0,0.0,597
1695397008710,-0.19726562,-0.328125,0.6503906,-92.65625,143.15625,-8.4375,0.0,0.0,0.0,598
1695397008750,-1.5332031,0.1171875,0.484375,-98.15625,159.65625,-30.34375,0.0,0.0,0.0,599
1695397008790,-1.6210938,0.055664062,0.55078125,-89.90625,138.65625,42.46875,0.0,0.0,0.0,600
1695397008830,-1.2978516,-0.4345703,0.7753906,-156.3125,146.21875,2.8125,-38.125,9.375,-18.375,601
1695397008870,-0.5292969,-0.26367188,0.40722656,-47.59375,107.53125,40.15625,0.0,0.0,0.0,602
1695397008910,-0.41992188,-0.23535156,-0.140625,-18.0,53.3125,47.59375,0.0,0.0,0.0,603
1695397008950,-0.34472656,-0.045898438,-0.021484375,15.375,-27.78125,-9.84375,0.0,0.0,0.0,604
1695397008990,-0.21582031,0.39160156,-0.14648438,53.59375,-120.5,-44.25,0.0,0.0,0.0,605
1695397009030,-1.6025391,0.6064453,-0.06542969,101.3125,-277.53125,-57.4375,0.0,0.0,0.0,606
1695397009070,-1.9990234,0.016601562,0.1484375,-167.90625,-138.09375,-62.3125,0.0,0.0,0.0,607
1695397009110,-1.6513672,0.037109375,0.5488281,-76.15625,-196.375,28.75,0.0,0.0,0.0,608
1695397009150,-1.4267578,-0.40039062,1.2324219,72.375,-38.34375,-44.25,0.0,0.0,0.0,609
1695397009190,-0.5234375,0.18066406,0.98828125,45.78125,4.375,17.21875,0.0,0.0,0.0,610
1695397009230,-0.24707031,0.078125,0.44335938,17.53125,40.5625,42.71875,0.0,0.0,0.0,611
1695397009270,0.12890625,0.13476562,-0.08203125,3.90625,49.59375,-7.34375,0.0,0.0,0.0,612
1695397009310,0.5058594,0.29101562,-0.12402344,-104.1875,97.625,-16.78125,-41.125,8.9375,1.3125,613
1695397009350,-0.6611328,0.33789062,0.009765625,-158.625,115.46875,-6.0,0.0,0.0,0.0,614
1695397009390,-1.8017578,0.5830078,0.5,-114.3125,-87.1875,17.21875,0.0,0.0,0.0,615
1695397009430,-1.4970703,-0.64941406,-0.6972656,-25.5,-12.78125,53.09375,0.0,0.0,0.0,616
1695397009470,-0.94628906,0.21386719,0.55566406,-97.71875,186.375,21.1875,0.0,0.0,0.0,617
1695397009510,-1.7382812,0.7167969,0.42089844,-161.9375,138.78125,38.6875,0.0,0.0,0.0,618
1695397009550,-1.6201172,-0.7216797,0.70214844,-158.09375,155.9375,35.09375,0.0,0.0,0.0,619
1695397009590,-1.1201172,-0.42578125,0.7080078,-87.53125,139.8125,32.46875,0.0,0.0,0.0,620
1695397009630,-0.6328125,-0.036132812,0.5361328,-69.6875,93.96875,61.53125,0.0,0.0,0.0,621
1695397009670,-0.5234375,-0.30664062,-0.05078125,-23.375,44.78125,48.9375,0.0,0.0,0.0,622
1695397009710,-0.2890625,0.028320312,-0.045898438,15.625,-43.21875,-4.65625,0.0,0.0,0.0,623
1695397009750,-0.3017578,0.49316406,-0.08300781,45.71875,-139.78125,-40.46875,0.0,0.0,0.0,624
1695397009790,-1.5517578,0.6308594,-0.04296875,73.65625,-287.96875,-34.0625,0.0,0.0,0.0,625
1695397009830,-1.9990234,-0.5361328,0.24511719,-88.5625,-184.59375,-35.59375,-37.8125,14.5,-8.0,626
1695397009870,-1.6660156,-0.23046875,0.52246094,-13.5,-214.5,24.71875,0.0,0.0,0.0,627
1695397009910,-1.2783203,-0.0703125,1.0927734,31.96875,-17.90625,-53.40625,0.0,0.0,0.0,628
1695397009950,-0.33496094,0.11328125,0.9248047,77.625,10.1875,10.75,0.0,0.0,0.0,629
1695397009990,-0.28808594,-0.00390625,0.17382812,56.21875,38.8125,38.625,0.0,0.0,0.0,630
1695397010030,0.07324219,0.27441406,-0.07910156,41.125,11.5625,-5.375,0.0,0.0,0.0,631
1695397010070,0.42578125,0.47851562,-0.15136719,-110.65625,111.25,-23.75,0.0,0.0,0.0,632
1695397010110,-0.7080078,0.58984375,-0.16699219,-188.78125,121.0,4.5625,0.0,0.0,0.0,633
1695397010150,-1.9990234,1.1972656,0.859375,-174.5,-222.4375,40.71875,0.0,0.0,0.0,634
1695397010190,0.05078125,-1.5380859,0.53125,-7.1875,68.21875,9.9375,0.0,0.0,0.0,635
1695397010230,-1.5458984,0.10058594,0.5048828,-40.15625,144.875,8.71875,0.0,0.0,0.0,636
1695397010270,-1.4501953,0.3095703,0.42871094,-70.5,100.625,82.5625,0.0,0.0,0.0,637
1695397010310,-1.7958984,-0.7441406,0.9560547,-118.21875,173.1875,15.4375,-39.1875,15.875,-6.375,638
1695397010350,-0.93359375,-0.16894531,0.60546875,-23.3125,114.3125,56.6875,0.0,0.0,0.0,639
1695397010390,-0.5449219,-0.17675781,-0.020507812,-34.4375,74.1875,91.0625,0.0,0.0,0.0,640
1695397010430,-0.3359375,-0.23339844,-0.19433594,7.5625,15.1875,30.5,0.0,0.0,0.0,641
1695397010470,-0.18261719,0.103515625,-0.15527344,49.0625,-89.5625,-26.6875,0.0,0.0,0.0,642
1695397010510,-0.5234375,0.4423828,-0.13574219,100.90625,-165.3125,-51.75,0.0,0.0,0.0,643
1695397010550,-1.9990234,0.5595703,0.5341797,96.375,-339.625,-38.6875,0.0,0.0,0.0,644
1695397010590,-1.3564453,0.09082031,0.42871094,19.28125,-212.59375,-14.59375,0.0,0.0,0.0,645
1695397010630,-1.8564453,-0.028320312,0.953125,-8.125,-138.15625,6.53125,0.0,0.0,0.0,646
1695397010670,-1.0048828,-0.00390625,1.0527344,72.6875,5.15625,-49.3125,0.0,0.0,0.0,647
1695397010710,-0.37597656,0.033203125,0.8076172,84.46875,7.4375,16.90625,0.0,0.0,0.0,648
1695397010750,-0.171875,0.051757812,0.11816406,92.28125,59.0,14.875,0.0,0.0,0.0,649
1695397010790,0.20605469,0.37890625,0.0546875,30.46875,27.5,-10.0,0.0,0.0,0.0,650
1695397010830,0.1640625,0.38671875,-0.16992188,-125.25,132.78125,-32.84375,-39.9375,19.4375,4.625,651
1695397010870,-0.8251953,0.58496094,0.032226562,-176.21875,71.40625,-15.03125,0.0,0.0,0.0,652
1695397010910,-1.9990234,0.48828125,0.35546875,-159.96875,-141.25,49.1875,0.0,0.0,0.0,653
1695397010950,-0.7548828,-1.5673828,-0.0546875,-26.625,97.875,40.59375,0.0,0.0,0.0,654
1695397010990,-1.3417969,0.1796875,1.0205078,-42.25,147.75,-6.09375,0.0,0.0,0.0,655
1695397011030,-1.5576172,0.24121094,0.60253906,-1.09375,83.0625,65.0625,0.0,0.0,0.0,656
1695397011070,-1.5732422,-0.5878906,0.6826172,-86.59375,184.96875,17.21875,0.0,0.0,0.0,657
1695397011110,-1.0712891,-0.09863281,0.5029297,-18.625,111.4375,43.03125,0.0,0.0,0.0,658
1695397011150,-0.47558594,0.061523438,0.13476562,-20.8125,60.40625,79.40625,0.0,0.0,0.0,659
1695397011190,-0.19335938,-0.22558594,-0.140625,-10.4375,0.40625,45.96875,0.0,0.0,0.0,660
1695397011230,-0.22460938,-0.048828125,-0.021484375,35.9375,-84.25,-26.0,0.0,0.0,0.0,661
1695397011270,-0.6064453,0.35742188,-0.041992188,81.375,-163.78125,-58.0625,0.0,0.0,0.0,662
1695397011310,-1.9990234,0.35058594,0.7392578,139.15625,-351.59375,-74.84375,-41.125,19.875,-1.125,663
1695397011350,-0.9394531,0.5,0.4921875,49.75,-175.6875,-52.0,0.0,0.0,0.0,664
1695397011390,-1.6894531,0.043945312,0.8720703,4.09375,-132.59375,-29.59375,0.0,0.0,0.0,665
1695397011430,-0.91503906,-0.0146484375,0.9453125,103.46875,18.53125,-46.9375,0.0,0.0,0.0,666
1695397011470,-0.3232422,0.19824219,0.88378906,110.96875,34.28125,17.09375,0.0,0.0,0.0,667
1695397011510,-0.26171875,0.0625,-0.16503906,61.53125,40.3125,12.375,0.0,0.0,0.0,668
1695397011550,0.2783203,0.40429688,0.13085938,33.28125,28.4375,-11.78125,0.0,0.0,0.0,669
1695397011590,-0.24121094,0.38183594,-0.31347656,-104.3125,123.34375,-17.46875,0.0,0.0,0.0,670
1695397011630,-1.0390625,0.41503906,0.19042969,-163.5625,26.53125,-31.875,0.0,0.0,0.0,671
1695397011670,-1.9990234,-0.26171875,-0.47558594,-42.59375,-166.59375,72.03125,0.0,0.0,0.0,672
1695397011710,-0.55078125,-0.76660156,0.45898438,-15.5625,149.03125,21.46875,0.0,0.0,0.0,673
1695397011750,-1.5888672,0.3251953,0.6464844,-51.9375,129.1875,-27.09375,0.0,0.0,0.0,674
1695397011790,-1.6455078,-0.051757812,0.3779297,-82.21875,125.65625,66.71875,0.0,0.0,0.0,675
1695397011830,-1.4003906,-0.5078125,0.76171875,-92.53125,167.78125,12.6875,-41.6875,18.375,0.5625,676
1695397011870,-0.8828125,0.06542969,0.5283203,-25.9375,100.25,52.96875,0.0,0.0,0.0,677
1695397011910,-0.5107422,-0.107421875,-0.0029296875,-53.53125,68.59375,69.46875,0.0,0.0,0.0,678
1695397011950,-0.16503906,-0.3828125,-0.18847656,-3.125,10.40625,31.5625,0.0,0.0,0.0,679
1695397011990,-0.3251953,0.0107421875,-0.078125,62.625,-80.90625,-28.8125,0.0,0.0,0.0,680
1695397012030,-0.9980469,0.29589844,-0.10644531,114.4375,-194.125,-83.4375,0.0,0.0,0.0,681
1695397012070,-1.9990234,0.70703125,0.2890625,71.03125,-290.3125,-114.25,0.0,0.0,0.0,682
1695397012110,-0.91308594,0.7011719,0.47460938,37.96875,-190.3125,-41.5,0.0,0.0,0.0,683
1695397012150,-1.8193359,-0.055664062,0.9111328,26.3125,-63.625,-66.34375,0.0,0.0,0.0,684
1695397012190,-0.49414062,0.056640625,0.7714844,109.4375,-12.09375,-9.78125,0.0,0.0,0.0,685
1695397012230,-0.30078125,0.17675781,0.734375,112.96875,35.9375,13.1875,0.0,0.0,0.0,686
1695397012270,-0.18847656,0.16015625,0.028320312,29.3125,67.0625,14.15625,0.0,0.0,0.0,687
1695397012310,0.21679688,0.091796875,-0.0625,47.0625,-4.96875,-9.15625,-39.9375,19.75,10.75,688
1695397012350,-0.22851562,0.40722656,-0.09472656,-9.59375,41.25,-21.625,0.0,0.0,0.0,689
1695397012390,-1.1259766,0.81152344,0.17773438,-60.90625,-48.3125,-18.875,0.0,0.0,0.0,690
1695397012430,-1.9990234,-0.9863281,-0.9580078,-146.125,-102.5625,140.875,0.0,0.0,0.0,691
1695397012470,-1.5380859,-1.0751953,0.5253906,-99.78125,141.71875,11.28125,0.0,0.0,0.0,692
1695397012510,-1.2128906,0.24121094,0.29101562,-21.0625,118.9375,-22.84375,0.0,0.0,0.0,693
1695397012550,-1.7861328,0.1640625,0.5830078,-68.34375,178.21875,27.15625,0.0,0.0,0.0,694
1695397012590,-1.2558594,-0.28027344,0.8154297,-110.59375,164.46875,24.21875,0.0,0.0,0.0,695
1695397012630,-1.1279297,-0.12792969,0.7636719,-30.75,108.125,54.125,0.0,0.0,0.0,696
1695397012670,-0.4970703,-0.3359375,0.10253906,-36.375,90.375,39.90625,0.0,0.0,0.0,697
1695397012710,-0.25390625,-0.29492188,-0.18066406,19.40625,8.71875,38.8125,0.0,0.0,0.0,698
1695397012750,-0.20703125,0.080078125,-0.09082031,74.53125,-85.28125,-10.25,0.0,0.0,0.0,699
1695397012790,-0.7792969,0.33496094,-0.12402344,134.78125,-190.875,-61.65625,0.0,0.0,0.0,700
1695397012830,-1.9003906,0.546875,0.515625,122.375,-311.53125,-61.46875,-43.6875,20.625,1.0,701
1695397012870,-1.3300781,0.4873047,0.2626953,9.34375,-212.1875,-53.21875,0.0,0.0,0.0,702
1695397012910,-1.7451172,0.021484375,1.0957031,1.46875,-102.0,-39.625,0.0,0.0,0.0,703
1695397012950,-0.9550781,-0.055664062,0.80371094,120.5,-19.0625,-37.46875,0.0,0.0,0.0,704
1695397012990,-0.22265625,0.22167969,0.8652344,125.25,45.21875,16.84375,0.0,0.0,0.0,705
1695397013030,-0.20214844,0.13671875,-0.028320312,52.0625,51.90625,23.90625,0.0,0.0,0.0,706
1695397013070,0.1484375,0.4423828,0.0625,53.71875,-4.46875,-4.46875,0.0,0.0,0.0,707
1695397013110,0.02734375,0.38671875,-0.30273438,-39.5,83.96875,-0.375,0.0,0.0,0.0,708
1695397013150,-1.0175781,0.32421875,0.20898438,-117.25,-4.40625,7.4375,0.0,0.0,0.0,709
1695397013190,-1.9990234,-0.20019531,-0.9550781,-253.84375,-35.34375,60.96875,0.0,0.0,0.0,710
1695397013230,-0.22070312,-0.7216797,0.9199219,-11.96875,118.6875,25.21875,0.0,0.0,0.0,711
1695397013270,-1.265625,0.27148438,0.42578125,-49.9375,109.71875,-24.25,0.0,0.0,0.0,712
1695397013310,-1.6738281,0.123046875,0.35839844,-111.5,155.5,32.46875,-40.1875,15.875,10.125,713
1695397013350,-1.3515625,-0.41308594,0.71875,-119.4375,142.75,16.46875,0.0,0.0,0.0,714
1695397013390,-0.94140625,-0.0087890625,0.59277344,-73.71875,96.21875,46.875,0.0,0.0,0.0,715
1695397013430,-0.53222656,-0.5546875,0.23339844,-70.375,77.0,79.84375,0.0,0.0,0.0,716
1695397013470,-0.111328125,-0.59765625,-0.21191406,26.5625,14.9375,27.9375,0.0,0.0,0.0,717
1695397013510,-0.328125,0.14257812,-0.08496094,122.75,-104.4375,-43.28125,0.0,0.0,0.0,718
1695397013550,-0.9248047,0.46484375,-0.060546875,155.15625,-217.65625,-79.21875,0.0,0.0,0.0,719
1695397013590,-1.9990234,0.7841797,0.5205078,90.75,-267.0625,-73.25,0.0,0.0,0.0,720
1695397013630,-0.74316406,0.53222656,0.32714844,31.4375,-195.03125,-23.1875,0.0,0.0,0.0,721
1695397013670,-1.5126953,0.024414062,0.9921875,-9.6875,-83.28125,-48.46875,0.0,0.0,0.0,722
1695397013710,-0.7597656,0.055664062,0.7763672,80.375,19.75,-30.09375,0.0,0.0,0.0,723
1695397013750,-0.23632812,0.1796875,0.703125,120.53125,40.5625,27.875,0.0,0.0,0.0,724
1695397013790,-0.16796875,0.07421875,0.2998047,25.8125,90.4375,9.75,0.0,0.0,0.0,725
1695397013830,0.009765625,0.25585938,0.18652344,13.78125,43.6875,-18.8125,-34.9375,19.4375,12.125,726
1695397013870,-0.4013672,0.4296875,-0.22558594,-31.96875,38.6875,-10.6875,0.0,0.0,0.0,727
1695397013910,-1.4023438,0.6904297,0.14257812,-112.4375,1.25,-9.53125,0.0,0.0,0.0,728
1695397013950,-1.6455078,-0.16894531,-0.103515625,-96.8125,-75.6875,51.75,0.0,0.0,0.0,729
1695397013990,-1.0771484,-0.91015625,0.359375,8.71875,92.5,48.40625,0.0,0.0,0.0,730
1695397014030,-1.2685547,0.30859375,0.35839844,-54.75,105.9375,-16.0625,0.0,0.0,0.0,731
1695397014070,-1.6835938,0.0048828125,0.24511719,-89.15625,156.34375,16.46875,0.0,0.0,0.0,732
1695397014110,-1.3876953,-0.31152344,0.6035156,-117.96875,151.53125,17.875,0.0,0.0,0.0,733
1695397014150,-0.9716797,-0.18554688,0.6425781,-75.4375,117.15625,54.6875,0.0,0.0,0.0,734
1695397014190,-0.765625,-0.2763672,0.20410156,-62.625,86.46875,45.34375,0.0,0.0,0.0,735
1695397014230,-0.30078125,-0.31445312,-0.09667969,-5.3125,12.75,24.03125,0.0,0.0,0.0,736
1695397014270,-0.375,-0.049804688,-0.171875,72.875,-60.5,-22.59375,0.0,0.0,0.0,737
1695397014310,-1.0878906,0.31640625,0.08496094,115.53125,-189.46875,-90.21875,-43.0625,17.625,-4.25,738
1695397014350,-1.9990234,0.8105469,0.20019531,84.0625,-259.125,-93.75,0.0,0.0,0.0,739
1695397014390,-0.96191406,0.5283203,0.33789062,31.96875,-182.8125,-18.9375,0.0,0.0,0.0,740
1695397014430,-1.4599609,0.21972656,0.9013672,-10.0,-100.125,-28.9375,0.0,0.0,0.0,741
1695397014470,-1.1230469,-0.040039062,0.9355469,47.5625,-15.59375,-9.03125,0.0,0.0,0.0,742
1695397014510,-0.30371094,-0.068359375,0.7167969,86.5625,29.28125,16.40625,0.0,0.0,0.0,743
1695397014550,-0.12011719,0.018554688,0.17480469,29.59375,44.59375,4.9375,0.0,0.0,0.0,744
1695397014590,-0.07421875,0.4189453,0.060546875,-4.28125,57.90625,-25.46875,0.0,0.0,0.0,745
1695397014630,-0.2841797,0.4658203,-0.11328125,-105.34375,70.90625,-13.5,0.0,0.0,0.0,746
1695397014670,-0.98828125,0.4658203,0.22851562,-136.46875,33.0,-24.84375,0.0,0.0,0.0,747
1695397014710,-1.9990234,-0.038085938,0.07421875,-95.40625,-114.21875,36.6875,0.0,0.0,0.0,748
1695397014750,-1.3017578,-0.8076172,-0.107421875,-32.96875,110.34375,29.84375,0.0,0.0,0.0,749
1695397014790,-1.5429688,0.421875,0.81933594,-111.15625,145.90625,-11.71875,0.0,0.0,0.0,750
1695397014830,-1.4023438,0.022460938,0.3720703,-124.21875,89.9375,62.875,-40.9375,8.8125,10.75,751
1695397014870,-1.5605469,-0.8574219,0.63378906,-137.28125,168.125,13.3125,0.0,0.0,0.0,752
1695397014910,-0.96972656,-0.115234375,0.71191406,-39.96875,94.53125,41.5625,0.0,0.0,0.0,753
1695397014950,-0.7734375,0.119140625,0.38476562,-53.96875,76.65625,76.53125,0.0,0.0,0.0,754
1695397014990,-0.47851562,-0.34765625,-0.0126953125,-40.90625,29.15625,56.5625,0.0,0.0,0.0,755
1695397015030,-0.14941406,-0.20898438,-0.14550781,19.59375,-38.78125,33.75,0.0,0.0,0.0,756
1695397015070,-0.54296875,0.34375,-0.051757812,70.875,-110.125,-27.40625,0.0,0.0,0.0,757
1695397015110,-1.7929688,0.38867188,0.24707031,95.8125,-275.03125,-59.75,0.0,0.0,0.0,758
1695397015150,-1.7480469,0.16992188,0.26757812,-22.65625,-179.875,-32.15625,0.0,0.0,0.0,759
1695397015190,-1.3447266,0.0,0.49316406,-29.21875,-149.6875,-32.34375,0.0,0.0,0.0,760
1695397015230,-1.3085938,-0.515625,1.0078125,87.21875,-44.875,-48.59375,0.0,0.0,0.0,761
1695397015270,-0.4404297,0.057617188,0.7236328,131.21875,-8.4375,2.4375,0.0,0.0,0.0,762
1695397015310,-0.4716797,0.057617188,0.36816406,102.96875,-3.8125,23.4375,-33.1875,11.625,19.3125,763
1695397015350,-0.14355469,0.45410156,0.078125,39.0625,47.09375,-10.5,0.0,0.0,0.0,764
1695397015390,0.11621094,0.4345703,-0.11035156,-53.46875,47.46875,0.4375,0.0,0.0,0.0,765
1695397015430,-0.6953125,0.3642578,-0.038085938,-111.09375,70.28125,-3.53125,0.0,0.0,0.0,766
1695397015470,-1.9990234,0.8222656,0.6435547,-157.71875,-124.15625,-1.34375,0.0,0.0,0.0,767
1695397015510,-0.7324219,-0.98828125,0.17773438,-3.1875,1.5,67.25,0.0,0.0,0.0,768
1695397015550,-1.1796875,0.05859375,0.42285156,-89.71875,140.1875,29.71875,0.0,0.0,0.0,769
1695397015590,-1.1376953,0.55566406,0.4501953,-91.4375,92.8125,54.875,0.0,0.0,0.0,770
1695397015630,-1.5644531,-0.6152344,0.5566406,-133.375,178.09375,35.09375,0.0,0.0,0.0,771
1695397015670,-1.1835938,-0.2734375,0.7216797,-84.28125,151.21875,7.625,0.0,0.0,0.0,772
1695397015710,-0.9267578,-0.07519531,0.64746094,-47.375,95.5,44.375,0.0,0.0,0.0,773
1695397015750,-0.5029297,-0.2890625,-0.11230469,-46.09375,76.8125,57.84375,0.0,0.0,0.0,774
1695397015790,-0.2734375,-0.2890625,-0.25390625,-1.875,7.78125,43.875,0.0,0.0,0.0,775
