,timestamp,accel_x,accel_y,accel_z,gyro_x,gyro_y,gyro_z
0,1695569046827,0.1616211,0.020202637,-0.29449463,-21.734375,-52.5625,23.265625
1,1695569046873,-0.5559082,-0.62994385,-0.80010986,29.828125,-93.9375,-11.3125
2,1695569046916,1.7978516,-2.0,1.3158569,6.078125,60.921875,57.875
3,1695569046945,0.45947266,-1.6140747,-0.9456177,-108.859375,-30.125,-51.828125
4,1695569046991,-0.6772461,-1.6878052,-0.536438,-37.046875,-47.375,-50.96875
5,1695569047035,-0.07373047,-0.47686768,0.18377686,-32.546875,-5.171875,-3.453125
6,1695569047065,0.19384766,0.04168701,-0.03302002,-36.546875,-18.609375,38.671875
7,1695569047112,-0.58618164,1.2057495,0.08905029,-1.515625,-43.390625,-92.328125
8,1695569047141,-0.24902344,-0.1038208,-0.16558838,42.609375,20.4375,3.5625
9,1695569047186,0.44555664,-0.21832275,-0.0032348633,7.109375,29.765625,-1.09375
10,1695569047246,0.12890625,-0.317688,-0.6848755,38.8125,-39.40625,4.609375
11,1695569047261,-1.0427246,-2.0,-1.7610474,142.67188,20.625,15.328125
12,1695569047307,-1.1486816,-2.0,-0.04058838,-2.328125,38.296875,-85.3125
13,1695569047384,-1.1484375,-1.7068481,-0.21539307,-37.578125,139.01562,29.1875
14,1695569047393,0.106933594,-0.8074341,-0.6987915,-48.53125,113.0625,-45.5625
15,1695569047427,1.8500977,-0.23687744,0.12176514,-9.546875,50.34375,13.75
16,1695569047506,-0.20581055,0.9113159,-0.19732666,-12.03125,14.5625,13.96875
17,1695569047509,0.26416016,0.32855225,-0.2468872,12.1875,14.34375,-17.015625
18,1695569047577,0.7397461,-0.39874268,-0.26861572,4.640625,-15.453125,23.359375
19,1695569047579,0.1796875,-0.09454346,-0.6421509,16.4375,-62.671875,27.65625
20,1695569047653,-1.0239258,-2.0,-0.75201416,86.125,-15.578125,59.234375
21,1695569047670,-0.107666016,-2.0,-0.41070557,-58.671875,-28.8125,-24.953125
22,1695569047700,-0.51049805,-1.6619263,-0.4043579,-48.140625,-47.203125,-45.84375
23,1695569047757,0.13964844,-0.68829346,-0.055725098,-25.78125,-37.828125,-41.109375
24,1695569047773,-0.21484375,-0.427063,-0.12164307,-60.21875,-37.296875,44.328125
25,1695569047816,-0.30664062,0.8119507,0.039245605,-33.90625,-26.515625,-26.09375
26,1695569047862,-0.3322754,0.47161865,-0.002746582,31.828125,8.78125,-24.875
27,1695569047892,0.23266602,-0.15802002,-0.17193604,32.609375,24.78125,15.171875
28,1695569047939,0.5288086,-0.22247314,-0.5183716,25.890625,-29.234375,1.1875
29,1695569047984,-0.9433594,-1.2439575,-0.5540161,103.578125,-38.859375,8.5625
30,1695569048012,0.93066406,-2.0,0.5319214,10.359375,-11.59375,54.484375
31,1695569048057,-1.8081055,-2.0,-0.077941895,-2.921875,58.3125,-5.96875
32,1695569048088,-0.6052246,-0.83917236,-0.6067505,-19.8125,113.84375,2.890625
33,1695569048137,1.1674805,-0.66656494,-0.505188,-0.859375,64.203125,-2.203125
34,1695569048177,0.17822266,-0.13604736,0.011657715,-24.203125,22.734375,31.640625
35,1695569048206,-0.27954102,0.6322632,-0.36236572,-15.015625,22.484375,6.1875
36,1695569048252,0.5776367,0.31121826,-0.17242432,12.03125,16.171875,-15.734375
37,1695569048299,0.8376465,-0.2810669,-0.058410645,0.4375,-31.828125,34.015625
38,1695569048327,-0.15478516,-0.2649536,-0.80255127,33.890625,-93.65625,28.421875
39,1695569048373,-2.0,-2.0,0.447937,124.328125,55.203125,79.625
40,1695569048404,0.10107422,-1.9241333,-0.78741455,-52.296875,-36.625,-32.796875
41,1695569048448,-0.8942871,-1.3914185,-0.46905518,-25.28125,-70.171875,-80.53125
42,1695569048528,-0.1772461,-0.75006104,0.041931152,-34.0625,-35.390625,-13.515625
43,1695569048530,0.013183594,-0.3189087,-0.1572876,-57.984375,-13.203125,65.53125
44,1695569048570,-0.5073242,1.1403198,-0.02154541,-4.1875,-26.921875,-87.3125
45,1695569048627,-0.0625,0.1798706,-0.0869751,46.25,7.734375,5.90625
46,1695569048644,0.33032227,-0.06793213,0.04168701,21.0625,20.703125,11.3125
47,1695569048689,0.14477539,-0.3040161,-0.6939087,24.828125,-50.703125,-8.890625
48,1695569048718,-2.0,-2.0,-1.1087036,92.25,104.828125,7.8125
49,1695569048762,1.4731445,-2.0,0.054626465,26.140625,72.5625,11.5625
50,1695569048808,-1.4516602,-2.0,0.038269043,0.84375,77.609375,10.453125
51,1695569048839,-0.12182617,-0.38336182,-0.63409424,-1.3125,109.78125,0.140625
52,1695569048902,0.9194336,-0.21368408,-0.29815674,-18.25,62.140625,-4.625
53,1695569048928,0.14160156,0.2230835,-0.25494385,-14.4375,23.09375,14.71875
54,1695569048958,0.19897461,0.27166748,-0.28131104,6.453125,15.046875,-6.234375
55,1695569049004,0.67749023,-0.2341919,-0.055480957,3.375,-5.75,8.4375
56,1695569049034,0.38427734,0.10760498,-0.24468994,-12.1875,-32.84375,23.28125
57,1695569049077,-0.47021484,-0.66119385,-0.74957275,41.671875,-110.6875,13.234375
58,1695569049125,1.1848145,-2.0,1.385437,29.046875,-5.328125,36.71875
59,1695569049156,-0.1772461,-1.8418579,-0.567688,-57.0625,-63.8125,-29.6875
60,1695569049211,-0.90478516,-1.2149048,-0.40655518,-23.4375,-58.046875,-59.84375
61,1695569049241,0.07739258,-0.6951294,0.059265137,-36.328125,-18.359375,8.546875
62,1695569049287,0.1381836,-0.11578369,-0.062072754,-50.03125,-26.5625,30.46875
63,1695569049321,-0.4724121,1.0629272,0.0099487305,-20.171875,-16.78125,-48.390625
64,1695569049348,-0.072021484,0.3102417,-0.050598145,30.671875,3.25,-3.609375
65,1695569049392,0.44433594,-0.22320557,-0.06695557,23.5625,11.90625,8.90625
66,1695569049437,-0.13647461,-0.33111572,-0.8130493,46.828125,-52.640625,4.453125
67,1695569049469,-1.9980469,-2.0,-1.5274048,157.71875,76.515625,22.375
68,1695569049513,-0.40649414,-2.0,-0.61920166,-14.65625,31.359375,-38.703125
69,1695569049591,-1.5158691,-1.7339478,-0.0803833,-14.59375,97.34375,19.125
70,1695569049594,0.114746094,-0.7522583,-0.59381104,-6.0,113.140625,-2.390625
71,1695569049650,1.1745605,-0.4258423,-0.13995361,-24.171875,41.625,11.390625
72,1695569049662,-0.33374023,0.416687,-0.11431885,-24.59375,22.40625,15.796875
73,1695569049725,0.12158203,0.5211792,-0.38360596,3.375,23.125,-19.46875
74,1695569049755,0.8886719,-0.24713135,-0.19024658,4.265625,-1.125,8.859375
75,1695569049781,0.38891602,-0.190979,-0.12652588,-17.28125,-50.34375,36.515625
76,1695569049831,-0.52368164,-0.64508057,-1.0574341,47.25,-108.15625,6.609375
77,1695569049874,1.8120117,-2.0,1.1286011,25.515625,-25.015625,196.5625
78,1695569049902,0.18554688,-1.7156372,-0.8587036,-60.6875,-56.9375,-31.453125
79,1695569049952,-0.9851074,-1.4255981,-0.4397583,-34.84375,-62.359375,-62.421875
80,1695569049983,-0.13061523,-0.663147,0.10003662,-31.0625,-30.0625,-1.625
81,1695569050025,0.11352539,-0.20953369,-0.077941895,-51.5625,-6.375,36.609375
82,1695569050067,-0.35131836,0.88153076,0.11004639,-15.140625,-17.109375,-43.6875
83,1695569050097,-0.06982422,0.28167725,-0.0869751,25.546875,6.921875,-1.359375
84,1695569050159,0.46923828,-0.20465088,0.03387451,27.796875,21.78125,25.078125
85,1695569050204,0.13647461,-0.40264893,-0.72369385,34.71875,-54.5625,-6.359375
86,1695569050216,-2.0,-2.0,-0.4180298,65.40625,73.828125,17.0
87,1695569050260,-0.24023438,-2.0,-0.24884033,15.84375,35.609375,-9.859375
88,1695569050294,-1.5710449,-2.0,-0.10821533,-4.984375,95.71875,11.125
89,1695569050338,-0.16333008,-0.77838135,-0.6782837,-15.28125,113.28125,-1.25
90,1695569050381,1.2956543,-0.7241821,-0.3147583,0.109375,51.21875,14.21875
91,1695569050412,-0.095703125,0.24066162,-0.059631348,-14.515625,23.90625,24.21875
92,1695569050459,-0.10498047,0.65008545,-0.3538208,0.828125,27.046875,-17.0
93,1695569050501,0.9001465,-0.09649658,-0.15899658,-3.71875,9.796875,-13.734375
94,1695569050532,0.6262207,-0.40142822,-0.22906494,-10.28125,-55.0625,47.515625
95,1695569050582,-0.6374512,-1.2434692,-1.0332642,76.6875,-106.6875,16.109375
96,1695569050635,1.6398926,-1.3901978,0.5231323,-36.984375,-42.59375,-14.484375
97,1695569050651,-0.33422852,-1.9793091,-0.8069458,-53.84375,-74.515625,-40.296875
98,1695569050698,-0.5214844,-1.0628052,-0.37457275,-31.265625,-62.546875,-56.34375
99,1695569050729,-0.10107422,-0.59869385,0.030700684,-35.734375,-45.796875,2.265625
100,1695569050772,-0.1706543,-0.2366333,-0.06060791,-49.890625,-31.140625,31.171875
101,1695569050820,-0.56103516,1.12323,0.14593506,-31.953125,-15.0625,-53.796875
102,1695569050850,-0.07470703,0.25164795,-0.02545166,25.234375,2.890625,-13.453125
103,1695569050892,0.3972168,-0.20733643,0.03656006,22.03125,18.515625,6.546875
104,1695569050967,-0.08325195,-0.29718018,-0.9480591,54.34375,-58.453125,4.40625
105,1695569050970,-2.0,-2.0,-1.2351685,124.9375,77.3125,37.359375
106,1695569051013,-0.27954102,-2.0,-0.5059204,-17.375,21.421875,-19.671875
107,1695569051042,-1.652832,-2.0,0.011413574,-22.0625,80.15625,15.0625
108,1695569051088,0.17553711,-0.9204712,-0.55352783,-19.109375,115.59375,2.421875
109,1695569051133,1.0808105,-0.61602783,-0.13409424,3.1875,27.609375,11.703125
110,1695569051165,-0.17285156,0.070007324,0.042907715,-24.53125,11.28125,23.15625
111,1695569051209,-0.4128418,0.84906006,-0.3345337,1.3125,23.671875,-21.703125
112,1695569051253,0.7910156,-0.077697754,-0.14801025,5.328125,17.84375,-17.984375
113,1695569051302,0.7614746,-0.2630005,-0.45733643,-0.1875,-52.046875,44.078125
114,1695569051329,-0.4416504,-1.1160278,-0.8010864,40.546875,-97.40625,23.234375
115,1695569051359,1.8818359,-2.0,1.354187,27.015625,-82.734375,51.78125
116,1695569051404,-0.24169922,-1.5776978,-0.81915283,-53.46875,-37.84375,-18.0625
117,1695569051448,-0.5637207,-0.9951782,-0.32867432,-15.359375,-58.796875,-56.203125
118,1695569051477,-0.24804688,-0.7781372,0.22210693,-30.03125,-15.984375,21.5625
119,1695569051526,0.13427734,-0.07476807,0.046325684,-40.703125,-7.0,45.625
120,1695569051568,-0.48901367,0.7218628,0.15911865,-5.875,-13.703125,-30.125
121,1695569051599,-0.10522461,0.2501831,-0.046936035,20.96875,10.0,-10.546875
122,1695569051643,0.3618164,-0.19659424,0.10418701,9.765625,12.28125,13.625
123,1695569051688,-0.2475586,-0.52838135,-0.9907837,41.515625,-46.25,3.578125
124,1695569051716,-1.3071289,-2.0,-0.71759033,82.296875,69.078125,47.15625
125,1695569051763,-0.44482422,-2.0,-0.4541626,-17.171875,7.8125,-64.5625
126,1695569051793,-0.7150879,-1.9260864,-0.17706299,-20.671875,79.296875,55.1875
127,1695569051852,-0.013916016,-0.86187744,-0.46002197,-1.234375,87.34375,-5.609375
128,1695569051882,0.88256836,-0.41534424,0.06829834,-0.03125,27.578125,19.40625
129,1695569051912,-0.4086914,0.21209717,-0.023498535,17.765625,7.09375,28.703125
130,1695569051957,-0.16748047,0.3295288,-0.23028564,-10.53125,24.046875,-19.359375
131,1695569051988,0.7836914,-0.27252197,-0.044006348,-26.3125,13.625,-12.109375
132,1695569052033,0.38476562,-0.18096924,-0.36920166,-21.5625,-54.140625,27.40625
133,1695569052077,-0.52319336,-0.9614868,-1.2024536,56.640625,-91.453125,-9.6875
134,1695569052109,1.999939,-2.0,1.2267456,-38.15625,-4.296875,59.515625
135,1695569052153,-0.021972656,-1.9434204,-0.71417236,-50.625,-79.296875,-19.078125
136,1695569052195,-0.8383789,-1.3088989,-0.4121704,-39.890625,-31.375,-40.03125
137,1695569052228,0.09350586,-0.23028564,0.07904053,-37.28125,-7.625,-12.734375
138,1695569052278,-0.21948242,-0.3069458,0.026550293,-47.40625,-11.203125,44.203125
139,1695569052303,-0.21289062,0.6552124,0.0072631836,-14.671875,-2.484375,-23.40625
140,1695569052363,-0.07397461,0.21697998,0.0033569336,11.1875,12.015625,-29.921875
141,1695569052393,0.28320312,-0.11529541,0.10614014,12.125,18.40625,-10.5625
142,1695569052470,-0.44458008,-0.23443604,-0.77349854,50.1875,-61.328125,-16.390625
143,1695569052477,-1.1713867,-2.0,-0.059631348,110.5,70.9375,17.09375
144,1695569052528,-0.55908203,-2.0,-0.28253174,11.125,35.40625,-6.71875
145,1695569052542,-1.2058105,-2.0,-6.1035156e-05,-13.515625,71.671875,2.75
146,1695569052588,-0.08862305,-0.9439087,-0.41461182,-7.625,100.125,17.453125
147,1695569052648,0.8413086,-0.55670166,-0.22613525,1.21875,39.4375,6.359375
148,1695569052662,-0.16992188,-0.008605957,0.08074951,-7.71875,10.765625,26.78125
149,1695569052708,-0.3305664,0.590271,-0.38580322,0.984375,20.375,-17.90625
150,1695569052809,0.75,-0.0335083,-0.09259033,-12.578125,18.4375,-11.84375
151,1695569052816,0.54296875,-0.2979126,-0.15264893,-12.015625,-49.03125,38.734375
152,1695569052843,-0.42236328,-0.6387329,-1.0598755,60.859375,-99.171875,2.390625
153,1695569052870,0.5031738,-2.0,-0.538147,114.078125,-26.0,193.01562
154,1695569052919,-0.3071289,-2.0,-0.6157837,-40.96875,-70.578125,-22.3125
155,1695569052931,-0.52783203,-1.197815,-0.5772095,-48.890625,-31.234375,-29.75
156,1695569053024,-0.19897461,-0.5652466,0.18475342,-18.265625,-27.125,-4.3125
157,1695569053026,-0.19116211,-0.4680786,-0.023010254,-34.609375,-11.8125,61.78125
158,1695569053504,-0.24609375,0.66204834,0.03656006,-4.5,-4.34375,-26.96875
159,1695569053512,-0.14086914,0.2814331,-0.061340332,13.90625,12.65625,-25.90625
160,1695569053517,0.3701172,-0.10479736,-0.0178833,18.078125,14.40625,15.3125
161,1695569053522,-0.03100586,-0.8062134,-0.92633057,43.234375,-46.625,4.078125
162,1695569053527,-1.4379883,-2.0,-0.6062622,82.90625,72.03125,25.453125
163,1695569053531,-0.7458496,-2.0,-0.24517822,-41.609375,37.65625,-79.84375
164,1695569053536,-0.39526367,-1.6362915,-0.20465088,-12.96875,100.953125,52.515625
165,1695569053578,0.064941406,-0.95440674,-0.43218994,5.359375,86.109375,-14.4375
166,1695569053581,0.9863281,-0.4295044,0.031188965,-13.59375,24.875,13.828125
167,1695569053583,-0.5629883,0.32855225,-0.08453369,-5.4375,11.46875,22.796875
168,1695569053586,-0.21777344,0.49017334,-0.34552002,-14.265625,38.75,-28.84375
169,1695569053588,0.9020996,-0.41070557,-0.15289307,-21.8125,25.109375,-20.421875
170,1695569053735,0.5107422,-0.19195557,-0.35772705,-19.609375,-55.96875,43.3125
171,1695569053740,-0.4020996,-0.87457275,-1.015686,55.703125,-110.8125,-9.3125
172,1695569053788,1.999939,-2.0,1.3202515,18.5625,-87.453125,113.46875
173,1695569053791,0.024902344,-1.5750122,-0.7156372,-31.796875,-80.9375,-20.546875
174,1695569053793,-0.9926758,-1.1956177,-0.4133911,-47.6875,-18.921875,-39.96875
175,1695569053795,0.016601562,-0.22003174,0.10687256,-39.875,-0.9375,-16.234375
176,1695569053798,-0.22827148,-0.40338135,0.14251709,-40.234375,-7.453125,60.34375
177,1695569053817,-0.07495117,0.47528076,-0.054016113,-21.0625,2.25,-17.71875
178,1695569053847,-0.14013672,0.31219482,-0.06451416,6.84375,16.5625,-28.984375
179,1695569053908,0.40844727,-0.07086182,0.025817871,7.1875,9.03125,-7.234375
180,1695569053958,-0.1977539,-0.98223877,-0.9805298,69.796875,-45.859375,5.515625
181,1695569054013,-0.6813965,-2.0,-0.79766846,17.6875,-13.703125,34.703125
182,1695569054020,-0.4375,-1.9942017,-0.54693604,5.1875,24.140625,-36.09375
183,1695569054045,-0.9953613,-1.6687622,0.016540527,-12.828125,77.015625,16.296875
184,1695569054180,0.30151367,-0.81915283,-0.5894165,-0.84375,107.84375,10.5625
185,1695569054195,0.7109375,-0.36090088,-0.031066895,10.265625,17.5,14.5625
186,1695569054217,-0.3708496,0.14886475,-0.09283447,-3.5625,5.515625,25.921875
187,1695569054223,-0.28466797,0.28631592,-0.29229736,-6.5625,41.4375,-23.9375
188,1695569054240,0.98876953,-0.3098755,-0.04034424,-16.3125,22.140625,-4.09375
189,1695569054361,0.46264648,0.010437012,-0.5093384,-6.15625,-62.3125,25.4375
190,1695569054364,-0.59936523,-1.1570435,-0.6983032,68.09375,-84.21875,-3.546875
191,1695569054367,1.1728516,-2.0,1.0397339,19.6875,-58.109375,-17.046875
192,1695569054402,-0.35351562,-1.7749634,-0.4805298,-30.53125,-52.875,-21.171875
193,1695569054543,-0.5197754,-1.0515747,-0.47906494,-25.671875,-33.25,-42.15625
194,1695569054550,-0.20043945,-0.64312744,0.24871826,-21.515625,-24.265625,-0.921875
195,1695569054557,-0.15820312,-0.40582275,-0.074279785,-48.15625,-6.984375,46.765625
196,1695569054597,-0.16772461,0.40545654,0.016540527,-11.421875,5.640625,-26.9375
197,1695569054601,0.0073242188,0.42181396,-0.082092285,14.046875,1.65625,-18.078125
198,1695569054633,0.31103516,-0.13702393,0.02166748,28.34375,4.953125,2.984375
199,1695569055004,-0.26635742,-0.49273682,-0.79034424,37.890625,-55.328125,-4.0
200,1695569055034,-1.6896973,-2.0,-0.2720337,105.40625,81.234375,5.578125
201,1695569055043,-0.45458984,-2.0,-0.5515747,-6.078125,49.96875,1.109375
202,1695569055051,-0.9716797,-2.0,0.086364746,-10.25,78.53125,23.875
203,1695569055057,-0.11987305,-0.86187744,-0.49761963,-5.109375,99.25,6.09375
204,1695569055153,0.77319336,-0.5425415,-0.25811768,-8.53125,44.0,9.875
205,1695569055156,-0.03491211,-0.09893799,0.019470215,-1.703125,8.359375,27.59375
206,1695569055159,-0.47045898,0.6630249,-0.39508057,4.765625,14.203125,-8.296875
207,1695569055162,0.42382812,-0.16973877,-0.08331299,-13.78125,26.359375,-20.03125
208,1695569055197,0.84472656,-0.25494385,-0.5564575,-18.9375,-49.390625,19.8125
209,1695569055199,-0.1550293,-1.104065,-0.66412354,41.0,-114.78125,17.15625
210,1695569055202,1.0739746,-2.0,0.95233154,16.28125,-97.109375,-11.171875
211,1695569055204,-0.49536133,-1.4937134,-0.56695557,-17.53125,-35.0,-14.875
212,1695569055212,-0.47583008,-0.94195557,-0.3477173,-16.3125,-53.5625,-60.546875
213,1695569055257,-0.055419922,-0.77471924,0.1281128,-22.828125,-33.328125,3.390625
214,1695569055259,-0.2536621,-0.4902954,0.011169434,-43.296875,-18.578125,49.0
215,1695569055485,-0.14038086,0.47869873,0.020690918,-46.40625,9.203125,-28.671875
216,1695569055490,-0.05419922,0.47479248,0.06976318,20.84375,-3.734375,-10.921875
217,1695569055680,0.07006836,-0.062561035,0.08734131,22.953125,17.828125,-2.578125
218,1695569055726,-0.11279297,-0.58721924,-0.9463501,70.734375,-29.328125,-3.3125
219,1695569055735,-1.4750977,-2.0,-0.49786377,53.390625,70.03125,47.546875
220,1695569055741,-0.5058594,-2.0,-0.41607666,-11.640625,13.4375,-25.328125
221,1695569055756,-1.4677734,-1.9541626,0.10296631,-16.875,72.625,-1.75
222,1695569055761,0.056152344,-0.70098877,-0.53619385,-1.015625,104.328125,-5.609375
223,1695569055766,1.0100098,-0.7227173,-0.35699463,-18.78125,35.84375,18.890625
224,1695569055770,-0.118652344,0.1930542,-0.024963379,-13.140625,10.234375,23.125
225,1695569055775,-0.30419922,0.618103,-0.31378174,-8.328125,22.078125,-18.1875
226,1695569055778,0.7956543,-0.18780518,-0.2041626,-11.5,14.796875,-15.515625
227,1695569055949,0.70751953,-0.3711548,-0.28277588,9.625,-57.125,39.453125
228,1695569055956,-0.62939453,-1.4360962,-0.47125244,80.421875,-84.265625,32.140625
229,1695569055962,-0.21459961,-2.0,0.34661865,-26.5625,-59.515625,-31.34375
230,1695569055968,-0.3605957,-1.696106,-0.6831665,-53.0625,-3.109375,-10.46875
231,1695569055973,-0.20629883,-1.0945435,-0.13214111,-25.5625,-35.640625,-61.375
232,1695569055990,-0.24731445,-0.8115845,0.14569092,-21.984375,-42.90625,12.984375
233,1695569056053,-0.11230469,-0.33428955,-0.039611816,-37.71875,-15.53125,22.859375
234,1695569056056,-0.34960938,0.7128296,0.06536865,-29.359375,7.703125,-38.453125
235,1695569056097,0.06347656,0.6095581,-0.13189697,28.9375,6.875,-13.9375
236,1695569056127,0.18261719,-0.17242432,-0.06842041,40.65625,0.625,13.75
237,1695569056331,-0.10498047,-0.7515259,-0.7022095,56.8125,-19.65625,6.0
238,1695569056336,-1.4804688,-2.0,-0.8093872,60.484375,32.671875,14.03125
239,1695569056342,-0.6916504,-2.0,-0.37750244,-33.046875,25.859375,-26.390625
240,1695569056347,-1.0397949,-1.8526001,-0.07232666,-12.90625,84.609375,25.4375
241,1695569056350,-0.084228516,-1.0374146,-0.4085083,-21.875,92.046875,-10.515625
242,1695569056492,0.8598633,-0.54473877,-0.15509033,-15.671875,38.71875,12.1875
243,1695569056503,-0.31640625,0.038757324,-0.047180176,-18.46875,15.703125,24.375
244,1695569056508,-0.099365234,0.68670654,-0.43023682,-0.171875,24.21875,-18.09375
245,1695569056512,0.61083984,-0.0015258789,-0.26202393,4.265625,20.859375,-7.703125
246,1695569056623,0.8857422,-0.3928833,-0.2185669,-11.015625,-56.765625,46.484375
247,1695569056626,-0.4675293,-0.73809814,-0.8233032,28.484375,-121.421875,-2.46875
248,1695569056630,0.18164062,-2.0,-0.33380127,43.921875,-56.375,165.39062
249,1695569056698,-0.27685547,-1.8340454,-0.64678955,-62.984375,-15.25,-21.25
250,1695569056700,-0.8342285,-1.3406372,-0.2695923,-26.21875,-52.609375,-61.984375
251,1695569056767,-0.3581543,-1.0127563,0.18499756,-24.75,-36.0,-3.46875
252,1695569056774,-0.10083008,-0.62286377,-0.024963379,-53.859375,-4.5625,41.046875
253,1695569056878,-0.05102539,0.418396,0.19793701,-33.34375,0.0625,-30.09375
254,1695569056880,-0.1953125,0.79803467,-0.14459229,16.875,-4.796875,-39.046875
255,1695569056882,0.013427734,-0.09161377,-0.10211182,15.796875,28.125,9.546875
256,1695569056940,0.2529297,-0.33770752,-0.37701416,11.40625,1.1875,2.125
257,1695569056953,-0.4724121,-1.0308228,-0.33087158,97.875,-10.75,30.78125
258,1695569056996,-0.3972168,-2.0,-0.8064575,11.25,-49.78125,26.21875
259,1695569057120,-0.98876953,-2.0,-0.3098755,21.84375,27.109375,-44.234375
260,1695569057126,-0.67211914,-1.2998657,-0.4710083,-30.21875,88.59375,11.359375
261,1695569057132,0.72021484,-1.1548462,-0.5159302,15.625,53.3125,0.515625
262,1695569057194,-0.030029297,-0.53497314,0.1383667,-34.890625,16.0,15.484375
263,1695569057201,-0.3395996,0.29852295,-0.10821533,-23.546875,39.65625,-6.09375
264,1695569057270,0.25195312,0.5285034,-0.19415283,-13.15625,36.359375,-31.375
265,1695569057297,0.7590332,-0.124816895,-0.20147705,-0.328125,2.15625,4.578125
266,1695569057433,0.25854492,-0.14141846,-0.14141846,-17.421875,-29.375,21.265625
267,1695569057436,-0.32592773,-0.4649048,-1.1751099,42.796875,-90.34375,-0.765625
268,1695569057442,-0.57958984,-2.0,-1.4111938,51.734375,-11.140625,120.71875
269,1695569057444,-0.30395508,-2.0,-0.57818604,-61.9375,-66.59375,-28.640625
270,1695569057509,-0.7824707,-1.6089478,-0.43927002,-47.15625,-39.6875,-42.703125
271,1695569057904,-0.2541504,-0.67266846,-0.089904785,-21.484375,-48.609375,-48.609375
272,1695569057911,-0.48876953,-0.78253174,0.029724121,-34.578125,-33.796875,24.421875
273,1695569057918,-0.13208008,0.066345215,0.10784912,-59.15625,-2.15625,-18.640625
274,1695569058158,-0.1105957,0.8932495,0.03729248,-14.84375,3.234375,-61.328125
275,1695569058165,0.12866211,0.19281006,-0.022033691,1.671875,9.34375,-12.328125
276,1695569058173,0.3154297,-0.39508057,0.16375732,6.890625,-5.265625,2.28125
277,1695569058179,-0.34301758,-0.49493408,-1.1526489,61.453125,-78.71875,-31.296875
278,1695569058183,-1.6782227,-2.0,-1.7713013,38.671875,83.109375,66.078125
279,1695569058187,-0.10644531,-2.0,-0.44293213,-22.25,37.234375,-17.34375
280,1695569058190,-0.828125,-1.7644653,0.14935303,-13.71875,29.515625,12.234375
281,1695569058194,-0.018066406,-0.42559814,-0.20147705,-73.046875,36.65625,-23.109375
282,1695569058199,0.67529297,-0.22857666,-0.19561768,-0.96875,-46.25,-13.890625
283,1695569058204,0.0043945312,-0.47198486,-0.042785645,-11.671875,-72.125,15.796875
284,1695569058207,-0.53149414,-0.13922119,-0.09112549,-28.609375,-50.6875,-2.0
285,1695569058209,1.999939,-2.0,-1.2442017,93.03125,-218.4375,241.04688
286,1695569058210,0.15014648,-2.0,-0.5996704,-59.3125,-134.59375,-28.5
287,1695569058212,-0.26367188,-1.6885376,-0.4019165,-65.8125,-100.765625,-16.15625
288,1695569058271,0.2944336,-1.6472778,0.2033081,2.921875,-85.0,-14.078125
289,1695569058414,0.34155273,-1.6987915,-0.038391113,-27.5625,-134.71875,-29.734375
290,1695569058510,0.04321289,-0.62945557,-0.17510986,-45.578125,-142.3125,-49.109375
291,1695569058541,-0.19970703,0.14959717,-0.14385986,-25.65625,-115.515625,-29.078125
292,1695569058605,-0.1875,0.18841553,-0.042053223,-19.9375,-111.90625,-15.5
293,1695569058608,-0.11669922,0.23260498,-0.19146729,4.46875,-101.03125,-12.125
294,1695569058611,-0.017822266,-0.1194458,-0.43218994,25.265625,-106.21875,-16.109375
295,1695569058613,-0.22314453,-0.98101807,-0.5498657,62.5,-110.453125,12.359375
296,1695569058616,-0.5163574,-2.0,-0.2727661,53.40625,-82.453125,35.0
297,1695569058618,-0.3713379,-2.0,-0.37799072,-2.28125,-71.734375,-11.671875
298,1695569058649,-1.0004883,-1.8418579,-0.15679932,-5.625,-29.78125,2.8125
299,1695569058752,-0.37548828,-1.4072876,-0.013000488,-7.359375,7.296875,-1.421875
300,1695569058754,0.068847656,-0.7822876,-0.054992676,-15.734375,21.015625,3.140625
301,1695569058771,0.24267578,-0.04498291,-0.082092285,-9.234375,-2.5625,-11.640625
302,1695569058844,0.24804688,0.24554443,-0.33551025,-13.328125,-25.109375,-15.421875
303,1695569058847,0.73095703,0.11883545,-0.17803955,-24.90625,-61.21875,12.5
304,1695569058895,-0.16064453,-0.144104,-0.59869385,-27.484375,-95.40625,7.84375
305,1695569058932,-0.6052246,-1.8416138,-0.20269775,59.515625,-22.15625,27.25
306,1695569058961,0.59936523,-2.0,-0.13067627,-17.984375,-77.984375,-56.890625
307,1695569059021,0.65356445,-1.4841919,-0.35333252,-80.5625,-46.109375,-43.6875
308,1695569059085,0.050048828,-1.326477,-0.07891846,-13.375,-71.828125,-52.9375
309,1695569059088,-0.115478516,-0.68927,0.10784912,-15.96875,-51.75,-10.4375
310,1695569059143,0.048583984,-0.21783447,0.08074951,-17.46875,-38.96875,1.53125
311,1695569059157,-0.30371094,0.48358154,-0.04815674,3.265625,-23.578125,-20.234375
312,1695569059216,-0.0703125,0.539978,-0.16656494,0.40625,1.5625,-40.703125
313,1695569059248,0.25463867,-0.17242432,0.034118652,17.828125,-7.3125,-19.640625
314,1695569059308,-0.02319336,-0.47247314,-0.67144775,50.5,-31.515625,8.046875
315,1695569059322,-0.10620117,-2.0,-0.47979736,58.890625,-63.296875,26.640625
316,1695569059380,-0.56884766,-2.0,0.051208496,19.765625,-0.703125,-39.5
317,1695569059411,-0.8720703,-2.0,-0.20684814,-12.28125,62.96875,-15.421875
318,1695569059442,-0.3557129,-1.4016724,-0.48858643,-6.625,78.484375,-9.140625
319,1695569059505,0.63671875,-0.80718994,-0.18096924,-12.125,53.390625,19.265625
320,1695569059549,0.07324219,0.043395996,-0.18560791,-11.34375,26.078125,9.609375
321,1695569059563,0.1394043,0.46136475,-0.3225708,-7.4375,22.28125,-11.671875
322,1695569059590,0.55493164,0.1876831,-0.21636963,-4.78125,3.15625,-10.0625
323,1695569059640,0.5534668,-0.15753174,-0.089660645,-4.0625,-46.40625,30.390625
324,1695569059685,-0.1352539,-0.40631104,-0.71759033,27.15625,-91.859375,15.390625
325,1695569059712,0.31982422,-2.0,-1.4265747,159.875,-50.15625,184.32812
326,1695569059757,-0.21069336,-2.0,-0.6411743,-80.75,-22.0625,-44.5
327,1695569059788,-0.091552734,-1.5899048,-0.25006104,-13.265625,-50.875,-66.15625
328,1695569059837,-0.05493164,-0.78253174,0.14276123,-19.328125,-44.671875,-4.015625
329,1695569059893,0.03491211,-0.31744385,0.06585693,-38.515625,-43.1875,38.765625
330,1695569059906,-0.4333496,0.77948,0.11004639,-16.28125,-46.921875,-0.796875
331,1695569059952,-0.2512207,0.3463745,-0.09893799,29.84375,-3.15625,-19.046875
332,1695569060000,0.19921875,-0.16705322,-0.113098145,22.609375,15.828125,2.875
333,1695569060038,0.015625,-0.25006104,-0.6074829,19.859375,-31.1875,-0.484375
334,1695569060071,-0.6567383,-1.1524048,-0.5335083,116.953125,-12.34375,6.125
335,1695569060132,1.2470703,-2.0,0.0060424805,11.578125,16.421875,73.59375
336,1695569060148,-1.2561035,-2.0,-0.3040161,-4.125,55.296875,-9.765625
337,1695569060192,-0.68237305,-0.9175415,-0.56207275,-39.4375,109.578125,7.484375
338,1695569060222,0.857666,-0.5552368,-0.3633423,-17.65625,77.65625,8.875
339,1695569060267,0.33276367,-0.038635254,0.03314209,-10.40625,23.625,22.421875
340,1695569060311,-0.3371582,0.5009155,-0.31915283,-1.984375,12.8125,-7.078125
341,1695569060345,0.20532227,0.2033081,-0.06915283,-17.359375,25.765625,-21.8125
342,1695569060390,1.0720215,-0.26763916,-0.0869751,-12.5,-29.90625,33.34375
343,1695569060478,0.18847656,-0.3255005,-0.60650635,21.96875,-83.125,20.875
344,1695569060482,-2.0,-2.0,-1.2319946,192.51562,60.421875,17.03125
345,1695569060510,0.16577148,-2.0,-0.95806885,-44.640625,-45.9375,-56.421875
346,1695569060538,-0.8847656,-1.2156372,-0.38946533,-26.875,-45.453125,-54.90625
347,1695569060585,0.14257812,-0.9741821,0.017028809,-12.421875,-35.125,-25.203125
348,1695569060657,-0.30078125,-0.53253174,0.029968262,-40.0,-31.3125,45.75
349,1695569060675,-0.17749023,0.2531128,0.11859131,-38.640625,-20.3125,-8.875
350,1695569060705,-0.22607422,0.8903198,-0.08477783,-5.609375,-1.953125,-38.546875
351,1695569060747,0.07885742,0.043395996,-0.015197754,15.953125,28.03125,2.90625
352,1695569060792,0.31933594,-0.22515869,-0.36871338,32.15625,-19.765625,-1.296875
353,1695569060853,-0.8071289,-1.4907837,-0.60772705,114.25,-7.890625,24.046875
354,1695569060900,1.315918,-2.0,0.77630615,-33.859375,-26.578125,26.109375
355,1695569060908,-0.93969727,-2.0,-0.22613525,15.375,31.84375,-24.421875
356,1695569060956,-1.050293,-1.1975708,-0.0134887695,-28.9375,97.9375,7.65625
357,1695569061019,0.717041,-0.7788696,-0.6021118,6.0,100.234375,6.1875
358,1695569061022,0.71972656,-0.302063,0.08319092,-18.359375,23.125,14.09375
359,1695569061077,-0.20410156,0.28094482,-0.23980713,-19.640625,7.578125,7.015625
360,1695569061092,0.052001953,0.4569702,-0.17926025,-16.921875,33.984375,-23.46875
361,1695569061139,0.86621094,-0.07623291,-0.1651001,5.765625,-14.5,8.109375
362,1695569061228,0.16503906,-0.8491821,-0.93170166,64.875,-106.59375,46.96875
363,1695569061231,0.94433594,-2.0,1.3324585,-3.796875,-96.390625,-3.296875
364,1695569061259,-0.51708984,-1.8926392,-0.7647095,-40.015625,-54.453125,-15.875
365,1695569061291,-0.7055664,-1.2224731,-0.3423462,-51.390625,-32.546875,-58.390625
366,1695569061350,0.12841797,-0.80133057,0.044128418,-23.703125,-30.34375,-19.09375
367,1695569061377,-0.23461914,-0.50860596,-0.061584473,-25.75,-36.671875,55.921875
368,1695569061408,-0.15673828,0.08685303,0.2296753,-39.484375,-24.484375,15.84375
369,1695569061456,-0.3112793,0.7350464,-0.051574707,13.03125,-15.875,-32.953125
370,1695569061485,-0.06958008,0.0848999,-0.03765869,26.875,15.828125,12.75
371,1695569061527,0.0847168,-0.42218018,-0.89190674,64.484375,-21.65625,7.28125
372,1695569061572,-1.2253418,-2.0,-0.6975708,155.79688,38.71875,16.578125
373,1695569061622,0.28881836,-2.0,0.053649902,-7.125,32.296875,0.75
374,1695569061649,-1.567627,-2.0,-0.0335083,-3.546875,54.359375,5.75
375,1695569061707,-0.41796875,-0.6199341,-0.517395,-19.734375,110.0625,0.078125
376,1695569061720,0.5739746,-0.57525635,-0.22833252,21.140625,78.9375,16.28125
377,1695569061768,0.51049805,-0.09869385,0.0038452148,-8.765625,32.046875,27.171875
378,1695569061801,-0.17285156,0.3168335,-0.28277588,3.8125,17.4375,-0.75
379,1695569061844,0.39404297,-0.034240723,-0.14630127,-11.828125,26.5625,-14.703125
380,1695569061902,1.013916,-0.1494751,-0.2852173,-4.6875,-31.5,24.109375
381,1695569061933,-0.17700195,-0.9331665,-0.64385986,11.59375,-97.421875,25.5625
382,1695569061965,0.6166992,-2.0,0.9911499,-5.125,-81.921875,61.984375
383,1695569062053,-0.3605957,-1.7236938,-0.75177,-71.296875,3.03125,-8.640625
384,1695569062083,-0.53881836,-1.022522,-0.20904541,-40.828125,-26.796875,-80.6875
385,1695569062098,0.107421875,-0.7659302,0.31195068,-16.703125,-32.75,4.328125
386,1695569062112,-0.16210938,-0.48638916,0.055847168,-12.296875,-27.8125,61.140625
387,1695569062173,-0.30639648,0.46746826,0.15106201,-21.9375,-21.6875,-19.78125
388,1695569062202,-0.09057617,0.48065186,0.03704834,18.34375,5.5625,-21.9375
389,1695569062250,0.03930664,-0.03692627,-0.043518066,17.796875,24.09375,9.375
390,1695569062310,0.056884766,-0.4866333,-0.83184814,67.578125,-25.6875,7.359375
391,1695569062342,-1.3308105,-2.0,-0.54888916,115.6875,52.4375,15.5
392,1695569062354,-0.25830078,-2.0,-0.20684814,16.3125,23.375,3.578125
393,1695569062433,-1.451416,-1.9707642,0.062683105,-31.015625,72.84375,8.578125
394,1695569062440,-0.16674805,-0.74298096,-0.5117798,-24.546875,96.890625,-14.328125
395,1695569062487,0.8100586,-0.7593384,-0.2810669,-9.8125,59.359375,13.484375
396,1695569062550,0.0073242188,0.074645996,0.004333496,3.90625,21.328125,33.28125
397,1695569062552,-0.24731445,0.5140991,-0.3081665,-7.265625,18.4375,-11.28125
398,1695569062593,0.5144043,0.006286621,-0.18096924,-14.453125,30.765625,-24.640625
399,1695569062686,0.76000977,-0.26861572,-0.34649658,9.3125,-41.21875,24.484375
400,1695569062702,-0.23046875,-1.3982544,-0.93707275,53.6875,-110.203125,31.328125
401,1695569062713,0.6286621,-2.0,0.24920654,-39.109375,-62.34375,-33.25
402,1695569062741,-0.67456055,-1.8047485,-0.5840454,-67.28125,-33.515625,-30.203125
403,1695569062789,-0.23706055,-1.0752563,-0.27301025,-34.171875,-22.328125,-67.03125
404,1695569062834,-0.005126953,-0.5081177,0.0099487305,-32.046875,-43.234375,13.140625
405,1695569062863,-0.265625,-0.4031372,0.066589355,-35.5625,-37.84375,44.890625
406,1695569062906,-0.40966797,0.46820068,0.20916748,-32.3125,-16.984375,-14.875
407,1695569062951,-0.0017089844,0.4328003,-0.0025024414,17.640625,4.703125,-9.796875
408,1695569062984,0.11816406,-0.00030517578,0.049743652,27.109375,7.15625,1.921875
409,1695569063030,-0.09814453,-0.79351807,-1.0078735,98.046875,-30.40625,12.90625
410,1695569063058,-0.10449219,-2.0,-1.2993774,-21.265625,-42.203125,51.8125
411,1695569063134,-0.5932617,-2.0,-0.7151489,-14.3125,4.34375,-16.21875
412,1695569063148,-1.0246582,-1.2129517,-0.061584473,-39.625,97.296875,12.6875
413,1695569063182,0.18115234,-0.78204346,-0.47979736,5.046875,101.515625,-13.65625
414,1695569063224,1.0861816,-0.51812744,-0.2744751,-18.34375,18.671875,28.671875
415,1695569063284,-0.33081055,0.20281982,-0.13995361,-5.671875,6.953125,11.578125
416,1695569063298,-0.3486328,0.2970581,-0.25616455,-13.828125,42.375,-23.046875
417,1695569063341,0.9772949,-0.08721924,-0.2119751,-19.140625,13.578125,-16.40625
418,1695569063389,0.5131836,-0.07183838,-0.3135376,9.84375,-57.984375,31.3125
419,1695569063418,-0.76953125,-1.3877563,-0.62701416,31.84375,-57.53125,-10.15625
420,1695569063462,1.999939,-1.9116821,0.24066162,-61.375,-49.109375,-10.0625
421,1695569063493,-0.5402832,-1.6118774,-0.5071411,-56.203125,-61.765625,-25.703125
422,1695569063540,-0.49194336,-1.017395,-0.42388916,-38.625,-33.375,-44.34375
423,1695569063581,-0.044433594,-0.49908447,0.12884521,-32.3125,-19.1875,11.03125
424,1695569063613,0.0087890625,-0.3032837,-0.030090332,-28.890625,-20.21875,65.90625
425,1695569063658,-0.27685547,0.55218506,0.215271,-12.890625,-25.53125,-13.0
426,1695569063690,-0.22583008,0.31463623,-0.016174316,30.59375,-7.453125,-9.46875
427,1695569063734,0.036865234,-0.04034424,-0.047180176,20.265625,21.96875,4.796875
428,1695569063778,-0.07104492,-0.7559204,-0.897522,58.640625,-20.140625,-0.78125
429,1695569063807,-2.0,-2.0,-1.6990356,152.79688,89.90625,-26.359375
430,1695569063883,-0.36450195,-2.0,-0.69659424,-33.546875,13.9375,-46.703125
431,1695569063897,-1.1118164,-1.5447388,0.07147217,-13.484375,106.796875,32.046875
432,1695569063928,-0.29589844,-0.56085205,-0.550354,-6.71875,91.359375,-24.375
433,1695569063987,1.098877,-0.6929321,-0.4661255,-13.765625,66.828125,60.90625
434,1695569064018,0.025878906,0.10882568,0.09197998,-3.5625,2.59375,5.640625
435,1695569064047,-0.3515625,0.3456421,-0.26885986,2.09375,16.046875,-14.359375
436,1695569064109,0.4128418,0.05340576,-0.16265869,-19.5,16.828125,-6.125
437,1695569064139,0.90625,-0.13360596,-0.4060669,9.15625,-43.359375,20.4375
438,1695569064166,-0.18945312,-1.2661743,-0.5071411,30.703125,-89.296875,15.75
439,1695569064262,0.29833984,-1.9302368,0.18548584,-24.890625,-105.953125,-51.5625
440,1695569064270,-0.7961426,-1.2954712,-0.5718384,-46.578125,-47.203125,-21.0
441,1695569064289,-0.4868164,-0.8665161,-0.4961548,-9.703125,-39.484375,-60.171875
442,1695569064320,-0.01928711,-0.76275635,0.14251709,-31.203125,-18.609375,24.8125
443,1695569064366,0.025390625,-0.33135986,-0.031555176,-38.0,-15.078125,61.203125
444,1695569064409,-0.1821289,0.50115967,0.21722412,-16.609375,-16.3125,-34.4375
445,1695569064436,-0.2614746,0.4039917,0.0065307617,24.59375,-8.015625,-10.640625
446,1695569064484,0.026611328,-0.11602783,-0.17071533,11.34375,28.015625,5.65625
447,1695569064529,0.059326172,-0.77667236,-0.909729,61.640625,-20.71875,18.515625
448,1695569064558,-0.4482422,-2.0,-2.0,73.578125,-23.234375,75.8125
449,1695569064603,-0.2861328,-1.9607544,-0.5195923,-13.140625,-14.546875,-26.015625
450,1695569064633,-1.3918457,-1.4575806,0.021911621,-33.46875,83.828125,4.28125
451,1695569064677,-0.020263672,-0.6123657,-0.538147,-6.0,98.84375,-9.703125
452,1695569064725,1.2209473,-0.81866455,-0.4373169,-24.53125,27.453125,27.546875
453,1695569064771,-0.36791992,0.3390503,-0.06500244,-0.125,5.546875,12.921875
454,1695569064814,-0.15258789,0.31414795,-0.29083252,-25.765625,29.234375,-26.21875
455,1695569064872,0.8796387,-0.13018799,-0.15289307,-9.4375,6.265625,-12.734375
456,1695569064877,0.35424805,-0.2234497,-0.37286377,17.90625,-48.90625,34.796875
457,1695569064916,-0.67749023,-2.0,-0.364563,70.765625,-23.53125,33.703125
458,1695569064967,-0.53149414,-2.0,0.046813965,-8.578125,-53.296875,-28.515625
459,1695569064992,-0.6948242,-1.6655884,-0.55255127,-69.875,-16.375,-19.609375
460,1695569065050,-0.20385742,-1.0586548,-0.16461182,-21.015625,-34.578125,-59.390625
461,1695569065067,-0.21679688,-0.8164673,0.184021,-29.421875,-47.09375,28.328125
462,1695569065118,-0.23803711,-0.47735596,-0.014221191,-39.890625,-25.453125,41.03125
463,1695569065172,-0.34594727,0.5097046,0.15667725,-31.765625,-8.96875,-27.953125
464,1695569065204,0.07080078,0.5709839,-0.026428223,21.46875,1.84375,-10.671875
465,1695569065232,0.12646484,-0.13873291,0.009216309,36.015625,5.734375,17.53125
466,1695569065276,-0.1652832,-0.9553833,-1.0747681,62.546875,-11.78125,12.234375
467,1695569065307,-1.0031738,-2.0,-1.9695435,7.484375,0.078125,11.734375
468,1695569065351,-0.4375,-1.991272,-0.77130127,-55.5625,30.96875,-40.28125
469,1695569065384,-1.1179199,-1.6016235,0.029724121,-21.296875,87.078125,36.75
470,1695569065427,-0.24047852,-0.55255127,-0.48687744,5.03125,96.515625,-28.5
471,1695569065488,1.1384277,-0.68951416,-0.45635986,-2.203125,51.234375,43.765625
472,1695569065517,-0.15722656,0.012878418,-0.0037231445,-6.78125,5.796875,21.4375
473,1695569065566,-0.38427734,0.45233154,-0.27227783,-7.84375,35.9375,-15.125
474,1695569065611,0.66064453,0.05682373,-0.14849854,-7.671875,33.671875,-16.546875
475,1695569065626,0.7336426,-0.18145752,-0.47076416,10.46875,-35.390625,24.71875
476,1695569065668,-0.4272461,-1.1758423,-0.8533325,19.34375,-93.0625,-8.296875
477,1695569065698,1.999939,-2.0,1.4213257,-74.15625,-143.1875,28.890625
478,1695569065756,-0.47485352,-1.4724731,-0.73931885,-57.046875,-59.390625,-36.359375
479,1695569065787,-0.98291016,-1.0947876,-0.21368408,-19.15625,-65.28125,-84.1875
480,1695569065819,0.060546875,-0.83477783,0.26654053,-42.59375,-18.5625,28.171875
481,1695569065925,0.13110352,-0.1843872,-0.2029419,-46.71875,-23.265625,61.65625
482,1695569065928,-0.22851562,0.8209839,0.10662842,-9.1875,-37.015625,-60.34375
483,1695569065939,-0.118896484,0.2662964,0.0053100586,22.875,-1.59375,-3.4375
484,1695569065982,0.12841797,0.013122559,0.086364746,19.34375,16.5,25.984375
485,1695569066013,-0.07104492,-0.37945557,-0.833313,40.0625,-28.015625,-11.34375
486,1695569066061,-1.9746094,-2.0,-0.5835571,102.046875,109.6875,27.703125
487,1695569066104,-0.052001953,-2.0,-0.46881104,30.078125,42.78125,-33.828125
488,1695569066133,-1.7497559,-2.0,0.06365967,3.9375,67.75,-5.40625
489,1695569066213,-0.2944336,-0.8640747,-0.5042114,-19.5625,105.890625,-2.921875
490,1695569066300,0.9938965,-0.74884033,-0.25811768,-0.40625,68.28125,-2.703125
491,1695569066306,0.05102539,0.08294678,-0.049865723,-11.5625,12.203125,32.703125
492,1695569066313,-0.20092773,0.715271,-0.3904419,-14.84375,24.484375,-15.3125
493,1695569066327,0.59643555,0.04901123,-0.12384033,-1.1875,25.65625,-25.140625
494,1695569066373,0.66015625,-0.43048096,-0.051818848,-1.875,-34.390625,34.796875
495,1695569066433,-0.12915039,-0.8545532,-0.8069458,50.375,-104.78125,20.359375
496,1695569066446,1.5415039,-2.0,0.13348389,-7.25,-77.515625,78.859375
497,1695569066495,-0.5041504,-2.0,-0.75738525,-35.953125,-66.453125,-12.21875
498,1695569066538,-0.84765625,-1.4177856,-0.30596924,-58.421875,-27.578125,-54.4375
499,1695569066568,0.13256836,-0.7605591,0.12200928,-31.09375,-25.640625,-11.546875
500,1695569066613,-0.39819336,-0.59039307,-0.0056762695,-37.828125,-27.71875,55.296875
501,1695569066644,0.041748047,0.23016357,0.13250732,-44.921875,-17.90625,-2.0
502,1695569066688,-0.057128906,0.8451538,-0.10650635,17.5625,-17.671875,-25.46875
503,1695569066733,0.024658203,0.12835693,0.010681152,31.671875,4.15625,0.75
504,1695569066763,-0.008544922,-0.53912354,-0.82354736,64.890625,-31.59375,5.828125
505,1695569066809,-1.425293,-2.0,-0.37994385,122.46875,46.578125,33.4375
506,1695569066868,-0.62939453,-2.0,-0.2888794,14.765625,8.859375,-2.640625
507,1695569066882,-1.1938477,-2.0,-0.16339111,-11.46875,73.359375,-18.0
508,1695569066928,-0.44750977,-0.76397705,-0.48345947,-6.90625,109.8125,2.640625
509,1695569066957,0.9394531,-0.86309814,-0.40289307,5.0,63.15625,2.921875
510,1695569067005,0.04638672,-0.006164551,0.09613037,-15.796875,5.796875,27.078125
511,1695569067049,-0.44555664,0.4779663,-0.37579346,-5.875,32.921875,-15.0625
512,1695569067078,0.7084961,0.035827637,-0.18365479,-12.515625,42.546875,-28.328125
513,1695569067124,1.010498,-0.23956299,-0.2078247,4.828125,-33.65625,39.640625
514,1695569067167,-0.16333008,-0.5701294,-0.9133911,40.40625,-117.21875,20.65625
515,1695569067197,0.50756836,-2.0,0.52386475,49.078125,-113.75,102.1875
516,1695569067246,-0.45922852,-1.942688,-0.68414307,-65.609375,-41.046875,-18.9375
517,1695569067273,-0.6845703,-1.3469849,-0.4102173,-11.109375,-57.4375,-69.71875
518,1695569067317,0.035888672,-1.0542603,0.22064209,-28.4375,-34.21875,-11.0
519,1695569067379,-0.22949219,-0.5042114,-0.12213135,-45.71875,-21.296875,51.734375
520,1695569067391,-0.36865234,0.7807007,0.101989746,-37.0625,-10.84375,-32.875
521,1695569067437,0.17944336,0.40081787,-0.044006348,28.796875,7.265625,-21.59375
522,1695569067483,0.15551758,0.018981934,-0.08502197,31.828125,8.359375,31.03125
523,1695569067511,0.039794922,-0.3237915,-0.50177,43.859375,-39.6875,-3.546875
524,1695569067555,-1.1660156,-1.6929321,-0.58135986,102.28125,11.3125,-1.421875
525,1695569067587,1.1452637,-2.0,0.19598389,2.828125,26.703125,97.640625
526,1695569067632,-1.4824219,-2.0,-0.01373291,12.78125,37.265625,-8.140625
527,1695569067677,-0.7421875,-0.7698364,-0.5081177,-25.1875,100.28125,1.921875
528,1695569067711,0.80249023,-0.9151001,-0.19952393,11.203125,78.90625,3.890625
529,1695569067752,0.5986328,-0.30889893,-0.06890869,-10.40625,5.8125,33.015625
530,1695569067798,-0.39819336,0.48358154,-0.25201416,-14.59375,20.671875,-10.171875
531,1695569067841,0.2319336,0.31097412,-0.1687622,-18.5625,36.078125,-22.921875
532,1695569067871,1.4436035,-0.32720947,-0.35699463,10.734375,-37.0,41.03125
533,1695569067902,0.055664062,-0.71539307,-0.56256104,25.875,-122.09375,37.375
534,1695569067978,0.099365234,-2.0,1.1473999,9.390625,-130.5625,50.15625
535,1695569067992,-0.6965332,-2.0,-0.5029907,-82.25,9.65625,-25.96875
536,1695569068025,-0.15161133,-1.2097778,-0.10455322,20.390625,-34.78125,-73.9375
537,1695569068068,-0.12841797,-0.92633057,0.08294678,-38.453125,-42.484375,6.390625
538,1695569068126,-0.08862305,-0.39141846,-0.032287598,-55.78125,-25.765625,52.328125
539,1695569068141,-0.52124023,0.92767334,0.085632324,-34.6875,-23.4375,-23.96875
540,1695569068206,-0.1328125,0.3895874,-0.035461426,15.40625,17.046875,-24.171875
541,1695569068218,0.16455078,-0.18170166,-0.015930176,23.59375,26.640625,5.125
542,1695569068262,0.07324219,-0.38458252,-0.6651001,58.765625,-23.734375,2.15625
543,1695569068306,-1.1564941,-2.0,-0.09063721,124.0625,33.984375,47.171875
544,1695569068338,-0.8625488,-2.0,-0.175354,11.15625,-4.671875,-33.9375
545,1695569068381,-1.4758301,-2.0,-0.11651611,-11.015625,79.859375,4.359375
546,1695569068427,-0.1862793,-0.835022,-0.6001587,-6.03125,124.515625,6.265625
547,1695569068458,1.1970215,-0.84698486,-0.41705322,0.09375,55.75,1.078125
548,1695569068505,-0.059326172,0.074645996,0.058776855,-14.140625,0.015625,31.875
549,1695569068546,-0.51586914,0.8695679,-0.3303833,-4.734375,29.6875,-16.859375
550,1695569068576,0.50341797,0.09124756,-0.109436035,-7.640625,38.046875,-33.59375
551,1695569068620,1.2087402,-0.4553833,-0.24786377,3.390625,-33.015625,54.4375
552,1695569068651,0.0009765625,-0.7185669,-1.1592407,38.515625,-125.03125,41.953125
553,1695569068697,0.66552734,-2.0,1.007019,23.0625,-99.109375,79.953125
554,1695569068741,-0.59228516,-2.0,-0.6514282,-43.828125,-70.546875,-19.734375
555,1695569068771,-0.529541,-1.347229,-0.5432739,-42.96875,-41.0625,-44.375
556,1695569068816,-0.10888672,-0.9553833,0.24676514,-24.09375,-44.28125,-8.453125
557,1695569068862,-0.18066406,-0.56817627,0.012390137,-31.171875,-28.46875,44.671875
558,1695569068891,-0.38598633,0.2838745,0.152771,-36.546875,-10.03125,-5.515625
559,1695569068938,0.025146484,0.930603,-0.16217041,8.5,9.53125,-34.453125
560,1695569068969,0.25024414,0.13250732,-0.04449463,24.015625,6.78125,14.328125
561,1695569069014,0.047851562,-0.4644165,-0.6511841,31.078125,-28.0,1.84375
562,1695569069056,-0.8564453,-1.7107544,-0.45098877,111.40625,2.109375,5.328125
563,1695569069088,0.23046875,-2.0,0.19647217,2.515625,19.515625,30.109375
564,1695569069146,-1.1699219,-2.0,-0.128479,12.84375,59.75,22.125
565,1695569069210,-0.66381836,-0.7329712,-0.5039673,-52.21875,108.265625,-12.15625
566,1695569069216,0.56884766,-1.0757446,-0.14190674,47.96875,70.953125,11.625
567,1695569069268,0.5078125,-0.40948486,-0.21710205,-28.4375,22.609375,32.953125
568,1695569069281,-0.39038086,0.572937,-0.12774658,-14.625,28.40625,-12.375
569,1695569069328,-0.05908203,0.5553589,-0.19439697,-23.78125,39.0,-26.609375
570,1695569069372,1.3481445,-0.35968018,-0.19805908,-4.140625,-28.0,22.5
571,1695569069402,0.23461914,-0.31524658,-0.4277954,26.625,-83.75,22.75
572,1695569069450,-2.0,-2.0,-0.79107666,210.98438,92.0,-49.96875
573,1695569069529,-0.2175293,-1.8191528,-0.678772,-7.90625,-40.03125,-33.546875
574,1695569069535,-1.0148926,-1.5054321,-0.39068604,-59.296875,-27.171875,-41.125
575,1695569069566,0.18554688,-0.93585205,-0.008117676,-31.5,-25.46875,-53.484375
576,1695569069599,-0.27954102,-0.69610596,-0.081604004,-27.59375,-29.546875,58.96875
577,1695569069643,0.015625,-0.0960083,0.14349365,-62.40625,-2.609375,14.890625
578,1695569069687,-0.19335938,1.0490112,-0.086242676,-8.859375,-15.40625,-45.40625
579,1695569069718,-0.17626953,0.2814331,0.03314209,27.90625,14.265625,-0.234375
580,1695569069765,0.17236328,-0.27838135,-0.3604126,26.859375,14.328125,9.609375
581,1695569069836,-0.45629883,-1.2910767,-0.47930908,105.125,0.9375,21.9375
582,1695569069843,0.20825195,-2.0,0.013366699,-29.203125,-71.703125,26.390625
583,1695569069915,-0.83862305,-2.0,-0.3303833,16.890625,21.0,-4.0625
584,1695569069920,-1.2011719,-1.1382446,-0.036193848,-16.421875,88.578125,-3.34375
585,1695569069973,0.53564453,-0.7319946,-0.4907837,26.640625,85.453125,-13.40625
586,1695569070004,0.7463379,-0.61798096,-0.23712158,-32.140625,13.109375,36.65625
587,1695569070031,-0.25219727,0.2514038,-0.07110596,-4.390625,13.140625,4.1875
588,1695569070092,-0.0715332,0.4244995,-0.20196533,-28.34375,34.140625,-25.1875
589,1695569070122,0.8964844,-0.08013916,-0.12701416,-1.609375,-6.890625,2.375
590,1695569070152,0.2919922,-0.46246338,-0.54937744,50.203125,-66.109375,36.5625
591,1695569070195,-1.7275391,-2.0,-0.5552368,99.609375,62.140625,-14.1875
592,1695569070229,-0.79345703,-2.0,-0.44805908,-25.375,-64.578125,-10.875
593,1695569070289,-0.9699707,-1.5410767,-0.3320923,-72.203125,-17.34375,-44.875
594,1695569070317,0.17504883,-0.79937744,0.018737793,-22.15625,-32.671875,-58.828125
595,1695569070347,-0.33422852,-0.6746216,0.032165527,-26.0625,-50.140625,52.203125
596,1695569070393,-0.21289062,-0.33843994,0.046081543,-51.5,-23.1875,16.90625
597,1695569070437,-0.16796875,0.8397827,-0.034484863,-12.5,-6.53125,-31.546875
598,1695569070469,0.016113281,0.40838623,-0.024963379,24.546875,5.4375,-5.53125
599,1695569070511,0.19384766,-0.21392822,-0.28546143,35.609375,-7.84375,15.890625
600,1695569070543,-0.40039062,-1.2200317,-0.6021118,107.765625,-2.796875,36.84375
601,1695569070588,0.1508789,-2.0,-0.23321533,3.671875,-54.515625,42.921875
602,1695569070632,-1.3278809,-2.0,-0.55133057,-12.734375,15.5,-15.671875
603,1695569070665,-1.1838379,-1.1343384,-0.10772705,-33.796875,109.0,27.609375
604,1695569070708,0.33862305,-0.8562622,-0.31427002,14.5,84.34375,-23.625
605,1695569070755,0.75341797,-0.5696411,-0.34039307,-11.09375,33.5,25.109375
606,1695569070782,-0.2055664,0.1696167,-0.019836426,-19.484375,16.09375,10.71875
607,1695569070828,-0.18725586,0.5709839,-0.2144165,-15.5625,33.15625,-11.34375
608,1695569070860,0.77441406,-0.039611816,-0.21734619,5.375,17.984375,-23.5
609,1695569070901,0.56933594,-0.24664307,-0.40533447,-0.21875,-49.953125,34.859375
610,1695569070947,-0.58935547,-1.2161255,-0.55010986,39.359375,-81.234375,-11.765625
611,1695569070976,1.9404297,-2.0,0.6149292,-66.859375,-119.578125,11.40625
612,1695569071024,-0.6411133,-1.5083618,-0.44976807,-51.671875,-27.515625,-14.484375
613,1695569071067,-0.78930664,-1.1133423,0.12615967,-1.4375,-53.09375,-66.953125
614,1695569071097,-0.20629883,-0.90997314,0.1449585,-30.78125,-28.203125,18.984375
615,1695569071142,-0.109375,-0.22955322,-6.1035156e-05,-50.296875,-2.265625,28.921875
616,1695569071171,-0.067871094,0.8517456,0.04827881,-28.90625,-7.015625,-42.84375
617,1695569071220,0.15893555,0.32635498,-0.061584473,22.25,-1.625,-11.625
618,1695569071262,0.14282227,-0.19342041,-0.010070801,25.59375,-1.09375,16.15625
619,1695569071295,0.0017089844,-0.13482666,-0.60528564,32.375,-26.40625,-12.25
620,1695569071340,-1.1142578,-1.3128052,-0.55133057,105.546875,7.125,13.96875
621,1695569071385,0.5515137,-2.0,0.073913574,22.96875,-28.1875,105.8125
622,1695569071414,-1.3430176,-2.0,-0.2786255,14.421875,43.0,-45.40625
623,1695569071457,-0.4975586,-1.1311646,-0.4902954,-21.15625,89.9375,14.015625
624,1695569071494,0.5678711,-1.0454712,-0.15435791,1.796875,63.28125,13.8125
625,1695569071564,0.13745117,-0.31158447,-0.016174316,-18.4375,4.640625,28.546875
626,1695569071577,-0.40039062,0.69403076,-0.32598877,-22.5625,33.890625,-1.375
627,1695569071607,0.11401367,0.46575928,-0.21490479,-21.78125,59.4375,-39.125
628,1695569071653,0.95947266,-0.34796143,-0.23272705,-3.171875,4.203125,24.9375
629,1695569071702,0.37329102,-0.062072754,-0.39141846,-14.921875,-45.09375,20.15625
630,1695569071727,-0.6057129,-1.2671509,-1.008606,73.5,-97.4375,-2.859375
631,1695569071809,1.999939,-1.7173462,0.26971436,-87.109375,-91.796875,31.640625
632,1695569071812,-0.32348633,-1.6902466,-0.7752075,-33.390625,-90.296875,-20.03125
633,1695569071879,-0.90893555,-1.1721802,-0.16241455,-50.25,-39.625,-41.59375
634,1695569071892,-0.19873047,-0.51153564,0.050964355,-30.609375,-18.421875,-15.6875
635,1695569071922,-0.2536621,-0.61505127,0.093444824,-35.984375,-9.03125,45.609375
636,1695569071966,-0.1328125,0.37322998,0.024108887,-18.75,3.359375,-37.390625
637,1695569072013,-0.10229492,0.494812,-0.011291504,2.4375,22.375,-23.734375
638,1695569072044,0.24902344,0.058532715,-0.36505127,13.953125,3.375,6.671875
639,1695569072103,-0.40698242,-0.9915161,-0.2341919,91.40625,-38.234375,21.59375
640,1695569072132,-0.4230957,-2.0,-0.23248291,13.125,-63.9375,16.59375
641,1695569072163,-0.61035156,-1.8203735,-0.27349854,-6.375,4.78125,-6.046875
642,1695569072207,-1.0334473,-1.1150513,-0.06573486,-23.671875,74.953125,-5.59375
643,1695569072236,0.09277344,-0.62213135,-0.2144165,-0.5,67.375,-11.296875
644,1695569072285,0.51171875,-0.6428833,-0.28131104,-15.515625,19.015625,8.78125
645,1695569072328,-0.055419922,-0.13116455,-0.007385254,-15.40625,7.5,3.65625
646,1695569072380,-0.25341797,0.23504639,-0.17755127,-17.890625,28.296875,-15.359375
647,1695569072404,0.42895508,0.08441162,-0.33135986,-10.203125,11.53125,-25.921875
648,1695569072450,0.9650879,-0.7192993,-0.62384033,47.65625,-88.578125,19.140625
649,1695569072477,0.09838867,-2.0,-0.6992798,43.375,-35.265625,-21.921875
650,1695569072521,-0.9812012,-1.4727173,-0.3850708,-85.84375,-76.03125,-21.8125
651,1695569072553,-0.7011719,-0.3081665,-0.49591064,-75.25,-35.53125,-25.359375
652,1695569072601,0.2512207,-0.8858032,0.1876831,-0.234375,-48.40625,-42.734375
653,1695569072641,-0.36523438,-0.8599243,0.027282715,-38.0,-83.890625,27.546875
654,1695569072671,-0.4873047,-0.49542236,0.26483154,-33.515625,-65.359375,-36.640625
655,1695569072716,-0.4428711,0.18597412,0.050476074,-39.03125,-7.203125,-46.640625
656,1695569072763,0.18481445,0.4393921,-0.093322754,-23.609375,15.359375,-26.390625
657,1695569072793,0.28466797,-0.2649536,-0.41607666,3.859375,-67.40625,-1.3125
658,1695569072853,-0.10620117,-2.0,-1.6497192,193.53125,-90.8125,157.65625
659,1695569072868,-0.68310547,-2.0,0.3944702,-26.90625,-100.6875,-62.21875
660,1695569072914,-0.7421875,-1.4981079,0.29119873,-26.34375,-18.890625,34.1875
661,1695569072956,-0.7541504,-0.13214111,-0.20806885,-60.640625,3.53125,-30.59375
662,1695569072986,0.9226074,-0.4824829,-0.24224854,-36.28125,-22.59375,25.921875
663,1695569073032,0.43896484,-0.7671509,-0.33306885,-12.4375,-73.625,37.8125
664,1695569073087,-0.033447266,-0.12579346,-0.12554932,-20.0625,-92.953125,-26.078125
665,1695569073109,-0.18579102,0.08441162,-0.31573486,0.453125,-75.453125,-4.0625
666,1695569073152,1.4702148,-2.0,-1.0588989,51.40625,-110.734375,100.609375
667,1695569073198,0.48242188,-2.0,-0.1663208,-19.8125,-129.89062,-43.171875
668,1695569073228,-0.20825195,-1.7195435,0.053894043,-40.078125,-102.046875,-34.4375
669,1695569073274,-0.54052734,-0.97857666,0.19622803,-54.921875,-118.015625,-53.5
670,1695569073302,0.3869629,-0.8579712,0.07977295,-25.015625,-96.796875,-38.671875
671,1695569073348,0.3088379,-0.1506958,-0.03765869,-25.28125,-110.21875,-7.546875
672,1695569073392,-0.33496094,0.24627686,-0.12530518,-6.171875,-94.640625,-33.90625
673,1695569073423,-0.11767578,0.113220215,-0.20050049,4.125,-68.625,-33.28125
674,1695569073467,0.04248047,-0.36920166,-0.27642822,37.234375,-86.171875,-4.5625
675,1695569073497,-0.61572266,-1.8535767,-0.8526001,74.125,-74.328125,26.140625
676,1695569073541,-0.2409668,-2.0,-0.10015869,41.84375,-69.109375,7.890625
677,1695569073623,-0.46289062,-2.0,-0.395813,14.328125,-55.59375,17.890625
678,1695569073632,-0.40649414,-1.5593872,0.0045776367,-14.953125,-33.546875,-28.734375
679,1695569073697,-0.1003418,-1.029602,-0.07940674,-25.46875,13.8125,14.3125
680,1695569073712,0.08081055,-0.07232666,-0.061340332,-12.34375,-4.53125,8.453125
681,1695569073737,0.30029297,0.16693115,-0.43267822,-6.09375,-26.234375,-8.421875
682,1695569073796,0.4399414,0.090026855,-0.22174072,-18.328125,-46.171875,-0.046875
683,1695569073812,0.14379883,-0.16290283,-0.40338135,-36.125,-81.515625,0.171875
684,1695569073858,0.35351562,-1.9907837,-0.23980713,-63.25,-104.125,64.171875
685,1695569073904,-0.34204102,-2.0,-0.1350708,5.421875,-63.609375,-18.59375
686,1695569073931,0.37768555,-1.5178833,-0.44195557,-70.03125,-42.59375,-41.515625
687,1695569073979,0.18554688,-1.2354126,0.0138549805,5.53125,-52.78125,-29.328125
688,1695569074024,-0.18188477,-0.8057251,0.17572021,5.296875,-40.34375,2.234375
689,1695569074052,-0.13964844,-0.09039307,0.33221436,-3.0,-36.15625,14.296875
690,1695569074113,-0.5280762,0.68499756,-0.109680176,17.71875,-21.25,-23.171875
691,1695569074127,0.050048828,0.19793701,-0.049621582,26.84375,-1.046875,-23.0
692,1695569074172,-0.09057617,-0.25982666,0.078308105,12.765625,-4.15625,-9.796875
693,1695569074216,-0.008056641,-0.80303955,-0.56378174,48.921875,2.46875,8.921875
694,1695569074247,-0.0061035156,-2.0,-1.2505493,83.171875,-12.796875,10.5625
695,1695569074292,0.4753418,-2.0,-0.53912354,-2.609375,25.140625,-47.9375
696,1695569074340,-0.3671875,-1.7229614,-0.4697876,-36.53125,59.359375,1.625
697,1695569074373,-0.18041992,-0.7949829,-0.31573486,-17.234375,72.109375,-0.90625
698,1695569074410,0.36791992,-0.3110962,-0.14508057,-2.09375,51.296875,22.40625
699,1695569074443,0.06591797,0.4100952,-0.046447754,1.015625,24.796875,2.609375
700,1695569074486,0.2006836,0.28240967,-0.20465088,-28.125,5.921875,-18.53125
701,1695569074535,0.5895996,-0.38848877,-0.04498291,-37.0625,-24.1875,4.171875
702,1695569074562,-0.005859375,-0.597229,-0.7522583,21.4375,-60.046875,6.0
703,1695569074607,0.8039551,-2.0,-1.508606,70.71875,0.59375,36.484375
704,1695569074653,0.5197754,-1.8233032,-0.6553345,-47.203125,-58.484375,-34.0
705,1695569074682,-0.2841797,-1.5779419,-0.44415283,-61.625,-48.40625,-35.203125
706,1695569074727,-0.010253906,-0.71661377,0.0836792,-21.296875,-29.0625,-17.390625
707,1695569074759,-0.33911133,-0.36798096,0.070251465,-36.140625,-29.984375,24.0
708,1695569074806,-0.44433594,0.5258179,0.07196045,-28.921875,-6.21875,-2.21875
709,1695569074863,-0.04248047,0.47332764,-0.17510986,15.0,15.859375,-41.65625
710,1695569074878,0.37231445,-0.1519165,0.093688965,15.484375,4.484375,-12.375
711,1695569074923,-0.040283203,-0.26593018,-0.72735596,40.59375,-63.609375,-8.15625
712,1695569074967,-1.0983887,-1.9146118,-0.42803955,156.82812,46.046875,24.625
713,1695569074997,-0.109375,-2.0,-0.18389893,22.375,45.65625,10.875
714,1695569075044,-1.2167969,-2.0,-0.5003052,-16.078125,76.71875,-8.140625
715,1695569075073,-0.13427734,-1.125061,-0.53302,-20.4375,120.8125,29.3125
716,1695569075136,0.8071289,-0.52545166,-0.2456665,6.21875,46.78125,2.625
717,1695569075162,0.041503906,0.15838623,0.09613037,-0.5625,13.765625,21.34375
718,1695569075191,-0.38354492,0.56048584,-0.3604126,-4.84375,14.71875,-2.09375
719,1695569075237,0.64697266,-0.06768799,-0.028625488,-22.40625,30.8125,-22.109375
720,1695569075314,0.6464844,-0.300354,-0.13043213,-17.34375,-40.84375,23.59375
721,1695569075317,-0.3251953,-0.7300415,-0.98809814,48.265625,-87.71875,1.046875
722,1695569075386,1.999939,-2.0,1.5560913,73.765625,-9.609375,117.375
723,1695569075390,0.021484375,-1.5286255,-0.82110596,-41.171875,-59.96875,-35.5625
724,1695569075463,-0.60253906,-0.97540283,-0.65997314,-53.5625,-65.734375,-49.953125
725,1695569075476,-0.08691406,-0.6043091,0.3517456,-18.515625,-28.984375,14.234375
726,1695569075508,-0.092041016,-0.21588135,-0.0068969727,-32.625,-20.546875,56.75
727,1695569075553,-0.44189453,0.9335327,-0.003967285,-5.59375,-20.6875,-46.109375
728,1695569075603,-0.015380859,-0.054016113,-0.23883057,17.8125,14.453125,-9.890625
729,1695569075629,0.3786621,0.05316162,0.12713623,8.78125,5.3125,10.5
730,1695569075671,-0.47998047,-0.31866455,-0.6902466,41.890625,-61.5,-9.375
731,1695569075718,-1.9580078,-2.0,-0.22418213,125.890625,83.6875,6.390625
732,1695569075747,0.23242188,-2.0,-0.36187744,-10.90625,36.125,-24.171875
733,1695569075791,-1.0424805,-2.0,-0.17193604,-4.796875,67.328125,31.234375
734,1695569075822,-0.039794922,-0.6321411,-0.39263916,-37.609375,92.703125,-9.453125
735,1695569075868,0.73046875,-0.4751587,-0.18756104,3.65625,42.734375,13.234375
736,1695569075913,-0.096191406,0.20526123,0.023132324,-7.96875,19.359375,38.359375
737,1695569075943,-0.20214844,0.7694702,-0.31988525,-16.75,6.4375,-18.8125
738,1695569075985,0.5566406,-0.21173096,-0.070617676,-10.640625,16.265625,-18.671875
739,1695569076048,0.52368164,-0.37872314,-0.19586182,-15.046875,-33.046875,37.34375
740,1695569076063,-0.14672852,-0.5840454,-0.89190674,65.640625,-81.921875,8.203125
741,1695569076107,1.999939,-2.0,1.5807495,24.671875,-56.78125,30.578125
742,1695569076137,-0.021972656,-2.0,-0.86920166,-44.0,-50.234375,-7.5625
743,1695569076182,-0.5114746,-1.7144165,-0.24102783,-64.578125,-44.765625,-59.5
744,1695569076231,-0.13916016,-0.79888916,-0.041809082,-29.109375,-32.96875,-28.5
745,1695569076257,-0.6230469,-0.54229736,-0.031066895,-48.03125,-15.953125,31.15625
746,1695569076317,-0.10473633,0.54559326,0.105163574,-44.96875,7.140625,-11.8125
747,1695569076377,-0.09423828,0.58636475,-0.02545166,28.71875,0.34375,-20.953125
748,1695569076382,0.099609375,-0.2715454,-0.037902832,26.96875,36.140625,-5.203125
749,1695569076423,0.30786133,-0.16412354,-0.36920166,16.265625,-2.671875,-6.25
750,1695569076452,-0.8564453,-1.2976685,-0.8140259,113.578125,10.53125,18.265625
751,1695569076498,1.685791,-2.0,0.8432007,54.609375,-43.890625,78.953125
752,1695569076546,-1.0871582,-1.9194946,-0.14019775,22.125,33.453125,-32.625
753,1695569076577,-0.65185547,-1.281311,-0.28302002,-19.171875,93.28125,24.015625
754,1695569076615,0.45361328,-0.61846924,-0.2979126,-1.09375,77.734375,-1.3125
755,1695569076663,0.7524414,-0.18121338,0.051208496,-8.265625,15.234375,27.28125
756,1695569076698,-0.40625,0.199646,-0.21173096,-1.484375,6.375,13.765625
757,1695569076738,0.00048828125,0.31658936,-0.20904541,-21.328125,38.765625,-29.03125
758,1695569076767,0.94750977,-0.19439697,-0.190979,-5.1875,-12.984375,-0.203125
759,1695569076818,0.171875,-0.33087158,-0.6084595,26.0625,-64.703125,23.0625
760,1695569076859,-1.4675293,-2.0,-0.57110596,80.84375,17.5625,-30.890625
761,1695569076891,-0.61083984,-2.0,-0.5877075,-30.1875,-34.203125,-22.375
762,1695569076932,-0.7233887,-1.5012817,-0.26446533,-55.796875,-44.953125,-38.1875
763,1695569076995,-0.28710938,-0.7022095,-0.015686035,-70.78125,-32.453125,-45.828125
764,1695569077008,-0.44873047,-0.75616455,-0.054992676,0.796875,-40.53125,39.859375
765,1695569077053,0.08178711,-0.07940674,0.105895996,-44.8125,-11.984375,20.859375
766,1695569077084,-0.2631836,0.8986206,0.06878662,-7.765625,-25.3125,-31.5625
767,1695569077128,-0.08618164,0.07489014,0.009216309,22.390625,13.4375,-3.734375
768,1695569077174,0.2956543,-0.16778564,0.09857178,28.140625,6.03125,5.390625
769,1695569077204,-0.37451172,-0.65338135,-0.8916626,56.421875,-43.40625,-5.125
770,1695569077261,-2.0,-2.0,-0.9763794,20.015625,72.015625,2.78125
771,1695569077292,-0.42260742,-1.8301392,-0.6970825,-50.015625,-2.03125,-25.53125
772,1695569077323,-1.6030273,-1.6958618,0.3151245,-19.3125,81.203125,15.0
773,1695569077420,0.025146484,-0.7764282,-0.42730713,-9.546875,86.578125,2.453125
774,1695569077428,0.92529297,-0.65948486,-0.35308838,-0.28125,40.90625,3.203125
775,1695569077442,-0.21435547,-0.014953613,0.054870605,-5.03125,15.1875,27.828125
776,1695569077517,-0.4020996,0.46600342,-0.25836182,-1.890625,33.1875,-19.34375
777,1695569077519,0.85302734,-0.04156494,-0.11798096,-22.40625,12.453125,-26.875
778,1695569077563,0.46191406,-0.45220947,-0.44415283,38.328125,-49.921875,32.875
779,1695569077608,-0.5979004,-2.0,-0.70562744,61.078125,-30.234375,33.78125
780,1695569077638,-0.4506836,-2.0,-0.038879395,-30.390625,-55.3125,-24.640625
781,1695569077684,-0.6645508,-1.7749634,-0.47613525,-46.078125,-6.09375,-11.09375
782,1695569077716,-0.010253906,-0.91485596,0.027526855,-29.078125,-38.5625,-45.78125
783,1695569077760,-0.25097656,-0.68341064,-0.10064697,-35.03125,-36.453125,42.890625
784,1695569077804,-0.1730957,-0.43756104,0.034118652,-51.828125,-22.375,22.921875
785,1695569077834,-0.045654297,0.5392456,0.10491943,-18.453125,-5.078125,-16.203125
786,1695569077877,-0.060546875,0.43084717,0.0021362305,27.359375,-10.484375,-4.546875
787,1695569077924,-0.060791016,-0.13336182,-0.034240723,37.5,-15.078125,-7.6875
788,1695569077954,-0.47387695,-1.2893677,-0.8272095,71.59375,30.84375,21.25
789,1695569077996,0.4177246,-2.0,-0.333313,23.40625,-33.6875,45.765625
790,1695569078029,-0.2421875,-2.0,-0.31744385,0.953125,9.640625,-35.3125
791,1695569078071,-0.96875,-1.3074341,-0.08428955,-24.546875,64.078125,17.828125
792,1695569078133,0.04272461,-0.6765747,-0.31988525,1.078125,79.71875,1.484375
793,1695569078147,0.64990234,-0.51446533,-0.36260986,-2.828125,33.25,20.109375
794,1695569078195,-0.24267578,-0.057922363,0.032409668,5.90625,15.71875,16.875
795,1695569078251,-0.22485352,0.21722412,-0.24053955,-2.296875,25.6875,-12.859375
796,1695569078267,0.6906738,-0.19415283,-0.07989502,-18.078125,15.796875,-14.25
797,1695569078312,0.51831055,-0.27764893,-0.46051025,9.890625,-46.359375,14.59375
798,1695569078347,-0.74975586,-1.8479614,-0.46783447,34.59375,-50.34375,10.984375
799,1695569078387,-0.39038086,-2.0,0.06097412,9.171875,-68.296875,-58.71875
800,1695569078432,-0.638916,-1.5964966,-0.5027466,-57.453125,-33.6875,-15.34375
801,1695569078461,-0.4206543,-0.8982544,-0.2798462,-22.140625,-38.734375,-48.953125
802,1695569078509,-0.09765625,-0.5852661,0.12347412,-31.046875,-37.25,19.015625
803,1695569078569,-0.20532227,-0.36138916,0.12640381,-33.53125,-25.5,44.75
804,1695569078584,-0.2692871,0.66033936,0.046813965,-31.203125,-14.421875,-35.125
805,1695569078627,-0.056152344,0.32366943,-0.035705566,22.90625,4.171875,-16.953125
806,1695569078659,0.28442383,-0.105773926,-0.16583252,28.53125,1.453125,0.8125
807,1695569078703,-0.26586914,-1.0671997,-0.5689087,81.484375,-8.34375,21.53125
808,1695569078748,-0.6442871,-2.0,-0.73687744,-8.640625,-22.71875,24.5
809,1695569078784,-0.31103516,-2.0,-0.6902466,-4.75,30.21875,-18.328125
810,1695569078822,-0.67700195,-1.367981,-0.10089111,-17.71875,84.765625,24.015625
811,1695569078884,0.36987305,-0.7920532,-0.3423462,7.921875,66.828125,6.984375
812,1695569078897,0.55249023,-0.38482666,-0.09259033,-26.96875,13.21875,24.609375
813,1695569078956,-0.34985352,0.34197998,-0.18023682,-0.4375,23.109375,13.546875
814,1695569078971,0.063964844,0.2543335,-0.16241455,-14.4375,30.390625,-20.0
815,1695569079017,0.9260254,-0.25982666,-0.07647705,-18.015625,-11.25,-4.8125
816,1695569079062,0.21020508,-0.07965088,-0.4746704,4.59375,-64.296875,18.296875
817,1695569079106,-1.0114746,-1.9190063,-0.4356079,58.40625,-29.84375,-12.421875
818,1695569079136,0.33032227,-2.0,0.038757324,11.515625,-71.34375,-44.265625
819,1695569079213,-0.33251953,-1.473938,-0.583313,-66.546875,-39.25,-20.921875
820,1695569079215,-0.45629883,-1.2705688,-0.25982666,-16.578125,-46.328125,-38.046875
821,1695569079288,-0.24243164,-0.5484009,0.29608154,-56.796875,-19.921875,19.015625
822,1695569079305,0.022705078,-0.39752197,-0.16925049,-25.609375,-2.484375,45.96875
823,1695569079332,-0.38012695,0.8485718,0.17669678,-10.640625,-12.484375,-23.015625
824,1695569079378,-0.068359375,0.25091553,0.07342529,14.03125,1.015625,-11.78125
825,1695569079410,0.15136719,-0.32159424,0.14935303,13.359375,8.859375,3.734375
826,1695569079453,-0.32299805,-0.37408447,-1.0474243,50.5625,-35.90625,1.875
827,1695569079499,-0.9711914,-2.0,-0.17437744,103.984375,92.921875,40.015625
828,1695569079530,-0.70288086,-2.0,-0.5186157,-5.65625,12.1875,-26.390625
829,1695569079572,-1.345459,-2.0,0.18963623,3.34375,72.0625,29.234375
830,1695569079619,-0.3305664,-1.02594,-0.5430298,-20.75,107.796875,3.1875
831,1695569079650,1.1538086,-0.57696533,-0.44293213,-26.359375,53.078125,5.125
832,1695569079692,-0.17651367,-0.003967285,0.039978027,-9.390625,12.71875,33.671875
833,1695569079722,-0.3203125,0.7033081,-0.21710205,-8.234375,18.765625,-9.484375
834,1695569079769,0.44580078,-0.043273926,-0.036193848,-16.328125,15.71875,-33.375
835,1695569079811,0.5888672,-0.41046143,-0.18389893,-9.046875,-36.046875,11.765625
836,1695569079842,-0.111328125,-0.7398071,-0.7407837,69.890625,-68.4375,12.359375
837,1695569079886,1.9658203,-2.0,0.24676514,72.171875,-53.828125,78.125
838,1695569079964,-0.14770508,-2.0,-0.60406494,-29.25,-72.953125,-15.65625
839,1695569079967,-0.3486328,-1.6043091,-0.35650635,-42.640625,-37.9375,-40.515625
840,1695569080011,-0.0012207031,-0.8110962,-0.01763916,-16.796875,-37.015625,-29.046875
841,1695569080038,-0.48486328,-0.54107666,0.018737793,-37.421875,-32.125,28.734375
842,1695569080083,-0.10595703,0.10662842,0.1828003,-38.484375,-0.625,6.125
843,1695569080127,0.07397461,0.56951904,-0.0115356445,1.328125,-1.96875,-6.890625
844,1695569080161,0.016113281,0.11810303,0.027770996,26.046875,3.75,-9.9375
845,1695569080207,0.05102539,-0.20025635,-0.46051025,30.59375,-27.734375,-13.1875
846,1695569080246,-0.55859375,-1.6731567,-0.90631104,86.359375,62.46875,22.65625
847,1695569080278,0.8469238,-2.0,0.36810303,-11.625,18.65625,-16.734375
848,1695569080324,-0.43164062,-1.9932251,-0.38458252,2.28125,39.15625,-31.28125
849,1695569080353,-0.5390625,-1.3064575,-0.08721924,-24.859375,78.453125,25.8125
850,1695569080397,0.375,-0.7476196,-0.3928833,7.0,75.8125,10.921875
851,1695569080443,0.5666504,-0.27130127,-0.06866455,-1.34375,13.8125,17.1875
852,1695569080471,-0.45385742,0.03704834,-0.07110596,6.9375,10.859375,15.0
853,1695569080547,-0.20532227,0.21917725,-0.3213501,-8.328125,30.46875,-20.453125
854,1695569080580,0.9187012,-0.25909424,-0.13189697,-16.71875,7.25,-9.328125
855,1695569080594,0.43676758,-0.41680908,-0.550354,11.296875,-55.59375,10.21875
856,1695569080636,-0.6640625,-2.0,-0.32696533,19.890625,-49.65625,-10.703125
857,1695569080669,-0.56396484,-2.0,-0.066711426,5.53125,-72.84375,-54.984375
858,1695569080713,-0.53149414,-1.2810669,-0.5178833,-47.0625,-25.328125,-15.734375
859,1695569080759,-0.13574219,-0.7439575,-0.2852173,-7.296875,-48.59375,-50.796875
860,1695569080796,-0.123291016,-0.6182251,0.23309326,-26.0,-38.453125,29.375
861,1695569080834,-0.04736328,-0.190979,-0.0005493164,-26.265625,-26.671875,54.6875
862,1695569080877,-0.48242188,0.5170288,0.18133545,-14.265625,-13.140625,-34.421875
863,1695569080908,-0.060058594,0.24920654,-0.12335205,20.234375,6.453125,-20.0625
864,1695569080987,0.17626953,-0.09283447,0.20550537,11.96875,14.15625,-9.25
865,1695569080994,-0.25463867,-0.6338501,-1.2163696,19.4375,-37.203125,-5.53125
866,1695569081062,-1.5622559,-2.0,-0.33258057,93.5625,156.90625,53.78125
867,1695569081075,-0.35888672,-2.0,-0.5496216,-3.359375,4.15625,-23.859375
868,1695569081116,-1.3032227,-1.7319946,0.20672607,-17.734375,69.421875,3.828125
869,1695569081148,-0.14892578,-0.7893677,-0.5039673,-13.046875,91.609375,7.140625
870,1695569081207,0.8474121,-0.52178955,-0.45880127,-1.34375,55.90625,9.953125
871,1695569081229,0.042236328,-0.09259033,0.14178467,-4.328125,0.546875,23.828125
872,1695569081267,-0.32885742,0.28363037,-0.29962158,-14.640625,4.984375,-3.09375
873,1695569081302,0.4008789,-0.02130127,-0.097961426,-23.640625,23.859375,-25.78125
874,1695569081343,0.66137695,-0.26104736,-0.4180298,2.828125,-31.65625,3.5625
875,1695569081389,-0.11035156,-1.58844,-0.49346924,74.890625,-69.78125,31.921875
876,1695569081418,-0.1418457,-2.0,0.14398193,-23.234375,-75.578125,-48.59375
877,1695569081476,-0.8017578,-1.6314087,-0.51275635,-53.21875,-27.53125,-10.5625
878,1695569081506,-0.21801758,-0.897522,-0.28399658,-30.59375,-37.265625,-62.46875
879,1695569081536,-0.12207031,-0.8032837,0.14276123,-20.03125,-43.15625,10.0625
880,1695569081585,-0.38330078,-0.5823364,-0.007385254,-28.609375,-33.671875,48.125
881,1695569081612,-0.11743164,0.28631592,0.1618042,-47.109375,-0.625,-24.875
882,1695569081661,-0.1381836,0.61590576,-0.012756348,11.65625,6.09375,-7.390625
883,1695569081704,0.06347656,0.101501465,0.12542725,21.140625,17.28125,1.484375
884,1695569081731,-0.13208008,-0.70098877,-1.0176392,84.828125,-1.546875,10.09375
885,1695569081799,-1.232666,-2.0,-1.3010864,75.75,54.3125,68.453125
886,1695569081823,-0.22729492,-2.0,-0.6265259,-24.484375,13.5,-16.515625
887,1695569081851,-1.0881348,-1.4815063,-0.06036377,-44.46875,72.28125,11.375
888,1695569081898,-0.26049805,-0.50372314,-0.47198486,-14.671875,92.140625,-14.21875
889,1695569081945,0.7714844,-0.6524048,-0.37506104,-5.984375,40.796875,27.703125
890,1695569081989,-0.22363281,0.050476074,0.008483887,4.078125,7.1875,23.703125
891,1695569082017,-0.25097656,0.1449585,-0.29351807,-1.765625,26.171875,-9.328125
892,1695569082056,0.8088379,-0.090148926,-0.17193604,-22.578125,18.3125,-5.015625
893,1695569082110,0.546875,-0.27911377,-0.44000244,19.421875,-49.859375,13.3125
894,1695569082139,-0.5895996,-2.0,-0.28741455,48.71875,-31.296875,11.375
895,1695569082168,-0.34033203,-2.0,0.08514404,1.75,-54.0625,-58.59375
896,1695569082212,-0.38012695,-1.5361938,-0.5303345,-59.078125,-11.640625,-9.328125
897,1695569082244,-0.0063476562,-0.9168091,-0.16705322,-2.28125,-48.328125,-77.421875
898,1695569082287,-0.23925781,-0.76397705,0.101501465,-17.65625,-47.09375,22.15625
899,1695569082380,-0.17236328,-0.411438,-0.1182251,-41.203125,-20.9375,47.46875
900,1695569082382,-0.18725586,0.6273804,0.2243042,-34.484375,-8.0625,-42.03125
901,1695569082411,-0.06591797,0.37860107,-0.028625488,23.3125,-8.140625,-6.578125
902,1695569082468,0.15234375,-0.050598145,-0.1585083,15.96875,11.15625,12.71875
903,1695569082483,-0.12890625,-0.88946533,-0.6296997,44.78125,-27.34375,5.140625
904,1695569082528,-2.0,-2.0,-1.3245239,91.15625,34.828125,22.109375
905,1695569082591,-0.11328125,-2.0,-0.72540283,-54.203125,40.234375,-14.53125
906,1695569082603,-1.0778809,-1.3379517,-0.03717041,-32.328125,92.640625,20.265625
907,1695569082680,-0.10107422,-0.61724854,-0.43048096,12.234375,73.171875,-29.375
908,1695569082695,0.76464844,-0.65411377,-0.31134033,-7.40625,39.15625,40.546875
909,1695569082754,-0.21728516,0.22039795,-0.018859863,0.78125,26.203125,17.203125
910,1695569082785,-0.057128906,0.40252686,-0.26104736,-6.6875,36.9375,-17.03125
911,1695569082800,0.69750977,-0.18121338,-0.19366455,-12.75,10.671875,2.8125
912,1695569082842,0.6760254,-0.39727783,-0.5413208,16.578125,-60.6875,34.234375
913,1695569082949,-0.5175781,-2.0,-0.69537354,83.84375,-36.15625,16.125
914,1695569082963,-0.45043945,-2.0,-0.39239502,-66.796875,-52.25,-64.15625
915,1695569082971,-0.4013672,-1.3640747,-0.612854,-44.515625,-13.875,-16.21875
916,1695569082993,-0.029785156,-0.9373169,-0.082336426,-31.71875,-27.21875,-57.40625
917,1695569083037,-0.25073242,-0.8286743,0.06756592,-43.859375,-31.3125,45.0625
918,1695569083206,-0.1328125,-0.16021729,-0.014465332,-54.90625,-12.78125,18.09375
919,1695569083218,-0.33032227,0.9171753,0.047302246,-20.375,-1.484375,-49.421875
920,1695569083228,0.01586914,0.26434326,-0.07501221,8.75,16.875,1.875
921,1695569083307,0.3256836,-0.2774048,-0.5454712,41.546875,-14.46875,7.75
922,1695569083310,-0.7092285,-2.0,0.12176514,126.734375,22.21875,44.671875
923,1695569083312,-0.6833496,-2.0,0.12176514,9.953125,-10.875,-21.96875
924,1695569083492,-0.94506836,-2.0,-0.3394165,2.40625,77.765625,8.40625
925,1695569083567,-0.41430664,-0.9146118,-0.20172119,-7.9375,110.34375,-2.5625
926,1695569083668,0.7084961,-0.96099854,-0.39727783,8.625,62.859375,-4.203125
927,1695569083681,0.07421875,-0.18707275,0.07684326,-16.921875,19.6875,33.359375
928,1695569083698,-0.32983398,0.4677124,-0.2774048,5.25,35.65625,-5.5625
929,1695569083703,0.27856445,0.13641357,-0.16290283,-16.921875,47.421875,-20.890625
930,1695569083708,1.0205078,-0.27618408,-0.19488525,-8.234375,-28.921875,12.15625
931,1695569083714,0.118652344,-0.7293091,-1.0095825,57.390625,-104.078125,28.359375
932,1695569083718,0.41796875,-2.0,-0.11407471,44.875,-58.890625,51.40625
933,1695569083722,-0.41430664,-1.9160767,-0.72442627,-55.765625,-33.015625,-36.8125
934,1695569083909,-0.3581543,-1.154602,-0.5112915,-57.640625,-29.953125,-35.8125
935,1695569083916,0.14038086,-0.9282837,0.12640381,-21.390625,-36.734375,-35.796875
936,1695569083930,-0.40234375,-0.7280884,0.018493652,-18.734375,-50.546875,46.53125
937,1695569083936,-0.2607422,-0.19268799,0.06781006,-46.46875,-12.140625,-8.96875
938,1695569083941,-0.11010742,0.8239136,0.012878418,-8.625,3.703125,-42.515625
939,1695569083946,0.06713867,0.28363037,-0.03668213,11.421875,11.484375,6.296875
940,1695569084012,0.29467773,-0.31573486,-0.29962158,10.8125,-23.34375,0.671875
941,1695569084015,-0.6176758,-1.2471313,-0.5239868,84.4375,-21.796875,15.828125
942,1695569084042,-0.10449219,-2.0,-0.19317627,-16.109375,-69.671875,54.359375
943,1695569084055,-0.2697754,-1.6050415,-0.60650635,-31.640625,31.21875,-13.515625
944,1695569084103,-0.9272461,-1.156311,-0.046691895,-23.734375,82.34375,13.75
945,1695569084305,0.13793945,-0.597229,-0.3008423,31.765625,53.609375,-15.296875
946,1695569084345,0.7260742,-0.57037354,-0.23370361,-11.09375,11.5,18.8125
947,1695569084357,-0.19995117,-0.16558838,-0.08258057,-17.75,2.0,14.65625
948,1695569084364,-0.2836914,0.34954834,-0.14093018,-7.890625,32.15625,-16.078125
949,1695569084371,0.7451172,0.09832764,-0.1560669,-18.171875,3.90625,-13.265625
950,1695569084373,0.5456543,-0.51104736,-0.60235596,24.21875,-85.09375,28.3125
951,1695569084417,-0.6953125,-2.0,-1.3484497,125.578125,-32.59375,54.6875
952,1695569084419,-0.38842773,-1.9033813,-0.57647705,-73.15625,-63.3125,-48.765625
953,1695569084613,-0.7463379,-1.1050415,-0.5952759,-45.75,-18.09375,-36.625
954,1695569084619,0.2849121,-0.8928833,0.13787842,-28.4375,-16.828125,-34.96875
955,1695569084628,-0.27392578,-0.8023071,0.027526855,-21.28125,-41.296875,66.453125
956,1695569084636,-0.103271484,-0.10406494,0.15032959,-43.4375,-26.21875,8.359375
957,1695569084749,-0.18530273,0.6664429,-0.039855957,-2.375,-6.546875,-42.703125
958,1695569084752,0.016845703,0.25823975,0.043884277,10.40625,9.59375,3.203125
959,1695569084757,0.12792969,-0.27886963,-0.71832275,33.28125,-24.078125,3.34375
960,1695569084759,-0.8117676,-2.0,-0.425354,145.125,36.484375,41.578125
961,1695569085063,-0.055908203,-1.9041138,0.49969482,45.765625,15.859375,-26.84375
962,1695569085070,-0.7788086,-1.927063,-0.1326294,7.59375,54.25,-4.8125
963,1695569085076,-0.70336914,-0.9639282,-0.18511963,-22.171875,94.953125,-5.0625
964,1695569085081,0.5583496,-0.7971802,-0.39239502,8.609375,72.96875,5.640625
965,1695569085085,0.43603516,-0.24298096,0.027038574,-11.3125,18.203125,21.96875
966,1695569085089,-0.2006836,0.1317749,-0.22564697,-0.03125,19.078125,0.328125
967,1695569085093,0.03466797,0.16595459,-0.097961426,-10.25,36.4375,-19.109375
968,1695569085098,0.97314453,-0.08868408,-0.1885376,-12.5625,-15.359375,1.640625
969,1695569085102,0.14794922,-0.6773071,-0.83795166,51.3125,-101.5,37.421875
970,1695569085185,-0.34057617,-2.0,0.16375732,85.0,-34.703125,57.40625
971,1695569085188,-0.5,-1.883606,-0.58380127,-67.75,-27.890625,-19.828125
972,1695569085304,-0.57470703,-1.1380005,-0.4734497,-47.84375,-34.40625,-36.4375
973,1695569085572,0.3083496,-0.848938,0.15032959,-9.546875,-33.984375,-32.421875
974,1695569085742,-0.33422852,-0.7437134,0.00018310547,-17.515625,-42.953125,54.890625
975,1695569085750,-0.15673828,-0.11529541,0.09515381,-32.90625,-9.828125,-4.25
976,1695569085760,-0.13964844,0.70233154,-0.05279541,-6.671875,-0.46875,-42.09375
977,1695569085786,-0.041259766,0.3007202,-0.05255127,16.953125,13.015625,0.296875
978,1695569085790,0.18457031,-0.27496338,-0.49713135,17.265625,-17.25,0.953125
979,1695569085794,-0.31298828,-1.2808228,-0.37677002,107.640625,-21.515625,32.71875
980,1695569085798,0.030761719,-2.0,-0.10650635,14.96875,-54.9375,43.890625
981,1695569085801,-0.9206543,-1.7842407,-0.41461182,-27.546875,21.984375,-8.671875
982,1695569085965,-0.8820801,-1.0269165,-0.14385986,-20.984375,89.796875,8.296875
983,1695569085969,0.43481445,-0.81988525,-0.17364502,9.40625,64.09375,-7.203125
984,1695569085972,0.58618164,-0.5130005,-0.26715088,-16.375,18.046875,25.265625
985,1695569085975,-0.27368164,0.31170654,-0.11602783,-3.875,15.734375,11.71875
986,1695569085978,-0.053222656,0.3998413,-0.16436768,-12.484375,29.359375,-26.640625
987,1695569085981,0.77612305,-0.20269775,-0.19659424,-16.609375,-14.03125,-8.296875
988,1695569085985,0.47705078,-0.6748657,-0.74786377,47.046875,-94.125,37.828125
989,1695569086018,-0.9494629,-2.0,-0.91119385,120.3125,-13.53125,-2.8125
990,1695569086020,-0.55615234,-1.6968384,-0.66241455,-58.140625,-54.9375,-42.3125
991,1695569086024,-0.67822266,-1.1238403,-0.5906372,-44.171875,-29.0,-47.265625
992,1695569086035,0.27685547,-0.8843384,0.058776855,-26.53125,-21.296875,-25.109375
993,1695569086069,-0.1628418,-0.69854736,0.022399902,-40.109375,-38.15625,55.84375
994,1695569086131,-0.15454102,0.024353027,0.05706787,-44.59375,-25.796875,0.109375
995,1695569086134,-0.23852539,0.8512573,-0.16558838,-10.265625,4.609375,-42.171875
996,1695569086223,0.08862305,0.22259521,0.10467529,11.6875,5.421875,9.0625
997,1695569086230,0.31567383,-0.30010986,-0.6433716,38.53125,-28.59375,5.875
998,1695569086247,-0.8498535,-1.9317017,-0.3875122,128.09375,-0.359375,12.265625
999,1695569086478,0.47924805,-2.0,0.4664917,11.171875,-9.0,-7.109375
1000,1695569086485,-0.8496094,-2.0,-0.10211182,-9.1875,41.21875,13.9375
1001,1695569086493,-0.7385254,-0.86798096,-0.42559814,-29.140625,99.203125,2.671875
1002,1695569086500,0.6640625,-0.79034424,-0.2786255,23.078125,69.875,-3.359375
1003,1695569086505,0.30297852,-0.28033447,0.04144287,-33.203125,6.640625,29.71875
1004,1695569086509,-0.44311523,0.25897217,-0.19415283,-2.546875,22.0625,-7.59375
1005,1695569086521,0.10498047,0.30413818,-0.14703369,-13.40625,49.375,-24.953125
1006,1695569086546,0.95654297,-0.2000122,-0.20050049,-5.90625,-7.765625,11.9375
1007,1695569086655,0.24853516,-0.4644165,-0.88067627,43.796875,-87.484375,24.453125
1008,1695569086657,-1.7319336,-2.0,-1.253479,141.875,56.609375,-11.359375
1009,1695569086760,-0.6813965,-2.0,-0.60943604,-48.328125,-16.96875,-24.953125
1010,1695569086764,-0.7607422,-1.4353638,-0.34747314,-30.84375,-9.875,-18.140625
1011,1695569086768,0.18774414,-0.86505127,-0.05279541,-12.90625,-25.765625,-53.015625
1012,1695569086849,-0.51464844,-0.85821533,0.029968262,-3.734375,-22.390625,65.953125
1013,1695569086851,0.095703125,-0.055480957,0.081970215,-50.421875,-3.78125,4.6875
1014,1695569086893,-0.16674805,0.7753296,0.09857178,-6.515625,-6.140625,-62.515625
1015,1695569086896,-0.21044922,0.23724365,0.029968262,-0.0625,14.4375,4.015625
1016,1695569086983,0.16259766,-0.32159424,-0.013244629,10.671875,11.6875,8.5625
1017,1695569086986,-0.18457031,-0.70513916,-0.65289307,62.9375,-29.75,-5.75
1018,1695569087072,-1.1699219,-2.0,-0.7402954,102.53125,55.0,24.90625
1019,1695569087076,-0.83569336,-2.0,-0.47174072,-33.953125,12.53125,-29.203125
1020,1695569087180,-1.2631836,-2.0,0.049987793,-8.96875,67.578125,28.828125
1021,1695569087192,-0.25,-0.8533325,-0.3394165,-21.28125,76.4375,-35.140625
1022,1695569087299,0.80859375,-1.1282349,-0.24224854,4.703125,42.53125,0.484375
1023,1695569087301,-0.32763672,-0.06964111,-0.014221191,-8.125,12.25,18.5
1024,1695569087305,-0.22583008,0.50994873,-0.24835205,-12.5,37.9375,-29.375
1025,1695569087307,0.39770508,0.17352295,-0.070373535,-24.90625,37.359375,-34.1875
1026,1695569087377,0.7780762,-0.34869385,-0.18121338,-14.875,-29.34375,18.5
1027,1695569087481,0.06982422,-0.79156494,-0.6536255,63.515625,-91.234375,20.484375
1028,1695569087488,0.1352539,-2.0,0.9862671,-9.234375,-63.984375,25.5
1029,1695569087495,-0.41870117,-1.8572388,-0.5108032,-42.453125,-74.125,-14.015625
1030,1695569087582,-0.86376953,-1.2661743,-0.16729736,-59.109375,-48.4375,-49.3125
1031,1695569087587,0.08105469,-0.68707275,-0.0044555664,-37.0625,-58.03125,-47.203125
1032,1695569087598,-0.532959,-0.63165283,0.09661865,-31.46875,-68.90625,14.234375
1033,1695569087612,-0.34301758,-0.5125122,0.1473999,-40.078125,-46.34375,-27.53125
1034,1695569087643,-0.091552734,0.34417725,0.08319092,-41.953125,-10.609375,-26.15625
1035,1695569087688,0.14428711,0.44232178,-0.05328369,-2.234375,-10.4375,-16.28125
1036,1695569087746,0.29589844,-0.13018799,-0.3982544,7.0625,-65.28125,-7.0
1037,1695569087927,-0.95043945,-1.9536743,-0.6572876,145.73438,-57.390625,40.234375
1038,1695569087932,0.78393555,-1.7590942,0.5897827,15.3125,-35.171875,-31.125
1039,1695569087938,-0.44995117,-1.0759888,0.029968262,-41.796875,-22.265625,1.75
1040,1695569087957,-0.8186035,-0.006652832,-0.14556885,-57.296875,4.4375,-25.15625
1041,1695569087961,-0.005859375,-0.3892212,-0.300354,15.15625,1.515625,7.078125
1042,1695569087967,1.310791,-0.4824829,-0.057434082,-17.109375,-61.84375,36.75
1043,1695569088091,-0.39208984,-0.8167114,-0.2498169,2.453125,-81.328125,-7.59375
1044,1695569088095,-0.7060547,-0.3032837,0.03704834,-7.609375,-35.953125,-12.859375
1045,1695569088097,0.71191406,-0.45269775,-0.2949829,4.71875,-31.28125,6.671875
1046,1695569088124,0.14160156,-2.0,0.5067749,30.0,-57.921875,39.921875
1047,1695569088156,-0.4572754,-1.8130493,-0.5093384,-59.84375,-113.28125,-40.625
1048,1695569088229,-0.5107422,-1.392395,0.2670288,-4.609375,-102.75,-60.203125
1049,1695569088409,-0.2253418,-0.88604736,0.2814331,-11.109375,-82.046875,-39.671875
1050,1695569088454,0.38891602,-0.4290161,0.14007568,-42.703125,-76.9375,-37.46875
1051,1695569088460,0.05078125,0.2267456,-0.21368408,-8.953125,-102.296875,-8.734375
1052,1695569088465,-0.66186523,0.588562,-0.20635986,5.046875,-73.8125,-26.25
1053,1695569088467,0.044189453,-0.45367432,-0.20269775,34.84375,-55.90625,-12.25
1054,1695569088471,-0.39794922,-1.8423462,-0.58917236,51.03125,-60.1875,15.875
1055,1695569088513,0.084228516,-2.0,-0.43292236,6.359375,-88.625,-7.25
1056,1695569088516,-0.65893555,-1.6465454,-0.4487915,30.578125,-72.890625,7.90625
1057,1695569088589,-0.88720703,-1.7595825,-0.035217285,0.46875,-31.078125,-4.0
1058,1695569088591,-0.17553711,-1.0588989,-0.097961426,-12.125,14.1875,3.484375
1059,1695569088647,0.2475586,-0.30352783,-0.08306885,-2.59375,3.1875,6.96875
1060,1695569088728,0.24975586,-0.0005493164,-0.31329346,-6.328125,-22.34375,-4.15625
1061,1695569088735,0.52001953,-0.0803833,-0.17462158,-31.828125,-48.1875,-9.015625
1062,1695569088752,0.19238281,-0.1296997,-0.3826294,-48.421875,-93.859375,-2.6875
1063,1695569088782,-0.31884766,-0.53790283,-0.74664307,1.359375,-110.6875,-20.03125
1064,1695569088829,1.999939,-2.0,-0.1519165,-105.09375,-57.734375,142.90625
1065,1695569088871,-0.0007324219,-1.8982544,-0.46661377,-83.8125,-67.890625,-37.109375
1066,1695569088904,0.1027832,-1.237854,-0.37579346,-31.984375,-68.484375,-55.140625
1067,1695569088951,0.045410156,-0.71343994,0.20452881,-9.015625,-69.78125,5.0
1068,1695569088994,-0.15283203,-0.47686768,0.027526855,-22.0625,-57.953125,28.625
1069,1695569089022,-0.41601562,0.4081421,0.03656006,-4.875,-40.40625,-6.390625
1070,1695569089068,-0.055664062,0.7091675,-0.17218018,19.671875,-19.859375,-36.53125
1071,1695569089097,0.17089844,-0.08404541,0.062683105,15.875,-11.515625,-6.328125
1072,1695569089143,-0.09106445,-0.6133423,-0.9019165,36.3125,-24.328125,-4.359375
1073,1695569089189,-0.5180664,-2.0,-0.8921509,102.859375,-34.09375,9.3125
1074,1695569089223,0.08569336,-2.0,-0.14141846,46.765625,21.21875,-16.140625
1075,1695569089261,0.026855469,-2.0,-0.45733643,-15.015625,63.40625,5.109375
1076,1695569089368,-0.46020508,-1.2974243,-0.41461182,-21.96875,66.375,-10.65625
1077,1695569089371,0.42211914,-0.9241333,-0.07696533,-10.6875,41.421875,8.078125
1078,1695569089382,-0.16430664,0.039733887,-0.04107666,-5.28125,25.6875,2.78125
1079,1695569089411,0.010253906,0.3456421,-0.29742432,-3.515625,27.140625,-21.796875
1080,1695569089474,0.7116699,0.06756592,-0.12042236,-34.78125,14.75,-5.65625
1081,1695569089506,0.5715332,-0.10797119,-0.12774658,-27.578125,-59.71875,21.4375
1082,1695569089532,-0.23510742,-0.61505127,-0.9507446,-2.234375,-106.515625,-14.703125
1083,1695569089593,1.373291,-2.0,-0.25933838,118.390625,-76.609375,200.70312
1084,1695569089636,0.49365234,-1.803772,-0.7817993,-81.140625,-64.265625,-54.0
1085,1695569089652,-0.30786133,-1.3045044,-0.39996338,-63.578125,-31.140625,-29.296875
1086,1695569089712,-0.24560547,-0.6321411,0.09490967,-29.875,-23.609375,-12.671875
1087,1695569089726,0.041992188,-0.42266846,0.010437012,-46.15625,-12.734375,35.921875
1088,1695569089772,-0.3840332,0.6063843,0.024597168,-11.171875,-22.515625,-6.125
1089,1695569089818,-0.20141602,0.4725952,-0.041809082,6.21875,9.859375,-34.78125
1090,1695569089852,0.06665039,-0.2263794,0.050231934,3.78125,16.296875,-14.984375
1091,1695569089891,-0.1027832,-0.30255127,-0.80426025,17.28125,-27.671875,-12.375
1092,1695569089938,-0.94873047,-2.0,0.49554443,121.1875,30.59375,4.21875
1093,1695569089967,-0.4873047,-2.0,-0.38043213,19.453125,9.359375,-34.0
1094,1695569090012,-1.4799805,-2.0,0.06878662,-8.390625,59.828125,4.296875
1095,1695569090043,-0.24584961,-0.95806885,-0.5383911,-27.21875,113.265625,3.828125
1096,1695569090118,1.0622559,-0.70269775,-0.23272705,1.171875,47.640625,10.453125
1097,1695569090131,-0.13012695,0.23309326,-0.038146973,1.078125,17.4375,32.34375
1098,1695569090165,-0.34448242,0.67889404,-0.35064697,3.421875,22.453125,-7.796875
1099,1695569090208,0.72021484,-0.12750244,-0.15533447,-20.96875,26.921875,-26.6875
1100,1695569090253,0.68481445,-0.4644165,-0.30059814,-0.71875,-53.03125,36.546875
1101,1695569090284,-0.2680664,-1.5484009,-0.53375244,45.984375,-75.890625,34.015625
1102,1695569090329,-0.18359375,-2.0,0.53338623,13.296875,-53.765625,-23.0625
1103,1695569090374,-0.3322754,-1.7920532,-0.44195557,-65.15625,-16.578125,-15.09375
1104,1695569090420,-0.20361328,-1.1087036,-0.15289307,-28.15625,-51.171875,-65.671875
1105,1695569090447,-0.34277344,-0.6585083,0.09442139,-24.21875,-51.890625,8.578125
1106,1695569090480,-0.40454102,-0.32208252,0.047058105,-29.6875,-16.84375,23.5625
1107,1695569090523,-0.41064453,0.8986206,0.17425537,-26.625,5.5,-36.3125
1108,1695569090567,0.08300781,0.20916748,-0.082092285,21.015625,21.765625,-13.21875
1109,1695569090599,0.48779297,-0.25128174,-0.027160645,27.65625,26.328125,12.4375
1110,1695569090644,-0.036865234,-0.54278564,-0.7073364,66.0,-56.90625,4.25
1111,1695569090688,-2.0,-2.0,-1.0584106,105.8125,98.625,-44.90625
1112,1695569090733,-0.17553711,-2.0,-0.29986572,-35.46875,52.53125,-18.0625
1113,1695569090764,-1.1806641,-1.921936,-0.050842285,6.015625,84.984375,34.96875
1114,1695569090793,-0.29125977,-0.6729126,-0.52349854,-25.53125,102.234375,-21.203125
1115,1695569090850,0.9958496,-0.7354126,-0.11553955,-0.828125,55.984375,21.625
1116,1695569090911,-0.13427734,-0.074035645,0.015319824,-11.71875,16.890625,27.96875
1117,1695569090918,-0.3251953,0.5944214,-0.43267822,-25.140625,34.84375,-11.125
1118,1695569090973,0.61450195,0.24188232,-0.11773682,11.984375,28.96875,-24.40625
1119,1695569091034,0.7800293,-0.53448486,-0.37652588,21.609375,-54.765625,39.4375
1120,1695569091038,-0.6171875,-2.0,-0.59161377,52.03125,-59.25,14.265625
1121,1695569091079,-0.58984375,-2.0,0.011169434,-54.5,-59.5625,-50.46875
1122,1695569091110,-0.5671387,-1.2595825,-0.616272,-74.28125,2.34375,-11.6875
1123,1695569091152,-0.11401367,-1.1270142,0.09954834,-21.984375,-23.75,-66.671875
1124,1695569091196,-0.39794922,-0.5791626,-0.0025024414,-28.1875,-40.40625,44.875
1125,1695569091227,-0.12548828,-0.10406494,0.059020996,-54.53125,-4.734375,30.40625
1126,1695569091278,-0.21044922,0.7819214,0.117370605,-22.859375,-7.28125,-31.734375
1127,1695569091347,-0.103271484,0.23797607,0.032409668,16.703125,7.734375,1.484375
1128,1695569091350,0.04321289,-0.17608643,-0.3098755,27.875,14.625,2.1875
1129,1695569091391,-0.40771484,-1.2463989,-0.6524048,125.671875,-2.421875,10.90625
1130,1695569091425,0.28735352,-2.0,0.8126831,-5.828125,-38.796875,30.6875
1131,1695569091469,-0.3720703,-2.0,-0.38287354,11.109375,7.78125,-21.046875
1132,1695569091513,-1.0861816,-1.0967407,0.01751709,-19.703125,89.71875,-0.453125
1133,1695569091543,0.4453125,-0.5745239,-0.44195557,9.25,98.609375,-6.515625
1134,1695569091589,0.68408203,-0.48687744,-0.08721924,-22.40625,27.234375,16.9375
1135,1695569091632,-0.14819336,0.20184326,-0.14190674,-8.171875,14.328125,7.0
1136,1695569091688,-0.19946289,0.3348999,-0.09869385,-9.734375,38.640625,-26.1875
1137,1695569091710,0.9812012,-0.21514893,-0.13873291,-9.453125,2.75,-8.375
1138,1695569091736,0.50146484,-0.26715088,-0.2576294,24.859375,-66.84375,28.296875
1139,1695569091783,-2.0,-2.0,-0.88067627,90.328125,46.265625,-2.5
1140,1695569091826,-0.4428711,-2.0,-0.65338135,-44.859375,-45.328125,-32.1875
1141,1695569091858,-0.88916016,-1.3743286,-0.3748169,-53.421875,-24.59375,-42.46875
1142,1695569091902,0.14453125,-0.7307739,-0.07183838,-24.375,-25.5625,-60.1875
1143,1695569091947,-0.27075195,-0.4932251,0.014831543,-27.8125,-36.75,55.78125
1144,1695569091977,-0.05444336,-0.028381348,0.078063965,-41.3125,-10.375,25.328125
1145,1695569092022,-0.04296875,0.6156616,0.086364746,-8.0,-14.078125,-46.140625
1146,1695569092072,-0.028320312,0.22625732,-0.061828613,25.3125,2.671875,10.390625
1147,1695569092099,0.10961914,-0.16998291,-0.49468994,28.828125,-4.765625,3.78125
1148,1695569092144,-0.59350586,-1.2229614,-0.3904419,86.984375,-25.609375,17.265625
1149,1695569092180,-0.34814453,-2.0,-0.2498169,1.765625,-56.84375,74.46875
1150,1695569092242,-0.68066406,-1.7488403,-0.37823486,-39.8125,27.765625,-28.625
1151,1695569092262,-1.0473633,-1.1936646,0.0036010742,-25.21875,85.640625,8.625
1152,1695569092292,0.3803711,-0.7979126,-0.18145752,-3.5,69.640625,-12.0625
1153,1695569092337,0.4777832,-0.49835205,-0.3574829,-4.828125,34.109375,24.96875
1154,1695569092367,0.0056152344,0.08856201,-0.14678955,-11.59375,19.21875,7.921875
1155,1695569092412,-0.16503906,0.418396,-0.10650635,1.46875,32.875,-8.6875
1156,1695569092475,0.7890625,-0.108947754,-0.1585083,-12.125,-0.890625,1.140625
1157,1695569092488,0.46289062,-0.517395,-0.3340454,28.5625,-76.53125,41.78125
1158,1695569092540,-1.2038574,-2.0,-2.0,158.26562,32.890625,40.59375
1159,1695569092576,-0.28710938,-2.0,-0.50006104,-52.921875,-46.390625,-35.59375
1160,1695569092605,-0.25146484,-1.2642212,-0.4631958,-59.109375,-39.265625,-45.25
1161,1695569092683,-0.052734375,-0.83917236,0.0368042,-16.359375,-32.53125,-30.625
1162,1695569092685,-0.22387695,-0.5274048,-0.0032348633,-32.53125,-37.484375,36.984375
1163,1695569092726,-0.14624023,-0.0256958,0.10028076,-38.8125,-22.296875,19.40625
1164,1695569092772,-0.24194336,0.77337646,0.03314209,-5.75,1.03125,-35.109375
1165,1695569092804,-0.056884766,0.17132568,0.02557373,32.9375,13.3125,-6.03125
1166,1695569092850,0.10522461,-0.32452393,-0.581604,66.453125,-14.28125,3.046875
1167,1695569092909,-1.0751953,-2.0,-0.78497314,126.25,25.4375,55.546875
1168,1695569092923,-0.51464844,-1.984436,0.061462402,8.25,27.171875,-32.328125
1169,1695569092968,-1.0205078,-2.0,-0.058898926,9.859375,52.265625,5.265625
1170,1695569093012,-0.35083008,-0.84210205,-0.28619385,-16.03125,89.015625,-10.890625
1171,1695569093045,0.5612793,-0.802063,-0.32769775,1.34375,58.84375,2.546875
1172,1695569093085,-0.018310547,-0.016906738,0.105895996,-13.03125,29.640625,22.828125
1173,1695569093117,-0.21972656,0.45819092,-0.32940674,1.828125,38.828125,-15.984375
1174,1695569093165,0.50268555,0.12542725,-0.25128174,-3.421875,38.4375,-28.5625
1175,1695569093210,1.1184082,-0.29986572,-0.32476807,1.640625,-43.53125,38.390625
1176,1695569093238,-0.41235352,-1.517395,-0.956604,47.140625,-114.921875,59.578125
1177,1695569093283,1.6032715,-1.9429321,0.9154663,-70.109375,-91.390625,-40.296875
1178,1695569093312,-0.46899414,-1.9373169,-0.53497314,-53.59375,-36.28125,-20.5
1179,1695569093358,-0.3076172,-1.0750122,-0.31402588,-32.984375,-51.328125,-83.421875
1180,1695569093404,-0.16796875,-0.6567993,0.0138549805,-26.765625,-56.453125,-0.0625
1181,1695569093436,-0.31884766,-0.35772705,0.025817871,-44.953125,-35.59375,61.703125
1182,1695569093477,-0.28759766,0.8473511,0.078308105,-27.96875,-13.03125,-46.203125
1183,1695569093522,-0.006591797,0.38812256,-0.011047363,19.125,2.578125,-7.890625
1184,1695569093550,0.38867188,-0.035217285,-0.17364502,18.203125,2.671875,31.703125
1185,1695569093597,0.022705078,-0.77545166,-0.47149658,76.40625,-62.640625,17.90625
1186,1695569093625,-2.0,-2.0,-1.3359985,67.75,40.6875,-32.328125
1187,1695569093671,-1.1054688,-2.0,-0.42633057,-55.328125,62.078125,-29.953125
1188,1695569093732,-0.736084,-1.421936,-0.15777588,-20.828125,116.484375,36.6875
1189,1695569093745,0.19604492,-0.74298096,-0.34649658,8.78125,91.671875,-23.265625
1190,1695569093825,0.68359375,-0.39483643,-0.26885986,-5.453125,44.171875,29.265625
1191,1695569093835,-0.25854492,0.33831787,0.026794434,0.484375,32.984375,12.859375
1192,1695569093868,-0.23608398,0.7391968,-0.30718994,-31.296875,36.21875,-24.046875
1193,1695569093916,0.7727051,-0.13189697,-0.27960205,28.953125,35.890625,-19.25
1194,1695569093956,0.7714844,-0.48516846,-0.36749268,7.484375,-41.296875,58.5
1195,1695569094004,-0.54467773,-2.0,-0.76226807,79.53125,-40.6875,2.859375
1196,1695569094030,-0.13745117,-1.8425903,-0.070617676,-83.6875,-60.984375,-75.546875
1197,1695569094063,-0.7145996,-1.4841919,-0.55181885,-43.59375,-54.859375,-38.515625
1198,1695569094153,-0.060791016,-1.1524048,-0.046936035,-16.390625,-50.859375,-57.125
1199,1695569094156,-0.19555664,-0.62213135,-0.07672119,-42.046875,-45.6875,46.34375
1200,1695569094183,-0.09399414,-0.054992676,0.070251465,-54.328125,-23.203125,28.015625
1201,1695569094224,-0.20141602,0.83514404,-0.031799316,-13.875,-7.8125,-45.34375
1202,1695569094271,-0.109375,0.3204956,0.08856201,22.046875,13.8125,20.65625
1203,1695569094314,0.27441406,-0.17877197,-0.34869385,18.546875,-2.359375,20.875
1204,1695569094346,-0.48608398,-1.1992798,-0.4734497,112.875,-32.046875,33.375
1205,1695569094377,-0.69628906,-2.0,-0.5540161,-5.6875,-57.515625,30.0
1206,1695569094482,-0.8930664,-2.0,-0.41192627,2.46875,19.15625,-11.3125
1207,1695569094484,-0.93188477,-1.0579224,-0.24957275,-21.0,92.96875,5.40625
1208,1695569094497,0.56518555,-0.72735596,-0.48687744,12.578125,79.8125,-8.3125
1209,1695569094542,0.5786133,-0.33258057,-0.12823486,-33.390625,16.0,29.09375
1210,1695569094605,-0.23388672,0.3690796,-0.2522583,-8.40625,27.34375,1.953125
1211,1695569094646,0.26513672,0.29779053,-0.16998291,-9.15625,43.265625,-21.5625
1212,1695569094676,1.0153809,-0.17437744,-0.10406494,-19.828125,-15.703125,21.0625
1213,1695569094692,0.1652832,-0.255188,-0.8735962,35.375,-99.734375,46.0
1214,1695569094734,-1.3803711,-2.0,-2.0,190.53125,52.28125,28.0
1215,1695569094780,-0.24511719,-2.0,-0.58380127,-41.46875,-58.359375,-25.109375
1216,1695569094810,-0.53100586,-1.9351196,-0.5779419,-50.078125,-24.671875,-34.0625
1217,1695569094856,0.075683594,-0.7346802,-0.033996582,-33.421875,-43.828125,-50.390625
1218,1695569094961,-0.20410156,-0.3953247,-0.09967041,-51.421875,-30.8125,47.75
1219,1695569094964,-0.49951172,0.54681396,0.027770996,-34.671875,-12.515625,-7.671875
1220,1695569094975,-0.005859375,0.6412964,-0.06719971,15.921875,7.09375,-52.453125
1221,1695569095008,0.22216797,0.016784668,-0.0051879883,35.59375,8.078125,21.890625
1222,1695569095050,0.13793945,-0.28131104,-0.40802002,31.1875,-25.21875,-2.84375
1223,1695569095097,-0.7182617,-1.3323364,-0.48760986,105.890625,7.640625,7.453125
1224,1695569095126,0.42285156,-2.0,-0.58306885,-5.390625,-31.703125,51.984375
1225,1695569095172,-1.3278809,-2.0,-0.6292114,-28.546875,38.4375,-47.09375
1226,1695569095216,-0.79711914,-1.2510376,-0.286438,-34.1875,108.171875,26.6875
1227,1695569095261,0.7578125,-0.9314575,-0.24151611,10.078125,79.5625,0.8125
1228,1695569095290,0.57788086,-0.21539307,-0.05645752,-32.3125,22.71875,24.1875
1229,1695569095340,-0.4909668,0.7716675,-0.19927979,-42.53125,22.46875,-17.75
1230,1695569095366,0.13769531,0.8048706,-0.20855713,-5.328125,37.53125,-28.84375
1231,1695569095410,1.3886719,-0.7178345,-0.18170166,13.21875,-19.6875,31.265625
1232,1695569095442,0.25756836,-0.2510376,-0.55670166,7.875,-77.40625,29.484375
1233,1695569095488,-1.9453125,-2.0,-0.46368408,105.375,14.3125,-29.140625
1234,1695569095545,0.12963867,-2.0,-0.40386963,-61.765625,-44.40625,-76.265625
1235,1695569095560,-0.5493164,-1.4334106,-0.69000244,-38.625,-42.8125,-24.59375
1236,1695569095606,-0.22827148,-1.0969849,0.047790527,-15.546875,-48.984375,-63.484375
1237,1695569095641,-0.15917969,-0.725647,-0.03717041,-35.09375,-34.03125,53.390625
1238,1695569095682,-0.16723633,0.27825928,-0.04937744,-45.671875,-24.375,17.4375
1239,1695569095725,-0.34472656,1.2077026,0.06854248,-6.703125,-17.3125,-71.65625
1240,1695569095755,-0.19213867,-0.031555176,-0.035461426,28.15625,21.359375,21.59375
1241,1695569095802,0.3244629,-0.18878174,-0.4492798,20.296875,15.609375,13.78125
1242,1695569095878,-0.3959961,-1.2861938,-0.56915283,97.875,-21.125,22.765625
1243,1695569095880,-0.2866211,-2.0,-0.50128174,41.921875,-74.71875,72.109375
1244,1695569095923,-1.3989258,-2.0,-0.3274536,-27.359375,35.609375,-17.90625
1245,1695569095954,-0.8918457,-0.90802,-0.35968018,-47.921875,111.359375,6.65625
1246,1695569096029,0.7265625,-0.8225708,-0.36480713,15.90625,94.6875,-6.625
1247,1695569096043,0.8232422,-0.089416504,-0.039123535,-20.140625,26.578125,29.71875
1248,1695569096086,-0.4338379,0.48382568,-0.30621338,-13.03125,22.359375,-2.71875
1249,1695569096118,0.2536621,0.26483154,-0.175354,-14.609375,41.328125,-25.140625
1250,1695569096166,1.005127,-0.48712158,-0.082336426,-2.828125,-21.6875,18.734375
1251,1695569096192,0.10131836,-0.41705322,-0.65948486,35.109375,-91.578125,37.015625
1252,1695569096237,-1.9423828,-2.0,-1.1677856,143.0,56.71875,-19.625
1253,1695569096271,-0.22314453,-2.0,-0.55255127,-53.125,-61.96875,-36.78125
1254,1695569096313,-0.7495117,-1.5430298,-0.5335083,-54.46875,-38.453125,-44.609375
1255,1695569096357,-0.0029296875,-0.7029419,-0.024230957,-36.546875,-36.90625,-39.828125
1256,1695569096389,-0.45458984,-0.38604736,-0.023010254,-43.421875,-26.375,39.734375
1257,1695569096433,-0.15356445,0.21844482,0.11981201,-43.390625,-1.953125,8.859375
1258,1695569096477,-0.07446289,0.68499756,0.02557373,6.953125,0.65625,-26.46875
1259,1695569096511,0.01171875,0.07611084,0.012878418,24.5625,23.109375,0.5625
1260,1695569096555,0.21289062,-0.30914307,-0.5388794,61.0,-26.671875,5.34375
1261,1695569096581,-1.0087891,-2.0,-0.57891846,120.34375,31.3125,40.0
1262,1695569096627,-0.3659668,-2.0,0.09515381,6.625,32.453125,-16.3125
1263,1695569096675,-1.5046387,-2.0,-0.1572876,-1.546875,77.328125,-4.390625
1264,1695569096704,-0.31347656,-0.9522095,-0.51763916,-6.671875,116.65625,2.890625
1265,1695569096749,1.0463867,-0.9463501,-0.4529419,5.953125,66.0625,5.875
1266,1695569096793,-0.037353516,0.09466553,0.04949951,-21.796875,19.0625,19.875
1267,1695569096824,-0.34326172,0.59295654,-0.3225708,-3.484375,36.109375,-8.96875
1268,1695569096869,0.56030273,0.18548584,-0.24151611,-3.921875,39.921875,-24.21875
1269,1695569096898,1.0446777,-0.3982544,-0.2510376,9.5625,-32.9375,38.171875
1270,1695569096942,-0.15795898,-1.1067505,-1.2005005,56.90625,-130.125,45.921875
1271,1695569096989,1.7087402,-2.0,0.8746948,-12.359375,-129.42188,26.046875
1272,1695569097019,-0.3059082,-2.0,-0.45440674,-50.359375,-55.125,-19.5
1273,1695569097064,-0.4128418,-1.1746216,-0.42755127,-53.84375,-49.71875,-63.46875
1274,1695569097106,0.10107422,-0.61505127,0.11175537,-33.34375,-46.921875,2.84375
1275,1695569097136,-0.014404297,-0.16998291,-0.08331299,-43.5625,-35.890625,53.96875
1276,1695569097182,-0.4753418,0.7887573,0.124694824,-15.28125,-33.703125,-19.6875
1277,1695569097214,-0.03125,0.28607178,-0.09185791,24.953125,0.296875,-10.765625
1278,1695569097257,0.27124023,0.015563965,-0.054016113,35.84375,3.1875,15.703125
1279,1695569097304,-0.07885742,-0.25665283,-0.65826416,47.1875,-57.15625,1.875
1280,1695569097337,-1.1499023,-2.0,-0.5720825,143.10938,6.96875,53.375
1281,1695569097396,0.19140625,-2.0,-0.07501221,43.015625,56.21875,4.328125
1282,1695569097421,-1.3908691,-2.0,-0.27227783,23.984375,69.421875,1.765625
1283,1695569097451,-0.2849121,-0.85040283,-0.49639893,-16.25,107.234375,-0.59375
1284,1695569097496,0.75390625,-0.8345337,-0.14337158,0.25,68.59375,10.625
1285,1695569097542,0.22094727,0.057556152,-0.019836426,0.3125,29.09375,15.8125
1286,1695569097589,-0.32592773,0.93255615,-0.33013916,-29.984375,25.03125,-16.5
1287,1695569097616,0.42578125,0.24798584,-0.20562744,16.25,40.90625,-21.09375
1288,1695569097648,1.1188965,-0.57232666,-0.1975708,1.921875,-25.1875,33.046875
1289,1695569097694,0.076660156,-0.8833618,-0.88946533,4.53125,-96.296875,41.6875
1290,1695569097770,-0.31176758,-2.0,-0.29083252,81.75,-38.625,46.640625
1291,1695569097775,-0.32250977,-1.7962036,-0.62286377,-93.15625,-40.3125,-39.734375
1292,1695569097815,-0.26538086,-1.1995239,-0.5059204,-23.1875,-70.34375,-51.125
1293,1695569097862,0.02709961,-0.83380127,0.08001709,-36.765625,-47.875,-7.765625
1294,1695569097896,-0.055664062,-0.2576294,-0.10235596,-44.875,-44.6875,55.84375
1295,1695569097932,-0.69873047,0.8065796,0.031433105,-21.21875,-43.953125,-25.9375
1296,1695569097962,0.12597656,0.1329956,-0.0049438477,14.875,10.609375,-17.8125
1297,1695569098008,0.18408203,-0.04425049,-0.04547119,21.65625,4.609375,11.140625
1298,1695569098052,-0.044189453,-0.21417236,-0.7119751,33.234375,-34.953125,-7.46875
1299,1695569098083,-1.1376953,-1.8816528,-0.5083618,154.0625,7.390625,27.1875
1300,1695569098129,1.4782715,-2.0,0.2765503,28.015625,33.140625,48.25
1301,1695569098171,-1.604248,-2.0,-0.12188721,12.59375,54.28125,-25.96875
1302,1695569098202,-0.47192383,-0.89971924,-0.5298462,-42.75,113.40625,-2.609375
1303,1695569098247,1.0041504,-0.6538696,-0.24517822,-10.109375,82.875,-9.5625
1304,1695569098278,0.19042969,-0.0025024414,-0.039123535,-18.859375,25.765625,22.421875
1305,1695569098323,-0.32739258,0.9298706,-0.32769775,-15.875,23.15625,-13.28125
1306,1695569098371,0.55566406,0.14007568,-0.16021729,-6.40625,19.65625,-28.78125
1307,1695569098397,0.83862305,-0.48272705,-0.24273682,4.828125,-41.03125,35.78125
1308,1695569098444,-0.20019531,-1.0464478,-1.1018677,54.6875,-115.765625,42.28125
1309,1695569098520,1.9902344,-2.0,1.3710327,14.234375,-108.40625,42.28125
1310,1695569098522,-0.3527832,-2.0,-0.7966919,-41.515625,-83.796875,-34.15625
1311,1695569098564,-0.74243164,-1.2471313,-0.39190674,-36.515625,-53.03125,-57.90625
1312,1695569098592,-0.123535156,-0.7817993,-0.05328369,-33.421875,-36.5625,6.578125
1313,1695569098640,-0.1496582,-0.4024048,-0.11236572,-50.78125,-19.8125,45.578125
1314,1695569098686,-0.41748047,0.6835327,0.1984253,-32.578125,-8.1875,-14.625
1315,1695569098712,0.07421875,0.5158081,-0.10845947,22.484375,9.015625,-19.671875
1316,1695569098757,0.24145508,0.027526855,-0.08087158,30.3125,1.0,16.40625
1317,1695569098805,-0.22949219,-0.3899536,-0.74957275,66.875,-42.03125,11.171875
1318,1695569098835,-1.2631836,-2.0,-0.45635986,119.984375,35.328125,40.65625
1319,1695569098875,-0.23364258,-2.0,-0.4920044,-1.078125,31.59375,-5.703125
1320,1695569098906,-1.5429688,-2.0,-0.25201416,10.421875,85.03125,15.3125
1321,1695569098956,-0.1706543,-0.8880005,-0.66412354,-19.09375,120.15625,6.921875
1322,1695569098996,1.1452637,-1.1895142,-0.20343018,-18.828125,57.5,14.703125
1323,1695569099029,-0.046142578,0.015075684,0.05682373,-12.125,6.359375,20.0
1324,1695569099072,-0.59716797,0.95306396,-0.27642822,-12.296875,28.359375,-10.671875
1325,1695569099116,0.37475586,0.291687,-0.29058838,8.71875,43.109375,-25.15625
1326,1695569099148,1.314209,-0.46759033,-0.22808838,0.859375,-21.015625,34.671875
1327,1695569099192,0.25512695,-0.69537354,-0.9290161,24.15625,-91.65625,33.359375
1328,1695569099227,-2.0,-2.0,1.614685,193.46875,-47.4375,36.046875
1329,1695569099267,-0.23535156,-1.7017212,-1.0012817,-45.5,-27.59375,-37.59375
1330,1695569099312,-1.0297852,-1.4507446,-0.37139893,-21.96875,-76.515625,-73.828125
1331,1695569099342,-0.036621094,-0.8987427,0.21868896,-20.625,-50.203125,-17.40625
1332,1695569099388,-0.008544922,-0.53985596,-0.16485596,-41.453125,-38.8125,66.03125
1333,1695569099432,-0.5239258,0.6112671,0.1876831,-41.25,-38.25,-20.09375
1334,1695569099461,-0.053222656,0.7081909,-0.09576416,5.78125,-0.609375,-56.921875
1335,1695569099511,0.12695312,0.03387451,-0.045959473,36.390625,10.109375,36.90625
1336,1695569099539,0.18945312,-0.16119385,-0.52423096,34.84375,-19.875,5.9375
1337,1695569099584,-0.58447266,-1.2559204,-0.2930298,82.34375,-13.296875,29.078125
1338,1695569099628,0.42822266,-2.0,-0.25323486,34.234375,-26.265625,47.578125
1339,1695569099658,-2.0,-2.0,-0.26397705,2.390625,60.15625,-2.734375
1340,1695569099733,-0.39648438,-0.97979736,-0.65948486,-9.4375,103.0625,-9.15625
1341,1695569099747,0.9914551,-1.2398071,-0.20172119,-17.75,83.375,16.296875
1342,1695569099775,0.25878906,-0.014465332,-0.046203613,-20.125,25.1875,22.390625
1343,1695569099855,-0.41015625,1.1810913,-0.24127197,-38.140625,35.25,-16.421875
1344,1695569099858,0.3395996,0.25482178,-0.22125244,8.703125,33.046875,-29.984375
1345,1695569099907,1.0075684,-0.5967407,-0.1885376,3.9375,-11.03125,44.390625
1346,1695569099941,0.15136719,-0.11773682,-0.55181885,18.703125,-65.5,23.78125
1347,1695569099971,-1.7041016,-2.0,-0.7346802,104.578125,57.890625,-28.609375
1348,1695569100019,-0.3100586,-2.0,-0.6038208,-19.8125,-56.71875,-30.203125
1349,1695569100064,-1.03125,-1.989563,-0.37701416,-50.21875,-29.203125,-45.484375
1350,1695569100092,0.0,-0.90802,-0.1182251,-42.53125,-30.984375,-59.875
1351,1695569100136,-0.43017578,-0.52178955,-0.022521973,-47.125,-21.6875,27.484375
1352,1695569100169,0.031982422,0.09613037,-0.038879395,-56.796875,-5.46875,13.875
1353,1695569100212,-0.1274414,1.038269,0.062438965,-7.078125,-11.796875,-42.5
1354,1695569100258,-0.05883789,0.11639404,-0.097961426,19.09375,13.40625,-0.65625
1355,1695569100302,0.3371582,-0.19366455,0.011657715,29.953125,-2.34375,10.875
1356,1695569100332,-0.5202637,-0.40045166,-0.69976807,80.109375,-35.390625,-7.96875
1357,1695569100382,-2.0,-2.0,-1.3565063,124.125,58.578125,33.234375
1358,1695569100417,-0.32299805,-2.0,-0.49224854,-27.46875,36.015625,-31.96875
1359,1695569100451,-1.4421387,-2.0,-0.1651001,-17.09375,80.578125,33.75
1360,1695569100483,0.107177734,-0.9324341,-0.55596924,2.671875,108.1875,-17.03125
1361,1695569100527,0.9526367,-0.91900635,-0.1951294,-22.765625,40.484375,18.875
1362,1695569100572,-0.20629883,0.20281982,-0.061828613,-23.671875,11.203125,19.609375
1363,1695569100601,-0.375,0.91815186,-0.37335205,-21.5,34.453125,-25.890625
1364,1695569100649,0.5656738,0.07147217,-0.24468994,10.453125,36.53125,-10.4375
1365,1695569100691,1.0986328,-0.40777588,-0.2539673,-8.0,-34.171875,48.65625
1366,1695569100724,-0.12548828,-0.7058716,-0.97125244,23.359375,-107.359375,37.234375
1367,1695569100766,-1.4350586,-2.0,0.40081787,29.28125,-12.453125,88.40625
1368,1695569100798,-0.4230957,-1.5864868,-0.6099243,-45.015625,-27.609375,-31.578125
1369,1695569100844,-0.85595703,-1.5508423,-0.48492432,-23.90625,-71.234375,-52.765625
1370,1695569100888,-0.16699219,-0.881897,0.21624756,-38.28125,-40.359375,-18.6875
1371,1695569100919,0.08129883,-0.47247314,-0.04815674,-41.375,-16.640625,53.75
1372,1695569100996,-0.34057617,0.6727905,0.018249512,-44.84375,-14.640625,-31.71875
1373,1695569101008,0.12060547,0.58343506,-0.1350708,-0.875,3.828125,-44.875
1374,1695569101036,0.34716797,0.046569824,0.0680542,14.59375,-12.140625,17.265625
1375,1695569101085,0.01953125,-0.19000244,-0.5442505,27.453125,-38.0625,-4.546875
1376,1695569101133,-1.0197754,-1.1331177,-0.21929932,136.17188,-16.0,19.109375
1377,1695569101173,0.072509766,-2.0,-0.33551025,29.0,-47.25,49.5625
1378,1695569101202,-1.03125,-2.0,-0.29840088,22.8125,52.75,-20.421875
1379,1695569101234,-0.68774414,-1.1851196,-0.4368286,-30.984375,82.546875,-6.703125
1380,1695569101277,0.79785156,-1.560852,-0.14654541,10.984375,32.625,-6.90625
1381,1695569101353,-0.20751953,-0.2925415,0.0119018555,-43.890625,25.75,12.84375
1382,1695569101362,-0.49291992,0.8253784,-0.25299072,-21.4375,58.25,-26.0
1383,1695569101431,0.48388672,0.5162964,-0.28179932,-22.109375,46.28125,-46.84375
1384,1695569101441,0.9333496,-0.40533447,-0.28961182,13.234375,3.359375,27.3125
1385,1695569101472,0.140625,-0.117248535,-0.21099854,-9.546875,-26.84375,20.515625
1386,1695569101520,-0.48291016,-1.1682739,-1.0151978,66.9375,-90.796875,-8.09375
1387,1695569101546,1.8774414,-2.0,0.1786499,-50.0625,-117.875,23.8125
1388,1695569101591,-0.52563477,-1.7537231,-0.73028564,-21.28125,-101.265625,-23.390625
1389,1695569101638,-0.77075195,-1.2288208,-0.21929932,-56.671875,-63.6875,-46.015625
1390,1695569101670,-0.39672852,-0.5479126,-0.034973145,-38.046875,-52.546875,-33.078125
1391,1695569101712,-0.52905273,-0.5767212,0.11273193,-42.421875,-43.421875,9.625
1392,1695569101757,-0.07836914,-0.054992676,0.105651855,-64.953125,-6.703125,-35.34375
1393,1695569101790,-0.17602539,0.7440796,-0.05328369,-17.96875,-14.109375,-37.890625
1394,1695569101832,0.3137207,0.14569092,-0.11798096,1.875,11.984375,-6.625
1395,1695569101864,0.26367188,-0.32647705,-0.59552,16.375,-89.671875,11.15625
1396,1695569101908,-2.0,-2.0,-1.2444458,214.625,27.84375,7.765625
1397,1695569101951,0.21533203,-2.0,0.15228271,-8.40625,-11.515625,-24.703125
1398,1695569101982,-1.1015625,-1.4885864,0.20819092,-7.1875,-5.34375,-28.015625
1399,1695569102030,-0.50756836,-0.4385376,-0.4907837,-78.125,11.390625,-24.484375
1400,1695569102074,1.1262207,-0.48492432,-0.87994385,-20.703125,3.6875,26.3125
1401,1695569102105,0.53930664,-0.645813,-0.038635254,14.859375,-104.765625,21.671875
1402,1695569102149,-0.8833008,-0.2630005,-0.22540283,-41.828125,-105.09375,-28.265625
1403,1695569102179,-0.73950195,0.67352295,-0.17852783,-60.953125,-29.734375,-53.5625
1404,1695569102220,1.2058105,0.0036010742,-0.1375122,-6.546875,-30.703125,-34.703125
1405,1695569102285,0.6101074,-1.8640747,-0.9702759,61.140625,-225.89062,46.203125
1406,1695569102296,-0.57543945,-2.0,0.4401245,-83.71875,-180.17188,-64.4375
1407,1695569102345,-0.29785156,-1.2964478,-0.59259033,-23.390625,-113.375,15.03125
1408,1695569102387,-0.7219238,-2.0,-0.03692627,-16.625,-109.21875,-45.140625
1409,1695569102417,0.10253906,-1.1370239,-0.038391113,-48.890625,-85.328125,-7.9375
1410,1695569102460,0.008300781,-0.60235596,0.035583496,-56.703125,-112.125,-11.09375
1411,1695569102493,0.05029297,-0.12628174,-0.028869629,-49.203125,-111.703125,-18.359375
1412,1695569102538,-0.19970703,0.19744873,-0.12359619,-43.546875,-99.34375,-2.25
1413,1695569102580,-0.06713867,0.20892334,-0.2798462,-37.125,-69.75,-0.453125
1414,1695569102611,0.34375,-0.3579712,-0.27178955,-11.703125,-120.78125,-6.015625
1415,1695569102655,-0.36010742,-2.0,-1.06427,57.859375,-145.59375,46.578125
1416,1695569102702,-0.4326172,-1.8989868,-0.21270752,8.625,-124.828125,-26.53125
1417,1695569102731,-0.9680176,-1.2056274,-0.20611572,-21.734375,-61.0625,1.828125
1418,1695569102775,-0.12841797,-0.2798462,-0.04058838,-60.75,-45.859375,-21.59375
1419,1695569102807,0.06298828,-1.0552368,-0.033996582,39.015625,-73.734375,9.546875
1420,1695569102850,-0.3828125,-0.9475708,-0.014465332,-12.0,-82.96875,5.40625
1421,1695569102896,-0.6953125,-0.5466919,-0.011291504,-11.921875,-50.875,-35.953125
1422,1695569102926,-0.34545898,-0.32086182,0.15447998,-2.15625,-36.578125,-1.796875
1423,1695569102972,-0.36669922,-1.0620728,0.012390137,13.234375,-32.546875,16.75
1424,1695569103018,-0.13110352,-1.5542603,0.00091552734,-22.140625,-22.734375,-12.90625
1425,1695569103046,-0.30004883,-0.8284302,-0.17828369,-31.1875,-10.3125,-38.9375
1426,1695569103091,0.20092773,-1.1394653,-0.20758057,-27.390625,35.078125,14.671875
1427,1695569103125,1.0598145,-1.1663208,0.30511475,-0.3125,-25.734375,9.5625
1428,1695569103198,0.009277344,-1.3806763,-0.3250122,4.75,-92.84375,-5.859375
1429,1695569103213,-0.80371094,-1.3223267,-0.11773682,-41.65625,-32.046875,-18.109375
1430,1695569103242,0.04345703,-0.72320557,0.21697998,-21.734375,-27.375,-18.09375
1431,1695569103319,-0.076416016,-0.5549927,0.06390381,-16.3125,-25.59375,1.375
1432,1695569103331,0.026611328,-0.5791626,0.17474365,-3.015625,-30.125,-3.0625
1433,1695569103362,-0.27783203,-0.57476807,0.16522217,-2.15625,-29.453125,2.15625
1434,1695569103406,-0.0146484375,-0.6992798,0.18133545,-3.21875,-15.5625,-11.125
1435,1695569103436,-0.18701172,-0.88653564,0.33416748,-0.609375,-41.0625,-18.328125
1436,1695569103484,-0.623291,-1.3018188,0.0758667,5.515625,-11.015625,-13.296875
1437,1695569103556,-0.2631836,-1.2346802,0.16229248,-16.203125,-7.703125,-14.359375
1438,1695569103562,-0.096191406,-1.6709595,0.13983154,-13.46875,4.75,-14.921875
1439,1695569103602,-0.1262207,-0.9829712,0.16986084,-3.90625,0.15625,-17.109375
1440,1695569103649,-0.28149414,-0.59747314,-0.2720337,0.484375,16.59375,-10.671875
1441,1695569103675,0.019042969,-0.8933716,-0.113342285,2.421875,14.296875,-8.0625
1442,1695569103724,-0.014160156,-1.4829712,0.18572998,16.125,-10.515625,21.46875
1443,1695569103755,-0.23828125,-1.2503052,0.0446167,-3.828125,-2.203125,-16.640625
1444,1695569103802,-0.19213867,-0.4800415,0.035339355,-17.390625,-4.78125,-16.875
1445,1695569103843,-0.2241211,-0.30377197,0.014343262,0.359375,-13.421875,-2.65625
1446,1695569103873,-0.17578125,-0.7156372,0.117614746,2.640625,-24.046875,7.59375
1447,1695569103919,-0.15820312,-1.1536255,0.09051514,-0.09375,-33.765625,0.40625
1448,1695569103969,-0.3310547,-1.0574341,0.08319092,-9.921875,-34.09375,-11.78125
1449,1695569103991,-0.5480957,-0.7317505,0.07904053,-9.921875,-7.578125,-0.59375
1450,1695569104036,-0.40063477,-0.98760986,-0.059387207,-8.46875,-3.625,-9.640625
1451,1695569104065,-0.013671875,-1.8130493,0.02166748,19.8125,27.296875,24.546875
1452,1695569104113,0.56225586,-1.1831665,0.016784668,-2.203125,-38.59375,-24.234375
1453,1695569104155,-0.26733398,-0.93927,-0.032043457,2.359375,-83.96875,3.125
1454,1695569104185,-0.74780273,-1.2285767,-0.09967041,-13.953125,-41.515625,-17.28125
