# Sensor type: Respeck
# Activity type: Sitting
# Activity subtype: Hyperventilating
# Subject id: s2077148
# Notes: Dylan
timestamp,accel_x,accel_y,accel_z,gyro_x,gyro_y,gyro_z
1695289538199,0.16308594,0.97332764,-5.493164E-4,-0.234375,0.765625,0.03125
1695289538219,0.16479492,0.98114014,0.0026245117,-0.640625,1.4375,0.15625
1695289538264,0.16308594,0.97869873,-5.493164E-4,-0.25,1.1875,-0.046875
1695289538302,0.16699219,0.97650146,0.004333496,-0.84375,0.703125,0.109375
1695289538345,0.16088867,0.9838257,0.002380371,-0.296875,1.515625,0.15625
1695289538376,0.15649414,0.9706421,-0.0012817383,-0.25,1.171875,-0.015625
1695289538421,0.16381836,0.97772217,-0.004699707,-0.390625,1.296875,0.015625
1695289538455,0.16552734,0.9796753,9.1552734E-4,-0.265625,0.953125,0.203125
1695289538520,0.16381836,0.9760132,0.004333496,-0.25,1.078125,0.109375
1695289538536,0.16040039,0.97650146,4.272461E-4,-0.28125,1.25,0.046875
1695289538581,0.16357422,0.9713745,0.001159668,-0.59375,0.75,0.0625
1695289538615,0.15942383,0.9706421,-0.002746582,0.25,1.0,-0.09375
1695289538659,0.17138672,0.98065186,0.013366699,-1.46875,1.03125,0.40625
1695289538693,0.16381836,0.9772339,-0.004211426,0.625,1.5,-0.140625
1695289538738,0.16357422,0.9730835,0.00579834,-0.078125,-0.1875,0.421875
1695289538771,0.16479492,0.97283936,1.8310547E-4,-0.65625,0.96875,-0.109375
1695289538829,0.16235352,0.9725952,0.001159668,0.296875,1.625,0.0
1695289538849,0.16430664,0.97210693,0.00579834,-0.65625,0.953125,0.0
1695289538905,0.16748047,0.98114014,-5.493164E-4,-0.046875,1.203125,-0.03125
1695289538945,0.16503906,0.9747925,0.0065307617,-0.9375,0.984375,0.296875
1695289538973,0.16577148,0.9767456,-0.0025024414,-0.203125,1.25,0.265625
1695289539006,0.16381836,0.9772339,-0.008117676,0.3125,0.890625,0.28125
1695289539063,0.16503906,0.9735718,0.00579834,-1.265625,0.78125,0.46875
1695289539085,0.16503906,0.98236084,-0.016906738,0.453125,1.265625,0.390625
1695289539135,0.16577148,0.980896,-0.0076293945,-2.0625,-0.515625,0.375
1695289539188,0.17480469,0.99676514,-0.031555176,-8.8125,-2.578125,1.9375
1695289539209,0.18164062,1.0756226,0.04046631,-14.921875,-15.90625,5.03125
1695289539245,0.1809082,0.96258545,-0.074523926,3.421875,-8.953125,2.953125
1695289539301,0.15063477,0.965271,0.023620605,-8.75,-7.140625,2.796875
1695289539322,0.14648438,0.9345093,-0.04547119,0.03125,0.546875,0.0
1695289539369,0.119628906,0.9352417,-0.034973145,-0.796875,1.15625,-0.171875
1695289539403,0.11254883,0.91619873,-0.039123535,-1.84375,0.0,-0.53125
1695289539447,0.15917969,0.99505615,-0.026672363,0.96875,-0.15625,1.484375
1695289539482,0.17333984,1.0338745,-0.032043457,0.375,3.4375,1.0625
1695289539526,0.171875,0.9989624,-0.030090332,-2.90625,1.6875,1.109375
1695289539559,0.14941406,0.95306396,-0.0256958,0.21875,2.265625,0.078125
1695289539604,0.13378906,0.9467163,-0.022033691,2.5,1.84375,0.015625
1695289539639,0.14453125,0.95770264,0.0060424805,1.40625,4.03125,-0.09375
1695289539683,0.15771484,0.9874878,-0.027893066,3.203125,6.609375,0.359375
1695289539716,0.14746094,0.9760132,-0.030822754,2.546875,4.359375,0.625
1695289539783,0.15429688,0.98431396,0.007507324,-1.03125,2.53125,1.640625
1695289539795,0.16186523,0.96673584,-0.039611816,4.1875,6.546875,0.421875
1695289539853,0.1430664,0.96868896,-0.0068969727,-0.34375,1.421875,-0.375
1695289539875,0.11254883,0.88446045,1.8310547E-4,-1.03125,8.84375,-2.3125
1695289539932,0.114990234,0.91815186,-0.030578613,3.0,14.140625,0.140625
1695289539952,0.14477539,1.0473022,-0.047668457,4.84375,4.5,1.21875
1695289540000,0.13549805,1.0912476,-0.049621582,-0.859375,0.8125,1.09375
1695289540032,0.1237793,0.99554443,-0.030822754,-5.359375,-7.859375,0.265625
1695289540082,0.17114258,0.95233154,-0.0256958,-8.0625,-11.375,4.609375
1695289540112,0.16357422,0.96014404,-0.03302002,-4.3125,-5.6875,2.484375
1695289540155,0.12573242,0.9862671,-0.0076293945,-3.203125,-4.8125,0.96875
1695289540188,0.15527344,1.0272827,-0.04888916,-1.390625,-11.0625,2.21875
1695289540234,0.16040039,1.0248413,-0.034484863,-10.234375,-14.4375,3.71875
1695289540269,0.15112305,1.0692749,-0.003967285,-16.265625,-4.671875,2.015625
1695289540314,0.13208008,1.0133667,-0.030334473,-3.4375,0.671875,-1.078125
1695289540347,0.13378906,0.8812866,-0.09454346,2.671875,3.546875,-2.96875
1695289540402,0.114990234,0.9423218,-0.04058838,1.0,2.15625,1.265625
1695289540425,0.13476562,0.98968506,-0.03326416,4.703125,6.40625,0.9375
1695289540472,0.16503906,1.0067749,-0.016662598,6.59375,11.171875,-1.296875
1695289540504,0.14208984,0.9747925,0.034851074,13.5,10.46875,-3.046875
1695289540548,0.1171875,0.8539429,-0.020324707,26.25,15.625,-5.390625
1695289540582,0.11816406,0.86346436,-0.0413208,8.234375,12.796875,-2.875
1695289540627,0.103027344,0.93377686,0.032165527,-5.28125,6.78125,-1.5
1695289540661,0.12524414,0.9657593,-0.06744385,-0.359375,12.0,-0.734375
1695289540706,0.13671875,1.0614624,-0.027893066,0.9375,9.453125,2.46875
1695289540765,0.091552734,1.048523,-0.0647583,7.703125,3.53125,-1.3125
1695289540785,0.13989258,0.9701538,-0.0044555664,-9.890625,-5.03125,0.828125
1695289540843,0.17773438,0.9960327,0.005554199,-3.78125,-4.5,1.625
1695289540865,0.17407227,0.9701538,-5.493164E-4,1.78125,-3.4375,0.546875
1695289540921,0.15844727,1.0023804,0.02166748,-5.234375,-4.453125,1.15625
1695289540943,0.16357422,0.99749756,0.0072631836,-4.71875,-4.203125,0.890625
1695289540980,0.15966797,0.97650146,-0.028869629,-1.59375,-0.78125,1.015625
1695289541022,0.11206055,1.0011597,-0.03643799,-1.875,-7.234375,3.21875
1695289541054,0.11816406,1.0131226,-0.012023926,-5.1875,-17.171875,4.75
1695289541099,0.16064453,1.0551147,-0.007385254,-12.765625,-10.0,5.46875
1695289541133,0.1184082,1.0158081,-0.006164551,-15.53125,-0.78125,0.140625
1695289541183,0.13867188,0.951355,-0.08331299,-1.40625,-5.140625,0.515625
1695289541213,0.09667969,0.9401245,-0.090148926,-2.1875,-7.640625,1.71875
1695289541257,0.1237793,0.9977417,-0.011291504,-9.90625,-11.25,3.796875
1695289541295,0.1730957,0.9984741,-0.023010254,-7.703125,3.34375,1.984375
1695289541338,0.13110352,0.9430542,-0.040100098,-4.171875,6.125,-0.921875
1695289541369,0.083984375,0.93548584,-0.010070801,1.4375,12.484375,-0.46875
1695289541415,0.07299805,0.979187,-0.07110596,12.859375,15.0625,-0.28125
1695289541451,0.12866211,0.9918823,-0.023010254,14.125,12.03125,-2.453125
1695289541496,0.10546875,0.88934326,-0.039123535,18.515625,12.96875,-5.171875
1695289541530,0.12963867,0.88201904,-0.0947876,6.5,15.125,-0.578125
1695289541574,0.091796875,0.91522217,0.06390381,-9.984375,6.0625,-3.5
1695289541607,0.07543945,0.92474365,-0.12799072,7.015625,14.875,-6.109375
1695289541657,0.08886719,1.0553589,-0.06451416,8.046875,5.90625,-0.546875
1695289541686,0.119628906,1.093689,-0.05645752,0.984375,3.375,-0.203125
1695289541745,0.1953125,1.046814,-0.035949707,-8.328125,-2.859375,1.359375
1695289541766,0.14575195,0.9567261,-0.011779785,3.90625,0.03125,-2.84375
1695289541827,0.115478516,0.9381714,0.0099487305,-0.984375,-8.828125,2.203125
1695289541843,0.171875,0.99749756,-0.003967285,0.265625,-3.90625,1.890625
1695289541902,0.1616211,0.9894409,0.007507324,-3.25,-2.078125,-1.5625
1695289541921,0.14160156,1.0084839,0.0021362305,-1.484375,-1.640625,0.671875
1695289541968,0.115722656,0.9706421,-0.037902832,-3.203125,-2.046875,2.59375
1695289542000,0.12060547,1.02948,-0.055236816,4.578125,-1.078125,3.84375
1695289542056,0.11987305,0.9891968,-0.03741455,0.90625,-11.09375,0.015625
1695289542079,0.123535156,0.979187,0.024841309,-13.640625,-12.734375,1.421875
1695289542126,0.12719727,0.9689331,-0.010559082,-13.546875,-4.578125,0.9375
1695289542158,0.15258789,0.9887085,-0.0051879883,-6.265625,-1.109375,0.75
1695289542203,0.15185547,1.0038452,-0.02935791,4.328125,3.046875,-1.4375
1695289542236,0.14135742,0.99505615,-0.022033691,-4.9375,5.40625,-1.125
1695289542280,0.1184082,0.9545288,-0.073791504,2.734375,11.96875,-2.328125
1695289542315,0.096191406,0.97528076,-0.02130127,-1.265625,3.328125,1.09375
1695289542361,0.13378906,0.97821045,-0.06060791,9.46875,7.546875,-0.703125
1695289542394,0.14892578,0.98114014,-0.030578613,0.140625,3.84375,0.421875
1695289542439,0.13623047,1.001648,-0.009338379,4.703125,12.046875,-0.640625
1695289542473,0.12963867,0.94158936,-0.0256958,6.1875,11.96875,-0.875
1695289542517,0.11694336,0.92059326,-0.085754395,6.53125,9.265625,-1.0625
1695289542552,0.06518555,0.94403076,-0.024475098,-3.21875,-0.96875,0.0
1695289542596,0.0690918,0.89837646,-0.044006348,-3.6875,-3.171875,-0.59375
1695289542631,0.140625,0.9557495,-0.0256958,-5.28125,-5.078125,2.765625
1695289542677,0.16113281,1.0099487,-0.051086426,-4.1875,8.390625,0.921875
1695289542735,0.13867188,1.0214233,-0.06304932,4.8125,9.0,-1.46875
1695289542755,0.12109375,1.0419312,-0.030334473,5.078125,6.21875,-2.203125
1695289542811,0.1159668,0.9850464,-0.042053223,3.640625,-0.4375,-1.484375
1695289542834,0.1237793,0.93670654,-0.03741455,-1.671875,-7.078125,0.71875
1695289542867,0.14794922,0.9867554,-0.0134887695,-3.390625,-6.125,2.265625
1695289542922,0.14648438,0.9918823,-0.013977051,-3.5,-4.234375,1.96875
1695289542947,0.14428711,0.99798584,-0.02154541,-6.90625,-5.015625,1.765625
1695289542990,0.12036133,0.9711304,-0.09991455,-2.84375,-8.34375,1.875
1695289543027,0.091552734,1.0106812,-0.0635376,-4.921875,-17.609375,5.25
1695289543070,0.13500977,1.0551147,-0.0029907227,-11.703125,-12.203125,4.453125
1695289543103,0.17651367,1.0167847,-0.014465332,-13.765625,-3.265625,0.640625
1695289543151,0.12451172,0.93743896,-0.08673096,-1.390625,-1.484375,-1.03125
1695289543181,0.09667969,0.9467163,-0.06036377,1.0625,-2.1875,0.65625
1695289543227,0.119140625,1.0140991,-0.026916504,-2.140625,2.671875,0.734375
1695289543260,0.13671875,0.94647217,-0.09454346,1.421875,16.0625,-3.515625
1695289543316,0.10498047,0.93548584,-0.06011963,1.484375,9.40625,-0.4375
1695289543349,0.103271484,0.9779663,-0.066467285,9.171875,7.25,0.046875
1695289543383,0.12939453,0.9833374,-0.06427002,8.359375,3.734375,-0.921875
1695289543417,0.13574219,0.97210693,-0.043762207,4.578125,6.09375,-2.09375
1695289543462,0.10913086,0.9821167,-0.02911377,4.046875,10.328125,-1.078125
1695289543497,0.09326172,0.946228,-0.07623291,1.40625,10.640625,-0.8125
1695289543549,0.095458984,0.9293823,-0.0032348633,-5.859375,-3.109375,-0.359375
1695289543576,0.114746094,0.8756714,-0.06011963,-2.375,10.65625,-1.984375
1695289543621,0.13647461,0.9821167,-0.054016113,5.40625,11.53125,0.359375
1695289543661,0.11987305,1.0770874,-0.07867432,8.703125,11.828125,-2.25
1695289543714,0.075927734,1.0438843,-0.108947754,2.828125,0.484375,-1.15625
1695289543746,0.11376953,0.9882202,-0.05987549,-4.25,-5.453125,0.265625
1695289543802,0.13427734,0.96258545,-0.023498535,0.3125,-6.984375,0.375
1695289543813,0.14770508,0.9628296,-0.023498535,3.609375,-3.65625,1.859375
1695289543868,0.14355469,0.97454834,-0.03692627,1.890625,-1.953125,-0.875
1695289543888,0.14038086,1.0106812,-5.493164E-4,-2.8125,-1.953125,-0.828125
1695289543938,0.14428711,0.9994507,-0.020568848,-0.46875,-3.1875,0.046875
1695289543968,0.13500977,0.9723511,-0.03326416,-0.125,-4.109375,1.265625
1695289544014,0.1315918,0.9882202,-0.020324707,0.296875,-5.171875,1.703125
1695289544053,0.12963867,0.9970093,-0.024230957,-0.171875,-3.953125,0.375
1695289544093,0.13232422,0.99090576,-0.0256958,-1.640625,-4.234375,-0.6875
1695289544126,0.13671875,0.99383545,-0.022521973,-4.390625,-2.890625,0.296875
1695289544181,0.12475586,0.99261475,-0.02935791,-4.046875,-1.578125,-0.5
1695289544217,0.1381836,0.97698975,-0.04449463,-4.6875,-2.15625,-0.65625
1695289544249,0.123291016,0.99676514,-0.05621338,-6.515625,0.875,-0.640625
1695289544283,0.104003906,0.99334717,-0.07867432,-11.984375,-10.25,-1.59375
1695289544331,0.103515625,0.9430542,-0.045959473,-11.71875,-16.5625,0.046875
1695289544378,0.18701172,0.9298706,-0.0791626,-13.546875,-0.9375,4.078125
1695289544407,0.16625977,0.96868896,-0.007873535,-5.546875,10.40625,1.171875
1695289544441,0.1184082,0.9640503,-0.10040283,7.8125,9.078125,-0.984375
1695289544488,0.1274414,0.99432373,-0.06524658,7.03125,9.15625,-0.375
1695289544546,0.14282227,0.9862671,-0.0647583,13.109375,11.015625,-1.421875
1695289544567,0.10546875,0.91326904,-0.09088135,14.53125,12.59375,-3.03125
1695289544656,0.10522461,0.9525757,-0.06378174,4.703125,8.390625,1.125
1695289544660,0.12084961,0.96380615,-0.039611816,5.0,4.90625,-1.734375
1695289544679,0.11791992,0.91448975,-0.039855957,1.265625,4.5,-2.984375
1695289544725,0.14526367,0.9520874,-0.0071411133,3.375,12.203125,0.859375
1695289544769,0.11035156,1.0280151,-0.085754395,14.3125,11.9375,-2.1875
1695289544804,0.10839844,1.0358276,-0.031066895,-4.625,-3.4375,-0.4375
1695289544837,0.16674805,1.0385132,-0.02520752,-5.28125,-6.375,0.84375
1695289544881,0.17675781,0.9816284,-0.02911377,1.484375,-7.640625,-0.921875
1695289544915,0.15551758,0.93670654,-0.017150879,-1.40625,-3.671875,1.140625
1695289544961,0.14990234,0.9645386,-0.02178955,-1.734375,-4.28125,1.65625
1695289544996,0.13793945,0.97576904,-0.027160645,-1.203125,-0.28125,0.109375
1695289545037,0.13452148,1.0106812,-0.026672363,-1.421875,-2.0625,1.015625
1695289545073,0.13354492,0.98895264,-0.03741455,-1.140625,-2.171875,1.25
1695289545116,0.13061523,0.9996948,-0.039855957,-4.1875,-5.75,2.34375
1695289545151,0.14111328,1.0106812,-0.019836426,-3.078125,-8.109375,1.03125
1695289545196,0.1508789,0.9882202,-0.023742676,-5.078125,-7.28125,0.625
1695289545229,0.13867188,0.99749756,-0.018371582,-4.921875,-6.640625,0.84375
1695289545274,0.14013672,0.9682007,-0.016662598,-6.109375,-2.46875,0.4375
1695289545308,0.12963867,0.98065186,-0.024719238,-1.71875,4.546875,-1.21875
1695289545353,0.13305664,0.9616089,-0.058654785,-0.84375,2.046875,-1.171875
1695289545388,0.13452148,0.97698975,-0.05596924,-3.09375,2.453125,-1.0625
1695289545433,0.12084961,0.98114014,-0.051574707,-4.546875,2.5625,-0.296875
1695289545465,0.13891602,0.94866943,-0.06451416,-4.859375,2.140625,1.921875
1695289545510,0.13354492,0.94818115,-0.06329346,-1.265625,7.34375,1.3125
1695289545570,0.1340332,0.9747925,-0.053771973,-0.9375,8.59375,0.40625
1695289545589,0.10595703,0.97528076,-0.04888916,4.375,11.90625,-1.34375
1695289545647,0.13378906,0.9393921,-0.07598877,8.984375,12.265625,-2.140625
1695289545671,0.13134766,0.92401123,-0.070129395,1.90625,8.953125,-0.75
1695289545704,0.115478516,0.9467163,-0.032043457,-0.328125,3.96875,-1.140625
1695289545748,0.12792969,0.9110718,-0.101135254,1.734375,7.953125,0.484375
1695289545779,0.099853516,1.0285034,-0.066711426,5.34375,6.359375,0.359375
1695289545824,0.08984375,1.053894,-0.059387207,2.3125,0.46875,0.796875
1695289545880,0.10595703,0.98773193,-0.06744385,2.171875,-5.421875,3.15625
1695289545904,0.15698242,0.9852905,-0.09503174,3.390625,-3.90625,2.265625
1695289545937,0.14038086,0.951355,-0.0335083,-0.6875,-4.171875,2.328125
1695289545984,0.12817383,0.98309326,-0.034729004,-0.109375,-2.796875,1.390625
1695289546021,0.14282227,0.9874878,-0.018615723,-2.984375,-2.984375,0.125
1695289546064,0.13183594,0.99334717,-0.04156494,-1.984375,-1.953125,-0.0625
1695289546095,0.12036133,0.98968506,-0.054260254,-4.4375,-5.21875,2.453125
1695289546141,0.111083984,0.982605,-0.038391113,-4.25,-4.640625,2.296875
1695289546175,0.11987305,0.9928589,-0.058898926,-2.5,-6.203125,1.125
1695289546222,0.12768555,0.9928589,-0.08453369,-2.59375,-11.59375,0.46875
1695289546254,0.11767578,0.996521,-0.07965088,-9.53125,-14.28125,0.59375
1695289546298,0.13598633,1.0465698,-0.053527832,-6.3125,-14.890625,0.578125
1695289546332,0.15356445,0.95233154,-0.04547119,-4.6875,-12.828125,-0.28125
1695289546377,0.1003418,0.97210693,0.011657715,-6.6875,-0.25,-1.640625
1695289546411,0.13330078,0.9425659,-0.035705566,4.421875,8.0,-0.296875
1695289546457,0.111083984,0.97283936,-0.043762207,7.6875,9.921875,-2.75
1695289546512,0.12573242,0.9953003,-0.059143066,11.734375,7.765625,-2.515625
1695289546538,0.12792969,0.9664917,-0.023986816,6.65625,10.640625,-1.546875
1695289546593,0.11743164,0.9874878,0.012634277,16.4375,12.765625,-3.671875
1695289546612,0.1027832,0.92523193,0.0060424805,23.09375,16.859375,-5.078125
1695289546660,0.16577148,0.9557495,-0.034973145,12.4375,17.75,0.3125
1695289546691,0.13745117,0.9904175,0.008239746,1.84375,14.921875,-1.9375
1695289546727,0.15258789,0.9677124,-0.027648926,-4.875,3.09375,-2.125
1695289546771,0.11669922,0.887146,-0.0015258789,-4.921875,11.015625,0.078125
1695289546804,0.12963867,0.97943115,0.011169434,0.265625,6.5,3.25
1695289546851,0.12988281,1.0775757,-0.0012817383,4.828125,3.5,0.984375
1695289546885,0.13989258,1.0194702,-0.045959473,2.78125,-2.421875,-0.421875
1695289546928,0.13427734,0.95965576,0.0033569336,-3.203125,-5.3125,-0.203125
1695289546964,0.15893555,0.98114014,0.012634277,1.109375,-6.90625,3.0
1695289547011,0.15722656,0.9816284,0.0211792,-3.421875,-7.09375,1.609375
1695289547056,0.1340332,0.98358154,0.039489746,-5.890625,-4.09375,0.953125
1695289547088,0.12939453,0.9772339,0.02142334,-2.765625,-3.5,1.5
1695289547119,0.13891602,0.9882202,6.713867E-4,-3.765625,-2.640625,1.171875
1695289547177,0.12939453,0.9928589,0.0045776367,-5.375,-1.203125,0.765625
1695289547201,0.1303711,0.98895264,-0.015197754,-4.953125,-2.34375,1.0
1695289547243,0.1352539,0.9977417,-0.03326416,-5.09375,-8.140625,0.5625
1695289547275,0.1381836,1.0004272,-0.032043457,-11.921875,-11.90625,1.390625
1695289547322,0.17016602,1.0409546,-0.030578613,-18.765625,-20.9375,4.40625
1695289547355,0.11767578,1.0812378,-0.049865723,-2.296875,-22.71875,1.4375
1695289547402,0.11450195,0.9437866,0.022399902,-13.3125,-2.453125,-3.078125
1695289547433,0.09643555,0.83807373,-0.041809082,2.015625,13.75,-7.078125
1695289547479,0.12768555,0.871521,-0.06036377,8.34375,13.921875,-1.625
1695289547526,0.13867188,1.0170288,-0.015686035,8.8125,11.078125,-0.75
1695289547583,0.15332031,1.0448608,-0.022033691,6.21875,11.65625,-1.875
1695289547604,0.17163086,1.0158081,-0.0037231445,4.71875,9.640625,-3.140625
1695289547660,0.14550781,0.92962646,-0.0025024414,6.40625,12.0,-2.546875
1695289547682,0.13623047,0.93377686,-0.0178833,6.0,15.96875,-1.65625
1695289547721,0.15185547,0.918396,-0.050109863,2.96875,10.90625,-0.421875
1695289547761,0.13256836,0.9454956,-0.0064086914,2.25,9.375,-0.78125
1695289547795,0.12890625,0.8915405,-0.08331299,10.890625,12.515625,-0.34375
1695289547839,0.092041016,1.0385132,-0.013977051,3.625,4.4375,1.015625
1695289547873,0.12670898,1.0587769,-0.03741455,1.171875,-3.40625,2.046875
1695289547920,0.16137695,1.00531,-0.007873535,-9.515625,-8.46875,2.125
1695289547952,0.15649414,0.99432373,0.018005371,-0.828125,-4.96875,2.234375
1695289547997,0.14477539,0.9672241,-0.0049438477,-0.9375,-4.03125,1.625
1695289548030,0.15258789,0.9899292,0.00970459,-7.140625,-3.171875,1.09375
1695289548077,0.15551758,0.98358154,-0.01739502,-3.609375,-1.9375,1.578125
1695289548109,0.13110352,0.9916382,-0.020324707,-3.46875,-1.03125,1.265625
1695289548190,0.13061523,1.001648,-0.019348145,-4.1875,-4.3125,1.75
1695289548202,0.14501953,0.9935913,-0.041809082,-4.046875,-2.46875,1.03125
1695289548237,0.1274414,0.9989624,-0.030578613,-2.671875,-5.84375,-0.65625
1695289548265,0.13671875,0.99823,-0.054016113,-2.203125,-5.921875,-1.0625
1695289548311,0.13012695,1.0116577,-0.027648926,-3.03125,-11.125,0.328125
1695289548347,0.12817383,0.98358154,-0.0491333,-1.484375,-9.03125,-0.421875
1695289548395,0.14550781,0.9867554,-0.016418457,-7.34375,-5.421875,-0.953125
1695289548449,0.140625,0.9664917,-0.01373291,-4.265625,3.40625,-2.296875
1695289548471,0.15161133,0.9328003,-0.027648926,-1.453125,6.1875,-1.96875
1695289548525,0.14916992,0.9533081,-0.034240723,3.1875,7.34375,-1.0625
1695289548585,0.15478516,0.97283936,-0.013000488,5.46875,10.625,-0.421875
1695289548589,0.15820312,0.98309326,-0.029846191,7.5625,10.953125,-0.9375
1695289548667,0.1418457,0.9694214,0.014343262,10.59375,7.546875,-1.09375
1695289548676,0.14501953,0.9594116,0.020446777,14.53125,15.453125,-1.734375
1695289548706,0.15966797,0.97650146,-0.005432129,8.34375,22.25,-2.234375
1695289548740,0.118896484,0.92401123,-0.062561035,8.90625,18.140625,-3.5625
1695289548784,0.14331055,0.9459839,-0.04107666,-5.484375,1.46875,1.5625
1695289548825,0.11694336,0.9262085,-0.047912598,-8.171875,-2.203125,3.734375
1695289548864,0.13427734,1.0057983,-0.012268066,-2.125,-0.890625,4.625
1695289548909,0.15478516,1.0602417,0.007507324,-5.5625,4.375,3.4375
1695289548943,0.12768555,1.0326538,-0.034240723,-2.78125,-1.921875,-0.359375
1695289548978,0.11621094,0.94158936,-0.046447754,0.203125,-5.375,-0.03125
1695289549020,0.12890625,0.9838257,-0.005432129,-3.25,-4.546875,1.953125
1695289549054,0.123046875,0.9935913,-0.013977051,4.359375,-3.171875,0.671875
1695289549106,0.14477539,0.99798584,-0.023742676,2.890625,-2.234375,-0.34375
1695289549133,0.14208984,0.9928589,0.003112793,0.328125,-4.375,0.015625
1695289549182,0.15209961,0.996521,-0.0022583008,-1.328125,-2.984375,0.359375
1695289549218,0.1496582,0.98895264,-0.0015258789,-6.21875,-1.234375,-0.359375
1695289549260,0.1550293,0.9813843,-0.0051879883,-6.15625,-0.234375,0.234375
1695289549290,0.15356445,1.0023804,-0.016906738,-4.171875,-0.234375,2.296875
1695289549336,0.12597656,1.0072632,-0.035461426,-1.609375,-0.96875,1.484375
1695289549393,0.122558594,0.9628296,-0.042053223,-4.875,-5.5625,1.09375
1695289549416,0.114746094,0.94647217,-0.03277588,-5.171875,-4.40625,1.578125
1695289549450,0.12646484,0.9750366,-0.024230957,-3.40625,-0.734375,1.25
1695289549504,0.125,0.9857788,-0.06036377,-1.9375,-0.6875,1.546875
1695289549528,0.095703125,1.0075073,-0.06842041,-5.578125,-6.859375,2.046875
1695289549574,0.11352539,0.98236084,-0.03717041,-5.765625,-6.625,3.71875
1695289549621,0.10473633,0.98968506,-0.03692627,-0.046875,2.84375,3.328125
1695289549650,0.13745117,0.93377686,-0.05670166,0.59375,3.296875,4.734375
1695289549685,0.13574219,0.97332764,-0.02178955,2.53125,-1.234375,0.25
1695289549731,0.16992188,1.0038452,0.0048217773,-2.015625,2.109375,-0.546875
1695289549763,0.10498047,0.914978,-0.06549072,2.484375,3.5625,-4.359375
1695289549808,0.087646484,0.95648193,-0.082336426,2.5625,1.46875,-3.609375
1695289549844,0.119384766,1.0292358,-0.059143066,-0.03125,0.390625,-2.828125
1695289549889,0.12963867,1.012146,-0.028137207,-2.40625,-2.375,-4.5
1695289549923,0.11401367,0.9603882,-0.029846191,1.03125,-1.453125,-5.90625
1695289549969,0.15771484,1.0223999,0.028259277,13.546875,12.125,-3.828125
1695289549999,0.19067383,0.9039917,-0.05303955,21.859375,26.28125,-5.53125
1695289550044,0.15820312,0.96746826,-0.07672119,-1.0,15.921875,0.625
1695289550080,0.072509766,0.9852905,0.03387451,-7.984375,-2.65625,-0.484375
1695289550136,0.1940918,0.9381714,-0.06011963,3.921875,-8.390625,2.484375
1695289550159,0.19262695,0.99139404,0.0099487305,-2.859375,-0.5625,3.5
1695289550201,0.10864258,1.0177612,0.018005371,-1.75,1.015625,1.359375
1695289550235,0.14355469,0.9418335,-0.035949707,-4.09375,-5.609375,2.171875
1695289550283,0.15893555,0.97332764,-0.028137207,-6.140625,-1.578125,2.140625
1695289550315,0.119384766,0.9940796,-0.010070801,-1.515625,1.765625,0.515625
1695289550371,0.13012695,0.996521,-0.04498291,-1.4375,-1.046875,1.59375
1695289550397,0.14428711,0.9762573,-0.040100098,-5.734375,-3.234375,1.171875
1695289550453,0.13671875,0.99627686,-0.020568848,-2.5,-2.8125,1.515625
1695289550472,0.14672852,0.9840698,-0.039855957,1.125,0.09375,-0.71875
1695289550527,0.14868164,0.98724365,-0.043762207,0.03125,0.5,-2.234375
1695289550551,0.15942383,0.98431396,-0.055480957,-0.234375,-1.484375,-2.1875
1695289550609,0.15307617,0.9735718,-0.04083252,-2.765625,-6.5625,-0.390625
1695289550628,0.13232422,0.9996948,-0.01739502,-6.984375,-3.859375,0.203125
1695289550674,0.1640625,0.9760132,-0.03326416,-2.796875,-4.21875,-2.15625
1695289550711,0.17651367,0.9867554,-0.029846191,-4.0625,5.765625,2.328125
1695289550752,0.13842773,0.99432373,-0.0413208,-8.703125,8.90625,6.15625
1695289550785,0.13964844,0.9537964,-0.016418457,-3.203125,3.53125,1.375
1695289550833,0.12109375,0.9550171,-0.05328369,5.46875,11.796875,-3.15625
1695289550873,0.10986328,0.9489136,-0.077697754,9.0625,11.859375,-2.59375
1695289550912,0.15185547,0.9894409,-0.06866455,5.640625,9.171875,-0.9375
1695289550946,0.1418457,0.9701538,-0.058166504,1.515625,7.453125,-1.09375
1695289551002,0.11328125,0.95233154,-0.034240723,1.671875,5.203125,-0.609375
1695289551036,0.13305664,0.94207764,-0.030334473,3.03125,3.53125,-0.53125
1695289551070,0.123046875,0.9088745,-0.027893066,2.453125,1.8125,-1.25
1695289551102,0.12792969,0.9369507,-0.066467285,5.53125,10.734375,-0.578125
1695289551150,0.10668945,1.053894,-0.00982666,6.671875,9.28125,-2.171875
1695289551182,0.12719727,1.0285034,-0.06915283,7.234375,2.328125,-2.0
1695289551225,0.15112305,0.98114014,-0.04473877,-3.40625,-6.328125,0.96875
1695289551264,0.17529297,0.9852905,-0.011779785,-1.296875,-5.609375,1.71875
1695289551304,0.17016602,0.97943115,0.008483887,0.03125,-1.671875,-0.078125
1695289551339,0.14428711,0.9598999,-0.004699707,-0.9375,-2.484375,-0.046875
1695289551395,0.14770508,0.9689331,-0.012023926,-2.359375,-0.96875,0.15625
1695289551418,0.14672852,0.99383545,-0.0256958,-2.3125,-0.109375,0.234375
1695289551476,0.13549805,0.9784546,-0.035705566,-1.328125,-1.3125,0.46875
1695289551494,0.13647461,0.9840698,-0.038879395,-7.0625,-6.640625,2.546875
1695289551543,0.1538086,1.0082397,-0.024475098,-6.40625,-9.265625,3.125
1695289551574,0.13452148,1.0004272,-5.493164E-4,-6.453125,-5.640625,2.375
1695289551622,0.16308594,0.97821045,-0.04083252,1.734375,-1.421875,0.59375
1695289551659,0.13867188,0.9557495,-0.050109863,-3.078125,-0.140625,-0.828125
1695289551699,0.13208008,0.9723511,-0.0413208,-5.171875,-0.984375,0.046875
1695289551734,0.14038086,0.98114014,-0.069885254,-1.6875,-0.125,-0.765625
1695289551781,0.16259766,0.98236084,-0.050354004,-5.09375,-1.6875,0.40625
1695289551811,0.1418457,0.9508667,-0.026916504,-1.046875,-3.09375,4.859375
1695289551856,0.11279297,0.94647217,-0.043273926,-5.8125,4.265625,5.703125
1695289551889,0.119628906,0.9767456,-0.08721924,-2.8125,5.34375,2.953125
1695289551939,0.14404297,0.98846436,-0.0068969727,-0.6875,-0.28125,2.546875
1695289551986,0.12841797,0.99676514,-0.032043457,8.046875,7.171875,0.40625
1695289552014,0.10986328,0.93573,-0.0635376,2.59375,6.265625,0.03125
1695289552047,0.08251953,0.93865967,-0.04888916,0.375,5.15625,0.828125
1695289552094,0.080322266,0.930603,-0.050598145,-1.984375,9.96875,-0.703125
1695289552126,0.09741211,0.9537964,-0.07940674,2.765625,15.609375,-0.765625
1695289552172,0.096191406,1.0634155,-0.04937744,-0.28125,5.5,-1.859375
1695289552205,0.1003418,1.0011597,-0.12872314,1.96875,2.0,-1.0
1695289552271,0.110839844,0.993103,-0.07867432,0.578125,-4.8125,-0.0625
1695289552285,0.14038086,0.99383545,-0.035217285,3.015625,-5.140625,-1.28125
1695289552342,0.1508789,0.9418335,-0.034240723,1.28125,-4.265625,-0.890625
1695289552365,0.13842773,0.95184326,-0.030578613,-1.28125,-0.640625,-1.34375
1695289552419,0.14111328,1.0165405,-0.023742676,-1.453125,2.46875,-1.015625
1695289552442,0.1262207,0.9970093,-0.062805176,-0.140625,-0.65625,-0.421875
1695289552485,0.11669922,0.9725952,-0.054016113,-3.953125,-2.703125,0.859375
1695289552521,0.12182617,0.9874878,-0.058410645,-2.1875,-1.453125,1.875
1695289552565,0.125,0.9953003,-0.06378174,-4.8125,-4.125,1.8125
1695289552598,0.12719727,1.0050659,-0.0413208,-5.25,-4.421875,2.25
1695289552645,0.14233398,0.99090576,-0.09649658,-0.453125,-3.625,1.9375
1695289552678,0.1184082,0.97332764,-0.07574463,-1.21875,-9.171875,1.78125
1695289552722,0.10913086,1.0040894,-0.058410645,-4.921875,-6.15625,0.375
1695289552755,0.12182617,0.979187,-0.06890869,-10.25,-0.71875,-3.046875
1695289552803,0.122558594,0.98431396,-0.07525635,-1.5,2.890625,-5.0625
1695289552833,0.1809082,1.0372925,0.058044434,5.984375,13.4375,-10.5625
1695289552881,0.1628418,0.74823,-0.20562744,15.421875,11.859375,-0.421875
1695289552912,0.1027832,0.9611206,-0.058410645,-5.46875,0.234375,4.765625
1695289552958,0.15649414,1.1339722,0.028503418,-9.21875,2.078125,1.546875
1695289552991,0.15234375,0.9762573,-0.050842285,-7.53125,2.15625,2.078125
1695289553037,0.11743164,0.9393921,-0.06964111,2.171875,0.578125,3.765625
1695289553075,0.08984375,0.902771,-0.12261963,-1.640625,3.34375,3.015625
1695289553115,0.09423828,0.97698975,-0.04864502,-8.359375,0.84375,2.5
1695289553148,0.078125,0.8973999,-0.13995361,6.578125,11.859375,-0.59375
1695289553208,0.091552734,0.9633179,-0.11065674,0.375,10.34375,2.421875
1695289553229,0.11816406,1.008728,-0.1338501,-2.25,11.375,0.0625
1695289553285,0.09692383,0.9862671,-0.17852783,-6.171875,2.140625,0.890625
1695289553306,0.12084961,0.9747925,-0.093322754,-16.25,-0.09375,4.9375
1695289553363,0.15551758,0.993103,-0.13580322,-7.546875,-0.375,2.828125
1695289553385,0.11279297,0.98114014,-0.089904785,-5.875,-2.4375,3.375
1695289553433,0.092041016,0.98114014,-0.13214111,2.421875,-2.828125,2.40625
1695289553467,0.07446289,0.98846436,-0.13336182,1.0625,-1.921875,-0.390625
1695289553510,0.08300781,0.98651123,-0.128479,5.671875,-1.4375,-1.5625
1695289553566,0.083740234,0.9628296,-0.1651001,6.0625,-0.546875,-2.28125
1695289553587,0.091552734,0.96795654,-0.13677979,1.90625,0.125,-2.34375
1695289553622,0.11279297,0.9838257,-0.13995361,3.40625,-0.265625,-1.65625
1695289553667,0.14038086,0.98480225,-0.097473145,-0.78125,-0.328125,-0.828125
1695289553701,0.13964844,0.9970093,-0.09893799,8.25,-0.3125,-1.46875
1695289553747,0.13891602,0.98480225,-0.0869751,10.59375,-1.046875,-1.09375
1695289553787,0.12451172,0.977478,-0.07672119,8.84375,1.984375,-1.09375
1695289553827,0.12158203,0.99554443,-0.07159424,11.03125,1.734375,-1.1875
1695289553863,0.08911133,0.98358154,-0.026184082,4.90625,0.640625,0.421875
1695289553905,0.104003906,0.965271,-0.06109619,0.46875,0.484375,1.015625
1695289553941,0.12109375,0.9623413,-0.0413208,-0.6875,1.46875,0.703125
1695289553984,0.111572266,0.9623413,0.0060424805,5.1875,2.5,1.171875
1695289554017,0.10449219,0.96502686,-0.027893066,1.9375,6.390625,0.8125
1695289554060,0.118896484,0.94940186,-0.035217285,-0.0625,6.203125,-0.421875
1695289554100,0.092041016,0.95965576,-0.028137207,0.03125,5.078125,0.875
1695289554163,0.09790039,0.9555054,-0.05718994,-3.015625,2.328125,2.09375
1695289554178,0.092041016,0.9628296,-0.051086426,-5.6875,0.640625,1.90625
1695289554230,0.078125,0.97161865,-0.027160645,-2.453125,3.390625,1.75
1695289554252,0.09326172,0.9928589,-0.07183838,-0.265625,10.421875,0.59375
1695289554311,0.092041016,1.0162964,-0.08673096,-5.515625,6.765625,-1.765625
1695289554331,0.048095703,0.9606323,-0.120666504,-1.828125,-0.140625,-2.859375
1695289554376,0.103515625,0.96795654,-0.089904785,-8.359375,-3.203125,-0.15625
1695289554411,0.14624023,1.020935,-0.082336426,-5.640625,0.53125,-0.375
1695289554458,0.13574219,1.0011597,-0.07281494,-2.640625,1.234375,-1.125
1695289554491,0.1274414,0.9735718,-0.08111572,1.21875,-0.34375,-2.0625
1695289554533,0.12524414,0.9735718,-0.08355713,1.609375,-1.6875,-1.375
1695289554567,0.11694336,0.9696655,-0.08917236,2.3125,-0.46875,-1.46875
1695289554618,0.109375,0.99212646,-0.08111572,2.125,-0.890625,-0.796875
1695289554646,0.12060547,0.99017334,-0.078430176,3.3125,-0.734375,-1.109375
1695289554694,0.123046875,0.98602295,-0.057434082,3.140625,-1.046875,-0.5
1695289554725,0.1381836,1.0092163,-0.046936035,4.796875,-1.859375,0.125
1695289554776,0.13720703,0.9804077,-0.058410645,7.453125,-0.34375,-1.0625
1695289554828,0.12475586,0.99139404,-0.04473877,5.96875,0.703125,-0.953125
1695289554849,0.12548828,0.99261475,-0.032043457,4.703125,1.3125,-2.25
1695289554882,0.1328125,0.97528076,-0.030090332,4.984375,0.359375,-1.5625
1695289554926,0.12158203,0.9677124,-0.02154541,-0.046875,0.8125,-0.21875
1695289554962,0.12841797,0.9743042,-0.023498535,3.796875,1.671875,-0.6875
1695289555008,0.14208984,0.97454834,-3.0517578E-4,0.8125,2.171875,0.203125
1695289555038,0.13647461,0.9762573,0.002380371,3.8125,3.015625,0.921875
1695289555083,0.13232422,0.9755249,0.0028686523,3.484375,1.90625,1.484375
1695289555117,0.122802734,0.9738159,-3.0517578E-4,-2.203125,4.5625,0.84375
1695289555162,0.11621094,0.9562378,-0.012512207,-1.890625,5.15625,1.359375
1695289555220,0.0925293,0.95648193,-0.032287598,-2.3125,3.328125,1.65625
1695289555242,0.09423828,0.9476929,-0.039123535,-3.515625,0.53125,1.515625
1695289555297,0.08496094,0.930603,-0.02911377,-3.359375,3.625,0.96875
1695289555323,0.1184082,0.9904175,-0.026916504,-6.796875,8.75,2.515625
1695289555356,0.12817383,1.0397339,-0.023254395,-6.796875,7.921875,0.109375
1695289555400,0.12768555,1.0089722,-0.0803833,3.125,0.875,-0.828125
1695289555433,0.11376953,0.97869873,-0.07550049,-1.640625,-1.671875,-0.3125
1695289555478,0.12719727,1.0028687,-0.0413208,0.296875,-3.015625,-0.1875
1695289555511,0.1328125,0.9689331,-0.03326416,-0.140625,-0.609375,-0.515625
1695289555558,0.10620117,0.97991943,-0.047912598,3.34375,1.3125,-2.0625
1695289555643,0.11645508,0.9867554,-0.05645752,3.09375,-1.046875,-1.90625
1695289555650,0.11987305,0.98846436,-0.030822754,1.265625,-1.421875,-1.46875
1695289555675,0.12207031,0.9904175,-0.027404785,2.90625,-1.953125,-1.5
1695289555714,0.12939453,0.98895264,-0.008117676,1.21875,-2.5,-1.59375
1695289555751,0.14111328,0.9852905,-0.016418457,4.453125,-0.8125,-1.96875
1695289555793,0.14746094,1.0018921,-0.0020141602,-0.515625,-1.46875,-0.0625
1695289555828,0.1574707,1.0048218,0.007019043,-4.640625,-1.296875,1.046875
1695289555872,0.15185547,0.9684448,-0.01373291,-3.0,-0.078125,0.4375
1695289555909,0.1381836,0.9723511,-0.014465332,-2.921875,1.671875,0.78125
1695289555953,0.13671875,0.9664917,-0.018615723,-2.078125,2.375,0.703125
1695289555987,0.12890625,0.96258545,-0.03277588,-1.9375,2.484375,0.734375
1695289556029,0.1237793,0.97576904,-0.038391113,-1.078125,2.828125,0.328125
1695289556091,0.13330078,0.9906616,-0.043762207,-2.375,1.125,0.828125
1695289556109,0.12792969,0.9562378,-0.039367676,0.15625,-2.171875,0.78125
1695289556167,0.123535156,0.9923706,-0.008850098,-2.921875,0.9375,1.3125
1695289556187,0.12524414,0.9657593,-0.02935791,2.46875,2.65625,-0.71875
1695289556220,0.11254883,0.9628296,-0.039611816,-1.28125,2.734375,0.5625
1695289556266,0.107177734,0.9459839,-0.04864502,0.046875,1.234375,0.859375
1695289556301,0.09741211,0.9489136,-0.02130127,1.140625,0.796875,0.359375
1695289556354,0.13549805,0.9755249,-0.021057129,-2.765625,7.625,1.421875
1695289556378,0.14672852,1.0187378,-0.0256958,-3.453125,10.09375,0.40625
1695289556434,0.11645508,0.9882202,-0.06890869,2.9375,5.40625,-0.0625
1695289556457,0.11767578,0.982605,-0.07354736,-5.03125,0.203125,1.859375
1695289556504,0.13867188,0.993103,-0.06060791,-4.859375,-1.25,1.796875
1695289556534,0.114746094,0.98236084,-0.04156494,1.140625,-0.671875,0.84375
1695289556581,0.111572266,0.97283936,-0.045715332,-0.453125,-0.5625,0.375
1695289556625,0.115478516,0.9845581,-0.06890869,-0.203125,-1.1875,-0.703125
1695289556661,0.12011719,0.99139404,-0.051574707,-1.046875,-1.3125,-0.546875
1695289556694,0.109375,0.9911499,-0.04815674,3.28125,-0.640625,-0.78125
1695289556739,0.12817383,0.99993896,-0.03643799,5.09375,-1.375,0.21875
1695289556775,0.12207031,0.9804077,-0.053771973,7.421875,-0.21875,-1.171875
1695289556829,0.12402344,0.9750366,-0.027160645,-2.046875,-3.8125,0.859375
1695289556851,0.14282227,1.0082397,-0.005432129,-3.296875,-3.609375,2.171875
1695289556895,0.123046875,0.98309326,-0.024230957,-3.640625,-1.125,0.75
1695289556931,0.119140625,0.9804077,-0.014465332,-3.625,2.46875,-0.21875
1695289556978,0.10253906,0.9760132,-0.02178955,-1.71875,3.546875,-1.15625
1695289557009,0.1171875,0.98114014,-0.035705566,0.4375,4.1875,-0.359375
1695289557066,0.12011719,0.9647827,-0.043029785,0.828125,4.59375,-0.296875
1695289557098,0.12646484,0.9887085,-0.02935791,2.09375,2.875,0.453125
1695289557155,0.12451172,0.97161865,-0.03326416,3.421875,3.875,-0.046875
1695289557165,0.13256836,0.9633179,-0.027404785,5.078125,2.6875,-0.109375
1695289557221,0.10864258,0.9520874,-0.035705566,1.15625,4.203125,-0.015625
1695289557246,0.10546875,0.9762573,-0.035461426,-1.90625,2.3125,0.828125
1695289557290,0.08544922,0.92889404,-0.020812988,2.109375,1.671875,-0.4375
1695289557324,0.11669922,0.97283936,-0.028869629,-4.1875,4.046875,2.953125
1695289557369,0.12011719,1.02948,-0.04034424,-2.828125,6.515625,-0.125
1695289557404,0.09033203,0.9972534,-0.054504395,0.6875,2.640625,-2.140625
1695289557462,0.114746094,0.9838257,-0.04937744,-2.625,-3.875,-0.1875
1695289557481,0.14428711,0.9923706,-0.016662598,0.09375,-2.1875,0.203125
1695289557525,0.12768555,0.98480225,-0.032287598,0.046875,-0.828125,-0.296875
1695289557560,0.1237793,0.97650146,-0.04522705,-0.359375,-0.703125,-0.5625
1695289557618,0.12719727,0.9833374,-0.046203613,-3.203125,-2.703125,-0.328125
1695289557638,0.12084961,0.99090576,-0.031066895,-1.3125,-1.640625,-0.546875
1695289557683,0.12475586,0.9977417,-0.0413208,-1.21875,-1.4375,-0.015625
1695289557718,0.12426758,0.9935913,-0.031311035,0.125,-1.4375,-0.59375
1695289557762,0.13500977,0.9916382,-0.028869629,1.921875,-1.09375,-0.28125
1695289557795,0.13671875,0.98480225,-0.043029785,4.1875,-1.375,-0.40625
1695289557842,0.1340332,0.9928589,-0.019348145,-0.84375,-3.515625,1.34375
1695289557874,0.13500977,0.9945679,-0.034240723,-0.203125,-2.8125,1.09375
1695289557920,0.12646484,0.98065186,-0.023986816,-5.171875,-2.9375,1.265625
1695289557955,0.13110352,0.9867554,-0.01373291,-1.953125,-0.4375,0.234375
1695289557998,0.12792969,0.97650146,-0.027404785,-1.390625,0.96875,0.8125
1695289558031,0.11987305,0.9701538,-0.0154418945,-0.296875,2.28125,1.21875
1695289558089,0.115234375,0.97991943,-0.027404785,-2.0,3.296875,1.625
1695289558113,0.12426758,0.9828491,-0.035705566,0.5,5.5,0.578125
1695289558168,0.12524414,0.996521,-0.0037231445,5.90625,4.96875,0.28125
1695289558189,0.11401367,0.979187,-0.0154418945,13.40625,3.71875,0.15625
1695289558247,0.118896484,0.97772217,0.0014038086,14.03125,2.9375,-0.6875
1695289558270,0.111083984,0.95428467,-0.0015258789,10.46875,6.515625,-1.0
1695289558315,0.091308594,0.9760132,-0.0022583008,-1.046875,9.546875,1.015625
1695289558347,0.099853516,0.9459839,-0.002746582,-2.984375,5.09375,0.484375
1695289558392,0.099365234,0.9437866,0.012145996,-4.34375,0.546875,0.765625
1695289558428,0.11352539,0.9550171,-0.0032348633,-0.328125,4.3125,2.796875
1695289558473,0.11669922,1.0206909,0.024108887,-4.65625,8.40625,1.265625
1695289558528,0.13183594,1.0409546,-0.024475098,-2.796875,4.046875,-0.203125
1695289558552,0.07543945,0.993103,-0.030334473,1.46875,-2.265625,0.078125
1695289558605,0.11352539,0.979187,-0.01373291,-2.328125,-4.5,1.0
1695289558626,0.1171875,0.9857788,-0.0032348633,0.625,-2.46875,-0.125
1695289558688,0.1027832,0.9779663,-0.0095825195,-1.296875,-1.421875,-1.03125
1695289558709,0.09863281,0.98773193,-0.0051879883,-0.984375,-2.109375,-1.1875
1695289558752,0.110839844,0.9935913,4.272461E-4,-1.640625,-1.5,-0.46875
1695289558795,0.11352539,1.0026245,-0.0037231445,-1.5625,-1.25,-0.796875
1695289558831,0.123046875,1.0140991,0.028747559,-2.5625,-0.3125,-1.078125
1695289558865,0.11425781,0.9882202,0.0014038086,-0.53125,1.265625,0.4375
1695289558908,0.13793945,1.007019,-0.0017700195,4.703125,-2.03125,1.375
1695289558943,0.16186523,1.0375366,-0.0049438477,7.65625,-2.15625,-1.28125
1695289558991,0.09106445,0.9647827,0.01361084,3.875,2.09375,-4.890625
1695289559044,0.10058594,0.9569702,0.011413574,2.1875,2.484375,-4.015625
1695289559066,0.1328125,0.9711304,0.008239746,2.421875,3.484375,-3.1875
1695289559128,0.13549805,0.9874878,0.03704834,-2.390625,5.578125,-2.390625
1695289559180,0.14746094,0.98773193,0.024353027,0.84375,1.90625,-1.71875
1695289559182,0.16894531,0.9869995,0.045837402,-4.4375,-0.203125,0.375
1695289559227,0.14160156,0.96209717,0.04437256,-0.046875,1.640625,0.8125
1695289559258,0.1472168,0.9423218,0.016540527,-0.09375,3.609375,1.390625
1695289559305,0.13989258,0.9711304,0.008239746,-2.296875,2.59375,2.21875
1695289559338,0.1237793,0.98846436,0.016784668,-4.21875,6.5,1.046875
1695289559387,0.106933594,0.95233154,-0.010803223,-3.46875,4.140625,1.5625
1695289559418,0.10083008,0.9525757,-0.03375244,-1.8125,0.296875,1.515625
1695289559461,0.10083008,0.94158936,-0.013977051,-5.734375,-0.015625,2.078125
1695289559495,0.103271484,1.0136108,-0.007873535,-5.234375,2.15625,1.21875
1695289559573,0.12695312,1.0094604,-0.034240723,0.375,-0.671875,-1.734375
1695289559580,0.11401367,0.99871826,-0.017150879,-0.34375,-3.78125,0.4375
1695289559651,0.14135742,1.0067749,-0.017150879,0.0,-3.203125,0.40625
1695289559655,0.16137695,0.97869873,-0.016174316,-0.859375,-2.34375,0.0
1695289559696,0.12524414,0.9879761,-0.0068969727,1.8125,-2.546875,-0.09375
1695289559731,0.12573242,0.9689331,-0.008361816,0.828125,-3.828125,-0.296875
1695289559778,0.12939453,0.9879761,-0.0044555664,-1.84375,-1.890625,-0.703125
1695289559821,0.13232422,1.0162964,-0.010070801,1.625,-0.421875,-2.203125
1695289559856,0.14111328,0.9989624,-0.0051879883,-0.234375,-0.84375,-2.8125
1695289559889,0.13330078,0.9789429,-0.031555176,3.40625,-0.40625,-3.375
1695289559958,0.13378906,0.9828491,0.026794434,-3.796875,-4.71875,-0.765625
1695289559972,0.15209961,0.98236084,0.017028809,-2.1875,-0.28125,-0.53125
1695289560035,0.15698242,0.9801636,0.010192871,-1.3125,1.765625,-0.71875
1695289560046,0.14892578,0.9906616,0.018493652,0.234375,3.3125,-0.09375
1695289560114,0.14794922,0.98651123,-0.012023926,-0.921875,2.578125,0.703125
1695289560126,0.14868164,0.9789429,-0.012268066,-1.5625,2.125,0.953125
1695289560182,0.14257812,0.96087646,-0.0044555664,-1.09375,3.328125,0.5
1695289560211,0.14111328,0.9418335,-0.010803223,1.390625,4.203125,0.03125
1695289560247,0.1538086,0.9550171,-0.007873535,-2.953125,3.53125,0.40625
1695289560281,0.14038086,0.9767456,-0.031555176,4.828125,3.328125,0.0
1695289560325,0.13891602,1.0006714,0.0028686523,-3.0,0.78125,1.96875
1695289560360,0.111083984,0.9723511,-0.013977051,0.078125,3.609375,0.171875
1695289560419,0.10620117,0.9215698,-0.05255127,2.1875,0.734375,0.09375
1695289560440,0.09448242,0.9059448,0.023620605,-4.375,-1.234375,0.953125
1695289560485,0.140625,0.9923706,0.012878418,-2.328125,7.359375,3.609375
1695289560531,0.16894531,1.0541382,0.008239746,-0.59375,11.890625,1.34375
1695289560572,0.13989258,1.0165405,-0.039367676,3.0625,4.40625,-2.234375
1695289560597,0.12890625,0.99432373,-0.03302002,1.90625,-1.921875,1.203125
1695289560641,0.1394043,0.9879761,-0.042785645,8.703125,-0.640625,-0.265625
1695289560676,0.13549805,0.9569702,-0.009094238,8.140625,-0.796875,-1.03125
1695289560720,0.09448242,0.9850464,0.010925293,4.34375,-3.6875,0.265625
1695289560754,0.13354492,0.9840698,-6.1035156E-5,2.421875,-4.5625,-1.328125
1695289560800,0.12915039,0.9628296,0.041931152,1.0,-4.015625,-2.640625
1695289560832,0.14453125,1.0109253,0.066833496,1.9375,-2.328125,-1.265625
1695289560902,0.15722656,0.9828491,0.047546387,1.5,-4.0625,-1.921875
1695289560911,0.15844727,1.0036011,0.090026855,-1.109375,-3.40625,-0.1875
1695289560971,0.1652832,1.0162964,0.06585693,-1.625,0.046875,-0.3125
1695289560991,0.16992188,1.0285034,0.054382324,-5.625,-1.984375,0.078125
1695289561035,0.13647461,1.0158081,0.015563965,-1.4375,-1.21875,-0.921875
1695289561071,0.123535156,0.9393921,-0.012023926,-1.859375,1.078125,-2.78125
1695289561117,0.13623047,0.9130249,-0.014953613,-1.1875,-2.15625,0.28125
1695289561148,0.15454102,0.9540405,0.01361084,-2.484375,-1.390625,0.8125
1695289561192,0.1694336,0.98236084,0.03314209,-2.1875,3.796875,0.765625
1695289561239,0.17041016,0.9813843,0.026550293,-1.125,5.078125,-0.796875
1695289561271,0.16259766,0.96868896,0.026306152,0.15625,4.3125,-0.140625
1695289561318,0.15332031,0.9677124,0.024841309,-0.375,2.984375,1.140625
1695289561352,0.13769531,0.96746826,0.028503418,0.125,2.859375,2.40625
1695289561384,0.1459961,0.9879761,0.04876709,-2.203125,5.453125,2.609375
1695289561428,0.1274414,0.9581909,0.0033569336,4.078125,7.640625,0.640625
1695289561463,0.10839844,0.9755249,0.021911621,-1.546875,6.453125,2.0
1695289561508,0.10205078,0.94525146,-0.019104004,0.9375,4.890625,1.75
1695289561542,0.08935547,0.9086304,-0.013244629,-0.375,1.71875,0.671875
1695289561585,0.107666016,0.95355225,0.05633545,-6.75,-3.375,3.0625
1695289561620,0.17578125,1.0524292,0.031188965,-5.875,13.203125,4.75
1695289561665,0.18676758,1.0709839,-0.015197754,-5.90625,12.296875,-1.390625
1695289561703,0.091796875,0.9874878,-0.06817627,5.109375,-0.109375,-0.796875
1695289561746,0.12182617,0.9779663,-0.03277588,-2.765625,-8.390625,0.5625
1695289561777,0.11352539,0.96698,0.016784668,-3.75,-5.890625,-0.78125
1695289561835,0.13110352,0.98358154,-0.016418457,1.3125,-0.375,-0.078125
1695289561857,0.13720703,0.9977417,-0.018859863,-0.53125,-1.5,-0.578125
1695289561914,0.12890625,1.001648,-0.012512207,-1.234375,-3.59375,-0.609375
1695289561937,0.13476562,0.979187,-0.020080566,0.234375,-4.703125,-0.109375
1695289561994,0.12426758,0.9840698,-0.01373291,2.203125,-4.453125,-0.90625
1695289562027,0.14111328,0.9821167,-6.1035156E-5,1.390625,-3.890625,-0.828125
1695289562060,0.15722656,0.9953003,0.01751709,1.375,-2.953125,-1.28125
1695289562096,0.14770508,1.0150757,0.035095215,-1.75,-1.125,-0.75
1695289562138,0.13574219,0.99261475,0.008239746,-0.09375,0.65625,-2.578125
1695289562173,0.14038086,0.96868896,0.01751709,-2.984375,1.453125,-0.484375
1695289562221,0.13305664,0.98309326,0.010681152,-3.34375,4.578125,-0.25
1695289562251,0.13916016,0.98724365,-0.003479004,-2.4375,2.578125,-1.375
1695289562296,0.1459961,0.9723511,4.272461E-4,-5.328125,2.578125,-1.25
1695289562332,0.13989258,0.9706421,-0.02178955,-2.953125,3.796875,-0.421875
1695289562377,0.15454102,0.97161865,-0.019592285,0.078125,3.25,0.234375
1695289562408,0.15454102,0.96307373,-0.014709473,-1.203125,4.46875,-0.265625
1695289562455,0.15820312,0.9813843,-0.020568848,2.59375,5.0,0.984375
1695289562486,0.14208984,0.96502686,-0.010314941,-0.75,6.25,-0.25
1695289562533,0.1381836,0.9640503,-0.05206299,4.1875,5.28125,0.09375
1695289562567,0.13916016,0.9606323,-0.0134887695,-1.8125,3.4375,0.859375
1695289562610,0.11401367,0.93573,-0.004211426,0.796875,-0.46875,0.125
1695289562643,0.111816406,0.90374756,-0.034973145,6.390625,2.609375,2.203125
1695289562691,0.12988281,1.0045776,0.0018920898,-3.3125,7.765625,3.859375
1695289562723,0.14624023,1.0480347,-0.02520752,-0.40625,7.671875,-0.265625
1695289562791,0.13183594,1.0089722,-0.055236816,2.4375,-1.671875,0.171875
1695289562801,0.12890625,0.9816284,-0.027404785,-2.65625,-5.3125,0.46875
1695289562857,0.15527344,0.9882202,0.003112793,-4.09375,-4.640625,1.28125
1695289562894,0.14208984,0.9813843,-0.0025024414,0.265625,-2.390625,0.46875
1695289562951,0.12963867,0.9711304,-0.02154541,-0.921875,-3.03125,0.3125
1695289562959,0.12915039,0.98602295,-0.016662598,-2.453125,-3.921875,0.734375
1695289563003,0.13745117,1.0079956,-0.023498535,-1.890625,-2.140625,0.71875
1695289563038,0.12695312,0.9796753,-0.016174316,-0.40625,-2.578125,-0.59375
1695289563084,0.14013672,0.99993896,-0.0012817383,1.015625,-2.453125,-0.421875
1695289563116,0.14331055,0.98724365,-0.034240723,3.671875,-3.640625,-1.25
1695289563162,0.1496582,0.9996948,0.008728027,-4.203125,-5.515625,-0.015625
1695289563197,0.15063477,0.9970093,-0.009338379,-0.890625,-1.921875,-1.203125
1695289563241,0.1496582,0.96917725,-0.0029907227,-3.71875,-0.09375,-0.296875
1695289563285,0.13452148,0.97576904,6.713867E-4,-1.0625,1.640625,-0.875
1695289563319,0.14892578,0.9706421,-0.026428223,-1.578125,2.453125,0.375
1695289563352,0.13891602,0.9772339,-0.027404785,-3.796875,2.984375,0.171875
1695289563399,0.13598633,0.98236084,-0.020812988,-3.765625,2.203125,-0.015625
1695289563431,0.13598633,0.97528076,-0.016418457,-3.3125,2.921875,0.59375
1695289563489,0.15454102,0.9730835,-0.028137207,1.140625,3.921875,0.140625
1695289563512,0.14575195,0.9730835,-0.018615723,1.859375,7.5625,-0.890625
1695289563555,0.13012695,0.95184326,-0.038879395,4.546875,7.265625,-1.203125
1695289563589,0.12573242,0.9401245,-0.018127441,1.078125,7.3125,-0.703125
1695289563635,0.13476562,0.9664917,-0.038146973,3.15625,6.796875,-1.171875
1695289563668,0.123046875,0.92303467,-0.025939941,0.984375,8.9375,-0.84375
1695289563714,0.12207031,0.98846436,-0.00982666,1.21875,11.859375,0.78125
1695289563771,0.14111328,1.0336304,-0.05230713,5.75,5.625,0.46875
1695289563792,0.15625,1.0143433,-0.044006348,-0.140625,-1.140625,-0.5
1695289563849,0.13867188,0.9598999,-0.039123535,-1.015625,-1.5625,-0.671875
1695289563870,0.12939453,0.9657593,0.0040893555,-2.375,-5.59375,1.15625
1695289563929,0.18554688,0.98968506,-0.019348145,-3.359375,-3.546875,2.609375
1695289563949,0.17163086,0.99505615,-0.034973145,-0.484375,0.765625,1.359375
1695289564007,0.12475586,0.9904175,-0.012023926,-1.578125,-0.046875,0.203125
1695289564037,0.12670898,0.9779663,-0.03668213,-0.109375,-1.796875,0.9375
1695289564063,0.1328125,0.98358154,-0.039123535,-1.375,-2.40625,1.34375
1695289564108,0.13549805,1.0067749,-0.012268066,-4.203125,-1.09375,1.8125
1695289564139,0.14233398,0.9879761,-0.031066895,-0.46875,-0.421875,0.40625
1695289564186,0.1340332,1.0014038,-0.031799316,-0.78125,-1.28125,1.0
1695289564220,0.123046875,0.98773193,-0.0413208,2.671875,-3.609375,-0.296875
1695289564267,0.12573242,0.9862671,-0.026184082,0.90625,-3.3125,-0.125
1695289564298,0.10986328,0.9996948,-0.0154418945,2.671875,-1.796875,-1.796875
1695289564344,0.119384766,0.94940186,-0.020324707,3.828125,-0.734375,-2.234375
1695289564379,0.13745117,0.963562,-7.9345703E-4,0.421875,-2.59375,-1.21875
1695289564422,0.14550781,0.98895264,-7.9345703E-4,2.5,-0.09375,-0.734375
1695289564457,0.13696289,0.97039795,0.009216309,2.421875,-0.59375,-1.46875
1695289564500,0.13476562,0.9232788,0.015075684,-1.75,1.1875,-1.9375
1695289564535,0.14624023,0.92840576,0.01727295,-5.234375,0.265625,0.921875
1695289564588,0.1586914,0.97454834,0.016540527,-2.546875,1.75,2.71875
1695289564615,0.16894531,1.0038452,-0.002746582,-3.921875,3.1875,1.4375
1695289564659,0.14453125,0.98309326,-0.0095825195,-8.125,1.40625,1.34375
1695289564691,0.1418457,0.9562378,-0.0413208,-8.84375,2.359375,2.15625
1695289564739,0.14355469,0.9899292,-0.0647583,-8.765625,4.734375,3.46875
1695289564806,0.119628906,1.0062866,-0.07867432,-8.171875,2.734375,1.3125
1695289564817,0.09082031,0.9491577,-0.09136963,-8.125,-3.046875,0.625
1695289564862,0.13476562,0.98602295,-0.085998535,-5.734375,-2.8125,1.75
1695289564917,0.13793945,1.0072632,-0.097473145,-6.578125,1.015625,-0.65625
1695289564928,0.118896484,0.9796753,-0.10089111,-3.75,-3.265625,-0.171875
1695289564976,0.12207031,0.96551514,-0.10284424,-2.96875,-4.03125,-0.421875
1695289565007,0.13671875,0.9767456,-0.08917236,-0.84375,-3.234375,-0.609375
1695289565087,0.1381836,0.9772339,-0.07989502,3.5,-1.890625,-1.625
1695289565093,0.14208984,0.9743042,-0.08013916,3.515625,-0.21875,-1.796875
1695289565130,0.15429688,0.9977417,-0.06695557,4.40625,2.046875,-0.90625
1695289565165,0.15600586,0.9813843,-0.057678223,6.71875,3.390625,-0.953125
1695289565212,0.15283203,0.97772217,-0.047668457,5.0,1.828125,-0.15625
1695289565244,0.14819336,0.9928589,-0.043762207,6.75,0.21875,0.125
1695289565288,0.14379883,0.9838257,-0.03765869,4.5,4.90625,-2.296875
1695289565324,0.14648438,0.9706421,-0.05596924,5.078125,6.90625,-2.8125
1695289565366,0.1303711,0.9467163,-0.065979004,1.53125,5.15625,-0.296875
1695289565400,0.10668945,0.9772339,-0.02960205,-2.203125,4.671875,0.875
1695289565445,0.14672852,0.99139404,-0.027648926,2.40625,8.15625,-0.953125
1695289565490,0.18310547,0.9730835,-0.036193848,11.109375,9.671875,-1.78125
1695289565524,0.15625,0.95062256,-0.03692627,1.578125,9.625,-0.203125
1695289565557,0.16845703,0.9833374,-0.029846191,-2.015625,6.234375,1.46875
1695289565602,0.14868164,0.9574585,-0.018615723,-2.0,7.046875,0.890625
1695289565635,0.15014648,1.0014038,-0.022766113,0.546875,6.6875,1.9375
1695289565693,0.1303711,0.9696655,-0.028869629,-0.25,5.90625,0.609375
1695289565715,0.095214844,0.9425659,-0.04522705,-2.375,3.703125,2.515625
1695289565774,0.09887695,0.93304443,-0.081604004,1.765625,-3.265625,2.125
1695289565796,0.10571289,0.93865967,-0.03253174,-0.28125,-5.75,0.734375
1695289565851,0.10595703,0.9437866,-0.021057129,1.953125,-2.109375,2.765625
1695289565874,0.15454102,1.0101929,-0.047668457,-1.40625,3.34375,2.3125
1695289565917,0.14208984,1.0038452,-0.0713501,-0.53125,-2.375,-0.484375
1695289565952,0.12426758,0.9911499,-0.07281494,-0.421875,-6.125,2.09375
1695289565996,0.12646484,0.98968506,-0.046936035,-9.65625,-9.609375,5.671875
1695289566029,0.09301758,0.9928589,-0.035949707,-14.0,-10.390625,5.578125
1695289566077,0.079589844,0.9735718,-0.023986816,-9.578125,-6.34375,1.265625
1695289566109,0.125,0.9755249,-0.047912598,-3.09375,-3.234375,-1.296875
1695289566159,0.12084961,1.0160522,-0.054016113,-8.75,-2.609375,-0.71875
1695289566198,0.12988281,0.9813843,-0.07745361,-6.0,0.109375,-1.453125
1695289566234,0.13378906,0.9852905,-0.07476807,-3.671875,0.1875,0.859375
1695289566267,0.15112305,1.0023804,-0.062072754,3.0625,-0.796875,0.640625
1695289566312,0.13989258,0.9779663,-0.08355713,4.859375,0.65625,-0.75
1695289566368,0.13671875,0.98553467,-0.07086182,-0.125,2.1875,0.6875
1695289566392,0.115478516,0.9840698,-0.09820557,5.71875,1.40625,-1.5
1695289566424,0.118896484,0.9899292,-0.07598877,3.484375,-0.484375,0.484375
1695289566471,0.13134766,0.9899292,-0.044006348,3.53125,5.640625,-0.03125
1695289566514,0.111083984,0.9611206,-0.07208252,8.046875,5.015625,0.453125
1695289566548,0.10058594,0.99090576,-0.033996582,0.546875,3.984375,-1.40625
1695289566650,0.09741211,0.9579468,-0.07208252,-0.25,0.53125,2.75
1695289566664,0.12426758,0.9723511,-0.06109619,-3.046875,2.109375,2.171875
1695289566667,0.12939453,0.9899292,-0.014709473,0.671875,6.8125,0.71875
1695289566717,0.115478516,1.0026245,-0.02960205,6.96875,5.703125,-0.078125
1695289566742,0.13427734,0.951355,-0.054748535,6.390625,4.96875,0.1875
1695289566787,0.12158203,0.9586792,-0.02935791,3.609375,4.078125,0.859375
1695289566819,0.087890625,0.95892334,-0.039367676,3.234375,6.53125,-0.4375
1695289566864,0.068847656,0.96136475,-0.024963379,-2.34375,0.609375,0.875
1695289566902,0.080078125,0.9398804,-0.05328369,4.46875,0.203125,-0.65625
1695289566948,0.07788086,0.95062256,-0.027404785,-2.890625,2.9375,0.5625
1695289566978,0.10888672,1.0114136,-0.0154418945,-1.53125,10.0625,-0.609375
1695289567032,0.122802734,1.0219116,-0.06402588,0.375,3.90625,-2.140625
1695289567055,0.07910156,0.9945679,-0.062561035,-2.203125,-2.625,-1.28125
1695289567101,0.125,0.9916382,-0.035217285,-4.4375,-3.734375,-1.453125
1695289567136,0.14453125,0.9904175,-0.031311035,-3.484375,-1.484375,-0.546875
1695289567177,0.12988281,0.9718628,-0.04449463,-3.59375,-2.125,-0.859375
1695289567214,0.12841797,0.980896,-0.04498291,-4.75,-3.515625,0.3125
1695289567258,0.1184082,0.9940796,-0.04034424,-1.296875,-1.265625,-0.15625
1695289567290,0.11010742,0.9857788,-0.046936035,-0.890625,0.09375,-0.796875
1695289567339,0.1303711,0.9984741,-0.058166504,-0.5625,0.015625,-0.546875
1695289567371,0.111328125,0.97991943,-0.06011963,1.34375,-0.15625,-1.015625
1695289567426,0.11645508,0.9891968,-0.050354004,2.421875,-0.21875,-1.96875
1695289567449,0.12060547,1.015564,-0.054260254,0.453125,0.359375,-2.921875
1695289567494,0.11425781,0.9894409,0.0040893555,-9.53125,-1.328125,-1.6875
1695289567530,0.17041016,0.9696655,-0.03741455,-0.71875,1.265625,2.3125
1695289567577,0.2109375,0.94207764,-0.08673096,2.109375,3.125,2.21875
1695289567607,0.123535156,0.96551514,-0.06011963,-2.75,2.71875,1.46875
1695289567665,0.111816406,0.97943115,-0.03326416,-2.125,3.546875,-0.09375
1695289567686,0.13427734,0.9977417,-0.054016113,2.421875,2.75,0.3125
1695289567741,0.13330078,0.97772217,-0.06768799,2.328125,3.4375,0.453125
1695289567775,0.11425781,0.9682007,-0.055236816,0.265625,3.40625,0.796875
1695289567823,0.10644531,0.9657593,-0.038879395,2.1875,6.78125,0.65625
1695289567846,0.12719727,1.0026245,-0.0491333,2.46875,5.125,2.28125
1695289567889,0.14233398,0.9840698,-0.057678223,1.8125,5.46875,0.296875
1695289567919,0.09814453,0.96868896,-0.04425049,-2.21875,4.71875,0.375
1695289567969,0.09716797,0.9345093,-0.06011963,3.921875,3.96875,0.234375
1695289567999,0.103759766,0.96990967,-0.04888916,-1.625,3.125,0.3125
1695289568044,0.09106445,0.9442749,-0.04498291,3.015625,-0.34375,-1.28125
1695289568081,0.107910156,0.94085693,-0.04058838,0.046875,3.84375,-0.171875
1695289568122,0.07348633,1.0167847,-0.022521973,-1.203125,10.390625,-3.265625
1695289568156,0.12817383,1.0409546,-0.081848145,1.9375,6.0,-1.140625
1695289568204,0.1303711,1.0131226,-0.06817627,-1.59375,-0.875,-2.015625
1695289568238,0.10620117,0.9591675,-0.061340332,0.046875,-5.484375,-1.265625
1695289568280,0.12963867,0.9520874,-0.04425049,-0.984375,-5.34375,0.953125
1695289568315,0.15332031,0.9801636,-0.035217285,-0.203125,-2.234375,-0.734375
1695289568359,0.16796875,1.0033569,-0.02960205,4.125,0.9375,-3.046875
1695289568394,0.14477539,0.9723511,-0.06793213,7.21875,2.421875,-5.921875
1695289568441,0.103515625,0.99212646,-0.00592041,-5.71875,-2.125,-1.875
1695289568471,0.13769531,0.9984741,-0.0020141602,2.171875,-1.5625,-2.25
1695289568516,0.14941406,0.9594116,-0.03253174,2.046875,-2.171875,-2.140625
1695289568551,0.15307617,0.97088623,-0.024963379,-1.640625,-0.46875,1.03125
1695289568622,0.15576172,0.99090576,-0.012023926,-3.03125,0.5625,0.765625
1695289568630,0.16381836,0.9879761,-0.0044555664,-3.375,1.484375,0.140625
1695289568686,0.16870117,0.9713745,-0.04864502,-0.984375,4.515625,-0.140625
1695289568709,0.14428711,0.9672241,-0.03692627,-0.84375,1.109375,0.78125
1695289568765,0.16210938,0.9945679,-0.037902832,-1.421875,0.84375,1.65625
1695289568787,0.1550293,0.9804077,-0.058166504,-1.546875,2.078125,0.9375
1695289568832,0.13427734,0.9701538,-0.04449463,-1.125,3.140625,1.640625
1695289568865,0.13061523,0.98236084,-0.045715332,1.546875,2.859375,1.109375
1695289568926,0.14550781,0.98480225,-0.042785645,1.5625,3.265625,1.53125
1695289568947,0.12890625,0.96551514,-0.03765869,0.765625,4.828125,0.53125
1695289568990,0.12573242,0.98895264,-0.028137207,5.875,3.34375,0.84375
1695289569026,0.13134766,0.9711304,-0.02960205,2.34375,2.703125,0.921875
1695289569079,0.12402344,0.9574585,-0.04083252,2.59375,3.5,0.03125
1695289569107,0.10522461,0.95111084,-0.028625488,1.953125,-0.796875,-0.703125
1695289569148,0.11401367,0.94525146,-0.030334473,3.828125,0.53125,-0.828125
1695289569183,0.13476562,0.9899292,-0.00592041,1.53125,6.53125,-0.765625
1695289569226,0.119628906,1.0255737,-0.0032348633,1.90625,7.1875,-3.40625
1695289569261,0.14355469,0.98895264,-0.06402588,5.9375,3.0,-2.6875
1695289569318,0.17089844,0.98553467,-0.034484863,0.921875,-0.9375,-2.171875
1695289569341,0.15844727,0.9730835,0.0079956055,-2.0625,-4.546875,-1.0625
1695289569383,0.14282227,0.9672241,0.026306152,-3.0,-4.5625,-0.0625
1695289569417,0.16235352,0.9816284,-0.013977051,-1.984375,-0.140625,0.015625
1695289569473,0.15136719,0.9940796,-0.014709473,-2.703125,-1.3125,-0.8125
1695289569507,0.15209961,0.97991943,-0.006652832,-5.515625,-2.78125,0.703125
1695289569541,0.14672852,0.9804077,-0.013244629,-0.734375,-1.40625,-0.4375
1695289569598,0.14746094,0.97576904,-0.010803223,-1.578125,-2.546875,-0.015625
1695289569620,0.16699219,0.99090576,-0.04425049,-2.65625,-0.5,-1.84375
1695289569689,0.18554688,0.9840698,-0.009338379,-7.96875,-3.265625,-3.03125
1695289569709,0.18530273,0.97039795,-0.04815674,3.5,-0.203125,1.15625
1695289569792,0.15209961,0.9725952,-0.025939941,2.546875,-3.09375,2.53125
1695289569795,0.15795898,1.0023804,4.272461E-4,-4.046875,0.75,0.875
1695289569825,0.14892578,0.9706421,-3.0517578E-4,-5.15625,1.125,-0.375
1695289569857,0.1472168,0.9738159,-0.024719238,-4.46875,3.640625,1.5625
1695289569902,0.14111328,0.99627686,-0.017150879,-0.53125,3.1875,1.65625
1695289569936,0.1430664,0.96698,-0.031311035,-0.5625,1.875,1.109375
1695289569980,0.15527344,0.9762573,-0.031066895,-0.5625,0.75,1.0625
1695289570013,0.14648438,0.96746826,-0.042053223,-0.828125,3.09375,0.671875
1695289570092,0.14868164,0.9694214,-0.031799316,-4.765625,3.640625,0.171875
1695289570098,0.1459961,0.95599365,-0.082336426,3.828125,4.75,0.203125
1695289570154,0.1459961,0.977478,-0.039123535,-2.84375,1.34375,1.265625
1695289570172,0.12060547,0.9347534,-0.078186035,1.578125,0.875,-0.234375
1695289570254,0.1159668,0.9242554,-0.03668213,3.75,-1.25,-0.765625
1695289570259,0.14086914,0.9525757,-0.035461426,1.921875,7.078125,-0.21875
1695289570293,0.13916016,1.0170288,-0.022521973,-1.453125,10.953125,-1.359375
1695289570329,0.1237793,1.0214233,-0.050109863,3.234375,2.984375,-1.5625
1695289570371,0.15600586,0.9953003,-0.08331299,1.890625,-4.890625,1.4375
1695289570418,0.17944336,0.97821045,-0.031555176,-1.640625,-5.296875,0.859375
1695289570453,0.1538086,0.9628296,-0.008117676,1.5625,-2.578125,0.0625
1695289570508,0.15161133,0.9623413,-0.028137207,-0.296875,-2.203125,0.234375
1695289570564,0.15454102,0.9874878,-0.03692627,-2.09375,-1.75,-0.09375
1695289570570,0.1508789,1.007019,-0.024230957,0.40625,-0.625,0.125
1695289570621,0.14624023,0.96624756,-0.026184082,-1.890625,-1.59375,0.21875
1695289570645,0.14916992,0.9891968,-0.022766113,0.296875,-0.671875,0.265625
1695289570687,0.15991211,0.98114014,-0.020080566,1.828125,-1.546875,0.234375
1695289570720,0.15966797,0.98602295,-0.02520752,1.1875,0.203125,0.359375
1695289570765,0.15014648,0.9928589,-0.020812988,-4.25,-0.34375,0.828125
1695289570801,0.15283203,0.9862671,-0.032043457,-2.984375,-0.0625,0.46875
1695289570846,0.14453125,0.9701538,-0.054504395,-5.828125,1.0,0.875
1695289570879,0.14770508,0.9696655,-0.11578369,-8.328125,-8.859375,4.234375
1695289570923,0.13427734,1.0355835,-0.03765869,-18.453125,-27.46875,9.46875
1695289570959,0.15917969,0.9747925,-0.105041504,-17.8125,-11.109375,6.578125
1695289571003,0.12817383,0.94989014,-0.003479004,-23.390625,-1.171875,4.375
1695289571035,0.08886719,0.9398804,-0.035949707,-2.78125,13.109375,-0.875
1695289571081,0.11206055,0.9484253,-0.09283447,10.15625,8.84375,-0.4375
1695289571119,0.119384766,0.9970093,-0.101867676,8.125,10.703125,-0.546875
1695289571161,0.11767578,0.9738159,-0.10406494,9.46875,11.59375,-2.015625
1695289571195,0.11694336,0.92962646,-0.085998535,6.25,7.265625,-0.53125
1695289571238,0.110839844,0.9598999,-0.027648926,2.671875,5.546875,-1.125
1695289571283,0.12719727,0.9345093,-0.11651611,5.828125,14.140625,-3.5625
1695289571318,0.104003906,0.9569702,-0.11553955,5.484375,11.125,-4.6875
1695289571351,0.08251953,1.0512085,-0.054504395,-4.625,0.734375,-2.796875
1695289571396,0.119384766,0.96868896,-0.11090088,-2.5,-0.4375,-1.09375
1695289571431,0.14331055,0.98065186,-0.097229004,-2.59375,-2.375,-0.3125
1695289571488,0.15356445,0.9718628,-0.07940674,-3.078125,-5.0,0.109375
1695289571511,0.1616211,0.96429443,-0.07574463,-5.125,-5.53125,1.21875
1695289571567,0.1550293,0.98358154,-0.07354736,-5.234375,-2.125,0.375
1695289571586,0.13793945,0.9772339,-0.097717285,-2.828125,-2.328125,0.109375
1695289571643,0.12695312,0.98358154,-0.09259033,-3.453125,-3.546875,1.546875
1695289571667,0.13598633,0.9784546,-0.097473145,-4.03125,-3.703125,1.375
1695289571711,0.14038086,0.99261475,-0.10772705,-1.375,-3.53125,1.484375
1695289571744,0.115478516,0.9640503,-0.12872314,0.46875,-5.625,0.5
1695289571790,0.13574219,1.0211792,-0.06768799,-5.4375,-12.875,3.453125
1695289571823,0.1616211,0.98236084,-0.10357666,-2.390625,-3.90625,0.640625
1695289571868,0.13256836,0.9767456,-0.06378174,-5.25,-3.265625,0.28125
1695289571901,0.13378906,0.9525757,-0.10015869,1.625,2.203125,0.125
1695289571947,0.14208984,0.96698,-0.06500244,-0.765625,1.40625,0.71875
1695289571981,0.13183594,0.93792725,-0.10479736,3.1875,9.859375,0.015625
1695289572026,0.14111328,0.95770264,-0.12750244,0.671875,5.59375,2.59375
1695289572065,0.1496582,1.0031128,-0.09429932,-2.1875,6.84375,1.703125
1695289572104,0.140625,0.9899292,-0.058410645,-0.1875,7.265625,-1.046875
1695289572138,0.12792969,0.98187256,-0.031799316,14.28125,11.3125,-2.828125
1695289572186,0.11401367,0.84783936,-0.13092041,21.171875,15.78125,-4.109375
1695289572222,0.099609375,0.9567261,-0.089416504,1.140625,5.8125,1.359375
1695289572261,0.114990234,0.95599365,-0.08917236,-2.078125,11.4375,-1.3125
1695289572297,0.09106445,0.9996948,-0.097229004,-0.890625,8.625,-2.53125
1695289572340,0.10449219,1.0219116,-0.06817627,1.890625,2.625,-0.578125
1695289572402,0.1315918,0.9945679,-0.10601807,-2.109375,-5.0,0.21875
1695289572420,0.1508789,0.9515991,-0.09259033,-1.125,-7.0625,0.5
1695289572475,0.1459961,0.9660034,-0.051574707,-3.28125,-5.0625,0.546875
1695289572502,0.15112305,0.977478,-0.06500244,-2.515625,-2.0,0.390625
1695289572554,0.13500977,0.96990967,-0.078430176,-3.1875,-2.125,-0.8125
1695289572577,0.13012695,0.9796753,-0.07159424,-1.171875,-4.171875,1.0625
1695289572624,0.13916016,0.98651123,-0.066223145,0.8125,-1.65625,0.4375
1695289572659,0.14379883,0.99017334,-0.0569458,0.890625,0.09375,0.265625
1695289572692,0.14331055,0.9713745,-0.07672119,2.375,1.65625,-0.171875
1695289572757,0.12963867,0.97406006,-0.05718994,0.484375,1.234375,-0.1875
1695289572770,0.123046875,0.97332764,-0.06500244,2.34375,2.40625,-0.96875
1695289572820,0.13085938,0.9684448,-0.062805176,0.546875,0.984375,-0.5
1695289572848,0.14526367,0.9772339,-0.06573486,-0.53125,1.125,-0.171875
