# Sensor type: Respeck
# Activity type: Sitting
# Activity subtype: Laughing
# Subject id: s1934085
# Notes: 
timestamp,accel_x,accel_y,accel_z,gyro_x,gyro_y,gyro_z
1695900850610,-1.4572753999999999,-0.19049072,0.6027221700000001,-4.5,0.203125,0.46875
1695900850638,-1.4506836,-0.19122314,0.57904053,-4.96875,-2.71875,-0.640625
1695900850685,-1.45874023,-0.20050050000000003,0.617370605,-3.484375,-0.578125,2.40625
1695900850714,-1.4482422000000001,-0.20977783,0.5368042,5.453125,-4.96875,2.796875
1695900850759,-1.5078125,-0.16143800000000003,0.57122803,5.375,-25.984375,3.046875
1695900850804,-1.4855957,-0.18292236,0.54852295,4.421875,-12.265625,5.796875
1695900850834,-1.4765625,-0.20855712999999998,0.511169434,4.640625,-20.40625,5.03125
1695900850880,-1.4951172000000001,-0.2144165,0.476501465,4.171875,-16.140625,5.1875
1695900850924,-1.4614258,-0.24957275,0.465515137,5.421875,-29.828125,6.203125
1695900850955,-1.4963378999999999,-0.21588135000000003,0.45989990199999997,5.421875,-21.109375,-2.5
1695900851000,-1.5241699,-0.22735596000000002,0.44769287,11.796875,-23.78125,4.546875
1695900851046,-1.5822754,-0.18121337999999998,0.44720459,4.078125,6.859375,-0.484375
1695900851074,-1.3833008,-0.2029419,0.36590575999999997,1.4375,8.703125,-1.46875
1695900851119,-1.4326172000000001,-0.27593994,0.5048217773,3.5625,1.546875,-2.9375
1695900851150,-1.4577637,-0.2173462,0.3361206,-12.453125,-9.984375,10.53125
1695900851209,-1.49243164,-0.19561768000000002,0.41571045,-3.3125,-8.015625,-9.71875
1695900851240,-1.5305176,-0.21417236,0.472595215,3.25,-6.21875,-12.3125
1695900851269,-1.5200195,-0.18341064,0.33172607,8.578125,-19.546875,17.84375
1695900851315,-1.5175781,-0.22174072,0.4118042,-0.640625,20.0,-10.328125
1695900851359,-1.36035156,-0.22418212999999998,0.36785889,1.28125,0.953125,2.15625
1695900851389,-1.4277343999999998,-0.17730712999999998,0.42132568,-10.78125,2.59375,4.953125
1695900851435,-1.527832,-0.19732666,0.49017334,-0.25,-4.296875,-11.125
1695900851464,-1.5083008,-0.25689697,0.3703003,9.625,-21.671875,7.578125
1695900851510,-1.49975586,-0.1777954,0.35882568000000004,-4.484375,15.765625,2.3125
1695900851555,-1.5305176,-0.2107544,0.460388184,2.4375,17.4375,-4.703125
1695900851585,-1.37060547,-0.26593018,0.33392334,1.421875,2.25,2.109375
1695900851630,-1.42089844,-0.22564697,0.402770996,-8.09375,-3.65625,-2.546875
1695900851674,-1.5380859,-0.18170166,0.473083496,-4.875,2.859375,-5.3125
1695900851704,-1.534668,-0.24639893000000002,0.38934325999999997,8.6875,-14.5625,5.859375
1695900851750,-1.4550781000000002,-0.14923096000000002,0.37591553,2.140625,12.640625,4.140625
1695900851780,-1.4658202999999999,-0.26300049000000003,0.460876465,-0.015625,6.984375,-0.296875
1695900851840,-1.48779297,-0.23394775,0.45208740199999997,6.625,0.734375,1.96875
1695900851870,-1.3876952999999999,-0.1819458,0.3517456,2.046875,-7.140625,2.796875
1695900851900,-1.4807128999999999,-0.23101807000000002,0.44378662,-12.765625,1.625,-1.546875
1695900851945,-1.5153809,-0.21392822,0.44744873,-3.296875,2.65625,-4.921875
1695900851989,-1.4975586,-0.27227783,0.481628418,6.6875,-8.59375,-2.390625
1695900852020,-1.46533203,-0.18121337999999998,0.3571167,0.765625,-0.015625,2.625
1695900852065,-1.5085449,-0.22296143000000002,0.445983887,-3.25,9.78125,-3.90625
1695900852113,-1.48461914,-0.22833251999999998,0.45965575999999997,3.125,1.109375,-1.921875
1695900852141,-1.4702148400000001,-0.2029419,0.42474365000000003,3.96875,2.765625,0.5
1695900852185,-1.421875,-0.27130127000000004,0.42059325999999997,1.84375,-0.640625,2.078125
1695900852216,-1.4672851599999999,-0.18023682000000002,0.425476074,-7.390625,0.59375,3.46875
1695900852260,-1.4765625,-0.19610596000000002,0.4974975586,-1.28125,-0.078125,-5.796875
1695900852304,-1.5400391,-0.23443604,0.4274292,8.453125,-15.546875,0.734375
1695900852335,-1.4604492,-0.18780518000000002,0.398620605,-4.46875,7.53125,3.09375
1695900852381,-1.4916992,-0.22833251999999998,0.44281006,-0.234375,2.8125,-1.25
1695900852425,-1.4892577999999999,-0.22857666,0.45501709,5.546875,-1.953125,0.46875
1695900852456,-1.45092773,-0.19195557000000002,0.41351318,1.515625,-0.796875,-0.65625
1695900852500,-1.4716797000000001,-0.24420166,0.41351318,-6.0,-2.640625,1.875
1695900852530,-1.5063477,-0.15777587999999998,0.45159912,-4.5625,9.21875,-3.046875
1695900852578,-1.4580077999999999,-0.22296143000000002,0.486999512,0.984375,0.953125,-3.609375
1695900852620,-1.4916992,-0.21270751999999998,0.43646240000000003,1.203125,1.296875,4.65625
1695900852650,-1.47216797,-0.19366455,0.394470215,-0.8125,0.3125,-0.046875
1695900852697,-1.5268555,-0.25152588,0.4982299805,2.578125,-0.25,0.421875
1695900852741,-1.4621582,-0.21563719999999997,0.440612793,5.078125,-2.953125,1.15625
1695900852770,-1.435791,-0.2288208,0.406433105,-3.671875,-1.4375,2.109375
1695900852817,-1.4824218999999998,-0.21661376999999998,0.446472168,-7.25,-0.8125,1.0625
1695900852861,-1.4851074,-0.24346923999999998,0.46771240199999997,-1.0625,-4.875,-3.6875
1695900852891,-1.5380859,-0.20977783,0.470153809,2.890625,-0.46875,1.796875
1695900852935,-1.5637207,-0.16363525,0.445007324,-5.078125,28.0,-0.015625
1695900853011,-1.4394531000000002,-0.25152588,0.4821167,-3.046875,48.46875,-1.203125
1695900853015,-1.4099121000000001,-0.25714111,0.516784668,4.3125,4.25,-3.171875
1695900853054,-1.5253906,-0.19000244,0.547302246,-8.375,7.40625,-3.3125
1695900853100,-1.4892577999999999,-0.23394775,0.5866088899999999,-3.953125,5.234375,-1.90625
1695900853129,-1.46313477,-0.21881104,0.526794434,-0.640625,1.15625,1.078125
1695900853175,-1.49609375,-0.20684814,0.543151855,-2.234375,0.78125,-0.984375
1695900853205,-1.5075684,-0.22027587999999998,0.5692749,-2.34375,3.671875,1.125
1695900853250,-1.4782715,-0.20733643000000002,0.56097412,-1.671875,1.921875,0.046875
1695900853280,-1.47558594,-0.21002197,0.57342529,-2.78125,3.0,-0.25
1695900853324,-1.4829101599999999,-0.20733643000000002,0.570495605,-3.28125,3.5,-0.46875
1695900853369,-1.4523926,-0.22711182000000002,0.53387451,-2.078125,0.203125,-0.84375
1695900853399,-1.44970703,-0.22930908,0.54559326,-1.9375,-0.546875,-0.984375
1695900853444,-1.4760742,-0.21661376999999998,0.550476074,-1.90625,-4.453125,-0.96875
1695900853490,-1.4765625,-0.22979736,0.534362793,-1.578125,-4.265625,-0.953125
1695900853520,-1.47875977,-0.22149658,0.53778076,0.09375,-10.859375,-2.625
1695900853565,-1.4729003999999999,-0.18170166,0.56829834,1.4375,-9.84375,-2.359375
1695900853594,-1.4812012,-0.18707275,0.54852295,1.0625,-7.984375,-1.09375
1695900853639,-1.470459,-0.18804932000000002,0.547302246,-2.40625,-0.375,-2.375
1695900853685,-1.4699707,-0.15777587999999998,0.442565918,-11.84375,-15.609375,1.265625
1695900853715,-1.42407227,-0.2859497,0.452819824,4.75,-25.65625,3.546875
1695900853774,-1.6088867,-0.17315673999999998,0.53314209,1.796875,3.484375,-3.765625
1695900853805,-1.482666,-0.15093994,0.25604247999999996,3.015625,-41.453125,4.25
1695900853834,-1.4482422000000001,-0.41680908,0.461364746,7.09375,-13.0,-4.40625
1695900853880,-1.4025878999999999,-0.11944579999999999,0.406677246,-0.265625,5.28125,-4.140625
1695900853954,-1.49438477,-0.06329346000000002,0.40423584,4.40625,-32.21875,-0.484375
1695900853957,-1.4968262,-0.25518799000000003,0.24456787000000002,12.21875,-32.59375,3.375
1695900853999,-1.48999023,-0.26885986,0.440612793,-12.40625,39.625,-17.78125
1695900854030,-1.33813477,-0.06158447,0.40887450999999997,-12.484375,12.578125,-10.03125
1695900854074,-1.45043945,-0.15582275,0.36102295,15.390625,-37.0625,0.03125
1695900854120,-1.5151367,-0.1897583,0.28363037,-2.03125,-2.84375,8.921875
1695900854150,-1.40405273,-0.17071533,0.35833740000000003,-5.265625,21.546875,-5.765625
1695900854195,-1.5219727,-0.17193604,0.464050293,4.140625,-13.515625,-5.921875
1695900854239,-1.5463867,-0.12677001999999998,0.36688232,10.3125,-4.40625,8.71875
1695900854269,-1.4790039,-0.21197510000000003,0.3078003,4.09375,3.828125,12.84375
1695900854315,-1.3244628999999999,-0.34503174000000003,0.21038817999999998,3.453125,-13.375,7.296875
1695900854344,-1.4711914,-0.11651610000000001,0.43572998,-22.765625,38.921875,-20.96875
1695900854405,-1.3918457,-0.05255126999999998,0.426208496,2.640625,-0.4375,4.40625
1695900854435,-1.46850586,-0.1975708,0.40374756,10.015625,-31.078125,4.140625
1695900854465,-1.5385742,-0.22906494,0.3168335,4.109375,-4.3125,4.015625
1695900854510,-1.5437012,-0.20806885000000003,0.40765381,5.9375,7.140625,4.859375
1695900854554,-1.3530273400000001,-0.19439697,0.19256592,6.828125,-8.953125,16.265625
1695900854585,-1.4182128999999999,-0.2678833,0.3480835,-13.109375,12.421875,-16.375
1695900854630,-1.5039062,-0.17364501999999998,0.46282959,-7.296875,11.984375,-14.09375
1695900854705,-1.5246582,-0.09381104000000001,0.40350342,11.4375,-19.53125,13.703125
1695900854708,-1.4538574,-0.25567627000000004,0.28704834,10.015625,-10.78125,13.578125
1695900854750,-1.4467773400000001,-0.23223876999999998,0.30535889,-5.765625,8.953125,-8.265625
1695900854781,-1.4050293,-0.20758057000000002,0.34466553,-5.796875,5.890625,2.65625
1695900854840,-1.4760742,-0.19268800000000003,0.39544678,-4.65625,-2.984375,-2.65625
1695900854872,-1.44555664,-0.18707275,0.35687256,-0.34375,1.59375,-2.75
1695900854901,-1.5195312,-0.1946411,0.35687256,1.671875,-5.53125,0.15625
1695900854945,-1.5161133,-0.24298096000000002,0.29632568000000004,7.296875,-1.484375,6.625
1695900854991,-1.47314453,-0.25152588,0.39202881,0.421875,12.703125,3.34375
1695900855021,-1.2692871000000001,-0.19586182000000002,0.23236084,-1.421875,-8.078125,5.171875
1695900855066,-1.5605469,-0.20343018000000002,0.42108154,-9.90625,-0.90625,-19.46875
1695900855094,-1.5134277,-0.18804932000000002,0.41229248,4.703125,3.625,4.296875
1695900855141,-1.44189453,-0.16510010000000003,0.31439209,1.734375,-8.578125,5.1875
1695900855189,-1.4951172000000001,-0.24908447,0.32489014,3.5625,0.734375,-1.140625
1695900855217,-1.45043945,-0.26177979,0.34002686,4.125,3.890625,2.6875
1695900855261,-1.3564452999999999,-0.16485596000000002,0.34100342,-10.59375,8.171875,0.71875
1695900855305,-1.4655762,-0.14971923999999998,0.394226074,-4.09375,-2.671875,-6.78125
1695900855335,-1.5334473,-0.26104736,0.406677246,5.46875,-8.203125,0.484375
1695900855382,-1.49780273,-0.21929932000000002,0.31927490000000003,1.578125,-1.953125,1.734375
1695900855425,-1.5170898,-0.19635010000000003,0.3480835,0.75,5.265625,1.0625
1695900855455,-1.4355468999999998,-0.1633911,0.33441162,4.421875,6.71875,-4.15625
1695900855502,-1.36279297,-0.37261963,0.15838623000000002,-3.1875,-12.96875,6.890625
1695900855531,-1.4194336,-0.20611572,0.425720215,-12.484375,29.921875,-12.6875
1695900855575,-1.4562988,-0.08966064000000001,0.491638184,-12.484375,8.46875,-11.09375
1695900855622,-1.6396484,-0.03131104000000001,0.5033569336,15.9375,-9.296875,12.1875
1695900855651,-1.4470215,-0.3015747,0.3637085,13.375,8.890625,24.59375
1695900855710,-1.3828125,-0.29962158,0.33953857,-2.171875,18.90625,-5.078125
1695900855741,-1.4880371000000001,-0.20367432000000002,0.44622802699999997,-7.953125,14.5625,-18.203125
1695900855771,-1.5620117,-0.15899658,0.4430542,-0.28125,0.40625,3.84375
1695900855815,-1.4387207,-0.17559814,0.44329834,-8.515625,24.953125,-1.90625
1695900855847,-1.46191406,-0.20367432000000002,0.444519043,-5.203125,9.125,-2.375
1695900855891,-1.48095703,-0.20220947,0.45111084,-6.953125,4.59375,-1.78125
1695900855936,-1.4128418,-0.19854736,0.41204834,-13.15625,-2.390625,-2.0
1695900855968,-1.3010253999999999,-0.25811768,0.2362671,22.390625,-88.375,17.3125
1695900856012,-1.6118164,-0.453918457,0.62371826,-29.015625,14.90625,-27.46875
1695900856057,-1.5986328,0.15399169999999995,0.38153075999999997,-1.640625,14.40625,-10.859375
1695900856086,-1.43774414,-0.1914673,0.43280029,28.15625,-26.4375,27.390625
1695900856131,-1.310791,-0.32940674000000003,0.31414795,-5.203125,-6.859375,7.296875
1695900856160,-1.4675293,-0.14849854,0.24993896,-6.453125,-19.703125,-22.03125
1695900856207,-1.6420898,-0.2102661,0.46771240199999997,-5.796875,15.453125,-12.78125
1695900856255,-1.3569336,-0.08819579999999999,0.406677246,2.390625,18.78125,1.0
1695900856281,-1.5056152,-0.07183837999999998,0.41351318,12.46875,-25.671875,9.703125
1695900856342,-1.42407227,-0.24249268000000002,0.17156981999999998,15.234375,-33.34375,17.546875
1695900856371,-1.4260253999999999,-0.28057861,0.38519287,-13.984375,37.15625,-14.609375
1695900856400,-1.4074707,-0.05474854000000001,0.42303467,-12.203125,10.625,-10.46875
1695900856444,-1.5288086,-0.10308837999999998,0.39544678,17.875,-25.96875,9.546875
1695900856489,-1.46069336,-0.23126219999999997,0.25579834,9.578125,-12.15625,12.734375
1695900856519,-1.3984375,-0.24493408,0.17303467,-3.375,6.34375,-6.203125
1695900856564,-1.44091797,-0.29766846,0.39569092,-8.828125,18.75,-16.828125
1695900856594,-1.4226074,-0.007873540000000012,0.475769043,-15.15625,36.734375,-7.984375
1695900856640,-1.45654297,0.06756589999999996,0.48626709,5.75,-11.34375,3.046875
1695900856685,-1.5737305,-0.27716064,0.37420654,38.515625,-61.46875,31.015625
1695900856714,-1.4538574,-0.35748291,0.03558349999999999,4.6875,-7.78125,14.046875
1695900856761,-1.36450195,-0.2017212,0.34735107,-28.390625,47.75,-23.0625
1695900856806,-1.4055176,-0.07110596000000002,0.49407959,-11.59375,21.359375,-12.9375
1695900856836,-1.4326172000000001,-0.10040283,0.39764404,19.578125,-33.40625,11.75
1695900856882,-1.4758301,-0.24493408,0.22943114999999997,6.96875,-26.046875,13.203125
1695900856910,-1.5578613,-0.2185669,0.35760497999999996,-2.90625,27.6875,-1.265625
1695900856972,-1.3317871000000001,-0.17510986,0.27728271,3.4375,-0.953125,11.859375
1695900857002,-1.41967773,-0.22442626999999998,0.35662842,-9.078125,-1.8125,-12.421875
1695900857031,-1.5341797,-0.18853760000000003,0.42791748,-2.078125,12.765625,3.890625
1695900857076,-1.4484863,-0.15728760000000003,0.33734131,2.984375,-12.015625,-1.8125
1695900857121,-1.5380859,-0.2131958,0.32196045,-0.75,-1.3125,-0.171875
1695900857151,-1.47265625,-0.1868286,0.37689209,-0.21875,13.296875,-1.765625
1695900857196,-1.49243164,-0.17340087999999998,0.42010498,6.5,-4.546875,-0.625
1695900857241,-1.4489746000000001,-0.175354,0.37371825999999997,7.359375,10.59375,4.296875
1695900857272,-1.32421875,-0.17755126999999998,0.34783936,-4.484375,16.375,-0.25
1695900857316,-1.4572753999999999,-0.2444458,0.390808105,-3.453125,-1.546875,-4.421875
1695900857391,-1.4890137,-0.19635010000000003,0.38909912,-6.578125,12.234375,-2.25
1695900857396,-1.4758301,-0.17218018000000002,0.425476074,-6.65625,12.765625,-4.578125
1695900857435,-1.5187988,-0.18438719999999997,0.45159912,-4.109375,10.359375,-1.390625
1695900857465,-1.5058594,-0.15509033,0.43499756,-1.78125,9.609375,-0.484375
1695900857512,-1.47680664,-0.17193604,0.429870605,-2.640625,7.390625,-2.046875
1695900857556,-1.4807128999999999,-0.1782837,0.47552490199999997,-2.3125,10.90625,-2.21875
1695900857586,-1.4621582,-0.18121337999999998,0.47064209,-0.421875,8.046875,-0.9375
1695900857631,-1.4382324,-0.18121337999999998,0.47845459,-2.46875,7.265625,-1.578125
1695900857661,-1.4580077999999999,-0.17730712999999998,0.487976074,-2.75,8.671875,-1.25
1695900857705,-1.453125,-0.16827393000000002,0.486755371,-3.15625,6.78125,-0.546875
1695900857751,-1.4411621000000001,-0.2017212,0.4979858398,-3.59375,6.015625,0.03125
1695900857781,-1.44262695,-0.18927001999999998,0.474060059,-5.96875,0.96875,2.109375
1695900857827,-1.38500977,-0.16973876999999998,0.26751709,-3.625,-32.875,7.203125
1695900857872,-1.49487305,-0.32281494,0.543151855,-6.484375,-49.140625,-7.4375
1695900857901,-1.5400391,-0.08795165999999999,0.453063965,-0.703125,30.15625,-13.578125
1695900857947,-1.5495605,-0.042297360000000006,0.460876465,6.9375,-56.71875,7.328125
1695900857976,-1.4277343999999998,-0.27886963,0.36175537,4.890625,7.171875,11.09375
1695900858022,-1.38061523,-0.17071533,0.394958496,-0.4375,0.265625,-4.65625
1695900858067,-1.5114746,-0.12457275000000001,0.37738037,10.0625,-22.390625,-0.5
1695900858095,-1.49658203,-0.19903564,0.37078857,7.890625,8.5,4.609375
1695900858142,-1.4226074,-0.2173462,0.38616943,3.296875,4.71875,8.75
1695900858186,-1.3762207,-0.26153564,0.31390381,-3.296875,-6.84375,3.1875
1695900858216,-1.519043,-0.16925050000000003,0.39935303,-9.390625,-3.5,-12.015625
1695900858262,-1.5153809,-0.17071533,0.35150146,6.671875,-8.1875,4.265625
1695900858335,-1.4863281000000002,-0.22955322,0.39227295,0.125,1.84375,-5.25
1695900858339,-1.4780273400000001,-0.10821533,0.33782959,5.03125,-3.640625,7.0625
1695900858381,-1.4724121000000001,-0.1782837,0.3480835,3.171875,-2.984375,5.8125
1695900858426,-1.3625488,-0.22857666,0.2765503,-2.484375,3.21875,-0.40625
1695900858455,-1.43359375,-0.20758057000000002,0.440856934,-5.765625,16.96875,-7.0625
1695900858503,-1.48950195,-0.14141846000000002,0.472351074,3.640625,-1.71875,-3.0625
1695900858532,-1.470459,-0.16827393000000002,0.32708740000000003,2.6875,-21.53125,11.03125
1695900858574,-1.5195312,-0.21783447,0.33514404,1.859375,9.03125,1.46875
1695900858621,-1.4780273400000001,-0.206604,0.382751465,5.625,9.25,6.5625
1695900858651,-1.33496094,-0.2402954,0.26922607,-1.09375,-7.015625,1.859375
1695900858696,-1.48461914,-0.19439697,0.41351318,-14.625,17.0,-12.03125
1695900858726,-1.5180664,-0.20977783,0.5099487305,2.296875,6.578125,-3.59375
1695900858771,-1.451416,-0.1602173,0.3102417,8.125,-32.890625,10.625
1695900858816,-1.5144043,-0.22076416,0.34075928,-1.359375,12.765625,-0.484375
1695900858846,-1.43969727,-0.21148682000000002,0.394714355,5.0625,4.828125,4.046875
1695900858892,-1.3601074,-0.20587158,0.33758545,-6.328125,-1.640625,1.578125
1695900858935,-1.4890137,-0.17608643000000002,0.39251709,-12.46875,7.15625,-2.453125
1695900858966,-1.4836426,-0.2678833,0.40692139,3.859375,-2.765625,-0.296875
1695900859011,-1.5114746,-0.2341919,0.39544678,3.625,-6.625,-4.90625
1695900859087,-1.4902343999999998,-0.1741333,0.33782959,-1.71875,0.640625,4.46875
1695900859090,-1.4885253999999999,-0.21124268000000002,0.386901855,1.625,8.359375,-2.09375
1695900859130,-1.44873047,-0.17022705,0.3805542,4.40625,6.640625,2.046875
1695900859161,-1.38964844,-0.29595947,0.34857178,-7.96875,-1.78125,1.359375
1695900859207,-1.49194336,-0.18780518000000002,0.39520264,-8.03125,7.65625,-8.984375
1695900859251,-1.4985351599999999,-0.20318604,0.457702637,6.890625,-3.0,-0.546875
1695900859281,-1.4873047000000001,-0.21392822,0.34515381,0.625,-14.5,5.015625
1695900859326,-1.4812012,-0.22760010000000003,0.378601074,-1.1875,13.5625,-0.65625
1695900859372,-1.47094727,-0.20050050000000003,0.43109131,1.421875,1.84375,-1.640625
1695900859401,-1.4501952999999999,-0.19683837999999998,0.3961792,-0.15625,-4.359375,2.078125
1695900859446,-1.4516601599999999,-0.22735596000000002,0.34197997999999996,-4.953125,-2.5,-0.75
1695900859475,-1.5241699,-0.21148682000000002,0.471862793,-6.171875,11.734375,-5.765625
1695900859536,-1.5151367,-0.17388916,0.39324950999999997,1.90625,-1.203125,5.25
1695900859567,-1.45581055,-0.22735596000000002,0.43646240000000003,1.046875,22.0625,4.125
1695900859596,-1.42211914,-0.2168579,0.39349365000000003,1.21875,12.015625,-2.171875
1695900859641,-1.5070801,-0.16314697,0.475769043,-5.09375,17.328125,-4.640625
1695900859687,-1.4753418,-0.22247314,0.508972168,-1.421875,14.8125,1.6875
1695900859716,-1.46655273,-0.20416260000000003,0.46697998,-4.125,10.15625,-0.265625
1695900859761,-1.5097656,-0.21343994,0.4977416992,-3.578125,6.453125,-0.859375
1695900859807,-1.4902343999999998,-0.2246704,0.5018920898,-1.625,4.828125,0.375
1695900859836,-1.44555664,-0.19903564,0.4974975586,-4.359375,7.09375,-0.625
1695900859880,-1.4699707,-0.21881104,0.514343262,-4.890625,4.671875,0.25
1695900859911,-1.4633789,-0.21466064,0.5119018555,-2.609375,0.03125,-0.625
1695900859955,-1.4436035,-0.22613525,0.4967651367,-2.125,-6.03125,-0.6875
1695900860000,-1.4387207,-0.20684814,0.44769287,2.03125,-19.234375,-1.5
1695900860030,-1.5185547,-0.22784423999999998,0.524108887,6.453125,-27.171875,-5.25
1695900860076,-1.46972656,-0.20489501999999998,0.44354248,2.921875,-10.46875,1.359375
1695900860121,-1.5068359,-0.1712036,0.437194824,-0.90625,-6.015625,-3.609375
1695900860151,-1.4177246000000001,-0.19903564,0.36346436,6.78125,-42.78125,-5.203125
1695900860196,-1.5136719,-0.25592041,0.40692139,0.890625,-17.015625,-6.921875
1695900860226,-1.5500488,-0.017395019999999983,0.39202881,-8.609375,11.78125,-7.5625
1695900860271,-1.38793945,-0.17071533,0.34881592,12.890625,-22.734375,8.65625
1695900860316,-1.44555664,-0.3640747,0.31951904,5.390625,-16.0625,7.15625
1695900860345,-1.4104003999999999,-0.18267822,0.30511475,-17.34375,15.4375,-13.609375
1695900860390,-1.4267577999999999,-0.10528564000000001,0.36614990000000003,-0.28125,-0.609375,-1.921875
1695900860436,-1.4516601599999999,-0.08843994,0.35833740000000003,4.25,-9.015625,1.671875
1695900860466,-1.5214844,-0.20587158,0.39251709,0.25,1.828125,4.8125
1695900860511,-1.5161133,-0.21392822,0.37567139,4.96875,0.53125,7.046875
1695900860542,-1.4760742,-0.13018800000000003,0.25457764,7.25,-8.65625,3.796875
1695900860586,-1.4597168,-0.2107544,0.30950928,-0.109375,7.140625,-3.390625
1695900860631,-1.4267577999999999,-0.19073486,0.33758545,1.171875,5.140625,0.640625
1695900860661,-1.45288086,-0.144104,0.34906006,2.140625,1.484375,-3.109375
1695900860706,-1.46362305,-0.20831300000000003,0.39520264,2.515625,1.171875,-1.734375
1695900860750,-1.3969726599999999,-0.22296143000000002,0.28192139,1.875,-8.609375,9.421875
1695900860781,-1.4758301,-0.18048096000000002,0.35931396,-6.34375,9.40625,-11.9375
1695900860825,-1.44750977,-0.1777954,0.383239746,4.0,-1.75,6.609375
1695900860870,-1.529541,-0.20001219999999997,0.42279053,-1.796875,-5.125,3.015625
1695900860902,-1.47314453,-0.10992432000000002,0.34906006,-5.171875,19.453125,5.328125
1695900860945,-1.40356445,-0.21148682000000002,0.35296631,0.4375,17.875,5.953125
1695900860976,-1.5439453,-0.22711182000000002,0.40911865000000003,-4.234375,16.46875,-4.1875
1695900861022,-1.5200195,-0.22442626999999998,0.40008545,-2.734375,11.984375,1.796875
1695900861066,-1.4428711,-0.1987915,0.42010498,-7.015625,16.140625,-2.1875
1695900861096,-1.48950195,-0.1987915,0.40472412,-4.984375,3.5,-1.921875
1695900861141,-1.41967773,-0.24102783,0.41546631,-0.625,3.84375,3.046875
1695900861187,-1.44555664,-0.20074462999999998,0.445983887,-2.46875,-0.34375,2.375
1695900861215,-1.4992676,-0.22027587999999998,0.473083496,-3.6875,-3.265625,-1.140625
1695900861262,-1.4594726599999999,-0.20758057000000002,0.42303467,-0.5,-7.375,-2.765625
1695900861291,-1.45214844,-0.22247314,0.45794677699999997,1.171875,2.671875,-0.46875
1695900861336,-1.4892577999999999,-0.19830322,0.43206787,-1.34375,0.984375,-0.03125
1695900861383,-1.4916992,-0.21173096000000002,0.42327881,-2.125,-2.109375,-0.75
1695900861412,-1.44555664,-0.18707275,0.33758545,7.875,-15.265625,4.40625
1695900861473,-1.47216797,-0.23907469999999997,0.39739990000000003,1.28125,-15.953125,-0.40625
1695900861501,-1.4902343999999998,-0.15313719999999997,0.34735107,0.84375,-9.328125,-13.1875
1695900861532,-1.5256348,-0.2017212,0.42303467,-0.5,-13.078125,-9.921875
1695900861575,-1.4289551,-0.1831665,0.42083740000000003,3.21875,-0.421875,1.78125
1695900861621,-1.3920898400000001,-0.15509033,0.30535889,5.328125,-24.6875,4.171875
1695900861652,-1.4873047000000001,-0.21539307000000002,0.36029053,-2.796875,-7.015625,-0.203125
1695900861695,-1.4194336,-0.13433837999999998,0.34857178,-3.03125,11.40625,-2.859375
1695900861771,-1.4543457,-0.22735596000000002,0.38153075999999997,8.046875,-14.546875,1.40625
1695900861775,-1.4963378999999999,-0.16607666,0.30609131,4.75,-2.796875,3.140625
1695900861816,-1.4897461,-0.16827393000000002,0.41204834,-1.4375,11.21875,1.71875
1695900861846,-1.4177246000000001,-0.0820923,0.24969481999999998,1.71875,-7.828125,9.265625
1695900861891,-1.4675293,-0.3045044,0.26556396,5.140625,-11.828125,-1.015625
1695900861937,-1.4831543,-0.18096923999999998,0.33807372999999996,-6.734375,15.484375,-5.84375
1695900861966,-1.4472656000000002,-0.17706300000000003,0.33270264,-0.203125,-4.4375,1.0
1695900862013,-1.4477539,-0.23443604,0.386901855,1.328125,6.203125,-1.703125
1695900862041,-1.4277343999999998,-0.13116455,0.32489014,-1.40625,-7.546875,3.78125
1695900862102,-1.49560547,-0.22662354,0.31658936,2.640625,-8.90625,-1.875
1695900862131,-1.45410156,-0.21343994,0.33709717,4.84375,0.890625,2.1875
1695900862160,-1.4182128999999999,-0.14434814,0.26702881,1.515625,-5.203125,6.328125
1695900862206,-1.45336914,-0.23956300000000003,0.2579956,-7.65625,3.71875,-9.078125
1695900862252,-1.5026855,-0.24688719999999997,0.42913818,-1.734375,21.015625,-5.9375
1695900862282,-1.4333496000000001,-0.12628173999999998,0.33807372999999996,6.796875,-12.109375,6.90625
1695900862325,-1.501709,-0.18634033,0.28460693000000004,0.828125,-6.796875,-2.546875
1695900862356,-1.4716797000000001,-0.2341919,0.34002686,4.28125,4.28125,-1.1875
1695900862402,-1.41186523,-0.16168212999999998,0.29095459,6.25,-3.484375,1.375
1695900862446,-1.3977051,-0.22125244,0.27801514,-1.4375,2.625,-3.875
1695900862475,-1.4614258,-0.20025635000000003,0.41156006,-6.25,16.265625,-5.40625
1695900862521,-1.44506836,-0.17755126999999998,0.35076904,4.84375,-10.0625,-0.265625
1695900862566,-1.4650878999999999,-0.15045166,0.30340575999999997,-2.0625,0.890625,-6.703125
1695900862597,-1.4802246000000001,-0.14678955,0.35833740000000003,-3.3125,3.96875,-10.515625
1695900862640,-1.47094727,-0.18951416,0.3805542,6.03125,-3.203125,-5.15625
1695900862732,-1.42163086,-0.12701416,0.3204956,3.875,0.78125,0.90625
1695900862735,-1.38305664,-0.13043212999999998,0.2321167,-1.5,-3.375,-1.796875
1695900862761,-1.4614258,-0.22760010000000003,0.40960693,-7.21875,18.078125,-13.6875
1695900862792,-1.43530273,-0.12774658,0.410583496,-3.296875,0.09375,-2.453125
1695900862836,-1.48706055,-0.03057860000000001,0.340271,5.078125,-7.515625,0.125
1695900862880,-1.48046875,-0.15093994,0.41326904,3.46875,10.71875,3.484375
1695900862911,-1.40649414,-0.14385986,0.36053467,6.578125,-1.078125,3.296875
1695900862957,-1.4355468999999998,-0.14801025,0.34832764,4.671875,-2.734375,3.703125
1695900863001,-1.4108887,-0.12408447,0.32293700999999997,-2.828125,2.546875,-1.578125
1695900863031,-1.4748535,-0.15948486,0.445495605,-0.6875,9.5625,-0.046875
1695900863078,-1.4433593999999998,-0.1633911,0.39520264,6.53125,-7.5625,0.453125
1695900863105,-1.4733887,-0.08868408,0.31585693000000004,-0.578125,-6.40625,-2.828125
1695900863152,-1.4438476599999999,-0.14752197,0.40570068,-3.40625,7.0,-4.875
1695900863195,-1.4370117,-0.10430908,0.40447998,0.703125,-3.53125,1.453125
1695900863225,-1.45410156,-0.13848876999999998,0.39569092,3.484375,-5.296875,2.84375
1695900863272,-1.630127,-0.06207275000000001,0.46356200999999997,-1.125,26.5,7.6875
1695900863315,-1.36938477,-0.1777954,0.3546753,3.578125,51.890625,10.265625
1695900863345,-1.3510742,-0.30645752000000004,0.475280762,-3.578125,21.359375,-1.890625
1695900863391,-1.4567871000000001,-0.07794190000000001,0.516052246,-9.328125,14.0625,-6.515625
1695900863466,-1.4155273400000001,-0.04254150000000001,0.52532959,-7.390625,8.171875,4.96875
1695900863471,-1.4465332,-0.20733643000000002,0.4931030273,-7.609375,-11.3125,2.703125
1695900863511,-1.46899414,-0.21588135000000003,0.45892334,2.40625,-11.71875,6.5
1695900863540,-1.5861816,-0.09600829999999999,0.55291748,-11.234375,-2.15625,-4.1875
1695900863585,-1.5117188,-0.13336182000000002,0.516296387,-1.359375,-6.1875,-0.171875
1695900863631,-1.4108887,-0.18658447,0.46746825999999997,1.609375,1.28125,5.25
1695900863665,-1.4584961,-0.1987915,0.472106934,-2.796875,-2.71875,2.234375
1695900863705,-1.4641113,-0.16485596000000002,0.45208740199999997,-5.40625,2.046875,1.34375
1695900863752,-1.42578125,-0.2017212,0.4943237305,-3.21875,0.21875,1.15625
1695900863780,-1.4633789,-0.17291260000000003,0.452819824,-1.84375,-2.203125,1.390625
1695900863826,-1.46899414,-0.2053833,0.468444824,-0.625,-2.859375,1.1875
1695900863857,-1.4770508,-0.18658447,0.45794677699999997,-0.890625,-2.703125,2.59375
1695900863902,-1.49609375,-0.1777954,0.448425293,-2.625,-2.5,2.484375
1695900863946,-1.4858398400000001,-0.17852783,0.42816162,-1.09375,0.203125,0.6875
1695900863976,-1.4736327999999999,-0.18145751999999998,0.480163574,-2.578125,-0.484375,1.109375
1695900864023,-1.46850586,-0.19635010000000003,0.45501709,2.484375,-1.546875,-1.109375
1695900864065,-1.4707031000000002,-0.19635010000000003,0.45477295,1.984375,-2.390625,0.625
1695900864097,-1.4707031000000002,-0.1819458,0.45892334,-0.046875,-0.9375,1.0
1695900864141,-1.46118164,-0.2029419,0.460876465,1.46875,0.421875,0.5
1695900864185,-1.4626465,-0.20855712999999998,0.45135498,-0.8125,0.671875,-0.09375
1695900864216,-1.4750976599999999,-0.21417236,0.45794677699999997,1.640625,-1.390625,0.40625
1695900864261,-1.4753418,-0.19293212999999998,0.452331543,0.609375,-0.96875,-0.9375
1695900864291,-1.5036621,-0.19317626999999998,0.47821045,3.359375,3.59375,0.6875
1695900864337,-1.592041,-0.14483643000000002,0.558044434,-1.984375,23.8125,2.203125
1695900864384,-1.4567871000000001,-0.12994385000000003,0.43841552699999997,-0.234375,27.921875,1.703125
1695900864411,-1.4291992,-0.26446533,0.543640137,-0.171875,13.546875,0.984375
1695900864456,-1.44799805,-0.2402954,0.56463623,-1.15625,14.390625,4.03125
1695900864501,-1.4658202999999999,-0.21368408,0.45941162,-7.609375,-0.015625,2.609375
1695900864531,-1.4248047000000001,-0.26300049000000003,0.543884277,-1.46875,0.15625,0.671875
1695900864577,-1.46972656,-0.21661376999999998,0.58050537,-0.359375,-7.40625,-2.96875
1695900864605,-1.6086426,-0.11358643000000002,0.58782959,-1.078125,-3.40625,-0.640625
1695900864650,-1.45288086,-0.2173462,0.56561279,-1.59375,-3.265625,-0.59375
1695900864696,-1.47265625,-0.22296143000000002,0.543640137,3.390625,3.34375,4.25
1695900864726,-1.4880371000000001,-0.21661376999999998,0.557800293,0.328125,-0.75,0.953125
1695900864771,-1.46484375,-0.2173462,0.550476074,-1.78125,-3.296875,0.515625
1695900864816,-1.4616699,-0.22296143000000002,0.523864746,-0.1875,-10.640625,1.625
1695900864846,-1.5170898,-0.22369385000000003,0.56439209,-1.953125,-13.71875,-0.75
1695900864891,-1.4848633,-0.206604,0.5021362305,2.1875,-5.734375,-1.15625
1695900864921,-1.4711914,-0.21588135000000003,0.488708496,4.953125,-7.703125,1.875
1695900864967,-1.4602051,-0.23443604,0.422302246,5.3125,-26.84375,6.9375
1695900865011,-1.5124512,-0.15875244,0.477722168,0.28125,-16.078125,-2.625
1695900865041,-1.4223633,-0.23028564,0.36126709,5.328125,-23.046875,-3.609375
1695900865086,-1.5161133,-0.30841064,0.47064209,2.125,-21.140625,-5.546875
1695900865131,-1.5290527,-0.12799072,0.36981200999999997,0.515625,-1.25,2.765625
1695900865161,-1.4592285,-0.20416260000000003,0.39691162,3.046875,-1.65625,1.75
1695900865206,-1.43066406,-0.2444458,0.36785889,-0.140625,-12.265625,-1.359375
1695900865252,-1.5009766,-0.24542236,0.38739014,-1.6875,-2.578125,-2.71875
1695900865280,-1.4350586,-0.18389893000000002,0.37005615000000003,-3.6875,6.046875,-4.875
1695900865325,-1.5131836,-0.18267822,0.42767334,-2.046875,-1.421875,-7.828125
1695900865355,-1.48217773,-0.18707275,0.36956787,2.40625,-3.8125,4.4375
1695900865401,-1.45410156,-0.18243408,0.34759521,-2.453125,9.53125,1.1875
1695900865446,-1.4567871000000001,-0.2102661,0.378845215,-1.484375,2.046875,-2.546875
1695900865491,-1.48095703,-0.19537354,0.37298584,2.328125,-2.625,1.34375
1695900865520,-1.4814452999999999,-0.20367432000000002,0.39178467,-2.65625,3.59375,-2.25
1695900865566,-1.44506836,-0.21221923999999998,0.37640381,1.859375,0.828125,2.5
1695900865596,-1.48413086,-0.2258911,0.37371825999999997,0.375,-3.796875,0.546875
1695900865641,-1.4848633,-0.17999268000000002,0.394226074,-1.96875,4.8125,-1.3125
1695900865671,-1.4672851599999999,-0.2168579,0.39569092,1.15625,-4.5625,2.796875
1695900865717,-1.46118164,-0.23638916,0.36981200999999997,0.625,-4.234375,1.28125
1695900865762,-1.4760742,-0.21002197,0.390808105,-2.078125,1.234375,-1.484375
1695900865792,-1.4589843999999998,-0.20074462999999998,0.37713623,-0.859375,-1.484375,0.234375
1695900865836,-1.4921875,-0.20513916,0.38201904,-0.328125,0.546875,-1.875
1695900865881,-1.45874023,-0.22711182000000002,0.36810303,0.921875,-1.390625,0.578125
1695900865911,-1.4868164,-0.20343018000000002,0.379089355,-1.703125,2.3125,-1.703125
1695900865956,-1.47387695,-0.19219969999999997,0.36810303,0.015625,1.203125,-0.6875
1695900866001,-1.44921875,-0.23321533,0.3571167,2.265625,-2.28125,0.9375
1695900866032,-1.45532227,-0.19073486,0.37103271,-5.828125,2.40625,-5.515625
1695900866076,-1.453125,-0.21929932000000002,0.30975342,4.171875,-19.828125,4.6875
1695900866152,-1.4995117,-0.28082275,0.379089355,-5.578125,0.015625,-4.875
1695900866157,-1.4831543,-0.13800050000000003,0.40814209,-10.421875,12.5625,-10.9375
1695900866196,-1.5068359,-0.17291260000000003,0.414245605,13.640625,-20.40625,12.640625
1695900866225,-1.4255371000000001,-0.22027587999999998,0.26385497999999996,6.328125,-14.40625,5.953125
1695900866271,-1.44921875,-0.25006104,0.35443115000000003,-4.15625,16.296875,-7.390625
1695900866316,-1.40844727,-0.16534423999999998,0.39007568,-1.46875,5.9375,-1.78125
1695900866346,-1.572998,-0.14361572,0.49407959,1.1875,4.453125,-0.796875
1695900866393,-1.5292969,-0.12188719999999997,0.3727417,10.265625,19.125,14.578125
1695900866420,-1.4094238,-0.347229,0.36956787,5.515625,6.125,3.921875
1695900866465,-1.4594726599999999,-0.22442626999999998,0.43450928,-1.65625,23.125,-11.625
1695900866512,-1.4470215,-0.11602783,0.36883545,-5.21875,-5.203125,-6.75
1695900866541,-1.5437012,-0.23931885000000003,0.452575684,-9.34375,12.15625,-9.125
1695900866586,-1.43481445,-0.21588135000000003,0.38421631,-5.203125,10.671875,0.34375
1695900866632,-1.4421387,-0.16314697,0.44671631,-13.125,15.359375,-2.671875
1695900866662,-1.4758301,-0.19659423999999998,0.44354248,-1.828125,-2.640625,1.484375
1695900866704,-1.45581055,-0.19366455,0.42498779,0.25,-6.515625,2.515625
1695900866735,-1.4577637,-0.18951416,0.47039795,-2.453125,-1.59375,-3.03125
1695900866781,-1.5085449,-0.1712036,0.486999512,2.40625,-5.921875,0.71875
1695900866825,-1.4506836,-0.15679932000000002,0.42864990000000003,4.359375,-3.703125,0.5625
1695900866856,-1.4711914,-0.16876219999999997,0.45599365199999997,-0.96875,1.46875,2.421875
1695900866901,-1.45043945,-0.2227173,0.41473389,2.359375,-5.171875,2.78125
1695900866945,-1.4562988,-0.1951294,0.442077637,-1.328125,-4.15625,0.265625
1695900866977,-1.4094238,-0.20001219999999997,0.35809325999999997,0.75,-18.953125,0.828125
1695900867021,-1.5209961,-0.2835083,0.414245605,4.984375,-20.796875,-0.359375
1695900867098,-1.4394531000000002,-0.17852783,0.33685303,-2.8125,6.671875,-7.375
1695900867102,-1.53125,-0.16510010000000003,0.474060059,-5.296875,-1.03125,-7.984375
1695900867141,-1.44311523,-0.144104,0.37225342,8.953125,-12.90625,12.21875
1695900867172,-1.4624023400000001,-0.20611572,0.37811279,0.984375,-8.828125,-4.890625
1695900867233,-1.5124512,-0.12945557000000002,0.40936279,-1.8125,0.46875,-3.296875
1695900867262,-1.3811035,-0.18487550000000003,0.34271240000000003,5.5,-13.484375,6.9375
1695900867290,-1.45874023,-0.19854736,0.36541747999999996,-1.375,3.8125,-2.640625
1695900867335,-1.4511718999999998,-0.22930908,0.32659912,3.984375,-6.5625,2.6875
1695900867382,-1.5039062,-0.19830322,0.3258667,-2.203125,3.0,-3.734375
1695900867411,-1.4448242,-0.14019775,0.34735107,-2.578125,11.359375,0.59375
1695900867457,-1.45288086,-0.17730712999999998,0.37347412,-0.25,-8.84375,0.765625
1695900867487,-1.48046875,-0.2024536,0.35223389,0.734375,-2.484375,0.328125
1695900867532,-1.45825195,-0.1524048,0.37054443000000004,-0.953125,3.75,1.34375
1695900867575,-1.4604492,-0.20611572,0.32244872999999996,5.390625,-16.984375,4.0
1695900867605,-1.4511718999999998,-0.2012329,0.3156128,-2.03125,2.546875,-0.125
1695900867650,-1.4187012,-0.19073486,0.3390503,-0.640625,-0.875,-1.203125
1695900867696,-1.454834,-0.18658447,0.33880615000000003,-0.15625,-2.71875,-0.28125
1695900867726,-1.4379883,-0.1831665,0.34002686,-1.390625,4.1875,0.84375
1695900867770,-1.4538574,-0.20562744,0.34637450999999997,-0.140625,-3.484375,0.984375
1695900867846,-1.4753418,-0.18414307000000002,0.33563232,-0.4375,-0.625,0.75
1695900867850,-1.4780273400000001,-0.17291260000000003,0.32928467,0.546875,1.015625,0.40625
1695900867890,-1.4836426,-0.20513916,0.33026122999999996,1.71875,0.671875,1.515625
1695900867921,-1.4719238,-0.20074462999999998,0.34881592,-0.8125,13.453125,-0.34375
1695900867966,-1.4416503999999999,-0.1836548,0.35101318000000004,-1.296875,16.734375,-0.4375
1695900868010,-1.4260253999999999,-0.21392822,0.36663818000000004,1.234375,4.109375,3.828125
1695900868041,-1.5310059,-0.16363525,0.43255615000000003,0.21875,10.03125,-0.5625
1695900868086,-1.4782715,-0.18658447,0.39251709,8.046875,8.65625,6.5
1695900868131,-1.45532227,-0.25006104,0.43841552699999997,-4.234375,13.765625,-0.703125
1695900868161,-1.5273438,-0.19732666,0.4935913086,-9.375,32.015625,-2.515625
1695900868208,-1.43408203,-0.1782837,0.39959717,-8.71875,12.328125,1.625
1695900868234,-1.5075684,-0.22662354,0.44403075999999997,-12.765625,2.46875,-3.296875
1695900868281,-1.4038086,-0.28912354,0.34246825999999997,2.765625,-12.484375,2.90625
1695900868325,-1.40966797,-0.2366333,0.425720215,-6.84375,-6.8125,-1.453125
1695900868356,-1.49731445,-0.11993408,0.41107178,1.25,-41.140625,-4.875
1695900868402,-1.5324707,-0.27349854,0.44354248,3.015625,-22.5,1.46875
1695900868476,-1.40893555,-0.15631104,0.39788818,-0.46875,17.640625,1.359375
1695900868480,-1.4604492,-0.17657469999999997,0.453308105,5.84375,-9.15625,2.703125
1695900868520,-1.5185547,-0.22393800000000003,0.35809325999999997,2.84375,-10.75,5.46875
1695900868567,-1.45751953,-0.18780518000000002,0.3493042,-3.140625,6.828125,-4.578125
1695900868596,-1.4538574,-0.21832275,0.40545654,-0.65625,-2.28125,0.25
1695900868641,-1.4645996000000001,-0.1836548,0.36395264,-2.65625,2.3125,-0.421875
1695900868671,-1.5239258,-0.21588135000000003,0.36346436,-0.5625,-8.421875,0.328125
1695900868714,-1.4645996000000001,-0.2090454,0.34515381,-0.359375,-2.484375,-0.078125
1695900868761,-1.454834,-0.23199462999999998,0.35272217,0.703125,-8.09375,-0.546875
1695900868792,-1.4838867,-0.2012329,0.36761475,-0.296875,-5.765625,-2.875
1695900868835,-1.4543457,-0.20220947,0.36590575999999997,-1.28125,1.40625,-1.453125
1695900868881,-1.4489746000000001,-0.21466064,0.36077881,-0.984375,4.046875,1.34375
1695900868911,-1.45581055,-0.19976807000000002,0.34368896,0.453125,-5.09375,-0.96875
1695900868955,-1.4467773400000001,-0.19439697,0.34515381,0.703125,1.921875,-1.5
1695900868985,-1.4560547000000001,-0.22076416,0.35540771,0.140625,-1.90625,1.5
1695900869032,-1.47680664,-0.22369385000000003,0.34344482,0.625,-1.296875,-0.46875
1695900869076,-1.46875,-0.20001219999999997,0.33074950999999997,0.0625,-1.625,0.421875
1695900869106,-1.4797363,-0.18927001999999998,0.34735107,-1.703125,2.078125,-0.8125
1695900869152,-1.47436523,-0.19952393000000002,0.35223389,-1.296875,0.015625,1.53125
1695900869197,-1.45581055,-0.206604,0.34613037,0.15625,-2.046875,-0.03125
1695900869227,-1.451416,-0.1856079,0.34197997999999996,-1.578125,1.59375,-0.90625
1695900869272,-1.44873047,-0.20147705,0.37005615000000003,-1.65625,3.734375,0.078125
1695900869301,-1.4614258,-0.21368408,0.34735107,-0.171875,-1.390625,0.84375
1695900869346,-1.45874023,-0.2131958,0.34906006,-0.984375,-0.5,-0.359375
1695900869392,-1.46777344,-0.21246337999999998,0.34002686,-0.703125,0.578125,-0.15625
1695900869421,-1.4829101599999999,-0.22857666,0.35833740000000003,-1.828125,1.921875,-0.609375
1695900869465,-1.45874023,-0.20001219999999997,0.32513428,0.03125,-0.421875,0.859375
1695900869512,-1.4790039,-0.20465087999999998,0.35687256,-3.71875,2.09375,-0.21875
1695900869543,-1.46069336,-0.22564697,0.34320068000000004,1.09375,0.65625,0.984375
1695900869586,-1.4626465,-0.2024536,0.35443115000000003,-0.8125,-0.4375,-0.140625
1695900869633,-1.4831543,-0.19781494,0.3727417,-2.6875,2.984375,-0.609375
1695900869661,-1.5073242,-0.17095947,0.40814209,-1.90625,10.9375,-0.203125
1695900869705,-1.37939453,-0.19561768000000002,0.27532959,12.65625,-2.828125,9.21875
1695900869737,-1.5056152,-0.38873291,0.36468506,-9.75,4.703125,-6.765625
1695900869782,-1.4313965,-0.10455322,0.41864014,-2.40625,20.65625,-11.15625
1695900869826,-1.46606445,-0.18145751999999998,0.398864746,5.21875,-23.671875,3.828125
1695900869856,-1.5344238,-0.22662354,0.35614014,6.078125,-11.375,0.1875
1695900869900,-1.46118164,-0.20880126999999998,0.36566162,0.984375,3.3125,0.875
1695900869946,-1.49243164,-0.21905518000000002,0.39984131,0.6875,2.875,0.125
1695900869976,-1.4794922000000001,-0.22174072,0.33319092,7.59375,-7.34375,2.578125
1695900870024,-1.4819336,-0.20098876999999998,0.38787842,-1.921875,7.6875,-1.5625
1695900870052,-1.4719238,-0.20611572,0.3649292,2.15625,5.203125,2.125
1695900870097,-1.47436523,-0.1992798,0.38494873,-6.828125,13.203125,-1.546875
1695900870141,-1.45532227,-0.22027587999999998,0.39349365000000003,-6.0625,26.71875,-2.84375
1695900870171,-1.44506836,-0.2131958,0.440856934,-2.46875,23.90625,-4.34375
1695900870216,-1.49609375,-0.19366455,0.481140137,-3.359375,15.78125,-1.1875
1695900870261,-1.5095215,-0.1777954,0.476989746,-3.34375,9.78125,-2.03125
1695900870290,-1.46191406,-0.19830322,0.465026855,-3.84375,8.90625,-1.046875
1695900870337,-1.5280762,-0.18121337999999998,0.57122803,-5.65625,15.28125,-3.921875
1695900870411,-1.5070801,-0.09405518000000002,0.517028809,-7.0625,22.046875,0.765625
1695900870414,-1.43481445,-0.42315674000000003,0.29364014,-18.703125,1.578125,4.46875
1695900870457,-1.4182128999999999,-0.26739502000000004,0.56536865,-3.546875,23.546875,-7.15625
1695900870531,-1.5041504,-0.11553954999999999,0.5848999,4.984375,-14.96875,-5.5
1695900870536,-1.4560547000000001,-0.21051025,0.54559326,8.265625,-23.4375,-0.453125
1695900870576,-1.3540039,-0.19122314,0.486755371,4.671875,-8.609375,1.203125
1695900870605,-1.4470215,-0.21343994,0.50579834,-8.359375,-2.375,3.203125
1695900870651,-1.48828125,-0.23687744,0.41326904,12.28125,-29.578125,3.28125
1695900870698,-1.5134277,-0.25787354,0.53289795,-3.625,-14.015625,-3.484375
1695900870726,-1.5546875,-0.06597900000000001,0.42352295,6.21875,-16.5625,-2.890625
1695900870771,-1.5285645,-0.18804932000000002,0.430114746,7.3125,-25.0,-1.21875
1695900870817,-1.4682617,-0.17926025,0.387145996,3.15625,-14.796875,-2.421875
1695900870846,-1.46899414,-0.18072510000000003,0.36859131,3.21875,-22.953125,-3.8125
1695900870892,-1.4467773400000001,-0.18218994,0.32269287,3.671875,-9.5,-5.359375
1695900870921,-1.423584,-0.20489501999999998,0.33782959,-4.21875,-7.03125,-8.296875
1695900870966,-1.3935547000000001,-0.16046143000000002,0.35906982,-4.296875,2.640625,-2.5625
1695900871011,-1.40356445,-0.12506104,0.36712646,-1.578125,3.96875,-2.015625
1695900871042,-1.4797363,-0.15216064,0.38958740000000003,-0.578125,-16.5,-4.296875
1695900871087,-1.4672851599999999,-0.14996337999999998,0.31829834,6.1875,2.265625,9.296875
1695900871120,-1.45288086,-0.19659423999999998,0.32513428,3.34375,-4.34375,-1.515625
1695900871161,-1.5996094,-0.08941650000000001,0.39593506,7.0,5.21875,5.96875
1695900871205,-1.3608398400000001,-0.21173096000000002,0.1564331,11.65625,-16.125,21.4375
1695900871235,-1.43774414,-0.27935791,0.25408936,-5.375,-1.390625,-17.09375
1695900871281,-1.46850586,-0.1465454,0.340271,-13.6875,17.171875,-9.234375
1695900871326,-1.3840332,-0.08941650000000001,0.40716553,-0.9375,14.78125,2.890625
1695900871356,-1.4177246000000001,-0.19708251999999998,0.3703003,7.65625,-18.609375,6.203125
1695900871401,-1.5153809,-0.18707275,0.30145264,-0.96875,-9.125,2.3125
1695900871446,-1.541748,-0.17633057000000002,0.34100342,5.796875,-3.28125,-2.046875
1695900871475,-1.4123535,-0.1712036,0.32073975,5.4375,2.1875,7.578125
1695900871522,-1.5061035,-0.30792236,0.39324950999999997,8.875,-12.609375,9.5625
1695900871551,-1.37475586,-0.25543213,0.11151123000000002,10.96875,-23.4375,12.765625
1695900871596,-1.3652343999999998,-0.050109860000000006,0.24578856999999998,-16.453125,35.734375,-11.90625
1695900871641,-1.4213867,-0.21783447,0.45989990199999997,-6.171875,12.8125,-9.25
1695900871671,-1.4851074,-0.15631104,0.29241943000000004,6.34375,-31.71875,10.765625
1695900871716,-1.4880371000000001,-0.17852783,0.26629639,-7.875,9.125,-6.484375
1695900871761,-1.5168457,-0.19561768000000002,0.375427246,-4.0625,7.734375,0.046875
1695900871792,-1.4494628999999999,-0.21636962999999998,0.32855225,1.453125,-0.171875,5.859375
1695900871836,-1.4448242,-0.24224854,0.33319092,3.546875,0.703125,3.703125
1695900871865,-1.39746094,-0.12432860000000001,0.19232178,-4.265625,-8.9375,-9.078125
1695900871912,-1.43188477,-0.05694579999999999,0.36199950999999997,11.28125,28.09375,-4.96875
1695900871956,-1.3457031000000002,-0.45831299000000003,0.2387085,33.328125,-46.671875,32.3125
1695900871986,-1.6203613,-0.35552979,0.38397217,-18.9375,13.578125,-29.84375
1695900872047,-1.3544922000000001,-0.08721923999999998,0.3234253,-7.9375,39.484375,2.59375
1695900872077,-1.4772949,-0.18145751999999998,0.406188965,-0.859375,-33.65625,10.171875
1695900872105,-1.5671387,-0.22174072,0.26263428,0.625,-1.578125,3.25
1695900872152,-1.4699707,-0.25299072,0.31976318000000004,-1.65625,3.140625,3.484375
1695900872226,-1.5070801,-0.22296143000000002,0.32928467,2.046875,-7.046875,3.546875
1695900872230,-1.5185547,-0.22613525,0.34295654,3.984375,-8.84375,8.71875
1695900872272,-1.4177246000000001,-0.24591064,0.28167725,3.90625,7.71875,14.53125
1695900872301,-1.33691406,-0.28863525,0.2868042,-4.9375,3.984375,4.34375
1695900872344,-1.44506836,-0.26568604,0.2921753,-0.890625,-3.75,4.78125
1695900872393,-1.4597168,-0.23101807000000002,0.30316162,-3.3125,4.5,3.890625
1695900872422,-1.4238281000000002,-0.30206299000000003,0.26947021,-5.4375,6.9375,4.4375
1695900872465,-1.5756836,-0.35406494,0.34466553,-0.75,-4.5625,3.09375
1695900872512,-1.5388184,-0.25909424000000003,0.27752686,0.25,-5.921875,3.109375
1695900872541,-1.4707031000000002,-0.2625122,0.30145264,-6.796875,3.625,0.921875
1695900872586,-1.4926758,-0.32965088,0.27020264,-2.59375,2.4375,1.265625
1695900872615,-1.47558594,-0.32305908,0.3283081,-4.671875,2.265625,1.859375
1695900872662,-1.45288086,-0.33233643,0.26141357,0.15625,-2.78125,0.84375
1695900872706,-1.4580077999999999,-0.32940674000000003,0.27947997999999996,-0.46875,-5.875,1.515625
1695900872738,-1.45703125,-0.3123169,0.2855835,-3.359375,-1.796875,-3.5
1695900872782,-1.4604492,-0.331604,0.30218506,-3.765625,1.234375,-2.625
1695900872824,-1.4567871000000001,-0.33795166,0.27874756,-1.5,2.328125,-1.9375
1695900872856,-1.4543457,-0.33062744,0.25970459,-1.140625,-0.40625,-2.78125
1695900872900,-1.4938965,-0.32061768,0.26263428,-5.5625,0.609375,-0.921875
1695900872960,-1.4338378999999999,-0.29766846,0.17401123000000002,9.796875,-12.328125,0.578125
1695900872975,-1.4741211,-0.3616333,0.33807372999999996,0.21875,-3.0,-8.953125
1695900873020,-1.48217773,-0.24957275,0.23406981999999998,4.25,-4.265625,-3.796875
1695900873050,-1.5158691,-0.28155518,0.28656006,3.609375,-9.921875,-6.578125
1695900873096,-1.4675293,-0.23394775,0.27923584,4.796875,8.34375,-0.6875
1695900873141,-1.44189453,-0.27496338,0.29486084,2.484375,-3.234375,-1.3125
1695900873171,-1.5070801,-0.22198486,0.26605225,-0.375,-1.4375,-0.859375
1695900873216,-1.4152832,-0.30572509999999997,0.24822998000000002,2.9375,3.609375,0.375
1695900873261,-1.4360351599999999,-0.26812744,0.30316162,-1.5,7.28125,-5.265625
1695900873291,-1.4650878999999999,-0.2522583,0.2814331,-0.078125,2.28125,-2.34375
1695900873335,-1.49243164,-0.315979,0.26312256,2.9375,0.765625,-2.234375
1695900873365,-1.49316406,-0.32232666,0.25604247999999996,-3.6875,4.84375,-6.203125
1695900873411,-1.44506836,-0.14605712999999998,0.29022217,-4.578125,13.140625,-6.3125
1695900873456,-1.4230957,-0.12750244,0.35614014,-3.6875,10.453125,-2.75
1695900873485,-1.47094727,-0.23907469999999997,0.33709717,4.546875,-7.875,2.1875
1695900873531,-1.5407715,-0.31622314,0.3168335,3.96875,-0.859375,-0.015625
1695900873606,-1.4489746000000001,-0.24493408,0.32635497999999996,0.265625,11.859375,-3.203125
1695900873609,-1.451416,-0.24395751999999998,0.34320068000000004,-0.53125,-0.703125,-1.890625
1695900873650,-1.45654297,-0.28546143,0.31756592,2.40625,-1.140625,0.203125
1695900873680,-1.4592285,-0.21783447,0.34197997999999996,-4.296875,4.765625,-5.390625
1695900873724,-1.4621582,-0.21368408,0.32269287,2.15625,-7.078125,-1.15625
1695900873785,-1.48461914,-0.22320557000000002,0.32220459,-0.984375,1.484375,-1.65625
1695900873800,-1.46655273,-0.2131958,0.34417725,-1.09375,1.109375,-0.8125
1695900873844,-1.4780273400000001,-0.22125244,0.3156128,0.78125,-4.890625,-0.359375
1695900873890,-1.4562988,-0.22149658,0.30364990000000003,0.578125,1.96875,-1.1875
1695900873920,-1.4477539,-0.22125244,0.33489990000000003,-0.828125,1.484375,-2.125
1695900873965,-1.4562988,-0.22393800000000003,0.32611084,0.03125,-2.265625,-0.703125
1695900874011,-1.45996094,-0.22418212999999998,0.28607178,0.546875,-3.09375,-1.1875
1695900874040,-1.4699707,-0.21197510000000003,0.32318115000000003,-1.296875,3.71875,-2.390625
1695900874086,-1.453125,-0.20489501999999998,0.3390503,-0.234375,0.625,-0.671875
1695900874115,-1.4772949,-0.2366333,0.32904053,0.0,-2.140625,-0.9375
1695900874160,-1.4602051,-0.19781494,0.31292725,-0.484375,7.140625,0.640625
1695900874206,-1.4506836,-0.21929932000000002,0.36004639,-3.859375,2.9375,-1.75
1695900874235,-1.4753418,-0.19586182000000002,0.32293700999999997,3.03125,-6.15625,0.53125
1695900874281,-1.4772949,-0.23687744,0.32366943000000004,0.375,-2.234375,-0.359375
1695900874327,-1.4641113,-0.2012329,0.33856200999999997,-1.3125,1.75,-1.828125
1695900874355,-1.4545898400000001,-0.20220947,0.31219482,1.25,-5.421875,0.71875
1695900874401,-1.4667968999999998,-0.22418212999999998,0.324646,-0.34375,2.609375,0.03125
1695900874430,-1.43408203,-0.20928955,0.32147217,0.3125,-1.203125,-0.171875
1695900874475,-1.4572753999999999,-0.22491455,0.32733154,-0.421875,-0.34375,-0.015625
1695900874519,-1.45703125,-0.2029419,0.32562256,-0.359375,0.96875,-0.15625
1695900874550,-1.4692383,-0.22979736,0.31903075999999997,0.421875,-2.578125,1.25
1695900874594,-1.46118164,-0.22662354,0.30926514,0.515625,1.1875,0.375
1695900874640,-1.4675293,-0.21612550000000003,0.33563232,1.046875,-4.8125,1.140625
1695900874671,-1.5197754,-0.17437744,0.36126709,-3.140625,-3.421875,1.953125
1695900874714,-1.470459,-0.20147705,0.31976318000000004,1.875,-4.484375,7.984375
1695900874760,-1.45703125,-0.25177002000000004,0.33807372999999996,-1.65625,2.828125,3.09375
1695900874791,-1.45288086,-0.20831300000000003,0.30462646,-3.0,10.734375,0.390625
1695900874834,-1.49487305,-0.23101807000000002,0.31878662,-4.953125,11.203125,0.21875
1695900874911,-1.48095703,-0.27935791,0.3468628,-5.1875,17.921875,1.40625
1695900874913,-1.4458008,-0.24786376999999998,0.33074950999999997,-6.234375,7.0625,2.40625
1695900874955,-1.4423827999999999,-0.24957275,0.34100342,-1.71875,2.390625,-0.125
1695900874985,-1.45996094,-0.28228759999999997,0.3571167,-0.78125,-1.4375,0.921875
1695900875030,-1.5056152,-0.22076416,0.38812256,-4.25,4.984375,-4.5625
1695900875075,-1.4992676,-0.22906494,0.386901855,-0.828125,5.46875,1.125
1695900875105,-1.4438476599999999,-0.2576294,0.38446045,-1.171875,6.421875,1.671875
1695900875152,-1.4645996000000001,-0.24005126999999998,0.38812256,-2.328125,2.171875,-0.78125
1695900875181,-1.4824218999999998,-0.21173096000000002,0.3624878,-1.984375,-1.453125,-3.140625
1695900875224,-1.5114746,-0.32965088,0.41693115000000003,8.796875,-5.15625,3.3125
1695900875271,-1.4108887,-0.25396729,0.32513428,5.484375,-8.59375,-5.421875
1695900875301,-1.5852051,-0.2144165,0.44232177699999997,-2.84375,-2.984375,-10.59375
1695900875344,-1.4750976599999999,-0.1934204,0.31927490000000003,10.671875,-6.671875,4.265625
1695900875391,-1.4580077999999999,-0.27130127000000004,0.406433105,1.25,-1.671875,-0.140625
1695900875420,-1.3898926,-0.30767822,0.2687378,5.03125,-12.828125,3.5625
1695900875465,-1.45532227,-0.20196533,0.33563232,-9.375,-3.5,-11.0625
1695900875495,-1.48950195,-0.005676269999999983,0.46356200999999997,-15.8125,29.84375,-7.75
1695900875540,-1.4638672000000001,-0.26104736,0.515563965,16.84375,-33.75,7.34375
1695900875585,-1.5134277,-0.34771729,0.26458740000000003,21.359375,-57.03125,15.453125
1695900875615,-1.546875,-0.25494384999999997,0.23284912000000002,-10.515625,23.125,-7.015625
1695900875660,-1.4350586,-0.18414307000000002,0.32220459,-2.71875,13.03125,-4.25
1695900875705,-1.4204101599999999,-0.20782469999999997,0.2687378,-0.15625,-6.328125,1.28125
1695900875736,-1.41845703,-0.20855712999999998,0.28875732,-1.34375,5.546875,-3.125
1695900875779,-1.4694824,-0.1831665,0.34124756,-3.984375,2.953125,-2.015625
1695900875826,-1.43408203,-0.26641846,0.2855835,2.328125,-3.578125,2.9375
1695900875855,-1.47558594,-0.22857666,0.31170654,-1.109375,2.078125,-2.578125
1695900875901,-1.451416,-0.19708251999999998,0.3234253,-1.828125,2.171875,-0.953125
1695900875931,-1.4621582,-0.21466064,0.31585693000000004,0.75,-3.625,0.90625
1695900875974,-1.4819336,-0.20855712999999998,0.29876709,0.359375,-2.359375,-0.875
1695900876021,-1.49975586,-0.23443604,0.32611084,0.28125,-1.046875,-0.203125
1695900876051,-1.47094727,-0.2095337,0.31097412,-0.03125,0.859375,0.296875
1695900876095,-1.4614258,-0.23541260000000003,0.2970581,1.28125,-2.484375,0.9375
1695900876140,-1.4460449,-0.22052001999999998,0.32391357,-1.078125,3.953125,-0.265625
1695900876170,-1.43652344,-0.22247314,0.30950928,0.0625,-2.53125,-0.046875
1695900876215,-1.4567871000000001,-0.22491455,0.30926514,-1.5625,1.0625,-2.46875
1695900876245,-1.4301758,-0.24273682000000002,0.2814331,5.28125,0.421875,1.578125
1695900876290,-1.46533203,-0.2107544,0.34368896,-1.8125,-2.359375,-7.6875
1695900876336,-1.45410156,-0.20635986,0.26654053,4.28125,-9.3125,4.609375
1695900876365,-1.4724121000000001,-0.21588135000000003,0.28509521,-2.84375,-6.609375,-1.484375
1695900876410,-1.482666,-0.21124268000000002,0.30096436,-0.890625,-6.09375,-4.390625
1695900876456,-1.4550781000000002,-0.20635986,0.31439209,3.46875,0.0,0.421875
1695900876484,-1.4272461,-0.18804932000000002,0.24139403999999998,0.265625,-9.859375,3.546875
1695900876530,-1.46972656,-0.17755126999999998,0.27337646,-7.140625,4.953125,-7.890625
1695900876608,-1.41186523,-0.2305298,0.36077881,-1.25,8.640625,-0.171875
1695900876611,-1.43969727,-0.159729,0.32562256,2.546875,-6.6875,3.46875
1695900876650,-1.5661621,-0.22711182000000002,0.35516357,6.65625,-1.28125,5.609375
1695900876680,-1.5131836,-0.2024536,0.3204956,0.09375,21.734375,16.75
1695900876725,-1.3840332,-0.27740479,0.27752686,-4.09375,19.328125,4.625
1695900876771,-1.4516601599999999,-0.27545166,0.3078003,6.90625,-2.875,-5.625
1695900876800,-1.4829101599999999,-0.22711182000000002,0.24700928,-0.78125,-11.109375,-6.296875
1695900876845,-1.5244141,-0.20513916,0.36810303,-12.5,24.3125,-9.796875
1695900876890,-1.3920898400000001,-0.21099854,0.38348389,-9.921875,23.15625,2.40625
1695900876920,-1.4592285,-0.19488525,0.3493042,-8.203125,3.3125,0.90625
1695900876965,-1.4863281000000002,-0.2781372,0.35296631,-4.140625,0.640625,0.65625
1695900876994,-1.45532227,-0.24005126999999998,0.3673706,0.359375,-2.328125,1.765625
1695900877041,-1.5112305,-0.24713135000000003,0.3703003,0.8125,-15.390625,-5.34375
1695900877085,-1.47558594,-0.22296143000000002,0.3234253,0.515625,2.078125,-1.578125
1695900877114,-1.3977051,-0.22711182000000002,0.34637450999999997,-2.328125,4.734375,-3.046875
1695900877162,-1.46655273,-0.19683837999999998,0.40716553,-4.40625,3.71875,-4.015625
1695900877205,-1.49487305,-0.18048096000000002,0.398376465,0.3125,-5.8125,3.21875
1695900877234,-1.4702148400000001,-0.24053955,0.36004639,2.9375,-0.65625,4.5625
1695900877280,-1.45825195,-0.27178955,0.35516357,3.65625,-3.84375,3.34375
1695900877325,-1.5131836,-0.20880126999999998,0.34783936,-0.140625,0.34375,-2.0625
1695900877356,-1.49121094,-0.2227173,0.35125732,3.109375,-1.515625,2.40625
1695900877399,-1.4484863,-0.26202393,0.35272217,0.625,0.046875,0.0
1695900877429,-1.4941406000000002,-0.20928955,0.394226074,-2.546875,1.484375,-1.328125
1695900877475,-1.4702148400000001,-0.22320557000000002,0.35833740000000003,2.296875,-7.671875,3.0625
1695900877519,-1.4602051,-0.26763916,0.34832764,0.828125,-2.078125,0.859375
1695900877549,-1.4724121000000001,-0.2498169,0.382507324,-1.34375,1.796875,-1.703125
1695900877594,-1.44506836,-0.22491455,0.33294678,0.796875,-5.921875,-0.75
1695900877641,-1.49560547,-0.2461548,0.34637450999999997,0.359375,-4.234375,-1.046875
1695900877669,-1.46533203,-0.24468994,0.32098389,-0.78125,-4.015625,-0.65625
1695900877715,-1.4858398400000001,-0.24786376999999998,0.3480835,-0.5625,1.125,-5.703125
1695900877744,-1.4733887,-0.21588135000000003,0.36981200999999997,-0.6875,1.765625,-1.40625
1695900877790,-1.4624023400000001,-0.23101807000000002,0.35443115000000003,5.953125,-5.34375,5.671875
1695900877834,-1.5249023,-0.20416260000000003,0.39202881,4.34375,3.6875,2.546875
1695900877865,-1.41625977,-0.20440673999999998,0.29315186,1.4375,3.34375,4.8125
1695900877910,-1.5224609,-0.28082275,0.40545654,-5.265625,11.078125,-6.890625
1695900877955,-1.5124512,-0.21099854,0.390563965,2.25,7.21875,-0.65625
1695900877984,-1.4506836,-0.1975708,0.33319092,-0.71875,10.84375,-1.609375
1695900878030,-1.4543457,-0.21978760000000003,0.36663818000000004,-8.921875,19.96875,-5.046875
1695900878060,-1.45092773,-0.28619384999999997,0.3727417,-8.53125,9.78125,1.609375
1695900878105,-1.4641113,-0.2210083,0.39959717,-2.390625,4.640625,1.28125
1695900878151,-1.47875977,-0.21148682000000002,0.390563965,-6.21875,-3.59375,-2.40625
1695900878180,-1.5078125,-0.2481079,0.440612793,-1.765625,-2.734375,-1.5
1695900878225,-1.4873047000000001,-0.20831300000000003,0.410339355,2.28125,-5.546875,-1.609375
1695900878271,-1.4470215,-0.21270751999999998,0.41864014,0.9375,1.328125,0.125
1695900878300,-1.47094727,-0.22369385000000003,0.41888428,0.796875,-1.921875,2.953125
1695900878345,-1.4572753999999999,-0.2263794,0.375427246,3.09375,-2.671875,2.265625
1695900878390,-1.4968262,-0.2324829,0.429870605,-0.46875,1.890625,1.328125
1695900878420,-1.503418,-0.23492432000000002,0.39398193,-0.3125,-2.28125,1.515625
1695900878465,-1.486084,-0.2402954,0.405944824,-1.953125,-1.78125,1.515625
1695900878495,-1.4936523400000001,-0.23321533,0.41326904,-0.234375,-0.65625,0.3125
1695900878540,-1.48461914,-0.24957275,0.39324950999999997,-0.203125,-2.828125,0.796875
1695900878585,-1.4589843999999998,-0.25958252000000004,0.39300537,-0.671875,-4.828125,-0.0625
1695900878615,-1.4970702999999999,-0.2258911,0.39666748,0.5625,-6.6875,0.28125
1695900878660,-1.4597168,-0.23809814,0.38104248,0.421875,-6.0625,0.8125
1695900878719,-1.48828125,-0.25958252000000004,0.39276123,-0.84375,-3.546875,0.5625
1695900878735,-1.48828125,-0.20343018000000002,0.38616943,-0.75,-1.015625,0.078125
1695900878782,-1.4692383,-0.23883057000000002,0.33197021,1.734375,-5.359375,2.140625
1695900878810,-1.46533203,-0.26373291,0.35443115000000003,-1.296875,0.53125,-0.5
1695900878855,-1.4772949,-0.22052001999999998,0.34661865000000003,1.25,-1.234375,-2.328125
1695900878900,-1.48339844,-0.2210083,0.37298584,1.890625,-3.40625,-0.75
1695900878930,-1.4699707,-0.23443604,0.3493042,-0.0625,-2.578125,1.109375
1695900878975,-1.4819336,-0.2300415,0.36834717,-0.578125,2.078125,-0.671875
1695900879019,-1.4951172000000001,-0.2546997,0.35809325999999997,-1.015625,-0.1875,0.109375
1695900879049,-1.47265625,-0.23858643000000002,0.33465575999999997,0.21875,2.8125,0.53125
1695900879110,-1.4421387,-0.27374268,0.38006592,1.765625,1.9375,2.703125
1695900879139,-1.5012207,-0.23516846000000002,0.37127686,-1.265625,0.1875,-0.765625
1695900879170,-1.5004883,-0.24420166,0.36297607,-0.65625,2.71875,-1.171875
1695900879214,-1.4560547000000001,-0.2654419,0.378601074,-1.203125,2.84375,-0.828125
1695900879289,-1.4760742,-0.2493286,0.37103271,-1.09375,1.078125,0.15625
1695900879292,-1.48950195,-0.24420166,0.37396240000000003,-2.34375,2.875,-0.71875
1695900879364,-1.4555664,-0.25054931999999996,0.37103271,1.09375,0.359375,0.390625
1695900879368,-1.47094727,-0.27471924000000003,0.3624878,2.140625,-7.453125,-0.875
1695900879410,-1.5134277,-0.22369385000000003,0.35662842,-0.25,-2.234375,-2.25
1695900879455,-1.4748535,-0.19488525,0.36346436,-0.328125,3.890625,-2.59375
1695900879485,-1.4467773400000001,-0.26300049000000003,0.355896,2.765625,-4.671875,0.984375
1695900879529,-1.47314453,-0.23736572,0.35736084,0.21875,-1.421875,-0.65625
1695900879559,-1.4702148400000001,-0.2210083,0.35614014,0.625,-1.234375,0.09375
1695900879605,-1.4758301,-0.24395751999999998,0.35272217,2.0625,-3.34375,0.359375
1695900879650,-1.4785156000000002,-0.2485962,0.36590575999999997,2.984375,-0.65625,-3.125
1695900879681,-1.4802246000000001,-0.23394775,0.387145996,1.828125,1.140625,1.625
1695900879725,-1.4904785,-0.21929932000000002,0.36346436,3.953125,-4.96875,4.796875
1695900879770,-1.49731445,-0.237854,0.35247803,-1.25,3.140625,0.4375
1695900879801,-1.4907226599999999,-0.21929932000000002,0.378601074,-4.75,10.8125,-0.203125
1695900879845,-1.4379883,-0.24761962999999998,0.378845215,1.796875,6.71875,1.53125
1695900879874,-1.49609375,-0.2485962,0.438171387,-5.0,17.09375,-3.171875
1695900879921,-1.4819336,-0.26617431999999996,0.383239746,0.828125,8.984375,2.375
1695900879964,-1.5068359,-0.23077393000000002,0.454284668,-3.234375,17.4375,0.484375
1695900879995,-1.505127,-0.23077393000000002,0.45404052699999997,-3.0625,18.90625,-0.75
1695900880040,-1.5063477,-0.25518799000000003,0.4821167,-3.25,16.734375,0.84375
1695900880084,-1.4904785,-0.25592041,0.476257324,-1.28125,11.125,1.40625
1695900880114,-1.4963378999999999,-0.26519775,0.506286621,-3.765625,10.765625,1.828125
1695900880160,-1.482666,-0.23394775,0.5067749023,-2.1875,6.609375,1.234375
1695900880206,-1.4785156000000002,-0.25201416,0.523620605,-1.734375,6.3125,0.546875
1695900880235,-1.4746093999999998,-0.26202393,0.518249512,-3.25,4.65625,1.046875
1695900880280,-1.47314453,-0.26690674000000003,0.480163574,-3.390625,-2.859375,2.296875
1695900880310,-1.4641113,-0.28961181999999996,0.44012450999999997,-6.375,-23.75,6.046875
1695900880354,-1.3864746000000001,-0.26641846,0.44622802699999997,-6.203125,-36.796875,-2.34375
1695900880400,-1.5563965,-0.33673096,0.526794434,10.515625,-47.84375,-15.6875
1695900880430,-1.6337891,-0.07989501999999998,0.31195068000000004,5.78125,-36.65625,4.140625
1695900880474,-1.4343262,-0.32159424000000003,0.32196045,4.140625,-2.15625,5.484375
1695900880521,-1.4511718999999998,-0.26373291,0.36981200999999997,1.828125,-15.546875,-2.96875
1695900880550,-1.5043945,-0.1680298,0.28460693000000004,3.953125,-26.03125,3.34375
1695900880594,-1.46655273,-0.30084229,0.36297607,1.453125,7.109375,-2.703125
1695900880624,-1.40625,-0.2149048,0.27386475,3.0,-11.40625,6.40625
1695900880669,-1.4802246000000001,-0.31695556999999996,0.27215575999999997,0.875,-11.390625,3.21875
1695900880714,-1.45703125,-0.2407837,0.32611084,1.359375,12.953125,-4.578125
1695900880745,-1.4794922000000001,-0.23883057000000002,0.29779053,10.46875,-19.828125,5.703125
1695900880791,-1.5385742,-0.26422119,0.25531006,0.234375,3.25,5.53125
1695900880850,-1.4404297000000001,-0.25006104,0.19891356999999998,-0.890625,6.796875,4.40625
1695900880865,-1.3996582,-0.34014893,0.25506592,-3.09375,-12.171875,-0.0625
1695900880910,-1.4387207,-0.30743408,0.27215575999999997,0.859375,-23.671875,-0.421875
1695900880985,-1.572998,-0.15020751999999998,0.38812256,-0.53125,8.234375,-4.078125
1695900880989,-1.3952637,-0.14141846000000002,0.1991577,5.265625,1.859375,10.984375
1695900881030,-1.4926758,-0.457580566,0.20819092,8.0,-17.265625,6.65625
1695900881060,-1.4067383,-0.26983643,0.2435913,-6.984375,21.390625,-4.953125
1695900881106,-1.4157715,-0.18463135000000003,0.2892456,-7.75,1.40625,-4.921875
1695900881151,-1.520752,-0.32818604,0.29168700999999997,4.3125,-3.234375,0.078125
1695900881181,-1.4597168,-0.2756958,0.2501831,0.625,5.375,-0.34375
1695900881226,-1.46899414,-0.2288208,0.25531006,-0.75,9.734375,3.9375
1695900881285,-1.4467773400000001,-0.32769775,0.2555542,3.90625,-2.1875,2.4375
1695900881301,-1.4628906000000002,-0.29229736,0.25921631,-2.625,2.171875,-2.9375
1695900881346,-1.44018555,-0.19781494,0.32684325999999997,-8.546875,16.484375,-1.390625
1695900881376,-1.5458984,-0.20025635000000003,0.37200928,0.171875,3.578125,1.609375
1695900881420,-1.4663086,-0.28790283,0.23187256,10.21875,7.015625,11.5625
1695900881466,-1.4399414,-0.3591919,0.31463622999999996,-0.53125,18.234375,-6.90625
1695900881495,-1.4914551,-0.29644775,0.35076904,2.96875,9.625,-8.46875
1695900881540,-1.5334473,-0.26641846,0.3637085,-4.9375,7.796875,-3.78125
1695900881586,-1.4567871000000001,-0.28204346,0.34490967,-3.734375,11.109375,-1.4375
1695900881615,-1.4716797000000001,-0.26080322,0.36224365000000003,-3.375,4.390625,-0.734375
1695900881660,-1.5266113,-0.25567627000000004,0.36883545,-5.78125,8.765625,-1.109375
1695900881706,-1.4929199,-0.27423096,0.38885498,-3.40625,8.59375,-2.46875
1695900881735,-1.4499512,-0.26763916,0.40130615000000003,-2.078125,4.71875,-0.171875
1695900881782,-1.4753418,-0.25616455,0.38983154,-2.015625,3.609375,-0.671875
1695900881810,-1.47216797,-0.26397705,0.40301514,-1.984375,2.5,-2.25
1695900881854,-1.4770508,-0.25665283,0.41082764,-1.484375,2.140625,-1.0
1695900881930,-1.48828125,-0.27081299000000003,0.40106200999999997,-1.375,0.796875,-0.078125
1695900881932,-1.4858398400000001,-0.26055908,0.40521240000000003,-1.375,0.0625,-0.890625
