,timestamp,accel_x,accel_y,accel_z,gyro_x,gyro_y,gyro_z
0,1697605965,0.06958008,-0.9365845,0.45062256,1.671875,-1.0,0.9375
1,1697606005,0.07055664,-0.9365845,0.42962646,-1.171875,-1.96875,0.3125
2,1697606045,0.0625,-0.92633057,0.42425537,1.40625,-0.765625,0.640625
3,1697606085,0.06542969,-0.92926025,0.4328003,-0.546875,-0.09375,0.625
4,1697606125,0.06738281,-0.9373169,0.44085693,-0.03125,-0.984375,1.546875
5,1697606165,0.06201172,-0.9331665,0.43572998,0.703125,-1.21875,-0.078125
6,1697606205,0.059814453,-0.93585205,0.43133545,-0.765625,-0.34375,0.375
7,1697606245,0.057373047,-0.9343872,0.4376831,0.34375,0.140625,1.203125
8,1697606285,0.06616211,-0.9378052,0.4454956,0.453125,-0.3125,0.59375
9,1697606325,0.064208984,-0.92852783,0.4364624,0.765625,-0.140625,0.453125
10,1697606365,0.053710938,-0.9331665,0.43255615,-0.328125,-1.015625,0.6875
11,1697606405,0.06201172,-0.92559814,0.44403076,0.109375,-0.734375,1.234375
12,1697606445,0.06738281,-0.9302368,0.432312,-0.09375,-1.703125,0.140625
13,1697606485,0.055664062,-0.93218994,0.4520874,0.40625,0.484375,0.75
14,1697606525,0.0715332,-0.9224243,0.42596436,-0.546875,-1.515625,-0.09375
15,1697606565,0.048339844,-0.9378052,0.44281006,-1.015625,-0.921875,1.296875
16,1697606605,0.059326172,-0.9456177,0.45794678,1.859375,-0.953125,1.359375
17,1697606645,0.061767578,-0.9348755,0.44403076,0.125,-1.09375,0.265625
18,1697606685,0.061279297,-0.93170166,0.43450928,0.1875,-1.15625,-0.15625
19,1697606725,0.053466797,-0.9282837,0.4393921,1.515625,0.046875,1.46875
20,1697606765,0.05810547,-0.9194946,0.42767334,0.453125,-1.484375,1.46875
21,1697606805,0.064453125,-0.93927,0.42645264,-1.15625,0.109375,0.21875
22,1697606845,0.059326172,-0.94317627,0.43597412,1.453125,0.5,0.703125
23,1697606885,0.05810547,-0.92559814,0.44696045,0.484375,-0.28125,1.015625
24,1697606925,0.048583984,-0.93414307,0.434021,0.03125,-1.125,1.03125
25,1697606965,0.049804688,-0.9351196,0.43304443,0.546875,-0.640625,0.90625
26,1697607005,0.057617188,-0.93927,0.43963623,-0.296875,-0.0625,1.46875
27,1697607045,0.06591797,-0.9451294,0.44647217,0.359375,-0.15625,0.53125
28,1697607085,0.060058594,-0.92803955,0.43792725,0.609375,-0.609375,-0.125
29,1697607125,0.049316406,-0.9265747,0.4401245,-0.3125,-0.921875,0.453125
30,1697607165,0.056396484,-0.9295044,0.44622803,1.15625,0.125,1.6875
31,1697607205,0.06225586,-0.9314575,0.43182373,-0.515625,-1.046875,0.625
32,1697607245,0.056884766,-0.93878174,0.44818115,0.078125,0.140625,0.578125
33,1697607285,0.047851562,-0.94732666,0.44940186,1.90625,0.265625,2.46875
34,1697607325,0.06225586,-0.90631104,0.44378662,-1.046875,-0.890625,-1.078125
35,1697607365,0.0625,-0.9446411,0.42694092,0.265625,-1.453125,0.3125
36,1697607405,0.05908203,-0.9221802,0.43841553,-2.40625,-1.015625,-0.1875
37,1697607445,0.037109375,-0.94366455,0.4574585,2.171875,-1.234375,1.921875
38,1697607485,0.03540039,-0.94000244,0.4520874,1.328125,-1.375,0.65625
39,1697607525,0.06201172,-0.9378052,0.4352417,-0.46875,-1.203125,-0.390625
40,1697607565,0.061523438,-0.9402466,0.4352417,0.671875,-1.125,1.265625
41,1697607605,0.056396484,-0.9282837,0.45477295,2.21875,0.078125,1.546875
42,1697607645,0.03515625,-0.9299927,0.4262085,-2.59375,-0.984375,0.578125
43,1697607685,0.048095703,-0.93463135,0.43548584,0.6875,-1.1875,0.75
44,1697607725,0.068847656,-0.94195557,0.4454956,0.296875,0.234375,0.515625
45,1697607765,0.041503906,-0.9277954,0.4586792,-0.109375,-0.984375,0.84375
46,1697607805,0.0546875,-0.9331665,0.45013428,-0.5625,-0.96875,0.421875
47,1697607845,0.04711914,-0.9324341,0.45404053,0.90625,-0.421875,1.34375
48,1697607885,0.053955078,-0.93536377,0.4484253,0.109375,-0.625,1.0
49,1697607925,0.057128906,-0.92388916,0.4389038,-1.125,-1.109375,0.40625
50,1697607965,0.06518555,-0.9348755,0.45721436,0.625,-0.109375,1.109375
51,1697608005,0.045410156,-0.9273071,0.4472046,0.359375,-0.296875,2.25
52,1697608045,0.056396484,-0.9187622,0.4472046,-0.171875,-0.390625,0.328125
53,1697608085,0.049804688,-0.9331665,0.4508667,0.4375,-0.1875,0.875
54,1697608125,0.049560547,-0.9248657,0.4442749,-0.09375,-0.078125,1.546875
55,1697608165,0.048583984,-0.92681885,0.4533081,-0.359375,-0.578125,0.640625
56,1697608205,0.04711914,-0.92022705,0.4569702,-0.15625,-0.8125,-0.1875
57,1697608245,0.057861328,-0.9180298,0.4574585,0.5625,0.046875,-0.09375
58,1697608285,0.04248047,-0.94000244,0.45965576,-1.25,-0.390625,1.5625
59,1697608325,0.049316406,-0.9209595,0.449646,-2.46875,-1.109375,-0.578125
60,1697608365,0.036132812,-0.927063,0.46795654,1.421875,-1.203125,0.25
61,1697608405,0.047851562,-0.93756104,0.46307373,1.203125,-0.53125,1.765625
62,1697608445,0.057861328,-0.9260864,0.44769287,-2.171875,-0.40625,-0.328125
63,1697608485,0.04296875,-0.9182739,0.44281006,-1.078125,-1.9375,-1.09375
64,1697608525,0.030273438,-0.94073486,0.4743042,3.34375,0.0,1.484375
65,1697608565,0.037841797,-0.92071533,0.45819092,-0.84375,-0.453125,2.15625
66,1697608605,0.041015625,-0.923645,0.4520874,0.140625,-0.390625,-0.46875
67,1697608645,0.052490234,-0.9307251,0.4623413,1.390625,-0.265625,0.578125
68,1697608685,0.05029297,-0.9324341,0.45721436,-0.34375,-0.3125,1.671875
69,1697608725,0.039794922,-0.92437744,0.45721436,-0.21875,-0.140625,0.375
70,1697608765,0.041259766,-0.9248657,0.4569702,0.859375,-0.953125,0.3125
71,1697608805,0.05029297,-0.92681885,0.45428467,-0.53125,-0.296875,0.375
72,1697608845,0.04272461,-0.9373169,0.4640503,0.640625,-0.5625,1.5625
73,1697608885,0.040527344,-0.9265747,0.4550171,-0.328125,-0.671875,0.8125
74,1697608925,0.04638672,-0.9204712,0.45111084,-0.109375,-0.71875,0.484375
75,1697608965,0.03881836,-0.9277954,0.45965576,0.5625,-0.125,1.21875
76,1697609005,0.042236328,-0.9299927,0.46722412,0.5625,-0.421875,1.140625
77,1697609045,0.046142578,-0.9331665,0.46429443,0.265625,0.015625,0.765625
78,1697609085,0.037109375,-0.93048096,0.46258545,0.5,-0.484375,0.90625
79,1697609125,0.040039062,-0.9170532,0.45599365,0.171875,-0.1875,0.453125
80,1697609165,0.053466797,-0.9248657,0.4611206,-0.15625,-0.09375,0.453125
81,1697609205,0.041503906,-0.93218994,0.46258545,-0.46875,-0.21875,1.125
82,1697609245,0.052001953,-0.91851807,0.45550537,-2.65625,-1.390625,-0.03125
83,1697609285,0.026367188,-0.91973877,0.47894287,1.28125,-0.46875,0.265625
84,1697609325,0.017822266,-0.9360962,0.4677124,0.625,0.09375,0.625
85,1697609365,0.032470703,-0.91607666,0.45599365,-1.125,0.03125,-0.96875
86,1697609405,0.06982422,-0.9229126,0.45111084,2.234375,-1.28125,-0.296875
87,1697609445,0.05883789,-0.9414673,0.47381592,2.234375,-0.046875,1.40625
88,1697609485,0.015625,-0.940979,0.47698975,-1.046875,-0.90625,1.265625
89,1697609525,0.0146484375,-0.9302368,0.4623413,-0.578125,-0.703125,-0.421875
90,1697609565,0.03881836,-0.9258423,0.45599365,-0.46875,-0.03125,0.328125
91,1697609605,0.048095703,-0.91851807,0.4623413,0.8125,-0.953125,0.734375
92,1697609645,0.038085938,-0.94415283,0.46966553,0.390625,-0.765625,1.015625
93,1697609685,0.021728516,-0.93096924,0.47235107,0.015625,-0.6875,0.765625
94,1697609725,0.038330078,-0.9212036,0.4574585,0.921875,0.078125,0.265625
95,1697609765,0.045654297,-0.9229126,0.4640503,-0.71875,-0.734375,0.3125
96,1697609805,0.036132812,-0.9314575,0.4623413,0.765625,-0.421875,0.90625
97,1697609845,0.03466797,-0.92681885,0.4689331,-1.0,-0.1875,0.921875
98,1697609885,0.026855469,-0.9302368,0.46673584,0.0625,-0.65625,0.34375
99,1697609925,0.04248047,-0.92388916,0.46258545,0.265625,-0.234375,0.609375
100,1697609965,0.03125,-0.9204712,0.46575928,0.578125,-1.03125,1.390625
101,1697610005,0.02368164,-0.92315674,0.47698975,0.546875,-0.359375,0.921875
102,1697610045,0.03491211,-0.93048096,0.46917725,-0.375,-0.71875,0.21875
103,1697610085,0.04321289,-0.9151001,0.47235107,-2.234375,-0.34375,0.25
104,1697610125,0.030273438,-0.91973877,0.4628296,-1.828125,-2.203125,0.484375
105,1697610165,0.0234375,-0.9163208,0.46746826,-2.640625,-3.703125,-0.140625
106,1697610205,0.01953125,-0.9258423,0.48651123,0.875,-1.375,-1.5
107,1697610245,0.028320312,-0.93829346,0.48260498,0.25,-1.59375,-0.84375
108,1697610285,0.018066406,-0.91607666,0.48114014,1.46875,-0.25,0.109375
109,1697610325,0.020751953,-0.9163208,0.46551514,1.65625,-0.15625,0.96875
110,1697610365,0.018310547,-0.9229126,0.47357178,2.421875,-0.921875,1.5
111,1697610405,0.025146484,-0.92193604,0.4804077,0.734375,-0.234375,0.59375
112,1697610445,0.017578125,-0.9277954,0.4701538,-0.25,-0.78125,0.203125
113,1697610485,0.01928711,-0.91412354,0.47650146,-1.03125,0.21875,0.125
114,1697610525,0.03173828,-0.9209595,0.47113037,0.875,-0.671875,0.34375
115,1697610565,0.01928711,-0.9302368,0.47332764,-0.03125,-0.84375,0.375
116,1697610605,0.018066406,-0.91363525,0.4857788,-2.546875,-2.640625,-0.671875
117,1697610645,0.00390625,-0.9175415,0.479187,-1.15625,-1.765625,-0.296875
118,1697610685,0.0021972656,-0.9224243,0.46966553,-2.8125,-3.15625,-0.1875
119,1697610725,0.013916016,-0.9031372,0.49871826,1.46875,-1.71875,-0.703125
120,1697610765,0.0029296875,-0.92633057,0.4911499,3.375,-1.484375,1.203125
121,1697610805,-0.0087890625,-0.92926025,0.4869995,1.90625,0.171875,1.96875
122,1697610845,0.0029296875,-0.89849854,0.48602295,1.390625,1.125,-0.515625
123,1697610885,0.0043945312,-0.9143677,0.47698975,4.125,2.640625,0.3125
124,1697610925,0.0063476562,-0.91485596,0.5038452,8.84375,8.203125,1.046875
125,1697610965,-0.025634766,-0.97125244,0.44158936,7.46875,5.671875,5.375
126,1697611005,0.020751953,-0.9199829,0.43133545,9.5,5.296875,5.46875
127,1697611045,0.053222656,-0.9314575,0.4413452,5.5,5.296875,3.15625
128,1697611085,0.044433594,-0.9446411,0.4286499,3.125,4.984375,1.9375
129,1697611125,0.033935547,-0.93634033,0.4413452,3.640625,3.5625,1.859375
130,1697611165,0.036865234,-0.9522095,0.4335327,6.46875,3.3125,3.3125
131,1697611205,0.067871094,-0.944397,0.41912842,1.765625,0.96875,3.765625
132,1697611245,0.068115234,-0.9385376,0.40472412,1.1875,-0.96875,3.171875
133,1697611285,0.06567383,-0.93096924,0.3998413,3.25,-0.75,2.375
134,1697611325,0.05102539,-0.93096924,0.4064331,1.359375,-3.046875,1.625
135,1697611365,0.047851562,-0.9414673,0.41400146,-0.5625,-3.890625,0.234375
136,1697611405,0.052734375,-0.9505005,0.40252686,0.84375,-3.890625,2.390625
137,1697611445,0.060058594,-0.9414673,0.40789795,1.984375,-1.6875,2.25
138,1697611485,0.047607422,-0.92803955,0.3937378,-4.078125,-1.953125,-1.0625
139,1697611525,0.04248047,-0.96832275,0.43304443,1.578125,-0.296875,1.265625
140,1697611565,0.053466797,-0.94317627,0.43206787,-0.25,1.34375,2.234375
141,1697611605,0.04321289,-0.92144775,0.41326904,-3.0625,0.4375,0.140625
142,1697611645,0.060791016,-0.928772,0.4237671,-0.84375,1.03125,0.578125
143,1697611685,0.05810547,-0.9368286,0.43548584,0.484375,1.0625,2.328125
144,1697611725,0.052734375,-0.9209595,0.42034912,-4.5,-0.296875,0.25
145,1697611765,0.04345703,-0.9505005,0.44476318,0.734375,-0.453125,1.015625
146,1697611805,0.051513672,-0.9378052,0.43475342,-1.078125,0.359375,0.875
147,1697611845,0.05419922,-0.92266846,0.41766357,-2.4375,-0.859375,0.53125
148,1697611885,0.05419922,-0.9260864,0.4303589,-0.046875,-0.28125,0.671875
149,1697611925,0.05859375,-0.9483032,0.44500732,1.03125,0.234375,1.40625
150,1697611965,0.06323242,-0.9265747,0.43182373,-1.0625,-0.3125,0.4375
151,1697612005,0.05834961,-0.93341064,0.4303589,-0.453125,-0.1875,0.515625
152,1697612045,0.056640625,-0.9380493,0.4381714,0.71875,0.03125,1.0625
153,1697612085,0.064941406,-0.9360962,0.44110107,-0.125,-0.734375,0.921875
154,1697612125,0.059814453,-0.9324341,0.44573975,-0.78125,-1.234375,1.03125
155,1697612165,0.061523438,-0.9314575,0.44207764,0.0,-0.625,0.453125
156,1697612205,0.053222656,-0.93218994,0.43841553,-0.28125,-1.609375,0.703125
157,1697612245,0.052734375,-0.93218994,0.44158936,-0.640625,-1.328125,1.15625
158,1697612285,0.05517578,-0.9324341,0.44232178,-0.28125,-1.328125,1.15625
159,1697612325,0.05078125,-0.9258423,0.44110107,1.46875,-0.9375,1.1875
160,1697612365,0.060302734,-0.91485596,0.4364624,-0.515625,-1.09375,0.40625
161,1697612405,0.059326172,-0.94415283,0.4508667,0.953125,-0.828125,1.25
162,1697612445,0.04321289,-0.9216919,0.43133545,-2.328125,-0.96875,-0.046875
163,1697612485,0.033935547,-0.93927,0.45257568,1.578125,-0.625,0.328125
164,1697612525,0.04321289,-0.9421997,0.4569702,-0.015625,0.046875,0.65625
165,1697612565,0.060546875,-0.92681885,0.44403076,-0.75,-0.1875,-0.25
166,1697612605,0.048095703,-0.93878174,0.43792725,1.359375,-0.515625,0.90625
167,1697612645,0.055419922,-0.9351196,0.43475342,1.078125,0.125,1.28125
168,1697612685,0.057617188,-0.9199829,0.44329834,0.609375,0.078125,0.234375
169,1697612725,0.05102539,-0.9404907,0.43914795,1.125,0.4375,1.453125
170,1697612765,0.05126953,-0.9326782,0.42962646,1.75,0.46875,0.21875
171,1697612805,0.06665039,-0.94488525,0.44696045,1.125,-0.234375,0.9375
172,1697612845,0.045410156,-0.92803955,0.43914795,1.4375,0.265625,1.3125
173,1697612885,0.046875,-0.9380493,0.43548584,0.078125,-0.734375,0.578125
174,1697612925,0.056640625,-0.9277954,0.43719482,-0.46875,-1.078125,-0.25
175,1697612965,0.053466797,-0.9302368,0.45257568,-0.609375,-0.625,-0.375
176,1697613005,0.045166016,-0.9414673,0.44989014,0.359375,-0.296875,1.5625
177,1697613045,0.036376953,-0.93414307,0.45135498,0.34375,2.171875,-0.234375
178,1697613085,0.048583984,-0.9385376,0.41986084,-2.9375,1.09375,-2.4375
179,1697613125,0.061523438,-0.9092407,0.43597412,0.34375,-0.171875,-2.03125
180,1697613165,0.059814453,-0.93951416,0.44647217,0.578125,-0.65625,1.125
181,1697613205,0.030273438,-0.93585205,0.45721436,-1.1875,-0.625,0.390625
182,1697613245,0.020751953,-0.9338989,0.46185303,2.5,-0.359375,-0.734375
183,1697613285,0.05029297,-0.91851807,0.44451904,-0.765625,0.0,0.3125
184,1697613325,0.053466797,-0.93218994,0.4484253,0.015625,-1.21875,1.171875
185,1697613365,0.03466797,-0.9351196,0.44744873,2.640625,-0.625,1.578125
186,1697613405,0.033447266,-0.92559814,0.45037842,-1.15625,-0.765625,0.328125
187,1697613445,0.04345703,-0.9356079,0.44085693,-0.203125,-1.421875,0.578125
188,1697613485,0.030029297,-0.9331665,0.4484253,0.796875,-0.078125,0.84375
189,1697613525,0.044189453,-0.93292236,0.449646,-0.734375,-1.234375,0.9375
190,1697613565,0.037109375,-0.9295044,0.4418335,0.578125,-0.5625,1.140625
191,1697613605,0.03173828,-0.92681885,0.45159912,-0.703125,-0.671875,0.78125
192,1697613645,0.033447266,-0.9182739,0.45159912,-0.171875,-0.75,0.5
193,1697613685,0.029052734,-0.93829346,0.4586792,1.03125,-0.421875,1.359375
194,1697613725,0.04638672,-0.944397,0.45306396,-0.203125,0.171875,1.75
195,1697613765,0.044677734,-0.9343872,0.44696045,-0.09375,-0.078125,0.625
196,1697613805,0.034179688,-0.9234009,0.4533081,-1.5,-1.25,0.484375
197,1697613845,0.034179688,-0.9204712,0.45672607,0.3125,-0.4375,0.65625
198,1697613885,0.052490234,-0.9390259,0.4472046,-1.0,-0.796875,0.53125
199,1697613925,0.040039062,-0.93463135,0.4569702,-0.3125,0.1875,0.359375
200,1697613965,0.040771484,-0.92315674,0.45062256,-2.09375,-0.921875,0.53125
201,1697614005,0.029052734,-0.92803955,0.46209717,1.359375,-0.78125,0.671875
202,1697614045,0.03149414,-0.9397583,0.46795654,0.625,-0.453125,0.859375
203,1697614085,0.044921875,-0.92633057,0.46038818,-2.1875,-1.0625,-0.0625
204,1697614125,0.031982422,-0.927063,0.46600342,0.015625,-1.1875,-0.03125
205,1697614165,0.024169922,-0.9365845,0.45965576,1.3125,-0.171875,0.9375
206,1697614205,0.040771484,-0.9151001,0.46575928,-0.96875,-0.515625,0.5
207,1697614245,0.03149414,-0.9385376,0.47113037,1.296875,-0.828125,1.40625
208,1697614285,0.034423828,-0.9312134,0.45965576,-0.875,0.25,1.078125
209,1697614325,0.04345703,-0.9204712,0.46624756,-0.09375,-0.859375,0.203125
210,1697614365,0.033935547,-0.9324341,0.47406006,-0.125,-0.734375,0.53125
211,1697614405,0.026611328,-0.9277954,0.46917725,0.28125,-0.53125,0.703125
212,1697614445,0.022949219,-0.9187622,0.4730835,-0.359375,-0.03125,0.3125
213,1697614485,0.03173828,-0.9258423,0.46209717,1.265625,0.6875,0.40625
214,1697614525,0.04272461,-0.9221802,0.45550537,0.21875,1.6875,1.203125
215,1697614565,0.06201172,-0.91729736,0.46331787,3.5625,1.03125,1.546875
216,1697614605,0.036132812,-0.9248657,0.4743042,2.78125,0.234375,1.8125
217,1697614645,0.015380859,-0.93829346,0.45672607,0.8125,-1.25,1.265625
218,1697614685,0.028564453,-0.92437744,0.45892334,0.296875,-0.71875,-0.1875
219,1697614725,0.04663086,-0.93951416,0.4545288,-0.28125,-0.484375,1.0
220,1697614765,0.032958984,-0.913147,0.4713745,-1.34375,-1.4375,0.75
221,1697614805,0.03955078,-0.9456177,0.4562378,-0.53125,-1.75,0.015625
222,1697614845,0.02319336,-0.91656494,0.46917725,-1.9375,-0.265625,0.46875
223,1697614885,0.023925781,-0.9336548,0.46966553,2.5,-0.59375,0.21875
224,1697614925,0.03515625,-0.9258423,0.465271,-1.609375,-0.34375,0.828125
225,1697614965,0.028076172,-0.93170166,0.45941162,0.0,-0.828125,0.0
226,1697615005,0.021728516,-0.92974854,0.45672607,-0.59375,-0.890625,-0.015625
227,1697615045,0.021240234,-0.91656494,0.4616089,-0.21875,-0.71875,0.765625
228,1697615085,0.029541016,-0.9258423,0.46429443,-0.671875,-1.03125,0.46875
229,1697615125,0.030761719,-0.92437744,0.47454834,2.40625,-0.921875,1.375
230,1697615165,0.03881836,-0.9302368,0.47039795,0.015625,-0.890625,3.203125
231,1697615205,0.036621094,-0.9234009,0.46673584,-0.109375,-0.015625,3.15625
232,1697615245,0.024169922,-0.91851807,0.46502686,1.71875,-0.828125,1.203125
233,1697615285,0.014892578,-0.9356079,0.47381592,0.734375,-1.328125,0.28125
234,1697615325,0.029052734,-0.9331665,0.46209717,0.28125,-0.875,1.15625
235,1697615365,0.028320312,-0.925354,0.45843506,-0.5625,-0.3125,1.40625
236,1697615405,0.03125,-0.91729736,0.46966553,0.8125,-0.25,0.90625
237,1697615445,0.041992188,-0.92144775,0.465271,-1.140625,-0.578125,0.6875
238,1697615485,0.040771484,-0.92022705,0.4755249,0.765625,-0.53125,0.859375
239,1697615525,0.049804688,-0.9260864,0.46331787,-1.421875,-1.640625,0.359375
240,1697615565,0.040039062,-0.9221802,0.47454834,0.34375,-1.609375,-0.453125
241,1697615605,0.0234375,-0.92681885,0.47943115,0.78125,-1.78125,0.171875
242,1697615645,0.03125,-0.9077759,0.47772217,0.234375,-2.078125,-1.078125
243,1697615685,0.041503906,-0.9356079,0.45941162,-0.828125,-1.578125,-0.65625
244,1697615725,0.022949219,-0.91412354,0.46917725,-0.359375,-1.8125,0.390625
245,1697615765,-0.0073242188,-0.93585205,0.47381592,1.71875,-1.046875,0.71875
246,1697615805,0.007080078,-0.93048096,0.47650146,-0.265625,-0.3125,-0.015625
247,1697615845,0.022216797,-0.9212036,0.4628296,-1.15625,-0.5625,-0.265625
248,1697615885,0.021972656,-0.9216919,0.4772339,1.09375,-0.453125,0.296875
249,1697615925,0.013916016,-0.92803955,0.48406982,0.5625,-0.78125,0.421875
250,1697615965,0.008300781,-0.913147,0.47991943,-0.59375,-0.078125,-0.25
251,1697616005,0.017822266,-0.9221802,0.47381592,1.46875,-0.171875,0.921875
252,1697616045,0.021240234,-0.92071533,0.47869873,1.484375,-0.34375,1.171875
253,1697616085,0.016113281,-0.9265747,0.4706421,-0.125,-1.609375,1.234375
254,1697616125,0.009765625,-0.9319458,0.4689331,0.0625,-0.828125,0.6875
255,1697616165,0.016357422,-0.9199829,0.4755249,0.640625,-0.46875,-0.03125
256,1697616205,0.0087890625,-0.91900635,0.4845581,0.421875,-0.484375,0.984375
257,1697616245,0.0063476562,-0.9248657,0.47381592,-0.765625,-0.546875,1.375
258,1697616285,0.018798828,-0.92022705,0.46600342,0.109375,-0.3125,0.78125
259,1697616325,0.015380859,-0.9204712,0.46722412,-0.28125,-0.640625,0.53125
260,1697616365,0.0073242188,-0.9180298,0.48309326,1.0625,0.0625,0.28125
261,1697616405,0.010498047,-0.91778564,0.480896,3.5,2.34375,1.34375
262,1697616445,0.026611328,-0.9368286,0.46502686,4.671875,1.3125,3.234375
263,1697616485,-0.0026855469,-0.91900635,0.47772217,0.65625,0.59375,2.421875
264,1697616525,0.034179688,-0.9170532,0.45916748,-0.078125,-0.625,1.15625
265,1697616565,0.044189453,-0.9282837,0.46429443,1.265625,-0.84375,0.625
266,1697616605,0.0107421875,-0.92755127,0.47283936,0.359375,-1.875,1.5625
267,1697616645,-0.00048828125,-0.942688,0.47210693,-0.328125,-1.265625,1.90625
268,1697616685,0.02319336,-0.9151001,0.46502686,-0.015625,-1.078125,0.953125
269,1697616725,0.04272461,-0.9187622,0.46453857,-1.203125,-1.15625,1.578125
270,1697616765,0.01977539,-0.9277954,0.46917725,0.734375,-0.84375,2.140625
271,1697616805,0.03173828,-0.9302368,0.46844482,0.4375,-1.34375,1.75
272,1697616845,0.03491211,-0.91412354,0.48187256,0.140625,-1.09375,0.78125
273,1697616885,0.0053710938,-0.93463135,0.47113037,0.8125,-0.921875,1.75
274,1697616925,0.021484375,-0.9212036,0.47528076,-1.734375,-2.359375,1.828125
275,1697616965,0.02709961,-0.91241455,0.4664917,-1.40625,-2.1875,0.515625
276,1697617005,0.028808594,-0.92388916,0.48114014,-0.78125,-1.734375,-0.171875
277,1697617045,0.017578125,-0.9246216,0.4850464,0.203125,-1.015625,0.578125
278,1697617085,0.012451172,-0.91241455,0.4833374,1.1875,1.578125,-0.125
279,1697617125,0.016357422,-0.9126587,0.47113037,2.59375,2.921875,0.359375
280,1697617165,0.03491211,-0.9546509,0.48358154,11.171875,8.9375,2.828125
281,1697617205,0.024414062,-1.0120239,0.5153198,15.453125,11.53125,9.1875
282,1697617245,0.067871094,-0.8960571,0.45306396,1.96875,11.0,5.296875
283,1697617285,0.034179688,-0.90093994,0.40911865,1.796875,8.03125,1.796875
284,1697617325,0.05053711,-0.9163208,0.39031982,8.0,13.15625,4.28125
285,1697617365,0.067871094,-0.95758057,0.41864014,13.421875,12.15625,4.9375
286,1697617405,0.09033203,-0.9951782,0.36834717,1.5,5.796875,4.796875
287,1697617445,0.0859375,-0.92926025,0.39788818,2.96875,5.6875,-0.46875
288,1697617485,0.14868164,-0.94122314,0.3842163,3.09375,2.234375,2.171875
289,1697617525,0.08691406,-0.94317627,0.39154053,-2.453125,3.71875,4.46875
290,1697617565,0.09033203,-0.9368286,0.40570068,2.09375,4.640625,2.4375
291,1697617605,0.10620117,-0.9492798,0.39105225,0.234375,-0.4375,2.765625
292,1697617645,0.1484375,-0.9299927,0.38323975,-0.640625,1.0,2.640625
293,1697617685,0.1171875,-0.93536377,0.37249756,-0.9375,-1.234375,3.53125
294,1697617725,0.11816406,-0.9121704,0.3793335,-2.4375,-4.21875,0.734375
295,1697617765,0.107421875,-0.95928955,0.3973999,0.921875,-3.40625,3.390625
296,1697617805,0.12231445,-0.94854736,0.38250732,-1.015625,-3.25,1.96875
297,1697617845,0.1315918,-0.94366455,0.401062,-0.359375,-1.265625,1.109375
298,1697617885,0.11206055,-0.9390259,0.4069214,0.0,-1.828125,0.03125
299,1697617925,0.110839844,-0.93951416,0.40374756,-1.953125,-3.109375,0.359375
300,1697617965,0.10595703,-0.93292236,0.4257202,-1.015625,0.28125,0.234375
301,1697618005,0.11328125,-0.9417114,0.42279053,-0.6875,-0.34375,-0.015625
302,1697618045,0.1081543,-0.93878174,0.40838623,-1.1875,-1.25,-0.03125
303,1697618085,0.10107422,-0.92755127,0.41082764,-1.109375,-1.0625,-0.078125
304,1697618125,0.103759766,-0.93536377,0.4105835,-0.90625,-0.265625,1.078125
305,1697618165,0.109375,-0.92852783,0.4142456,1.328125,-2.0,0.125
306,1697618205,0.107666016,-0.92803955,0.39642334,-2.046875,-2.4375,-1.171875
307,1697618245,0.09765625,-0.9404907,0.4335327,0.828125,-1.328125,0.640625
308,1697618285,0.09423828,-0.92193604,0.4179077,-2.28125,-3.0,-0.90625
309,1697618325,0.09765625,-0.93707275,0.42889404,-0.96875,-3.0625,-1.40625
310,1697618365,0.08178711,-0.94903564,0.42962646,1.421875,-2.40625,0.65625
311,1697618405,0.09667969,-0.9324341,0.4220581,-0.234375,-1.96875,0.4375
312,1697618445,0.09423828,-0.94976807,0.42425537,-0.046875,-0.53125,0.359375
313,1697618485,0.079589844,-0.93292236,0.4237671,0.5,-0.765625,0.078125
314,1697618525,0.084472656,-0.9192505,0.43255615,-0.984375,-0.9375,-0.578125
315,1697618565,0.088378906,-0.94073486,0.4244995,-1.078125,-1.203125,1.046875
316,1697618605,0.09350586,-0.94488525,0.43743896,0.71875,-0.59375,0.65625
317,1697618645,0.08862305,-0.9385376,0.43255615,0.375,-1.1875,0.34375
318,1697618685,0.087890625,-0.9248657,0.42547607,-0.25,-0.609375,0.28125
319,1697618725,0.078125,-0.9380493,0.42010498,-0.453125,-1.234375,0.90625
320,1697618765,0.08154297,-0.93634033,0.42718506,0.96875,-0.921875,0.59375
321,1697618805,0.07836914,-0.9451294,0.43621826,0.234375,-1.328125,0.734375
322,1697618845,0.08129883,-0.9258423,0.42279053,-0.5,-1.28125,0.453125
323,1697618885,0.07714844,-0.9351196,0.42352295,-0.21875,-1.71875,0.375
324,1697618925,0.07348633,-0.9326782,0.44085693,0.390625,-1.09375,-0.234375
325,1697618965,0.083984375,-0.9558716,0.4196167,-1.125,-0.3125,-0.25
326,1697619005,0.0769043,-0.9216919,0.43963623,0.40625,-0.78125,-0.515625
327,1697619045,0.0847168,-0.9351196,0.418396,-1.09375,-1.375,0.125
328,1697619085,0.072265625,-0.93829346,0.44036865,-0.328125,-1.09375,0.46875
329,1697619125,0.06616211,-0.9402466,0.4520874,2.046875,-0.46875,0.90625
330,1697619165,0.07055664,-0.93292236,0.4303589,-1.328125,-0.53125,-0.09375
331,1697619205,0.0793457,-0.9365845,0.43328857,0.03125,-0.46875,-0.390625
332,1697619245,0.07104492,-0.9224243,0.4418335,1.125,0.125,0.953125
333,1697619285,0.06542969,-0.9336548,0.4328003,-0.25,-0.421875,0.59375
334,1697619325,0.07519531,-0.9378052,0.43621826,-0.875,-0.140625,0.15625
335,1697619365,0.06713867,-0.9475708,0.4389038,1.609375,0.765625,0.515625
336,1697619405,0.07348633,-0.93707275,0.43963623,-0.765625,2.59375,-0.390625
337,1697619445,0.071777344,-0.9483032,0.46673584,7.65625,7.25,0.671875
338,1697619485,0.056396484,-0.9631958,0.43328857,2.796875,4.0,4.078125
339,1697619525,0.076171875,-0.9085083,0.40545654,-0.1875,2.953125,1.046875
340,1697619565,0.095458984,-0.93536377,0.42132568,5.28125,3.734375,1.578125
341,1697619605,0.08081055,-0.93927,0.4225464,2.0,4.359375,2.859375
342,1697619645,0.076660156,-0.9536743,0.41278076,-2.046875,2.90625,2.09375
343,1697619685,0.033935547,-0.9060669,0.3805542,1.453125,1.921875,0.1875
344,1697619725,0.13476562,-0.9841919,0.41351318,9.8125,-0.75,2.390625
345,1697619765,0.13989258,-0.9336548,0.4142456,3.03125,1.8125,1.984375
346,1697619805,0.076416016,-0.90704346,0.3673706,0.4375,-1.359375,-0.03125
347,1697619845,0.09008789,-0.93927,0.37298584,-3.40625,-3.96875,0.140625
348,1697619885,0.084472656,-0.956604,0.42889404,1.625,-3.171875,1.328125
349,1697619925,0.09423828,-0.95513916,0.4310913,-0.3125,-2.109375,1.890625
350,1697619965,0.09057617,-0.9429321,0.39593506,-2.0,-3.71875,0.375
351,1697620005,0.09765625,-0.92510986,0.41033936,1.109375,-1.890625,-1.25
352,1697620045,0.067871094,-0.9246216,0.39715576,-1.53125,-2.046875,0.21875
353,1697620085,0.08081055,-0.96588135,0.4171753,-1.28125,-0.921875,1.828125
354,1697620125,0.09472656,-0.9475708,0.42230225,0.96875,-1.4375,1.21875
355,1697620165,0.09106445,-0.93463135,0.41278076,-2.828125,-1.609375,-0.921875
356,1697620205,0.08251953,-0.9360962,0.4088745,-0.171875,-0.171875,0.453125
357,1697620245,0.07397461,-0.9336548,0.41400146,-0.328125,0.109375,1.15625
358,1697620285,0.07763672,-0.94488525,0.41888428,-1.3125,-1.0,0.546875
359,1697620325,0.08618164,-0.9517212,0.4286499,1.21875,0.109375,0.421875
360,1697620365,0.080078125,-0.93096924,0.4225464,0.109375,-0.734375,0.1875
361,1697620405,0.079833984,-0.94122314,0.41497803,-0.859375,-1.421875,0.421875
362,1697620445,0.07788086,-0.93170166,0.4220581,1.0,-0.34375,1.1875
363,1697620485,0.079589844,-0.93951416,0.42669678,-0.390625,-1.28125,0.609375
364,1697620525,0.08227539,-0.93927,0.42791748,0.203125,-2.140625,0.84375
365,1697620565,0.07519531,-0.9290161,0.43182373,0.3125,-2.03125,0.375
366,1697620605,0.08227539,-0.9260864,0.41375732,-2.03125,-1.78125,-0.328125
367,1697620645,0.07006836,-0.9534302,0.43377686,0.734375,-0.796875,1.28125
368,1697620685,0.0793457,-0.9258423,0.41082764,-2.671875,-1.046875,-0.78125
369,1697620725,0.07006836,-0.9343872,0.43255615,1.40625,-1.421875,0.109375
370,1697620765,0.061767578,-0.94610596,0.44451904,1.328125,-0.84375,1.078125
371,1697620805,0.072753906,-0.92681885,0.43670654,-1.515625,-1.375,0.859375
372,1697620845,0.07788086,-0.93585205,0.4105835,-0.984375,-1.125,-0.484375
373,1697620885,0.06567383,-0.9470825,0.44378662,2.15625,-0.09375,1.5
374,1697620925,0.076171875,-0.9273071,0.4310913,-0.484375,-0.8125,1.1875
375,1697620965,0.06958008,-0.9397583,0.42425537,-0.625,-1.0,0.265625
376,1697621005,0.06542969,-0.9348755,0.43084717,0.796875,-0.453125,0.625
377,1697621045,0.06933594,-0.93096924,0.4262085,-0.53125,-0.9375,0.546875
378,1697621085,0.064697266,-0.94317627,0.43695068,0.515625,-1.1875,0.703125
379,1697621125,0.06201172,-0.9319458,0.43304443,-0.453125,-0.296875,0.140625
380,1697621165,0.06738281,-0.9336548,0.4389038,-0.5,-0.875,0.046875
381,1697621205,0.05908203,-0.942688,0.4335327,-0.28125,-0.34375,0.6875
382,1697621245,0.061767578,-0.92926025,0.43621826,0.21875,-0.34375,0.25
383,1697621285,0.05859375,-0.92755127,0.43475342,-0.25,-0.140625,0.515625
384,1697621325,0.06616211,-0.94073486,0.44036865,0.265625,0.796875,0.5625
385,1697621365,0.07324219,-0.93829346,0.4352417,-0.75,0.578125,0.546875
386,1697621405,0.064453125,-0.9319458,0.45550537,0.53125,2.515625,-0.34375
387,1697621445,0.0546875,-0.95928955,0.4467163,1.046875,5.984375,0.0
388,1697621485,0.053222656,-0.96295166,0.45233154,5.15625,4.96875,1.890625
389,1697621525,0.0847168,-0.91363525,0.4179077,0.375,1.9375,1.921875
390,1697621565,0.078125,-0.91290283,0.4052124,1.140625,1.46875,1.3125
391,1697621605,0.076660156,-0.9470825,0.4401245,5.71875,3.453125,3.59375
392,1697621645,0.08081055,-0.9558716,0.42669678,1.578125,2.703125,2.328125
393,1697621685,0.08154297,-0.95684814,0.41571045,1.09375,1.234375,0.203125
394,1697621725,0.06958008,-0.92388916,0.41766357,3.8125,1.65625,0.4375
395,1697621765,0.09814453,-0.928772,0.3998413,5.171875,0.65625,1.265625
396,1697621805,0.10424805,-0.960022,0.40447998,0.28125,0.296875,1.828125
397,1697621845,0.059326172,-0.960022,0.40423584,1.5625,1.4375,2.171875
398,1697621885,0.08227539,-0.9312134,0.4003296,1.390625,0.734375,1.359375
399,1697621925,0.107177734,-0.92144775,0.39007568,1.71875,-1.15625,1.078125
400,1697621965,0.08691406,-0.9351196,0.39642334,0.8125,-2.625,1.328125
401,1697622005,0.07910156,-0.93096924,0.40350342,-2.1875,-4.890625,0.90625
402,1697622045,0.08300781,-0.93951416,0.41888428,0.359375,-3.0,1.40625
403,1697622085,0.08959961,-0.9614868,0.4244995,0.078125,-1.875,1.453125
404,1697622125,0.0925293,-0.9365845,0.40472412,-1.0,-0.59375,0.109375
405,1697622165,0.07714844,-0.9380493,0.4039917,1.375,0.859375,1.3125
406,1697622205,0.076660156,-0.9331665,0.4105835,0.171875,-0.1875,0.796875
407,1697622245,0.08227539,-0.93585205,0.4142456,0.46875,-2.078125,0.265625
408,1697622285,0.08081055,-0.9590454,0.41497803,0.09375,-0.828125,1.671875
409,1697622325,0.088378906,-0.9495239,0.4154663,-1.046875,-0.984375,1.609375
410,1697622365,0.09033203,-0.9302368,0.39642334,-0.109375,-2.328125,-0.078125
411,1697622405,0.08618164,-0.9402466,0.41156006,0.359375,0.25,0.875
412,1697622445,0.087646484,-0.9385376,0.40301514,0.625,-1.53125,0.734375
413,1697622485,0.08520508,-0.9336548,0.40545654,-0.140625,-1.09375,0.984375
414,1697622525,0.0949707,-0.9458618,0.4076538,0.234375,-1.46875,0.0625
415,1697622565,0.07543945,-0.9463501,0.40447998,0.9375,-1.125,1.0
416,1697622605,0.087402344,-0.93048096,0.41107178,-0.4375,-1.421875,0.484375
417,1697622645,0.09399414,-0.93536377,0.40863037,-1.171875,-1.125,0.140625
418,1697622685,0.07080078,-0.94659424,0.4225464,1.125,-0.921875,0.765625
419,1697622725,0.071777344,-0.94610596,0.4257202,0.0625,-0.484375,0.703125
420,1697622765,0.0793457,-0.9458618,0.41619873,-1.171875,-0.8125,0.046875
421,1697622805,0.06933594,-0.93634033,0.42181396,0.4375,-0.609375,0.734375
422,1697622845,0.072021484,-0.9319458,0.4237671,0.21875,-0.171875,0.828125
423,1697622885,0.079589844,-0.94854736,0.41644287,-0.40625,-0.484375,0.703125
424,1697622925,0.07836914,-0.942688,0.41619873,-0.078125,-0.5625,0.53125
425,1697622965,0.08227539,-0.9326782,0.41400146,0.09375,-0.390625,0.359375
426,1697623005,0.07836914,-0.9397583,0.401062,-1.34375,-1.46875,0.609375
427,1697623045,0.07910156,-0.9258423,0.42010498,-0.53125,-1.109375,0.015625
428,1697623085,0.063964844,-0.96539307,0.4244995,0.234375,-0.671875,1.109375
429,1697623125,0.07324219,-0.9336548,0.43988037,-2.140625,-0.84375,-0.484375
430,1697623165,0.08911133,-0.9480591,0.41888428,-1.515625,-1.171875,0.078125
431,1697623205,0.075683594,-0.92852783,0.43377686,-1.734375,-0.171875,-0.546875
432,1697623245,0.060302734,-0.9553833,0.44158936,3.09375,-0.484375,1.5625
433,1697623285,0.072753906,-0.923645,0.42791748,-3.125,-1.265625,0.3125
434,1697623325,0.06689453,-0.9446411,0.42474365,1.53125,-1.65625,0.140625
435,1697623365,0.0703125,-0.9282837,0.43426514,0.171875,-1.484375,0.921875
436,1697623405,0.07495117,-0.9180298,0.42279053,-1.953125,-2.515625,0.34375
437,1697623445,0.057128906,-0.9343872,0.4393921,0.4375,-2.203125,0.359375
438,1697623485,0.068359375,-0.93951416,0.43499756,0.671875,-1.125,0.6875
439,1697623525,0.05883789,-0.9338989,0.4220581,-1.6875,-1.109375,0.640625
440,1697623565,0.068115234,-0.9378052,0.44476318,0.71875,-0.6875,1.15625
441,1697623605,0.064208984,-0.9446411,0.4335327,-0.125,0.0625,0.21875
442,1697623645,0.05883789,-0.92852783,0.43328857,0.0,-0.59375,0.75
443,1697623685,0.072265625,-0.92926025,0.4406128,-0.375,-0.46875,0.0
444,1697623725,0.061523438,-0.9319458,0.44573975,-1.0,-1.109375,0.21875
445,1697623765,0.060302734,-0.927063,0.45135498,-0.3125,-1.046875,-0.015625
446,1697623805,0.061279297,-0.9380493,0.4406128,-1.46875,-1.671875,-0.171875
447,1697623845,0.05419922,-0.92974854,0.4442749,-0.03125,-1.65625,0.15625
448,1697623885,0.051757812,-0.9446411,0.44403076,-0.15625,0.484375,0.671875
449,1697623925,0.057128906,-0.9151001,0.44769287,-0.0625,-0.734375,-0.3125
450,1697623965,0.061279297,-0.94610596,0.4491577,0.546875,-0.484375,1.0625
451,1697624005,0.05419922,-0.92022705,0.43914795,-2.234375,-0.53125,-0.5
452,1697624045,0.040771484,-0.94317627,0.44866943,3.78125,-0.875,0.9375
453,1697624085,0.05517578,-0.92193604,0.45233154,-1.46875,0.09375,0.5625
454,1697624125,0.05834961,-0.9314575,0.45062256,-0.046875,-0.609375,0.046875
455,1697624165,0.04711914,-0.93096924,0.44354248,0.765625,-0.421875,1.03125
456,1697624205,0.056396484,-0.9258423,0.4401245,-0.703125,0.46875,0.828125
457,1697624245,0.060058594,-0.93341064,0.4491577,-0.859375,1.359375,-0.515625
458,1697624285,0.035888672,-0.9487915,0.48895264,2.015625,4.8125,-0.21875
459,1697624325,0.037109375,-0.97613525,0.4677124,1.4375,4.46875,3.640625
460,1697624365,0.052978516,-0.9031372,0.4154663,-0.828125,2.0625,1.78125
461,1697624405,0.087646484,-0.92022705,0.4335327,4.640625,1.5625,1.65625
462,1697624445,0.06518555,-0.9365845,0.44256592,5.328125,1.53125,4.375
463,1697624485,0.049804688,-0.94488525,0.43475342,1.640625,0.546875,2.75
464,1697624525,0.08325195,-0.92266846,0.41571045,0.3125,-1.28125,0.796875
465,1697624565,0.07104492,-0.90460205,0.41400146,1.15625,-2.4375,1.125
466,1697624605,0.076660156,-0.9089966,0.42108154,1.90625,-1.78125,1.390625
467,1697624645,0.06762695,-0.9649048,0.4442749,3.109375,-1.5625,2.96875
468,1697624685,0.078125,-0.9463501,0.42767334,1.375,-0.859375,0.78125
469,1697624725,0.076171875,-0.9155884,0.4286499,-0.578125,0.421875,-1.875
470,1697624765,0.07495117,-0.9524536,0.42767334,1.65625,-0.09375,1.546875
471,1697624805,0.07348633,-0.909729,0.432312,-3.34375,-0.859375,-0.359375
472,1697624845,0.055419922,-0.9507446,0.43792725,2.75,-1.140625,1.296875
473,1697624885,0.06225586,-0.93292236,0.42303467,-1.390625,-0.875,0.796875
474,1697624925,0.08544922,-0.92022705,0.42352295,-0.9375,-0.90625,-0.90625
475,1697624965,0.051513672,-0.9373169,0.44500732,1.015625,-1.28125,0.828125
476,1697625005,0.061767578,-0.9546509,0.43499756,1.53125,0.296875,1.84375
477,1697625045,0.075927734,-0.92022705,0.4262085,-3.0,-1.171875,-0.171875
478,1697625085,0.06323242,-0.9319458,0.42913818,1.328125,0.109375,0.078125
479,1697625125,0.07128906,-0.9397583,0.4459839,1.78125,0.015625,1.34375
480,1697625165,0.06982422,-0.93707275,0.4303589,-1.90625,-0.828125,0.28125
481,1697625205,0.0703125,-0.93634033,0.43377686,0.484375,-1.265625,-0.125
482,1697625245,0.05908203,-0.9265747,0.44110107,0.515625,-1.34375,0.375
483,1697625285,0.063964844,-0.9299927,0.4389038,-1.109375,-1.234375,0.609375
484,1697625325,0.064941406,-0.9402466,0.43792725,0.375,-0.828125,0.59375
485,1697625365,0.064453125,-0.93585205,0.44354248,0.609375,-0.3125,0.5625
486,1697625405,0.0637207,-0.93878174,0.4376831,0.046875,0.015625,1.109375
487,1697625445,0.051757812,-0.9365845,0.4401245,0.84375,-0.234375,1.1875
488,1697625485,0.059326172,-0.92852783,0.4401245,1.09375,-0.3125,0.71875
489,1697625525,0.06323242,-0.94610596,0.42352295,-1.25,0.359375,0.40625
490,1697625565,0.06323242,-0.9158325,0.4376831,-1.953125,-1.515625,-1.0625
491,1697625605,0.06762695,-0.93634033,0.434021,-0.28125,-1.5625,-0.25
492,1697625645,0.057861328,-0.92437744,0.4381714,-2.703125,-1.46875,-1.125
493,1697625685,0.04248047,-0.9365845,0.4557495,2.234375,-0.453125,-0.015625
494,1697625725,0.053710938,-0.93585205,0.44573975,-1.078125,1.078125,0.171875
495,1697625765,0.055908203,-0.9380493,0.44647217,0.3125,0.171875,-0.15625
496,1697625805,0.03125,-0.9277954,0.45941162,2.515625,1.5625,0.3125
497,1697625845,0.04663086,-0.9492798,0.4623413,1.765625,2.078125,2.1875
498,1697625885,0.05834961,-0.9365845,0.44476318,1.1875,2.3125,1.765625
499,1697625925,0.06640625,-0.9290161,0.43011475,3.5625,2.515625,1.546875
500,1697625965,0.06323242,-0.93707275,0.43743896,4.796875,3.515625,2.921875
501,1697626005,0.068359375,-0.9397583,0.432312,2.53125,3.0,3.265625
502,1697626045,0.06591797,-0.9417114,0.4232788,0.8125,2.15625,1.765625
503,1697626085,0.061279297,-0.9265747,0.4179077,0.8125,0.65625,0.765625
504,1697626125,0.07788086,-0.9168091,0.4232788,0.734375,-0.25,1.578125
505,1697626165,0.08642578,-0.9463501,0.42034912,2.84375,1.5625,2.375
506,1697626205,0.08203125,-0.9522095,0.43133545,1.890625,0.875,2.390625
507,1697626245,0.075683594,-0.9356079,0.41766357,1.453125,1.859375,2.0
508,1697626285,0.08300781,-0.93536377,0.4076538,1.359375,-0.40625,2.453125
509,1697626325,0.075927734,-0.9229126,0.4069214,0.9375,-0.5,1.78125
510,1697626365,0.07788086,-0.9314575,0.40008545,1.640625,-2.0,1.6875
511,1697626405,0.08520508,-0.9216919,0.41107178,-0.359375,-3.03125,0.015625
512,1697626445,0.08886719,-0.96466064,0.40350342,2.328125,-2.578125,0.9375
513,1697626485,0.068847656,-0.9324341,0.42938232,0.421875,-2.34375,0.59375
514,1697626525,0.08105469,-0.9661255,0.4093628,1.25,-0.65625,1.1875
515,1697626565,0.079833984,-0.9434204,0.40057373,-0.65625,0.046875,0.09375
516,1697626605,0.096191406,-0.9446411,0.41693115,1.046875,0.28125,0.015625
517,1697626645,0.060791016,-0.9385376,0.41912842,0.359375,0.34375,0.9375
518,1697626685,0.06762695,-0.94317627,0.41400146,0.96875,-0.59375,1.046875
519,1697626725,0.08642578,-0.9331665,0.41278076,-1.578125,-0.6875,0.234375
520,1697626765,0.07397461,-0.9456177,0.42034912,1.28125,-0.390625,0.484375
521,1697626805,0.07373047,-0.9487915,0.41912842,-0.765625,0.125,0.921875
522,1697626845,0.079589844,-0.93756104,0.4064331,-1.015625,-0.375,0.5
523,1697626885,0.07128906,-0.9351196,0.42181396,-0.1875,-0.625,0.25
524,1697626925,0.0793457,-0.9390259,0.4147339,-0.703125,-0.75,0.828125
525,1697626965,0.07446289,-0.93756104,0.4179077,-0.578125,-0.71875,0.53125
526,1697627005,0.072509766,-0.9368286,0.4225464,-0.046875,-1.359375,0.609375
527,1697627045,0.07470703,-0.92926025,0.42156982,-0.390625,-0.859375,0.4375
528,1697627085,0.07006836,-0.93292236,0.42230225,0.15625,-0.828125,0.484375
529,1697627125,0.06542969,-0.9417114,0.4274292,0.15625,-0.65625,1.0625
530,1697627165,0.06201172,-0.9414673,0.42547607,0.953125,-0.796875,0.765625
531,1697627205,0.075927734,-0.91290283,0.41937256,-2.375,-0.96875,-0.515625
532,1697627245,0.07421875,-0.9546509,0.42962646,1.78125,-0.609375,1.21875
533,1697627285,0.07373047,-0.92266846,0.4130249,-3.296875,-1.265625,-0.3125
534,1697627325,0.060791016,-0.94122314,0.43255615,2.046875,-2.078125,0.78125
535,1697627365,0.067871094,-0.92388916,0.42962646,-2.21875,-1.609375,-0.65625
536,1697627405,0.067871094,-0.9512329,0.43377686,1.0,-1.203125,0.671875
537,1697627445,0.07446289,-0.94244385,0.42767334,-0.9375,-1.4375,0.4375
538,1697627485,0.0715332,-0.9402466,0.43084717,-0.546875,-0.703125,-0.125
539,1697627525,0.05810547,-0.93218994,0.4364624,0.390625,-0.421875,0.8125
540,1697627565,0.059814453,-0.9319458,0.44500732,0.265625,-0.0625,0.34375
541,1697627605,0.052001953,-0.9475708,0.4310913,-0.046875,0.109375,1.15625
542,1697627645,0.05102539,-0.928772,0.43499756,-0.390625,0.484375,0.703125
543,1697627685,0.06933594,-0.9351196,0.44158936,1.8125,0.453125,0.4375
544,1697627725,0.05834961,-0.9439087,0.44036865,0.5,-0.6875,1.40625
545,1697627765,0.06518555,-0.9234009,0.43011475,-0.703125,-0.59375,0.0
546,1697627805,0.06665039,-0.9331665,0.43182373,0.3125,-1.53125,0.5625
547,1697627845,0.06274414,-0.93634033,0.4467163,2.375,-1.328125,1.75
548,1697627885,0.06518555,-0.9319458,0.4310913,-1.0,-1.71875,1.671875
549,1697627925,0.07299805,-0.9248657,0.42156982,-1.90625,-0.796875,0.21875
550,1697627965,0.064453125,-0.94659424,0.4249878,3.171875,-0.671875,0.984375
551,1697628005,0.060058594,-0.9314575,0.45184326,0.953125,-0.40625,1.046875
552,1697628045,0.06225586,-0.95391846,0.42230225,-2.96875,0.078125,0.15625
553,1697628085,0.0546875,-0.9180298,0.4418335,0.265625,-0.859375,-0.421875
554,1697628125,0.068847656,-0.94366455,0.43475342,1.359375,-0.421875,1.28125
555,1697628165,0.053222656,-0.9365845,0.44110107,-0.9375,-0.390625,0.4375
556,1697628205,0.052246094,-0.9446411,0.4508667,3.078125,-0.765625,0.890625
557,1697628245,0.055419922,-0.92510986,0.4257202,-2.9375,-0.359375,0.375
558,1697628285,0.07104492,-0.9336548,0.42840576,-0.671875,-0.84375,-0.578125
559,1697628325,0.055664062,-0.9373169,0.4491577,1.09375,-0.90625,0.46875
560,1697628365,0.061035156,-0.9507446,0.4472046,0.046875,-0.75,1.625
561,1697628405,0.05908203,-0.9265747,0.43914795,-2.53125,-0.59375,-0.28125
562,1697628445,0.064208984,-0.92926025,0.4401245,1.34375,-0.328125,-0.046875
563,1697628485,0.05444336,-0.93096924,0.44329834,0.0625,-0.375,1.515625
564,1697628525,0.049560547,-0.9446411,0.4454956,0.390625,-0.25,1.390625
565,1697628565,0.056640625,-0.93585205,0.44696045,0.234375,-0.1875,0.078125
566,1697628605,0.055419922,-0.9312134,0.44329834,0.046875,-0.40625,0.25
567,1697628645,0.057128906,-0.93292236,0.45013428,0.296875,-0.625,1.234375
568,1697628685,0.057128906,-0.9373169,0.43914795,0.375,-1.0,0.984375
569,1697628725,0.05883789,-0.92974854,0.4418335,-0.625,-1.375,0.078125
570,1697628765,0.05029297,-0.9290161,0.45037842,-0.078125,-1.609375,0.328125
571,1697628805,0.04736328,-0.9378052,0.44769287,-0.375,-0.953125,0.5625
572,1697628845,0.060058594,-0.9338989,0.44500732,-1.515625,-0.78125,0.078125
573,1697628885,0.053710938,-0.9331665,0.44989014,0.625,-0.4375,0.171875
574,1697628925,0.04736328,-0.93341064,0.45159912,-0.21875,0.59375,0.140625
575,1697628965,0.056640625,-0.90582275,0.44110107,-2.71875,0.1875,-1.515625
576,1697629005,0.051757812,-0.9463501,0.4533081,1.65625,1.46875,-0.21875
577,1697629045,0.041992188,-0.92633057,0.45599365,-0.859375,2.40625,-0.46875
578,1697629085,0.02319336,-0.95513916,0.4804077,7.765625,3.328125,2.515625
579,1697629125,0.04345703,-0.9277954,0.44622803,0.6875,3.5,2.3125
580,1697629165,0.05859375,-0.9199829,0.4249878,2.65625,2.953125,1.4375
581,1697629205,0.056640625,-0.93756104,0.4491577,6.4375,3.78125,2.71875
582,1697629245,0.057617188,-0.95440674,0.4537964,5.625,4.3125,4.203125
583,1697629285,0.060058594,-0.9155884,0.4069214,3.34375,7.09375,1.984375
584,1697629325,0.115478516,-0.94732666,0.39422607,10.640625,4.15625,2.578125
585,1697629365,0.09472656,-0.95758057,0.3949585,8.296875,4.21875,4.359375
586,1697629405,0.056396484,-0.95635986,0.40350342,0.765625,1.078125,3.1875
587,1697629445,0.08081055,-0.9282837,0.38128662,-1.296875,-1.40625,0.875
588,1697629485,0.09716797,-0.9356079,0.38104248,2.6875,-1.96875,2.4375
589,1697629525,0.084228516,-0.9446411,0.3859253,-0.234375,-3.828125,1.75
590,1697629565,0.08227539,-0.925354,0.39031982,-0.484375,-3.34375,0.65625
591,1697629605,0.0793457,-0.96466064,0.40252686,3.015625,-2.640625,1.328125
592,1697629645,0.075683594,-0.95025635,0.40423584,0.390625,-2.015625,0.5
593,1697629685,0.08862305,-0.9573364,0.3912964,0.71875,0.34375,0.640625
594,1697629725,0.07836914,-0.9356079,0.3932495,-1.0625,-0.703125,0.125
595,1697629765,0.072265625,-0.9487915,0.3944702,0.40625,-1.0625,0.140625
596,1697629805,0.07006836,-0.95880127,0.40350342,-0.859375,-0.609375,0.609375
597,1697629845,0.08276367,-0.93096924,0.39764404,-2.953125,-1.6875,-1.234375
598,1697629885,0.08569336,-0.9651489,0.4003296,-1.921875,-1.015625,0.25
599,1697629925,0.072265625,-0.9246216,0.40716553,-3.109375,-1.25,-0.796875
600,1697629965,0.057373047,-0.9619751,0.41375732,1.375,-1.21875,1.328125
601,1697630005,0.07397461,-0.9312134,0.40008545,-2.78125,-0.640625,-0.125
602,1697630045,0.08691406,-0.94732666,0.40789795,1.046875,-1.0,0.25
603,1697630085,0.05883789,-0.9475708,0.4154663,1.59375,1.515625,1.6875
604,1697630125,0.06347656,-0.9480591,0.40447998,-1.984375,0.734375,1.078125
605,1697630165,0.07836914,-0.91485596,0.39593506,-1.140625,-0.140625,-1.484375
606,1697630205,0.083496094,-0.94244385,0.41912842,2.640625,0.390625,0.03125
607,1697630245,0.08105469,-0.9463501,0.42816162,0.09375,0.046875,1.0
608,1697630285,0.07543945,-0.9402466,0.41912842,-0.421875,-0.1875,0.890625
609,1697630325,0.076416016,-0.94976807,0.42132568,0.765625,-1.203125,0.984375
610,1697630365,0.07006836,-0.942688,0.4159546,0.046875,-0.75,1.046875
611,1697630405,0.068847656,-0.94610596,0.4052124,-0.234375,-1.484375,1.5625
612,1697630445,0.0703125,-0.93341064,0.40594482,-0.296875,-1.90625,0.546875
613,1697630485,0.06713867,-0.9331665,0.41204834,0.15625,-2.453125,0.453125
614,1697630525,0.06689453,-0.9404907,0.41619873,-0.96875,-1.828125,1.203125
615,1697630565,0.079589844,-0.944397,0.41644287,-0.28125,-1.53125,0.421875
616,1697630605,0.057861328,-0.94537354,0.42840576,0.9375,-1.09375,0.203125
617,1697630645,0.072021484,-0.95196533,0.41204834,-1.59375,0.15625,-0.140625
618,1697630685,0.059814453,-0.93634033,0.43182373,0.640625,-0.671875,-0.015625
619,1697630725,0.06225586,-0.94488525,0.41815186,-1.5625,-0.734375,0.28125
620,1697630765,0.059814453,-0.9312134,0.42425537,-0.703125,-0.5,0.0
621,1697630805,0.059570312,-0.94195557,0.43499756,4.953125,1.21875,0.46875
622,1697630845,0.061035156,-0.95391846,0.42010498,1.6875,1.15625,1.15625
623,1697630885,0.072753906,-0.9319458,0.41986084,1.953125,0.09375,0.4375
624,1697630925,0.05810547,-0.93096924,0.4093628,2.625,-0.25,1.65625
625,1697630965,0.05517578,-0.93951416,0.40570068,-0.328125,-1.078125,1.84375
626,1697631005,0.05517578,-0.95440674,0.40447998,0.40625,-0.59375,0.671875
627,1697631045,0.057617188,-0.9507446,0.4262085,0.90625,-0.6875,-0.4375
628,1697631085,0.064453125,-0.9397583,0.4039917,-3.25,-1.34375,-0.734375
629,1697631125,0.0637207,-0.93292236,0.41912842,1.21875,-0.953125,0.390625
630,1697631165,0.063964844,-0.94488525,0.41937256,-0.65625,-1.15625,1.375
631,1697631205,0.061523438,-0.9434204,0.41986084,-0.09375,-0.1875,0.015625
632,1697631245,0.060302734,-0.9468384,0.41156006,-0.09375,-0.265625,0.53125
633,1697631285,0.06567383,-0.9373169,0.4093628,-0.0625,-0.171875,1.140625
634,1697631325,0.05908203,-0.94415283,0.41986084,0.390625,-0.046875,1.015625
635,1697631365,0.059570312,-0.9373169,0.42523193,-0.140625,-0.625,0.65625
636,1697631405,0.05102539,-0.94732666,0.42059326,0.140625,-0.890625,0.875
637,1697631445,0.056396484,-0.93829346,0.4225464,-0.296875,-0.390625,0.578125
638,1697631485,0.060058594,-0.9199829,0.41766357,-1.5,-1.53125,-0.578125
639,1697631525,0.053466797,-0.9602661,0.43060303,0.265625,-2.0,0.90625
640,1697631565,0.055664062,-0.92559814,0.42156982,-3.296875,-1.625,-0.109375
641,1697631605,0.04638672,-0.944397,0.4413452,2.125,-1.6875,0.828125
642,1697631645,0.049804688,-0.9451294,0.42889404,-1.390625,0.171875,0.578125
643,1697631685,0.059326172,-0.9390259,0.42132568,-0.75,-0.921875,0.265625
644,1697631725,0.041992188,-0.925354,0.4406128,0.171875,-0.34375,0.46875
645,1697631765,0.056396484,-0.95269775,0.4352417,1.4375,-0.046875,1.53125
646,1697631805,0.055664062,-0.92388916,0.43304443,-1.328125,-0.90625,0.0625
647,1697631845,0.04736328,-0.93048096,0.4381714,1.390625,-0.6875,0.5625
648,1697631885,0.05444336,-0.93341064,0.42962646,-0.3125,-0.578125,0.609375
649,1697631925,0.05419922,-0.93829346,0.42694092,-0.5625,-1.5625,0.65625
650,1697631965,0.048339844,-0.9378052,0.4376831,0.5625,-0.890625,0.625
651,1697632005,0.044433594,-0.94122314,0.4328003,-0.046875,-1.03125,0.515625
652,1697632045,0.051757812,-0.93218994,0.4315796,-0.34375,-0.90625,-0.09375
653,1697632085,0.048828125,-0.93218994,0.42962646,0.0,-1.1875,0.8125
654,1697632125,0.04272461,-0.9319458,0.44036865,-0.671875,-1.234375,0.515625
655,1697632165,0.05102539,-0.9348755,0.4335327,-1.34375,-2.21875,0.1875
656,1697632205,0.047607422,-0.9295044,0.44158936,-0.28125,-1.65625,-0.9375
657,1697632245,0.037841797,-0.94659424,0.4550171,1.5,-1.546875,1.046875
658,1697632285,0.029296875,-0.93951416,0.44891357,1.40625,0.609375,1.5625
659,1697632325,0.041748047,-0.90582275,0.42938232,-2.96875,-0.921875,-0.484375
660,1697632365,0.036865234,-0.9434204,0.44110107,2.078125,-0.546875,0.53125
661,1697632405,0.04296875,-0.92852783,0.44476318,-3.140625,-0.75,0.296875
662,1697632445,0.026855469,-0.9468384,0.46063232,3.4375,-0.515625,1.265625
663,1697632485,0.03930664,-0.93829346,0.44696045,-0.78125,0.75,0.9375
664,1697632525,0.043701172,-0.9182739,0.4315796,-1.09375,-0.234375,0.328125
665,1697632565,0.028808594,-0.9302368,0.44256592,1.421875,-0.5,0.90625
666,1697632605,0.041503906,-0.9451294,0.45233154,2.125,0.484375,1.828125
667,1697632645,0.046142578,-0.9273071,0.43841553,-1.234375,-0.25,0.515625
668,1697632685,0.052246094,-0.92974854,0.44378662,1.5625,-0.859375,0.765625
669,1697632725,0.044921875,-0.9336548,0.44891357,0.09375,-0.578125,0.859375
670,1697632765,0.039794922,-0.944397,0.43597412,-0.46875,-0.984375,1.109375
671,1697632805,0.057861328,-0.92144775,0.4376831,-1.1875,-0.796875,0.109375
672,1697632845,0.03857422,-0.9326782,0.43792725,1.84375,0.125,0.90625
673,1697632885,0.03466797,-0.9558716,0.45184326,0.578125,-0.046875,2.1875
674,1697632925,0.03466797,-0.9273071,0.4413452,-0.71875,-0.515625,0.96875
675,1697632965,0.041748047,-0.92388916,0.43597412,-0.3125,-0.4375,0.0
676,1697633005,0.042236328,-0.93341064,0.44744873,1.578125,-0.78125,1.09375
677,1697633045,0.043945312,-0.93585205,0.4467163,-0.921875,-0.796875,0.5625
678,1697633085,0.03564453,-0.93096924,0.4472046,-1.515625,-1.28125,-0.21875
679,1697633125,0.022216797,-0.90826416,0.4628296,-0.453125,-1.59375,-0.140625
680,1697633165,0.0390625,-0.9458618,0.4430542,-1.703125,-1.21875,1.0625
681,1697633205,0.049316406,-0.9187622,0.45428467,-1.640625,0.0625,-0.234375
682,1697633245,0.029296875,-0.9348755,0.45355225,0.734375,-1.421875,0.84375
683,1697633285,0.025146484,-0.928772,0.46331787,1.078125,-0.015625,1.109375
684,1697633325,0.029296875,-0.9368286,0.45794678,1.765625,-0.09375,0.640625
685,1697633365,0.048583984,-0.92755127,0.44403076,-2.078125,-0.890625,0.40625
686,1697633405,0.044677734,-0.9092407,0.45111084,-0.25,-0.921875,-0.203125
687,1697633445,0.024658203,-0.9414673,0.4623413,-0.28125,-1.21875,0.9375
688,1697633485,0.025146484,-0.923645,0.4562378,-2.59375,-0.796875,0.515625
689,1697633525,0.03125,-0.9336548,0.45843506,1.75,-0.109375,0.375
690,1697633565,0.039794922,-0.93829346,0.4694214,0.46875,0.515625,0.875
691,1697633605,0.029785156,-0.9265747,0.46990967,1.171875,-0.40625,0.890625
692,1697633645,0.03125,-0.9229126,0.45257568,-0.515625,-0.796875,0.25
693,1697633685,0.029052734,-0.9265747,0.45648193,0.4375,-0.53125,0.734375
694,1697633725,0.034423828,-0.9260864,0.45428467,-1.328125,-0.53125,0.328125
695,1697633765,0.03564453,-0.93341064,0.45794678,-0.84375,-0.671875,0.234375
696,1697633805,0.024902344,-0.92388916,0.4647827,0.28125,-0.3125,0.953125
697,1697633845,0.03491211,-0.9277954,0.46575928,1.125,0.109375,1.640625
698,1697633885,0.028808594,-0.9319458,0.4598999,0.953125,0.046875,2.640625
699,1697633925,0.033691406,-0.9229126,0.4689331,-0.359375,-0.390625,1.8125
700,1697633965,0.018554688,-0.9312134,0.44647217,-1.515625,0.0,0.96875
701,1697634005,0.026611328,-0.9221802,0.47332764,0.234375,-1.28125,0.203125
702,1697634045,0.036376953,-0.9421997,0.46502686,0.15625,-0.9375,0.6875
703,1697634085,0.022705078,-0.91973877,0.46429443,-0.875,-0.046875,0.765625
704,1697634125,0.022216797,-0.9248657,0.46453857,1.46875,-0.140625,0.71875
705,1697634165,0.04296875,-0.91607666,0.46087646,0.625,1.09375,0.96875
706,1697634205,0.046142578,-0.93170166,0.46209717,-1.59375,-0.4375,0.6875
707,1697634245,0.028808594,-0.9194946,0.4623413,0.71875,0.15625,0.90625
708,1697634285,0.040283203,-0.9277954,0.46722412,-1.65625,-0.875,0.828125
709,1697634325,0.045166016,-0.91119385,0.46990967,-0.265625,0.0625,-0.140625
710,1697634365,0.029052734,-0.94195557,0.47381592,2.4375,0.421875,0.75
711,1697634405,0.041748047,-0.9204712,0.47113037,-0.03125,-0.828125,0.296875
712,1697634445,0.026367188,-0.925354,0.46551514,1.625,-0.03125,0.78125
713,1697634485,0.031982422,-0.9273071,0.46380615,0.5,-0.484375,1.015625
714,1697634525,0.033691406,-0.93536377,0.46185303,0.203125,-1.078125,0.234375
715,1697634565,0.03540039,-0.9224243,0.46014404,-0.25,-0.765625,-0.140625
716,1697634605,0.03173828,-0.92193604,0.4706421,0.703125,-0.28125,0.453125
717,1697634645,0.022949219,-0.928772,0.47235107,-0.828125,-0.53125,0.421875
718,1697634685,0.03125,-0.9229126,0.46746826,0.0625,-1.421875,0.0
719,1697634725,0.02758789,-0.9187622,0.47113037,-0.15625,-0.453125,0.453125
720,1697634765,0.020751953,-0.9302368,0.4755249,1.40625,0.28125,0.9375
721,1697634805,0.017089844,-0.9209595,0.47357178,-0.984375,-1.328125,0.171875
722,1697634845,0.032714844,-0.9302368,0.45037842,-0.921875,-1.25,-0.046875
723,1697634885,0.02319336,-0.91729736,0.4743042,-1.34375,-0.90625,-0.234375
724,1697634925,0.009033203,-0.9351196,0.48431396,1.703125,-1.25,0.984375
725,1697634965,0.016357422,-0.9133911,0.47479248,-2.140625,0.046875,0.375
726,1697635005,0.030517578,-0.927063,0.4730835,0.171875,-0.3125,0.078125
727,1697635045,0.02319336,-0.91656494,0.47772217,2.03125,0.609375,1.078125
728,1697635085,0.015625,-0.923645,0.4804077,0.234375,0.625,1.96875
729,1697635125,0.015625,-0.91900635,0.46575928,0.6875,-0.203125,0.84375
730,1697635165,0.027832031,-0.9336548,0.47039795,0.671875,0.078125,0.8125
731,1697635205,0.041503906,-0.92510986,0.46185303,-2.828125,-2.078125,0.375
732,1697635245,0.020996094,-0.9168091,0.47869873,-1.765625,-3.0,-0.375
733,1697635285,0.010498047,-0.9121704,0.49554443,0.828125,-1.65625,-1.203125
734,1697635325,0.0078125,-0.9351196,0.5014038,1.5625,-0.890625,0.28125
735,1697635365,0.016845703,-0.9175415,0.4779663,-0.6875,-0.390625,1.890625
736,1697635405,0.017578125,-0.9077759,0.46551514,-0.296875,-0.65625,1.1875
737,1697635445,0.0078125,-0.90509033,0.48187256,0.921875,-0.125,-0.8125
738,1697635485,0.018066406,-0.93218994,0.49163818,1.859375,0.578125,-1.140625
739,1697635525,0.01586914,-0.92315674,0.47576904,-0.234375,-0.734375,0.015625
740,1697635565,0.016113281,-0.91534424,0.4850464,1.40625,-0.03125,-0.359375
741,1697635605,0.0075683594,-0.91973877,0.49163818,-2.0625,-1.8125,-0.109375
742,1697635645,0.0063476562,-0.9229126,0.47528076,-0.84375,-1.78125,-0.40625
743,1697635685,0.017089844,-0.9199829,0.48114014,-2.265625,-1.53125,0.0625
744,1697635725,0.006591797,-0.9175415,0.49139404,0.46875,-0.5,-0.46875
745,1697635765,-0.0024414062,-0.9265747,0.48309326,1.671875,-0.015625,0.328125
746,1697635805,-0.011230469,-0.9170532,0.4796753,1.390625,0.484375,0.171875
747,1697635845,0.0009765625,-0.92437744,0.4484253,2.359375,2.609375,-1.21875
748,1697635885,0.01586914,-0.90460205,0.49066162,10.453125,6.453125,-1.453125
749,1697635925,-0.00390625,-0.9505005,0.50164795,16.75,7.65625,5.90625
750,1697635965,-0.012939453,-0.9500122,0.46429443,8.765625,5.296875,6.03125
751,1697636005,0.02319336,-0.93170166,0.42401123,6.828125,3.328125,3.671875
752,1697636045,0.014160156,-0.94854736,0.4286499,8.765625,8.625,4.25
753,1697636085,0.024902344,-0.9595337,0.42230225,3.4375,12.34375,3.3125
754,1697636125,0.0146484375,-0.9573364,0.3703003,3.328125,7.0625,2.21875
755,1697636165,0.07543945,-0.9143677,0.4093628,10.421875,4.875,1.796875
756,1697636205,0.07836914,-0.956604,0.4093628,1.078125,3.75,4.40625
757,1697636245,0.036865234,-0.9529419,0.37469482,-0.390625,0.453125,2.28125
758,1697636285,0.06274414,-0.9295044,0.37347412,2.5625,0.171875,0.453125
759,1697636325,0.08935547,-0.93878174,0.39691162,4.859375,-2.671875,3.53125
