# Sensor type: Respeck
# Activity type: Shuffle walking
# Activity subtype: Normal
# Subject id: s2023352
# Notes: 
timestamp,accel_x,accel_y,accel_z,gyro_x,gyro_y,gyro_z
1695819219264,-0.051513672,-1.1589966,-0.043029785,-8.625,19.140625,2.859375
1695819219286,0.2541504,-0.88848877,-0.15216064,-6.796875,6.5625,6.3125
1695819219362,0.3251953,-1.1057739,-0.057434082,7.71875,-4.671875,-1.5
1695819219383,-0.005126953,-1.1223755,0.11053467,3.796875,7.953125,6.546875
1695819219412,-0.10668945,-0.8369751,0.002380371,-14.1875,9.9375,1.625
1695819219483,0.036621094,-0.7024536,-0.18609619,-12.203125,3.375,-1.046875
1695819219488,0.43408203,-0.95635986,-0.06793213,0.421875,-12.171875,4.5
1695819219563,0.6455078,-1.1365356,0.23162842,7.875,-21.25,7.171875
1695819219572,0.044677734,-0.97247314,0.11126709,-1.125,-25.640625,2.296875
1695819219607,-0.17700195,-1.0205688,-0.13043213,-7.296875,-3.9375,-5.703125
1695819219688,0.23608398,-0.9546509,-0.011047363,12.578125,-1.109375,0.171875
1695819219693,0.22583008,-0.7918091,0.17156982,4.640625,1.03125,-0.796875
1695819219726,0.030761719,-0.76763916,0.06756592,-17.703125,-3.5625,-7.765625
1695819219797,0.042236328,-1.0581665,0.09051514,-9.046875,8.828125,-13.4375
1695819219798,0.044433594,-1.2581177,0.12689209,-6.5625,17.25,-11.34375
1695819219871,0.0859375,-0.8921509,-0.030334473,-16.28125,33.9375,1.5625
1695819219899,0.1027832,-0.6712036,-0.12213135,-10.21875,13.921875,1.859375
1695819219918,0.18041992,-1.2666626,0.041931152,12.59375,-4.453125,-0.75
1695819219998,0.13378906,-1.2229614,0.23797607,13.171875,11.625,4.96875
1695819220012,0.03540039,-0.8130493,0.02166748,-9.546875,13.453125,8.546875
1695819220049,0.12133789,-0.6560669,-0.07354736,-8.890625,-5.546875,4.484375
1695819220127,0.51342773,-1.0059204,0.094177246,16.234375,-22.875,2.15625
1695819220129,0.31469727,-1.1755981,0.2399292,16.84375,-21.8125,4.09375
1695819220190,-0.08911133,-1.0979614,0.034606934,-6.09375,-3.171875,1.0
1695819220203,0.040039062,-1.0847778,-0.039367676,0.984375,-2.15625,-3.40625
1695819220231,0.34472656,-0.9678345,0.21331787,14.375,0.890625,0.734375
1695819220307,0.19238281,-0.8074341,0.16644287,-4.53125,-1.5,-0.53125
1695819220328,0.017089844,-0.8567505,0.07513428,-15.078125,-3.21875,-4.296875
1695819220352,-0.14916992,-1.1157837,0.048034668,-2.4375,14.21875,-9.6875
1695819220428,-0.12451172,-1.1575317,-0.024230957,-12.5,35.34375,-11.859375
1695819220432,0.21459961,-0.86968994,-0.16143799,-11.84375,31.546875,4.640625
1695819220504,0.4477539,-0.9299927,-0.07696533,6.5625,10.015625,5.5625
1695819220518,0.17236328,-1.1939087,0.12054443,11.484375,5.0,0.71875
1695819220563,-0.08935547,-0.9639282,0.090026855,-2.546875,12.96875,7.5625
1695819220592,-0.007080078,-0.678772,-0.047424316,-7.328125,14.46875,6.09375
1695819220668,0.20166016,-0.8526001,-0.038391113,-4.140625,-4.390625,-0.859375
1695819220672,0.47338867,-1.2236938,0.06732178,15.125,-17.765625,-0.078125
1695819220744,0.37451172,-1.0501099,0.07122803,6.9375,-11.078125,4.78125
1695819220748,-0.030517578,-0.85943604,0.034362793,2.90625,-0.984375,0.84375
1695819220820,-0.008300781,-1.0669556,-0.0032348633,5.578125,-5.21875,-2.796875
1695819220834,0.3166504,-1.0269165,0.109802246,10.46875,-4.28125,-0.96875
1695819220864,0.19995117,-0.8225708,0.13275146,-3.609375,-6.265625,-1.71875
1695819220942,0.06567383,-0.89630127,0.05682373,-9.859375,-7.515625,-1.65625
1695819220952,-0.045410156,-1.0457153,0.121276855,1.59375,1.6875,-5.359375
1695819220982,-0.15527344,-1.3164673,-0.15240479,-20.5625,21.359375,-9.09375
1695819221060,0.21313477,-0.9365845,-0.12530518,-8.0,26.78125,6.140625
1695819221065,0.3334961,-0.89385986,0.03778076,3.703125,9.109375,6.046875
1695819221134,0.14746094,-1.0286255,0.15618896,-1.609375,2.390625,-1.453125
1695819221148,-0.06933594,-0.9663696,0.0848999,-5.96875,17.0625,6.859375
1695819221178,-0.018798828,-0.8237915,-0.053527832,-6.265625,17.046875,5.34375
1695819221253,0.30200195,-0.97784424,-0.055236816,-1.046875,0.734375,0.609375
1695819221255,0.5517578,-1.1011353,0.08782959,18.546875,-17.90625,3.515625
1695819221329,0.2788086,-0.84625244,0.049743652,3.875,-10.21875,5.46875
1695819221343,-0.076416016,-0.975647,-0.061828613,1.84375,-10.328125,3.5
1695819221376,0.07080078,-1.1531372,0.09564209,12.546875,-6.828125,-4.28125
1695819221451,0.23046875,-0.9351196,0.16497803,4.0625,-0.171875,-5.75
1695819221461,0.10864258,-0.69976807,0.05657959,-10.203125,-4.71875,-5.1875
1695819221494,0.14746094,-0.8753052,0.1408081,-6.328125,-10.1875,-5.125
1695819221574,-0.19311523,-1.3955688,0.086120605,-5.703125,11.9375,-9.984375
1695819221575,0.07446289,-1.225647,-0.18951416,-23.703125,22.65625,-3.578125
1695819221644,0.39770508,-0.76568604,-0.06304932,6.328125,18.984375,10.828125
1695819221661,0.18969727,-0.91290283,0.06072998,7.46875,8.890625,1.25
1695819221691,-0.034423828,-1.0662231,0.11224365,2.578125,3.328125,2.171875
1695819221762,-0.014160156,-0.8518677,0.038757324,-7.28125,18.125,4.53125
1695819221783,0.06274414,-0.77471924,-0.124572754,-4.21875,4.578125,0.0
1695819221822,0.23022461,-0.9859009,-0.027404785,-5.75,-3.9375,-4.984375
1695819221889,0.529541,-1.288147,0.20159912,3.984375,-15.84375,-4.65625
1695819221893,0.17602539,-1.006897,0.093688965,5.984375,4.453125,2.921875
1695819221964,-0.075683594,-0.7559204,-0.013244629,1.203125,4.5,1.15625
1695819221972,0.018066406,-0.954895,0.012145996,4.875,-4.890625,-7.046875
1695819222021,0.23876953,-1.0405884,0.1876831,4.28125,-4.140625,-3.671875
1695819222092,0.13720703,-0.7798462,0.04437256,-11.46875,-4.28125,-4.296875
1695819222106,0.08276367,-0.81085205,0.15057373,-3.4375,0.328125,-5.203125
1695819222128,-0.20166016,-1.2546997,-0.034973145,-13.9375,10.46875,-4.4375
1695819222182,0.24780273,-1.2695923,-0.043518066,-14.140625,11.3125,-5.0
1695819222209,0.22607422,-0.86846924,0.16326904,9.859375,21.0625,8.671875
1695819222279,-0.024169922,-0.755188,0.016296387,-1.671875,0.578125,1.71875
1695819222287,-0.03881836,-1.1170044,0.15618896,6.78125,1.328125,1.71875
1695819222318,0.125,-1.0342407,0.08343506,-5.03125,9.15625,5.28125
1695819222404,0.078125,-0.7612915,-0.085754395,-9.3125,-0.984375,1.78125
1695819222408,0.27612305,-0.95318604,-0.032043457,1.3125,-8.0,-1.921875
1695819222438,0.40356445,-1.1641235,0.15252686,14.703125,-25.625,3.03125
1695819222517,-0.0017089844,-0.9763794,0.10882568,7.875,-3.3125,3.46875
1695819222519,-0.10131836,-0.96759033,-0.1038208,0.71875,-0.546875,-0.03125
1695819222576,0.26220703,-1.1004028,0.074645996,13.140625,-6.734375,-0.34375
1695819222611,0.23852539,-0.9180298,0.18133545,4.09375,-6.328125,2.203125
1695819222647,0.018554688,-0.7666626,0.04827881,-6.296875,-4.15625,1.078125
1695819222679,0.026855469,-0.8953247,0.08343506,0.453125,-2.28125,-2.640625
1695819222732,0.040039062,-1.3501587,0.025817871,-7.484375,8.8125,-7.375
1695819222762,0.06640625,-1.15802,0.0016479492,-8.5625,23.75,2.03125
1695819222846,0.12646484,-0.7263794,-0.09088135,-11.453125,15.765625,8.21875
1695819222848,0.21411133,-0.9187622,0.001159668,4.859375,-4.84375,4.25
1695819222912,0.10229492,-1.3164673,0.152771,6.28125,-1.578125,1.5625
1695819222918,0.020019531,-0.93536377,0.11810303,-5.84375,10.5625,7.828125
1695819222951,-0.038085938,-0.5930786,-0.09991455,-9.984375,2.515625,3.828125
1695819223032,0.19604492,-0.83551025,-0.054016113,1.734375,-14.765625,-1.96875
1695819223103,0.55493164,-1.2800903,0.17132568,17.890625,-28.03125,1.359375
1695819223105,0.12133789,-1.0354614,0.097839355,3.609375,-10.609375,4.96875
1695819223120,-0.0107421875,-0.9326782,-0.12261963,-0.03125,-6.671875,0.765625
1695819223143,0.25585938,-1.0154419,-0.018371582,15.15625,-11.265625,2.34375
1695819223228,0.22583008,-0.88067627,0.13348389,12.390625,-12.71875,2.5625
1695819223235,0.012939453,-0.8052368,0.0848999,-4.078125,-10.15625,-4.390625
1695819223279,0.056152344,-0.92437744,0.08905029,-5.671875,-2.640625,-5.890625
1695819223350,-0.005126953,-1.1690063,0.06536865,-1.0,3.484375,-8.21875
1695819223363,-0.13745117,-1.234436,-0.0064086914,-12.640625,25.46875,-11.578125
1695819223383,0.17163086,-0.9434204,-0.15533447,-8.109375,32.359375,-0.421875
1695819223458,0.45825195,-0.7786255,-0.121398926,4.15625,3.90625,6.46875
1695819223460,0.1796875,-1.197815,0.12298584,11.0,-3.859375,-3.375
1695819223538,-0.17822266,-1.185852,0.11566162,0.03125,7.171875,0.53125
1695819223546,0.041015625,-0.76763916,0.032165527,-10.25,13.71875,3.890625
1695819223578,0.1459961,-0.7905884,-0.06036377,-8.859375,-4.046875,1.953125
1695819223655,0.4182129,-1.1795044,0.06341553,4.84375,-27.0,0.46875
1695819223744,0.3083496,-1.1687622,0.13787842,8.0,-23.65625,2.171875
1695819223748,-0.049804688,-0.803772,0.05291748,-4.75,-8.03125,3.625
1695819223754,-0.099121094,-0.84991455,-0.08795166,-3.734375,-5.671875,-2.21875
1695819223774,0.15478516,-1.109436,0.0770874,14.6875,-12.578125,-2.78125
1695819223852,0.1665039,-0.9651489,0.23284912,1.328125,-4.03125,-2.328125
1695819223861,0.04711914,-0.8049927,0.12030029,-15.796875,2.515625,-4.078125
1695819223900,0.103027344,-0.9343872,0.05706787,-14.046875,4.8125,-4.609375
1695819223989,0.048339844,-1.2710571,0.07757568,-5.578125,13.078125,-6.46875
1695819223999,-0.118652344,-1.1453247,0.007751465,-10.578125,25.28125,-0.390625
1695819224012,0.0078125,-0.91607666,-0.19586182,-7.265625,14.40625,-3.078125
1695819224092,0.25830078,-1.0149536,-0.019592285,14.359375,7.90625,-0.46875
1695819224094,0.25634766,-1.052063,0.15618896,15.140625,13.875,8.25
1695819224181,-0.0043945312,-0.8428345,0.015319824,-2.40625,7.265625,9.3125
1695819224183,-0.0036621094,-0.74420166,-0.11236572,-3.78125,-4.25,2.640625
1695819224208,0.1928711,-0.9512329,-0.03375244,5.0625,-10.765625,-1.171875
1695819224284,0.39282227,-1.263977,0.13079834,5.859375,-18.234375,0.1875
1695819224286,0.14746094,-1.1729126,0.086364746,0.375,-20.859375,1.171875
1695819224359,-0.080322266,-0.8508911,-0.020080566,0.25,-1.734375,0.46875
1695819224371,0.038085938,-0.83258057,-0.016662598,2.65625,-5.03125,-2.375
1695819224402,0.25146484,-1.1194458,0.18011475,9.421875,-11.78125,-1.390625
1695819224495,0.1508789,-0.9380493,0.19476318,-5.859375,-3.34375,0.859375
1695819224500,0.03125,-0.7522583,0.066101074,-9.84375,0.359375,-1.609375
1695819224527,-0.0107421875,-0.89556885,0.04852295,-0.15625,-3.6875,-7.015625
1695819224611,0.07495117,-1.2485962,0.0040893555,-8.03125,11.21875,-5.234375
1695819224614,0.14208984,-1.1558228,-0.047424316,-3.484375,23.375,5.53125
1695819224672,0.25634766,-0.7251587,-0.062072754,0.78125,7.875,9.75
1695819224688,0.1394043,-0.99224854,0.054870605,16.734375,-7.21875,4.671875
1695819224718,0.03930664,-1.2053833,0.16448975,10.96875,-6.90625,-1.953125
1695819224809,0.06738281,-0.99346924,0.074401855,-5.203125,2.59375,5.921875
1695819224813,0.08691406,-0.7522583,-0.04156494,-8.390625,-9.015625,3.234375
1695819224842,0.13720703,-0.99664307,-0.10211182,-2.015625,-24.28125,-1.125
1695819224920,0.46362305,-1.1721802,0.11639404,17.125,-34.984375,3.28125
1695819224922,0.19506836,-0.8779907,0.04925537,3.734375,-30.0,5.6875
1695819224987,-0.1315918,-0.72320557,-0.07525635,1.46875,-22.609375,2.359375
1695819225002,0.09643555,-1.0947876,-0.024475098,12.28125,-25.71875,-2.53125
1695819225047,0.39868164,-1.1763306,0.1954956,13.03125,-29.34375,-0.265625
1695819225109,0.16113281,-0.8491821,0.11541748,-4.28125,-24.25,3.03125
1695819225124,-0.033447266,-0.77911377,0.019958496,-4.46875,-17.484375,-1.609375
1695819225183,0.1159668,-0.9631958,0.04071045,-4.1875,-22.328125,-8.484375
1695819225229,0.061279297,-1.3320923,-0.013244629,-8.453125,-7.265625,-7.21875
1695819225231,0.13012695,-0.986145,-0.042053223,-6.234375,2.859375,6.96875
1695819225303,0.1472168,-0.81085205,-0.07623291,2.046875,-6.359375,2.4375
1695819225318,0.22265625,-0.99957275,0.074401855,13.703125,-18.5,-0.6875
1695819225348,0.13671875,-1.0698853,0.09442139,3.53125,-11.1875,4.5625
1695819225433,0.07324219,-0.83258057,0.028503418,-4.65625,-14.671875,4.453125
1695819225437,0.14697266,-0.88165283,-0.06500244,-2.265625,-29.421875,-0.5625
1695819225471,0.49194336,-1.1567993,0.117126465,12.96875,-42.625,-1.34375
1695819225544,0.2697754,-1.1113892,0.09564209,5.640625,-48.859375,1.40625
1695819225546,-0.10498047,-0.80548096,-0.020812988,-2.890625,-29.25,-0.140625
1695819225633,0.052490234,-0.9314575,0.0138549805,10.0625,-28.84375,-6.828125
1695819225639,0.36254883,-1.1748657,0.17816162,16.015625,-32.0625,-2.515625
1695819225679,0.24487305,-0.82281494,0.18695068,-2.09375,-28.96875,6.46875
1695819225738,-0.009277344,-0.7007446,-0.0037231445,-5.90625,-27.046875,1.515625
1695819225757,0.06274414,-0.89508057,0.11590576,4.75,-25.1875,-9.609375
1695819225790,0.060302734,-1.3616333,-0.0076293945,-6.515625,-9.8125,-9.671875
1695819225857,0.27954102,-1.1240845,0.028015137,0.921875,-4.390625,8.453125
1695819225858,0.068603516,-0.75738525,-0.008361816,6.796875,-3.75,8.359375
1695819225935,0.09887695,-0.9307251,0.043884277,6.28125,-21.6875,-3.65625
1695819225947,0.17602539,-1.1897583,0.13641357,12.375,-14.6875,-0.9375
1695819226007,0.084472656,-0.9439087,0.085632324,-2.234375,-12.28125,5.375
1695819226053,0.022460938,-0.70025635,-0.101135254,-6.0625,-24.9375,1.8125
1695819226069,0.23364258,-0.8987427,-0.036193848,8.859375,-34.46875,-2.140625
1695819226099,0.44018555,-1.3167114,0.12884521,16.84375,-49.921875,-0.234375
1695819226177,0.17260742,-1.1365356,0.14276123,4.609375,-31.765625,-0.296875
1695819226181,0.099609375,-0.7913208,0.01776123,-0.25,-28.59375,1.125
1695819226249,0.16479492,-0.84942627,0.051696777,12.515625,-35.75,-1.171875
1695819226263,0.21899414,-0.99591064,0.15301514,8.84375,-38.71875,1.21875
1695819226292,0.1652832,-0.90704346,0.14666748,-0.140625,-35.53125,0.09375
1695819226366,0.16503906,-0.8609009,0.05633545,-5.3125,-29.3125,-4.015625
1695819226382,0.24365234,-1.0974731,0.07147217,-1.484375,-32.6875,-2.484375
1695819226412,0.19897461,-1.3357544,-0.066467285,-9.15625,-32.90625,2.421875
1695819226459,-0.022460938,-0.9138794,0.13641357,17.90625,-14.40625,8.28125
1695819226488,-0.17626953,-0.7876587,0.01751709,2.640625,-16.84375,-0.203125
1695819226565,0.13574219,-0.9673462,0.11419678,7.21875,-15.4375,-2.953125
1695819226594,0.3623047,-1.0413208,0.12200928,7.640625,-23.84375,3.609375
1695819226613,0.05834961,-0.8262329,-0.05206299,-3.515625,-28.796875,2.375
1695819226682,0.03100586,-0.90093994,-0.15216064,1.921875,-37.453125,-4.4375
1695819226704,0.49194336,-1.2876587,0.19110107,18.25,-46.5625,-3.03125
1695819226733,0.21655273,-0.97613525,0.16668701,5.453125,-35.25,6.4375
1695819226812,-0.13354492,-0.81988525,-0.0115356445,0.15625,-24.53125,1.6875
1695819226814,0.024414062,-1.0115356,0.024108887,12.796875,-28.78125,-7.75
1695819226879,0.3317871,-1.0093384,0.24847412,11.125,-17.625,3.5625
1695819226894,0.16674805,-0.73394775,0.09295654,-7.609375,-20.265625,0.53125
1695819226923,0.03930664,-0.86968994,0.008239746,-4.078125,-20.9375,-6.8125
1695819226998,0.07763672,-1.2058716,0.008728027,2.671875,-4.296875,-6.453125
1695819227013,0.10839844,-1.0186157,0.015075684,-1.09375,5.140625,6.921875
1695819227043,0.119140625,-0.8960571,-0.105041504,0.265625,-9.40625,1.046875
1695819227122,0.13427734,-1.1235962,0.093688965,17.84375,-12.359375,-3.109375
1695819227128,0.1394043,-1.0769653,0.109802246,4.203125,-12.25,2.0
1695819227196,0.0925293,-0.8755493,0.046813965,-3.546875,-12.71875,4.484375
1695819227210,0.10253906,-0.8291626,-0.022521973,-1.75,-25.4375,2.1875
1695819227239,0.36157227,-1.0396118,0.012145996,9.953125,-40.75,-2.53125
1695819227314,0.1809082,-1.0205688,0.02166748,12.65625,-40.859375,0.84375
1695819227317,-0.006591797,-0.8792114,0.024841309,1.34375,-26.4375,1.25
1695819227390,0.13256836,-1.1045532,0.058044434,4.125,-28.203125,-2.796875
1695819227403,0.2800293,-1.1587524,0.1864624,4.1875,-28.390625,4.75
1695819227434,0.12475586,-0.8440552,0.16766357,-1.453125,-21.140625,6.3125
1695819227508,-0.041259766,-0.786438,0.03363037,-3.984375,-16.609375,-2.34375
1695819227524,0.11010742,-0.96661377,0.10101318,-1.65625,-14.0625,-8.5625
1695819227554,0.08081055,-1.2393188,0.08319092,-11.359375,2.15625,-6.03125
1695819227630,0.05053711,-0.90045166,-0.04034424,-11.625,10.359375,6.140625
1695819227633,0.1496582,-0.7617798,-0.12188721,0.4375,1.0625,1.328125
1695819227708,0.19433594,-1.1008911,0.1005249,16.34375,-3.390625,1.59375
1695819227718,0.056396484,-1.1026001,0.12005615,-0.921875,9.21875,5.078125
1695819227752,0.11401367,-0.8411255,0.04534912,-8.609375,6.625,4.171875
1695819227823,0.1953125,-0.8557739,0.022888184,-1.140625,-7.171875,1.71875
1695819227838,0.30541992,-1.0276489,0.06512451,4.515625,-14.71875,2.0
1695819227868,0.34594727,-1.0681763,0.086120605,8.046875,-26.453125,-0.4375
1695819227948,0.095214844,-0.9763794,0.0038452148,2.21875,-18.296875,0.953125
1695819227951,0.009521484,-0.83721924,0.042907715,4.734375,-5.921875,2.71875
1695819228019,0.15112305,-1.0525513,0.0848999,8.875,-13.328125,-3.203125
1695819228033,0.20800781,-1.0105591,0.19793701,2.234375,-11.140625,-2.078125
1695819228063,0.114746094,-0.8496704,0.098083496,-5.125,-10.59375,-1.203125
1695819228141,0.1262207,-0.83795166,0.16082764,-2.78125,-11.296875,-5.921875
1695819228153,0.052246094,-1.3272095,0.1071167,-9.9375,-5.625,-7.984375
1695819228185,0.13378906,-1.1690063,0.09954834,-7.828125,13.609375,2.015625
1695819228282,0.13208008,-0.7786255,-0.08770752,-7.03125,12.65625,6.5625
1695819228284,0.13623047,-0.84503174,-0.017150879,12.546875,-1.78125,3.1875
1695819228332,0.10058594,-1.1946411,0.16815186,12.75,0.765625,-3.703125
1695819228347,0.064941406,-1.0120239,0.1552124,-0.203125,8.09375,2.671875
1695819228393,0.037353516,-0.6914673,-0.02154541,-5.53125,6.625,3.140625
1695819228452,0.14257812,-0.84503174,-0.07183838,-1.671875,-17.0,-2.203125
1695819228472,0.44067383,-1.2288208,0.10662842,15.46875,-29.125,-5.609375
1695819228506,0.22021484,-1.0083618,0.07879639,9.171875,-19.40625,3.328125
1695819228572,-0.020263672,-0.8076782,4.272461E-4,-0.15625,-10.5625,2.8125
1695819228575,0.13330078,-1.0928345,-0.0010375977,7.203125,-19.71875,-2.109375
1695819228647,0.32543945,-1.1240845,0.21844482,9.28125,-18.875,3.15625
1695819228663,0.107177734,-0.84552,0.13372803,-5.015625,-16.0625,0.34375
1695819228705,-0.016113281,-0.8464966,0.04168701,-7.96875,-7.28125,-5.703125
1695819228772,0.13208008,-0.95880127,0.11834717,-4.96875,-1.84375,-9.515625
1695819228844,0.11425781,-1.2879028,0.117614746,-13.9375,3.9375,-14.84375
1695819228847,0.025634766,-1.0264282,-0.038879395,-16.265625,14.671875,3.78125
1695819228859,0.20532227,-0.70928955,-0.08355713,-0.578125,4.515625,3.421875
1695819228895,0.1262207,-1.0447388,0.09637451,12.890625,-1.921875,-3.78125
1695819228962,0.067871094,-1.1611938,0.14031982,1.5625,2.8125,1.953125
1695819228979,0.09350586,-0.81036377,0.078308105,-3.484375,6.921875,5.359375
1695819229025,0.07739258,-0.708313,-0.023742676,-0.140625,-5.5625,3.03125
1695819229103,0.28564453,-0.96661377,-0.035217285,5.328125,-16.703125,4.65625
1695819229115,0.42211914,-1.2666626,0.2633667,13.5625,-30.109375,0.359375
1695819229135,0.031982422,-0.94732666,0.018981934,1.03125,-21.9375,2.890625
1695819229221,-0.024169922,-0.7161255,-0.07745361,7.484375,-5.71875,0.234375
1695819229223,0.21606445,-1.0535278,0.022888184,17.0,-27.3125,-3.890625
1695819229278,0.39648438,-1.2600708,0.30047607,7.859375,-32.671875,1.53125
1695819229299,0.13989258,-0.81817627,0.109558105,-10.484375,-26.015625,3.1875
1695819229338,0.05029297,-0.7305298,0.028503418,-3.03125,-26.71875,-5.03125
1695819229374,0.11621094,-1.2918091,0.0927124,0.09375,-24.703125,-11.8125
1695819229443,0.18041992,-1.3550415,0.1437378,-11.59375,-14.328125,-3.03125
1695819229445,0.020996094,-0.8674927,-0.039123535,-14.40625,-10.078125,1.90625
1695819229528,-0.06933594,-0.73272705,-0.0095825195,7.109375,-11.21875,3.5
1695819229532,0.06542969,-1.055481,0.13348389,8.890625,-11.375,-2.359375
1695819229562,0.1743164,-1.0652466,0.16522217,1.890625,-7.234375,5.984375
1695819229615,0.09887695,-0.7300415,0.06781006,0.53125,-9.15625,6.34375
1695819229645,0.07055664,-0.7107544,-0.066711426,4.09375,-22.9375,2.4375
1695819229685,0.1965332,-1.0403442,9.1552734E-4,5.703125,-33.640625,4.28125
1695819229733,0.34985352,-1.361145,0.30023193,11.578125,-44.953125,-1.21875
1695819229767,0.14331055,-1.0952759,0.004333496,6.515625,-26.421875,2.4375
1695819229833,0.18188477,-0.62042236,-0.081604004,8.421875,-24.359375,9.28125
1695819229836,0.2980957,-0.8284302,0.086364746,21.65625,-48.53125,1.078125
1695819229907,0.30981445,-1.190979,0.14544678,10.890625,-59.125,-1.09375
1695819229923,0.14746094,-0.960022,0.15838623,1.640625,-47.78125,4.78125
1695819229968,0.111572266,-0.7925415,0.08538818,0.921875,-43.859375,-2.0625
1695819230029,0.06225586,-1.0757446,0.09246826,0.609375,-49.234375,-5.0625
1695819230032,0.029785156,-1.2227173,0.04095459,-5.265625,-25.046875,2.1875
1695819230116,0.08496094,-0.90460205,-0.07550049,-0.78125,-7.515625,6.703125
1695819230119,0.10253906,-0.7752075,-0.024719238,11.3125,-18.96875,8.796875
1695819230150,0.08642578,-1.1819458,0.13885498,15.875,-16.203125,1.0
1695819230227,0.036132812,-1.1619263,0.16204834,3.1875,-9.96875,2.703125
1695819230241,0.024414062,-0.7739868,0.03778076,-4.234375,-4.1875,3.53125
1695819230267,0.16699219,-0.7127075,-0.07281494,-1.875,-16.65625,-1.625
1695819230342,0.63183594,-1.1101685,0.19085693,17.0,-42.46875,-3.765625
1695819230345,0.33544922,-1.1843872,0.07928467,6.84375,-47.859375,1.65625
1695819230419,-0.0546875,-1.0205688,-0.0335083,-1.390625,-21.0625,3.0
1695819230433,0.17358398,-0.9216919,-0.039367676,10.015625,-27.21875,-4.171875
1695819230463,0.35253906,-1.0689087,0.20257568,19.265625,-34.28125,-2.46875
1695819230538,0.12866211,-0.956604,0.0993042,-5.15625,-34.171875,-0.3125
1695819230552,0.041015625,-0.83135986,0.043884277,-5.03125,-25.640625,-2.5625
1695819230589,0.12109375,-0.84381104,0.18011475,2.4375,-22.421875,-6.390625
1695819230670,-0.025390625,-1.2442017,0.13104248,-13.796875,-7.71875,-10.921875
1695819230672,0.06201172,-1.2339478,-0.03692627,-16.5,7.3125,-1.875
1695819230734,0.40039062,-0.7029419,-0.051086426,2.625,3.03125,9.546875
1695819230756,0.12963867,-0.79766846,0.026306152,9.546875,-6.859375,5.6875
1695819230778,-0.12768555,-1.2061157,0.16033936,4.78125,-11.875,-6.640625
1695819230858,0.04248047,-1.022522,0.1161499,0.59375,9.078125,1.0625
1695819230867,0.13769531,-0.7576294,-0.050842285,-7.6875,5.859375,2.265625
1695819230897,0.15307617,-0.9053345,0.058532715,2.359375,-6.21875,-1.546875
1695819230974,0.39819336,-1.1777954,0.1671753,4.453125,-23.359375,-1.109375
1695819230977,0.31225586,-1.2056274,0.06903076,3.453125,-23.578125,-0.40625
1695819231056,0.0871582,-0.8530884,0.07269287,7.828125,-1.90625,6.5
1695819231065,0.007080078,-0.77789307,0.00970459,5.515625,-12.625,2.0
1695819231092,0.114746094,-1.1052856,0.1383667,10.21875,-22.484375,-7.328125
1695819231170,0.19506836,-1.1113892,0.24700928,-0.171875,-10.578125,0.421875
1695819231190,0.10083008,-0.7854614,0.0993042,-14.078125,-1.90625,-1.03125
1695819231222,0.018798828,-1.0054321,0.035583496,-4.9375,-5.21875,-9.15625
1695819231290,0.022216797,-1.3479614,0.053649902,-9.15625,3.1875,-6.890625
1695819231291,0.12890625,-0.8982544,0.050720215,2.671875,27.46875,7.59375
1695819231367,0.0061035156,-0.55841064,-0.046691895,-5.96875,16.515625,3.1875
1695819231386,0.10253906,-0.9639282,0.055847168,6.4375,5.15625,-2.109375
1695819231429,0.15063477,-1.2466431,0.20013428,7.5625,8.171875,0.28125
1695819231494,-0.0063476562,-0.8479614,0.0038452148,-14.828125,10.6875,4.40625
1695819231504,-0.0068359375,-0.86553955,0.03704834,-6.5,10.546875,-2.484375
1695819231528,0.38793945,-1.171936,0.13909912,4.375,-8.828125,-2.390625
1695819231614,0.4501953,-1.038147,0.08050537,10.515625,-14.890625,4.296875
1695819231616,0.10644531,-0.79400635,0.02947998,8.640625,-4.140625,5.328125
1695819231678,-0.09667969,-0.9651489,0.019958496,5.890625,-6.75,4.09375
1695819231691,0.12866211,-1.144104,0.15081787,14.84375,-7.796875,-4.78125
1695819231723,0.24389648,-0.9939575,0.1876831,4.140625,-3.6875,-0.609375
1695819231798,0.08178711,-0.7920532,0.08514404,-5.265625,0.734375,2.640625
1695819231833,-0.018310547,-0.9570923,0.03363037,1.390625,0.96875,-2.359375
1695819231846,-0.008544922,-1.2127075,-0.018615723,-6.9375,18.578125,-5.390625
1695819231897,0.18237305,-1.0444946,-0.12628174,-4.59375,18.640625,6.140625
1695819231919,0.25,-0.9956665,-0.1404419,5.0,2.6875,2.6875
1695819231967,0.14428711,-1.2573853,0.15423584,14.359375,-0.1875,-0.75
1695819232046,-0.02734375,-1.0022583,0.14959717,-6.84375,7.4375,6.765625
1695819232049,-0.028808594,-0.6436157,0.036071777,-8.53125,11.96875,6.6875
1695819232135,0.22070312,-0.6548462,-0.11651611,-8.640625,-13.109375,2.234375
1695819232152,0.5095215,-1.1140747,-0.047668457,8.03125,-31.375,2.28125
1695819232165,0.3930664,-1.0969849,0.07879639,8.171875,-36.328125,5.96875
1695819232210,-0.045898438,-0.9463501,-0.007873535,-3.40625,-23.4375,2.34375
1695819232234,-0.06933594,-1.0188599,-0.06402588,4.796875,-9.9375,-0.40625
1695819232314,0.28710938,-1.12677,0.10467529,15.71875,-17.640625,0.484375
1695819232329,0.16870117,-0.9011841,0.14569092,-0.453125,-17.34375,0.15625
1695819232353,0.049560547,-0.80718994,0.093688965,-5.984375,-7.953125,1.03125
1695819232430,-0.042236328,-1.0095825,0.06463623,4.453125,-4.78125,-0.1875
1695819232441,-0.053466797,-1.1445923,-0.0335083,-10.28125,15.46875,-3.59375
1695819232471,0.25,-1.0200806,-0.124572754,-1.953125,28.109375,4.671875
1695819232549,0.33154297,-0.7217407,-0.03302002,3.421875,13.828125,13.109375
1695819232554,0.09741211,-1.0166626,0.0927124,5.078125,-4.625,5.296875
1695819232622,-0.140625,-1.3196411,0.13226318,3.078125,7.90625,-2.203125
1695819232640,0.011474609,-0.90582275,0.054626465,-5.0625,22.71875,5.53125
1695819232686,0.115722656,-0.7859497,-0.11627197,-10.84375,16.25,-1.5
1695819232743,0.53686523,-1.0733032,-0.035217285,7.984375,-9.015625,-2.65625
1695819232760,0.46240234,-0.99786377,0.07635498,15.5625,-15.515625,6.125
1695819232794,-0.057128906,-0.7686157,-0.034973145,0.75,-1.9375,0.9375
1695819232864,-0.08544922,-1.0501099,-0.10089111,-0.046875,4.140625,-6.609375
1695819232866,0.38134766,-1.0718384,0.09881592,14.78125,-1.78125,-1.140625
1695819232939,0.32641602,-0.83966064,0.109802246,-0.75,-1.4375,-1.8125
1695819232953,-0.0026855469,-0.8389282,0.053894043,-9.3125,6.3125,-2.625
1695819232995,0.039794922,-0.97857666,-0.047912598,-16.34375,12.1875,-5.671875
1695819233059,-0.042236328,-1.3181763,0.008483887,-12.671875,26.609375,-12.90625
1695819233061,-0.048828125,-1.2034302,-0.13116455,-23.28125,34.671875,-2.0625
1695819233136,0.29370117,-0.8530884,-0.16973877,-4.9375,22.203125,2.78125
1695819233146,0.27490234,-0.93707275,0.0072631836,7.140625,14.671875,-2.40625
1695819233180,0.022216797,-1.0640259,0.11102295,-0.75,11.671875,-1.078125
1695819233265,-0.018066406,-0.85894775,0.04437256,-15.375,18.296875,0.390625
1695819233267,0.1508789,-0.88946533,-0.027160645,-10.828125,6.765625,-0.515625
1695819233300,0.44262695,-1.1838989,0.015808105,-0.953125,-8.828125,-0.4375
1695819233382,0.34399414,-1.0227661,0.1005249,12.546875,-14.359375,5.03125
1695819233384,-0.06225586,-0.80181885,0.059509277,3.296875,-8.765625,1.71875
1695819233463,-0.20532227,-0.9199829,-0.047912598,-6.421875,6.484375,-1.796875
1695819233473,0.087402344,-1.0752563,0.039978027,8.234375,4.21875,-1.765625
1695819233492,0.21191406,-0.96343994,0.19525146,4.296875,10.234375,-2.28125
1695819233568,0.05810547,-0.8674927,0.13641357,-12.21875,16.78125,-2.046875
1695819233583,0.026855469,-1.0064087,0.08465576,-18.484375,17.140625,-2.359375
1695819233614,-0.02734375,-1.2539673,0.0524292,-17.171875,22.5625,-9.265625
1695819233688,-0.0690918,-1.2122192,0.035583496,-11.328125,39.5625,-4.734375
1695819233691,0.048828125,-0.8101196,-0.07550049,-12.390625,46.765625,2.75
1695819233764,0.16577148,-0.7415161,-0.074523926,-2.328125,23.09375,0.125
1695819233779,0.1640625,-1.1602173,0.15179443,12.796875,21.953125,-2.1875
1695819233809,0.06640625,-1.0562134,0.09661865,-1.1875,23.46875,1.75
1695819233884,0.049804688,-0.798645,0.013122559,-6.484375,23.9375,5.140625
1695819233900,0.119628906,-0.90997314,-0.054260254,-4.71875,8.375,0.78125
1695819233928,0.5253906,-1.1428833,-0.00592041,13.171875,-0.578125,3.515625
1695819234008,0.3388672,-1.00177,0.15057373,19.84375,-17.296875,11.953125
1695819234011,-0.10498047,-0.8845825,0.055358887,0.578125,-16.171875,9.375
1695819234081,-0.092285156,-1.0869751,-0.1104126,1.3125,-9.265625,-1.296875
1695819234095,0.1928711,-1.0357056,0.06951904,16.28125,-13.546875,-2.265625
1695819234123,0.16748047,-0.89190674,0.18670654,5.96875,-8.234375,-0.859375
1695819234200,0.029785156,-0.8413696,0.045837402,-9.1875,4.296875,-2.15625
1695819234213,0.18408203,-0.9529419,0.02947998,-6.03125,2.90625,-2.609375
1695819234245,0.07373047,-1.1995239,0.010192871,-7.296875,16.1875,-1.578125
1695819234318,0.03466797,-0.95928955,-0.12823486,-12.328125,26.796875,8.453125
1695819234323,0.14233398,-0.848938,-0.12188721,4.15625,10.046875,1.453125
1695819234393,0.114746094,-1.1812134,0.066345215,14.875,7.53125,-3.546875
1695819234407,-0.016113281,-1.1218872,0.0848999,-4.0625,20.328125,3.390625
1695819234438,0.030273438,-0.7695923,-0.029846191,-14.125,22.828125,4.90625
1695819234513,0.17675781,-0.8196411,-0.026916504,-3.328125,8.8125,0.828125
1695819234588,0.4128418,-1.0164185,-0.0051879883,5.390625,-11.46875,0.90625
1695819234592,0.37304688,-0.989563,0.0446167,11.359375,-28.921875,-3.203125
1695819234602,-0.04345703,-0.93463135,-0.004699707,5.296875,-9.375,1.53125
1695819234632,-0.048583984,-1.0215454,0.001159668,1.09375,-6.78125,1.8125
1695819234711,0.20532227,-1.0698853,0.086120605,9.046875,-9.609375,-5.203125
1695819234723,0.16796875,-1.0264282,0.16741943,1.125,-6.8125,0.84375
1695819234769,0.060058594,-0.8394165,0.043640137,-9.65625,3.359375,1.375
1695819234801,0.1586914,-0.9102173,0.061462402,-8.21875,-7.109375,-4.09375
1695819234874,0.034423828,-1.2905884,0.051452637,-7.0,2.515625,-2.171875
1695819234877,0.07421875,-1.1299438,-0.08648682,-14.171875,24.703125,7.375
1695819234966,0.111572266,-0.7190552,-0.077941895,1.0,23.515625,9.09375
1695819234969,0.037841797,-0.88531494,-0.0015258789,6.921875,14.703125,-0.40625
1695819235024,-0.020751953,-1.2058716,0.10394287,4.5625,18.46875,-1.1875
1695819235043,0.08105469,-0.97003174,0.038513184,-11.09375,29.390625,2.109375
1695819235081,0.039794922,-0.73272705,-0.11529541,-14.1875,13.890625,-0.3125
1695819235144,0.11987305,-0.92803955,-0.0803833,-3.921875,6.734375,-4.890625
1695819235162,0.35546875,-1.178772,-0.02545166,6.03125,-9.734375,-4.015625
1695819235188,0.19384766,-0.98101807,0.11395264,7.96875,7.78125,-2.03125
1695819235267,0.00390625,-0.7354126,-0.06793213,-5.875,6.515625,4.59375
1695819235269,0.19213867,-0.99957275,0.032409668,10.375,-8.796875,-3.859375
1695819235350,0.27490234,-1.2432251,0.15374756,5.765625,-15.890625,-2.078125
1695819235361,0.0107421875,-0.93414307,0.13006592,-6.90625,-0.40625,3.671875
1695819235382,0.0073242188,-0.8496704,0.06341553,-13.4375,7.6875,-1.40625
1695819235474,-0.013427734,-1.1218872,0.089538574,-7.453125,3.59375,-4.546875
1695819235476,0.044921875,-1.131897,0.01776123,-16.46875,19.75,-1.140625
1695819235505,0.18188477,-0.9702759,-0.19903564,-7.0,22.71875,7.859375
1695819235585,0.25170898,-0.78790283,-0.06109619,10.015625,15.75,10.84375
1695819235588,-0.061523438,-1.1133423,0.12542725,11.140625,4.265625,0.828125
1695819235654,-0.15917969,-1.130188,0.08538818,-3.453125,19.03125,-4.234375
1695819235675,0.08984375,-0.84088135,0.0048217773,-12.5625,26.609375,2.625
1695819235699,0.17871094,-0.80841064,-0.049865723,-11.75,6.140625,2.390625
1695819235795,0.4326172,-1.0811157,0.054870605,3.84375,-14.265625,-0.4375
1695819235800,0.3569336,-1.1480103,0.18011475,7.953125,-11.4375,5.0625
1695819235832,-0.10888672,-0.92193604,0.014831543,-7.3125,7.078125,8.0
1695819235874,0.060791016,-0.85650635,-0.1194458,-2.390625,-0.4375,-0.796875
1695819235901,0.36523438,-1.036438,0.14520264,19.84375,-15.65625,-3.109375
1695819235942,0.11987305,-0.973938,0.1642456,-2.765625,-8.515625,1.5
1695819236014,-0.0078125,-0.83477783,0.02557373,-12.96875,-0.9375,-0.796875
1695819236017,0.099853516,-0.96954346,0.08343506,-2.453125,-2.15625,-5.921875
1695819236086,0.107666016,-1.3318481,0.12982178,-14.390625,11.625,-6.890625
1695819236090,0.16918945,-1.0093384,-0.06085205,-11.65625,19.96875,7.75
1695819236185,0.21386719,-0.7366333,-0.121398926,0.984375,15.4375,8.9375
1695819236195,0.052001953,-1.0122681,0.04925537,17.125,-0.625,3.8125
1695819236210,-0.075927734,-1.2271118,0.17254639,2.703125,7.375,-5.09375
1695819236299,0.07885742,-0.9312134,0.06951904,-12.15625,16.875,1.5
1695819236304,0.118652344,-0.7974243,-0.035705566,-12.828125,3.46875,5.078125
1695819236329,0.39672852,-1.1228638,0.097839355,1.65625,-18.140625,-1.484375
1695819236405,0.3840332,-1.09552,0.0040893555,9.8125,-19.390625,7.5625
1695819236412,0.06762695,-0.73760986,0.15667725,9.8125,10.078125,9.46875
1695819236508,-0.021484375,-0.7839966,-0.04425049,-9.484375,0.328125,1.75
1695819236518,0.24487305,-1.0908813,0.16351318,16.34375,-16.359375,-5.5
1695819236529,0.26733398,-1.0750122,0.2333374,-3.640625,-10.515625,0.921875
1695819236611,0.06225586,-0.7554321,0.08929443,-16.796875,1.421875,-1.546875
1695819236616,0.12524414,-0.8701782,0.06878662,-7.359375,-1.34375,-5.203125
1695819236652,0.021240234,-1.3623657,0.070251465,-2.796875,5.21875,-6.65625
1695819236719,0.088134766,-1.1265259,0.035583496,-11.34375,28.25,3.96875
1695819236721,0.020996094,-0.7300415,0.03753662,-4.265625,31.5,5.953125
1695819236811,0.091796875,-0.9036255,0.013366699,1.15625,15.96875,-3.546875
1695819236832,0.10595703,-1.1958618,0.20306396,5.546875,18.453125,-1.984375
1695819236842,-0.014404297,-0.91241455,0.05609131,-16.171875,26.59375,1.5625
1695819236914,0.01953125,-0.74176025,-0.057434082,-14.046875,20.765625,-1.875
1695819236927,0.41357422,-0.9956665,0.078063965,3.1875,9.359375,-6.890625
1695819236980,0.54052734,-1.1992798,0.12225342,6.96875,-4.328125,-2.46875
1695819237032,-0.028564453,-0.98565674,0.13641357,-1.21875,16.40625,3.28125
1695819237034,-0.20263672,-0.98516846,0.050231934,-10.9375,19.65625,-6.34375
1695819237115,0.09863281,-1.0291138,0.1486206,2.296875,18.875,-12.046875
1695819237122,0.18579102,-0.99957275,0.27996826,-3.515625,30.375,-2.859375
1695819237170,-0.0063476562,-0.80963135,0.078308105,-20.53125,36.390625,-1.796875
1695819237228,0.0029296875,-0.82818604,0.09539795,-7.265625,33.390625,-8.65625
1695819237244,-0.064208984,-1.272522,1.8310547E-4,-8.25,45.203125,-11.171875
1695819237272,0.22143555,-1.1709595,-0.038146973,-8.21875,54.96875,2.78125
1695819237350,0.20581055,-0.73028564,0.010681152,-1.328125,47.0625,10.0625
1695819237352,0.009521484,-0.8965454,0.050231934,-0.375,32.828125,-1.40625
1695819237422,-0.087646484,-1.2351685,0.13446045,1.796875,38.21875,-3.890625
1695819237439,0.04711914,-0.9417114,0.015319824,-13.640625,46.953125,3.390625
1695819237474,0.0021972656,-0.7542114,-0.06915283,-14.875,36.421875,-1.203125
1695819237546,0.35961914,-1.0171509,0.0067749023,-1.703125,21.796875,-7.6875
1695819237559,0.42919922,-1.1489868,0.22015381,9.90625,10.53125,0.203125
1695819237588,-0.064941406,-0.8740845,0.14007568,-9.484375,24.328125,7.0
1695819237632,-0.123291016,-1.03302,-0.015930176,-11.96875,25.765625,-1.515625
1695819237673,0.20629883,-1.1289673,0.20916748,6.75,19.609375,-5.671875
1695819237758,0.14282227,-0.9561157,0.22479248,-7.15625,32.953125,0.765625
1695819237765,0.031982422,-0.8164673,0.13519287,-15.328125,32.921875,0.78125
1695819237782,0.033447266,-0.97491455,0.16693115,-5.953125,27.9375,-2.265625
1695819237881,-0.18676758,-1.1516724,0.07733154,-8.859375,38.21875,-5.640625
1695819237892,0.057128906,-1.1460571,-0.10040283,-7.53125,57.515625,-4.09375
1695819237910,0.39868164,-0.81622314,-0.0134887695,5.609375,54.984375,9.3125
1695819237978,0.048583984,-0.73223877,0.08807373,-0.484375,46.9375,7.5
1695819238070,-0.25024414,-1.1165161,0.053894043,0.1875,42.421875,-6.53125
1695819238072,-0.068847656,-1.1956177,0.06976318,1.0625,65.765625,-6.390625
1695819238075,0.078125,-0.9221802,-0.10235596,-21.375,59.71875,-0.171875
1695819238100,0.1965332,-0.8491821,-0.13604736,-13.640625,42.625,-5.578125
1695819238175,0.60595703,-1.2415161,0.0770874,9.046875,23.3125,-5.84375
1695819238190,0.21264648,-0.9990845,0.13031006,5.1875,24.078125,6.640625
1695819238243,-0.09790039,-0.68096924,0.08050537,-4.140625,24.78125,6.984375
1695819238262,-0.080078125,-1.0117798,-0.025939941,-3.390625,17.390625,-10.46875
1695819238295,0.20361328,-1.175354,0.15130615,8.640625,17.765625,-4.359375
1695819238395,0.11230469,-0.7905884,0.14398193,-9.78125,40.171875,3.21875
1695819238409,0.043945312,-0.79229736,0.011169434,-18.734375,35.3125,-3.34375
1695819238412,-0.22216797,-1.298645,-0.12261963,-10.890625,39.5625,-1.921875
1695819238497,0.17504883,-1.265686,-0.08892822,-13.96875,35.515625,-3.9375
1695819238513,0.13647461,-0.9343872,0.078308105,4.78125,43.546875,4.359375
1695819238533,0.033691406,-0.8074341,-0.0037231445,-3.90625,37.0,2.625
1695819238588,-0.088378906,-1.0803833,0.117370605,-0.390625,38.375,0.703125
1695819238609,-0.06542969,-0.9690552,-0.046936035,-18.078125,37.265625,-2.25
1695819238652,0.07324219,-0.83795166,-0.14678955,-14.5,32.546875,-4.890625
1695819238697,0.46191406,-1.1277466,0.051940918,7.421875,25.703125,-7.921875
1695819238741,0.16748047,-1.1062622,0.19793701,7.59375,22.46875,3.390625
1695819238773,-0.16357422,-0.80670166,0.06121826,-8.515625,25.234375,5.421875
1695819238811,-0.09765625,-0.94537354,0.029968262,-2.078125,26.96875,-6.203125
1695819238884,0.24511719,-1.2175903,0.17376709,4.921875,23.484375,-0.953125
1695819238893,0.15307617,-0.8833618,0.19110107,-7.0,29.4375,5.40625
1695819238934,-0.037353516,-0.7581177,0.023132324,-16.671875,23.078125,0.640625
1695819238998,-0.10107422,-1.076477,0.042419434,0.796875,28.921875,-6.625
1695819239012,-0.011230469,-1.342102,-0.055480957,-14.46875,39.171875,-3.984375
1695819239048,0.27490234,-0.89801025,-0.09259033,-8.515625,37.3125,6.546875
1695819239117,0.19042969,-0.64434814,0.011413574,8.734375,31.765625,9.921875
1695819239118,-0.1105957,-1.046936,0.009216309,7.140625,16.546875,-1.046875
1695819239193,-0.13452148,-1.2637329,0.117126465,7.390625,31.4375,-3.53125
1695819239209,0.080322266,-0.9194946,-0.049621582,-8.515625,39.890625,3.265625
1695819239238,0.064208984,-0.7227173,-0.11798096,-10.53125,28.15625,0.859375
1695819239312,0.27807617,-0.9702759,0.0028686523,7.0625,9.984375,-4.40625
1695819239344,0.3737793,-1.3118286,0.10687256,13.203125,2.46875,-1.59375
1695819239367,-0.040771484,-0.989563,0.06439209,2.984375,20.125,8.03125
1695819239435,-0.060791016,-0.9841919,-0.034240723,-8.109375,10.78125,-2.203125
1695819239438,0.16894531,-1.1199341,0.13006592,3.25,4.875,-5.453125
1695819239522,0.18359375,-1.0071411,0.17449951,-0.984375,8.328125,2.34375
1695819239538,0.032958984,-0.82647705,0.12567139,-15.140625,9.296875,-0.359375
1695819239553,7.324219E-4,-0.909729,0.041931152,-14.546875,9.34375,-5.265625
1695819239628,-0.076660156,-1.3569946,-0.093322754,-11.8125,14.140625,-7.796875
1695819239649,0.12207031,-1.263977,0.007019043,-7.015625,18.125,-4.265625
1695819239675,0.111328125,-0.7058716,0.09661865,-5.578125,29.859375,8.390625
1695819239749,-0.027832031,-0.6680298,-0.06793213,-7.765625,13.1875,7.59375
1695819239751,-0.01928711,-1.0974731,0.11273193,9.625,17.375,-1.484375
1695819239822,-0.020019531,-1.1257935,0.117614746,0.40625,26.890625,-1.25
1695819239838,-0.013916016,-0.83184814,0.009460449,-18.421875,21.859375,-0.0625
1695819239884,0.095214844,-0.93634033,0.07244873,-9.6875,19.125,-2.15625
1695819239950,0.34765625,-1.1067505,0.15887451,-3.078125,2.15625,-0.875
1695819239959,0.32006836,-1.1824341,0.021911621,1.703125,-12.734375,-4.5
1695819239993,0.03955078,-0.93463135,0.022888184,3.859375,-1.140625,5.390625
1695819240063,-0.024169922,-0.67388916,0.14910889,9.21875,-5.109375,6.03125
1695819240064,0.03881836,-0.96759033,0.08807373,7.265625,-17.125,-4.953125
1695819240148,0.14233398,-1.1668091,0.17059326,10.3125,-13.734375,0.859375
1695819240154,0.020507812,-0.85357666,0.14959717,0.53125,1.3125,5.6875
1695819240186,0.029785156,-0.81036377,0.082214355,-2.796875,-1.71875,-0.21875
1695819240260,-0.1303711,-1.3655396,0.12347412,-7.53125,7.4375,-5.0625
1695819240273,0.027832031,-1.3045044,0.007019043,-10.359375,21.953125,4.53125
1695819240303,0.34155273,-0.84747314,-0.13458252,-1.734375,15.5625,13.140625
1695819240378,0.15917969,-0.79400635,-0.008117676,9.9375,7.265625,8.515625
1695819240383,-0.18774414,-1.1607056,0.1227417,9.703125,0.625,-2.375
1695819240455,-0.055908203,-1.071106,0.09710693,-3.4375,21.40625,2.15625
1695819240468,0.15551758,-0.7871704,-0.03741455,-9.078125,21.515625,3.4375
1695819240498,0.25952148,-1.0210571,-0.089416504,-4.203125,2.515625,3.484375
1695819240592,0.48046875,-1.1519165,0.030700684,12.3125,-30.734375,0.90625
1695819240596,0.23583984,-0.8452759,0.16546631,17.9375,-28.796875,8.4375
1695819240618,-0.091308594,-0.8069458,0.019470215,-10.8125,-6.5625,5.140625
1695819240693,-0.06567383,-1.0432739,-0.078186035,0.984375,-17.625,-5.5
1695819240696,0.2355957,-1.0542603,0.16156006,18.203125,-19.828125,-6.4375
1695819240770,0.118652344,-0.84210205,0.18695068,-7.515625,-1.90625,-3.859375
1695819240782,0.045654297,-0.8599243,0.034606934,-18.515625,1.171875,-1.625
1695819240813,0.05419922,-1.1016235,-0.003967285,-8.390625,-2.0,-1.515625
1695819240889,-0.001953125,-1.2612915,0.05999756,-3.8125,13.859375,-3.40625
1695819240904,0.14575195,-1.0462036,-0.062316895,-5.515625,19.796875,3.21875
1695819240934,0.16333008,-0.68756104,-0.016174316,1.890625,16.3125,7.546875
1695819241009,0.07299805,-1.0401001,0.020690918,4.890625,3.359375,-1.34375
1695819241012,0.015136719,-1.2078247,0.16326904,7.625,13.28125,-0.6875
1695819241083,0.05883789,-0.88287354,0.059265137,-15.859375,18.59375,2.953125
1695819241098,0.071777344,-0.7769165,-0.046203613,-11.453125,7.171875,0.84375
1695819241130,0.28125,-1.0540161,0.003112793,5.171875,-7.78125,-4.921875
1695819241204,0.38232422,-1.0755005,0.020935059,14.625,-19.265625,0.921875
1695819241219,0.14282227,-0.880188,0.08465576,11.375,-4.71875,1.53125
1695819241249,-0.10522461,-0.9451294,0.0018920898,-1.375,-1.78125,2.8125
1695819241328,0.053710938,-1.0962524,0.07537842,5.515625,-7.09375,-3.140625
1695819241330,0.22265625,-1.0220337,0.18621826,2.4375,-3.234375,-1.796875
1695819241399,0.08666992,-0.88238525,0.13494873,-6.40625,2.875,2.3125
1695819241416,0.0031738281,-0.8057251,0.016540527,-12.53125,4.71875,0.109375
1695819241443,0.09008789,-0.95269775,0.05340576,-8.875,-0.984375,-7.203125
1695819241519,0.00390625,-1.4758911,0.020935059,-8.703125,15.53125,-11.71875
1695819241521,0.10424805,-1.0117798,0.03656006,-6.953125,31.1875,8.796875
1695819241608,0.12548828,-0.611145,-0.034729004,-6.71875,25.234375,7.921875
1695819241611,0.18334961,-0.95196533,0.03704834,8.40625,1.671875,-1.28125
1695819241645,0.022216797,-1.3267212,0.20648193,11.59375,17.25,0.1875
1695819241719,-0.03125,-0.9534302,0.08514404,-11.8125,18.828125,5.390625
1695819241729,0.013916016,-0.74884033,-0.04034424,-10.5,12.671875,0.625
1695819241758,0.13452148,-0.9673462,0.0048217773,0.046875,2.203125,-2.046875
1695819241846,0.42407227,-1.248352,0.12322998,6.890625,-14.125,-2.46875
1695819241847,0.25390625,-0.9985962,-0.029846191,2.578125,-9.984375,3.9375
1695819241907,0.008056641,-0.6680298,0.010925293,4.984375,1.65625,7.75
1695819241924,0.014160156,-0.8579712,-0.015197754,6.703125,-11.875,1.40625
1695819241958,0.15405273,-1.2236938,0.15130615,16.875,-15.578125,-6.71875
1695819242031,0.084228516,-1.0462036,0.16400146,-2.46875,-3.875,1.9375
1695819242042,0.009765625,-0.800354,0.0993042,-10.578125,6.125,1.625
1695819242074,0.03881836,-0.81451416,0.0033569336,-6.0,3.96875,-2.21875
1695819242158,0.23583984,-1.0708618,0.04046631,1.65625,0.125,-7.65625
1695819242161,0.0087890625,-1.3899536,-0.023742676,-10.15625,14.90625,-7.8125
1695819242242,0.10864258,-0.88287354,0.034851074,-5.203125,24.921875,9.828125
1695819242244,0.0690918,-0.69610596,-0.05206299,-7.578125,14.9375,3.671875
1695819242271,0.13378906,-1.086731,0.10418701,12.265625,7.359375,-3.015625
1695819242349,0.103759766,-1.1375122,0.15814209,1.71875,18.65625,3.484375
1695819242361,-0.0126953125,-0.7058716,-0.034973145,-13.40625,11.3125,5.046875
1695819242390,0.052734375,-0.7937622,-0.049621582,-7.15625,4.546875,-0.828125
1695819242461,0.4128418,-1.1567993,0.09710693,15.875,-12.640625,-0.8125
1695819242463,0.23291016,-1.0195923,0.07293701,8.578125,-14.96875,7.265625
1695819242549,-9.765625E-4,-0.83795166,-0.02935791,6.78125,-0.625,3.421875
1695819242554,0.04345703,-1.0557251,-0.02545166,7.984375,-6.265625,0.78125
1695819242583,0.3293457,-1.2173462,0.17572021,15.078125,-17.265625,-0.78125
1695819242660,0.15332031,-0.9512329,0.17108154,-0.359375,-2.84375,5.0
1695819242677,-0.041748047,-0.81256104,0.0026245117,-12.28125,4.0625,-0.328125
1695819242703,0.1184082,-0.8718872,0.057556152,-5.4375,-0.484375,-6.40625
1695819242788,0.05810547,-1.1807251,0.05633545,-5.046875,11.28125,-3.15625
1695819242789,0.07006836,-1.1004028,-0.12017822,-10.921875,25.203125,8.015625
1695819242863,0.24438477,-0.7017212,-0.06817627,6.671875,20.015625,8.359375
1695819242866,0.18676758,-1.0662231,0.066345215,12.796875,2.453125,-3.09375
1695819242912,0.00390625,-1.211731,0.17010498,1.15625,7.296875,0.921875
1695819242985,0.0949707,-0.80963135,-0.05255127,-19.765625,15.515625,3.90625
1695819243006,0.15649414,-0.7918091,-0.14678955,-12.59375,-6.015625,-2.140625
1695819243021,0.47924805,-1.2009888,0.0138549805,7.484375,-22.140625,-4.359375
1695819243068,0.39892578,-1.1067505,0.15301514,5.78125,-27.578125,3.875
1695819243104,-0.10498047,-0.6836548,0.027038574,-11.640625,-12.71875,1.09375
1695819243141,-0.12475586,-0.8550415,-0.13970947,-2.046875,-13.03125,-7.53125
1695819243188,0.3293457,-1.1809692,0.20648193,27.046875,-19.109375,-3.609375
1695819243213,0.28149414,-0.9939575,0.20037842,-5.28125,-13.375,1.15625
1695819243291,-0.041992188,-0.7542114,0.07977295,-14.78125,-8.34375,-0.125
1695819243370,0.06201172,-0.9326782,0.08856201,-1.609375,-4.328125,-7.78125
1695819243375,0.087646484,-1.3018188,0.12835693,-0.5,0.78125,-6.75
1695819243391,0.11621094,-1.1445923,0.007507324,-14.546875,9.015625,3.734375
1695819243413,-9.765625E-4,-0.72442627,0.007507324,2.984375,12.875,11.375
1695819243483,-0.03881836,-0.8530884,0.018737793,9.28125,5.578125,-2.640625
1695819243508,0.061279297,-1.1487427,0.105651855,8.75,11.046875,-4.078125
1695819243528,0.16259766,-1.0078735,0.09588623,-6.65625,15.625,4.078125
1695819243606,0.061035156,-0.8464966,-0.005432129,-17.15625,3.390625,-0.5
1695819243618,0.18164062,-1.1018677,0.10345459,-5.09375,-2.890625,-9.46875
1695819243648,0.3310547,-1.2271118,0.1005249,0.484375,-21.609375,-1.078125
1695819243730,0.22680664,-0.92193604,0.026062012,-2.171875,2.953125,1.421875
1695819243733,-0.055419922,-0.69195557,0.035339355,1.28125,-5.3125,7.390625
1695819243797,-0.0053710938,-0.96295166,0.124694824,12.953125,-13.1875,-2.140625
1695819243816,0.12524414,-1.0718384,0.20013428,3.578125,-4.359375,-2.234375
1695819243854,0.115722656,-0.84625244,0.16351318,-6.828125,0.84375,2.09375
1695819243917,0.1105957,-0.96466064,0.08148193,-7.140625,-2.109375,-0.265625
1695819243931,-0.037109375,-1.3052368,0.14227295,-2.609375,4.953125,-2.265625
1695819243962,-0.1171875,-1.0772095,0.066589355,-10.109375,29.0625,1.765625
1695819244049,0.17456055,-0.723938,-0.10992432,-4.609375,24.671875,7.265625
1695819244050,0.3347168,-0.831604,-0.015930176,13.9375,7.453125,9.234375
1695819244120,0.13647461,-1.2466431,0.19696045,12.796875,3.109375,-2.65625
1695819244144,-0.08959961,-1.0552368,0.109802246,-3.765625,11.90625,2.484375
1695819244158,-0.010498047,-0.70806885,-0.035217285,-9.640625,11.0,0.625
1695819244231,0.1340332,-0.86431885,-0.055480957,-2.796875,-0.484375,-3.90625
1695819244250,0.49926758,-1.21344,0.090026855,15.640625,-18.6875,-3.3125
1695819244287,0.2253418,-1.0957642,0.112976074,6.65625,-16.703125,0.140625
1695819244358,-0.075927734,-0.87872314,0.086364746,-2.484375,-5.546875,3.15625
1695819244360,0.0041503906,-0.9915161,0.03289795,4.90625,-8.8125,-2.25
1695819244430,0.2614746,-1.0276489,0.13812256,9.890625,-10.59375,0.453125
1695819244441,0.13867188,-0.8772583,0.18328857,-1.328125,-4.8125,1.53125
1695819244480,0.009277344,-0.90582275,0.04534912,-14.5625,-2.765625,-2.328125
1695819244553,-0.021728516,-1.1223755,0.081970215,-5.5,8.03125,-6.3125
1695819244555,0.076171875,-1.2214966,-0.0064086914,-15.59375,16.9375,-2.484375
1695819244637,0.18041992,-0.8101196,0.058288574,7.8125,19.609375,14.390625
1695819244641,0.083496094,-0.88482666,-0.0015258789,4.484375,5.875,1.265625
1695819244669,0.010253906,-1.241272,0.19207764,9.3125,2.578125,-4.84375
1695819244742,0.02709961,-0.99957275,0.12738037,-12.34375,17.390625,3.4375
1695819244756,0.0390625,-0.76812744,-0.07330322,-15.453125,8.28125,2.46875
1695819244796,0.3635254,-0.99298096,0.074645996,-1.140625,-11.578125,-0.453125
1695819244869,0.39379883,-1.2166138,0.101745605,11.625,-26.84375,4.671875
1695819244873,0.12109375,-0.84039307,0.06854248,4.953125,-3.59375,6.9375
1695819244942,-0.076171875,-0.7334595,-0.027893066,0.1875,-9.609375,2.46875
1695819244952,0.119628906,-1.069397,0.1293335,11.84375,-16.96875,-6.046875
1695819244982,0.28173828,-1.1314087,0.28607178,8.9375,-8.484375,0.65625
1695819245059,0.12133789,-0.7749634,0.06317139,-13.859375,-4.703125,-1.859375
1695819245073,0.051513672,-0.81622314,0.027038574,-4.515625,-7.03125,-6.34375
1695819245101,-7.324219E-4,-1.1992798,0.14715576,4.59375,8.3125,-8.765625
1695819245177,0.1743164,-1.2000122,-0.04107666,-3.265625,4.0,0.34375
1695819245181,0.19824219,-0.80255127,-0.042053223,11.640625,-3.375,6.53125
1695819245264,0.07055664,-0.9295044,0.02532959,15.625,-5.15625,-3.5
1695819245268,-0.09716797,-1.1760864,0.0770874,6.5625,-3.078125,-3.203125
1695819245305,0.038330078,-0.91729736,0.051696777,-2.1875,9.9375,2.796875
1695819245342,0.06713867,-0.76031494,-0.13360596,-5.328125,2.1875,-0.75
1695819245395,0.19824219,-0.96954346,-0.08502197,-0.734375,-14.53125,-2.671875
1695819245421,0.43408203,-0.99298096,0.11932373,16.0625,-27.828125,2.4375
1695819245470,0.19970703,-0.9949341,0.097839355,3.96875,-24.515625,-1.953125
1695819245493,-0.119628906,-1.109436,-0.053527832,-0.953125,-14.5625,1.84375
1695819245572,0.10058594,-1.0269165,0.070007324,8.609375,-12.78125,0.125
1695819245587,0.15332031,-0.87091064,0.16864014,4.609375,-11.671875,-4.734375
1695819245626,0.06298828,-0.84039307,0.07318115,-7.53125,-7.65625,-1.5
1695819245692,0.11694336,-0.8521118,0.11053467,-6.9375,-8.515625,-2.46875
1695819245702,0.040527344,-1.2058716,0.016296387,-8.25,-1.765625,-6.84375
1695819245738,0.12841797,-1.1567993,-0.097473145,-4.140625,6.046875,5.15625
1695819245828,0.21411133,-0.7300415,-0.018859863,6.765625,3.078125,8.171875
1695819245830,0.03930664,-1.0293579,0.089782715,9.90625,-8.03125,-4.53125
1695819245853,-0.095947266,-1.3164673,0.12982178,2.0,2.65625,-3.25
1695819245924,0.10522461,-0.9451294,0.073913574,-8.046875,10.25,6.125
1695819245936,0.11669922,-0.7510376,-0.039611816,-7.15625,-7.421875,0.5625
1695819246003,0.13623047,-0.99102783,-0.002746582,-0.390625,-15.59375,0.28125
1695819246021,0.31591797,-1.1511841,0.00579834,11.34375,-27.765625,3.953125
1695819246048,0.2644043,-0.93341064,-0.008605957,7.9375,-13.765625,4.328125
1695819246134,0.06762695,-0.60601807,-0.0076293945,10.0625,-21.734375,10.0625
1695819246136,0.080078125,-1.0093384,0.022644043,17.984375,-33.203125,-0.125
1695819246216,0.16625977,-1.2515259,0.116882324,15.796875,-26.9375,-0.453125
1695819246218,0.13623047,-0.8831177,0.09637451,-0.125,-15.34375,6.609375
1695819246245,0.08935547,-0.7468872,0.001159668,-6.109375,-12.625,-0.171875
1695819246319,0.06225586,-1.1524048,0.035827637,0.71875,-16.0,-4.3125
1695819246334,-0.009277344,-1.2925415,-0.10089111,-9.640625,8.03125,2.5625
1695819246375,0.25732422,-0.9302368,-0.20953369,-4.015625,1.65625,9.78125
1695819246438,0.27075195,-1.0618286,0.038757324,16.125,-5.171875,1.859375
1695819246440,-0.014892578,-1.0462036,0.12615967,-3.21875,-8.40625,-0.78125
1695819246533,-0.032714844,-0.8374634,-0.0015258789,-11.359375,3.96875,4.578125
1695819246548,0.10571289,-0.72979736,-0.15386963,-9.4375,-3.3125,1.015625
1695819246557,0.27319336,-0.9780884,-0.14996338,-3.09375,-18.421875,-2.09375
1695819246633,0.55322266,-1.078186,0.10101318,12.140625,-31.515625,0.96875
1695819246659,0.14892578,-0.91778564,0.12200928,1.96875,-21.046875,2.140625
1695819246679,-0.14819336,-0.86602783,-0.113586426,-9.015625,-8.53125,1.28125
1695819246755,0.27783203,-1.041565,-0.005432129,14.484375,-22.953125,-2.0
1695819246757,0.3112793,-1.1482544,0.23626709,10.28125,-21.28125,-4.328125
1695819246830,-0.051757812,-0.8875122,0.047546387,-16.5,-13.828125,-3.203125
1695819246843,0.027832031,-0.8262329,0.026550293,-10.625,-1.359375,-8.3125
1695819246878,0.06958008,-1.1321411,0.059020996,-3.09375,3.078125,-7.0625
1695819246918,0.17700195,-1.2244263,-0.02130127,-14.359375,9.515625,1.609375
1695819246992,0.08496094,-0.89263916,-5.493164E-4,0.546875,13.984375,7.1875
1695819246994,0.045654297,-0.99102783,0.036071777,4.578125,6.984375,-4.953125
1695819247070,0.05834961,-1.1836548,0.20550537,2.640625,9.953125,-3.5
1695819247073,0.068359375,-0.9126587,0.08416748,-15.984375,14.796875,2.390625
1695819247143,-0.006591797,-0.7439575,-0.03692627,-14.296875,4.203125,-0.09375
1695819247159,0.30664062,-0.95635986,0.03314209,-2.0625,-3.90625,-4.5
1695819247189,0.3642578,-1.1570435,0.11151123,6.0,-12.109375,5.09375
1695819247262,0.16870117,-0.9380493,0.038757324,3.125,-2.765625,8.0625
1695819247280,-0.029296875,-0.80548096,-0.02911377,3.4375,0.796875,5.890625
1695819247310,0.1616211,-1.1043091,0.046325684,9.890625,-11.875,-4.265625
1695819247384,0.24072266,-1.2085571,0.28411865,10.40625,-4.96875,2.34375
1695819247386,0.060791016,-0.89971924,0.13543701,-12.6875,2.3125,3.4375
1695819247459,-0.0053710938,-0.7908325,0.030944824,-9.59375,4.828125,-1.609375
1695819247474,0.15551758,-1.0147095,0.14251709,1.84375,-0.28125,-5.75
1695819247503,0.12597656,-1.2922974,-0.012512207,-12.0,15.46875,-6.703125
1695819247580,0.12890625,-0.89190674,-0.011779785,-0.359375,25.875,7.390625
1695819247585,0.033447266,-0.6865845,-0.07745361,3.84375,17.875,5.328125
1695819247654,0.06958008,-1.0281372,0.086120605,12.25,12.109375,-3.578125
1695819247668,0.12719727,-1.1841431,0.08905029,2.0625,16.484375,0.109375
1695819247698,0.09741211,-0.8491821,0.027770996,-11.140625,18.28125,4.984375
1695819247776,0.10546875,-0.8233032,-0.06695557,-8.1875,7.875,-0.203125
1695819247788,0.31835938,-1.0789185,-0.027404785,4.46875,-4.453125,-2.046875
1695819247819,0.5185547,-1.1333618,0.14007568,10.21875,-18.734375,0.609375
1695819247895,0.015136719,-0.8921509,0.053894043,-3.734375,-4.5,5.5625
1695819247898,-0.11279297,-0.91070557,-0.055725098,-4.71875,-2.46875,-0.4375
1695819247969,0.19116211,-1.069397,0.117126465,12.84375,-9.28125,-7.0
1695819247983,0.18920898,-1.0354614,0.22088623,3.515625,-0.0625,-1.96875
1695819248014,0.03515625,-0.82525635,0.08148193,-14.40625,5.109375,-3.21875
1695819248088,0.12109375,-0.86968994,0.04510498,-7.953125,3.09375,-6.21875
1695819248103,0.036376953,-1.2769165,-0.04815674,-2.828125,9.015625,-2.359375
1695819248133,0.075683594,-1.1582642,-0.03668213,-4.859375,19.296875,3.46875
1695819248208,0.09790039,-0.84576416,0.006286621,2.921875,16.15625,8.328125
1695819248217,0.15209961,-0.9644165,0.039733887,5.296875,7.390625,-0.96875
1695819248292,0.072753906,-1.194397,0.1408081,1.9375,9.65625,1.5625
1695819248303,-0.07836914,-0.98101807,0.09954834,-10.046875,15.03125,6.578125
1695819248327,-0.036132812,-0.8621216,0.009460449,-17.84375,13.265625,-2.421875
1695819248411,0.3305664,-1.0254517,-0.028625488,-9.96875,5.5625,-3.890625
1695819248430,0.47729492,-1.3320923,0.21282959,0.40625,-9.578125,-1.84375
1695819248449,0.04345703,-0.86676025,0.011657715,-15.953125,-3.5625,3.140625
1695819248523,-0.04663086,-0.5454712,0.10687256,-3.796875,-6.578125,-2.515625
1695819248528,0.10253906,-1.0066528,0.1149292,2.90625,-9.78125,-7.65625
1695819248612,0.25073242,-1.2124634,0.30023193,4.234375,-8.6875,0.65625
1695819248619,0.037109375,-0.80792236,0.12298584,-11.875,3.765625,3.03125
1695819248643,0.013916016,-0.7505493,0.08123779,-4.21875,-1.015625,-7.265625
1695819248729,-0.080078125,-1.3779907,0.12908936,-5.359375,18.09375,-10.640625
1695819248737,0.1496582,-1.0896606,0.14886475,-4.671875,27.65625,8.015625
1695819248764,0.08520508,-0.6362915,-0.038391113,-7.796875,26.09375,6.953125
1695819248852,0.13256836,-0.9143677,-0.0015258789,11.359375,4.765625,2.203125
1695819248854,0.08203125,-1.3621216,0.18475342,10.59375,7.765625,-0.546875
1695819248915,-0.045410156,-0.9710083,0.085632324,-9.9375,14.140625,2.46875
1695819248933,0.07080078,-0.6934204,-0.07281494,-11.25,9.265625,-1.90625
1695819248956,0.5097656,-0.88604736,0.074401855,17.25,-4.203125,0.265625
1695819249033,0.3330078,-1.2515259,0.25579834,11.78125,-23.90625,8.0625
1695819249120,-0.051513672,-1.1148071,0.1473999,-10.875,-19.234375,6.9375
1695819249123,0.04272461,-1.0281372,0.1515503,-7.234375,6.203125,4.578125
1695819249125,0.053222656,-0.894104,0.09515381,2.21875,-2.140625,5.171875
1695819249166,0.078125,-0.84210205,0.18670654,5.265625,1.453125,-0.734375
1695819249197,0.07836914,-0.95928955,0.14324951,-13.828125,8.359375,-5.015625
1695819249278,-0.024169922,-1.0669556,0.097351074,-12.5625,15.578125,-0.546875
1695819249290,0.05810547,-1.2481079,-0.044006348,-10.9375,25.25,-3.921875
1695819249324,0.19824219,-0.91900635,0.1539917,9.890625,37.4375,8.390625
1695819249392,0.029541016,-0.87457275,0.020935059,0.78125,35.265625,2.28125
1695819249394,-7.324219E-4,-1.0881958,0.12957764,4.078125,26.28125,-2.953125
1695819249467,0.095947266,-1.0730591,0.11834717,-11.453125,33.953125,0.71875
1695819249469,0.10644531,-0.8364868,0.013122559,-13.1875,26.90625,-1.6875
1695819249553,0.3388672,-0.92315674,0.11151123,4.1875,7.859375,-6.328125
1695819249557,0.43164062,-1.060852,0.03289795,9.296875,-6.46875,2.421875
1695819249601,0.07910156,-0.8101196,0.0927124,8.734375,6.03125,7.625
1695819249662,-0.037353516,-0.9768677,0.007507324,-3.765625,-3.4375,1.890625
1695819249753,0.040039062,-1.072815,0.18304443,15.09375,2.78125,-4.703125
1695819249756,0.09423828,-0.96881104,0.18695068,-0.375,12.265625,-1.171875
1695819249775,0.061279297,-0.81207275,0.02166748,-11.203125,20.015625,-2.546875
1695819249781,0.11425781,-0.92193604,0.077819824,-3.34375,16.515625,-2.25
1695819249849,0.036376953,-1.4602661,-0.019592285,-11.078125,24.53125,-6.875
1695819249882,0.13964844,-1.0286255,0.050964355,-1.53125,36.265625,7.640625
1695819249902,0.026123047,-0.70635986,-0.015930176,-3.0625,41.296875,6.28125
1695819249963,-0.043701172,-0.9771118,-0.016418457,-4.375,25.375,-5.78125
1695819249995,0.125,-1.1663208,0.13079834,-7.375,29.1875,-3.640625
1695819250023,0.1159668,-0.95977783,0.09613037,-13.96875,30.5,-4.34375
1695819250098,0.27539062,-0.97613525,0.0028686523,-13.75,8.484375,-9.296875
1695819250101,0.39819336,-1.0371704,0.059265137,14.40625,-2.09375,-0.21875
1695819250172,0.123535156,-0.71343994,0.11639404,8.25,2.96875,3.359375
1695819250188,-0.15527344,-0.86798096,-0.04864502,-0.84375,-3.015625,-1.765625
1695819250229,0.15209961,-1.2642212,0.15960693,15.40625,-1.234375,-4.21875
1695819250293,0.29248047,-1.0508423,0.28070068,5.5,0.15625,2.375
1695819250295,0.032714844,-0.7481079,0.07293701,-15.265625,2.40625,-1.203125
1695819250373,9.765625E-4,-0.91534424,0.10858154,-2.71875,4.3125,-6.4375
1695819250387,-0.14453125,-1.3274536,0.016784668,-0.90625,26.46875,-7.328125
1695819250426,0.005859375,-0.9561157,-0.08428955,-8.0,36.640625,6.890625
1695819250497,0.22949219,-0.75372314,-0.14776611,3.453125,26.6875,6.921875
1695819250505,0.41723633,-1.1140747,0.12005615,17.890625,9.09375,-4.59375
1695819250535,0.042236328,-1.034729,0.10882568,-2.4375,1.75,3.046875
1695819250607,-0.107421875,-0.6729126,-0.07745361,-13.140625,7.703125,0.734375
1695819250609,0.078125,-0.8726196,-0.14459229,-3.65625,1.1875,-7.3125
1695819250684,0.5629883,-1.1087036,0.16278076,17.078125,-24.859375,-4.84375
1695819250711,0.17285156,-0.7998657,0.08441162,0.078125,-26.703125,-1.875
1695819250743,-0.19628906,-1.05719,-0.082092285,-5.3125,-17.8125,-5.796875
1695819250802,0.20410156,-1.3001099,0.14007568,17.859375,-21.265625,-2.609375
1695819250818,0.29101562,-0.97784424,0.24554443,5.4375,-21.328125,1.90625
1695819250861,-0.080078125,-0.74664307,0.06756592,-16.953125,-19.578125,-1.796875
1695819250928,-0.09008789,-0.9522095,0.06341553,-8.03125,-12.234375,-7.59375
1695819250931,0.057128906,-1.3049927,0.1642456,-2.953125,1.71875,-11.859375
1695819251011,0.05493164,-0.9644165,0.089538574,-8.890625,15.921875,12.546875
1695819251022,0.020507812,-0.630188,-0.13189697,-4.46875,10.59375,10.046875
1695819251042,0.2487793,-1.0464478,-0.12310791,23.734375,-10.859375,-0.578125
1695819251118,0.29833984,-1.1958618,0.1749878,23.84375,-7.140625,1.53125
1695819251137,0.036621094,-0.9092407,0.10443115,-0.046875,-11.625,8.5
1695819251162,-0.046875,-0.79815674,-0.14508057,-12.078125,-18.90625,-0.28125
1695819251254,0.3125,-1.083313,-0.11138916,2.921875,-23.1875,-5.90625
1695819251258,0.43066406,-1.1484985,0.15570068,15.3125,-53.046875,7.71875
1695819251313,-0.02319336,-0.6983032,0.11566162,3.265625,-36.890625,8.3125
1695819251333,-0.26757812,-0.84381104,-0.11651611,-3.828125,-33.578125,-6.90625
1695819251365,0.07348633,-1.159729,0.07537842,22.859375,-23.140625,0.265625
1695819251437,0.3815918,-1.0718384,0.32781982,7.703125,-19.296875,5.34375
1695819251446,0.13232422,-0.74420166,0.01727295,-16.796875,-13.71875,-1.828125
1695819251477,0.12084961,-0.784729,-0.024230957,-4.203125,-23.421875,-3.890625
1695819251558,0.032958984,-1.1309204,0.061462402,9.234375,-16.90625,1.015625
1695819251560,-0.01171875,-0.94415283,-0.12530518,-7.609375,-1.703125,10.078125
1695819251629,0.14770508,-0.95684814,-0.17926025,6.890625,-13.953125,3.015625
1695819251645,0.20605469,-1.2402954,0.22332764,29.0625,-19.390625,0.484375
1695819251674,-0.005859375,-1.1450806,0.070007324,-8.265625,-14.25,2.390625
1695819251736,0.03564453,-0.84039307,-0.010803223,-5.46875,-6.890625,3.125
1695819251763,0.26879883,-0.83258057,-0.11431885,-0.15625,-27.703125,3.609375
1695819251798,0.4675293,-1.0603638,-0.035461426,7.453125,-39.796875,0.265625
1695819251867,0.30273438,-1.038147,0.1251831,12.21875,-48.734375,-2.28125
1695819251871,-0.05908203,-0.9475708,-0.008117676,-0.609375,-35.4375,-4.75
1695819251953,0.029052734,-0.991272,-0.017150879,5.921875,-32.796875,-4.46875
1695819251964,0.24121094,-1.0420532,0.12615967,13.28125,-31.109375,0.96875
1695819251987,0.17138672,-0.85821533,0.1708374,2.0,-29.96875,1.4375
1695819252068,0.064208984,-0.755188,-0.010803223,-8.046875,-29.125,-3.703125
1695819252081,0.3330078,-0.98809814,0.09320068,-1.71875,-36.515625,-7.421875
1695819252110,0.13061523,-1.4966431,0.018737793,-4.53125,-29.9375,-1.34375
1695819252189,0.060058594,-1.0772095,0.0524292,-3.953125,-4.359375,4.75
1695819252191,0.057373047,-0.56134033,-0.051574707,-5.1875,1.671875,6.296875
1695819252258,0.17773438,-0.6699829,-0.10723877,-2.375,-19.859375,4.9375
1695819252271,0.25927734,-1.2981567,0.06048584,14.8125,-23.0625,1.40625
