# Sensor type: Respeck
# Activity type: Ascending stairs
# Activity subtype: Normal
# Subject id: s2023352
# Notes: 
timestamp,accel_x,accel_y,accel_z,gyro_x,gyro_y,gyro_z
1695381542225,-0.12402344,-1.0022583,-0.09136963,3.59375,-3.3125,8.171875
1695381542304,-0.123535156,-0.9932251,-0.1453247,3.0625,-1.875,9.328125
1695381542308,-0.13061523,-1.0288696,-0.17901611,6.40625,-3.15625,11.328125
1695381542334,-0.052246094,-1.0811157,-0.2444458,20.265625,-3.109375,9.65625
1695381542381,0.15063477,-1.2136841,-0.43463135,28.625,-13.625,10.0625
1695381542411,0.24658203,-1.4370728,-0.506897,11.3125,-21.609375,10.640625
1695381542486,0.25048828,-1.1934204,-0.64508057,21.15625,-30.4375,12.890625
1695381542500,0.37158203,-1.0220337,-0.45147705,-2.546875,-10.9375,12.265625
1695381542531,0.103515625,-0.6860962,-0.13848877,-21.625,-10.15625,5.046875
1695381542576,0.009277344,-0.91778564,-0.24273682,-19.359375,-10.140625,-3.09375
1695381542605,0.059570312,-1.0598755,-0.08258057,-9.65625,-5.3125,3.125
1695381542652,0.09301758,-0.89971924,-0.16436768,-13.75,-7.671875,-0.640625
1695381542697,0.22753906,-0.8272095,-0.27545166,-0.515625,-11.0625,0.296875
1695381542727,0.1508789,-0.82696533,-0.12432861,-18.15625,-10.515625,5.4375
1695381542771,0.0146484375,-0.83258057,-0.07891846,-14.9375,-12.484375,4.078125
1695381542816,0.01953125,-0.76031494,-0.03692627,-10.8125,-6.484375,3.078125
1695381542846,0.14550781,-0.76104736,-0.0056762695,-5.65625,-4.1875,3.84375
1695381542892,0.25317383,-0.8057251,-0.041809082,-2.4375,-9.421875,2.0625
1695381542923,0.18481445,-0.91070557,-0.018615723,0.96875,-16.34375,1.34375
1695381542967,0.10620117,-1.0510864,0.06561279,0.3125,-13.765625,-4.0
1695381543013,0.030273438,-1.2046509,0.01776123,4.015625,-8.0,-7.09375
1695381543042,0.106933594,-1.227356,-0.14239502,7.546875,-3.296875,-1.421875
1695381543136,0.44482422,-1.279602,-0.2805786,21.90625,0.484375,14.375
1695381543145,0.32177734,-1.5088501,-0.35357666,7.578125,5.625,-3.96875
1695381543159,0.057617188,-0.9685669,-0.15484619,-14.046875,16.671875,-15.8125
1695381543208,0.08129883,-0.52960205,-0.4553833,0.453125,22.59375,-1.953125
1695381543237,0.2319336,-0.67974854,-0.44708252,38.71875,17.796875,-2.46875
1695381543284,0.13452148,-1.217102,-0.4024048,-6.6875,12.703125,-11.421875
1695381543310,0.08227539,-0.98687744,-0.21832275,-55.25,1.078125,-11.6875
1695381543358,0.037597656,-0.5588989,-0.032287598,-4.96875,3.96875,-7.859375
1695381543402,-0.10180664,-0.80792236,-0.14508057,11.0625,6.921875,-8.4375
1695381543430,0.026123047,-0.8323364,-0.10333252,5.28125,5.890625,0.96875
1695381543478,0.05444336,-0.78570557,-0.14556885,5.828125,4.859375,0.15625
1695381543554,-0.017333984,-0.86309814,-0.16021729,9.796875,2.9375,-1.734375
1695381543557,-0.08886719,-0.9331665,-0.21710205,7.53125,4.921875,-2.484375
1695381543598,-0.07055664,-0.9338989,-0.17877197,3.3125,8.28125,-1.96875
1695381543626,-0.11010742,-1.03302,-0.19439697,4.53125,10.75,-1.375
1695381543673,-0.16967773,-1.0767212,-0.22052002,2.03125,10.078125,-0.8125
1695381543716,-0.010498047,-0.991272,-0.2966919,18.65625,1.65625,1.0625
1695381543748,0.1015625,-1.2163696,-0.4175415,28.6875,6.5,12.03125
1695381543808,0.123535156,-1.5261841,-0.6231079,19.203125,-5.1875,7.828125
1695381543835,0.2692871,-1.1292114,-0.44903564,-8.65625,4.484375,12.03125
1695381543866,0.38378906,-0.64556885,-0.4199829,0.265625,-11.84375,11.90625
1695381543911,0.2878418,-0.7595825,-0.38458252,-10.59375,-17.265625,2.140625
1695381543940,0.11279297,-0.99591064,-0.29571533,-8.265625,-25.046875,-3.15625
1695381543987,0.037597656,-0.9224243,-0.14483643,-19.828125,-12.96875,-4.15625
1695381544018,0.013427734,-0.8740845,-0.10064697,-7.546875,-14.09375,0.828125
1695381544062,0.140625,-0.87164307,-0.23394775,4.078125,-16.6875,2.671875
1695381544156,0.20996094,-0.8311157,-0.19268799,-5.59375,-20.109375,3.4375
1695381544158,0.13427734,-0.89801025,-0.15557861,-14.25,-21.9375,1.21875
1695381544182,0.08154297,-0.90045166,-0.057678223,-18.515625,-21.015625,1.859375
1695381544228,0.09472656,-0.93829346,-0.101379395,4.875,-14.125,3.390625
1695381544256,0.1862793,-1.0847778,-0.08477783,9.9375,-9.390625,5.5
1695381544345,0.18798828,-1.1878052,-0.016906738,1.078125,-4.265625,-2.140625
1695381544348,-0.001953125,-0.98321533,-0.030334473,-5.25,6.71875,-5.265625
1695381544393,-0.05102539,-0.913147,-0.29888916,23.375,17.21875,-5.34375
1695381544420,0.52905273,-1.1101685,-0.6968384,89.8125,5.5625,23.53125
1695381544451,0.31933594,-0.9102173,-0.66412354,-25.890625,21.734375,-8.78125
1695381544497,-0.049560547,-0.7630005,-0.45025635,-77.0625,9.09375,-23.9375
1695381544526,0.17480469,-0.73931885,-0.16168213,17.046875,18.0625,-0.1875
1695381544602,0.18261719,-1.0903931,-0.25006104,-16.09375,-3.171875,-17.234375
1695381544646,-0.1237793,-0.73272705,-0.19805908,-16.953125,-1.671875,-9.59375
1695381544676,-0.099121094,-0.66363525,-0.15460205,9.34375,19.125,-5.765625
1695381544706,0.068847656,-0.8262329,-0.15020752,0.359375,20.5625,-2.578125
1695381544721,0.09350586,-0.89630127,-0.2925415,2.4375,10.65625,-1.4375
1695381544766,0.022705078,-0.8291626,-0.2210083,2.25,3.15625,-2.15625
1695381544812,-0.047851562,-0.9651489,-0.1975708,11.03125,5.390625,-2.015625
1695381544843,-0.087402344,-1.0579224,-0.27178955,17.125,1.8125,-3.015625
1695381544887,-0.080322266,-1.1438599,-0.2678833,3.6875,1.28125,-1.984375
1695381545012,-0.07299805,-1.0838013,-0.286438,6.140625,0.921875,3.09375
1695381545016,0.06591797,-1.1279907,-0.45758057,28.203125,-4.09375,7.859375
1695381545021,0.13427734,-1.2109985,-0.5527954,31.328125,-1.703125,10.453125
1695381545036,0.41235352,-0.8521118,-0.5767212,-11.671875,1.484375,12.453125
1695381545083,0.10083008,-0.6814575,-0.40826416,-8.484375,-14.984375,-0.390625
1695381545125,0.15942383,-0.8982544,-0.43341064,-3.15625,-16.8125,-4.34375
1695381545170,0.021240234,-1.0491333,-0.21759033,-24.25,-15.484375,1.578125
1695381545234,-0.119384766,-0.8994751,-0.15509033,-31.078125,-3.609375,-1.34375
1695381545239,0.087646484,-0.81817627,-0.28790283,-11.921875,-3.78125,3.328125
1695381545278,0.2175293,-0.8225708,-0.21490479,-8.109375,-3.65625,4.140625
1695381545351,0.17285156,-0.9351196,-0.18878174,-6.34375,-14.40625,3.515625
1695381545353,0.022216797,-0.94073486,-0.12506104,-28.96875,-13.1875,5.875
1695381545396,0.063964844,-0.90093994,-0.07550049,-0.4375,-14.4375,4.234375
1695381545473,0.17797852,-1.046936,-0.085998535,8.75,-11.109375,6.171875
1695381545476,0.11401367,-1.1511841,-0.06573486,9.921875,-7.6875,2.0625
1695381545517,-0.021728516,-1.0630493,-0.0803833,2.046875,8.65625,-3.484375
1695381545546,0.0107421875,-1.0049438,-0.24908447,25.296875,15.9375,-4.515625
1695381545623,0.4111328,-0.9824829,-0.5718384,55.578125,17.203125,11.265625
1695381545650,0.20410156,-0.79815674,-0.52838135,-6.671875,22.515625,3.28125
1695381545665,-0.020263672,-0.7954712,-0.5015259,-17.5,25.875,-1.5625
1695381545711,0.18188477,-0.92510986,-0.4385376,-8.84375,18.65625,-2.6875
1695381545805,0.20776367,-1.0408325,-0.24395752,-33.015625,9.6875,-10.8125
1695381545808,0.023925781,-0.82769775,-0.20635986,-22.5625,3.015625,-4.515625
1695381545945,-0.11254883,-0.71173096,-0.21392822,-7.84375,11.140625,-0.984375
1695381545949,-0.005126953,-0.82232666,-0.14434814,3.4375,17.53125,0.921875
1695381546012,0.09008789,-0.8960571,-0.23736572,-2.875,15.25,1.234375
1695381546014,0.018066406,-0.8513794,-0.2119751,-5.375,8.09375,-0.515625
1695381546043,-0.09399414,-0.9002075,-0.16680908,0.859375,12.09375,-2.34375
1695381546045,-0.11743164,-0.9990845,-0.1675415,-1.984375,13.953125,-3.296875
1695381546055,-0.17578125,-1.0437622,-0.17510986,-8.09375,10.78125,-2.21875
1695381546163,-0.14770508,-1.0652466,-0.19854736,-7.34375,10.59375,-1.46875
1695381546191,-0.01977539,-1.1624146,-0.28399658,-1.75,13.5,2.890625
1695381546194,0.053222656,-1.3198853,-0.40948486,17.1875,13.453125,4.671875
1695381546222,0.19702148,-1.0720825,-0.4085083,5.546875,14.09375,14.3125
1695381546252,0.31396484,-0.8098755,-0.3106079,-9.1875,14.796875,16.265625
1695381546315,0.21655273,-0.84747314,-0.43267822,1.96875,-16.0625,5.34375
1695381546341,0.068847656,-0.9907837,-0.30010986,-9.3125,-11.78125,1.3125
1695381546402,-0.15332031,-1.0020142,-0.13702393,-20.640625,-3.5625,-0.34375
1695381546416,-0.0847168,-0.944397,-0.04937744,-16.25,15.640625,2.203125
1695381546448,0.12475586,-0.96343994,-0.1531372,7.84375,10.90625,12.28125
1695381546541,0.24047852,-0.9224243,-0.21246338,-2.8125,-3.421875,13.0625
1695381546544,0.1015625,-0.85479736,-0.054016113,-17.609375,-10.4375,8.0
1695381546582,0.024414062,-0.86968994,-0.028381348,-12.15625,-8.859375,4.046875
1695381546660,0.10546875,-0.85284424,-0.06964111,2.765625,-2.421875,5.421875
1695381546663,0.22583008,-0.9680786,-0.09234619,6.578125,-9.078125,10.515625
1695381546701,0.041503906,-0.93829346,0.022888184,-10.359375,-8.671875,6.96875
1695381546732,0.018798828,-1.0281372,0.008728027,-4.0,0.296875,1.421875
1695381546760,-0.03173828,-1.1968384,0.08709717,-3.140625,16.1875,1.0625
1695381546807,0.026367188,-1.1970825,-0.037902832,4.484375,26.375,0.078125
1695381546868,0.22143555,-1.2695923,-0.33868408,33.265625,24.484375,8.171875
1695381546879,0.1340332,-1.0049438,-0.40118408,-8.484375,26.9375,3.9375
1695381546926,-0.01977539,-0.65875244,-0.41973877,-4.203125,28.515625,-2.78125
1695381546956,0.111083984,-0.76812744,-0.5322876,5.203125,32.390625,0.625
1695381547002,0.032958984,-0.94854736,-0.31524658,-14.171875,27.171875,-3.203125
1695381547047,0.03125,-1.0559692,-0.22076416,-24.09375,21.71875,-2.953125
1695381547076,-0.10253906,-0.8821411,-0.07745361,-25.625,24.3125,-5.828125
1695381547138,-0.14331055,-0.76885986,-0.07623291,-2.609375,40.84375,3.109375
1695381547198,0.047607422,-0.81134033,-0.1921997,3.640625,38.96875,4.203125
1695381547200,0.12866211,-0.80914307,-0.1519165,-6.359375,22.625,5.1875
1695381547260,-0.009033203,-0.8140259,-0.11895752,-11.484375,12.03125,2.921875
1695381547320,-0.12792969,-0.8381958,-0.07550049,-8.328125,12.984375,2.546875
1695381547322,-0.13745117,-0.88067627,-0.02130127,-7.078125,14.140625,2.59375
1695381547361,-0.13574219,-0.88287354,0.0033569336,-7.984375,12.71875,1.640625
1695381547392,-0.118896484,-0.95025635,-0.026672363,-1.625,13.828125,-0.625
1695381547438,-0.09838867,-1.1240845,-0.03668213,-4.3125,12.75,-3.4375
1695381547481,-0.14038086,-1.3135376,0.061950684,-19.8125,4.859375,-3.390625
1695381547526,-0.13232422,-1.3081665,0.015563965,-19.21875,3.09375,-3.21875
1695381547573,-0.016113281,-1.3286743,-0.24664307,17.984375,1.03125,-0.484375
1695381547585,0.27294922,-0.8045044,-0.43243408,4.5,9.3125,13.609375
1695381547665,-0.015136719,-0.7595825,-0.13946533,-18.46875,-8.4375,-7.984375
1695381547668,-0.018798828,-1.1848755,-0.25567627,9.625,0.734375,-12.625
1695381547741,-0.100097656,-1.1775513,-0.2312622,8.46875,23.046875,-0.015625
1695381547750,-0.048339844,-0.928772,-0.21148682,-16.203125,28.859375,6.15625
1695381547782,-0.012939453,-0.88409424,-0.081848145,-22.765625,39.21875,12.671875
1695381547827,0.11376953,-0.9800415,-0.06719971,-19.421875,32.78125,13.234375
1695381547857,0.07324219,-0.8870239,0.020446777,-23.1875,30.203125,15.28125
1695381547903,0.09643555,-0.83380127,0.0072631836,-8.0625,28.359375,13.953125
1695381547947,0.12548828,-1.0776978,0.020935059,-4.453125,22.09375,11.625
1695381547993,0.12719727,-1.0142212,0.07269287,5.3125,10.28125,17.703125
1695381548021,-0.03515625,-1.0588989,0.109558105,2.53125,16.1875,19.109375
1695381548051,-0.12646484,-1.0942993,0.09100342,-6.390625,27.921875,8.0
1695381548097,0.013427734,-1.1716919,0.045837402,5.1875,23.03125,-1.703125
1695381548159,0.17382812,-1.2681274,-0.09063721,32.734375,19.046875,3.359375
1695381548170,0.5708008,-1.2854614,-0.50567627,56.34375,14.734375,10.28125
1695381548248,0.010009766,-0.65289307,-0.51690674,-29.640625,27.4375,-6.828125
1695381548260,0.0048828125,-0.64556885,-0.38238525,12.15625,31.90625,3.859375
1695381548290,0.28344727,-0.9692993,-0.3418579,22.390625,24.515625,-1.140625
1695381548354,0.37426758,-1.253479,-0.20806885,-23.5,14.53125,-3.609375
1695381548366,-0.051757812,-0.7341919,-0.11187744,-17.546875,8.921875,-7.3125
1695381548413,-0.35424805,-0.65826416,-0.12237549,16.890625,27.578125,-9.46875
1695381548457,0.040771484,-0.8743286,-0.16290283,33.40625,30.75,3.71875
1695381548487,0.1821289,-0.97735596,-0.31036377,9.03125,19.0,0.828125
1695381548532,0.009277344,-0.83428955,-0.27398682,-1.984375,8.234375,-1.171875
1695381548562,-0.16088867,-0.99420166,-0.24810791,22.0625,9.515625,-5.609375
1695381548608,-0.11743164,-1.0645142,-0.29107666,-4.046875,16.96875,-4.296875
1695381548667,-0.17382812,-1.0501099,-0.1843872,-4.359375,22.65625,-2.75
1695381548697,7.324219E-4,-1.0339966,-0.2781372,-2.953125,16.453125,-2.03125
1695381548743,0.20092773,-1.2175903,-0.46929932,19.609375,4.28125,3.578125
1695381548786,0.16601562,-1.1074829,-0.61968994,21.09375,-7.09375,5.84375
1695381548799,0.47851562,-0.92437744,-0.49786377,-3.453125,-5.84375,14.296875
1695381548848,0.22436523,-0.8521118,-0.21514893,-17.09375,-19.203125,1.09375
1695381548876,-0.0073242188,-0.90704346,-0.28448486,-9.3125,-27.6875,-10.453125
1695381548969,-0.17285156,-0.94488525,-0.19781494,-4.921875,-18.890625,-9.78125
1695381548980,-0.08203125,-0.8948364,-0.13922119,-6.015625,-2.296875,-1.234375
1695381548996,0.045898438,-0.9146118,-0.16558838,-4.75,-0.390625,4.859375
1695381549090,0.16308594,-0.77301025,-0.21588135,11.265625,-0.640625,12.25
1695381549093,0.05908203,-0.8413696,-0.21832275,-11.109375,-8.546875,7.375
1695381549147,0.006591797,-0.9505005,-0.06036377,-15.953125,-1.953125,8.84375
1695381549194,0.06347656,-1.0308228,-0.04058838,-1.875,1.390625,10.9375
1695381549196,0.18041992,-0.9819946,-0.1560669,7.796875,-5.0625,11.1875
1695381549268,0.23364258,-1.1377563,-0.17974854,14.5625,-9.015625,6.84375
1695381549271,-0.031982422,-1.1777954,-0.035705566,-16.5,-1.0,-4.140625
1695381549404,-0.16748047,-0.95562744,-0.28936768,9.796875,5.671875,-15.03125
1695381549406,0.25146484,-0.90045166,-0.5679321,53.109375,16.484375,2.25
1695381549408,0.58569336,-0.8521118,-0.62091064,19.46875,14.90625,12.15625
1695381549448,0.15063477,-0.9229126,-0.46173096,-45.546875,14.59375,-10.0
1695381549524,-0.18481445,-0.8921509,-0.18267822,-23.8125,13.59375,-11.453125
1695381549528,0.1015625,-0.8496704,-0.17510986,-11.875,19.171875,-7.65625
1695381549552,0.011962891,-0.8867798,-0.20562744,-15.59375,7.703125,-3.421875
1695381549580,-0.099609375,-0.7334595,-0.16656494,-5.125,11.71875,0.5625
1695381549644,0.0034179688,-0.7913208,-0.15899658,5.609375,13.71875,0.671875
1695381549671,0.09692383,-0.9295044,-0.21392822,-3.46875,8.40625,3.546875
1695381549701,-0.0012207031,-0.9102173,-0.17608643,-10.53125,1.21875,3.46875
1695381549796,-0.122802734,-0.91241455,-0.16705322,-0.78125,2.640625,3.828125
1695381549799,-0.14428711,-1.0420532,-0.12823486,-0.9375,8.171875,2.671875
1695381549869,-0.14135742,-1.12677,-0.08746338,-7.578125,8.78125,0.171875
1695381549897,-0.19506836,-1.1619263,-0.13018799,-5.875,11.46875,-1.25
1695381549899,-0.1262207,-1.1797485,-0.3237915,9.453125,15.5625,2.421875
1695381549959,0.05053711,-1.1521606,-0.49884033,17.890625,8.515625,14.890625
1695381549969,0.31274414,-0.9534302,-0.40875244,3.6875,25.890625,18.546875
1695381550016,0.049316406,-0.90216064,-0.36383057,-9.90625,12.390625,4.0625
1695381550062,0.041259766,-0.88946533,-0.3086548,2.046875,17.640625,-3.0
1695381550089,-0.09375,-0.9343872,-0.29351807,-5.46875,17.484375,-3.59375
1695381550136,-0.21582031,-0.9907837,-0.10430908,-14.8125,35.921875,-1.984375
1695381550214,-0.11621094,-0.96343994,-0.18780518,-5.625,40.8125,6.484375
1695381550220,0.15966797,-0.8369751,-0.29400635,9.671875,32.375,12.765625
1695381550257,0.13452148,-0.8501587,-0.23809814,-3.578125,20.953125,8.375
1695381550287,-0.049560547,-0.8381958,-0.16949463,-21.296875,12.25,9.203125
1695381550349,-0.103759766,-0.7022095,-0.05230713,-38.9375,20.8125,7.640625
1695381550377,-0.083496094,-0.6860962,0.043884277,-2.9375,22.21875,6.59375
1695381550405,-0.052490234,-0.8789673,-0.008605957,12.15625,22.46875,7.1875
1695381550452,-0.13745117,-0.9390259,-0.014221191,-1.5,27.65625,6.734375
1695381550480,-0.18652344,-0.942688,0.0289917,4.796875,34.75,5.6875
1695381550561,-0.018798828,-1.0842896,-0.05987549,2.15625,47.96875,10.890625
1695381550570,0.08227539,-1.2136841,-0.08917236,-9.015625,30.015625,9.625
1695381550600,0.045166016,-1.279602,-0.43048096,13.796875,10.15625,0.609375
1695381550647,0.23510742,-1.1819458,-0.68218994,57.078125,15.546875,15.03125
1695381550674,-0.14355469,-0.4961548,-0.4697876,-66.578125,41.90625,-0.21875
1695381550721,-0.44335938,-0.7268677,-0.19488525,-34.078125,50.6875,8.828125
1695381550767,0.21166992,-1.2737427,-0.36016846,66.453125,57.03125,19.109375
1695381550798,0.25683594,-1.031311,-0.4529419,-40.09375,24.71875,1.65625
1695381550841,-0.09716797,-0.598938,-0.23834229,-56.09375,26.234375,-1.375
1695381550888,-0.2529297,-0.82476807,-0.04449463,-1.375,22.359375,5.1875
1695381550916,0.008544922,-1.0794067,-0.14923096,11.46875,21.5625,3.65625
1695381550962,-0.03857422,-0.9385376,-0.21002197,0.453125,22.109375,7.0
1695381550992,-0.16577148,-0.92681885,-0.22271729,6.375,19.421875,2.53125
1695381551037,-0.0871582,-1.0886841,-0.2522583,8.65625,17.703125,2.3125
1695381551083,-0.14379883,-1.1792603,-0.16046143,-11.09375,11.390625,3.921875
1695381551112,-0.2602539,-1.1729126,-0.10211182,-19.96875,7.0625,2.859375
1695381551188,-0.15356445,-1.1384888,-0.30255127,6.421875,7.8125,1.78125
1695381551199,-0.0034179688,-1.4226685,-0.36920166,25.609375,15.8125,1.3125
1695381551233,0.36108398,-0.9812622,-0.4446411,0.453125,24.828125,21.703125
1695381551278,0.31640625,-0.6404419,-0.3423462,-6.359375,3.109375,9.671875
1695381551307,0.08911133,-0.9212036,-0.28814697,-4.359375,-1.078125,-0.109375
1695381551353,-0.04345703,-1.079895,-0.14556885,-7.515625,7.375,-3.71875
1695381551396,-0.107666016,-0.8855591,-0.09088135,-10.609375,26.03125,4.234375
1695381551426,0.031982422,-0.8284302,-0.18414307,-9.484375,28.1875,6.234375
1695381551473,0.16333008,-0.85894775,-0.15899658,-2.515625,20.765625,8.609375
1695381551501,0.0075683594,-0.8711548,-0.0713501,-6.0625,6.265625,6.9375
1695381551548,0.0031738281,-0.85821533,-0.1194458,-8.171875,3.625,7.453125
1695381551591,0.12866211,-0.9312134,-0.11260986,-3.109375,2.1875,7.265625
1695381551621,0.15356445,-1.0889282,-0.026184082,-5.671875,-7.796875,10.96875
1695381551666,-0.016601562,-1.0896606,-0.08477783,-1.109375,-11.875,10.640625
1695381551698,-0.012939453,-1.0339966,-0.09967041,8.109375,7.25,5.875
1695381551760,0.08959961,-1.1499634,-0.082336426,12.6875,11.4375,4.34375
1695381551786,0.06762695,-1.2278442,-0.08746338,12.90625,5.046875,1.421875
1695381551816,0.34301758,-1.0454712,-0.45220947,45.078125,3.171875,12.4375
1695381551894,0.33154297,-0.82769775,-0.52789307,10.3125,1.09375,1.171875
1695381551896,0.049316406,-0.7642212,-0.35943604,-26.640625,7.40625,-3.5
1695381551968,-0.013183594,-0.83917236,-0.27618408,-13.859375,9.65625,-3.25
1695381551981,0.23925781,-0.9500122,-0.18878174,5.421875,4.375,-3.078125
1695381552010,0.12451172,-0.91900635,-0.24639893,-13.6875,-7.03125,-4.625
1695381552056,-0.1574707,-0.83795166,-0.1663208,-8.90625,-5.296875,-5.796875
1695381552102,-0.05053711,-0.8167114,-0.08502197,20.75,10.359375,-0.1875
1695381552131,0.0793457,-0.97979736,-0.20977783,8.109375,10.328125,-1.703125
1695381552178,0.012451172,-0.97320557,-0.19171143,-0.46875,6.296875,-1.640625
1695381552206,-0.048095703,-0.9229126,-0.14337158,4.609375,14.328125,-2.625
1695381552253,-0.064941406,-1.1323853,-0.15093994,7.1875,17.375,-5.6875
1695381552298,-0.09863281,-1.1089478,-0.21636963,-2.28125,12.0625,-1.546875
1695381552327,-0.096191406,-0.9378052,-0.28033447,-1.265625,14.890625,-0.34375
1695381552371,0.104003906,-1.0361938,-0.48565674,37.171875,5.703125,5.4375
1695381552402,0.37353516,-1.0984497,-0.5484009,26.578125,5.375,21.265625
1695381552448,0.5761719,-0.80474854,-0.5835571,-7.625,-13.375,10.125
1695381552493,0.16040039,-0.8027954,-0.3587036,-10.96875,-24.140625,-1.984375
1695381552521,-0.04638672,-0.8623657,-0.33233643,-3.703125,-14.859375,-7.453125
1695381552600,-0.015380859,-0.9356079,-0.19293213,-12.578125,-6.078125,-2.875
1695381552603,0.08325195,-0.8833618,-0.18829346,-3.21875,-3.078125,1.53125
1695381552674,0.19360352,-0.8452759,-0.26861572,-0.78125,-10.734375,3.59375
1695381552685,0.11816406,-0.8875122,-0.23468018,-7.25,-16.046875,0.609375
1695381552716,0.013183594,-0.9644165,-0.18365479,-7.796875,-17.0625,0.5
1695381552764,0.007080078,-1.0559692,-0.15899658,-1.546875,-10.375,1.515625
1695381552806,0.0546875,-1.0894165,-0.1795044,10.0,-11.390625,0.203125
1695381552838,0.13916016,-1.1204224,-0.16534424,9.0,-5.640625,-3.40625
1695381552899,-0.017333984,-1.045227,-0.09844971,-6.21875,-0.46875,-5.34375
1695381552910,-0.07299805,-0.84576416,-0.2715454,8.984375,8.5,-9.234375
1695381552958,0.42163086,-0.86309814,-0.7752075,40.15625,5.609375,10.015625
1695381553003,0.2705078,-0.835022,-0.52130127,-28.96875,3.765625,-2.171875
1695381553031,-0.19482422,-0.8526001,-0.27178955,-37.671875,-2.453125,-17.828125
1695381553096,0.15966797,-0.9194946,-0.32061768,6.28125,11.390625,-6.203125
1695381553106,0.14404297,-0.927063,-0.25567627,-20.515625,7.109375,-6.65625
1695381553153,-0.059814453,-0.8369751,-0.22247314,-15.5625,0.734375,-6.9375
1695381553196,-0.046142578,-0.7871704,-0.16607666,-5.046875,6.390625,-3.40625
1695381553229,-7.324219E-4,-0.83843994,-0.159729,0.046875,9.6875,-1.34375
1695381553306,0.0053710938,-0.9158325,-0.21832275,4.765625,0.453125,-0.328125
1695381553308,-0.04321289,-0.90509033,-0.22979736,4.171875,-3.0625,-0.15625
1695381553378,-0.12890625,-1.0379028,-0.19146729,6.1875,-1.5625,-1.9375
1695381553391,-0.13452148,-1.0886841,-0.2185669,6.296875,0.0,-2.671875
1695381553422,-0.13623047,-1.1187134,-0.22052002,-1.828125,-1.03125,-5.890625
1695381553466,0.07055664,-1.1238403,-0.36968994,6.21875,-5.375,-6.09375
1695381553544,0.19970703,-1.0518188,-0.4746704,21.453125,-5.671875,3.09375
1695381553547,0.42382812,-0.88287354,-0.49395752,7.1875,-7.34375,9.1875
1695381553586,0.25878906,-0.9492798,-0.2786255,-8.125,-19.203125,2.484375
1695381553616,0.021484375,-0.99591064,-0.26861572,-5.8125,-16.75,1.125
1695381553661,-0.08178711,-0.9216919,-0.28399658,-4.3125,-16.015625,-3.34375
1695381553708,-0.047851562,-0.9187622,-0.18780518,-2.0,1.75,3.734375
1695381553735,0.13305664,-0.9182739,-0.23345947,-2.9375,2.53125,6.34375
1695381553782,0.16821289,-0.86505127,-0.28009033,-2.265625,-6.40625,7.6875
1695381553812,0.039794922,-0.8364868,-0.20269775,-10.984375,-9.578125,6.078125
1695381553857,0.013183594,-0.9077759,-0.17730713,-11.484375,-6.25,7.140625
1695381553904,0.0925293,-0.9492798,-0.14385986,-9.65625,2.9375,10.0625
1695381553931,0.08862305,-1.0137329,-0.16436768,-16.453125,4.5,10.578125
1695381553977,-0.018798828,-1.0557251,-0.057678223,4.21875,-4.53125,5.5625
1695381554006,0.059570312,-1.3140259,-0.04888916,3.6875,2.078125,0.125
1695381554083,0.08105469,-0.9319458,0.008972168,-14.109375,9.28125,-4.46875
1695381554094,0.10864258,-0.991272,-0.23223877,22.796875,12.515625,0.125
1695381554126,0.41503906,-0.90289307,-0.5137329,40.953125,4.546875,7.859375
1695381554171,0.2932129,-0.7024536,-0.5281372,13.921875,-4.5625,-9.0625
1695381554217,0.068359375,-0.8428345,-0.40460205,-12.59375,5.75,-8.09375
1695381554248,-0.010986328,-0.9102173,-0.34918213,-18.9375,6.75,-8.6875
1695381554294,0.017333984,-0.91363525,-0.09136963,-26.75,7.609375,-11.21875
1695381554322,0.08618164,-0.79815674,-0.24713135,-12.109375,2.0,-3.984375
1695381554368,-0.0703125,-0.81573486,-0.18634033,-5.6875,5.71875,-5.03125
1695381554413,0.008056641,-0.88775635,-0.15240479,6.546875,8.40625,-0.5625
1695381554440,0.072509766,-0.9194946,-0.20465088,1.671875,1.453125,-1.59375
1695381554486,-0.0063476562,-0.9246216,-0.1897583,4.78125,-3.453125,-2.34375
1695381554517,-0.103027344,-1.067688,-0.2107544,14.421875,-3.390625,-7.5
1695381554561,-0.11010742,-1.1951294,-0.27593994,7.484375,4.484375,-4.359375
1695381554607,-0.0949707,-1.109436,-0.28375244,0.71875,10.125,1.28125
1695381554638,-0.05493164,-0.92144775,-0.36236572,3.640625,8.015625,1.828125
1695381554682,0.087890625,-1.0420532,-0.51031494,24.75,-11.234375,0.796875
1695381554727,0.29223633,-1.1035767,-0.5286255,12.046875,5.734375,6.984375
1695381554756,0.2265625,-0.9019165,-0.34210205,-43.65625,-2.140625,1.0625
1695381554834,0.09741211,-0.82403564,-0.20831299,-23.875,-9.09375,-1.078125
1695381554837,0.0793457,-0.987854,-0.25152588,-12.5625,-18.375,-2.515625
1695381554908,-0.07055664,-1.0647583,-0.097717285,-20.046875,0.03125,-1.15625
1695381554920,0.01953125,-0.87677,-0.1338501,-23.390625,4.0625,4.484375
1695381554950,0.20361328,-0.8689575,-0.17340088,-22.96875,-4.46875,9.625
1695381555013,0.1328125,-0.8467407,-0.035217285,-8.421875,-18.109375,6.453125
1695381555073,0.013427734,-0.9651489,-0.050354004,-7.90625,-21.21875,5.609375
1695381555076,-0.03515625,-0.9751587,-0.04498291,-11.5625,-13.21875,6.0
1695381555119,0.06982422,-1.0874634,0.0065307617,-0.703125,-4.109375,7.421875
1695381555146,0.16333008,-1.2095337,0.036315918,5.1875,-6.4375,3.75
1695381555192,-0.03466797,-1.05719,0.10003662,-8.578125,-4.625,-5.890625
1695381555222,-0.08300781,-1.0169067,-0.109680176,3.25,4.421875,-5.953125
1695381555267,0.23046875,-1.0391235,-0.30255127,34.171875,13.96875,5.828125
1695381555313,0.20629883,-0.82769775,-0.3916626,7.46875,11.8125,-4.90625
1695381555358,0.028320312,-0.8858032,-0.27667236,-6.46875,18.09375,-6.375
1695381555402,-0.11743164,-0.9668579,-0.25177002,-2.59375,20.671875,-4.578125
1695381555430,0.024902344,-0.93096924,-0.11578369,-5.203125,19.78125,-7.28125
1695381555462,0.05493164,-0.91607666,-0.18023682,-7.015625,20.140625,-2.6875
1695381555541,-0.07543945,-0.7908325,-0.094055176,-7.109375,20.140625,-4.046875
1695381555544,-0.04638672,-0.7542114,-0.09429932,7.09375,25.625,-1.328125
1695381555614,0.025878906,-0.84942627,-0.1404419,8.609375,24.5625,-0.21875
1695381555625,-0.0087890625,-0.9326782,-0.14581299,0.46875,14.859375,-1.703125
1695381555656,-0.103271484,-0.927063,-0.09967041,-1.828125,11.015625,-3.953125
1695381555702,-0.16552734,-0.96832275,-0.121154785,8.375,9.21875,-2.328125
1695381555731,-0.22802734,-1.0930786,-0.12628174,12.984375,9.1875,-2.890625
1695381555778,-0.26123047,-1.0940552,-0.13677979,2.0625,15.03125,0.4375
1695381555823,-0.20092773,-0.98687744,-0.26446533,2.34375,20.84375,6.59375
1695381555852,-0.0637207,-1.1213989,-0.3587036,39.203125,16.96875,7.734375
1695381555898,0.35424805,-1.1055298,-0.6428833,23.859375,24.046875,29.34375
1695381555927,0.14282227,-0.85723877,-0.2991333,-36.296875,7.34375,8.6875
1695381555974,0.047607422,-0.90948486,-0.31671143,0.03125,4.40625,-0.21875
1695381556016,-0.111083984,-1.0601196,-0.2949829,-12.125,14.609375,-1.78125
1695381556047,-0.20800781,-1.1087036,-0.14215088,-13.625,30.390625,1.96875
1695381556094,-0.061035156,-1.045227,-0.21124268,-4.46875,39.734375,8.96875
1695381556137,0.08569336,-0.9192505,-0.25445557,-8.484375,25.125,9.296875
1695381556167,7.324219E-4,-0.8526001,-0.10992432,-11.328125,20.15625,6.828125
1695381556245,-0.10668945,-0.8128052,-0.1296997,-14.28125,18.15625,7.9375
1695381556248,-0.06616211,-0.692688,-0.07183838,-18.25,21.765625,8.78125
1695381556320,-2.4414062E-4,-0.70977783,0.022399902,-4.703125,18.78125,10.21875
1695381556329,0.0063476562,-0.8189087,-0.010803223,6.609375,17.375,13.125
1695381556362,-0.055419922,-0.87823486,-0.027160645,7.84375,15.546875,13.953125
1695381556405,-0.14160156,-0.9512329,0.04046631,-0.21875,20.1875,11.609375
1695381556437,-0.06689453,-1.0015259,0.001159668,2.53125,23.671875,3.96875
1695381556482,0.076416016,-1.1262817,-0.058410645,6.21875,24.046875,2.9375
1695381556527,-0.013916016,-1.2315063,0.051940918,-23.453125,24.09375,-0.09375
1695381556556,-0.1743164,-0.9517212,0.02166748,-23.46875,30.59375,-5.015625
1695381556620,-0.21020508,-1.1055298,-0.46466064,30.109375,27.328125,-12.609375
1695381556630,0.2548828,-1.1394653,-0.6773071,36.765625,48.421875,28.234375
1695381556677,-0.09033203,-0.8023071,-0.56085205,-77.796875,42.828125,4.59375
1695381556723,-0.25585938,-0.9873657,-0.019592285,-16.296875,36.75,-6.5
1695381556752,9.765625E-4,-1.1026001,-0.17901611,11.328125,46.90625,3.515625
1695381556797,0.09277344,-0.8352661,-0.3184204,-14.375,23.75,3.46875
1695381556841,-0.16259766,-0.75494385,-0.16241455,-15.0,26.53125,3.0
1695381556872,-0.018554688,-0.94488525,-0.081848145,8.984375,23.125,3.59375
1695381556950,-0.04248047,-0.958313,-0.02545166,-1.265625,15.59375,6.1875
1695381556957,-0.17407227,-0.89801025,-0.14630127,3.765625,12.546875,3.953125
1695381557023,-0.12524414,-0.987854,-0.18878174,10.53125,12.046875,1.5625
1695381557035,-0.095214844,-1.1260376,-0.13922119,6.6875,8.203125,2.328125
1695381557066,-0.21459961,-1.1755981,-0.022521973,-2.625,10.5,3.046875
1695381557113,-0.34106445,-1.1831665,-0.07745361,-9.34375,8.59375,0.703125
1695381557141,-0.1237793,-1.2166138,-0.29180908,31.703125,10.15625,3.359375
1695381557187,0.09277344,-1.5061646,-0.4085083,37.59375,17.71875,11.515625
1695381557232,0.1953125,-0.8430786,-0.3250122,1.25,20.515625,19.734375
1695381557261,0.359375,-0.7131958,-0.48272705,8.109375,-5.453125,6.109375
1695381557309,0.14282227,-1.03302,-0.2756958,-4.96875,-7.703125,4.625
1695381557337,-0.020019531,-1.1182251,-0.21881104,-9.3125,-3.25,-0.28125
1695381557382,-0.05810547,-0.78741455,-0.1116333,-21.875,7.40625,0.09375
1695381557428,0.0031738281,-0.7954712,-0.18682861,-5.8125,8.671875,6.609375
1695381557458,0.13867188,-0.88531494,-0.190979,-2.375,3.265625,8.109375
1695381557502,0.09448242,-0.878479,-0.054260254,-11.953125,-2.03125,4.421875
1695381557547,0.053955078,-0.9133911,-0.108947754,-8.265625,-0.09375,9.125
1695381557577,0.056152344,-0.91534424,-0.10430908,-9.34375,3.625,8.234375
1695381557623,0.17138672,-0.97857666,-0.120910645,5.53125,17.59375,13.859375
1695381557652,0.11767578,-1.2339478,-0.12213135,10.953125,15.109375,15.0625
1695381557728,-0.04736328,-1.1734009,0.090270996,-22.21875,14.875,11.921875
1695381557740,-0.049072266,-1.0652466,4.272461E-4,-12.25,10.65625,-3.359375
1695381557771,0.026123047,-0.9331665,-0.31256104,30.03125,25.09375,-3.96875
1695381557849,0.5913086,-0.93634033,-0.60894775,44.734375,12.53125,14.4375
1695381557855,0.2631836,-0.80255127,-0.41046143,-35.5,-4.96875,-6.5625
1695381557892,-0.22583008,-1.0388794,-0.26861572,-16.0,1.515625,-18.75
1695381557936,0.072021484,-0.8753052,-0.19903564,-5.21875,15.84375,-6.09375
1695381557966,0.15429688,-0.83917236,-0.057922363,-9.28125,5.734375,-7.859375
1695381558012,0.028076172,-0.88482666,-0.19464111,-6.9375,-3.421875,-5.34375
1695381558057,-0.08276367,-0.7202759,-0.06890869,-3.0,-4.890625,-7.40625
1695381558086,0.012939453,-0.8694458,-0.10797119,10.96875,3.6875,-7.1875
1695381558132,0.09423828,-1.097229,-0.12750244,3.953125,-8.40625,-8.171875
1695381558159,-0.05029297,-0.972229,-0.086242676,-4.640625,-11.515625,-6.25
1695381558224,-0.2800293,-0.9595337,-0.059387207,3.109375,-2.875,-10.6875
1695381558251,-0.1616211,-1.0984497,-0.13702393,3.171875,2.3125,-8.796875
1695381558281,-0.12182617,-1.1392212,-0.06060791,-7.640625,12.484375,-1.875
1695381558327,-0.1237793,-0.95147705,-0.18389893,-6.703125,12.609375,3.03125
1695381558356,0.14135742,-1.1367798,-0.4212036,34.90625,2.5625,8.21875
1695381558401,0.31982422,-1.1331177,-0.3772583,-3.390625,4.328125,13.515625
1695381558478,0.15283203,-0.94610596,-0.2078247,-11.75,-5.390625,4.625
1695381558481,0.08544922,-0.9143677,-0.2300415,-1.71875,-3.09375,3.96875
1695381558553,-0.05883789,-0.93536377,-0.1404419,-17.203125,-1.703125,2.625
1695381558557,-0.15405273,-0.93585205,-0.06793213,-14.234375,11.171875,2.546875
1695381558629,-0.043945312,-0.97369385,-0.046691895,-6.6875,18.21875,3.34375
1695381558640,0.11767578,-0.89263916,-0.10845947,-14.15625,15.65625,9.390625
1695381558671,0.10180664,-0.8599243,-0.08355713,-6.34375,6.015625,2.65625
1695381558718,0.068847656,-1.0142212,-0.04425049,-10.828125,3.75,5.078125
1695381558762,-0.00390625,-0.9380493,0.030212402,-17.203125,12.4375,8.328125
1695381558793,0.037353516,-0.9031372,0.03265381,-3.859375,9.28125,6.71875
1695381558838,0.072753906,-0.92559814,0.04437256,1.90625,6.640625,9.71875
1695381558866,0.037353516,-1.0252075,0.027526855,2.875,3.546875,11.921875
1695381558912,-0.0017089844,-1.194397,0.18182373,-3.34375,10.796875,7.390625
1695381558957,-0.10571289,-1.1463013,0.16107178,-5.1875,22.984375,-0.046875
1695381558986,0.028564453,-1.1646118,-0.15435791,22.84375,14.125,1.140625
1695381559033,0.35668945,-1.0110474,-0.39508057,14.90625,16.265625,2.671875
1695381559060,0.055908203,-0.708313,-0.44805908,-3.015625,11.078125,-6.953125
1695381559107,0.17602539,-0.93170166,-0.40899658,-4.28125,28.0,-3.3125
1695381559185,-0.0769043,-0.9277954,-0.002746582,-27.25,3.296875,-20.171875
1695381559188,-0.052001953,-0.95928955,-0.12408447,-3.03125,13.5,-11.203125
1695381559261,-0.16552734,-0.8911743,-0.10406494,-4.96875,17.65625,-13.84375
1695381559265,-0.14428711,-0.83184814,-0.020080566,3.40625,33.578125,-9.765625
1695381559302,0.052001953,-0.8303833,-0.12750244,3.96875,31.453125,-5.09375
1695381559348,-0.0041503906,-0.8389282,-0.09088135,0.328125,22.375,-2.40625
1695381559377,-0.12133789,-0.8513794,-0.085754395,0.3125,20.453125,-0.578125
1695381559422,-0.1796875,-0.90948486,-0.007873535,-0.625,22.578125,1.640625
1695381559466,-0.22094727,-0.8945923,0.035339355,-0.96875,22.03125,1.28125
1695381559498,-0.24414062,-0.9038696,0.023864746,0.453125,22.5,2.03125
1695381559542,-0.25976562,-0.93536377,0.011169434,0.859375,22.328125,2.453125
1695381559587,-0.2512207,-1.0149536,-0.018127441,-1.171875,19.0,0.125
1695381559616,-0.21728516,-1.156311,0.04486084,-4.25,22.640625,-0.34375
1695381559662,-0.1743164,-1.2537231,-0.0025024414,-16.390625,19.140625,4.25
1695381559690,-0.024902344,-1.3328247,-0.31280518,14.828125,3.734375,-3.53125
1695381559737,0.36523438,-0.9805298,-0.33013916,-10.515625,18.625,22.515625
1695381559768,0.11621094,-0.9221802,-0.14263916,-23.375,2.453125,9.125
1695381559812,-0.37353516,-1.0640259,-0.06719971,-3.75,5.421875,-13.140625
1695381559856,-0.22167969,-1.0508423,-0.19830322,16.609375,39.953125,-3.71875
1695381559887,-0.09448242,-0.94659424,-0.2288208,9.078125,50.578125,14.140625
1695381559965,-0.036865234,-0.8999634,-0.043029785,-11.734375,48.09375,16.109375
1695381559969,0.051757812,-0.95318604,-0.04815674,6.515625,45.46875,16.1875
1695381560041,0.020507812,-0.9763794,-0.13946533,2.328125,42.09375,21.78125
1695381560050,0.1237793,-0.9026489,-0.065979004,-9.6875,35.84375,19.703125
1695381560081,0.10668945,-1.062561,-0.036193848,1.875,23.421875,19.5625
1695381560128,0.11694336,-1.0547485,-0.04547119,1.171875,14.15625,20.171875
1695381560171,-0.011962891,-1.09552,0.014587402,4.828125,9.0625,16.53125
1695381560201,-0.08569336,-1.0635376,0.10003662,-6.046875,21.4375,10.859375
1695381560248,-0.022705078,-1.0447388,0.03656006,-8.25,18.78125,3.828125
1695381560275,0.021484375,-1.0601196,0.035095215,-1.34375,18.109375,-3.59375
1695381560339,0.22216797,-1.312561,-0.26031494,50.25,10.625,4.09375
1695381560367,0.20996094,-0.88165283,-0.53570557,-1.171875,16.71875,-3.34375
1695381560397,0.14331055,-0.71759033,-0.43536377,-13.375,21.09375,-4.9375
1695381560441,0.033203125,-1.0654907,-0.4121704,3.28125,28.34375,-1.015625
1695381560471,0.029785156,-1.0545044,-0.21514893,-30.625,11.78125,-10.5
1695381560518,4.8828125E-4,-0.84942627,-0.15435791,-8.59375,16.9375,-5.125
1695381560562,-0.080566406,-0.84381104,-0.13604736,-11.421875,19.359375,-2.90625
1695381560592,-0.03100586,-0.83135986,-0.029846191,3.265625,25.6875,-2.40625
1695381560685,0.10473633,-0.8452759,-0.13848877,6.390625,19.078125,-4.1875
1695381560687,0.0769043,-0.91241455,-0.20489502,5.9375,7.0,-2.984375
1695381560711,-0.075927734,-0.98565674,-0.14239502,4.515625,3.28125,-4.296875
1695381560790,-0.13134766,-1.0689087,-0.11968994,5.265625,6.421875,-6.0625
1695381560796,-0.13134766,-1.1304321,-0.13824463,1.765625,2.765625,-2.8125
1695381560830,-0.18334961,-1.0916138,-0.11065674,-5.140625,4.515625,-2.328125
1695381560877,-0.16308594,-1.0205688,-0.1482544,-4.5,2.984375,-1.609375
1695381560907,0.06518555,-1.0388794,-0.37017822,24.375,7.609375,1.25
1695381560951,0.14550781,-1.3670044,-0.28448486,29.515625,10.90625,7.90625
1695381560980,0.3857422,-0.9607544,-0.29888916,-19.75,8.359375,11.40625
1695381561028,0.16210938,-0.7683716,-0.1663208,-14.59375,-5.96875,0.8125
1695381561073,-0.02319336,-0.9380493,-0.29986572,-4.15625,-6.4375,-4.015625
1695381561100,-0.08911133,-0.9673462,-0.12921143,-2.734375,2.125,0.578125
1695381561146,0.010009766,-0.97442627,-0.06085205,-2.109375,2.296875,3.734375
1695381561177,0.15722656,-0.89971924,-0.19659424,-2.53125,-7.1875,5.734375
1695381561223,0.063964844,-0.8965454,-0.13067627,-6.359375,-10.671875,3.40625
1695381561266,-0.043701172,-0.92071533,-0.059143066,-10.984375,-14.1875,3.859375
1695381561297,-0.02758789,-0.9553833,-0.01763916,-8.359375,-7.984375,4.734375
1695381561373,0.03125,-0.9299927,0.008972168,-4.1875,-4.8125,7.28125
1695381561385,0.06347656,-0.9011841,-0.10015869,10.390625,-9.640625,2.9375
1695381561415,0.1159668,-1.0899048,-0.047668457,10.1875,-7.5625,1.015625
1695381561495,-0.12866211,-1.1189575,0.13519287,-1.484375,5.28125,-1.796875
1695381561499,-0.028320312,-1.0256958,-0.105529785,20.796875,4.359375,-3.8125
1695381561537,0.099365234,-1.2202759,-0.15435791,34.40625,6.109375,-2.21875
1695381561582,0.33129883,-1.0696411,-0.5130005,38.171875,8.71875,5.3125
1695381561612,0.2434082,-0.67852783,-0.51275635,10.140625,1.609375,1.71875
1695381561658,0.01586914,-0.78375244,-0.3953247,-11.28125,8.6875,-0.21875
1695381561686,-0.083740234,-0.93170166,-0.300354,0.875,9.125,-2.0625
1695381561731,0.092041016,-0.89849854,-0.28546143,-12.640625,7.203125,-4.5
1695381561778,-0.083740234,-0.86065674,-0.21588135,-19.03125,2.015625,-8.3125
1695381561807,-0.092285156,-0.83843994,-0.19683838,-0.984375,11.609375,-2.5
1695381561852,-0.0048828125,-0.9038696,-0.15679932,5.0,13.46875,-0.171875
1695381561882,0.022460938,-0.9558716,-0.21490479,3.09375,11.296875,0.625
1695381561929,-0.025878906,-0.9011841,-0.222229,-10.078125,5.125,-0.203125
1695381561971,-0.10498047,-0.9221802,-0.19268799,-2.328125,2.59375,-3.171875
1695381562002,-0.16333008,-1.1218872,-0.2612915,3.78125,3.46875,-4.640625
1695381562079,-0.17456055,-1.1751099,-0.24078369,-3.421875,3.59375,-5.9375
1695381562090,-0.18603516,-1.0220337,-0.22613525,-13.9375,4.125,-3.8125
1695381562120,-0.11376953,-0.90753174,-0.38946533,9.890625,7.65625,-2.828125
1695381562198,-0.017822266,-1.24469,-0.39483643,40.234375,6.15625,-2.28125
1695381562203,0.37231445,-1.1011353,-0.53619385,11.359375,7.25,17.765625
1695381562242,0.1953125,-0.77471924,-0.2859497,-29.25,-5.015625,8.453125
1695381562287,0.12109375,-0.8623657,-0.2300415,-6.3125,-8.625,0.53125
1695381562317,-0.051513672,-1.0437622,-0.22686768,-15.8125,-10.265625,1.0
1695381562364,-0.20092773,-0.9336548,-0.0010375977,-20.84375,2.796875,0.421875
1695381562390,-0.008056641,-0.847229,-0.09136963,-7.953125,9.40625,6.203125
1695381562437,0.18701172,-0.8477173,-0.23809814,-2.125,-1.515625,7.0625
1695381562483,0.01928711,-0.8748169,-0.06451416,-8.453125,-17.46875,2.640625
1695381562510,-0.042236328,-0.9246216,-0.08355713,-3.28125,-13.3125,2.703125
1695381562557,0.017089844,-0.95635986,-0.11456299,-1.75,-4.890625,5.0
1695381562586,0.087646484,-0.96221924,-0.022521973,-5.4375,-8.203125,5.875
1695381562633,0.030029297,-1.1235962,-0.093811035,3.421875,-13.171875,5.6875
1695381562676,0.064697266,-1.2839966,-0.13043213,14.046875,-8.0,-1.515625
1695381562708,-0.01171875,-1.1846313,0.07952881,-14.046875,2.015625,-4.609375
1695381562752,-0.12036133,-1.0095825,-0.19195557,1.671875,1.15625,-11.328125
1695381562831,0.18115234,-1.0337524,-0.47808838,61.09375,6.375,4.703125
1695381562834,0.3408203,-0.8008423,-0.5796509,7.359375,4.0625,7.90625
1695381562902,-0.076660156,-0.7390747,-0.22491455,-44.375,8.28125,-11.421875
1695381562905,0.029785156,-0.94415283,-0.20684814,15.78125,14.59375,-0.078125
1695381562981,0.1418457,-1.036438,-0.24957275,-12.546875,1.578125,-4.90625
1695381562990,-0.020507812,-0.88531494,-0.24932861,-12.78125,-1.90625,-4.875
1695381563021,-0.111328125,-0.72540283,-0.11773682,-10.4375,0.9375,-4.453125
1695381563066,-0.018554688,-0.7866821,-0.08135986,3.5,5.265625,-1.296875
1695381563096,0.050048828,-0.9492798,-0.222229,11.125,-1.015625,-1.03125
1695381563141,-0.07006836,-0.96051025,-0.19537354,-3.40625,-8.6875,-2.625
1695381563188,-0.16113281,-0.97198486,-0.07745361,4.4375,-0.140625,-3.828125
1695381563215,-0.13598633,-1.0982056,-0.17364502,18.234375,2.328125,-3.015625
1695381563262,-0.088378906,-1.18927,-0.23077393,8.078125,3.484375,-0.234375
1695381563291,-0.12207031,-0.94000244,-0.31939697,1.046875,3.21875,2.921875
1695381563338,-0.017578125,-1.0125122,-0.3862915,31.859375,-1.859375,-2.921875
1695381563381,0.3630371,-1.263977,-0.52008057,29.71875,8.34375,15.59375
1695381563412,0.41308594,-0.8257446,-0.4656372,-13.46875,-15.5625,7.8125
1695381563457,0.1328125,-0.83380127,-0.32452393,-2.546875,-28.28125,-0.375
1695381563502,-0.029052734,-0.9390259,-0.31280518,-8.71875,-23.5625,-2.8125
1695381563531,-0.13574219,-0.9109497,-0.17193604,-12.96875,-9.421875,-2.796875
1695381563610,-0.0078125,-0.862854,-0.17730713,-4.15625,3.03125,4.984375
1695381563613,0.15112305,-0.8616333,-0.27423096,5.03125,-2.21875,10.203125
1695381563684,0.15356445,-0.93096924,-0.28131104,-3.234375,-12.625,5.640625
1695381563696,-0.017822266,-0.93927,-0.1987915,-12.71875,-15.90625,7.390625
1695381563726,0.020263672,-0.98443604,-0.17462158,-13.078125,-3.296875,5.234375
1695381563773,0.13134766,-1.00177,-0.13873291,-1.796875,-5.125,5.328125
1695381563800,0.20605469,-1.0757446,-0.19732666,3.25,-6.359375,1.953125
1695381563847,0.13867188,-1.1118774,-0.032287598,-14.265625,-5.890625,-3.390625
1695381563894,-0.048095703,-0.9470825,-0.20050049,-13.046875,-5.9375,-8.34375
1695381563920,0.1340332,-1.0549927,-0.39068604,18.90625,0.78125,-4.953125
1695381563968,0.18164062,-0.90338135,-0.4570923,-6.0,9.5,-2.15625
1695381564013,-0.016113281,-0.7937622,-0.3501587,-20.078125,10.984375,-5.09375
1695381564041,0.053710938,-0.90093994,-0.34332275,1.40625,12.703125,-1.625
1695381564087,0.20874023,-1.0588989,-0.1807251,-10.5625,5.046875,-6.734375
1695381564115,0.10229492,-0.9780884,-0.2107544,-16.375,-2.96875,-6.015625
1695381564179,-0.10058594,-0.76641846,-0.14508057,-20.859375,-0.75,-5.546875
1695381564205,-0.10644531,-0.7293091,-0.022766113,1.640625,7.390625,-2.484375
1695381564236,0.024169922,-0.8989868,-0.12921143,7.34375,5.0,-2.390625
1695381564315,0.025878906,-0.9380493,-0.15802002,-1.484375,0.125,-1.859375
1695381564317,-0.061523438,-0.9458618,-0.06817627,1.359375,2.4375,-1.828125
1695381564388,-0.061279297,-1.1531372,-0.13897705,3.171875,3.3125,-0.859375
1695381564402,-0.03881836,-1.2925415,-0.17559814,13.8125,-6.5625,0.734375
1695381564432,-0.13891602,-1.0679321,-0.19049072,-5.0,0.734375,11.359375
1695381564476,-0.10253906,-0.9146118,-0.43927002,30.890625,-4.3125,14.359375
1695381564508,0.20654297,-1.0149536,-0.34503174,38.0,10.765625,19.015625
1695381564553,0.3659668,-1.0254517,-0.29986572,-14.203125,3.90625,11.390625
1695381564614,0.08325195,-0.8045044,-0.22784424,-1.515625,-11.21875,1.359375
1695381564626,0.064453125,-0.944397,-0.3604126,-5.359375,-5.125,-1.484375
1695381564672,-0.09472656,-1.0105591,-0.14898682,-14.140625,7.890625,-4.40625
1695381564717,-0.08886719,-0.90338135,-0.11407471,-15.859375,25.59375,0.984375
1695381564746,0.16625977,-0.8870239,-0.27911377,1.75,22.984375,9.859375
1695381564792,0.21777344,-0.9404907,-0.25933838,-6.09375,12.46875,5.109375
1695381564822,0.115722656,-0.8735962,-0.120666504,-22.78125,10.265625,3.78125
1695381564866,0.08618164,-0.9006958,-0.14093018,-25.21875,14.296875,6.734375
1695381564911,0.118896484,-0.8088989,-0.022766113,-25.8125,11.953125,10.3125
1695381564941,0.17285156,-0.92559814,-0.038146973,2.84375,9.5,13.28125
1695381565019,0.09057617,-1.180481,-0.22735596,25.5,-5.765625,20.453125
1695381565025,-0.07128906,-1.2073364,0.07171631,-20.25,23.21875,11.078125
1695381565095,-0.022705078,-0.9495239,0.02557373,-11.078125,24.171875,2.90625
1695381565104,0.07348633,-0.96881104,-0.23956299,28.359375,24.84375,1.0625
1695381565135,0.54589844,-1.1299438,-0.5774536,63.984375,16.59375,20.09375
1695381565182,0.23242188,-0.77130127,-0.5918579,4.203125,10.21875,-1.984375
1695381565211,-0.099609375,-0.85772705,-0.43878174,-24.34375,16.390625,-13.03125
1695381565255,-0.06274414,-0.7971802,-0.25836182,-5.5,26.625,1.21875
1695381565302,0.20458984,-0.89801025,-0.27886963,-2.9375,21.96875,-7.140625
1695381565332,0.0087890625,-0.98443604,-0.17828369,-39.953125,18.71875,-0.578125
1695381565378,-0.18188477,-0.6968384,-0.09088135,-15.578125,25.6875,-4.703125
1695381565423,-0.005859375,-0.74053955,-0.19049072,8.78125,35.15625,-4.703125
1695381565451,0.13476562,-0.8850708,-0.24542236,-3.21875,22.3125,0.671875
1695381565497,0.0036621094,-0.7798462,-0.17437744,-17.609375,12.375,-2.890625
1695381565527,-0.20141602,-0.7966919,-0.10308838,-11.734375,15.65625,-4.71875
1695381565574,-0.19628906,-0.8909302,-0.089904785,-2.734375,22.65625,0.296875
1695381565617,-0.18774414,-0.93096924,-0.03717041,-4.140625,21.125,2.328125
1695381565647,-0.15917969,-0.94488525,-0.06573486,-2.796875,20.578125,-0.3125
1695381565693,-0.11254883,-1.1248169,-0.11090088,-0.65625,17.453125,0.875
1695381565721,-0.09814453,-1.3789673,-0.050598145,-10.703125,7.59375,4.125
1695381565800,-0.1694336,-1.2532349,-0.085998535,-26.765625,-3.734375,-0.296875
1695381565810,0.025634766,-1.1282349,-0.4199829,3.453125,-4.90625,-7.46875
1695381565841,0.36523438,-0.78326416,-0.46954346,5.53125,23.9375,12.890625
1695381565934,0.21435547,-1.0335083,-0.21588135,-5.09375,-0.375,2.5
1695381565937,-0.13989258,-1.1013794,-0.13677979,-13.734375,13.359375,-10.34375
1695381565961,-0.19946289,-0.92022705,-0.33624268,0.1875,27.046875,-2.359375
1695381566008,-0.033691406,-0.8303833,-0.3135376,5.296875,40.296875,10.453125
1695381566039,0.083496094,-0.99346924,-0.06915283,-7.296875,42.234375,14.90625
1695381566100,0.052490234,-1.0049438,-0.15045166,-8.65625,30.03125,17.09375
1695381566126,-0.0026855469,-0.786438,-0.17755127,-3.625,36.78125,19.1875
1695381566171,0.104003906,-0.86724854,-0.13043213,8.59375,32.921875,23.53125
1695381566201,0.091552734,-0.90509033,-0.042053223,-8.078125,9.5,27.1875
1695381566231,-0.0017089844,-1.1170044,-0.1026001,5.84375,12.578125,17.265625
1695381566293,-0.016845703,-1.2527466,-0.0413208,10.90625,24.71875,13.625
1695381566321,-0.013183594,-1.2622681,-0.015686035,1.515625,28.34375,5.125
1695381566351,0.08105469,-1.0254517,-0.1819458,5.796875,27.875,2.84375
1695381566396,0.20874023,-1.2185669,-0.29083252,60.609375,8.625,9.90625
1695381566427,0.19506836,-0.82354736,-0.5918579,13.609375,17.078125,3.4375
1695381566504,0.10424805,-0.59991455,-0.68463135,7.953125,25.203125,1.421875
1695381566516,0.11254883,-1.0154419,-0.5471802,15.15625,36.90625,8.59375
1695381566547,0.18286133,-1.06427,-0.35186768,-37.90625,26.21875,1.609375
1695381566593,0.13208008,-0.75128174,-0.30230713,-38.15625,21.5,1.65625
1695381566621,-0.034179688,-0.708313,-0.23175049,-7.25,23.5625,0.953125
1695381566666,-0.04248047,-0.75372314,-0.120666504,8.703125,28.625,4.296875
1695381566711,0.106933594,-0.84698486,-0.2600708,8.78125,24.71875,4.34375
1695381566741,0.12451172,-0.8609009,-0.3081665,-2.234375,8.765625,4.484375
1695381566787,-0.016357422,-0.911438,-0.3118286,3.078125,4.1875,3.53125
1695381566835,-0.10888672,-1.0991821,-0.2642212,15.8125,7.609375,1.765625
1695381566861,0.038330078,-1.1924438,-0.35723877,13.359375,18.296875,10.484375
1695381566907,-0.006591797,-1.0999146,-0.30718994,-7.03125,14.421875,16.90625
1695381566937,0.08276367,-0.88897705,-0.50494385,21.6875,-1.75,4.859375
1695381566981,0.103515625,-1.2234497,-0.48028564,40.0625,18.734375,2.125
1695381567027,0.7211914,-0.93951416,-0.58184814,3.203125,3.421875,20.703125
1695381567058,0.15625,-0.694397,-0.40533447,-8.890625,-6.515625,-1.71875
1695381567104,0.13891602,-0.87384033,-0.45391846,-5.734375,-7.3125,-3.5625
1695381567131,-0.030517578,-0.8892212,-0.2185669,-13.9375,-5.1875,-8.40625
1695381567209,-0.0034179688,-0.7385864,-0.23736572,-5.359375,9.875,0.078125
1695381567221,0.24438477,-0.75567627,-0.35308838,0.609375,3.03125,5.125
1695381567252,0.3227539,-0.7764282,-0.40460205,-3.546875,-13.921875,1.703125
1695381567315,0.12402344,-0.7698364,-0.22467041,-19.296875,-21.421875,1.953125
1695381567340,-0.010009766,-0.9783325,-0.2781372,-8.625,-15.328125,10.609375
1695381567372,-0.0029296875,-1.008606,-0.21099854,-16.09375,-15.890625,5.875
1695381567417,0.21655273,-1.1555786,-0.19830322,5.59375,-10.0625,-2.734375
1695381567447,0.18847656,-1.2254028,-0.14581299,-8.375,0.140625,-2.234375
1695381567492,-0.068115234,-0.9714966,-0.12554932,-5.71875,5.390625,-10.078125
1695381567537,0.08520508,-0.9866333,-0.3826294,25.59375,7.15625,-15.4375
1695381567566,0.74365234,-1.0462036,-0.75445557,39.484375,7.90625,18.390625
1695381567612,0.16479492,-0.72857666,-0.56329346,-49.171875,2.21875,-17.859375
1695381567691,-0.31445312,-0.8933716,-0.21832275,-29.15625,11.3125,-21.953125
1695381567694,0.018554688,-0.928772,-0.31915283,2.46875,29.4375,-5.796875
1695381567732,0.072509766,-0.89263916,-0.22442627,-29.71875,24.78125,-7.671875
1695381567762,-0.02758789,-0.7185669,-0.20562744,-18.359375,21.703125,-1.546875
1695381567807,-0.09008789,-0.7144165,-0.09307861,-3.234375,27.1875,-0.71875
1695381567836,0.09448242,-0.9246216,-0.22003174,4.0625,23.078125,2.84375
1695381567883,0.05834961,-0.8599243,-0.19586182,-5.15625,10.75,7.046875
1695381567961,-0.09033203,-0.8994751,-0.15484619,1.515625,9.140625,4.046875
1695381567967,-0.17358398,-1.0264282,-0.11895752,5.53125,12.71875,1.375
1695381568033,-0.18530273,-1.2105103,-0.17999268,1.0,12.015625,-0.90625
1695381568092,-0.14819336,-1.1257935,-0.17193604,-10.46875,13.21875,0.984375
1695381568098,-0.092285156,-1.0020142,-0.35211182,5.765625,7.1875,5.140625
1695381568125,0.01171875,-1.2993774,-0.4981079,45.640625,2.1875,6.078125
1695381568151,0.50268555,-1.0501099,-0.6812134,13.21875,11.171875,23.03125
1695381568198,0.18652344,-0.82232666,-0.19317627,-31.703125,4.125,11.8125
1695381568242,0.08544922,-0.89923096,-0.39117432,-7.921875,6.484375,5.375
1695381568272,-0.064208984,-0.864563,-0.2234497,-9.40625,8.3125,0.203125
1695381568317,-0.056640625,-0.9414673,-0.09112549,-13.609375,30.15625,8.875
1695381568349,0.12231445,-0.79473877,-0.18927002,-12.53125,24.359375,9.375
1695381568391,0.18432617,-0.7192993,-0.23297119,-1.46875,11.71875,6.890625
1695381568453,0.0126953125,-0.7979126,-0.13409424,-6.046875,2.109375,5.390625
1695381568465,-0.0056152344,-0.8435669,-0.14874268,-10.265625,5.015625,5.0625
1695381568511,0.023925781,-0.79278564,-0.1116333,-15.765625,6.25,7.40625
1695381568541,0.07055664,-0.89019775,-0.025939941,-4.171875,3.6875,5.53125
1695381568587,0.03515625,-1.0076294,-0.018127441,-7.109375,0.671875,4.421875
1695381568631,-0.10253906,-0.9451294,0.03338623,-9.78125,6.921875,2.8125
1695381568663,-0.079833984,-0.8994751,0.006286621,1.765625,11.421875,-3.15625
1695381568741,-0.024902344,-1.0444946,-0.0134887695,5.1875,24.296875,-4.296875
1695381568750,0.09814453,-1.1282349,-0.07281494,-4.25,17.4375,-3.203125
1695381568781,-0.024414062,-1.2112427,-0.38653564,31.15625,14.1875,-3.109375
1695381568828,0.16210938,-1.2146606,-0.4680786,30.1875,36.65625,4.5
1695381568857,-0.18359375,-0.50494385,-0.37677002,-38.859375,45.109375,5.484375
1695381568902,-0.39404297,-0.67315674,-0.4541626,8.40625,63.703125,8.625
1695381568947,0.11206055,-1.3511353,-0.4180298,37.25,63.265625,21.5
1695381568977,0.21582031,-1.2236938,-0.37554932,-13.28125,38.921875,10.71875
1695381569022,-0.0041503906,-0.661438,-0.395813,-29.0,44.296875,15.890625
1695381569052,-0.12207031,-0.7451782,-0.21148682,-13.765625,28.328125,5.1875
1695381569098,0.06933594,-1.0137329,-0.17144775,1.015625,24.03125,7.75
1695381569143,-0.10668945,-0.94732666,-0.21124268,-9.953125,22.078125,11.578125
1695381569170,-0.16894531,-0.9414673,-0.23736572,-6.921875,18.15625,5.6875
1695381569217,-0.104003906,-1.1983032,-0.24810791,-7.578125,18.046875,7.25
1695381569249,-0.234375,-1.1289673,-0.14727783,-18.5625,9.484375,5.4375
1695381569293,-0.17333984,-1.2022095,-0.18389893,-14.359375,13.03125,3.984375
1695381569370,0.05517578,-1.2705688,-0.3977661,2.625,8.234375,8.78125
1695381569373,0.15478516,-1.1582642,-0.31500244,5.703125,11.078125,12.921875
1695381569444,0.29858398,-0.8858032,-0.26031494,-14.34375,15.546875,12.84375
1695381569517,0.25,-0.835022,-0.33966064,-10.3125,-9.453125,2.46875
1695381569520,0.10571289,-0.9182739,-0.34381104,0.875,1.84375,2.40625
1695381569547,-0.0061035156,-0.956604,-0.17559814,2.53125,10.9375,4.6875
1695381569561,-0.043945312,-0.93463135,-0.12530518,-2.375,19.203125,3.8125
1695381569606,0.1550293,-0.9036255,-0.18341064,-6.734375,13.125,7.375
1695381569653,0.13769531,-0.81329346,-0.13604736,-8.9375,7.109375,5.890625
1695381569681,0.041748047,-0.864563,-0.06817627,-2.90625,2.703125,2.984375
1695381569743,0.06201172,-0.9446411,-0.09844971,-0.875,4.28125,3.65625
1695381569756,0.15283203,-0.9368286,-0.07208252,-3.84375,3.96875,2.609375
1695381569801,0.1899414,-1.0134888,-0.06768799,1.40625,-2.796875,1.125
1695381569848,0.088134766,-1.0613403,-0.12213135,3.21875,-8.484375,3.734375
1695381569877,0.048828125,-1.1362915,-0.11578369,1.046875,0.734375,0.25
1695381569921,0.119628906,-1.2810669,-0.008117676,-7.046875,9.71875,-2.34375
1695381569951,0.0014648438,-1.1047974,-0.15264893,0.015625,-6.578125,-7.8125
1695381569997,0.27368164,-1.0066528,-0.5088501,41.4375,1.265625,7.5625
1695381570043,0.0690918,-0.7161255,-0.3965454,-2.90625,4.921875,-0.203125
1695381570072,-0.061035156,-0.77911377,-0.36505127,-4.953125,22.3125,-3.90625
1695381570117,-0.0146484375,-0.8574829,-0.25177002,-7.359375,28.984375,-1.359375
1695381570192,0.19726562,-0.9089966,-0.18267822,-11.296875,15.78125,-6.375
1695381570198,0.045654297,-0.8670044,-0.19122314,-15.09375,3.21875,-4.640625
1695381570268,-0.16308594,-0.7991333,-0.16827393,-1.359375,15.875,-6.03125
1695381570270,0.0068359375,-0.92852783,-0.12750244,7.3125,26.125,-2.515625
1695381570326,0.05859375,-0.99005127,-0.17803955,-2.96875,19.03125,1.140625
1695381570356,-0.0925293,-0.89190674,-0.15679932,-9.015625,10.109375,-1.375
1695381570387,-0.057861328,-0.99664307,-0.16217041,7.046875,11.84375,-2.078125
1695381570433,-0.0715332,-1.22052,-0.2053833,5.421875,7.609375,-1.140625
1695381570461,-0.15698242,-1.1123657,-0.14752197,-2.28125,10.21875,2.59375
1695381570507,-0.17456055,-0.96099854,-0.16583252,-3.265625,14.265625,1.984375
1695381570552,0.010986328,-0.9168091,-0.37261963,29.34375,8.3125,-0.546875
1695381570580,0.08618164,-1.2263794,-0.30499268,47.90625,16.96875,2.765625
1695381570627,0.46142578,-0.9846802,-0.51812744,13.9375,8.1875,15.9375
1695381570672,0.1652832,-0.7642212,-0.35845947,-12.875,-6.453125,-3.3125
1695381570701,0.08520508,-0.95513916,-0.31329346,-9.296875,-12.921875,-0.25
1695381570747,-0.096191406,-1.0247192,-0.17047119,-6.828125,-9.125,-6.234375
1695381570777,-0.024169922,-0.9002075,-0.19659424,-0.5625,6.5625,3.328125
1695381570821,0.23291016,-0.84869385,-0.29400635,-3.28125,-5.421875,7.828125
1695381570901,0.11352539,-0.80792236,-0.20733643,-15.453125,-20.9375,5.75
1695381570904,-0.049804688,-0.8521118,-0.19805908,-8.234375,-24.375,1.984375
1695381570974,-0.09472656,-0.94903564,-0.12213135,-10.765625,-10.21875,4.359375
1695381570976,-0.03149414,-1.0344849,-0.023742676,-14.625,-2.5,5.453125
1695381571052,0.08666992,-1.0393677,-0.07110596,2.265625,-4.203125,4.984375
1695381571061,0.052490234,-1.1035767,-0.1987915,15.125,-4.078125,2.96875
1695381571091,0.14282227,-1.2393188,-0.117248535,7.34375,0.484375,-3.21875
1695381571138,0.0053710938,-1.0484009,-0.0947876,-7.765625,7.3125,-9.234375
1695381571165,0.16918945,-1.0166626,-0.5479126,54.75,1.3125,-5.484375
1695381571212,0.72753906,-0.9697876,-0.755188,33.421875,-14.859375,23.28125
1695381571257,-0.2758789,-0.7959595,-0.3982544,-90.859375,0.0625,-42.15625
1695381571286,-0.19140625,-0.647522,-0.038879395,4.765625,23.390625,-0.21875
1695381571332,0.34033203,-0.78009033,-0.39483643,17.4375,14.609375,1.6875
1695381571377,0.18408203,-0.98394775,-0.2498169,-38.578125,-13.390625,-14.59375
1695381571405,-0.119140625,-0.7268677,-0.23956299,-22.859375,-12.625,-8.671875
1695381571452,-0.16333008,-0.68756104,-0.047668457,2.53125,4.484375,-3.84375
1695381571480,0.03466797,-0.94976807,-0.17779541,6.34375,6.109375,-2.59375
1695381571528,0.087402344,-0.9524536,-0.21295166,-4.28125,-9.515625,0.453125
1695381571605,-0.10571289,-0.8838501,-0.12408447,-1.4375,-9.953125,0.515625
1695381571609,-0.24633789,-1.0493774,-0.08331299,8.703125,0.53125,-3.46875
1695381571680,-0.14770508,-1.1592407,-0.14703369,7.3125,5.25,-4.53125
1695381571682,-0.22460938,-1.1653442,-0.16265869,-1.3125,5.890625,0.359375
1695381571753,-0.2055664,-1.010315,-0.22467041,0.046875,3.96875,-1.59375
1695381571766,-0.01953125,-1.0349731,-0.44122314,44.59375,5.578125,4.34375
1695381571797,0.26123047,-1.2244263,-0.49371338,36.8125,7.171875,19.109375
1695381571842,0.25927734,-0.8345337,-0.2468872,-28.0625,-1.203125,14.90625
1695381571872,0.15454102,-0.6231079,-0.4187622,7.359375,-18.203125,4.578125
1695381571917,0.1352539,-0.911438,-0.3875122,13.3125,-15.484375,3.765625
1695381571964,4.8828125E-4,-1.0757446,-0.17266846,2.15625,-10.578125,6.609375
1695381571990,-0.05810547,-0.8994751,-0.17730713,-10.171875,-1.96875,5.515625
1695381572038,0.14550781,-0.87042236,-0.3447876,7.609375,-4.65625,9.46875
1695381572114,0.16699219,-0.8880005,-0.26104736,6.1875,-14.15625,6.703125
1695381572119,0.04272461,-0.9619751,-0.20611572,-4.765625,-19.328125,5.453125
1695381572158,0.044921875,-0.93096924,-0.22906494,-17.5,-10.078125,8.671875
1695381572185,0.07910156,-0.8604126,-0.12506104,-10.125,-14.328125,5.703125
1695381572232,0.16455078,-0.99884033,-0.17974854,11.984375,-13.453125,1.671875
1695381572294,0.122558594,-1.1082153,-0.22979736,14.15625,-10.84375,1.765625
1695381572306,0.1184082,-1.1358032,-0.18878174,6.296875,-4.265625,-1.859375
1695381572386,0.12719727,-1.0859985,-0.14703369,5.140625,3.28125,-5.0
1695381572390,0.099609375,-0.9734497,-0.36114502,31.890625,3.09375,-3.515625
1695381572459,0.5957031,-1.1399536,-0.83843994,60.953125,-4.15625,18.578125
1695381572470,0.13476562,-0.6099243,-0.534729,-24.28125,8.625,-6.875
1695381572501,-0.0793457,-0.6445923,-0.47052002,-14.296875,16.484375,-4.296875
1695381572546,0.15258789,-0.84259033,-0.39801025,2.96875,19.546875,-0.625
1695381572579,0.21240234,-0.90948486,-0.37652588,-27.71875,3.984375,-12.625
1695381572623,0.023925781,-0.76934814,-0.30303955,-36.96875,0.890625,-7.0
1695381572666,-0.15698242,-0.7149048,-0.16851807,-15.765625,9.203125,-8.578125
1695381572697,-0.03100586,-0.81378174,-0.21246338,9.515625,16.265625,-4.875
1695381572742,0.118896484,-0.96759033,-0.32037354,3.25,9.828125,-1.3125
1695381572788,0.063964844,-0.864563,-0.32965088,-10.90625,-2.09375,1.34375
1695381572816,-0.028320312,-0.8882446,-0.23199463,-0.890625,1.6875,0.484375
1695381572863,-0.056152344,-1.0007935,-0.2354126,10.546875,8.203125,0.5625
1695381572892,-0.100097656,-1.0911255,-0.3027954,8.171875,8.96875,0.265625
1695381572937,-0.13476562,-1.0960083,-0.36090088,-5.265625,8.5625,1.09375
1695381573014,0.038330078,-1.0647583,-0.5288696,14.875,-0.875,-3.71875
1695381573017,0.119384766,-1.5039673,-0.56695557,44.125,1.078125,-1.828125
1695381573089,0.41748047,-1.0942993,-0.7000122,-33.21875,11.640625,12.65625
