,timestamp,accel_x,accel_y,accel_z,gyro_x,gyro_y,gyro_z
0,1697605965,-0.46166992,-0.8501587,0.30706787,-0.4375,-0.375,0.015625
1,1697606005,-0.46606445,-0.84991455,0.30828857,-0.65625,0.359375,0.40625
2,1697606045,-0.4729004,-0.8442993,0.31658936,0.046875,-0.015625,0.25
3,1697606085,-0.4736328,-0.84698486,0.34173584,1.875,-1.0625,-0.125
4,1697606125,-0.46435547,-0.8723755,0.31658936,4.25,-1.703125,0.765625
5,1697606165,-0.46801758,-0.8464966,0.29681396,3.15625,-2.421875,0.328125
6,1697606205,-0.48364258,-0.8257446,0.2723999,1.796875,-2.28125,-1.328125
7,1697606245,-0.46972656,-0.8430786,0.29022217,-0.640625,-3.09375,-1.234375
8,1697606285,-0.46289062,-0.85284424,0.28778076,-2.171875,-0.6875,-0.515625
9,1697606325,-0.48339844,-0.85723877,0.3036499,0.984375,2.359375,1.5
10,1697606365,-0.4868164,-0.86431885,0.30706787,2.359375,-0.78125,0.921875
11,1697606405,-0.47143555,-0.850647,0.2970581,2.65625,-1.796875,0.15625
12,1697606445,-0.45874023,-0.8508911,0.2814331,1.578125,-0.0625,0.578125
13,1697606485,-0.46655273,-0.8401489,0.2921753,-0.078125,0.34375,0.265625
14,1697606525,-0.47070312,-0.85162354,0.29412842,0.796875,0.6875,0.78125
15,1697606565,-0.47436523,-0.86260986,0.29119873,1.71875,-0.34375,0.65625
16,1697606605,-0.47192383,-0.866272,0.29412842,1.734375,-0.15625,0.953125
17,1697606645,-0.47192383,-0.86065674,0.28729248,1.328125,-0.203125,0.96875
18,1697606685,-0.47021484,-0.83551025,0.2826538,1.3125,-1.046875,0.296875
19,1697606725,-0.4650879,-0.85162354,0.28045654,0.921875,-0.890625,0.34375
20,1697606765,-0.46850586,-0.8579712,0.2831421,0.078125,-0.890625,0.234375
21,1697606805,-0.46972656,-0.86968994,0.2880249,-0.140625,0.0625,0.140625
22,1697606845,-0.46435547,-0.8604126,0.2880249,0.53125,-0.6875,0.203125
23,1697606885,-0.4560547,-0.85601807,0.27850342,0.53125,-0.4375,0.03125
24,1697606925,-0.47021484,-0.8545532,0.2892456,0.734375,-0.1875,0.421875
25,1697606965,-0.4724121,-0.85650635,0.28753662,0.15625,0.0625,0.203125
26,1697607005,-0.46948242,-0.86309814,0.2694702,-0.796875,-1.0,0.171875
27,1697607045,-0.46606445,-0.84625244,0.2838745,-0.078125,-0.5,-0.046875
28,1697607085,-0.46557617,-0.87677,0.29559326,0.359375,0.828125,0.5
29,1697607125,-0.4633789,-0.85284424,0.2838745,0.90625,-1.1875,0.015625
30,1697607165,-0.4621582,-0.8303833,0.28070068,2.828125,-0.890625,-0.09375
31,1697607205,-0.47070312,-0.86065674,0.27850342,4.625,0.015625,1.015625
32,1697607245,-0.47607422,-0.89019775,0.27874756,0.5,-1.828125,0.015625
33,1697607285,-0.46899414,-0.8699341,0.26531982,-0.890625,-1.515625,-0.359375
34,1697607325,-0.46313477,-0.8423462,0.26849365,1.375,-1.078125,0.125
35,1697607365,-0.47021484,-0.85040283,0.27093506,1.421875,-0.34375,-0.078125
36,1697607405,-0.47607422,-0.8699341,0.26239014,-0.296875,-0.5625,0.28125
37,1697607445,-0.4621582,-0.85601807,0.25994873,-0.1875,-1.0625,-0.0625
38,1697607485,-0.4633789,-0.8635864,0.27801514,0.84375,0.53125,0.125
39,1697607525,-0.4790039,-0.8706665,0.26190186,0.046875,-0.375,0.5625
40,1697607565,-0.46069336,-0.847229,0.26556396,0.25,-1.09375,0.359375
41,1697607605,-0.46728516,-0.8674927,0.27313232,0.328125,0.421875,0.8125
42,1697607645,-0.46435547,-0.86968994,0.2670288,0.5625,-0.4375,0.375
43,1697607685,-0.46435547,-0.86260986,0.2748413,0.6875,-1.0,0.0625
44,1697607725,-0.46142578,-0.862854,0.26361084,-0.09375,-0.703125,0.28125
45,1697607765,-0.46704102,-0.861145,0.2682495,0.0,-0.265625,0.109375
46,1697607805,-0.46655273,-0.86602783,0.2675171,-0.21875,-0.546875,0.0625
47,1697607845,-0.45874023,-0.86016846,0.27142334,0.234375,-0.796875,0.203125
48,1697607885,-0.46484375,-0.8579712,0.26898193,0.1875,-0.078125,0.203125
49,1697607925,-0.46655273,-0.8557739,0.27264404,0.765625,-0.46875,0.328125
50,1697607965,-0.47094727,-0.8567505,0.27313232,1.109375,-0.921875,0.3125
51,1697608005,-0.47021484,-0.87335205,0.25628662,0.15625,-0.75,0.109375
52,1697608045,-0.46728516,-0.8677368,0.26922607,1.203125,-0.28125,-0.109375
53,1697608085,-0.46948242,-0.87457275,0.26361084,-0.5625,-1.0,0.359375
54,1697608125,-0.46655273,-0.85235596,0.25628662,-0.640625,-0.828125,-0.375
55,1697608165,-0.46655273,-0.85284424,0.2682495,2.78125,0.296875,0.390625
56,1697608205,-0.47827148,-0.87872314,0.26971436,0.28125,-0.59375,0.546875
57,1697608245,-0.47070312,-0.85821533,0.2506714,-1.3125,-1.25,0.140625
58,1697608285,-0.46435547,-0.8567505,0.25994873,0.53125,-0.21875,0.1875
59,1697608325,-0.46557617,-0.8665161,0.26605225,0.734375,-1.265625,-0.328125
60,1697608365,-0.46899414,-0.86920166,0.2597046,-0.203125,-1.28125,-0.203125
61,1697608405,-0.45996094,-0.86602783,0.2609253,0.234375,-0.578125,0.21875
62,1697608445,-0.46875,-0.8713989,0.26409912,-0.03125,0.109375,0.65625
63,1697608485,-0.46606445,-0.861145,0.26068115,0.25,-0.75,-0.0625
64,1697608525,-0.4580078,-0.8677368,0.26263428,0.375,0.046875,0.484375
65,1697608565,-0.4663086,-0.85723877,0.26483154,1.671875,0.046875,1.109375
66,1697608605,-0.46655273,-0.8562622,0.25750732,2.171875,-0.890625,0.578125
67,1697608645,-0.4597168,-0.8555298,0.24432373,2.140625,-0.71875,-0.1875
68,1697608685,-0.47973633,-0.8772583,0.24969482,-0.125,-0.625,-0.015625
69,1697608725,-0.47143555,-0.87457275,0.25335693,-0.796875,-0.875,0.0625
70,1697608765,-0.4645996,-0.8587036,0.2531128,0.4375,-0.421875,0.15625
71,1697608805,-0.46704102,-0.8694458,0.25506592,-0.09375,-0.296875,0.453125
72,1697608845,-0.4650879,-0.86138916,0.2518921,0.734375,-0.34375,0.75
73,1697608885,-0.47265625,-0.87042236,0.25726318,1.71875,-0.59375,0.421875
74,1697608925,-0.48120117,-0.8694458,0.24969482,0.390625,-1.28125,-0.296875
75,1697608965,-0.45751953,-0.85235596,0.24066162,-1.109375,-0.859375,-0.484375
76,1697609005,-0.46362305,-0.8713989,0.25604248,0.640625,0.625,0.15625
77,1697609045,-0.46923828,-0.8633423,0.25701904,0.34375,-1.328125,0.34375
78,1697609085,-0.4638672,-0.8496704,0.24969482,0.78125,-0.421875,0.078125
79,1697609125,-0.47021484,-0.8682251,0.24578857,1.265625,0.140625,0.625
80,1697609165,-0.46972656,-0.88116455,0.25286865,-0.4375,-0.484375,0.171875
81,1697609205,-0.46679688,-0.8508911,0.2514038,0.203125,-0.25,0.28125
82,1697609245,-0.46801758,-0.85528564,0.23797607,1.203125,-0.109375,0.578125
83,1697609285,-0.45898438,-0.86724854,0.2501831,2.484375,-0.671875,0.203125
84,1697609325,-0.46948242,-0.8858032,0.23553467,0.40625,0.375,0.765625
85,1697609365,-0.4716797,-0.8648071,0.2501831,0.40625,0.171875,0.8125
86,1697609405,-0.46801758,-0.8652954,0.23822021,0.625,-0.53125,0.171875
87,1697609445,-0.4633789,-0.8635864,0.2374878,-0.171875,-0.953125,-0.1875
88,1697609485,-0.4633789,-0.86505127,0.2411499,0.15625,-0.46875,0.078125
89,1697609525,-0.46362305,-0.8735962,0.24725342,0.359375,-0.265625,0.390625
90,1697609565,-0.46826172,-0.8765259,0.24627686,-0.1875,-1.09375,-0.234375
91,1697609605,-0.46777344,-0.8740845,0.23504639,-0.46875,-0.921875,0.171875
92,1697609645,-0.46069336,-0.8635864,0.24505615,0.671875,-0.03125,0.09375
93,1697609685,-0.47192383,-0.8633423,0.2387085,1.125,0.046875,0.40625
94,1697609725,-0.46948242,-0.864563,0.24041748,0.59375,-0.140625,0.265625
95,1697609765,-0.46923828,-0.864563,0.23529053,0.15625,-0.890625,0.125
96,1697609805,-0.46923828,-0.8652954,0.24066162,0.671875,-0.328125,-0.28125
97,1697609845,-0.47460938,-0.8740845,0.23480225,0.28125,-0.5,0.09375
98,1697609885,-0.47143555,-0.8670044,0.23480225,0.46875,-0.3125,0.515625
99,1697609925,-0.4621582,-0.85528564,0.24554443,1.3125,0.15625,0.09375
100,1697609965,-0.4777832,-0.88604736,0.24041748,1.671875,-0.515625,0.671875
101,1697610005,-0.46777344,-0.8682251,0.21942139,-1.359375,-1.328125,-0.375
102,1697610045,-0.4501953,-0.84454346,0.24017334,0.65625,-0.15625,-0.703125
103,1697610085,-0.4699707,-0.9043579,0.2423706,1.390625,0.53125,0.78125
104,1697610125,-0.47143555,-0.8657837,0.23675537,0.625,-0.78125,0.875
105,1697610165,-0.46313477,-0.8604126,0.230896,1.109375,-0.015625,0.703125
106,1697610205,-0.46044922,-0.85723877,0.23822021,1.09375,-0.265625,0.3125
107,1697610245,-0.47021484,-0.8731079,0.23236084,1.390625,-0.984375,0.265625
108,1697610285,-0.46777344,-0.8723755,0.22259521,0.65625,-0.6875,0.03125
109,1697610325,-0.47045898,-0.87628174,0.22113037,0.125,-1.0625,-0.203125
110,1697610365,-0.4663086,-0.8833618,0.23162842,0.59375,-0.0625,-0.0625
111,1697610405,-0.4663086,-0.87750244,0.23065186,2.015625,0.703125,0.375
112,1697610445,-0.46972656,-0.86187744,0.22015381,0.796875,-0.296875,0.234375
113,1697610485,-0.46020508,-0.85528564,0.22943115,0.390625,-0.53125,-0.125
114,1697610525,-0.46484375,-0.864563,0.23040771,-0.109375,-0.234375,0.265625
115,1697610565,-0.4675293,-0.88238525,0.22113037,-0.71875,-0.8125,0.4375
116,1697610605,-0.45922852,-0.880188,0.21722412,-0.15625,-0.90625,-0.09375
117,1697610645,-0.4658203,-0.8694458,0.2243042,1.234375,0.0625,0.296875
118,1697610685,-0.4736328,-0.87164307,0.23187256,0.734375,-0.171875,0.734375
119,1697610725,-0.47607422,-0.8694458,0.22845459,0.078125,-0.90625,0.21875
120,1697610765,-0.46118164,-0.8740845,0.20916748,-0.71875,-0.765625,0.015625
121,1697610805,-0.46166992,-0.86798096,0.22357178,0.75,-0.328125,-0.171875
122,1697610845,-0.4711914,-0.86798096,0.23358154,1.625,-0.015625,0.3125
123,1697610885,-0.4711914,-0.8789673,0.20672607,-0.09375,-0.828125,0.328125
124,1697610925,-0.45410156,-0.87384033,0.21990967,-1.765625,-0.75,-0.421875
125,1697610965,-0.4658203,-0.8635864,0.22943115,0.765625,0.53125,0.09375
126,1697611005,-0.47558594,-0.8814087,0.23138428,1.484375,-0.140625,0.53125
127,1697611045,-0.4658203,-0.8779907,0.22796631,-1.609375,-1.421875,-0.046875
128,1697611085,-0.4567871,-0.86016846,0.21673584,-0.453125,-0.140625,0.0625
129,1697611125,-0.4658203,-0.86846924,0.23114014,1.609375,0.171875,0.28125
130,1697611165,-0.47607422,-0.8687134,0.22113037,1.140625,-1.125,0.0
131,1697611205,-0.4675293,-0.87042236,0.21331787,-0.671875,-0.96875,0.15625
132,1697611245,-0.46142578,-0.8674927,0.22479248,-0.328125,-0.5625,-0.15625
133,1697611285,-0.46533203,-0.88409424,0.22601318,1.359375,0.109375,0.4375
134,1697611325,-0.46484375,-0.87091064,0.22039795,0.734375,-0.375,0.765625
135,1697611365,-0.4465332,-0.847229,0.2399292,0.828125,-0.15625,-0.796875
136,1697611405,-0.46313477,-0.87213135,0.24725342,0.96875,-0.375,0.046875
137,1697611445,-0.47875977,-0.9092407,0.24920654,0.140625,-0.359375,1.15625
138,1697611485,-0.45361328,-0.8699341,0.23382568,0.828125,-2.046875,-0.078125
139,1697611525,-0.44311523,-0.84576416,0.23016357,2.359375,0.15625,-0.171875
140,1697611565,-0.46411133,-0.8604126,0.23236084,0.59375,0.921875,0.265625
141,1697611605,-0.4741211,-0.88165283,0.24871826,-0.625,0.90625,1.4375
142,1697611645,-0.4675293,-0.8921509,0.23577881,-0.640625,-0.9375,0.859375
143,1697611685,-0.4501953,-0.8718872,0.24212646,0.328125,-1.328125,-0.453125
144,1697611725,-0.4560547,-0.8743286,0.24212646,0.46875,0.125,0.1875
145,1697611765,-0.4506836,-0.86724854,0.23822021,1.171875,0.0625,0.90625
146,1697611805,-0.45996094,-0.86602783,0.2399292,1.4375,-0.53125,0.375
147,1697611845,-0.46557617,-0.8833618,0.23504639,-0.671875,-1.546875,-0.4375
148,1697611885,-0.4506836,-0.88238525,0.22381592,-1.90625,-1.390625,-0.4375
149,1697611925,-0.4580078,-0.88482666,0.24432373,0.78125,0.9375,0.265625
150,1697611965,-0.46118164,-0.8772583,0.23529053,0.46875,-0.796875,0.734375
151,1697612005,-0.43847656,-0.8352661,0.23040771,1.578125,-1.234375,-0.078125
152,1697612045,-0.46362305,-0.8726196,0.23968506,3.03125,0.84375,0.515625
153,1697612085,-0.46826172,-0.9121704,0.23626709,-1.75,-0.65625,0.296875
154,1697612125,-0.45239258,-0.86602783,0.230896,-0.890625,-1.28125,0.046875
155,1697612165,-0.44995117,-0.86309814,0.22991943,1.625,-0.109375,0.171875
156,1697612205,-0.4650879,-0.8755493,0.23065186,0.734375,-0.59375,0.125
157,1697612245,-0.46264648,-0.8855591,0.23138428,-0.40625,-0.71875,0.5625
158,1697612285,-0.44995117,-0.8699341,0.23284912,0.171875,-0.671875,-0.0625
159,1697612325,-0.45092773,-0.8731079,0.23699951,0.78125,-0.453125,0.140625
160,1697612365,-0.453125,-0.8777466,0.22845459,0.125,-0.84375,0.046875
161,1697612405,-0.4580078,-0.8753052,0.21990967,-0.296875,-0.28125,0.515625
162,1697612445,-0.4580078,-0.8821411,0.23236084,0.328125,-0.171875,0.015625
163,1697612485,-0.45483398,-0.87750244,0.23504639,0.578125,-0.59375,-0.03125
164,1697612525,-0.46411133,-0.86431885,0.23187256,1.5,-0.25,0.65625
165,1697612565,-0.46533203,-0.87628174,0.2255249,0.515625,-0.296875,0.484375
166,1697612605,-0.4555664,-0.88653564,0.22479248,-0.453125,-0.515625,0.34375
167,1697612645,-0.45776367,-0.8753052,0.22991943,0.859375,-0.46875,0.125
168,1697612685,-0.4645996,-0.86676025,0.22625732,0.0,-0.46875,0.1875
169,1697612725,-0.46044922,-0.8843384,0.23406982,1.203125,-0.3125,0.296875
170,1697612765,-0.45996094,-0.8850708,0.22161865,-0.609375,-1.1875,0.34375
171,1697612805,-0.44189453,-0.8591919,0.21966553,-0.140625,-0.375,-0.3125
172,1697612845,-0.46777344,-0.881897,0.2374878,2.0625,-0.015625,0.359375
173,1697612885,-0.46850586,-0.8833618,0.2296753,-0.03125,-0.625,0.296875
174,1697612925,-0.45703125,-0.862854,0.2230835,-0.28125,-0.8125,0.53125
175,1697612965,-0.45703125,-0.8772583,0.21502686,0.390625,-0.296875,0.125
176,1697613005,-0.46069336,-0.8875122,0.22845459,-0.15625,-0.53125,-0.21875
177,1697613045,-0.4609375,-0.8796997,0.22137451,-0.34375,-0.390625,0.390625
178,1697613085,-0.45092773,-0.86798096,0.2296753,0.5625,-0.453125,0.3125
179,1697613125,-0.45654297,-0.87823486,0.21429443,0.5,-0.03125,0.359375
180,1697613165,-0.46606445,-0.8870239,0.22113037,-0.578125,-0.8125,-0.09375
181,1697613205,-0.45288086,-0.87677,0.22943115,-0.421875,-0.265625,0.21875
182,1697613245,-0.4555664,-0.87823486,0.22796631,0.4375,0.0625,0.328125
183,1697613285,-0.4567871,-0.8657837,0.22943115,0.71875,-0.9375,-0.0625
184,1697613325,-0.45654297,-0.8735962,0.2230835,0.671875,-0.4375,0.390625
185,1697613365,-0.45458984,-0.8748169,0.21868896,0.09375,-0.671875,0.171875
186,1697613405,-0.46166992,-0.88775635,0.2218628,-0.296875,-0.53125,0.203125
187,1697613445,-0.45751953,-0.8777466,0.21697998,-0.25,-0.484375,0.0
188,1697613485,-0.45751953,-0.87823486,0.23016357,0.09375,-0.34375,0.109375
189,1697613525,-0.45483398,-0.8711548,0.22576904,-0.046875,-0.265625,0.28125
190,1697613565,-0.46118164,-0.8687134,0.22259521,0.8125,-0.09375,0.28125
191,1697613605,-0.4560547,-0.87164307,0.21380615,-1.34375,-1.328125,-0.125
192,1697613645,-0.4519043,-0.8689575,0.22503662,-0.890625,-0.375,-0.421875
193,1697613685,-0.46777344,-0.87872314,0.23016357,2.0,0.53125,0.484375
194,1697613725,-0.47070312,-0.8821411,0.28875732,-2.953125,0.046875,-0.6875
195,1697613765,-0.47094727,-0.88946533,0.2741089,-1.953125,-2.46875,0.0625
196,1697613805,-0.43969727,-0.8442993,0.25164795,0.203125,-1.9375,-0.015625
197,1697613845,-0.43896484,-0.8123169,0.26239014,3.0625,0.546875,0.21875
198,1697613885,-0.4794922,-0.85772705,0.2814331,2.71875,0.59375,0.515625
199,1697613925,-0.4868164,-0.9026489,0.260437,1.421875,-2.015625,0.375
200,1697613965,-0.44970703,-0.86846924,0.26287842,-0.421875,-2.265625,-0.046875
201,1697614005,-0.43823242,-0.8533325,0.27215576,2.375,1.859375,0.515625
202,1697614045,-0.4729004,-0.8796997,0.26678467,0.84375,1.421875,0.953125
203,1697614085,-0.46923828,-0.8855591,0.27191162,0.03125,-2.15625,0.015625
204,1697614125,-0.4482422,-0.8479614,0.26141357,-0.015625,-0.59375,-0.0625
205,1697614165,-0.45874023,-0.85406494,0.26287842,0.40625,0.53125,0.890625
206,1697614205,-0.46533203,-0.87164307,0.26019287,-0.375,-0.8125,0.03125
207,1697614245,-0.4501953,-0.87579346,0.26190186,-0.515625,-0.515625,0.203125
208,1697614285,-0.46142578,-0.8652954,0.26922607,1.546875,-0.015625,0.546875
209,1697614325,-0.46606445,-0.85894775,0.2711792,0.6875,-0.296875,0.171875
210,1697614365,-0.45483398,-0.862854,0.25994873,-0.578125,-0.75,0.125
211,1697614405,-0.45654297,-0.8755493,0.26605225,1.109375,0.0625,0.359375
212,1697614445,-0.45336914,-0.8670044,0.2543335,-0.6875,-1.28125,-0.1875
213,1697614485,-0.44921875,-0.8518677,0.2645874,-0.265625,-0.328125,-0.375
214,1697614525,-0.47094727,-0.8748169,0.26287842,1.671875,0.171875,0.828125
215,1697614565,-0.46533203,-0.87872314,0.26287842,-1.171875,-1.234375,0.109375
216,1697614605,-0.45141602,-0.86065674,0.26287842,-0.640625,-0.28125,-0.03125
217,1697614645,-0.46264648,-0.8635864,0.26141357,0.59375,0.375,0.53125
218,1697614685,-0.46289062,-0.85894775,0.26190186,0.25,-0.703125,-0.09375
219,1697614725,-0.45654297,-0.8743286,0.2609253,-0.421875,-0.890625,0.1875
220,1697614765,-0.45654297,-0.8591919,0.25897217,0.65625,-0.484375,0.203125
221,1697614805,-0.46557617,-0.8772583,0.26263428,0.46875,0.078125,0.34375
222,1697614845,-0.4555664,-0.8635864,0.2592163,0.234375,-0.9375,0.203125
223,1697614885,-0.4489746,-0.86309814,0.24945068,0.78125,-0.4375,0.53125
224,1697614925,-0.46655273,-0.86383057,0.25506592,0.390625,-0.3125,0.328125
225,1697614965,-0.45751953,-0.86846924,0.260437,-0.859375,-0.875,-0.03125
226,1697615005,-0.46069336,-0.87506104,0.25775146,0.609375,-0.21875,0.21875
227,1697615045,-0.46166992,-0.8689575,0.26190186,0.3125,-0.34375,0.375
228,1697615085,-0.45776367,-0.86553955,0.2538452,-0.703125,-0.5625,-0.046875
229,1697615125,-0.45239258,-0.8609009,0.25726318,-0.640625,-0.5,0.09375
230,1697615165,-0.4609375,-0.8701782,0.27191162,-0.515625,0.46875,0.328125
231,1697615205,-0.45385742,-0.861145,0.262146,-0.5,-0.75,0.171875
232,1697615245,-0.45092773,-0.8530884,0.26922607,2.828125,-0.515625,0.234375
233,1697615285,-0.45825195,-0.8711548,0.25531006,0.953125,-1.703125,0.234375
234,1697615325,-0.45532227,-0.86309814,0.23651123,-0.90625,-0.90625,-0.59375
235,1697615365,-0.4621582,-0.87579346,0.26971436,0.71875,0.109375,0.234375
236,1697615405,-0.4638672,-0.8899536,0.27313232,-0.15625,0.296875,0.640625
237,1697615445,-0.46240234,-0.8633423,0.25238037,-0.109375,-0.515625,0.546875
238,1697615485,-0.4506836,-0.85894775,0.25604248,0.53125,-0.25,0.203125
239,1697615525,-0.45239258,-0.86920166,0.26190186,0.765625,-0.046875,0.015625
240,1697615565,-0.46679688,-0.87750244,0.25408936,0.203125,-1.046875,0.375
241,1697615605,-0.45532227,-0.862854,0.26019287,-0.59375,-1.40625,-0.234375
242,1697615645,-0.45092773,-0.87213135,0.25335693,-0.078125,0.3125,0.265625
243,1697615685,-0.46118164,-0.8740845,0.2518921,0.875,-1.0,0.234375
244,1697615725,-0.4572754,-0.85894775,0.25653076,1.21875,-0.125,0.21875
245,1697615765,-0.46411133,-0.8740845,0.25604248,0.390625,0.78125,0.9375
246,1697615805,-0.46020508,-0.87042236,0.25946045,-0.40625,-0.96875,0.140625
247,1697615845,-0.453125,-0.86602783,0.25335693,0.734375,-0.890625,0.015625
248,1697615885,-0.45581055,-0.8743286,0.24993896,0.859375,-0.171875,0.53125
249,1697615925,-0.45776367,-0.86676025,0.25286865,0.578125,-0.65625,0.328125
250,1697615965,-0.45776367,-0.87994385,0.25238037,0.296875,-0.6875,0.015625
251,1697616005,-0.46264648,-0.8740845,0.25164795,-0.078125,-0.453125,0.125
252,1697616045,-0.46142578,-0.87994385,0.2518921,0.3125,-0.5,0.296875
253,1697616085,-0.4580078,-0.8701782,0.24700928,-0.1875,-0.625,0.328125
254,1697616125,-0.45166016,-0.8545532,0.25286865,1.921875,-0.078125,0.015625
255,1697616165,-0.46679688,-0.881897,0.24383545,0.21875,-0.59375,0.328125
256,1697616205,-0.45385742,-0.85943604,0.23968506,-1.0,-1.15625,-0.234375
257,1697616245,-0.45947266,-0.86431885,0.24407959,1.953125,-0.03125,0.5625
258,1697616285,-0.46606445,-0.90338135,0.24383545,0.40625,-0.4375,0.40625
259,1697616325,-0.4609375,-0.86431885,0.25482178,-0.234375,-0.5,0.25
260,1697616365,-0.46362305,-0.86187744,0.24993896,1.578125,0.359375,1.03125
261,1697616405,-0.45361328,-0.86968994,0.2453003,0.984375,-1.171875,0.109375
262,1697616445,-0.4609375,-0.88165283,0.2387085,-0.515625,-0.515625,-0.171875
263,1697616485,-0.46166992,-0.8706665,0.2501831,-0.078125,-0.296875,0.296875
264,1697616525,-0.45410156,-0.8699341,0.24822998,0.453125,-0.25,0.453125
265,1697616565,-0.45825195,-0.8723755,0.24359131,0.328125,-1.328125,0.015625
266,1697616605,-0.46362305,-0.87091064,0.2374878,0.15625,-0.765625,0.265625
267,1697616645,-0.45947266,-0.8711548,0.24798584,0.421875,-0.4375,0.34375
268,1697616685,-0.453125,-0.8796997,0.23309326,-0.21875,-1.484375,0.03125
269,1697616725,-0.4494629,-0.85894775,0.24554443,0.78125,-0.125,0.140625
270,1697616765,-0.4638672,-0.88482666,0.24163818,1.125,0.421875,0.625
271,1697616805,-0.4650879,-0.87677,0.24456787,0.484375,-0.921875,0.453125
272,1697616845,-0.4519043,-0.8713989,0.23577881,0.25,-0.53125,-0.28125
273,1697616885,-0.45361328,-0.8765259,0.2374878,0.15625,-0.09375,0.171875
274,1697616925,-0.46264648,-0.8748169,0.24163818,-0.34375,-0.390625,0.265625
275,1697616965,-0.4560547,-0.8677368,0.24139404,0.09375,-0.609375,0.015625
276,1697617005,-0.45898438,-0.8731079,0.23944092,0.25,-0.3125,0.359375
277,1697617045,-0.45996094,-0.87945557,0.2345581,0.140625,-0.6875,0.140625
278,1697617085,-0.4465332,-0.86602783,0.2518921,0.953125,-0.625,0.046875
279,1697617125,-0.4580078,-0.8843384,0.23846436,0.75,-0.890625,0.484375
280,1697617165,-0.453125,-0.8591919,0.22161865,-0.71875,-1.828125,-0.59375
281,1697617205,-0.45825195,-0.8543091,0.22235107,1.703125,-1.078125,-0.234375
282,1697617245,-0.46020508,-0.90045166,0.24847412,1.921875,-0.546875,0.546875
283,1697617285,-0.47216797,-0.89727783,0.21917725,-1.28125,-0.546875,0.53125
284,1697617325,-0.4543457,-0.8687134,0.22894287,-0.90625,-0.46875,-0.171875
285,1697617365,-0.44726562,-0.86968994,0.24407959,-0.28125,0.109375,-0.515625
286,1697617405,-0.46264648,-0.8753052,0.24041748,0.328125,0.109375,-0.125
287,1697617445,-0.45825195,-0.8604126,0.23822021,-0.234375,-0.96875,0.46875
288,1697617485,-0.45410156,-0.85723877,0.2387085,0.015625,-0.890625,0.203125
289,1697617525,-0.45507812,-0.87628174,0.23675537,0.8125,-0.546875,-0.046875
290,1697617565,-0.46435547,-0.89068604,0.22869873,-0.140625,-0.671875,0.4375
291,1697617605,-0.45703125,-0.8635864,0.23724365,1.109375,-0.59375,0.671875
292,1697617645,-0.46362305,-0.8755493,0.22503662,0.609375,-0.328125,0.375
293,1697617685,-0.45776367,-0.87091064,0.22943115,0.421875,-0.40625,0.21875
294,1697617725,-0.46435547,-0.8831177,0.23675537,-0.046875,-0.03125,0.484375
295,1697617765,-0.4572754,-0.8711548,0.23919678,0.078125,-0.4375,0.15625
296,1697617805,-0.45654297,-0.8648071,0.23822021,0.390625,-0.609375,-0.0625
297,1697617845,-0.4633789,-0.87579346,0.23138428,0.296875,-0.703125,0.140625
298,1697617885,-0.44970703,-0.86846924,0.22528076,0.171875,-0.390625,0.078125
299,1697617925,-0.46240234,-0.87384033,0.22039795,0.265625,-0.375,0.140625
300,1697617965,-0.46606445,-0.87677,0.23382568,0.140625,-0.546875,0.28125
301,1697618005,-0.46044922,-0.8792114,0.21917725,-0.125,-0.875,0.015625
302,1697618045,-0.453125,-0.8743286,0.23895264,0.296875,-0.046875,-0.15625
303,1697618085,-0.46948242,-0.88531494,0.2399292,1.015625,0.140625,0.71875
304,1697618125,-0.4543457,-0.8694458,0.21942139,-0.859375,-1.578125,-0.1875
305,1697618165,-0.4482422,-0.84625244,0.22381592,0.328125,-0.203125,-0.375
306,1697618205,-0.46435547,-0.89312744,0.23773193,1.53125,-0.125,0.59375
307,1697618245,-0.46826172,-0.88409424,0.23040771,-0.796875,-1.171875,0.421875
308,1697618285,-0.4501953,-0.8550415,0.2189331,0.0625,-0.90625,0.421875
309,1697618325,-0.45703125,-0.8687134,0.23797607,1.203125,-0.21875,-0.015625
310,1697618365,-0.46875,-0.8904419,0.21966553,0.34375,-0.359375,0.203125
311,1697618405,-0.45483398,-0.88897705,0.22332764,-0.25,-0.875,0.265625
312,1697618445,-0.45166016,-0.8687134,0.21502686,-0.46875,-0.328125,-0.453125
313,1697618485,-0.45703125,-0.8743286,0.22259521,0.03125,0.21875,-0.265625
314,1697618525,-0.46899414,-0.87945557,0.22918701,-1.640625,-0.0625,0.296875
315,1697618565,-0.4584961,-0.85894775,0.22015381,-1.578125,0.484375,1.078125
316,1697618605,-0.4567871,-0.86798096,0.24066162,-0.796875,1.328125,0.765625
317,1697618645,-0.48046875,-0.90582275,0.27703857,0.234375,0.625,-0.015625
318,1697618685,-0.47680664,-0.8989868,0.24383545,-4.140625,-1.984375,0.40625
319,1697618725,-0.44360352,-0.8447876,0.22991943,-4.421875,-1.09375,-0.3125
320,1697618765,-0.44702148,-0.8545532,0.23626709,-2.0,0.828125,0.21875
321,1697618805,-0.4650879,-0.8743286,0.24334717,-1.90625,-0.25,0.203125
322,1697618845,-0.45410156,-0.86383057,0.2411499,-1.640625,-1.359375,-0.125
323,1697618885,-0.44091797,-0.8477173,0.2333374,1.078125,-0.78125,0.21875
324,1697618925,-0.44677734,-0.8442993,0.25238037,3.578125,0.71875,0.78125
325,1697618965,-0.48706055,-0.90338135,0.25628662,2.859375,0.984375,1.3125
326,1697619005,-0.4802246,-0.8921509,0.23236084,0.140625,-2.265625,0.4375
327,1697619045,-0.44213867,-0.8467407,0.2477417,1.3125,-1.890625,-1.59375
328,1697619085,-0.45483398,-0.8657837,0.2399292,2.125,0.109375,-0.109375
329,1697619125,-0.4560547,-0.87384033,0.23773193,-1.890625,-1.125,0.71875
330,1697619165,-0.45922852,-0.8765259,0.23114014,-0.984375,-0.0625,0.625
331,1697619205,-0.46118164,-0.89508057,0.24310303,0.765625,0.296875,0.609375
332,1697619245,-0.46704102,-0.8677368,0.2453003,0.015625,-0.859375,0.203125
333,1697619285,-0.45825195,-0.84942627,0.24261475,0.046875,-0.109375,0.09375
334,1697619325,-0.4543457,-0.8640747,0.24627686,-0.078125,0.109375,0.1875
335,1697619365,-0.46606445,-0.87945557,0.24334717,0.5,-0.5,0.515625
336,1697619405,-0.46069336,-0.87457275,0.23553467,0.5625,-1.03125,0.375
337,1697619445,-0.45263672,-0.8621216,0.23846436,0.546875,-0.34375,0.078125
338,1697619485,-0.46704102,-0.87677,0.23284912,0.6875,0.015625,0.515625
339,1697619525,-0.46264648,-0.8740845,0.24066162,0.265625,-0.25,0.1875
340,1697619565,-0.4555664,-0.8748169,0.23699951,0.65625,-0.28125,0.59375
341,1697619605,-0.44970703,-0.8755493,0.23602295,-0.28125,-0.25,0.21875
342,1697619645,-0.4597168,-0.8726196,0.23968506,-0.015625,-0.171875,0.15625
343,1697619685,-0.45898438,-0.87164307,0.2374878,1.28125,-0.53125,0.484375
344,1697619725,-0.47460938,-0.8713989,0.23577881,1.75,-0.859375,0.671875
345,1697619765,-0.45776367,-0.8777466,0.22796631,-0.375,-1.25,-0.03125
346,1697619805,-0.44995117,-0.8858032,0.22991943,-1.109375,-1.0625,-0.515625
347,1697619845,-0.45166016,-0.8706665,0.23846436,0.4375,-0.21875,0.109375
348,1697619885,-0.45751953,-0.8674927,0.23504639,0.59375,-0.21875,0.53125
349,1697619925,-0.45776367,-0.86505127,0.24017334,0.46875,-0.15625,0.515625
350,1697619965,-0.45776367,-0.8765259,0.23431396,-0.078125,-0.65625,0.375
351,1697620005,-0.45458984,-0.87091064,0.23822021,1.265625,-0.078125,-0.078125
352,1697620045,-0.46166992,-0.8814087,0.22821045,-1.046875,-1.34375,0.0
353,1697620085,-0.44335938,-0.8621216,0.23797607,-0.25,-0.625,-0.328125
354,1697620125,-0.46655273,-0.8870239,0.23797607,1.40625,-0.25,0.3125
355,1697620165,-0.45874023,-0.8821411,0.23382568,-0.203125,-1.578125,-0.171875
356,1697620205,-0.4494629,-0.86383057,0.2267456,-0.359375,-0.796875,-0.25
357,1697620245,-0.46142578,-0.86798096,0.22503662,-0.53125,-0.1875,0.140625
358,1697620285,-0.4597168,-0.8748169,0.2399292,0.125,-0.515625,-0.046875
359,1697620325,-0.4638672,-0.8921509,0.2321167,-0.234375,-0.203125,0.703125
360,1697620365,-0.45410156,-0.8609009,0.22650146,0.15625,-0.59375,0.234375
361,1697620405,-0.45898438,-0.87164307,0.23797607,0.078125,0.6875,0.125
362,1697620445,-0.46606445,-0.8718872,0.24188232,0.140625,-0.484375,0.15625
363,1697620485,-0.45629883,-0.8543091,0.23602295,1.078125,-1.109375,0.28125
364,1697620525,-0.4650879,-0.8845825,0.23016357,0.71875,0.046875,0.71875
365,1697620565,-0.45922852,-0.8892212,0.22210693,-1.125,-1.484375,-0.109375
366,1697620605,-0.45483398,-0.8804321,0.23309326,0.078125,-0.90625,-0.5625
367,1697620645,-0.46313477,-0.86846924,0.23309326,1.125,0.453125,0.328125
368,1697620685,-0.45922852,-0.8731079,0.23675537,0.203125,-0.3125,0.46875
369,1697620725,-0.45874023,-0.87457275,0.23675537,0.1875,-0.84375,0.421875
370,1697620765,-0.45458984,-0.8718872,0.22991943,0.96875,-0.796875,0.109375
371,1697620805,-0.44921875,-0.86846924,0.2218628,0.046875,-1.15625,-0.328125
372,1697620845,-0.4543457,-0.86798096,0.22381592,-0.3125,-0.296875,0.015625
373,1697620885,-0.47021484,-0.88067627,0.2321167,-0.296875,0.546875,0.796875
374,1697620925,-0.45898438,-0.88653564,0.22991943,-1.25,1.234375,1.15625
375,1697620965,-0.47143555,-0.89263916,0.26116943,0.28125,1.0,0.65625
376,1697621005,-0.4724121,-0.90704346,0.23675537,-4.125,-0.953125,0.328125
377,1697621045,-0.44482422,-0.83721924,0.22259521,-5.046875,-1.328125,-0.953125
378,1697621085,-0.45385742,-0.8674927,0.26116943,-2.140625,1.0625,-0.203125
379,1697621125,-0.46899414,-0.8911743,0.24676514,-4.6875,1.015625,0.421875
380,1697621165,-0.4621582,-0.8633423,0.246521,-4.453125,-1.359375,-0.125
381,1697621205,-0.4350586,-0.84576416,0.25946045,-0.71875,-1.1875,-0.453125
382,1697621245,-0.4404297,-0.8423462,0.2506714,1.25,-0.03125,0.15625
383,1697621285,-0.45263672,-0.8596802,0.24993896,0.328125,-0.875,0.84375
384,1697621325,-0.46313477,-0.8652954,0.26776123,2.15625,-0.84375,0.71875
385,1697621365,-0.4790039,-0.9031372,0.24359131,1.453125,-0.796875,0.53125
386,1697621405,-0.44873047,-0.8623657,0.24676514,2.046875,-1.984375,-0.890625
387,1697621445,-0.44873047,-0.85772705,0.25115967,3.515625,1.578125,0.15625
388,1697621485,-0.47509766,-0.8755493,0.25286865,0.71875,0.015625,1.484375
389,1697621525,-0.46972656,-0.880188,0.23944092,-1.5,-2.375,-0.1875
390,1697621565,-0.44604492,-0.88287354,0.24334717,-0.765625,-1.453125,-0.5625
391,1697621605,-0.45458984,-0.86309814,0.25042725,2.078125,0.265625,0.1875
392,1697621645,-0.46655273,-0.8701782,0.24993896,1.171875,0.109375,0.6875
393,1697621685,-0.46142578,-0.8731079,0.2387085,-0.984375,-1.21875,0.421875
394,1697621725,-0.45703125,-0.8753052,0.23602295,-0.4375,-0.84375,-0.21875
395,1697621765,-0.45336914,-0.8723755,0.25360107,0.859375,-0.4375,0.0625
396,1697621805,-0.46289062,-0.8753052,0.24163818,1.515625,-0.96875,0.40625
397,1697621845,-0.4580078,-0.8596802,0.2230835,-0.21875,-1.34375,-0.078125
398,1697621885,-0.45751953,-0.86724854,0.24139404,0.546875,0.765625,0.21875
399,1697621925,-0.46606445,-0.9006958,0.2514038,0.59375,0.328125,0.859375
400,1697621965,-0.45288086,-0.8711548,0.24090576,-1.015625,-1.890625,-0.03125
401,1697622005,-0.4560547,-0.8496704,0.23699951,0.390625,0.328125,0.4375
402,1697622045,-0.4609375,-0.87164307,0.23602295,-0.328125,0.015625,0.546875
403,1697622085,-0.45654297,-0.86846924,0.24676514,0.328125,-1.0,-0.609375
404,1697622125,-0.46289062,-0.88409424,0.25579834,0.671875,-0.328125,0.75
405,1697622165,-0.4638672,-0.86016846,0.23699951,0.875,-0.6875,0.609375
406,1697622205,-0.4633789,-0.8735962,0.22943115,-0.5,-0.46875,-0.09375
407,1697622245,-0.45263672,-0.88409424,0.24359131,-0.1875,-0.75,0.03125
408,1697622285,-0.46191406,-0.87213135,0.2453003,0.890625,-0.21875,0.65625
409,1697622325,-0.45947266,-0.86602783,0.23626709,0.25,-1.0,0.359375
410,1697622365,-0.45336914,-0.8735962,0.24041748,-0.796875,-0.484375,0.09375
411,1697622405,-0.4543457,-0.8821411,0.24017334,0.125,-0.0625,0.171875
412,1697622445,-0.45336914,-0.87994385,0.24407959,0.875,-0.59375,0.109375
413,1697622485,-0.45825195,-0.86676025,0.2387085,0.71875,-0.96875,0.1875
414,1697622525,-0.45703125,-0.87042236,0.23797607,0.0625,-0.71875,0.234375
415,1697622565,-0.4567871,-0.8826294,0.23651123,0.0625,-0.640625,0.03125
416,1697622605,-0.46020508,-0.8740845,0.2333374,-0.21875,-0.765625,0.125
417,1697622645,-0.45922852,-0.8718872,0.23309326,0.53125,-0.34375,0.21875
418,1697622685,-0.45996094,-0.8723755,0.23944092,0.734375,-0.359375,0.1875
419,1697622725,-0.46875,-0.8792114,0.2399292,0.859375,-0.46875,0.296875
420,1697622765,-0.45898438,-0.8694458,0.23358154,-0.109375,-1.453125,-0.125
421,1697622805,-0.45214844,-0.85943604,0.22894287,0.78125,-0.546875,0.015625
422,1697622845,-0.46533203,-0.8880005,0.24090576,1.71875,0.046875,0.515625
423,1697622885,-0.46411133,-0.8911743,0.2374878,-0.875,-1.0,-0.078125
424,1697622925,-0.4572754,-0.8609009,0.23480225,0.171875,-0.296875,0.3125
425,1697622965,-0.4650879,-0.8623657,0.23529053,0.8125,-0.0625,0.21875
426,1697623005,-0.46704102,-0.8870239,0.23187256,-0.59375,-0.96875,0.078125
427,1697623045,-0.4638672,-0.8875122,0.23114014,-2.046875,-0.9375,0.09375
428,1697623085,-0.44799805,-0.8621216,0.24334717,0.25,-0.40625,-0.265625
429,1697623125,-0.45581055,-0.8657837,0.2399292,2.046875,0.3125,0.53125
430,1697623165,-0.4724121,-0.87213135,0.23016357,1.0,-0.53125,0.703125
431,1697623205,-0.45532227,-0.88726807,0.22747803,-0.421875,-0.5,0.828125
432,1697623245,-0.44799805,-0.8862915,0.23846436,0.171875,-0.671875,-0.125
433,1697623285,-0.45654297,-0.8792114,0.23187256,0.46875,-0.734375,-0.25
434,1697623325,-0.45703125,-0.86724854,0.22210693,0.09375,-0.546875,0.328125
435,1697623365,-0.45092773,-0.8623657,0.23431396,1.140625,-0.1875,0.21875
436,1697623405,-0.46166992,-0.86676025,0.23284912,2.328125,-0.515625,0.609375
437,1697623445,-0.46606445,-0.8850708,0.22601318,0.3125,-1.75,0.265625
438,1697623485,-0.45410156,-0.8772583,0.21429443,-0.265625,-1.4375,-0.28125
439,1697623525,-0.4584961,-0.87994385,0.22113037,0.25,0.0625,0.078125
440,1697623565,-0.4645996,-0.8821411,0.22406006,0.40625,-0.125,0.1875
441,1697623605,-0.46118164,-0.87994385,0.23016357,-0.796875,-0.453125,0.265625
442,1697623645,-0.4560547,-0.866272,0.23016357,-0.796875,-0.359375,0.03125
443,1697623685,-0.46044922,-0.8677368,0.23529053,1.359375,0.3125,0.328125
444,1697623725,-0.45385742,-0.86553955,0.21746826,-0.6875,-1.8125,0.078125
445,1697623765,-0.45141602,-0.85284424,0.21966553,-1.109375,-0.953125,-0.671875
446,1697623805,-0.4675293,-0.88531494,0.23724365,1.5,0.71875,0.515625
447,1697623845,-0.4711914,-0.8994751,0.23553467,0.4375,-0.28125,0.78125
448,1697623885,-0.45385742,-0.8609009,0.22454834,0.5,-0.828125,0.578125
449,1697623925,-0.45288086,-0.86065674,0.23040771,2.109375,0.109375,0.609375
450,1697623965,-0.4572754,-0.8755493,0.2267456,1.40625,-0.5625,-0.125
451,1697624005,-0.46533203,-0.89190674,0.22625732,-0.34375,-0.90625,0.21875
452,1697624045,-0.45458984,-0.8789673,0.22088623,-0.703125,-1.015625,-0.34375
453,1697624085,-0.45166016,-0.8779907,0.22772217,-0.578125,-0.109375,-0.28125
454,1697624125,-0.46606445,-0.8843384,0.22796631,0.21875,0.0625,0.421875
455,1697624165,-0.4543457,-0.86431885,0.21990967,-0.515625,-1.125,0.078125
456,1697624205,-0.44702148,-0.8648071,0.22698975,0.0625,0.234375,0.21875
457,1697624245,-0.46191406,-0.88360596,0.23284912,-0.203125,-0.203125,0.21875
458,1697624285,-0.45654297,-0.8677368,0.22576904,1.109375,-1.28125,0.515625
459,1697624325,-0.4609375,-0.87286377,0.2321167,2.53125,-0.71875,0.46875
460,1697624365,-0.46728516,-0.8953247,0.21453857,-0.203125,-0.8125,0.234375
461,1697624405,-0.4572754,-0.8821411,0.21917725,-0.875,-1.34375,-0.328125
462,1697624445,-0.45361328,-0.87286377,0.21966553,0.234375,-0.203125,-0.484375
463,1697624485,-0.46240234,-0.87506104,0.22235107,0.0,-0.28125,0.421875
464,1697624525,-0.46264648,-0.8748169,0.20697021,-0.65625,-0.46875,0.328125
465,1697624565,-0.45629883,-0.8640747,0.21990967,-0.03125,-0.1875,0.34375
466,1697624605,-0.45996094,-0.87457275,0.23114014,0.296875,-0.078125,0.234375
467,1697624645,-0.46118164,-0.880188,0.22479248,-0.46875,-0.484375,0.484375
468,1697624685,-0.4621582,-0.8735962,0.23016357,1.6875,0.046875,0.484375
469,1697624725,-0.45581055,-0.88604736,0.21990967,-0.5,-0.71875,0.0
470,1697624765,-0.45141602,-0.8616333,0.22137451,-0.515625,-0.84375,-0.625
471,1697624805,-0.4560547,-0.8726196,0.23602295,3.296875,0.09375,0.8125
472,1697624845,-0.4736328,-0.897522,0.22015381,-0.75,-0.578125,0.625
473,1697624885,-0.46044922,-0.87164307,0.2164917,-2.140625,-1.21875,-0.4375
474,1697624925,-0.4567871,-0.86724854,0.22454834,0.984375,0.40625,0.3125
475,1697624965,-0.46533203,-0.8726196,0.2296753,1.0625,-0.78125,-0.15625
476,1697625005,-0.46704102,-0.87335205,0.22747803,0.015625,-0.984375,0.625
477,1697625045,-0.45947266,-0.8701782,0.21356201,-0.03125,-0.234375,0.484375
478,1697625085,-0.45507812,-0.87945557,0.2189331,-0.109375,0.078125,-0.15625
479,1697625125,-0.46655273,-0.87091064,0.2255249,-0.171875,-0.609375,-0.046875
480,1697625165,-0.4560547,-0.8772583,0.21209717,-0.640625,-0.953125,0.234375
481,1697625205,-0.4572754,-0.86260986,0.22015381,-0.046875,-0.078125,0.3125
482,1697625245,-0.46166992,-0.8809204,0.21380615,-0.53125,-0.109375,0.0625
483,1697625285,-0.4572754,-0.8694458,0.21600342,-0.609375,0.109375,-0.078125
484,1697625325,-0.46557617,-0.878479,0.24725342,-0.53125,1.40625,0.515625
485,1697625365,-0.47705078,-0.8960571,0.22991943,-0.453125,-0.25,0.34375
486,1697625405,-0.4572754,-0.8748169,0.22576904,-3.0625,-1.9375,-0.6875
487,1697625445,-0.4416504,-0.8621216,0.22796631,-3.53125,0.859375,0.0625
488,1697625485,-0.4584961,-0.87945557,0.23504639,-0.265625,1.96875,1.46875
489,1697625525,-0.4609375,-0.8845825,0.23797607,-2.203125,-0.46875,0.515625
490,1697625565,-0.46142578,-0.8689575,0.2477417,-2.84375,-1.125,-0.5
491,1697625605,-0.45947266,-0.8711548,0.24261475,-2.828125,0.171875,-0.015625
492,1697625645,-0.45874023,-0.8674927,0.2506714,-2.828125,-0.234375,0.015625
493,1697625685,-0.46362305,-0.8814087,0.2501831,-4.15625,-0.484375,-0.265625
494,1697625725,-0.45751953,-0.8723755,0.25408936,-3.90625,-0.78125,-0.71875
495,1697625765,-0.44799805,-0.85406494,0.25091553,-1.09375,-0.734375,-0.4375
496,1697625805,-0.4560547,-0.85113525,0.25408936,-0.609375,-0.28125,0.078125
497,1697625845,-0.44335938,-0.84259033,0.2387085,0.390625,-1.4375,0.1875
498,1697625885,-0.46044922,-0.85894775,0.26971436,3.203125,0.28125,0.515625
499,1697625925,-0.47729492,-0.8897095,0.2699585,1.796875,0.59375,1.25
500,1697625965,-0.47705078,-0.87872314,0.23553467,-0.4375,-2.28125,0.203125
501,1697626005,-0.4423828,-0.8440552,0.26678467,3.34375,-1.25,-1.0625
502,1697626045,-0.46264648,-0.8779907,0.25897217,0.921875,0.8125,0.484375
503,1697626085,-0.46044922,-0.87042236,0.24285889,-1.1875,-1.75,0.125
504,1697626125,-0.4584961,-0.86309814,0.24969482,0.34375,-1.0,0.0
505,1697626165,-0.45996094,-0.86846924,0.24603271,0.9375,-0.1875,0.109375
506,1697626205,-0.4567871,-0.85406494,0.23797607,0.875,-0.578125,0.03125
507,1697626245,-0.45996094,-0.85723877,0.25701904,0.5625,0.609375,0.75
508,1697626285,-0.4716797,-0.881897,0.25164795,-0.84375,-0.3125,0.65625
509,1697626325,-0.46118164,-0.88116455,0.24676514,0.046875,-1.375,0.09375
510,1697626365,-0.4560547,-0.87286377,0.24603271,1.0625,-0.140625,0.234375
511,1697626405,-0.4584961,-0.85528564,0.2555542,1.3125,-0.140625,0.375
512,1697626445,-0.4638672,-0.86431885,0.24285889,0.890625,-0.484375,0.390625
513,1697626485,-0.4658203,-0.88067627,0.2477417,-1.171875,-1.125,0.015625
514,1697626525,-0.45336914,-0.87628174,0.24603271,-0.734375,-1.234375,-0.234375
515,1697626565,-0.46679688,-0.87872314,0.25335693,0.328125,0.375,0.109375
516,1697626605,-0.46289062,-0.8713989,0.2518921,0.796875,-0.0625,0.671875
517,1697626645,-0.4638672,-0.87286377,0.23626709,-0.03125,-0.359375,0.171875
518,1697626685,-0.4501953,-0.8521118,0.24822998,0.15625,-0.328125,-0.078125
519,1697626725,-0.47558594,-0.87750244,0.25579834,1.640625,0.3125,0.875
520,1697626765,-0.4621582,-0.8755493,0.23968506,-1.25,-1.59375,-0.03125
521,1697626805,-0.46484375,-0.86968994,0.23602295,0.234375,-0.515625,-0.21875
522,1697626845,-0.4675293,-0.88897705,0.25238037,1.234375,-0.15625,0.375
523,1697626885,-0.45483398,-0.86309814,0.24432373,-0.21875,-1.125,0.203125
524,1697626925,-0.46166992,-0.85894775,0.23382568,-0.484375,0.859375,0.8125
525,1697626965,-0.45922852,-0.8599243,0.25335693,0.484375,0.15625,0.625
526,1697627005,-0.46313477,-0.8740845,0.2514038,1.1875,-0.6875,0.125
527,1697627045,-0.46826172,-0.87677,0.24334717,-0.375,-1.15625,0.03125
528,1697627085,-0.45703125,-0.86724854,0.24212646,-0.4375,-0.390625,-0.34375
529,1697627125,-0.46166992,-0.87213135,0.24334717,-0.1875,0.8125,0.328125
530,1697627165,-0.46411133,-0.8706665,0.246521,-0.390625,-0.6875,-0.03125
531,1697627205,-0.45361328,-0.8579712,0.24285889,-0.453125,-0.390625,0.421875
532,1697627245,-0.4580078,-0.86309814,0.24407959,0.75,0.515625,0.609375
533,1697627285,-0.46533203,-0.8748169,0.25091553,-0.3125,-0.09375,0.484375
534,1697627325,-0.47265625,-0.89434814,0.262146,-2.078125,0.46875,0.375
535,1697627365,-0.47021484,-0.8948364,0.25872803,-2.015625,-1.0,0.140625
536,1697627405,-0.45385742,-0.87091064,0.25213623,-1.578125,-1.34375,-0.6875
537,1697627445,-0.44848633,-0.8665161,0.2584839,-3.0625,-0.265625,-0.421875
538,1697627485,-0.45825195,-0.8765259,0.2592163,-3.578125,0.9375,0.484375
539,1697627525,-0.46240234,-0.86846924,0.25604248,-2.515625,0.09375,0.546875
540,1697627565,-0.45263672,-0.8596802,0.26263428,-2.09375,-1.0625,-0.234375
541,1697627605,-0.44726562,-0.8555298,0.25213623,-1.171875,-0.796875,0.015625
542,1697627645,-0.44067383,-0.8418579,0.2597046,0.96875,-0.453125,0.359375
543,1697627685,-0.45898438,-0.8555298,0.27264404,1.890625,0.375,0.9375
544,1697627725,-0.47680664,-0.8882446,0.26971436,1.75,0.0625,0.90625
545,1697627765,-0.46240234,-0.8748169,0.25750732,1.625,-1.984375,0.109375
546,1697627805,-0.4489746,-0.8623657,0.2555542,1.890625,-1.109375,-0.59375
547,1697627845,-0.453125,-0.8694458,0.26385498,0.609375,0.4375,-0.125
548,1697627885,-0.47094727,-0.8826294,0.2592163,-0.21875,-1.25,0.265625
549,1697627925,-0.45874023,-0.8850708,0.25897217,-1.359375,-1.453125,0.15625
550,1697627965,-0.44873047,-0.8533325,0.26116943,0.859375,0.078125,0.3125
551,1697628005,-0.4580078,-0.8545532,0.2506714,2.375,0.609375,0.703125
552,1697628045,-0.46801758,-0.8599243,0.26922607,2.46875,-0.796875,0.328125
553,1697628085,-0.45996094,-0.88604736,0.24383545,-0.078125,-1.1875,0.078125
554,1697628125,-0.4519043,-0.86016846,0.2526245,0.28125,-0.765625,-0.5625
555,1697628165,-0.46704102,-0.87579346,0.25531006,-0.046875,0.4375,0.3125
556,1697628205,-0.46826172,-0.87677,0.25408936,0.28125,-1.09375,0.3125
557,1697628245,-0.44921875,-0.8674927,0.25042725,0.265625,-0.375,0.171875
558,1697628285,-0.45776367,-0.8616333,0.25091553,0.78125,-0.203125,0.546875
559,1697628325,-0.46142578,-0.86846924,0.25286865,-1.140625,-0.734375,-0.03125
560,1697628365,-0.45776367,-0.8731079,0.25897217,-0.734375,-0.40625,0.21875
561,1697628405,-0.45922852,-0.8723755,0.246521,0.9375,0.09375,0.65625
562,1697628445,-0.4560547,-0.86505127,0.25115967,0.828125,-0.78125,-0.015625
563,1697628485,-0.4555664,-0.8677368,0.25238037,0.359375,-0.546875,0.1875
564,1697628525,-0.4572754,-0.87042236,0.25408936,0.109375,-0.453125,0.203125
565,1697628565,-0.4580078,-0.8677368,0.24505615,0.15625,-1.046875,0.203125
566,1697628605,-0.45458984,-0.86968994,0.24920654,0.46875,-0.46875,-0.0625
567,1697628645,-0.46557617,-0.8804321,0.25042725,0.921875,-0.453125,0.5625
568,1697628685,-0.45507812,-0.8648071,0.24969482,0.359375,-0.84375,0.265625
569,1697628725,-0.45458984,-0.8706665,0.24163818,0.40625,-0.296875,0.15625
570,1697628765,-0.45947266,-0.87506104,0.24822998,0.765625,-0.328125,0.09375
571,1697628805,-0.46264648,-0.8809204,0.24603271,0.59375,-0.171875,0.6875
572,1697628845,-0.453125,-0.8694458,0.23065186,-1.359375,-0.140625,0.171875
573,1697628885,-0.45141602,-0.8587036,0.24383545,0.109375,1.734375,0.609375
574,1697628925,-0.4650879,-0.8904419,0.2645874,1.921875,1.40625,1.390625
575,1697628965,-0.4658203,-0.88726807,0.2567749,-1.125,-1.15625,0.46875
576,1697629005,-0.45996094,-0.8460083,0.2526245,0.140625,-0.5,0.296875
577,1697629045,-0.45239258,-0.8530884,0.24505615,1.84375,-0.9375,0.015625
578,1697629085,-0.45654297,-0.8833618,0.25823975,2.046875,-0.9375,-0.1875
579,1697629125,-0.46533203,-0.9006958,0.24481201,1.828125,-0.453125,0.0625
580,1697629165,-0.45996094,-0.8689575,0.22991943,-0.609375,-2.671875,-0.953125
581,1697629205,-0.4477539,-0.85162354,0.24163818,0.59375,-0.78125,-0.625
582,1697629245,-0.4609375,-0.88067627,0.24090576,0.0625,-0.015625,0.828125
583,1697629285,-0.45996094,-0.8789673,0.2411499,0.125,-1.265625,0.125
584,1697629325,-0.45922852,-0.86676025,0.23919678,0.9375,-0.84375,-0.234375
585,1697629365,-0.45092773,-0.85601807,0.23724365,0.03125,-0.890625,-0.296875
586,1697629405,-0.4580078,-0.87506104,0.24041748,-0.015625,0.03125,0.421875
587,1697629445,-0.46899414,-0.89190674,0.2374878,-0.734375,0.296875,0.890625
588,1697629485,-0.46142578,-0.87506104,0.24285889,0.375,-0.75,-0.015625
589,1697629525,-0.4555664,-0.86138916,0.24334717,1.390625,-0.515625,-0.03125
590,1697629565,-0.4543457,-0.8562622,0.23162842,0.46875,-0.296875,0.59375
591,1697629605,-0.46411133,-0.8718872,0.23602295,-1.359375,-0.5,0.265625
592,1697629645,-0.45507812,-0.8735962,0.24603271,0.078125,-0.765625,0.015625
593,1697629685,-0.46264648,-0.87213135,0.2411499,1.625,-0.4375,0.078125
594,1697629725,-0.46313477,-0.86920166,0.23431396,0.453125,-0.40625,0.234375
595,1697629765,-0.4645996,-0.8779907,0.24359131,0.0,-0.890625,0.25
596,1697629805,-0.45507812,-0.8753052,0.23895264,0.03125,-0.25,0.359375
597,1697629845,-0.4633789,-0.8665161,0.2411499,1.53125,-0.453125,-0.171875
598,1697629885,-0.4609375,-0.87384033,0.22601318,-0.9375,-1.375,0.140625
599,1697629925,-0.46069336,-0.86138916,0.22210693,-0.625,-0.59375,-0.265625
600,1697629965,-0.4609375,-0.8936157,0.23919678,1.609375,0.4375,0.703125
601,1697630005,-0.4645996,-0.88360596,0.24945068,0.09375,-0.390625,0.3125
602,1697630045,-0.45532227,-0.85894775,0.2296753,-0.453125,-0.421875,0.359375
603,1697630085,-0.4645996,-0.8579712,0.23162842,0.328125,0.15625,0.40625
604,1697630125,-0.45922852,-0.8753052,0.23944092,0.03125,-0.625,-0.140625
605,1697630165,-0.4580078,-0.88116455,0.2321167,-0.171875,-0.53125,0.28125
606,1697630205,-0.45483398,-0.86431885,0.23577881,0.671875,-0.625,0.375
607,1697630245,-0.4633789,-0.8621216,0.23577881,1.40625,0.34375,0.6875
608,1697630285,-0.47338867,-0.89434814,0.23382568,-0.09375,-0.40625,0.359375
609,1697630325,-0.453125,-0.8826294,0.22650146,-0.59375,-1.4375,0.0625
610,1697630365,-0.44628906,-0.86065674,0.23577881,1.328125,0.328125,0.234375
611,1697630405,-0.46557617,-0.86431885,0.23919678,0.796875,-0.328125,0.46875
612,1697630445,-0.4567871,-0.87164307,0.23406982,0.421875,-1.25,0.296875
613,1697630485,-0.45629883,-0.8880005,0.23187256,0.671875,-0.78125,0.140625
614,1697630525,-0.46142578,-0.87872314,0.22210693,0.5625,-1.0,-0.328125
615,1697630565,-0.45654297,-0.8677368,0.21942139,-0.65625,-1.171875,-0.65625
616,1697630605,-0.4638672,-0.8760376,0.23919678,-0.34375,0.6875,0.375
617,1697630645,-0.47021484,-0.88409424,0.2333374,0.28125,-0.296875,0.875
618,1697630685,-0.45874023,-0.87823486,0.23016357,0.421875,-1.234375,-0.03125
619,1697630725,-0.4567871,-0.8682251,0.22625732,-0.109375,-0.25,-0.03125
620,1697630765,-0.45776367,-0.8665161,0.2296753,-0.109375,-0.34375,0.265625
621,1697630805,-0.4501953,-0.86138916,0.2321167,0.34375,-0.359375,0.265625
622,1697630845,-0.46362305,-0.8740845,0.2345581,1.03125,0.90625,0.921875
623,1697630885,-0.46362305,-0.8899536,0.22137451,-1.546875,-0.328125,0.421875
624,1697630925,-0.45336914,-0.8887329,0.25701904,0.453125,0.671875,-0.171875
625,1697630965,-0.47265625,-0.892395,0.25042725,-2.0625,1.171875,0.71875
626,1697631005,-0.46533203,-0.8479614,0.23699951,-2.34375,-0.015625,0.453125
627,1697631045,-0.46484375,-0.8789673,0.25579834,-2.796875,-0.265625,0.078125
628,1697631085,-0.45239258,-0.8843384,0.25164795,-5.40625,-0.4375,-0.484375
629,1697631125,-0.45361328,-0.86309814,0.23236084,-3.203125,-0.15625,0.21875
630,1697631165,-0.4482422,-0.85723877,0.24725342,-1.484375,-0.734375,-0.046875
631,1697631205,-0.45336914,-0.85943604,0.2538452,-0.453125,0.140625,0.328125
632,1697631245,-0.46264648,-0.86138916,0.2411499,1.328125,-0.078125,1.125
633,1697631285,-0.4404297,-0.8467407,0.25408936,1.625,-1.34375,0.421875
634,1697631325,-0.4572754,-0.8731079,0.26654053,3.34375,0.046875,0.46875
635,1697631365,-0.47998047,-0.90460205,0.2321167,-0.09375,-2.046875,0.328125
636,1697631405,-0.44335938,-0.85406494,0.23358154,0.09375,-3.71875,-1.5625
637,1697631445,-0.44677734,-0.85772705,0.23675537,2.265625,0.328125,-0.078125
638,1697631485,-0.47045898,-0.88531494,0.23675537,0.46875,-0.171875,0.25
639,1697631525,-0.47021484,-0.90045166,0.25286865,-0.109375,0.71875,0.796875
640,1697631565,-0.45361328,-0.88604736,0.24554443,-0.265625,0.46875,0.984375
641,1697631605,-0.4399414,-0.84869385,0.23797607,2.484375,-1.515625,-0.625
642,1697631645,-0.44970703,-0.835022,0.24188232,2.1875,-0.640625,-0.640625
643,1697631685,-0.47460938,-0.8701782,0.2345581,-0.703125,0.4375,1.046875
644,1697631725,-0.47631836,-0.9104614,0.23504639,-1.484375,-0.984375,0.546875
645,1697631765,-0.4489746,-0.9006958,0.23699951,-0.265625,-1.65625,-0.484375
646,1697631805,-0.45117188,-0.87164307,0.24090576,1.890625,0.1875,0.234375
647,1697631845,-0.4638672,-0.8574829,0.22601318,0.8125,0.28125,0.828125
648,1697631885,-0.4621582,-0.86065674,0.2411499,0.46875,-0.5,0.25
649,1697631925,-0.46020508,-0.8740845,0.23529053,-0.734375,-1.09375,-0.328125
650,1697631965,-0.4555664,-0.87213135,0.23675537,-0.578125,0.5625,0.109375
651,1697632005,-0.45288086,-0.87750244,0.23919678,0.875,-0.3125,0.4375
652,1697632045,-0.4555664,-0.8765259,0.24578857,-0.25,-1.15625,-0.09375
653,1697632085,-0.45483398,-0.8867798,0.2489624,-2.59375,1.234375,0.875
654,1697632125,-0.47851562,-0.8909302,0.2489624,-2.78125,1.828125,1.546875
655,1697632165,-0.45654297,-0.8689575,0.24066162,-0.65625,-2.734375,-0.8125
656,1697632205,-0.44555664,-0.8508911,0.246521,-1.90625,-1.5,-1.234375
657,1697632245,-0.4416504,-0.866272,0.24383545,-3.390625,0.609375,-0.25
658,1697632285,-0.45922852,-0.88409424,0.2489624,-1.84375,1.46875,1.203125
659,1697632325,-0.4663086,-0.88848877,0.26287842,-0.4375,-1.03125,-0.03125
660,1697632365,-0.45703125,-0.8562622,0.24359131,-0.40625,-1.0,-0.125
661,1697632405,-0.4555664,-0.8479614,0.24310303,-0.59375,-0.28125,0.21875
662,1697632445,-0.44677734,-0.8555298,0.25164795,-0.46875,0.03125,0.734375
663,1697632485,-0.45629883,-0.8623657,0.2687378,1.953125,-0.46875,0.53125
664,1697632525,-0.47338867,-0.89849854,0.25726318,2.890625,-1.15625,0.390625
665,1697632565,-0.45654297,-0.86846924,0.23968506,0.890625,-1.640625,0.09375
666,1697632605,-0.45117188,-0.8491821,0.2506714,1.125,-0.328125,-0.03125
667,1697632645,-0.46484375,-0.8735962,0.25408936,0.515625,0.0625,0.265625
668,1697632685,-0.46362305,-0.88482666,0.25091553,-0.765625,-1.484375,0.0625
669,1697632725,-0.45239258,-0.8753052,0.2506714,0.1875,-1.0,-0.234375
670,1697632765,-0.4580078,-0.86968994,0.23895264,-0.3125,-0.859375,-0.0625
671,1697632805,-0.45336914,-0.8518677,0.25335693,1.515625,-0.359375,-0.15625
672,1697632845,-0.46166992,-0.88604736,0.24627686,0.921875,0.03125,0.828125
673,1697632885,-0.4543457,-0.86920166,0.23162842,-0.265625,-1.5,-0.03125
674,1697632925,-0.45458984,-0.8652954,0.22528076,0.6875,-0.640625,-0.46875
675,1697632965,-0.46679688,-0.8875122,0.2477417,0.3125,-0.140625,0.21875
676,1697633005,-0.4645996,-0.8735962,0.24822998,-0.5625,-0.125,0.765625
677,1697633045,-0.46166992,-0.8640747,0.23944092,0.390625,-0.234375,0.625
678,1697633085,-0.4543457,-0.8711548,0.2518921,0.578125,-0.453125,0.03125
679,1697633125,-0.45947266,-0.8735962,0.24676514,0.09375,-0.328125,0.25
680,1697633165,-0.45117188,-0.86260986,0.24603271,0.015625,-0.28125,0.765625
681,1697633205,-0.45922852,-0.8596802,0.24334717,0.375,0.0,0.5625
682,1697633245,-0.4633789,-0.8831177,0.24749756,0.5,-0.734375,0.375
683,1697633285,-0.4621582,-0.8726196,0.2374878,-0.28125,-1.265625,-0.078125
684,1697633325,-0.45825195,-0.8713989,0.2387085,1.21875,-0.28125,0.34375
685,1697633365,-0.46362305,-0.8726196,0.24334717,0.265625,-0.375,0.25
686,1697633405,-0.45898438,-0.87091064,0.2321167,-0.59375,-0.640625,-0.078125
687,1697633445,-0.4560547,-0.8760376,0.2489624,0.28125,-0.25,0.046875
688,1697633485,-0.46313477,-0.86968994,0.24432373,0.171875,-0.53125,0.109375
689,1697633525,-0.45776367,-0.86309814,0.23773193,0.09375,-0.671875,-0.078125
690,1697633565,-0.46020508,-0.8731079,0.24456787,-0.453125,-0.09375,0.171875
691,1697633605,-0.46557617,-0.87384033,0.2423706,-0.109375,-0.28125,0.46875
692,1697633645,-0.4560547,-0.85943604,0.24163818,0.734375,-0.890625,0.125
693,1697633685,-0.45458984,-0.86798096,0.23529053,0.65625,-0.671875,0.4375
694,1697633725,-0.45507812,-0.8699341,0.2399292,1.296875,-0.03125,0.515625
695,1697633765,-0.46801758,-0.8740845,0.24822998,0.65625,-0.59375,0.203125
696,1697633805,-0.4658203,-0.87872314,0.2411499,1.03125,-1.140625,-0.078125
697,1697633845,-0.45825195,-0.8796997,0.2255249,-0.90625,-1.640625,-0.3125
698,1697633885,-0.4489746,-0.85772705,0.23553467,0.28125,0.375,-0.453125
699,1697633925,-0.46411133,-0.8779907,0.24090576,1.34375,-0.0625,0.640625
700,1697633965,-0.4555664,-0.87286377,0.23773193,-0.984375,-1.078125,-0.015625
701,1697634005,-0.46191406,-0.86798096,0.2387085,-0.5,0.484375,0.359375
702,1697634045,-0.4675293,-0.8711548,0.23968506,0.578125,0.171875,0.578125
703,1697634085,-0.46044922,-0.8599243,0.24310303,0.859375,-1.5625,-0.296875
704,1697634125,-0.4584961,-0.8880005,0.22576904,-0.203125,-0.703125,0.5
705,1697634165,-0.44970703,-0.85162354,0.2399292,0.640625,-0.015625,0.484375
706,1697634205,-0.46118164,-0.878479,0.23895264,0.21875,0.578125,0.625
707,1697634245,-0.46411133,-0.8755493,0.2411499,0.84375,-1.28125,0.0625
708,1697634285,-0.4543457,-0.8701782,0.23162842,0.546875,-0.859375,0.59375
709,1697634325,-0.45361328,-0.8699341,0.23138428,0.765625,0.171875,0.625
710,1697634365,-0.4638672,-0.8850708,0.22088623,-0.09375,-0.640625,0.203125
711,1697634405,-0.4543457,-0.8694458,0.23431396,-0.3125,-0.5,-0.21875
712,1697634445,-0.45629883,-0.87628174,0.2411499,0.546875,0.6875,0.46875
713,1697634485,-0.46020508,-0.8755493,0.24456787,0.328125,-0.125,0.640625
714,1697634525,-0.46069336,-0.8677368,0.23968506,0.53125,-1.296875,0.0
715,1697634565,-0.45117188,-0.866272,0.22894287,0.53125,-0.609375,-0.03125
716,1697634605,-0.45410156,-0.86602783,0.23309326,0.765625,-0.46875,0.125
717,1697634645,-0.46435547,-0.8735962,0.23260498,0.140625,-0.84375,0.109375
718,1697634685,-0.46264648,-0.88067627,0.21673584,-0.875,-1.78125,-0.078125
719,1697634725,-0.45043945,-0.86602783,0.22259521,0.21875,-0.625,-0.21875
720,1697634765,-0.46484375,-0.87945557,0.23504639,0.328125,0.5625,0.828125
721,1697634805,-0.45703125,-0.86676025,0.23626709,1.0,-0.546875,0.484375
722,1697634845,-0.46411133,-0.8833618,0.22479248,0.171875,-1.1875,-0.078125
723,1697634885,-0.4543457,-0.8670044,0.22283936,-0.90625,-0.640625,-0.4375
724,1697634925,-0.46435547,-0.87457275,0.22821045,0.9375,-0.015625,0.203125
725,1697634965,-0.47192383,-0.89849854,0.23236084,-0.453125,-0.890625,0.46875
726,1697635005,-0.45141602,-0.85601807,0.22137451,-1.28125,-1.09375,-0.015625
727,1697635045,-0.45629883,-0.8604126,0.2321167,0.734375,0.890625,0.453125
728,1697635085,-0.46801758,-0.87091064,0.23358154,1.25,-0.0625,0.765625
729,1697635125,-0.46557617,-0.87579346,0.2230835,0.0,-1.328125,0.328125
730,1697635165,-0.44555664,-0.87628174,0.2255249,-0.453125,-0.5625,0.125
731,1697635205,-0.4572754,-0.8694458,0.22918701,0.359375,0.765625,0.421875
732,1697635245,-0.46484375,-0.88897705,0.23431396,1.234375,-0.484375,0.28125
733,1697635285,-0.45922852,-0.87042236,0.2243042,0.546875,-1.796875,0.0
734,1697635325,-0.4560547,-0.8657837,0.21624756,-0.453125,-0.640625,0.203125
735,1697635365,-0.45874023,-0.8713989,0.22772217,-0.015625,-0.109375,-0.09375
736,1697635405,-0.4609375,-0.8753052,0.23016357,-1.09375,-0.640625,-0.21875
737,1697635445,-0.4645996,-0.8765259,0.23919678,0.0,0.0625,0.421875
738,1697635485,-0.45825195,-0.880188,0.22332764,0.078125,-0.3125,0.421875
739,1697635525,-0.45361328,-0.85943604,0.22943115,0.921875,-0.421875,0.078125
740,1697635565,-0.46020508,-0.8845825,0.22625732,0.171875,0.234375,0.28125
741,1697635605,-0.45703125,-0.8755493,0.22601318,0.4375,-0.890625,0.34375
742,1697635645,-0.46044922,-0.8706665,0.23162842,0.375,-1.046875,0.125
743,1697635685,-0.4543457,-0.86846924,0.22528076,0.671875,-0.734375,0.234375
