# Sensor type: Respeck
# Activity type: Sitting
# Activity subtype: Eating
# Subject id: s2023501
# Notes: 
timestamp,accel_x,accel_y,accel_z,gyro_x,gyro_y,gyro_z
1695990485559,-0.1418457,-0.69537354,0.7147827,-0.21875,-1.046875,0.296875
1695990485595,-0.13256836,-0.7190552,0.7340698,1.859375,0.515625,-0.734375
1695990485617,-0.11621094,-0.72076416,0.7313843,0.421875,-0.078125,-2.328125
1695990485663,-0.10644531,-0.6939087,0.72869873,-0.328125,-0.84375,-1.578125
1695990485708,-0.14428711,-0.6868286,0.7272339,-1.421875,-0.609375,-0.796875
1695990485736,-0.17041016,-0.6904907,0.73724365,-0.3125,-0.484375,0.234375
1695990485782,-0.15625,-0.7058716,0.7416382,0.578125,-0.5,0.3125
1695990485827,-0.1418457,-0.7073364,0.727478,-1.796875,0.65625,-0.265625
1695990485857,-0.1237793,-0.6980591,0.7369995,2.046875,0.21875,-1.3125
1695990485905,-0.13427734,-0.6970825,0.7369995,0.90625,1.296875,-1.03125
1695990485932,-0.14013672,-0.694397,0.73480225,-1.4375,0.40625,-0.109375
1695990485996,-0.1508789,-0.70269775,0.74871826,1.984375,-1.09375,0.828125
1695990486022,-0.14526367,-0.7085571,0.7411499,2.453125,-1.046875,0.640625
1695990486052,-0.14257812,-0.6980591,0.73651123,1.046875,-0.59375,0.015625
1695990486097,-0.15234375,-0.68218994,0.7369995,2.5,0.1875,-0.640625
1695990486142,-0.1328125,-0.6814575,0.72161865,2.828125,0.34375,-0.96875
1695990486172,-0.13964844,-0.7034302,0.72406006,2.140625,0.03125,-0.75
1695990486217,-0.16430664,-0.70269775,0.73187256,4.921875,-0.71875,0.1875
1695990486262,-0.15625,-0.71539307,0.7301636,4.859375,0.765625,0.171875
1695990486293,-0.13989258,-0.70880127,0.7196655,1.234375,1.171875,-0.40625
1695990486337,-0.1303711,-0.6878052,0.71917725,1.34375,0.4375,-0.015625
1695990486382,-0.13793945,-0.723938,0.72650146,4.8125,0.09375,0.625
1695990486412,-0.13330078,-0.73028564,0.71624756,3.0625,0.609375,0.125
1695990486457,-0.11767578,-0.74176025,0.7079468,-1.125,0.890625,0.0625
1695990486501,-0.12207031,-0.72540283,0.7140503,-0.78125,-1.328125,0.125
1695990486533,-0.15185547,-0.70318604,0.7238159,0.046875,-1.453125,0.578125
1695990486605,-0.15185547,-0.70318604,0.7238159,1.921875,-0.015625,0.203125
1695990486621,-0.14477539,-0.7107544,0.7160034,0.421875,0.25,-0.859375
1695990486651,-0.14746094,-0.7114868,0.71380615,0.140625,-1.328125,-0.203125
1695990486700,-0.15332031,-0.69854736,0.70965576,2.265625,0.0625,0.328125
1695990486759,-0.14428711,-0.69000244,0.71380615,2.1875,-0.609375,-0.171875
1695990486771,-0.14941406,-0.7136841,0.729187,5.109375,0.03125,0.859375
1695990486822,-0.14794922,-0.7341919,0.713562,3.421875,1.40625,1.390625
1695990486878,-0.12402344,-0.7251587,0.71673584,-0.078125,0.375,-1.078125
1695990486891,-0.1418457,-0.70513916,0.7289429,2.640625,-1.859375,-0.640625
1695990486940,-0.14697266,-0.73101807,0.70428467,6.9375,0.0,-0.625
1695990486983,-0.1171875,-0.71881104,0.7033081,3.15625,3.078125,-0.828125
1695990487013,-0.1303711,-0.737854,0.6889038,-2.078125,0.40625,-1.75
1695990487056,-0.14477539,-0.71881104,0.70355225,-1.453125,-1.109375,0.28125
1695990487134,-0.1538086,-0.7127075,0.7008667,-1.171875,-1.03125,0.359375
1695990487140,-0.14111328,-0.73028564,0.7267456,0.640625,-0.5,0.234375
1695990487198,-0.12988281,-0.7276001,0.7067261,1.171875,1.21875,-1.046875
1695990487207,-0.13793945,-0.73101807,0.6959839,-1.1875,0.390625,-1.03125
1695990487255,-0.15063477,-0.72735596,0.7033081,1.109375,-0.953125,-0.0625
1695990487315,-0.13745117,-0.7214966,0.7020874,1.421875,0.125,0.109375
1695990487327,-0.12158203,-0.7263794,0.713562,0.171875,-0.59375,-0.59375
1695990487374,-0.13574219,-0.71099854,0.71624756,1.453125,-0.234375,-0.953125
1695990487436,-0.16552734,-0.72784424,0.70648193,1.265625,-0.515625,-0.671875
1695990487447,-0.16796875,-0.72247314,0.70648193,2.859375,1.28125,1.203125
1695990487511,-0.13574219,-0.7288208,0.7160034,2.3125,1.203125,0.484375
1695990487537,-0.12670898,-0.74053955,0.70843506,0.21875,0.4375,-0.328125
1695990487567,-0.12695312,-0.73028564,0.68133545,0.09375,-0.484375,-1.4375
1695990487627,-0.14135742,-0.7202759,0.7020874,-3.0,0.15625,-0.171875
1695990487657,-0.14648438,-0.7268677,0.71990967,-3.453125,-1.078125,-0.84375
1695990487687,-0.15258789,-0.73150635,0.7301636,-0.984375,-1.203125,-0.875
1695990487747,-0.14526367,-0.7107544,0.732605,1.34375,-0.4375,-0.171875
1695990487778,-0.14282227,-0.69976807,0.7062378,-0.1875,0.921875,-0.453125
1695990487822,-0.14746094,-0.70318604,0.699646,-1.375,0.875,-1.6875
1695990487852,-0.15551758,-0.69659424,0.7235718,1.390625,0.046875,0.828125
1695990487897,-0.13867188,-0.725647,0.729187,1.078125,-0.671875,0.53125
1695990487930,-0.13549805,-0.7263794,0.7284546,-0.046875,0.078125,-1.375
1695990487971,-0.15454102,-0.7073364,0.72088623,-1.03125,0.09375,-0.6875
1695990488017,-0.15795898,-0.69659424,0.7267456,-0.421875,-0.46875,0.171875
1695990488047,-0.1381836,-0.7058716,0.7213745,-0.015625,-0.453125,-0.859375
1695990488092,-0.12841797,-0.6987915,0.72332764,-0.765625,0.359375,-1.75
1695990488137,-0.15991211,-0.7041626,0.746521,2.453125,0.484375,-0.59375
1695990488167,-0.17333984,-0.70635986,0.7182007,-1.625,0.671875,0.484375
1695990488213,-0.14257812,-0.69537354,0.7235718,-1.703125,0.6875,-0.578125
1695990488260,-0.1352539,-0.6929321,0.74017334,1.90625,-1.015625,-0.1875
1695990488287,-0.13964844,-0.7046509,0.74017334,2.71875,0.234375,0.140625
1695990488332,-0.15625,-0.704895,0.7262573,1.640625,0.59375,-0.4375
1695990488362,-0.14770508,-0.7053833,0.715271,-0.84375,0.125,-0.75
1695990488407,-0.14355469,-0.7095337,0.7189331,0.421875,-0.53125,-0.296875
1695990488451,-0.15112305,-0.7095337,0.73358154,0.625,-0.015625,0.1875
1695990488482,-0.14379883,-0.7090454,0.7328491,1.265625,-1.03125,0.40625
1695990488527,-0.13427734,-0.7102661,0.73187256,0.03125,0.453125,-0.03125
1695990488574,-0.14257812,-0.6995239,0.7218628,-1.28125,0.234375,-0.890625
1695990488604,-0.1730957,-0.69781494,0.73065186,0.578125,-0.046875,0.46875
1695990488648,-0.15527344,-0.6970825,0.7313843,3.171875,0.96875,0.3125
1695990488696,-0.14453125,-0.7139282,0.7250366,1.140625,0.609375,-0.328125
1695990488727,-0.1303711,-0.7190552,0.72772217,-0.109375,-0.1875,-0.5625
1695990488767,-0.15209961,-0.69122314,0.7279663,-0.53125,0.21875,-0.328125
1695990488815,-0.16381836,-0.6873169,0.7367554,-0.421875,0.40625,0.3125
1695990488844,-0.14868164,-0.7041626,0.73895264,2.359375,0.03125,0.28125
1695990488887,-0.14257812,-0.70977783,0.73187256,0.859375,0.765625,-0.484375
1695990488932,-0.15454102,-0.69317627,0.7250366,-0.65625,0.109375,-0.1875
1695990488964,-0.14892578,-0.70025635,0.72821045,2.171875,-0.25,-0.03125
1695990489013,-0.13647461,-0.7144165,0.7316284,1.40625,0.359375,-0.234375
1695990489067,-0.13012695,-0.69976807,0.7313843,0.140625,0.21875,-0.6875
1695990489085,-0.15698242,-0.6902466,0.73358154,1.640625,0.34375,0.390625
1695990489160,-0.1508789,-0.706604,0.7313843,2.796875,0.65625,0.171875
1695990489172,-0.12963867,-0.70562744,0.71746826,0.203125,0.203125,-0.609375
1695990489203,-0.14379883,-0.7005005,0.74139404,1.078125,0.125,0.890625
1695990489246,-0.15356445,-0.70806885,0.73065186,3.390625,0.34375,0.171875
1695990489307,-0.14575195,-0.7029419,0.7284546,0.90625,0.828125,-0.609375
1695990489324,-0.1352539,-0.7012329,0.7201538,-0.40625,-0.421875,-0.90625
1695990489367,-0.14331055,-0.708313,0.73309326,1.890625,-0.21875,0.265625
1695990489412,-0.14086914,-0.70269775,0.7416382,2.96875,-0.734375,0.546875
1695990489444,-0.13598633,-0.7131958,0.7262573,1.15625,-0.0625,-0.84375
1695990489502,-0.14453125,-0.70318604,0.7182007,0.4375,0.40625,-0.53125
1695990489533,-0.14624023,-0.6987915,0.7225952,3.703125,0.0,0.046875
1695990489565,-0.13671875,-0.73028564,0.7196655,4.640625,0.734375,-0.546875
1695990489625,-0.13647461,-0.70758057,0.71380615,0.109375,0.8125,-0.09375
1695990489641,-0.140625,-0.71173096,0.72210693,1.390625,-0.640625,-0.125
1695990489697,-0.14160156,-0.7139282,0.71673584,0.203125,-0.046875,0.03125
1695990489726,-0.14526367,-0.706604,0.7133179,-0.546875,-0.140625,-0.578125
1695990489759,-0.15112305,-0.71710205,0.71673584,0.15625,-0.4375,-0.140625
1695990489816,-0.14282227,-0.71051025,0.7296753,1.25,-0.046875,0.3125
1695990489848,-0.1381836,-0.7058716,0.7296753,0.15625,0.078125,-0.65625
1695990489879,-0.13500977,-0.7149048,0.7086792,0.515625,-0.21875,-1.015625
1695990489939,-0.14990234,-0.7007446,0.715271,-0.59375,0.875,0.421875
1695990489968,-0.1484375,-0.69903564,0.73309326,-0.9375,-0.4375,-0.21875
1695990489997,-0.15234375,-0.7061157,0.7316284,1.640625,-0.734375,-0.4375
1695990490076,-0.1472168,-0.7214966,0.72821045,2.0625,1.015625,0.421875
1695990490088,-0.14819336,-0.7070923,0.72161865,0.109375,0.71875,0.125
1695990490117,-0.1459961,-0.7151489,0.72528076,0.671875,-0.375,-0.046875
1695990490167,-0.13842773,-0.70147705,0.72283936,1.125,-0.578125,-0.671875
1695990490206,-0.14550781,-0.7005005,0.7284546,0.265625,0.375,-0.328125
1695990490238,-0.14428711,-0.71710205,0.72454834,1.515625,0.125,0.015625
1695990490287,-0.14233398,-0.70758057,0.7272339,-0.203125,0.0,-0.359375
1695990490327,-0.14526367,-0.71051025,0.7238159,0.21875,0.046875,-0.40625
1695990490358,-0.14746094,-0.6995239,0.7230835,1.84375,0.828125,0.046875
1695990490435,-0.14477539,-0.70684814,0.7301636,2.40625,0.640625,-0.125
1695990490447,-0.13232422,-0.70977783,0.72210693,1.828125,0.078125,-1.171875
1695990490480,-0.1394043,-0.7112427,0.71087646,-1.5,-0.140625,-0.71875
1695990490521,-0.13647461,-0.69854736,0.7313843,-0.5,0.5,-0.6875
1695990490569,-0.1640625,-0.6802368,0.73602295,3.375,0.84375,-0.484375
1695990490601,-0.13085938,-0.723938,0.730896,3.078125,3.375,-1.25
1695990490645,-0.14086914,-0.71832275,0.7223511,2.859375,3.890625,-1.4375
1695990490687,-0.15478516,-0.7095337,0.7116089,0.078125,0.921875,-1.21875
1695990490731,-0.14404297,-0.6987915,0.71673584,0.640625,0.734375,0.515625
1695990490765,-0.13574219,-0.70635986,0.7177124,-0.078125,-0.1875,1.25
1695990490795,-0.1315918,-0.71099854,0.729187,3.03125,1.59375,0.890625
1695990490841,-0.123291016,-0.71881104,0.71624756,1.734375,2.59375,0.671875
1695990490884,-0.12036133,-0.71173096,0.7218628,0.171875,0.359375,-0.484375
1695990490913,-0.12011719,-0.71661377,0.71990967,1.140625,-1.140625,-0.203125
1695990490964,-0.12988281,-0.70880127,0.7201538,2.9375,-0.1875,0.15625
1695990491004,-0.13085938,-0.7124634,0.72283936,0.859375,0.515625,-0.1875
1695990491033,-0.12695312,-0.7263794,0.7106323,-0.3125,-0.78125,-0.359375
1695990491079,-0.12207031,-0.7073364,0.7147827,-0.125,-0.125,-0.703125
1695990491125,-0.13330078,-0.70025635,0.71698,-1.484375,-1.359375,-0.15625
1695990491158,-0.1459961,-0.71710205,0.7352905,1.796875,-1.671875,1.203125
1695990491205,-0.15185547,-0.71099854,0.72821045,1.765625,0.234375,-0.234375
1695990491259,-0.1328125,-0.70635986,0.715271,-0.453125,0.90625,-1.46875
1695990491272,-0.119140625,-0.6968384,0.7196655,-0.5625,-0.75,-0.96875
1695990491321,-0.12182617,-0.70098877,0.7260132,0.15625,-1.453125,-0.203125
1695990491379,-0.13842773,-0.7190552,0.7382202,1.03125,-0.65625,-0.65625
1695990491392,-0.13842773,-0.72662354,0.732605,1.125,0.921875,-0.65625
1695990491439,-0.13867188,-0.72003174,0.7194214,-0.015625,0.75,-0.9375
1695990491500,-0.14648438,-0.7022095,0.7116089,0.25,-0.875,-0.78125
1695990491512,-0.1381836,-0.6975708,0.7213745,0.265625,-0.921875,-1.328125
1695990491572,-0.15795898,-0.6970825,0.7243042,0.40625,-0.5,-0.171875
1695990491606,-0.15795898,-0.72076416,0.7225952,2.578125,0.984375,0.296875
1695990491634,-0.15161133,-0.7163696,0.70648193,-1.625,1.90625,-0.015625
1695990491707,-0.119384766,-0.6975708,0.72991943,-2.625,-0.6875,-0.53125
1695990491724,-0.13671875,-0.70025635,0.7374878,2.78125,-1.65625,0.546875
1695990491752,-0.14746094,-0.72076416,0.74017334,3.921875,1.171875,0.21875
1695990491811,-0.14794922,-0.7061157,0.7243042,0.203125,0.28125,-0.375
1695990491844,-0.13330078,-0.7102661,0.7243042,0.78125,-0.984375,-0.125
1695990491871,-0.13916016,-0.6934204,0.7196655,1.8125,-0.0625,0.234375
1695990491948,-0.140625,-0.70025635,0.72991943,0.484375,-0.53125,0.15625
1695990491965,-0.14379883,-0.7078247,0.72869873,1.21875,-0.328125,0.390625
1695990491992,-0.1418457,-0.70806885,0.7223511,1.15625,0.890625,-0.09375
1695990492037,-0.12426758,-0.704895,0.72454834,0.015625,0.515625,-0.75
1695990492074,-0.13452148,-0.70977783,0.73187256,1.984375,0.609375,-0.546875
1695990492131,-0.12866211,-0.710022,0.7172241,2.21875,1.234375,-0.8125
1695990492160,-0.13476562,-0.7090454,0.7218628,1.078125,0.140625,-0.234375
1695990492186,-0.15551758,-0.6983032,0.7296753,1.3125,0.875,-0.140625
1695990492252,-0.18383789,-0.7346802,0.73114014,5.1875,2.1875,-0.78125
1695990492279,-0.13256836,-0.72125244,0.7160034,4.125,4.453125,-0.078125
1695990492307,-0.09350586,-0.70880127,0.7055054,-0.765625,1.359375,0.1875
1695990492386,-0.091552734,-0.69415283,0.70648193,-0.296875,-2.046875,-1.515625
1695990492399,-0.13330078,-0.7197876,0.71551514,2.515625,-3.984375,-1.625
1695990492428,-0.16064453,-0.741272,0.72698975,6.28125,0.1875,0.828125
1695990492471,-0.12866211,-0.7251587,0.71087646,0.453125,1.421875,-0.390625
1695990492518,-0.13574219,-0.69732666,0.70965576,0.015625,-1.09375,-0.71875
1695990492547,-0.16259766,-0.7036743,0.6954956,-0.21875,0.109375,-0.046875
1695990492592,-0.1459961,-0.73150635,0.71551514,1.875,0.1875,0.875
1695990492640,-0.13452148,-0.74102783,0.7345581,2.328125,-0.46875,1.328125
1695990492667,-0.12866211,-0.7305298,0.7098999,2.078125,1.28125,0.3125
1695990492712,-0.13891602,-0.73516846,0.7106323,2.21875,0.765625,0.90625
1695990492772,-0.1381836,-0.7178345,0.69696045,-0.859375,0.96875,1.375
1695990492787,-0.12890625,-0.7229614,0.71209717,-0.09375,0.015625,2.265625
1695990492832,-0.1184082,-0.7210083,0.7094116,1.875,-1.15625,1.515625
1695990492880,-0.10546875,-0.74053955,0.7145386,0.40625,-0.03125,0.21875
1695990492908,-0.11743164,-0.7197876,0.70355225,-0.828125,-0.046875,-0.640625
1695990492954,-0.123535156,-0.70269775,0.7055054,0.9375,-1.53125,0.359375
1695990493012,-0.12573242,-0.70635986,0.70526123,1.625,-2.34375,-0.25
1695990493028,-0.12524414,-0.741272,0.715271,1.703125,-0.28125,-0.15625
1695990493074,-0.12475586,-0.7241821,0.7157593,1.171875,0.0625,0.578125
1695990493139,-0.11791992,-0.7095337,0.6976929,-1.59375,-1.0,-0.75
1695990493147,-0.1303711,-0.7005005,0.7057495,-1.0625,-0.828125,-0.75
1695990493192,-0.14111328,-0.7295532,0.7313843,1.890625,0.1875,0.515625
1695990493222,-0.13427734,-0.7312622,0.7196655,-0.578125,-0.046875,0.484375
1695990493266,-0.12011719,-0.7319946,0.70892334,-0.890625,-0.015625,-0.734375
1695990493312,-0.123535156,-0.70269775,0.7086792,-0.671875,0.78125,-0.53125
1695990493343,-0.13085938,-0.69488525,0.71990967,-0.21875,-0.203125,-0.609375
1695990493387,-0.14331055,-0.7168579,0.7225952,2.390625,-0.859375,0.125
1695990493449,-0.14038086,-0.7334595,0.7247925,0.59375,0.6875,0.328125
1695990493462,-0.12182617,-0.7161255,0.7098999,-0.578125,-0.265625,-0.421875
1695990493509,-0.12670898,-0.7090454,0.7128296,-0.09375,-1.3125,-0.765625
1695990493570,-0.12573242,-0.7058716,0.71673584,0.453125,-0.28125,-0.796875
1695990493627,-0.14770508,-0.70758057,0.71917725,0.484375,-0.140625,-0.28125
1695990493632,-0.13574219,-0.7319946,0.7223511,0.609375,0.609375,0.3125
1695990493687,-0.13061523,-0.72125244,0.7123413,-0.96875,-0.046875,-0.078125
1695990493704,-0.13134766,-0.71099854,0.72210693,-0.203125,-1.03125,-0.109375
1695990493747,-0.13110352,-0.70147705,0.7260132,1.359375,0.40625,-0.46875
1695990493807,-0.13623047,-0.7017212,0.7321167,1.0625,1.15625,-0.171875
1695990493827,-0.13378906,-0.72320557,0.70526123,-0.3125,0.671875,-0.359375
1695990493884,-0.118652344,-0.71295166,0.71795654,-1.046875,0.328125,0.15625
1695990493912,-0.123291016,-0.70758057,0.73114014,-1.71875,-1.5625,-0.109375
1695990493945,-0.13769531,-0.70147705,0.7374878,1.75,0.109375,0.234375
1695990494004,-0.1418457,-0.7112427,0.7255249,1.0,0.59375,-0.203125
1695990494032,-0.12988281,-0.70562744,0.72528076,-0.921875,-0.5625,-0.8125
1695990494065,-0.12866211,-0.7070923,0.72039795,0.234375,-0.796875,-0.234375
1695990494125,-0.13549805,-0.7151489,0.73309326,1.0,0.65625,-0.09375
1695990494153,-0.1274414,-0.70025635,0.73846436,0.828125,-0.359375,-0.625
1695990494182,-0.13720703,-0.6968384,0.73114014,1.015625,-0.078125,-0.671875
1695990494257,-0.14233398,-0.70196533,0.7223511,1.125,0.484375,-0.140625
1695990494317,-0.13793945,-0.7112427,0.7230835,0.859375,0.6875,0.25
1695990494323,-0.119384766,-0.70318604,0.7316284,0.375,-0.109375,-0.28125
1695990494347,-0.12792969,-0.7029419,0.7313843,1.28125,0.34375,-0.375
1695990494391,-0.13867188,-0.71661377,0.7255249,0.0625,0.65625,-0.171875
1695990494422,-0.12963867,-0.7017212,0.74676514,0.375,0.390625,-0.625
1695990494467,-0.13696289,-0.7078247,0.7352905,-1.171875,-0.84375,-1.0
1695990494499,-0.14379883,-0.70098877,0.7357788,2.3125,0.96875,-0.078125
1695990494571,-0.13769531,-0.69659424,0.72698975,3.328125,-0.296875,0.515625
1695990494588,-0.1237793,-0.7124634,0.72210693,0.625,-0.765625,-0.578125
1695990494619,-0.12915039,-0.7034302,0.71917725,0.515625,-0.453125,-0.453125
1695990494662,-0.13574219,-0.6856079,0.7411499,1.546875,0.5625,-0.546875
1695990494706,-0.14233398,-0.6992798,0.7406616,2.84375,-1.90625,1.484375
1695990494737,-0.13500977,-0.7268677,0.71014404,3.15625,0.296875,0.828125
1695990494782,-0.1171875,-0.722229,0.7128296,0.265625,-0.046875,-0.296875
1695990494827,-0.12573242,-0.6865845,0.7284546,1.640625,-1.828125,-0.609375
1695990494857,-0.16772461,-0.69415283,0.7296753,4.703125,0.28125,-0.09375
1695990494903,-0.1496582,-0.7251587,0.71209717,2.640625,2.078125,0.734375
1695990494947,-0.12060547,-0.7493286,0.70770264,0.15625,0.03125,0.421875
1695990494976,-0.119628906,-0.7217407,0.70648193,-0.40625,-0.453125,0.078125
1695990495024,-0.13500977,-0.70758057,0.7103882,0.0625,0.03125,-0.328125
1695990495068,-0.13623047,-0.70513916,0.7238159,1.8125,0.90625,0.203125
1695990495100,-0.123535156,-0.6980591,0.72576904,-0.515625,0.1875,-0.765625
1695990495142,-0.13232422,-0.7263794,0.7382202,-0.296875,-1.40625,-0.53125
1695990495187,-0.1484375,-0.7149048,0.71624756,4.484375,0.0625,0.609375
1695990495218,-0.12573242,-0.72979736,0.7128296,3.890625,1.796875,0.390625
1695990495262,-0.123046875,-0.7022095,0.70599365,0.8125,-1.0,-1.234375
1695990495322,-0.1340332,-0.6975708,0.70526123,1.5625,-0.9375,-0.390625
1695990495338,-0.14892578,-0.72369385,0.71673584,0.75,0.46875,0.8125
1695990495385,-0.13085938,-0.7334595,0.7218628,-0.1875,0.796875,-0.4375
1695990495445,-0.13208008,-0.73272705,0.711853,-0.390625,-0.296875,-0.125
1695990495457,-0.11694336,-0.706604,0.7079468,0.625,-0.25,-0.5
1695990495505,-0.14697266,-0.6995239,0.7184448,0.171875,0.28125,-0.171875
1695990495576,-0.1381836,-0.7185669,0.7172241,0.28125,0.25,-1.1875
1695990495581,-0.12963867,-0.722229,0.7230835,-0.890625,0.703125,-0.09375
1695990495622,-0.12841797,-0.71051025,0.72454834,-0.546875,-0.828125,0.0
1695990495653,-0.12988281,-0.7144165,0.7250366,2.09375,-0.609375,0.0
1695990495700,-0.13623047,-0.7029419,0.71868896,-0.078125,0.34375,-0.890625
1695990495767,-0.14501953,-0.72003174,0.72039795,1.171875,0.078125,0.09375
1695990495776,-0.1315918,-0.72613525,0.71209717,1.03125,-0.640625,0.25
1695990495819,-0.1262207,-0.7131958,0.71429443,-0.640625,-0.6875,-0.640625
1695990495879,-0.13745117,-0.7073364,0.72772217,0.359375,-0.75,-0.625
1695990495891,-0.13647461,-0.7034302,0.7230835,0.46875,0.59375,-0.234375
1695990495939,-0.13452148,-0.70391846,0.7235718,0.765625,0.5,-0.4375
1695990495999,-0.12841797,-0.70635986,0.7218628,0.0625,-0.1875,-0.578125
1695990496056,-0.13647461,-0.7210083,0.73187256,0.671875,0.578125,0.375
1695990496061,-0.13745117,-0.71466064,0.72161865,0.40625,0.40625,0.078125
1695990496134,-0.13134766,-0.7119751,0.715271,0.5625,0.265625,-1.1875
1695990496139,-0.13842773,-0.69317627,0.71624756,-1.625,0.453125,-0.421875
1695990496192,-0.13842773,-0.6987915,0.73773193,-0.84375,-0.40625,0.0
1695990496222,-0.15063477,-0.7070923,0.7301636,0.59375,-0.90625,0.21875
1695990496251,-0.1328125,-0.7300415,0.732605,-0.484375,0.421875,0.171875
1695990496298,-0.12841797,-0.69781494,0.7262573,-1.265625,-0.296875,-0.875
1695990496342,-0.13085938,-0.6904907,0.732605,1.625,-0.9375,-0.59375
1695990496372,-0.15478516,-0.6934204,0.73065186,3.25,0.125,-0.328125
1695990496433,-0.140625,-0.71343994,0.732605,1.828125,1.578125,0.1875
1695990496462,-0.13134766,-0.7107544,0.72088623,0.109375,-0.046875,0.3125
1695990496492,-0.12939453,-0.7012329,0.72821045,0.609375,-0.296875,0.21875
1695990496536,-0.13354492,-0.7000122,0.727478,0.953125,-0.21875,-0.890625
1695990496582,-0.14501953,-0.70391846,0.7267456,0.015625,0.765625,-0.359375
1695990496612,-0.13330078,-0.7053833,0.7301636,1.078125,0.03125,-0.03125
1695990496657,-0.12939453,-0.706604,0.7218628,-1.625,-0.046875,-0.734375
1695990496702,-0.13769531,-0.7168579,0.7223511,-0.59375,-0.234375,-0.3125
1695990496735,-0.1274414,-0.706604,0.7416382,1.015625,0.515625,-0.3125
1695990496809,-0.1340332,-0.68341064,0.7284546,-2.484375,-0.03125,-0.421875
1695990496826,-0.1303711,-0.6826782,0.7340698,0.484375,0.265625,-0.890625
1695990496852,-0.13916016,-0.69073486,0.744812,0.625,0.234375,-0.765625
1695990496897,-0.13769531,-0.6975708,0.7362671,-1.765625,-0.3125,0.0625
1695990496927,-0.13793945,-0.69195557,0.72088623,0.078125,-1.296875,0.203125
1695990496975,-0.13427734,-0.6975708,0.746521,2.09375,-0.984375,0.109375
1695990497017,-0.12719727,-0.6946411,0.7484741,0.859375,-0.203125,-0.296875
1695990497063,-0.13330078,-0.69195557,0.7321167,-0.921875,-0.21875,-1.359375
1695990497095,-0.14526367,-0.6865845,0.73358154,-0.8125,-0.078125,0.0
1695990497136,-0.14477539,-0.68292236,0.74798584,0.078125,-0.25,0.375
1695990497167,-0.13720703,-0.7190552,0.75457764,1.0625,0.28125,0.0625
1695990497216,-0.115234375,-0.68536377,0.75115967,2.828125,0.796875,-1.078125
1695990497257,-0.13647461,-0.6692505,0.7247925,-0.046875,-0.390625,-0.390625
1695990497289,-0.14868164,-0.68878174,0.72821045,0.625,-0.171875,-0.734375
1695990497334,-0.15917969,-0.6934204,0.7428589,-0.703125,0.21875,0.296875
1695990497380,-0.13378906,-0.70391846,0.762146,-0.578125,0.375,0.375
1695990497410,-0.13598633,-0.6946411,0.7496948,2.71875,0.28125,-0.015625
1695990497454,-0.1381836,-0.69000244,0.74432373,3.4375,0.765625,-0.671875
1695990497497,-0.13354492,-0.6748657,0.7369995,1.421875,0.109375,-0.4375
1695990497530,-0.13427734,-0.6851196,0.7382202,3.140625,-0.59375,-0.34375
1695990497575,-0.15112305,-0.7136841,0.74432373,3.640625,-0.96875,0.671875
1695990497632,-0.1484375,-0.70977783,0.7357788,1.609375,-0.109375,0.859375
1695990497653,-0.14038086,-0.6929321,0.7321167,1.6875,0.046875,0.015625
1695990497695,-0.12426758,-0.6621704,0.729187,4.140625,-0.078125,-1.0
1695990497752,-0.14477539,-0.70977783,0.7296753,4.125,-0.765625,-0.40625
1695990497769,-0.14038086,-0.710022,0.7196655,1.984375,0.4375,0.65625
1695990497816,-0.1394043,-0.72369385,0.729187,3.421875,-0.484375,1.140625
1695990497872,-0.13354492,-0.7041626,0.7211304,2.0,-0.40625,0.0
1695990497889,-0.14086914,-0.68829346,0.72650146,1.953125,0.78125,-0.625
1695990497949,-0.14892578,-0.7061157,0.71209717,0.578125,0.90625,0.140625
1695990497978,-0.14086914,-0.73101807,0.72698975,-0.046875,0.65625,0.8125
1695990498011,-0.1352539,-0.7151489,0.727478,1.265625,-0.203125,-0.09375
1695990498068,-0.114990234,-0.71417236,0.72088623,2.1875,0.546875,-0.265625
1695990498097,-0.12915039,-0.7029419,0.71429443,-0.125,0.21875,-0.734375
1695990498134,-0.15063477,-0.6880493,0.7157593,-0.359375,-0.328125,-0.09375
1695990498187,-0.14501953,-0.7085571,0.7189331,2.328125,-0.078125,0.0625
1695990498208,-0.13134766,-0.7288208,0.7272339,0.40625,0.234375,-0.03125
1695990498247,-0.12133789,-0.7102661,0.7235718,0.375,0.328125,-0.296875
1695990498296,-0.1315918,-0.7029419,0.7196655,1.421875,0.46875,-0.609375
1695990498324,-0.14575195,-0.7095337,0.7160034,0.5625,-0.25,0.265625
1695990498384,-0.13549805,-0.7276001,0.7235718,-0.5,-0.34375,0.078125
1695990498413,-0.11621094,-0.71881104,0.72454834,-1.09375,0.125,-0.1875
1695990498451,-0.1171875,-0.70269775,0.7338257,0.078125,-0.09375,-1.328125
1695990498503,-0.13598633,-0.6970825,0.732605,0.6875,0.390625,-1.765625
1695990498534,-0.14135742,-0.7156372,0.7106323,0.328125,0.40625,-0.71875
1695990498566,-0.140625,-0.7012329,0.7243042,-1.09375,0.546875,0.375
1695990498624,-0.13378906,-0.708313,0.74749756,-1.375,-0.53125,-0.015625
1695990498657,-0.13842773,-0.70684814,0.7428589,1.265625,-0.28125,0.109375
1695990498684,-0.13647461,-0.70098877,0.7313843,0.96875,1.15625,-0.609375
1695990498729,-0.13647461,-0.6914673,0.71917725,-0.921875,-0.015625,-0.96875
1695990498774,-0.14501953,-0.7180786,0.7350464,1.34375,-0.78125,0.328125
1695990498806,-0.13208008,-0.71466064,0.732605,0.125,-0.390625,0.015625
1695990498851,-0.12597656,-0.6917114,0.73968506,-0.953125,-0.609375,-0.90625
1695990498895,-0.14111328,-0.68170166,0.7284546,0.59375,-0.09375,-0.75
1695990498925,-0.15307617,-0.69732666,0.7350464,1.375,0.71875,0.15625
1695990498969,-0.13256836,-0.7022095,0.73724365,0.828125,0.125,-0.765625
1695990499014,-0.12963867,-0.7017212,0.7357788,-0.390625,0.34375,-0.140625
1695990499042,-0.1381836,-0.69781494,0.7379761,1.28125,-0.546875,-0.328125
1695990499090,-0.1459961,-0.690979,0.743103,1.34375,0.890625,-0.46875
1695990499133,-0.14672852,-0.70684814,0.7213745,-1.53125,0.40625,-0.796875
1695990499164,-0.12524414,-0.70440674,0.73846436,-0.578125,0.078125,-0.59375
1695990499211,-0.13769531,-0.6814575,0.7435913,-0.359375,-1.25,-0.421875
1695990499255,-0.14477539,-0.6987915,0.7484741,0.734375,-0.078125,0.078125
1695990499284,-0.15454102,-0.6975708,0.74432373,0.8125,0.859375,-0.46875
1695990499330,-0.13745117,-0.67755127,0.74383545,0.890625,-0.125,0.328125
1695990499356,-0.12866211,-0.69195557,0.72821045,2.015625,-0.3125,-0.578125
1695990499409,-0.13745117,-0.69854736,0.74676514,1.234375,0.796875,-0.03125
1695990499449,-0.15527344,-0.68878174,0.7418823,2.015625,-0.359375,0.171875
1695990499477,-0.14404297,-0.7024536,0.72869873,0.515625,0.578125,0.046875
1695990499526,-0.1274414,-0.69317627,0.7369995,0.234375,-0.234375,-0.5
1695990499570,-0.14135742,-0.6956177,0.74676514,2.609375,-0.53125,-0.125
1695990499597,-0.1472168,-0.6934204,0.7416382,2.546875,0.109375,-0.203125
1695990499642,-0.14575195,-0.70196533,0.7350464,2.046875,0.640625,-0.28125
1695990499689,-0.13354492,-0.7061157,0.7411499,3.84375,0.796875,-0.0625
1695990499717,-0.12866211,-0.7102661,0.71429443,0.984375,-0.3125,-1.15625
1695990499765,-0.13256836,-0.6856079,0.7272339,-1.25,-0.1875,-0.84375
1695990499808,-0.16381836,-0.6807251,0.73431396,1.9375,-0.90625,0.5
1695990499839,-0.15429688,-0.7173462,0.72869873,0.90625,0.984375,0.9375
1695990499883,-0.13793945,-0.7112427,0.7267456,-1.109375,1.484375,0.109375
1695990499945,-0.13378906,-0.6968384,0.73846436,1.078125,-0.390625,-0.15625
1695990499957,-0.13549805,-0.7024536,0.7145386,1.15625,0.40625,-0.296875
1695990500006,-0.1394043,-0.7024536,0.7301636,-0.46875,-0.296875,0.40625
1695990500063,-0.140625,-0.7041626,0.7496948,0.765625,-0.703125,0.671875
1695990500077,-0.13842773,-0.7078247,0.7416382,1.9375,0.1875,0.8125
1695990500138,-0.13208008,-0.69537354,0.72943115,1.09375,-0.046875,-0.671875
1695990500168,-0.12597656,-0.6795044,0.729187,0.171875,0.9375,-1.390625
1695990500200,-0.14453125,-0.68756104,0.73553467,1.375,0.65625,-0.078125
1695990500257,-0.14135742,-0.7258911,0.746521,1.890625,-0.484375,0.921875
1695990500290,-0.12548828,-0.7136841,0.73773193,1.328125,0.5625,-0.890625
1695990500318,-0.125,-0.69659424,0.7247925,-1.984375,0.21875,-1.0625
1695990500377,-0.14575195,-0.69122314,0.7345581,-1.3125,0.078125,-0.5
1695990500409,-0.14868164,-0.6929321,0.74823,2.015625,-0.953125,0.75
1695990500437,-0.12084961,-0.7061157,0.7301636,1.609375,0.0625,-0.84375
1695990500496,-0.12524414,-0.6934204,0.7333374,-1.953125,1.421875,-1.03125
1695990500533,-0.14257812,-0.6885376,0.7391968,1.6875,-0.421875,0.484375
1695990500557,-0.1418457,-0.708313,0.7321167,2.5625,0.1875,-0.28125
1695990500633,-0.13061523,-0.69732666,0.7289429,-0.5,0.390625,-0.640625
1695990500638,-0.13696289,-0.6860962,0.7460327,0.53125,-0.46875,-0.109375
1695990500695,-0.14819336,-0.6983032,0.7357788,1.515625,-0.359375,0.28125
1695990500729,-0.14477539,-0.70098877,0.7304077,-0.171875,0.109375,-0.390625
1695990500752,-0.1303711,-0.70513916,0.73651123,0.765625,-0.171875,-0.46875
1695990500813,-0.13232422,-0.6939087,0.7399292,2.265625,-0.1875,-0.265625
1695990500844,-0.14331055,-0.6963501,0.7289429,-0.125,0.125,-0.5625
1695990500872,-0.1430664,-0.70025635,0.7272339,0.671875,-0.203125,-0.890625
1695990500932,-0.1430664,-0.69781494,0.7352905,-0.03125,0.125,0.5
1695990500965,-0.12719727,-0.68536377,0.74676514,-1.328125,0.28125,-0.6875
1695990500992,-0.14501953,-0.68536377,0.7501831,2.40625,-0.296875,0.15625
1695990501037,-0.1430664,-0.7114868,0.73773193,1.84375,1.0,0.265625
1695990501084,-0.13256836,-0.6914673,0.7316284,-0.109375,0.640625,-0.609375
1695990501112,-0.1315918,-0.6865845,0.7289429,0.546875,-1.125,-0.859375
1695990501156,-0.14526367,-0.69244385,0.74017334,2.203125,-0.3125,0.09375
1695990501201,-0.13842773,-0.6851196,0.75042725,1.203125,0.640625,0.21875
1695990501231,-0.1496582,-0.6970825,0.73309326,2.1875,-0.25,0.515625
1695990501278,-0.13330078,-0.70098877,0.73846436,1.96875,0.640625,1.109375
1695990501325,-0.12207031,-0.70025635,0.72576904,0.78125,0.078125,-0.40625
1695990501352,-0.13427734,-0.7005005,0.7399292,1.328125,-0.5625,-0.421875
1695990501398,-0.1472168,-0.69415283,0.7321167,3.265625,0.015625,-0.421875
1695990501445,-0.14379883,-0.6983032,0.73480225,2.28125,1.09375,-0.40625
1695990501472,-0.13134766,-0.7197876,0.713562,0.5,0.109375,-0.203125
1695990501516,-0.13500977,-0.6958618,0.72528076,-0.453125,0.203125,-0.0625
1695990501567,-0.14013672,-0.69073486,0.7374878,-0.59375,-0.796875,0.015625
1695990501593,-0.14257812,-0.70513916,0.74749756,1.546875,-0.6875,0.296875
1695990501637,-0.13671875,-0.7053833,0.7387085,1.078125,1.078125,-0.453125
1695990501697,-0.13623047,-0.694397,0.72210693,-0.078125,0.4375,-0.671875
1695990501714,-0.1352539,-0.71099854,0.7279663,1.9375,-1.171875,0.171875
1695990501756,-0.13574219,-0.70635986,0.73651123,1.078125,0.015625,-0.03125
1695990501788,-0.13696289,-0.6939087,0.73968506,0.921875,0.0625,-0.1875
1695990501832,-0.14208984,-0.7007446,0.73480225,0.734375,0.3125,0.03125
1695990501877,-0.13720703,-0.7036743,0.730896,0.453125,0.09375,-0.296875
1695990501907,-0.1328125,-0.7024536,0.7289429,0.40625,-0.21875,-0.421875
1695990501975,-0.13745117,-0.6958618,0.7391968,0.765625,0.390625,-0.265625
1695990501997,-0.14135742,-0.7029419,0.7394409,1.5625,0.25,-0.15625
1695990502027,-0.13549805,-0.7041626,0.7304077,1.734375,1.234375,-0.171875
1695990502072,-0.12963867,-0.7073364,0.7116089,-2.5625,0.921875,-0.625
1695990502135,-0.1303711,-0.6929321,0.7394409,-2.4375,-0.78125,-0.65625
1695990502147,-0.14746094,-0.6865845,0.7543335,1.375,-1.25,-0.0625
1695990502192,-0.14575195,-0.7036743,0.74334717,1.484375,1.078125,0.125
1695990502254,-0.13208008,-0.6951294,0.73480225,-0.890625,0.96875,-0.25
1695990502267,-0.13500977,-0.6921997,0.72991943,-0.25,-1.390625,-0.078125
1695990502312,-0.13256836,-0.69781494,0.7382202,1.6875,-0.53125,0.1875
1695990502373,-0.12792969,-0.6914673,0.7514038,0.421875,-0.046875,-0.5625
1695990502387,-0.1315918,-0.68585205,0.7550659,2.25,-0.65625,-0.375
1695990502449,-0.1394043,-0.69903564,0.7333374,3.921875,0.15625,-0.171875
1695990502477,-0.13500977,-0.70635986,0.727478,1.296875,0.625,0.171875
1695990502509,-0.13574219,-0.6851196,0.7352905,0.453125,-0.21875,0.265625
1695990502568,-0.13696289,-0.6885376,0.73358154,2.21875,-0.71875,0.0625
1695990502596,-0.14208984,-0.70025635,0.74627686,2.59375,1.3125,-0.125
1695990502631,-0.12426758,-0.7268677,0.7211304,-0.828125,1.1875,-0.890625
1695990502690,-0.12792969,-0.7034302,0.7387085,-2.15625,0.15625,-1.046875
1695990502717,-0.14624023,-0.692688,0.7536011,-0.03125,-1.234375,-1.078125
1695990502752,-0.15112305,-0.6873169,0.7584839,4.15625,0.90625,-0.484375
1695990502806,-0.14331055,-0.70440674,0.73651123,4.4375,1.390625,-0.328125
1695990502887,-0.13427734,-0.71417236,0.71795654,4.984375,1.71875,-0.84375
1695990502893,-0.13012695,-0.6995239,0.7020874,3.5625,2.265625,-1.65625
1695990502912,-0.12402344,-0.70758057,0.7184448,3.671875,1.765625,-2.78125
1695990502957,-0.16308594,-0.7078247,0.7279663,4.296875,-0.3125,-0.96875
1695990502987,-0.15112305,-0.7271118,0.72210693,2.71875,0.578125,0.796875
1695990503032,-0.13134766,-0.7383423,0.7106323,-1.390625,-0.234375,1.140625
1695990503062,-0.122802734,-0.7046509,0.7267456,-0.921875,-1.5,0.28125
1695990503121,-0.15600586,-0.7046509,0.7172241,3.296875,-0.609375,0.28125
1695990503152,-0.13354492,-0.7061157,0.71209717,3.609375,3.078125,0.90625
1695990503182,-0.10229492,-0.7295532,0.69866943,0.0625,1.453125,-0.59375
1695990503260,-0.115722656,-0.7197876,0.7091675,-1.03125,-0.921875,-0.09375
1695990503272,-0.12524414,-0.69732666,0.711853,-0.40625,-1.90625,-0.59375
1695990503303,-0.14331055,-0.7102661,0.730896,0.875,0.015625,0.96875
1695990503347,-0.13452148,-0.7202759,0.73553467,-0.453125,0.796875,0.265625
1695990503392,-0.119384766,-0.70806885,0.7189331,-2.453125,-0.328125,-0.75
1695990503424,-0.11743164,-0.69903564,0.7213745,-1.0625,-2.140625,-0.84375
1695990503466,-0.14404297,-0.7041626,0.7301636,0.671875,-0.578125,-0.15625
1695990503511,-0.15185547,-0.704895,0.74823,0.375,-0.28125,-0.28125
1695990503543,-0.14208984,-0.69854736,0.7340698,-0.609375,-0.390625,0.03125
1695990503586,-0.1315918,-0.6963501,0.71990967,-1.53125,0.25,-0.390625
1695990503634,-0.13793945,-0.6963501,0.7345581,1.015625,0.296875,-0.375
1695990503661,-0.14257812,-0.6980591,0.74017334,1.875,1.0625,-0.84375
1695990503713,-0.13110352,-0.70880127,0.73309326,1.046875,1.4375,-2.046875
1695990503753,-0.12768555,-0.7156372,0.7177124,0.484375,1.15625,-2.1875
1695990503782,-0.15649414,-0.69732666,0.7350464,-1.03125,0.625,-0.234375
1695990503830,-0.15063477,-0.68878174,0.73114014,-2.90625,0.109375,-0.40625
1695990503873,-0.14208984,-0.7005005,0.7457886,1.046875,0.1875,0.328125
1695990503902,-0.12231445,-0.706604,0.74090576,2.8125,1.609375,-0.703125
1695990503949,-0.11645508,-0.7034302,0.72406006,-0.125,0.484375,-1.015625
1695990504010,-0.1430664,-0.7017212,0.7321167,1.328125,-1.0,-0.578125
1695990504022,-0.13330078,-0.70635986,0.73651123,1.484375,0.09375,-0.4375
1695990504069,-0.13598633,-0.6914673,0.73846436,-1.21875,-0.96875,0.5
1695990504144,-0.14208984,-0.68096924,0.7350464,-0.203125,-0.296875,0.421875
1695990504149,-0.15112305,-0.6914673,0.7394409,0.46875,0.859375,1.0
1695990504190,-0.14160156,-0.7046509,0.73431396,0.0625,0.40625,0.59375
1695990504221,-0.1159668,-0.6929321,0.7418823,0.5625,0.578125,-0.390625
1695990504262,-0.11987305,-0.69781494,0.7416382,1.171875,0.5625,-0.5
1695990504307,-0.12426758,-0.7112427,0.7321167,1.125,0.640625,-0.984375
1695990504341,-0.1340332,-0.6992798,0.73431396,-1.65625,0.890625,-0.390625
1695990504382,-0.13085938,-0.67755127,0.73651123,-2.953125,-0.484375,-0.546875
1695990504442,-0.13623047,-0.67974854,0.7457886,-0.234375,-0.96875,-0.375
1695990504459,-0.14428711,-0.6807251,0.7526245,-0.203125,0.71875,-0.296875
1695990504534,-0.1550293,-0.6958618,0.7601929,0.59375,0.234375,0.59375
1695990504547,-0.13256836,-0.7017212,0.7445679,2.765625,-0.203125,-0.28125
1695990504579,-0.115478516,-0.6951294,0.7453003,1.8125,-0.140625,-0.296875
1695990504622,-0.12207031,-0.67755127,0.7484741,2.328125,-0.71875,-0.75
1695990504699,-0.14135742,-0.70758057,0.74871826,4.109375,-1.515625,-0.296875
1695990504704,-0.14331055,-0.6878052,0.7333374,1.28125,1.015625,-0.59375
1695990504757,-0.14160156,-0.68341064,0.72943115,0.765625,0.546875,-0.609375
1695990504787,-0.13696289,-0.6902466,0.744812,3.390625,-1.328125,-0.46875
1695990504819,-0.14453125,-0.69537354,0.7416382,3.140625,0.203125,-1.046875
1695990504877,-0.15234375,-0.7022095,0.7301636,5.4375,1.203125,-0.796875
1695990504907,-0.14648438,-0.7107544,0.71698,3.34375,2.46875,-0.28125
1695990504944,-0.12182617,-0.6995239,0.72943115,-0.625,0.890625,-0.09375
1695990504998,-0.15258789,-0.6951294,0.7435913,2.859375,-1.453125,1.578125
1695990505029,-0.14892578,-0.72784424,0.7243042,2.515625,0.5625,2.078125
1695990505059,-0.14868164,-0.72735596,0.72161865,-0.34375,0.890625,3.09375
1695990505134,-0.11767578,-0.71881104,0.7304077,2.265625,-0.796875,2.28125
1695990505147,-0.100097656,-0.7034302,0.71698,3.421875,0.171875,0.5
1695990505177,-0.11352539,-0.68878174,0.713562,1.5,0.578125,-0.328125
1695990505222,-0.13183594,-0.70806885,0.71673584,2.59375,-0.75,0.15625
1695990505314,-0.13208008,-0.725647,0.72528076,3.546875,-1.71875,-0.484375
1695990505319,-0.13354492,-0.7263794,0.71746826,1.28125,-0.671875,0.859375
1695990505343,-0.12402344,-0.7161255,0.72161865,2.28125,0.109375,-0.09375
1695990505390,-0.122558594,-0.7073364,0.7055054,1.421875,-0.84375,-0.484375
1695990505417,-0.12231445,-0.71954346,0.7145386,1.71875,-0.75,-1.171875
1695990505462,-0.14233398,-0.7210083,0.7079468,-0.578125,-0.171875,-0.828125
1695990505492,-0.12792969,-0.72125244,0.70428467,-1.421875,-0.09375,-0.171875
1695990505539,-0.13720703,-0.71466064,0.7164917,-0.59375,-0.28125,0.703125
1695990505582,-0.11816406,-0.71661377,0.72406006,-1.328125,0.203125,0.046875
1695990505612,-0.12866211,-0.6995239,0.7272339,-0.71875,0.609375,-0.671875
1695990505661,-0.13769531,-0.69659424,0.72210693,0.90625,-0.21875,-0.421875
1695990505702,-0.140625,-0.7127075,0.72650146,1.8125,0.171875,0.796875
1695990505732,-0.13549805,-0.7214966,0.7225952,-0.015625,-0.328125,-0.15625
1695990505809,-0.13354492,-0.7192993,0.7211304,0.03125,-1.0,0.21875
1695990505822,-0.1340332,-0.7017212,0.72454834,0.59375,-0.109375,0.21875
1695990505856,-0.13964844,-0.7156372,0.7316284,0.1875,0.046875,-0.578125
1695990505902,-0.13256836,-0.71881104,0.72772217,0.0,-0.015625,-0.21875
1695990505942,-0.12158203,-0.70806885,0.71429443,-0.375,0.09375,-0.734375
1695990505975,-0.119628906,-0.70391846,0.7313843,0.640625,-0.171875,-0.6875
1695990506023,-0.12524414,-0.70513916,0.715271,-1.578125,-0.34375,-0.90625
1695990506062,-0.12866211,-0.6851196,0.73309326,-4.21875,0.078125,-0.5625
1695990506094,-0.15527344,-0.6880493,0.7555542,0.65625,-1.34375,-0.09375
1695990506139,-0.1484375,-0.72442627,0.74749756,3.390625,0.6875,1.234375
1695990506197,-0.12548828,-0.71051025,0.7328491,-1.234375,1.515625,-0.265625
1695990506214,-0.11206055,-0.6897583,0.7189331,-1.109375,-1.3125,-1.140625
1695990506259,-0.12524414,-0.69659424,0.7387085,1.4375,-1.625,-0.953125
1695990506317,-0.13720703,-0.69610596,0.7416382,-1.0,0.59375,-0.734375
1695990506335,-0.14624023,-0.69976807,0.7445679,-0.34375,0.296875,0.3125
1695990506380,-0.14404297,-0.7000122,0.7423706,0.40625,-0.484375,0.453125
1695990506438,-0.13305664,-0.70025635,0.7379761,-1.140625,0.046875,-0.28125
1695990506454,-0.13769531,-0.6897583,0.7514038,2.65625,-0.15625,-0.265625
1695990506497,-0.1274414,-0.69073486,0.72772217,2.234375,0.625,-1.296875
1695990506574,-0.1459961,-0.67974854,0.7352905,-0.78125,1.71875,-0.921875
1695990506579,-0.14233398,-0.69732666,0.727478,-0.96875,-0.578125,-0.703125
1695990506635,-0.14868164,-0.6946411,0.7379761,-1.828125,-0.265625,0.890625
1695990506649,-0.12939453,-0.68096924,0.7399292,-2.171875,-0.234375,-0.34375
1695990506694,-0.1394043,-0.6890259,0.7653198,1.453125,0.046875,-0.125
1695990506754,-0.13598633,-0.69610596,0.76116943,2.015625,0.59375,-0.21875
1695990506770,-0.13134766,-0.6851196,0.73602295,-0.828125,0.21875,-1.078125
1695990506816,-0.13720703,-0.6838989,0.74017334,-0.15625,-0.421875,-0.046875
1695990506873,-0.12768555,-0.67926025,0.7523804,0.5625,-0.03125,-0.390625
1695990506889,-0.13647461,-0.66900635,0.75408936,-0.5,-0.015625,-0.609375
1695990506950,-0.1418457,-0.675354,0.75213623,1.21875,0.109375,-0.265625
1695990506982,-0.13964844,-0.6860962,0.74627686,0.5625,0.421875,0.3125
1695990507011,-0.13696289,-0.68536377,0.75579834,-0.5625,-0.078125,0.328125
1695990507085,-0.13671875,-0.6699829,0.75335693,0.453125,0.234375,-0.671875
1695990507100,-0.14111328,-0.6802368,0.75408936,1.328125,0.59375,0.0625
1695990507131,-0.12915039,-0.694397,0.76483154,3.34375,0.515625,-1.03125
1695990507202,-0.14453125,-0.69317627,0.7440796,-0.53125,0.25,-0.8125
1695990507219,-0.14257812,-0.6795044,0.75213623,1.21875,-0.5625,0.421875
1695990507252,-0.14111328,-0.6758423,0.75335693,4.9375,-1.3125,0.234375
1695990507307,-0.14990234,-0.6860962,0.7445679,3.734375,0.359375,0.15625
1695990507341,-0.13989258,-0.694397,0.7374878,2.421875,0.71875,-0.140625
1695990507372,-0.13330078,-0.68536377,0.7247925,0.34375,-0.328125,-0.296875
1695990507414,-0.1381836,-0.7036743,0.7382202,1.609375,-1.03125,-0.03125
1695990507460,-0.13476562,-0.69659424,0.7457886,2.71875,-0.265625,-0.109375
1695990507491,-0.13696289,-0.69366455,0.74627686,1.953125,-0.078125,-0.171875
1695990507536,-0.15258789,-0.69781494,0.73773193,1.34375,0.265625,-0.09375
1695990507583,-0.14428711,-0.6987915,0.7328491,0.765625,-0.125,-0.296875
1695990507608,-0.13598633,-0.6992798,0.73236084,1.171875,-0.875,-0.0625
1695990507657,-0.13623047,-0.6956177,0.74261475,2.515625,0.125,-0.078125
1695990507758,-0.15185547,-0.694397,0.7399292,3.875,0.625,0.25
1695990507763,-0.13867188,-0.70098877,0.7211304,2.703125,0.875,-0.4375
1695990507775,-0.12890625,-0.69415283,0.7086792,-1.15625,0.5,-0.484375
1695990507819,-0.12719727,-0.69732666,0.74212646,0.375,-0.265625,-0.296875
1695990507849,-0.14819336,-0.694397,0.7445679,3.125,-0.71875,0.296875
1695990507894,-0.13427734,-0.7124634,0.7362671,1.140625,0.59375,-0.484375
1695990507925,-0.13110352,-0.69244385,0.7172241,-1.21875,-0.046875,-0.765625
1695990507972,-0.14624023,-0.69195557,0.72650146,1.046875,-0.71875,-0.21875
1695990508015,-0.15356445,-0.7022095,0.7304077,2.71875,-0.390625,0.265625
1695990508042,-0.140625,-0.7156372,0.7369995,1.65625,0.15625,0.0
1695990508091,-0.14038086,-0.7119751,0.73236084,1.375,0.421875,-0.03125
1695990508135,-0.1303711,-0.70098877,0.71698,-0.03125,0.765625,-0.578125
1695990508162,-0.13623047,-0.68927,0.7164917,-0.421875,0.734375,-0.78125
1695990508210,-0.13549805,-0.70196533,0.7313843,1.921875,-0.296875,-0.34375
1695990508254,-0.14453125,-0.7144165,0.73968506,0.875,1.171875,0.140625
1695990508282,-0.13354492,-0.7107544,0.73309326,-0.90625,0.453125,-0.25
1695990508342,-0.13378906,-0.7024536,0.7247925,0.625,-0.609375,-0.265625
1695990508374,-0.14453125,-0.6934204,0.71087646,-1.0625,0.640625,-0.46875
1695990508402,-0.1394043,-0.69659424,0.74432373,-0.578125,0.34375,-0.359375
1695990508449,-0.14477539,-0.70196533,0.7489624,0.390625,-1.0,0.015625
1695990508509,-0.13378906,-0.70147705,0.7382202,-0.546875,0.390625,0.28125
1695990508522,-0.12207031,-0.6970825,0.7411499,-0.4375,-0.28125,-0.921875
1695990508570,-0.13769531,-0.6848755,0.7350464,1.15625,-0.234375,-0.53125
1695990508631,-0.1550293,-0.68829346,0.73602295,2.703125,1.0,0.0
1695990508642,-0.13671875,-0.70147705,0.7379761,0.171875,0.9375,0.265625
1695990508689,-0.12426758,-0.7005005,0.7460327,0.3125,0.015625,0.15625
1695990508749,-0.1303711,-0.694397,0.73651123,0.921875,0.375,-0.515625
1695990508762,-0.14086914,-0.68707275,0.7350464,1.21875,0.4375,-0.40625
1695990508823,-0.14501953,-0.7073364,0.7369995,0.421875,-0.09375,0.0
1695990508855,-0.1315918,-0.7022095,0.74383545,-0.46875,-0.0625,0.125
1695990508882,-0.1274414,-0.68951416,0.7345581,0.265625,-0.203125,-0.859375
1695990508942,-0.1418457,-0.6878052,0.7301636,0.3125,0.34375,-1.03125
1695990509002,-0.1430664,-0.68634033,0.7340698,-0.171875,0.65625,-0.21875
1695990509008,-0.12890625,-0.6885376,0.7418823,-0.9375,-0.28125,-0.671875
1695990509063,-0.14477539,-0.69244385,0.7584839,0.953125,-0.875,0.640625
1695990509077,-0.14257812,-0.69537354,0.7494507,1.65625,0.53125,-0.515625
1695990509123,-0.13793945,-0.6873169,0.7411499,-1.578125,0.578125,-0.921875
1695990509181,-0.14379883,-0.6760864,0.73431396,0.46875,-0.390625,-0.453125
1695990509199,-0.14160156,-0.6946411,0.7472534,1.640625,-0.1875,-0.15625
1695990509242,-0.13623047,-0.6914673,0.74749756,-0.296875,0.03125,-0.375
1695990509287,-0.13330078,-0.6885376,0.75335693,-0.25,0.0625,-0.296875
1695990509321,-0.13208008,-0.68634033,0.746521,0.46875,-0.328125,-0.703125
1695990509379,-0.13598633,-0.67681885,0.74871826,0.078125,-0.171875,-1.09375
1695990509406,-0.15673828,-0.67315674,0.74798584,1.15625,0.109375,-0.40625
1695990509439,-0.15234375,-0.6819458,0.7597046,2.5625,0.484375,0.5625
1695990509499,-0.13647461,-0.6958618,0.74554443,0.046875,0.8125,-0.078125
1695990509527,-0.12792969,-0.6963501,0.746521,0.96875,0.75,-0.84375
1695990509558,-0.13891602,-0.6709595,0.7328491,-1.15625,0.921875,-1.15625
1695990509617,-0.1484375,-0.6826782,0.74823,-1.828125,-0.9375,-0.671875
1695990509649,-0.15625,-0.6848755,0.7633667,1.875,-1.4375,0.453125
1695990509683,-0.1394043,-0.69415283,0.762146,1.265625,0.25,0.359375
1695990509722,-0.13110352,-0.67510986,0.74871826,-0.453125,0.65625,-0.84375
1695990509766,-0.14575195,-0.6638794,0.7362671,0.078125,0.234375,-0.484375
1695990509797,-0.15161133,-0.678772,0.7477417,2.4375,-0.03125,0.15625
1695990509845,-0.1340332,-0.6856079,0.7597046,1.09375,-0.078125,-0.53125
1695990509886,-0.12866211,-0.6831665,0.7597046,0.078125,0.25,-0.15625
1695990509918,-0.140625,-0.68414307,0.7538452,1.6875,0.3125,0.0625
1695990509962,-0.1459961,-0.6851196,0.744812,0.03125,0.234375,-0.3125
1695990510006,-0.14086914,-0.6741333,0.74798584,0.265625,0.25,-0.203125
1695990510037,-0.13793945,-0.677063,0.7633667,2.46875,0.140625,0.15625
1695990510082,-0.14135742,-0.6897583,0.7526245,1.40625,0.3125,0.21875
1695990510156,-0.123046875,-0.69244385,0.7538452,3.1875,0.265625,-0.671875
1695990510161,-0.13720703,-0.6807251,0.7362671,0.15625,0.671875,-0.296875
1695990510202,-0.14526367,-0.6782837,0.7489624,-0.515625,-0.609375,0.3125
1695990510247,-0.15209961,-0.68341064,0.76605225,4.828125,-1.078125,0.84375
1695990510278,-0.13452148,-0.69854736,0.75213623,3.390625,0.71875,0.421875
1695990510321,-0.13452148,-0.6843872,0.7352905,-0.484375,1.078125,-0.359375
1695990510352,-0.14404297,-0.68756104,0.7489624,2.78125,-0.671875,0.15625
1695990510396,-0.13720703,-0.6934204,0.73358154,2.765625,0.1875,0.265625
1695990510442,-0.123291016,-0.68927,0.7399292,0.375,0.3125,-0.03125
1695990510471,-0.13427734,-0.692688,0.74505615,3.015625,-0.1875,0.4375
1695990510517,-0.13623047,-0.70440674,0.74017334,2.484375,-0.046875,0.375
1695990510563,-0.13378906,-0.69317627,0.7404175,0.296875,-0.28125,-0.0625
1695990510592,-0.12695312,-0.6921997,0.7428589,1.875,0.25,-0.234375
1695990510640,-0.13647461,-0.70318604,0.7399292,3.796875,0.234375,0.390625
1695990510701,-0.14160156,-0.70025635,0.730896,1.4375,1.21875,0.640625
1695990510712,-0.12963867,-0.69244385,0.7267456,2.78125,-0.46875,-0.421875
1695990510758,-0.12084961,-0.6958618,0.72576904,-0.171875,-0.1875,-0.421875
1695990510820,-0.13500977,-0.6934204,0.73651123,-0.4375,0.21875,-0.453125
1695990510832,-0.14819336,-0.7022095,0.74212646,3.328125,-0.578125,0.140625
1695990510902,-0.13549805,-0.7131958,0.7272339,1.234375,0.640625,-0.109375
1695990510922,-0.11791992,-0.6904907,0.71990967,-2.046875,0.0625,-1.0625
1695990510952,-0.14038086,-0.69732666,0.7304077,0.015625,-1.03125,-0.15625
1695990511001,-0.14331055,-0.70391846,0.74334717,1.640625,-0.28125,0.140625
1695990511057,-0.12963867,-0.71295166,0.73724365,-1.6875,0.15625,-0.671875
1695990511074,-0.122802734,-0.69976807,0.73846436,0.46875,0.03125,-0.453125
1695990511141,-0.12670898,-0.69732666,0.7379761,2.3125,-0.125,-0.34375
1695990511163,-0.14282227,-0.68707275,0.7313843,0.34375,-0.34375,-0.8125
1695990511194,-0.14404297,-0.67926025,0.729187,0.21875,0.5625,-0.3125
1695990511254,-0.1418457,-0.6992798,0.7518921,2.0,0.53125,0.171875
1695990511281,-0.1352539,-0.7149048,0.7379761,1.140625,-0.046875,-0.609375
1695990511315,-0.125,-0.7041626,0.71698,0.21875,0.40625,-0.921875
1695990511375,-0.1352539,-0.69122314,0.7164917,-1.078125,0.40625,-0.234375
1695990511432,-0.12817383,-0.6890259,0.7440796,-2.4375,-0.53125,-0.546875
1695990511437,-0.15209961,-0.6848755,0.74212646,0.921875,-1.015625,0.046875
1695990511507,-0.140625,-0.7112427,0.7453003,0.859375,0.984375,0.28125
1695990511512,-0.12768555,-0.6946411,0.74090576,-1.421875,0.0625,-0.75
1695990511567,-0.13891602,-0.69415283,0.7399292,0.703125,-1.484375,-0.875
1695990511597,-0.14208984,-0.6956177,0.74212646,1.8125,0.171875,-0.265625
1695990511629,-0.14648438,-0.6848755,0.74676514,-0.421875,0.609375,-0.359375
1695990511687,-0.14257812,-0.68829346,0.7518921,0.375,-0.25,0.171875
1695990511717,-0.13671875,-0.69000244,0.7457886,0.171875,0.671875,0.171875
1695990511746,-0.13574219,-0.6860962,0.74334717,0.015625,0.0625,-0.34375
1695990511792,-0.13305664,-0.68878174,0.75286865,1.125,-0.015625,-0.578125
1695990511836,-0.13647461,-0.67852783,0.7526245,1.953125,0.625,-0.390625
1695990511866,-0.15283203,-0.6917114,0.75286865,1.4375,0.765625,-0.203125
1695990511912,-0.1237793,-0.7149048,0.7333374,-0.046875,0.15625,-0.953125
1695990511956,-0.13793945,-0.68927,0.7404175,-0.984375,0.328125,0.359375
1695990511987,-0.13208008,-0.67559814,0.7538452,0.59375,-0.765625,-0.125
1695990512032,-0.13232422,-0.68170166,0.744812,0.890625,0.328125,-0.625
1695990512078,-0.13354492,-0.6777954,0.74261475,-0.578125,1.34375,-0.6875
1695990512113,-0.13989258,-0.6807251,0.7572632,0.9375,-0.65625,0.0625
1695990512152,-0.14477539,-0.6902466,0.74749756,1.140625,-0.53125,0.375
1695990512215,-0.13061523,-0.68463135,0.74993896,0.625,0.59375,-0.46875
1695990512228,-0.13671875,-0.67071533,0.7567749,0.125,-0.03125,-0.609375
1695990512272,-0.14916992,-0.67144775,0.7428589,0.828125,-0.125,0.59375
1695990512321,-0.14746094,-0.6970825,0.75579834,1.453125,0.0625,0.765625
1695990512346,-0.1184082,-0.69366455,0.7506714,-0.125,0.359375,-1.078125
1695990512393,-0.118652344,-0.67266846,0.75579834,-0.53125,0.109375,-0.875
1695990512439,-0.14526367,-0.66973877,0.7584839,2.484375,-0.421875,-0.390625
1695990512467,-0.15454102,-0.6843872,0.7489624,1.28125,0.390625,-0.21875
1695990512514,-0.14233398,-0.69610596,0.73602295,0.0,0.578125,0.0
1695990512575,-0.123535156,-0.69610596,0.7514038,0.109375,0.53125,0.1875
1695990512586,-0.12939453,-0.66900635,0.7575073,-0.4375,-0.3125,-0.8125
1695990512634,-0.13330078,-0.6734009,0.75286865,1.375,-0.0625,-0.78125
1695990512697,-0.15063477,-0.69195557,0.74749756,1.25,1.015625,0.0625
1695990512708,-0.13696289,-0.6934204,0.75213623,0.1875,-0.390625,0.625
1695990512754,-0.1171875,-0.6848755,0.7453003,0.8125,-0.953125,-0.453125
1695990512785,-0.13623047,-0.67022705,0.7453003,-1.015625,0.46875,-1.0625
1695990512827,-0.15405273,-0.6604614,0.75823975,1.140625,0.109375,0.21875
1695990512875,-0.15527344,-0.6904907,0.7543335,2.3125,0.515625,0.796875
1695990512905,-0.1171875,-0.69488525,0.7560425,0.671875,0.34375,-0.046875
1695990512947,-0.11791992,-0.68218994,0.74993896,0.640625,-0.015625,-0.71875
1695990513006,-0.12866211,-0.675354,0.7489624,1.84375,0.09375,-0.53125
1695990513024,-0.1394043,-0.67559814,0.74554443,1.171875,0.015625,-0.859375
1695990513066,-0.13842773,-0.68096924,0.7548218,0.203125,0.25,-0.46875
1695990513126,-0.13305664,-0.6860962,0.7374878,-0.765625,-0.0625,-0.265625
1695990513148,-0.13208008,-0.67974854,0.7523804,-0.640625,0.4375,-0.140625
1695990513188,-0.13574219,-0.6716919,0.7650757,1.125,-0.5625,-0.234375
1695990513247,-0.13452148,-0.6824341,0.760437,1.3125,-0.0625,0.34375
1695990513263,-0.12207031,-0.69000244,0.75042725,1.1875,0.96875,-0.265625
1695990513323,-0.1262207,-0.6638794,0.7496948,-0.21875,-0.28125,-1.21875
1695990513353,-0.14379883,-0.6651001,0.74920654,0.203125,-0.484375,-0.390625
1695990513386,-0.14404297,-0.68292236,0.763855,1.640625,-0.28125,0.25
1695990513457,-0.14160156,-0.6873169,0.7597046,2.015625,0.34375,0.34375
1695990513488,-0.13232422,-0.694397,0.7494507,0.6875,0.796875,-0.34375
1695990513505,-0.12890625,-0.6734009,0.74554443,0.359375,-0.109375,-1.140625
1695990513561,-0.1381836,-0.67437744,0.7526245,0.203125,-0.484375,-0.703125
1695990513592,-0.1430664,-0.66851807,0.75579834,1.59375,0.09375,-0.03125
1695990513625,-0.13964844,-0.6773071,0.7597046,0.96875,0.421875,-0.046875
1695990513667,-0.13452148,-0.68829346,0.7484741,1.21875,0.046875,-0.0625
1695990513711,-0.14208984,-0.6799927,0.74749756,-0.625,0.328125,-0.09375
1695990513741,-0.13623047,-0.6748657,0.75823975,-1.453125,-0.15625,-0.625
1695990513788,-0.14208984,-0.6680298,0.7699585,1.375,-0.71875,-0.203125
1695990513831,-0.14233398,-0.6819458,0.7699585,1.265625,0.015625,-0.109375
1695990513862,-0.14404297,-0.67510986,0.7506714,-0.78125,0.25,-0.265625
1695990513907,-0.13720703,-0.6782837,0.75335693,1.40625,-0.609375,-0.59375
1695990513939,-0.13452148,-0.67974854,0.7567749,1.625,0.40625,-0.265625
1695990513999,-0.140625,-0.67388916,0.76434326,0.71875,0.03125,-0.125
1695990514027,-0.1430664,-0.67510986,0.7645874,2.609375,0.21875,-0.078125
1695990514056,-0.13745117,-0.67559814,0.75457764,1.125,0.609375,-0.375
1695990514132,-0.13598633,-0.67193604,0.7538452,-0.375,-0.578125,-0.53125
1695990514149,-0.1430664,-0.6758423,0.75897217,1.40625,-0.203125,0.4375
1695990514179,-0.1394043,-0.6795044,0.75994873,2.328125,0.90625,0.0625
1695990514221,-0.140625,-0.6694946,0.75701904,0.125,0.578125,-0.390625
1695990514270,-0.13134766,-0.6885376,0.7406616,0.625,-0.375,-0.40625
1695990514299,-0.14746094,-0.66973877,0.7562866,0.546875,0.6875,0.28125
1695990514343,-0.13671875,-0.6724243,0.7682495,-0.5,-0.515625,-0.34375
1695990514388,-0.13549805,-0.67926025,0.76434326,1.25,-1.0625,0.046875
1695990514417,-0.13354492,-0.6860962,0.7601929,2.265625,0.5,-0.015625
1695990514464,-0.1394043,-0.673645,0.7440796,0.46875,0.0625,-0.625
1695990514508,-0.13769531,-0.67388916,0.7470093,0.21875,-0.171875,-0.8125
1695990514539,-0.15136719,-0.68292236,0.7536011,1.234375,-0.203125,0.453125
1695990514585,-0.13378906,-0.68585205,0.7609253,2.6875,0.78125,0.3125
1695990514630,-0.12988281,-0.6790161,0.7562866,0.59375,0.46875,-0.46875
1695990514660,-0.1315918,-0.67193604,0.7484741,-0.21875,-0.328125,-0.265625
1695990514706,-0.14111328,-0.6709595,0.74676514,1.734375,-0.421875,-0.234375
1695990514762,-0.14990234,-0.68707275,0.758728,1.109375,0.734375,0.59375
1695990514779,-0.1418457,-0.68829346,0.76727295,1.828125,-0.046875,0.21875
1695990514824,-0.14086914,-0.67144775,0.7538452,2.671875,0.875,-0.1875
1695990514883,-0.13452148,-0.677063,0.7352905,-0.59375,1.265625,0.125
1695990514904,-0.12890625,-0.6777954,0.74823,-0.34375,0.015625,-0.375
1695990514945,-0.1274414,-0.67974854,0.7682495,2.515625,-1.453125,0.15625
1695990515006,-0.12963867,-0.6836548,0.7484741,1.421875,0.90625,-0.5
1695990515020,-0.140625,-0.67315674,0.74823,-0.0625,0.59375,-0.609375
1695990515062,-0.14624023,-0.6734009,0.74090576,1.859375,-0.515625,0.03125
1695990515121,-0.13867188,-0.68170166,0.75653076,2.125,-0.078125,0.484375
1695990515138,-0.13427734,-0.68463135,0.75994873,1.046875,-0.0625,-0.515625
1695990515199,-0.13305664,-0.6799927,0.75946045,2.359375,0.421875,-0.21875
1695990515212,-0.13574219,-0.6826782,0.7357788,1.125,0.9375,-0.4375
1695990515259,-0.13208008,-0.6860962,0.7411499,-0.578125,-0.75,-0.59375
1695990515320,-0.13378906,-0.67974854,0.75286865,1.34375,-1.390625,-0.546875
1695990515332,-0.1394043,-0.6773071,0.7548218,2.359375,0.5,-0.25
1695990515382,-0.14477539,-0.6831665,0.7496948,1.109375,1.265625,-0.71875
1695990515440,-0.13598633,-0.69781494,0.72772217,-0.9375,-0.21875,-0.671875
1695990515452,-0.13085938,-0.6836548,0.7543335,-0.421875,-0.203125,-0.3125
1695990515512,-0.14428711,-0.6790161,0.76116943,0.453125,-0.796875,-0.265625
1695990515542,-0.14453125,-0.68536377,0.76361084,1.53125,-0.171875,-0.0625
1695990515578,-0.13671875,-0.69000244,0.7460327,0.734375,0.78125,-0.3125
1695990515632,-0.12963867,-0.69317627,0.74261475,0.796875,-0.46875,-1.203125
1695990515666,-0.13696289,-0.6848755,0.7453003,2.078125,0.390625,-1.015625
1695990515692,-0.14794922,-0.6807251,0.7601929,1.65625,1.046875,-1.109375
1695990515753,-0.14794922,-0.67852783,0.7543335,2.9375,1.125,-1.21875
1695990515785,-0.13574219,-0.69854736,0.74090576,2.703125,1.96875,-1.171875
1695990515829,-0.12133789,-0.6917114,0.7352905,0.15625,2.484375,-2.46875
1695990515859,-0.1328125,-0.6831665,0.7477417,2.078125,0.671875,-1.59375
1695990515905,-0.15527344,-0.69122314,0.77923584,6.34375,-0.15625,-0.25
1695990515931,-0.17260742,-0.69000244,0.74993896,3.703125,2.203125,0.484375
1695990516007,-0.13916016,-0.7085571,0.7133179,0.359375,1.0625,0.9375
1695990516022,-0.12451172,-0.67633057,0.7225952,-1.875,0.5,0.796875
1695990516051,-0.12988281,-0.67926025,0.7472534,1.0,-2.046875,0.171875
1695990516104,-0.12451172,-0.70562744,0.7567749,6.453125,0.6875,-0.328125
1695990516145,-0.122802734,-0.7041626,0.744812,4.421875,1.875,-0.171875
1695990516172,-0.13085938,-0.70269775,0.72332764,2.28125,0.046875,-0.375
1695990516221,-0.13745117,-0.6995239,0.7128296,1.875,-1.890625,0.046875
1695990516269,-0.13232422,-0.69976807,0.72406006,2.421875,-0.953125,0.875
1695990516291,-0.13647461,-0.70196533,0.7460327,4.140625,-0.984375,0.484375
1695990516339,-0.13842773,-0.70513916,0.7367554,3.90625,-1.09375,0.0
1695990516366,-0.1352539,-0.71173096,0.70599365,0.53125,-0.9375,-0.375
1695990516412,-0.13232422,-0.7139282,0.7177124,1.328125,-0.96875,0.171875
1695990516460,-0.14135742,-0.7136841,0.7106323,2.46875,-0.890625,-0.09375
1695990516486,-0.13208008,-0.7007446,0.70599365,-0.140625,0.515625,-0.421875
1695990516531,-0.12988281,-0.7046509,0.6959839,-2.03125,-0.453125,-1.046875
1695990516580,-0.14892578,-0.70440674,0.7406616,-0.21875,-0.734375,0.265625
1695990516607,-0.14648438,-0.7124634,0.73187256,0.921875,-0.3125,-0.9375
1695990516652,-0.15283203,-0.722229,0.7255249,2.734375,2.453125,0.5625
1695990516700,-0.12182617,-0.725647,0.7260132,1.25,1.984375,0.140625
1695990516727,-0.122802734,-0.7012329,0.71624756,-1.859375,-0.296875,-1.375
1695990516772,-0.14428711,-0.6838989,0.7133179,-0.3125,-0.390625,-0.59375
1695990516818,-0.14916992,-0.71539307,0.73431396,0.46875,1.234375,0.375
1695990516847,-0.13867188,-0.7229614,0.7391968,-0.96875,0.125,-0.03125
1695990516892,-0.1340332,-0.7136841,0.73187256,-0.34375,0.15625,0.046875
1695990516940,-0.1303711,-0.6980591,0.7223511,0.9375,0.53125,0.28125
1695990516967,-0.13964844,-0.69366455,0.72039795,0.609375,0.359375,-0.0625
1695990517012,-0.123291016,-0.6970825,0.7313843,0.359375,0.78125,-1.09375
1695990517087,-0.1430664,-0.7017212,0.73651123,-0.28125,1.21875,-0.6875
1695990517093,-0.13842773,-0.7271118,0.72039795,-0.734375,0.03125,0.109375
1695990517132,-0.13354492,-0.69903564,0.7289429,-1.078125,0.4375,0.671875
1695990517198,-0.12524414,-0.6921997,0.74139404,-1.90625,-0.265625,0.171875
1695990517207,-0.1352539,-0.704895,0.7494507,1.125,-0.28125,0.9375
1695990517252,-0.12426758,-0.6987915,0.7404175,1.3125,1.375,-0.703125
1695990517327,-0.122558594,-0.6826782,0.7260132,-0.46875,-0.203125,-1.453125
1695990517332,-0.119140625,-0.6848755,0.7391968,0.4375,-0.265625,-1.296875
1695990517371,-0.111816406,-0.69073486,0.74261475,-0.046875,0.375,-1.6875
1695990517432,-0.1303711,-0.70196533,0.74993896,-0.25,-1.375,-0.421875
1695990517452,-0.15283203,-0.70513916,0.7440796,0.234375,-0.578125,-0.328125
1695990517512,-0.14990234,-0.6790161,0.7369995,-1.328125,0.40625,-0.390625
1695990517538,-0.14990234,-0.6860962,0.7453003,-2.703125,-0.84375,-0.15625
1695990517566,-0.14941406,-0.67193604,0.7506714,-0.125,-0.859375,0.59375
1695990517630,-0.13623047,-0.69244385,0.7692261,2.359375,1.265625,-0.609375
1695990517642,-0.11254883,-0.6995239,0.7328491,-0.28125,1.9375,-3.125
1695990517686,-0.119140625,-0.6897583,0.744812,-1.078125,0.046875,-2.34375
1695990517749,-0.16088867,-0.68096924,0.760437,-0.140625,-1.84375,-1.0625
1695990517762,-0.15942383,-0.67071533,0.7435913,1.9375,0.8125,-0.578125
1695990517825,-0.15112305,-0.69073486,0.7523804,2.046875,1.453125,0.046875
1695990517852,-0.13354492,-0.6873169,0.74749756,-1.21875,-0.34375,-0.484375
1695990517882,-0.15063477,-0.677063,0.74920654,-0.265625,0.734375,0.34375
1695990517948,-0.15405273,-0.6831665,0.74676514,1.0,-0.546875,1.625
1695990517973,-0.1550293,-0.69366455,0.7601929,-0.96875,-0.046875,3.96875
1695990518007,-0.115722656,-0.68218994,0.7477417,-0.9375,-0.03125,2.828125
1695990518064,-0.09790039,-0.67803955,0.74554443,-1.9375,-0.78125,0.921875
1695990518092,-0.119140625,-0.663147,0.75531006,-0.484375,-0.140625,-0.765625
1695990518123,-0.14379883,-0.6670532,0.76190186,4.59375,-1.03125,-0.328125
1695990518198,-0.13598633,-0.70269775,0.7680054,2.921875,-0.4375,-0.734375
1695990518212,-0.12573242,-0.7007446,0.744812,-0.734375,-1.5,-1.3125
1695990518242,-0.14038086,-0.6536255,0.74823,0.515625,-1.84375,1.25
1695990518288,-0.15478516,-0.6536255,0.7543335,2.15625,-0.890625,1.234375
1695990518332,-0.14282227,-0.6914673,0.76776123,3.546875,0.078125,0.90625
1695990518363,-0.115478516,-0.70147705,0.760437,3.359375,1.421875,-1.0625
1695990518407,-0.12646484,-0.6721802,0.74505615,1.296875,-0.109375,-0.078125
1695990518452,-0.14111328,-0.6865845,0.74676514,3.203125,-0.734375,0.125
1695990518483,-0.122558594,-0.7017212,0.7453003,2.546875,-0.28125,-0.203125
1695990518527,-0.122802734,-0.70635986,0.744812,2.421875,0.4375,-0.390625
1695990518575,-0.13452148,-0.6760864,0.7289429,3.875,0.390625,-0.75
1695990518603,-0.15429688,-0.6885376,0.7182007,0.625,-0.78125,-0.78125
1695990518648,-0.14990234,-0.7007446,0.73773193,-0.984375,-1.765625,-0.09375
1695990518692,-0.14233398,-0.7000122,0.75653076,1.40625,-1.140625,1.421875
1695990518722,-0.123046875,-0.6995239,0.7518921,2.359375,0.140625,-0.203125
1695990518766,-0.13916016,-0.7036743,0.7284546,3.640625,1.078125,-0.171875
1695990518797,-0.14331055,-0.7070923,0.72698975,3.015625,0.5625,0.8125
1695990518842,-0.1303711,-0.69903564,0.7340698,1.40625,-0.53125,0.0
1695990518888,-0.13964844,-0.6758423,0.7272339,0.78125,-0.578125,-0.5
1695990518917,-0.15063477,-0.70098877,0.7357788,3.578125,0.53125,0.3125
1695990518962,-0.1315918,-0.71051025,0.7340698,2.140625,-0.140625,-0.5
1695990519007,-0.12695312,-0.71588135,0.7328491,0.71875,-0.84375,-0.25
1695990519037,-0.140625,-0.6987915,0.7262573,3.5625,0.3125,0.546875
1695990519082,-0.13305664,-0.69317627,0.7250366,1.578125,-0.125,-0.28125
1695990519127,-0.1328125,-0.69000244,0.73236084,0.921875,-0.71875,-0.265625
1695990519157,-0.14770508,-0.7119751,0.72943115,1.65625,-0.171875,0.09375
1695990519205,-0.13623047,-0.71221924,0.71624756,1.234375,0.765625,0.59375
1695990519246,-0.1262207,-0.7124634,0.71795654,0.3125,0.140625,-0.21875
1695990519276,-0.13842773,-0.6995239,0.7218628,1.109375,-0.65625,0.3125
1695990519324,-0.13867188,-0.7070923,0.72991943,2.296875,0.328125,0.53125
1695990519383,-0.11206055,-0.71954346,0.711853,0.046875,0.640625,-1.640625
1695990519397,-0.12963867,-0.68951416,0.7201538,-2.015625,1.0625,-0.421875
1695990519441,-0.13842773,-0.69732666,0.73480225,0.21875,-0.59375,-0.4375
1695990519508,-0.15600586,-0.7151489,0.73651123,0.71875,-0.875,0.59375
1695990519517,-0.13696289,-0.71954346,0.7357788,0.875,0.515625,-0.265625
1695990519564,-0.12597656,-0.7024536,0.7304077,1.234375,-0.234375,-1.171875
1695990519624,-0.13452148,-0.69415283,0.72528076,0.859375,0.28125,-0.6875
1695990519639,-0.14013672,-0.69781494,0.7243042,1.921875,0.859375,-0.28125
1695990519682,-0.13574219,-0.72491455,0.7350464,1.4375,-0.21875,-0.71875
1695990519759,-0.13476562,-0.7136841,0.7206421,-1.046875,-0.359375,-1.21875
1695990519765,-0.13208008,-0.7041626,0.72576904,0.421875,0.59375,0.0
1695990519821,-0.14355469,-0.6983032,0.72283936,0.203125,-0.015625,0.28125
1695990519847,-0.1484375,-0.708313,0.73553467,0.375,0.234375,0.3125
1695990519877,-0.12890625,-0.694397,0.72332764,0.859375,0.625,-1.015625
1695990519940,-0.14086914,-0.692688,0.7316284,0.71875,1.234375,0.390625
1695990519966,-0.1381836,-0.69659424,0.71673584,-1.046875,0.375,0.40625
1695990520001,-0.12231445,-0.7085571,0.7416382,-2.953125,-0.265625,-0.5625
1695990520071,-0.1274414,-0.70318604,0.7616577,1.59375,-0.4375,0.078125
1695990520076,-0.13061523,-0.70147705,0.7382202,1.953125,0.40625,-0.078125
1695990520133,-0.13867188,-0.6843872,0.7250366,-2.03125,0.109375,-0.78125
1695990520163,-0.14453125,-0.690979,0.73065186,0.296875,-0.796875,-0.625
1695990520192,-0.1418457,-0.708313,0.7406616,1.5625,0.421875,-0.25
1695990520251,-0.13061523,-0.6956177,0.73480225,0.140625,0.203125,0.125
1695990520281,-0.13061523,-0.6826782,0.7340698,-0.546875,0.1875,-0.796875
1695990520312,-0.1381836,-0.68951416,0.74676514,0.265625,-0.046875,0.328125
1695990520372,-0.12792969,-0.6987915,0.74261475,1.421875,-0.53125,-0.40625
1695990520403,-0.12963867,-0.6831665,0.7345581,-0.796875,1.328125,-0.640625
1695990520434,-0.13427734,-0.6760864,0.7477417,0.828125,0.546875,-0.890625
1695990520510,-0.15356445,-0.69488525,0.7379761,0.484375,-0.3125,-0.171875
1695990520522,-0.14111328,-0.71661377,0.7338257,0.109375,0.109375,-0.359375
1695990520552,-0.13769531,-0.6939087,0.7338257,-1.421875,0.140625,-0.40625
1695990520597,-0.12768555,-0.6836548,0.75286865,-2.265625,-0.359375,-0.921875
1695990520641,-0.15112305,-0.6807251,0.75579834,1.421875,-0.84375,0.4375
1695990520671,-0.13769531,-0.7090454,0.74554443,-0.078125,1.296875,-0.59375
1695990520717,-0.13354492,-0.69488525,0.7387085,-2.265625,0.34375,-0.890625
1695990520764,-0.1394043,-0.67803955,0.75701904,0.75,-1.203125,-0.125
1695990520793,-0.14160156,-0.68170166,0.75115967,2.296875,-0.359375,-0.015625
1695990520837,-0.14038086,-0.67926025,0.7494507,0.234375,1.25,-0.53125
1695990520885,-0.14013672,-0.68292236,0.74993896,0.21875,0.34375,-0.390625
1695990520912,-0.1328125,-0.68829346,0.7538452,1.015625,0.109375,0.671875
1695990520956,-0.13134766,-0.690979,0.7453003,-1.078125,0.140625,-0.359375
1695990521004,-0.13720703,-0.67852783,0.7548218,-0.4375,-0.328125,-0.09375
1695990521035,-0.14331055,-0.66290283,0.7616577,2.84375,-0.71875,0.421875
1695990521078,-0.14477539,-0.67388916,0.74334717,-1.5,1.078125,0.1875
1695990521125,-0.13085938,-0.69073486,0.75579834,0.484375,0.328125,-0.328125
1695990521156,-0.12158203,-0.6897583,0.762146,1.359375,-0.9375,0.34375
1695990521198,-0.12133789,-0.6860962,0.7658081,0.171875,-0.453125,0.03125
1695990521228,-0.12451172,-0.67437744,0.75335693,3.125,-0.515625,-0.703125
1695990521279,-0.1574707,-0.67144775,0.7472534,1.5625,1.546875,-0.0625
1695990521332,-0.15478516,-0.6680298,0.744812,0.890625,0.21875,0.59375
1695990521352,-0.1352539,-0.6885376,0.744812,1.953125,-1.03125,0.0625
1695990521394,-0.12451172,-0.7012329,0.7555542,2.84375,-0.5625,0.3125
1695990521436,-0.1328125,-0.68585205,0.7601929,2.34375,0.296875,0.078125
1695990521472,-0.1418457,-0.6699829,0.7460327,2.53125,0.140625,-0.5
1695990521514,-0.1538086,-0.6890259,0.7301636,1.546875,0.671875,0.71875
1695990521572,-0.13793945,-0.7053833,0.7440796,1.109375,0.234375,1.5
1695990521589,-0.12036133,-0.7041626,0.744812,1.15625,-0.734375,0.125
1695990521634,-0.115722656,-0.6746216,0.7406616,3.0,0.078125,-1.0625
1695990521693,-0.13964844,-0.67681885,0.7369995,2.484375,0.875,-1.71875
1695990521711,-0.15185547,-0.69195557,0.743103,3.921875,0.546875,0.078125
1695990521754,-0.13720703,-0.6951294,0.7223511,-0.578125,-0.140625,0.359375
1695990521813,-0.12133789,-0.6902466,0.7391968,-2.859375,-0.640625,-0.140625
1695990521830,-0.14257812,-0.6826782,0.7592163,4.515625,-1.3125,0.21875
1695990521872,-0.13500977,-0.7022095,0.7374878,4.109375,1.515625,-0.453125
1695990521950,-0.13085938,-0.6856079,0.72650146,-0.65625,1.5,-0.921875
1695990521957,-0.13012695,-0.69781494,0.74139404,1.6875,-1.109375,-0.078125
1695990522009,-0.13598633,-0.70391846,0.7445679,2.140625,-0.921875,0.40625
1695990522037,-0.12451172,-0.70562744,0.74505615,0.75,0.171875,-0.046875
1695990522071,-0.12231445,-0.69317627,0.73114014,1.5,-0.046875,-0.671875
1695990522131,-0.14086914,-0.6878052,0.7304077,0.171875,-0.25,-0.171875
1695990522158,-0.14526367,-0.6902466,0.73187256,0.234375,-0.625,0.15625
1695990522189,-0.14160156,-0.70269775,0.7328491,1.84375,1.0625,0.40625
1695990522232,-0.12060547,-0.69976807,0.73968506,0.453125,0.96875,-0.171875
1695990522277,-0.119140625,-0.69537354,0.73114014,-0.296875,-0.375,-0.515625
1695990522312,-0.13012695,-0.6970825,0.7250366,1.875,-0.1875,-0.671875
1695990522384,-0.13916016,-0.6963501,0.7301636,-0.390625,0.90625,-0.71875
1695990522397,-0.13427734,-0.6897583,0.7379761,-2.5,-0.328125,-1.109375
1695990522427,-0.14550781,-0.6929321,0.75457764,0.453125,-1.4375,0.265625
1695990522474,-0.13623047,-0.6921997,0.7387085,0.65625,-0.1875,-0.546875
1695990522505,-0.13354492,-0.6890259,0.7379761,-0.3125,0.734375,-0.9375
1695990522577,-0.1328125,-0.69659424,0.74432373,2.5625,-0.140625,-0.703125
1695990522597,-0.13452148,-0.6914673,0.73724365,1.515625,0.765625,-0.15625
1695990522625,-0.13061523,-0.68951416,0.7382202,0.03125,0.40625,-0.078125
1695990522681,-0.13354492,-0.70318604,0.74676514,2.375,0.28125,-0.03125
1695990522715,-0.12866211,-0.69781494,0.74261475,0.78125,0.734375,-0.375
1695990522746,-0.13500977,-0.6868286,0.7296753,-0.25,-0.265625,-0.328125
1695990522791,-0.14257812,-0.68634033,0.7394409,0.375,-0.0625,0.125
1695990522835,-0.14672852,-0.6865845,0.7435913,1.421875,0.390625,0.203125
1695990522864,-0.13085938,-0.7000122,0.7423706,0.296875,0.375,0.0625
1695990522911,-0.12524414,-0.7112427,0.73236084,0.625,-0.078125,-0.671875
1695990522954,-0.1340332,-0.6880493,0.73651123,-0.609375,0.234375,-0.203125
1695990522984,-0.12841797,-0.68292236,0.7460327,-0.984375,-0.765625,-1.40625
1695990523029,-0.14794922,-0.67974854,0.7567749,1.34375,-0.40625,-0.03125
1695990523074,-0.14697266,-0.6824341,0.7494507,0.703125,1.140625,0.078125
1695990523105,-0.14941406,-0.694397,0.74823,-0.78125,0.328125,0.328125
1695990523149,-0.12768555,-0.6946411,0.7489624,0.6875,0.03125,-0.265625
1695990523192,-0.11743164,-0.68414307,0.74090576,1.765625,0.34375,-0.8125
1695990523225,-0.122802734,-0.6773071,0.7457886,-0.046875,0.34375,-1.171875
1695990523272,-0.14575195,-0.6934204,0.7514038,1.640625,-0.28125,-0.40625
1695990523316,-0.13891602,-0.69244385,0.7470093,0.0625,-0.109375,0.171875
1695990523343,-0.13745117,-0.6946411,0.7538452,-0.234375,-0.171875,0.421875
1695990523392,-0.1328125,-0.68463135,0.746521,1.484375,0.25,0.234375
1695990523447,-0.13208008,-0.6814575,0.7374878,-0.390625,0.5625,-1.0
1695990523471,-0.13916016,-0.6638794,0.75701904,0.453125,0.125,-0.953125
1695990523513,-0.14868164,-0.69659424,0.75164795,5.015625,-1.484375,-0.125
1695990523572,-0.14257812,-0.7190552,0.73480225,4.078125,1.75,1.40625
1695990523584,-0.123291016,-0.6843872,0.7304077,-1.40625,1.4375,-0.40625
1695990523629,-0.13110352,-0.67510986,0.75042725,0.609375,-1.234375,-0.390625
1695990523710,-0.14575195,-0.6826782,0.75213623,2.796875,-0.25,-0.28125
1695990523714,-0.14428711,-0.7034302,0.75408936,1.484375,1.203125,-0.203125
1695990523747,-0.12963867,-0.7034302,0.74090576,0.625,-0.015625,0.171875
1695990523776,-0.12426758,-0.7024536,0.73773193,2.78125,-1.296875,0.078125
1695990523825,-0.12695312,-0.68634033,0.74212646,4.28125,-0.953125,-0.96875
1695990523885,-0.13989258,-0.69000244,0.7367554,4.6875,0.015625,-0.21875
1695990523897,-0.13623047,-0.6939087,0.7279663,2.140625,1.015625,0.640625
1695990523949,-0.12817383,-0.7251587,0.72698975,-0.09375,0.09375,0.296875
1695990524004,-0.13134766,-0.70684814,0.7284546,-0.703125,-0.796875,0.5625
1695990524063,-0.13476562,-0.68878174,0.7445679,2.546875,-0.40625,-0.078125
1695990524069,-0.1430664,-0.6917114,0.73846436,3.953125,0.453125,0.203125
1695990524124,-0.1352539,-0.723938,0.7172241,3.15625,0.8125,0.09375
1695990524137,-0.12792969,-0.7085571,0.71698,0.578125,0.59375,-0.203125
1695990524196,-0.13134766,-0.7046509,0.7184448,1.8125,-2.015625,0.40625
1695990524231,-0.13208008,-0.71343994,0.70965576,3.953125,0.203125,0.703125
1695990524257,-0.111816406,-0.7022095,0.71673584,0.28125,1.21875,-1.484375
1695990524318,-0.13256836,-0.6946411,0.72698975,-2.0625,-1.484375,-1.28125
1695990524353,-0.15917969,-0.7124634,0.72869873,0.28125,-0.265625,0.53125
1695990524378,-0.13500977,-0.7149048,0.7296753,0.890625,0.828125,0.8125
1695990524437,-0.115234375,-0.70928955,0.7321167,-0.5625,-0.359375,-0.421875
1695990524481,-0.12060547,-0.69610596,0.7238159,0.296875,-0.046875,-0.828125
1695990524497,-0.14013672,-0.6939087,0.7260132,0.15625,0.859375,-0.46875
1695990524572,-0.14477539,-0.71661377,0.7296753,-0.125,-0.078125,-0.453125
1695990524589,-0.12768555,-0.71661377,0.7328491,-0.359375,-0.4375,0.046875
1695990524618,-0.13085938,-0.70025635,0.7387085,-0.4375,-0.515625,-0.109375
1695990524666,-0.13696289,-0.6897583,0.7362671,2.375,0.453125,-0.171875
1695990524710,-0.13378906,-0.70562744,0.71307373,-0.453125,0.984375,-1.359375
1695990524737,-0.12939453,-0.6836548,0.7379761,-1.15625,0.9375,-0.421875
1695990524784,-0.13256836,-0.69610596,0.743103,-0.1875,-1.34375,-0.34375
1695990524831,-0.13110352,-0.71173096,0.7518921,1.5625,-0.265625,0.671875
1695990524857,-0.13061523,-0.7061157,0.7328491,0.15625,0.421875,-0.703125
1695990524904,-0.13012695,-0.6860962,0.7223511,-1.15625,-0.578125,-0.90625
1695990524949,-0.1538086,-0.68829346,0.72869873,0.21875,0.125,0.109375
1695990524977,-0.13696289,-0.71295166,0.744812,0.84375,0.328125,-0.1875
1695990525027,-0.122558594,-0.6956177,0.7501831,-0.734375,-0.578125,-0.671875
1695990525052,-0.123291016,-0.69122314,0.7416382,-0.15625,0.25,-0.5
1695990525098,-0.13427734,-0.6946411,0.7406616,1.8125,0.28125,-0.625
1695990525145,-0.14160156,-0.69317627,0.7387085,-0.890625,0.484375,-0.953125
1695990525171,-0.14746094,-0.677063,0.7382202,-0.625,-0.03125,-0.234375
1695990525216,-0.15258789,-0.68756104,0.75042725,2.0,-0.140625,0.46875
1695990525265,-0.12768555,-0.70147705,0.7506714,1.921875,1.015625,-0.1875
1695990525292,-0.12695312,-0.69732666,0.71746826,-1.703125,1.421875,-0.828125
1695990525336,-0.13012695,-0.6765747,0.7379761,-1.859375,-0.03125,-0.671875
1695990525385,-0.15136719,-0.68463135,0.76312256,2.40625,-1.4375,0.515625
1695990525412,-0.12963867,-0.7022095,0.74261475,0.984375,0.171875,0.40625
1695990525456,-0.12133789,-0.6880493,0.7333374,-2.46875,1.3125,-0.921875
1695990525513,-0.13549805,-0.68170166,0.74823,0.625,-0.875,-0.125
1695990525532,-0.15014648,-0.6929321,0.74871826,2.390625,-0.328125,-0.078125
1695990525576,-0.1303711,-0.692688,0.7440796,0.40625,1.234375,-1.0
1695990525637,-0.122558594,-0.66607666,0.7496948,0.21875,-0.578125,-0.453125
1695990525652,-0.13598633,-0.6836548,0.74676514,0.28125,-0.21875,0.40625
1695990525699,-0.14892578,-0.68756104,0.7457886,0.359375,1.109375,-0.46875
1695990525756,-0.13842773,-0.6902466,0.7548218,0.140625,0.25,-0.609375
1695990525772,-0.13330078,-0.6729126,0.7423706,0.515625,-0.03125,-0.296875
1695990525816,-0.14160156,-0.6856079,0.7584839,1.625,0.125,0.328125
1695990525877,-0.12548828,-0.6970825,0.74017334,0.671875,-0.171875,-1.578125
1695990525892,-0.13110352,-0.6968384,0.7501831,-2.125,0.625,-0.46875
1695990525953,-0.1394043,-0.6687622,0.7523804,-1.546875,-0.390625,-1.203125
1695990525982,-0.1508789,-0.675354,0.7650757,2.234375,-0.546875,0.8125
1695990526013,-0.1303711,-0.6819458,0.7494507,2.0625,0.75,-0.03125
1695990526074,-0.12695312,-0.6814575,0.7472534,-1.03125,0.5625,-0.3125
1695990526117,-0.13232422,-0.6848755,0.75042725,1.5625,-0.3125,0.09375
1695990526132,-0.1340332,-0.6831665,0.7472534,1.15625,0.21875,-0.484375
1695990526178,-0.14135742,-0.677063,0.76068115,-0.609375,-0.65625,-0.3125
1695990526210,-0.13745117,-0.6746216,0.75042725,1.875,0.015625,0.03125
1695990526284,-0.13476562,-0.6868286,0.7489624,0.59375,0.59375,0.078125
1695990526296,-0.13549805,-0.6748657,0.7550659,-0.296875,-0.28125,-0.921875
1695990526327,-0.12915039,-0.67852783,0.75213623,0.5,-0.28125,-0.640625
1695990526373,-0.13867188,-0.678772,0.7575073,2.0625,0.28125,0.15625
1695990526432,-0.1352539,-0.6694946,0.7665405,2.0,0.5,0.109375
1695990526450,-0.13891602,-0.6836548,0.7472534,0.59375,-0.21875,-0.4375
1695990526510,-0.1315918,-0.6836548,0.7460327,-0.3125,0.6875,-0.28125
1695990526537,-0.13964844,-0.677063,0.7592163,0.140625,-0.078125,-0.140625
1695990526570,-0.14086914,-0.67437744,0.7682495,1.609375,-0.65625,-0.203125
1695990526631,-0.14038086,-0.68463135,0.75701904,1.53125,0.046875,-0.3125
1695990526658,-0.13964844,-0.6709595,0.7484741,0.5,0.265625,-0.296875
1695990526691,-0.14111328,-0.67315674,0.7509155,1.34375,0.15625,-0.234375
1695990526750,-0.13916016,-0.6773071,0.7477417,0.375,-0.09375,-0.28125
1695990526777,-0.1430664,-0.67633057,0.7572632,1.171875,-0.75,0.25
1695990526810,-0.13867188,-0.6799927,0.75531006,1.546875,0.421875,-0.0625
1695990526888,-0.13623047,-0.67388916,0.7538452,0.625,0.046875,-0.859375
1695990526897,-0.14233398,-0.67559814,0.7536011,1.6875,-0.546875,-0.234375
1695990526927,-0.13769531,-0.673645,0.7640991,3.0,1.03125,0.640625
1695990526971,-0.13989258,-0.68536377,0.7543335,1.75,0.953125,-0.15625
1695990527017,-0.13330078,-0.68536377,0.7489624,2.921875,0.0,-0.875
1695990527048,-0.13208008,-0.6748657,0.72991943,0.40625,0.484375,-0.71875
1695990527092,-0.14013672,-0.67755127,0.75701904,-0.171875,-0.328125,-0.515625
1695990527137,-0.14257812,-0.6838989,0.7716675,2.625,-0.84375,0.265625
1695990527167,-0.14111328,-0.70098877,0.7523804,2.703125,0.3125,0.3125
1695990527212,-0.12548828,-0.69488525,0.7345581,0.859375,0.234375,-0.265625
1695990527258,-0.13989258,-0.6812134,0.7340698,1.25,-0.609375,-0.03125
1695990527287,-0.13745117,-0.68829346,0.743103,1.28125,-0.484375,-0.078125
1695990527332,-0.1340332,-0.68951416,0.75164795,0.171875,-0.21875,-0.34375
1695990527362,-0.13574219,-0.68585205,0.74993896,2.0,-0.078125,-0.265625
1695990527408,-0.13867188,-0.6934204,0.74090576,0.71875,0.015625,-0.21875
1695990527452,-0.13623047,-0.6836548,0.7404175,0.140625,-0.046875,0.328125
1695990527483,-0.14404297,-0.6843872,0.7374878,-0.25,0.0625,0.234375
1695990527558,-0.14648438,-0.6838989,0.75286865,-0.171875,0.421875,0.21875
1695990527574,-0.13256836,-0.68096924,0.76776123,1.578125,0.5625,-0.40625
1695990527602,-0.13354492,-0.7012329,0.75579834,0.21875,-0.375,-0.265625
1695990527646,-0.14282227,-0.68927,0.75531006,1.515625,0.5,0.59375
1695990527697,-0.14990234,-0.6670532,0.7560425,2.0,0.28125,0.515625
1695990527722,-0.13500977,-0.6760864,0.75286865,2.265625,0.1875,-0.03125
1695990527768,-0.13232422,-0.6860962,0.74749756,1.53125,0.140625,-0.359375
1695990527812,-0.1328125,-0.68463135,0.7399292,2.375,0.203125,-0.375
1695990527844,-0.13012695,-0.6987915,0.744812,2.734375,0.328125,0.59375
1695990527893,-0.1303711,-0.6929321,0.74554443,1.796875,-0.015625,-0.25
1695990527950,-0.13500977,-0.6878052,0.7374878,2.28125,-0.265625,-0.140625
1695990527961,-0.12451172,-0.6880493,0.7382202,1.78125,0.984375,0.03125
1695990528010,-0.13623047,-0.6878052,0.73065186,1.015625,0.046875,-0.234375
1695990528071,-0.13549805,-0.7112427,0.7460327,3.390625,-0.40625,0.1875
1695990528081,-0.12866211,-0.7022095,0.72821045,2.484375,0.46875,0.15625
1695990528129,-0.12524414,-0.7017212,0.73114014,0.875,0.21875,-0.6875
1695990528190,-0.13134766,-0.69903564,0.7123413,-0.59375,-0.265625,-0.75
1695990528201,-0.12963867,-0.69488525,0.732605,-1.6875,-0.15625,0.15625
1695990528250,-0.14160156,-0.68341064,0.74871826,0.390625,-0.71875,-0.421875
1695990528323,-0.13598633,-0.7058716,0.7457886,1.234375,-0.109375,0.046875
1695990528330,-0.12451172,-0.7078247,0.73553467,-0.625,0.6875,-0.375
1695990528367,-0.13110352,-0.68756104,0.73309326,-1.15625,-0.5,-0.625
1695990528442,-0.13891602,-0.69000244,0.7416382,1.59375,0.046875,0.171875
1695990528446,-0.14160156,-0.69195557,0.74139404,0.34375,0.375,-0.25
1695990528487,-0.13842773,-0.69366455,0.7523804,0.3125,-0.28125,-0.21875
1695990528533,-0.12817383,-0.69610596,0.73602295,-0.171875,0.03125,-0.109375
1695990528562,-0.13378906,-0.690979,0.74432373,-0.3125,-0.046875,-0.0625
1695990528625,-0.12060547,-0.70098877,0.74383545,1.8125,0.046875,-1.09375
1695990528640,-0.12963867,-0.677063,0.73846436,-0.140625,0.21875,-1.40625
1695990528698,-0.1430664,-0.6709595,0.758728,1.09375,-0.125,-0.796875
1695990528726,-0.14990234,-0.69732666,0.7340698,0.234375,0.515625,-0.140625
1695990528762,-0.1352539,-0.6873169,0.74627686,-1.484375,0.75,0.65625
1695990528832,-0.122802734,-0.67852783,0.7538452,-1.140625,-1.0,-0.53125
1695990528850,-0.1418457,-0.68414307,0.75653076,2.140625,-0.390625,-0.390625
1695990528880,-0.14941406,-0.678772,0.7526245,1.46875,1.59375,-0.546875
1695990528937,-0.13183594,-0.69317627,0.7328491,-1.359375,-0.71875,-0.75
1695990528967,-0.13085938,-0.69195557,0.74334717,-0.796875,-0.96875,-0.171875
1695990528997,-0.13574219,-0.68756104,0.75946045,0.421875,-0.15625,-0.40625
1695990529074,-0.14086914,-0.6843872,0.7680054,1.96875,0.125,-0.4375
1695990529087,-0.13110352,-0.69122314,0.7494507,1.015625,0.65625,-0.53125
1695990529117,-0.12695312,-0.6729126,0.73895264,-0.328125,-0.5,-1.140625
1695990529161,-0.14916992,-0.6746216,0.7518921,0.1875,-1.046875,-0.34375
1695990529206,-0.15893555,-0.68218994,0.7523804,0.578125,0.578125,-0.078125
1695990529237,-0.15454102,-0.68707275,0.7597046,0.71875,0.96875,0.078125
1695990529283,-0.118652344,-0.69732666,0.74139404,0.375,0.3125,-0.890625
1695990529327,-0.12817383,-0.678772,0.74627686,-1.40625,0.09375,-0.328125
1695990529356,-0.14233398,-0.65948486,0.7548218,-0.078125,-0.140625,-0.5625
1695990529402,-0.15283203,-0.68170166,0.7699585,2.453125,-0.390625,0.25
1695990529450,-0.13647461,-0.6963501,0.7536011,-0.5,0.140625,-0.28125
1695990529480,-0.13208008,-0.6724243,0.75653076,-0.890625,-0.375,-0.09375
1695990529522,-0.13110352,-0.67559814,0.7531128,2.84375,-0.40625,-0.4375
1695990529569,-0.14233398,-0.6748657,0.7550659,0.359375,0.65625,-0.71875
1695990529599,-0.15209961,-0.66656494,0.7550659,0.0625,0.109375,-0.59375
1695990529641,-0.1496582,-0.6741333,0.7614136,1.203125,0.296875,0.546875
1695990529721,-0.13110352,-0.68829346,0.76361084,0.34375,0.625,0.046875
1695990529726,-0.12939453,-0.6865845,0.7584839,0.78125,0.03125,-0.40625
1695990529762,-0.12963867,-0.66851807,0.7518921,2.265625,0.921875,-0.515625
1695990529792,-0.15283203,-0.67266846,0.75457764,0.40625,0.796875,-0.25
1695990529840,-0.13549805,-0.6934204,0.75653076,1.84375,-0.421875,-0.8125
1695990529883,-0.13549805,-0.6856079,0.7601929,1.5625,0.5625,0.4375
1695990529915,-0.13183594,-0.6651001,0.7536011,0.984375,0.265625,0.5625
1695990529960,-0.14453125,-0.68096924,0.75823975,4.90625,-0.625,-0.09375
1695990530002,-0.15356445,-0.69415283,0.7470093,4.578125,0.765625,0.453125
1695990530032,-0.13354492,-0.6880493,0.7367554,2.421875,0.875,0.1875
1695990530113,-0.123291016,-0.6983032,0.74554443,2.84375,-0.484375,-0.4375
1695990530123,-0.12426758,-0.694397,0.74993896,3.0,-0.546875,-0.375
1695990530154,-0.1418457,-0.6956177,0.7477417,3.359375,0.34375,0.03125
1695990530211,-0.13623047,-0.69000244,0.7260132,2.9375,0.828125,0.078125
1695990530242,-0.12988281,-0.69195557,0.732605,0.296875,0.671875,-0.03125
1695990530275,-0.13110352,-0.68756104,0.73968506,1.34375,-0.390625,-0.28125
1695990530322,-0.14404297,-0.69610596,0.74139404,3.046875,0.671875,0.25
1695990530377,-0.13549805,-0.70977783,0.73309326,2.140625,0.578125,0.125
1695990530394,-0.13012695,-0.6992798,0.7296753,0.1875,0.65625,-0.21875
1695990530436,-0.13696289,-0.6992798,0.73309326,0.84375,-0.53125,0.671875
1695990530497,-0.13476562,-0.70977783,0.7345581,2.046875,-0.046875,-0.015625
1695990530514,-0.12133789,-0.69195557,0.7367554,1.65625,0.421875,-0.640625
1695990530574,-0.1274414,-0.69976807,0.73431396,1.90625,-0.109375,-0.84375
1695990530601,-0.13647461,-0.6951294,0.7272339,0.0625,-0.828125,-1.015625
1695990530642,-0.14428711,-0.7017212,0.72772217,0.828125,-0.71875,0.3125
1695990530697,-0.13598633,-0.7024536,0.73065186,2.765625,0.484375,0.328125
1695990530722,-0.122558594,-0.7034302,0.72772217,0.28125,0.140625,-0.828125
1695990530757,-0.12426758,-0.69537354,0.72772217,0.34375,-0.40625,-0.171875
1695990530813,-0.13647461,-0.6946411,0.7267456,0.65625,0.46875,0.0
1695990530873,-0.13378906,-0.7046509,0.7313843,-0.4375,-0.125,-0.25
1695990530878,-0.13745117,-0.7012329,0.74334717,-0.171875,-0.046875,-0.203125
1695990530932,-0.13183594,-0.69366455,0.7333374,1.0,0.3125,-0.265625
1695990530962,-0.13134766,-0.7041626,0.73651123,1.875,0.640625,-0.296875
1695990530992,-0.13256836,-0.71051025,0.7172241,-1.75,-0.234375,-0.78125
1695990531041,-0.12719727,-0.68829346,0.7387085,-0.78125,0.078125,-0.25
1695990531069,-0.14379883,-0.6865845,0.7428589,1.296875,-0.78125,-0.3125
1695990531129,-0.14477539,-0.70025635,0.7470093,0.84375,0.5,0.296875
1695990531160,-0.13232422,-0.6963501,0.7357788,-0.984375,0.375,-0.671875
1695990531193,-0.12719727,-0.6917114,0.7321167,-0.65625,-0.859375,-0.40625
1695990531251,-0.14160156,-0.6851196,0.7382202,1.375,0.421875,0.109375
1695990531282,-0.13916016,-0.69073486,0.73895264,0.078125,0.328125,-0.6875
1695990531314,-0.13769531,-0.68756104,0.7406616,0.34375,-0.25,-0.609375
1695990531353,-0.12646484,-0.69415283,0.7457886,-0.3125,0.15625,-0.640625
1695990531415,-0.13012695,-0.6868286,0.74383545,-0.859375,-0.25,-0.765625
1695990531430,-0.1430664,-0.69415283,0.7460327,0.421875,0.09375,-0.734375
1695990531475,-0.14257812,-0.68829346,0.7509155,1.171875,0.5,-0.296875
1695990531521,-0.15332031,-0.69122314,0.7601929,2.0,0.796875,0.265625
1695990531562,-0.13305664,-0.7058716,0.72650146,-0.9375,0.890625,-0.6875
1695990531596,-0.123291016,-0.67803955,0.7435913,-1.859375,0.703125,-0.609375
1695990531642,-0.1381836,-0.6712036,0.75653076,0.171875,-1.65625,-0.796875
1695990531669,-0.14526367,-0.69659424,0.7501831,1.921875,-0.046875,0.171875
1695990531716,-0.13842773,-0.692688,0.7484741,-0.140625,1.25,-0.25
1695990531762,-0.13208008,-0.6838989,0.7496948,-0.53125,-0.921875,-0.609375
1695990531789,-0.13793945,-0.68585205,0.7440796,2.234375,-0.828125,0.109375
1695990531834,-0.13720703,-0.6802368,0.75164795,1.5,0.65625,-0.359375
1695990531880,-0.1430664,-0.67852783,0.75994873,0.765625,-0.4375,-0.390625
1695990531911,-0.14355469,-0.68829346,0.7457886,0.859375,-0.09375,-0.046875
1695990531955,-0.140625,-0.70513916,0.74627686,0.453125,1.0,-0.171875
1695990531997,-0.13110352,-0.694397,0.74505615,0.15625,-0.046875,-0.6875
1695990532030,-0.13085938,-0.68096924,0.7496948,1.46875,-0.5625,-0.578125
1695990532076,-0.1394043,-0.67852783,0.75115967,1.25,0.25,-1.03125
1695990532132,-0.13574219,-0.68927,0.7333374,0.328125,0.828125,-1.578125
1695990532155,-0.14819336,-0.6724243,0.74383545,-2.015625,0.21875,-0.359375
1695990532195,-0.15454102,-0.6682739,0.75653076,-1.921875,-1.140625,0.15625
1695990532223,-0.14892578,-0.6807251,0.77264404,1.875,-0.46875,0.84375
1695990532269,-0.13696289,-0.68951416,0.7562866,1.890625,1.28125,0.375
1695990532311,-0.1352539,-0.6824341,0.75042725,-0.890625,0.5625,-0.3125
1695990532342,-0.14477539,-0.6760864,0.7453003,0.890625,-0.578125,-0.359375
1695990532392,-0.1394043,-0.6795044,0.7489624,1.484375,0.28125,-0.4375
1695990532432,-0.13549805,-0.6729126,0.77142334,1.265625,-0.1875,0.015625
1695990532462,-0.13989258,-0.6856079,0.7567749,1.96875,-0.890625,-0.0625
1695990532511,-0.1459961,-0.67266846,0.7387085,0.171875,1.28125,0.0625
1695990532569,-0.14331055,-0.6746216,0.7489624,1.1875,0.09375,0.0
1695990532582,-0.1340332,-0.6856079,0.7575073,1.703125,-0.5625,0.140625
1695990532627,-0.13378906,-0.6758423,0.75408936,1.890625,0.671875,-0.3125
1695990532679,-0.13647461,-0.68634033,0.7536011,2.734375,0.984375,-0.578125
1695990532702,-0.14160156,-0.68878174,0.74432373,-0.96875,0.21875,-0.390625
1695990532762,-0.13061523,-0.6880493,0.74798584,-1.78125,-1.28125,-0.53125
1695990532792,-0.1472168,-0.6741333,0.758728,2.34375,-1.6875,0.65625
1695990532822,-0.14135742,-0.6917114,0.7560425,1.953125,0.703125,0.46875
1695990532882,-0.13867188,-0.68048096,0.7472534,-0.578125,0.5625,-0.453125
1695990532914,-0.13476562,-0.6860962,0.744812,1.375,-0.71875,-0.375
1695990532941,-0.140625,-0.67974854,0.74871826,2.203125,0.203125,0.078125
1695990533007,-0.13769531,-0.67315674,0.75286865,0.0,0.203125,-0.265625
1695990533035,-0.13330078,-0.6799927,0.7489624,1.59375,-0.21875,-0.03125
1695990533062,-0.13647461,-0.6929321,0.7423706,1.3125,0.453125,-0.25
1695990533124,-0.13061523,-0.6831665,0.74749756,-0.25,0.25,-0.546875
1695990533173,-0.14794922,-0.6746216,0.75286865,0.453125,-0.140625,-0.296875
1695990533181,-0.14282227,-0.68096924,0.7575073,2.125,0.359375,-0.171875
1695990533259,-0.1340332,-0.6814575,0.7609253,2.265625,1.09375,-0.25
1695990533273,-0.13256836,-0.69488525,0.74432373,0.09375,0.34375,-0.25
1695990533303,-0.13232422,-0.6782837,0.7484741,0.6875,-0.25,-0.34375
1695990533347,-0.14550781,-0.66119385,0.7567749,1.015625,-0.375,0.0625
1695990533395,-0.14331055,-0.69122314,0.7560425,3.296875,-0.1875,0.609375
1695990533422,-0.140625,-0.6956177,0.74676514,2.125,0.984375,-0.15625
1695990533468,-0.13671875,-0.6917114,0.7453003,1.5,-0.46875,-0.0625
1695990533501,-0.14355469,-0.6851196,0.73773193,2.3125,-0.453125,-0.296875
1695990533557,-0.14086914,-0.6814575,0.74823,1.03125,0.046875,-0.28125
1695990533587,-0.13745117,-0.6843872,0.75408936,3.109375,-0.40625,-0.125
1695990533618,-0.14892578,-0.7000122,0.7357788,2.96875,0.6875,0.28125
1695990533664,-0.14160156,-0.6904907,0.7304077,0.5,0.765625,0.109375
1695990533706,-0.13891602,-0.69073486,0.7411499,0.171875,-0.21875,0.234375
1695990533737,-0.13208008,-0.6838989,0.7394409,1.640625,0.296875,-0.265625
1695990533782,-0.13696289,-0.6880493,0.7423706,2.578125,1.046875,-0.3125
1695990533830,-0.12890625,-0.7095337,0.7316284,0.28125,0.296875,-0.546875
1695990533857,-0.12939453,-0.70196533,0.7399292,-0.921875,0.03125,-0.46875
1695990533902,-0.14282227,-0.6860962,0.74627686,0.75,-1.203125,-0.5
1695990533965,-0.14526367,-0.68951416,0.7418823,1.359375,-0.203125,0.234375
1695990533977,-0.13061523,-0.68585205,0.7406616,-0.859375,0.984375,-0.125
1695990534022,-0.12817383,-0.6873169,0.7445679,-0.546875,-0.46875,-0.796875
1695990534067,-0.14282227,-0.69122314,0.7501831,1.640625,0.359375,0.484375
1695990534096,-0.12963867,-0.6983032,0.744812,1.453125,0.28125,-0.234375
1695990534141,-0.1303711,-0.6897583,0.7423706,-0.046875,-0.09375,-0.484375
1695990534186,-0.13574219,-0.68414307,0.7460327,0.1875,0.609375,-0.34375
1695990534217,-0.14038086,-0.69537354,0.7404175,0.609375,0.34375,-0.796875
1695990534262,-0.13549805,-0.6983032,0.74139404,-0.140625,0.0,-0.8125
1695990534325,-0.13452148,-0.6860962,0.7526245,0.3125,-0.65625,-0.546875
1695990534339,-0.1459961,-0.67803955,0.7538452,1.734375,0.53125,-0.015625
1695990534382,-0.13623047,-0.69854736,0.7328491,-1.0,0.78125,-0.75
1695990534427,-0.12402344,-0.6831665,0.7435913,-2.265625,0.09375,-0.265625
1695990534460,-0.13623047,-0.6638794,0.7572632,0.171875,-1.09375,-0.046875
1695990534502,-0.14404297,-0.6914673,0.7567749,2.328125,0.265625,0.40625
1695990534563,-0.1381836,-0.6975708,0.7572632,1.0625,0.890625,0.125
1695990534576,-0.12890625,-0.6826782,0.7406616,-0.625,-0.125,-0.796875
1695990534625,-0.12475586,-0.67071533,0.746521,0.0625,0.125,-0.796875
1695990534652,-0.15136719,-0.6709595,0.75531006,0.21875,-0.453125,-0.421875
1695990534699,-0.1459961,-0.6824341,0.7628784,1.3125,-0.546875,0.3125
1695990534759,-0.13745117,-0.6885376,0.74993896,0.40625,0.53125,-0.109375
1695990534772,-0.13354492,-0.68048096,0.7584839,0.34375,-0.15625,-0.6875
1695990534819,-0.14672852,-0.67559814,0.75213623,1.5,-0.140625,-0.359375
1695990534879,-0.14257812,-0.67803955,0.7518921,1.90625,0.921875,0.328125
1695990534892,-0.13305664,-0.68463135,0.7445679,-1.046875,0.625,-0.75
1695990534938,-0.12133789,-0.68463135,0.7477417,-0.90625,-0.546875,-0.9375
1695990534999,-0.1381836,-0.6807251,0.75994873,1.3125,0.46875,0.1875
1695990535012,-0.14135742,-0.68341064,0.75897217,0.109375,0.796875,-0.6875
1695990535057,-0.14404297,-0.6831665,0.758728,0.6875,-0.609375,-0.390625
1695990535135,-0.13989258,-0.68048096,0.7518921,0.4375,0.3125,0.328125
1695990535142,-0.14013672,-0.67144775,0.74798584,-0.53125,0.015625,-0.15625
1695990535198,-0.13305664,-0.67803955,0.75531006,0.328125,-0.34375,-0.625
1695990535222,-0.13452148,-0.68463135,0.7562866,0.453125,0.359375,-0.25
1695990535255,-0.13891602,-0.6712036,0.76678467,-0.0625,-0.65625,-0.03125
1695990535316,-0.14135742,-0.67388916,0.76190186,0.59375,-0.671875,-0.3125
1695990535342,-0.13085938,-0.6680298,0.7531128,-0.203125,0.578125,-0.203125
1695990535374,-0.1430664,-0.6802368,0.7609253,0.46875,0.0625,-0.3125
1695990535432,-0.140625,-0.67633057,0.7601929,0.859375,0.03125,-0.296875
1695990535462,-0.13623047,-0.66851807,0.76312256,0.359375,-0.03125,0.125
1695990535493,-0.14477539,-0.6651001,0.7719116,2.0,-0.078125,-0.109375
1695990535537,-0.14013672,-0.68463135,0.744812,0.53125,0.6875,-0.09375
1695990535583,-0.12866211,-0.6692505,0.7489624,-1.203125,1.015625,-0.703125
1695990535614,-0.14282227,-0.6592407,0.7728882,0.4375,-0.921875,0.234375
1695990535656,-0.140625,-0.6765747,0.7670288,2.34375,-0.046875,0.34375
1695990535702,-0.13720703,-0.6773071,0.7543335,0.40625,1.46875,-1.15625
1695990535732,-0.14550781,-0.6655884,0.7601929,1.859375,0.1875,0.328125
1695990535779,-0.13330078,-0.67755127,0.74871826,2.515625,-0.15625,0.203125
1695990535822,-0.1237793,-0.67437744,0.7572632,0.140625,-0.546875,-0.71875
1695990535852,-0.12231445,-0.6538696,0.77215576,1.6875,-1.15625,-0.375
1695990535897,-0.14746094,-0.6721802,0.7562866,1.59375,0.71875,0.1875
1695990535942,-0.16015625,-0.67755127,0.7680054,2.953125,-0.53125,1.203125
1695990535971,-0.15625,-0.6958618,0.7616577,3.171875,-0.171875,1.1875
1695990536016,-0.13110352,-0.69537354,0.7489624,3.859375,0.671875,0.671875
1695990536047,-0.115234375,-0.663147,0.7428589,3.734375,0.15625,-0.6875
1695990536094,-0.12719727,-0.6602173,0.7514038,3.59375,0.28125,-1.140625
1695990536140,-0.15112305,-0.6987915,0.7357788,2.3125,-0.09375,-0.359375
1695990536167,-0.1418457,-0.71417236,0.75164795,0.53125,0.484375,0.640625
1695990536212,-0.13256836,-0.6812134,0.7440796,0.796875,-0.640625,0.109375
1695990536259,-0.125,-0.68634033,0.74505615,3.359375,0.0,-0.1875
1695990536287,-0.13476562,-0.67926025,0.732605,0.984375,0.953125,-1.375
1695990536332,-0.14404297,-0.69195557,0.7357788,0.65625,-0.4375,-0.75
1695990536381,-0.1430664,-0.70758057,0.74090576,2.4375,-0.421875,0.5625
1695990536408,-0.13720703,-0.7034302,0.7453003,1.40625,-0.609375,0.671875
1695990536452,-0.12963867,-0.692688,0.7453003,2.4375,-0.71875,-0.046875
1695990536496,-0.13354492,-0.69000244,0.7243042,1.5,0.5625,-0.09375
1695990536527,-0.14550781,-0.6826782,0.72528076,-0.109375,0.203125,0.0
1695990536574,-0.140625,-0.69415283,0.72698975,0.015625,-0.546875,0.078125
1695990536634,-0.13330078,-0.69976807,0.74432373,0.796875,-0.25,-0.328125
1695990536646,-0.14624023,-0.69781494,0.74334717,1.90625,0.125,0.65625
1695990536695,-0.1328125,-0.6980591,0.72991943,0.84375,-0.015625,-0.09375
1695990536758,-0.13134766,-0.6914673,0.7345581,-2.234375,0.484375,-0.671875
1695990536768,-0.12573242,-0.6773071,0.75115967,-0.390625,-0.203125,-0.8125
1695990536813,-0.14379883,-0.6812134,0.74212646,0.421875,0.171875,-0.5
1695990536872,-0.14428711,-0.70684814,0.7394409,0.640625,0.625,0.4375
1695990536887,-0.12841797,-0.7041626,0.7350464,-0.046875,-0.1875,-0.421875
1695990536947,-0.12207031,-0.69317627,0.743103,-0.0625,0.234375,-1.515625
1695990536977,-0.13549805,-0.6782837,0.7460327,2.296875,0.015625,0.125
1695990537009,-0.1459961,-0.6848755,0.73553467,-0.046875,-0.140625,-0.5625
1695990537052,-0.13671875,-0.69537354,0.7445679,-0.65625,-0.21875,0.34375
1695990537084,-0.13208008,-0.69366455,0.7440796,-0.46875,-0.5,-0.171875
1695990537127,-0.13671875,-0.6831665,0.75408936,0.234375,-0.609375,-0.171875
1695990537188,-0.14526367,-0.6729126,0.7379761,-0.0625,0.484375,-0.75
1695990537201,-0.14233398,-0.6836548,0.7609253,0.90625,0.453125,0.25
1695990537279,-0.13085938,-0.6902466,0.746521,-0.59375,0.171875,0.015625
1695990537292,-0.11694336,-0.6992798,0.73480225,-2.296875,-0.359375,-0.71875
1695990537323,-0.14086914,-0.66900635,0.746521,-3.109375,-0.34375,-0.5
1695990537382,-0.14282227,-0.67193604,0.7680054,-1.953125,-0.28125,-0.765625
1695990537415,-0.14550781,-0.6799927,0.7670288,-0.671875,-1.625,-0.75
1695990537449,-0.14331055,-0.6729126,0.75946045,-1.484375,-0.984375,-0.21875
1695990537502,-0.13989258,-0.6616821,0.7509155,-1.484375,0.171875,-1.171875
1695990537532,-0.15454102,-0.6589966,0.75042725,-1.0625,-0.75,-0.046875
1695990537565,-0.15136719,-0.66070557,0.7772827,1.171875,-0.421875,-0.265625
1695990537636,-0.14038086,-0.66070557,0.7687378,-0.640625,-0.640625,-1.078125
1695990537655,-0.1352539,-0.66607666,0.77337646,-0.0625,0.078125,-0.765625
1695990537686,-0.1496582,-0.68048096,0.76849365,2.453125,0.140625,-1.34375
1695990537757,-0.14624023,-0.6651001,0.7687378,-0.140625,-0.1875,-1.4375
1695990537772,-0.14453125,-0.6577759,0.76312256,-1.09375,-0.875,-1.0625
1695990537804,-0.14941406,-0.64434814,0.7616577,-0.1875,-0.71875,-1.203125
1695990537848,-0.1550293,-0.6560669,0.7789917,-0.890625,0.171875,-0.640625
1695990537891,-0.14916992,-0.6760864,0.7694702,0.34375,-0.5625,-0.796875
1695990537922,-0.15258789,-0.67022705,0.76727295,0.578125,0.5,-0.765625
1695990537967,-0.16040039,-0.6494751,0.76727295,-0.34375,0.328125,-0.890625
1695990538015,-0.15991211,-0.66656494,0.7838745,3.015625,-0.53125,0.03125
1695990538044,-0.16455078,-0.6524048,0.7626343,1.734375,1.4375,-0.265625
1695990538090,-0.16137695,-0.6502075,0.75994873,-0.71875,0.296875,-0.0625
1695990538147,-0.16015625,-0.6572876,0.7616577,0.3125,-1.21875,-0.125
1695990538164,-0.16772461,-0.6729126,0.77752686,1.28125,0.5,-0.03125
1695990538207,-0.15454102,-0.65093994,0.7880249,2.671875,0.265625,-0.109375
1695990538257,-0.15209961,-0.65753174,0.7665405,3.015625,0.375,-0.53125
1695990538297,-0.14916992,-0.65948486,0.7616577,1.28125,0.484375,-0.25
1695990538328,-0.15527344,-0.6567993,0.76556396,1.75,-0.125,-0.671875
1695990538358,-0.15942383,-0.6646118,0.77264404,2.875,0.265625,-0.0625
1695990538403,-0.15405273,-0.6704712,0.7711792,4.328125,0.046875,0.046875
1695990538462,-0.14428711,-0.67315674,0.76483154,3.1875,0.484375,-0.4375
1695990538480,-0.15673828,-0.68463135,0.7391968,2.171875,0.390625,-0.15625
1695990538528,-0.15112305,-0.67144775,0.7538452,2.453125,0.578125,0.453125
1695990538570,-0.1484375,-0.6553345,0.74993896,0.328125,-0.015625,-0.046875
1695990538599,-0.15698242,-0.67193604,0.7592163,2.34375,0.109375,1.109375
1695990538661,-0.15405273,-0.68096924,0.75823975,2.921875,0.9375,1.203125
1695990538686,-0.14575195,-0.6851196,0.7423706,0.328125,0.375,0.421875
1695990538720,-0.140625,-0.68048096,0.74139404,1.59375,-0.421875,0.234375
1695990538765,-0.1484375,-0.6680298,0.74749756,1.8125,-0.15625,0.078125
1695990538822,-0.15185547,-0.6675415,0.75946045,1.609375,-0.015625,-0.078125
1695990538842,-0.15014648,-0.68707275,0.75286865,1.171875,-0.078125,-0.25
1695990538884,-0.15112305,-0.69195557,0.7538452,-0.25,0.28125,-0.359375
1695990538931,-0.14477539,-0.673645,0.75286865,1.625,-0.125,-0.453125
1695990538959,-0.15356445,-0.6868286,0.75531006,2.71875,0.484375,0.0625
1695990539002,-0.14550781,-0.6704712,0.7501831,3.28125,1.09375,0.078125
1695990539098,-0.14257812,-0.6890259,0.7404175,2.5,0.421875,-0.34375
1695990539104,-0.13769531,-0.69073486,0.7279663,-0.921875,-0.5,-1.25
1695990539125,-0.14404297,-0.66851807,0.7472534,-0.859375,-0.4375,-0.59375
1695990539182,-0.16430664,-0.66851807,0.7536011,1.125,-0.21875,0.0
1695990539201,-0.15356445,-0.70147705,0.7572632,1.875,0.71875,0.90625
1695990539258,-0.13378906,-0.68707275,0.7453003,-0.15625,0.609375,-0.171875
1695990539289,-0.14038086,-0.67193604,0.7379761,-1.09375,-0.6875,-0.109375
1695990539320,-0.1574707,-0.6716919,0.75335693,1.421875,-0.390625,0.40625
1695990539380,-0.14794922,-0.68218994,0.75701904,0.25,0.125,-0.25
1695990539410,-0.14404297,-0.6860962,0.75994873,1.25,-0.1875,-0.03125
1695990539440,-0.14526367,-0.6880493,0.7536011,1.734375,0.34375,-0.078125
1695990539501,-0.14501953,-0.6758423,0.743103,0.703125,0.375,-0.25
1695990539512,-0.14111328,-0.6760864,0.7453003,0.125,0.078125,-0.5625
1695990539571,-0.15209961,-0.6851196,0.76434326,1.265625,0.25,0.25
1695990539606,-0.1538086,-0.68292236,0.7460327,1.5,0.265625,-0.671875
1695990539633,-0.140625,-0.6897583,0.73968506,1.515625,0.125,-0.890625
1695990539691,-0.14453125,-0.6807251,0.7382202,-0.875,0.34375,-0.15625
1695990539725,-0.13720703,-0.6802368,0.76190186,-1.5,-0.21875,-0.234375
1695990539752,-0.15478516,-0.6680298,0.7706909,1.6875,-0.671875,0.171875
1695990539812,-0.15356445,-0.692688,0.7575073,2.46875,1.21875,0.3125
1695990539847,-0.14941406,-0.6814575,0.7440796,0.796875,1.03125,-0.203125
1695990539872,-0.1430664,-0.68048096,0.73553467,0.734375,-0.421875,0.28125
1695990539934,-0.14013672,-0.68170166,0.7445679,1.5625,-0.46875,0.046875
1695990539967,-0.13598633,-0.68634033,0.7572632,0.84375,0.328125,-0.640625
1695990539992,-0.13964844,-0.68536377,0.7592163,1.28125,0.25,-0.234375
1695990540044,-0.14575195,-0.6807251,0.7472534,0.390625,0.15625,-0.375
1695990540084,-0.15454102,-0.66607666,0.7514038,0.0625,-0.5,-0.203125
1695990540112,-0.14672852,-0.6760864,0.75335693,1.375,-0.125,0.15625
1695990540158,-0.14819336,-0.6812134,0.75897217,2.5,0.40625,-0.28125
1695990540203,-0.14453125,-0.6917114,0.7575073,1.921875,1.359375,-0.421875
1695990540232,-0.14257812,-0.694397,0.72332764,-1.0625,-0.609375,-0.625
1695990540280,-0.140625,-0.6712036,0.74993896,-1.8125,-0.609375,0.015625
1695990540337,-0.14746094,-0.6616821,0.7653198,-0.25,-0.984375,-0.328125
1695990540356,-0.15527344,-0.6838989,0.762146,2.1875,0.4375,0.078125
1695990540399,-0.14990234,-0.6873169,0.7435913,0.8125,1.40625,-0.296875
1695990540446,-0.14111328,-0.68048096,0.74871826,-0.875,-0.96875,-0.5625
1695990540472,-0.14770508,-0.67681885,0.74823,1.140625,-1.15625,-0.234375
1695990540519,-0.15063477,-0.67315674,0.7514038,1.140625,0.671875,-0.328125
1695990540565,-0.14624023,-0.68634033,0.7614136,1.1875,-0.40625,0.015625
1695990540594,-0.15283203,-0.68414307,0.75701904,1.25,-0.4375,0.203125
1695990540638,-0.14819336,-0.6838989,0.74920654,0.703125,0.25,0.0
1695990540700,-0.14013672,-0.6746216,0.7457886,0.609375,0.28125,-0.34375
1695990540712,-0.14916992,-0.66851807,0.75823975,1.890625,0.1875,0.1875
1695990540763,-0.1496582,-0.6873169,0.75042725,1.421875,0.4375,-0.234375
1695990540787,-0.13623047,-0.6975708,0.7379761,1.328125,1.09375,-0.53125
1695990540832,-0.14770508,-0.6802368,0.7472534,0.15625,0.890625,-0.203125
1695990540880,-0.13598633,-0.68292236,0.7575073,-1.453125,-0.625,-0.421875
1695990540907,-0.16552734,-0.67266846,0.7584839,0.984375,-0.53125,0.5
1695990540952,-0.14697266,-0.6814575,0.7494507,0.484375,1.359375,-0.046875
1695990541013,-0.140625,-0.6802368,0.74749756,-0.859375,-0.328125,-0.640625
1695990541030,-0.14575195,-0.6741333,0.75213623,0.59375,-1.125,-0.359375
1695990541073,-0.1496582,-0.677063,0.76116943,1.125,0.203125,-0.234375
1695990541131,-0.13745117,-0.6682739,0.7597046,0.1875,0.078125,-0.1875
1695990541147,-0.14404297,-0.675354,0.7514038,0.359375,-0.140625,-0.015625
1695990541201,-0.1508789,-0.6692505,0.7562866,-0.328125,0.171875,-0.59375
1695990541252,-0.14526367,-0.67315674,0.76605225,1.15625,-0.078125,-0.578125
1695990541267,-0.14575195,-0.67266846,0.7626343,2.46875,0.46875,0.125
1695990541312,-0.14526367,-0.6773071,0.7536011,0.078125,0.328125,-0.40625
1695990541371,-0.1418457,-0.6765747,0.7428589,0.4375,-0.046875,-0.84375
1695990541387,-0.14624023,-0.6704712,0.743103,-1.046875,0.578125,-0.34375
1695990541450,-0.14453125,-0.67071533,0.7579956,-1.140625,-0.09375,-0.625
1695990541482,-0.15356445,-0.67266846,0.77215576,1.671875,-0.796875,-0.078125
1695990541508,-0.15307617,-0.6777954,0.76312256,1.203125,1.015625,-0.0625
1695990541570,-0.13867188,-0.6638794,0.7567749,-0.59375,0.3125,-0.828125
1695990541598,-0.14453125,-0.67144775,0.75164795,0.46875,-0.578125,-0.5
1695990541626,-0.14648438,-0.6746216,0.7550659,1.296875,-0.34375,-0.109375
1695990541691,-0.14794922,-0.66900635,0.7645874,-0.203125,-0.171875,-0.390625
1695990541719,-0.14575195,-0.6687622,0.76678467,0.375,-0.203125,-0.375
1695990541747,-0.15161133,-0.66851807,0.7614136,-0.109375,-0.046875,-0.5
1695990541808,-0.15405273,-0.6663208,0.7592163,-0.359375,-0.578125,-0.109375
1695990541884,-0.15649414,-0.6589966,0.7675171,1.34375,0.71875,0.15625
1695990541890,-0.15527344,-0.6729126,0.762146,1.203125,0.609375,-0.484375
1695990541911,-0.14013672,-0.678772,0.758728,1.65625,0.46875,-0.734375
1695990541947,-0.14575195,-0.6616821,0.74334717,-1.640625,0.921875,-0.640625
1695990542006,-0.14111328,-0.6526489,0.7616577,-2.640625,-0.1875,-1.125
1695990542032,-0.15917969,-0.66241455,0.7848511,1.515625,-1.390625,-0.140625
1695990542066,-0.15527344,-0.67388916,0.77142334,1.125,0.78125,0.265625
1695990542127,-0.15039062,-0.6621704,0.7670288,-1.28125,0.375,-0.890625
1695990542152,-0.15600586,-0.6592407,0.7653198,-0.34375,-1.09375,-0.4375
1695990542182,-0.14648438,-0.6604614,0.7682495,0.609375,-0.25,-0.078125
1695990542260,-0.14453125,-0.6592407,0.7758179,-0.53125,0.234375,-0.5
1695990542272,-0.15161133,-0.66070557,0.7770386,0.96875,-0.359375,-0.28125
1695990542303,-0.1508789,-0.65167236,0.76898193,-0.078125,0.265625,-0.3125
1695990542347,-0.15625,-0.65997314,0.77093506,-0.796875,-0.296875,-0.421875
