,timestamp,accel_x,accel_y,accel_z,gyro_x,gyro_y,gyro_z
0,1697605965,0.99609375,0.12109375,-0.029296875,1.15625,0.0625,-0.0625
1,1697606005,0.99121094,0.1171875,-0.02734375,1.15625,0.0625,0.0625
2,1697606045,1.0,0.125,-0.034179688,0.40625,0.03125,0.0625
3,1697606085,0.9980469,0.12402344,-0.028320312,1.21875,0.25,0.125
4,1697606125,0.9863281,0.12597656,-0.021484375,0.84375,0.03125,-0.125
5,1697606165,0.9941406,0.13378906,-0.028320312,0.65625,0.125,-0.3125
6,1697606205,0.9921875,0.13476562,-0.030273438,0.125,0.125,-0.25
7,1697606245,1.0019531,0.12988281,-0.021484375,0.0,0.3125,-0.125
8,1697606285,0.9892578,0.12597656,-0.028320312,0.53125,0.125,-0.1875
9,1697606325,0.98828125,0.12695312,-0.024414062,0.3125,-0.03125,0.1875
10,1697606365,0.99902344,0.12988281,-0.0390625,0.40625,-0.09375,0.1875
11,1697606405,0.9951172,0.12597656,-0.020507812,0.46875,-0.15625,0.25
12,1697606445,0.9902344,0.12988281,-0.026367188,0.59375,-0.09375,0.0
13,1697606485,0.9863281,0.13574219,-0.037109375,0.46875,0.03125,-0.0625
14,1697606525,0.9921875,0.12988281,-0.0146484375,-0.25,-0.21875,-0.25
15,1697606565,0.99316406,0.12890625,-0.028320312,0.25,0.0625,0.4375
16,1697606605,0.9941406,0.12988281,-0.028320312,0.0,-0.28125,0.0625
17,1697606645,0.9980469,0.12890625,-0.044921875,-0.1875,-0.34375,-0.25
18,1697606685,0.9892578,0.12792969,-0.028320312,0.0,-0.09375,-0.25
19,1697606725,0.99902344,0.12792969,-0.032226562,-0.25,0.03125,0.1875
20,1697606765,0.9941406,0.12597656,-0.0390625,-0.3125,-0.03125,-0.0625
21,1697606805,0.98828125,0.12890625,-0.034179688,-0.3125,0.0625,0.0
22,1697606845,0.9951172,0.12695312,-0.024414062,0.0,0.1875,-0.0625
23,1697606885,0.9951172,0.1328125,-0.036132812,-0.1875,0.25,0.0
24,1697606925,0.99609375,0.11621094,-0.029296875,0.125,0.375,-0.25
25,1697606965,0.9902344,0.12597656,-0.040039062,0.25,0.5,0.125
26,1697607005,0.9921875,0.12695312,-0.030273438,0.3125,0.25,-0.25
27,1697607045,1.0039062,0.13085938,-0.018554688,0.1875,0.8125,0.25
28,1697607085,0.98828125,0.12695312,-0.02734375,0.71875,0.5625,0.25
29,1697607125,0.99121094,0.12597656,-0.017578125,0.125,0.4375,-0.0625
30,1697607165,0.9970703,0.125,-0.040039062,0.34375,0.5,-0.4375
31,1697607205,0.9951172,0.12695312,-0.034179688,0.34375,0.6875,-0.1875
32,1697607245,1.0009766,0.13476562,-0.026367188,0.1875,0.875,0.0625
33,1697607285,0.9824219,0.13378906,-0.025390625,0.40625,0.1875,-0.125
34,1697607325,0.9921875,0.123046875,-0.022460938,0.125,0.25,-0.25
35,1697607365,1.0019531,0.13378906,-0.017578125,0.34375,0.1875,-0.0625
36,1697607405,1.0,0.12695312,-0.02734375,0.34375,0.375,-0.25
37,1697607445,0.9980469,0.125,-0.024414062,0.34375,0.25,-0.5625
38,1697607485,0.9873047,0.12597656,-0.02734375,0.1875,0.4375,-0.375
39,1697607525,0.9970703,0.13964844,-0.024414062,0.0625,0.0625,-0.5625
40,1697607565,0.9951172,0.12890625,-0.02734375,-0.625,0.625,0.125
41,1697607605,0.9902344,0.12207031,-0.026367188,-0.0625,0.1875,-0.375
42,1697607645,0.99316406,0.12890625,-0.025390625,0.0625,0.03125,-0.96875
43,1697607685,0.9941406,0.14355469,-0.020507812,0.125,0.1875,-1.03125
44,1697607725,0.9951172,0.14160156,-0.017578125,0.1875,0.3125,-0.6875
45,1697607765,0.98535156,0.13769531,-0.0234375,-0.125,0.125,-0.75
46,1697607805,0.99902344,0.13964844,-0.028320312,-0.375,0.375,-1.15625
47,1697607845,0.9921875,0.13671875,-0.01953125,-0.125,0.0625,-0.75
48,1697607885,0.99121094,0.14160156,-0.028320312,0.25,0.03125,-0.5
49,1697607925,0.9873047,0.14550781,-0.020507812,-0.4375,0.03125,-0.4375
50,1697607965,0.9951172,0.13964844,-0.025390625,-0.25,-0.09375,-0.375
51,1697608005,0.984375,0.13769531,-0.03125,-0.0625,-0.03125,-0.0625
52,1697608045,1.0029297,0.13964844,-0.028320312,-0.4375,-0.21875,0.1875
53,1697608085,0.98828125,0.13964844,-0.030273438,0.34375,0.1875,0.59375
54,1697608125,0.9902344,0.12695312,-0.022460938,-0.4375,-0.53125,0.84375
55,1697608165,0.9980469,0.14257812,-0.0234375,-0.1875,-0.15625,0.46875
56,1697608205,0.99902344,0.14453125,-0.024414062,-0.4375,0.0625,0.4375
57,1697608245,0.9941406,0.1328125,-0.020507812,-0.6875,0.1875,0.65625
58,1697608285,0.9892578,0.12890625,-0.018554688,-0.5,0.3125,0.46875
59,1697608325,1.0,0.12597656,-0.025390625,-0.75,-0.09375,0.90625
60,1697608365,0.9951172,0.12988281,-0.029296875,-0.3125,-0.09375,0.78125
61,1697608405,0.99121094,0.12597656,-0.030273438,0.0,-0.40625,0.65625
62,1697608445,0.9980469,0.12597656,-0.02734375,0.90625,-0.09375,0.375
63,1697608485,0.98828125,0.12695312,-0.024414062,0.78125,-0.03125,0.4375
64,1697608525,1.0029297,0.13769531,-0.033203125,0.46875,-0.53125,0.4375
65,1697608565,0.9892578,0.13671875,-0.015625,0.34375,-0.09375,0.84375
66,1697608605,0.99316406,0.13964844,-0.03125,0.46875,-0.71875,0.65625
67,1697608645,0.99316406,0.12988281,-0.021484375,0.1875,-0.65625,0.25
68,1697608685,0.99121094,0.13574219,-0.018554688,0.125,-0.59375,0.25
69,1697608725,1.0078125,0.1328125,-0.022460938,0.125,-0.53125,0.375
70,1697608765,0.99121094,0.13378906,-0.0234375,0.25,-0.65625,0.25
71,1697608805,0.984375,0.125,-0.034179688,-0.0625,-0.96875,0.46875
72,1697608845,0.98828125,0.1328125,-0.03515625,-0.125,-1.03125,0.59375
73,1697608885,0.98828125,0.12890625,-0.02734375,0.0,-0.96875,0.46875
74,1697608925,0.99609375,0.12792969,-0.020507812,-0.125,-1.03125,0.46875
75,1697608965,0.9921875,0.12402344,-0.036132812,0.0,-0.59375,0.59375
76,1697609005,0.99316406,0.123046875,-0.0390625,-0.25,-1.03125,0.46875
77,1697609045,0.9921875,0.12695312,-0.030273438,-0.3125,-0.78125,0.78125
78,1697609085,0.9873047,0.12890625,-0.022460938,0.0625,-0.96875,1.03125
79,1697609125,0.9980469,0.11425781,-0.022460938,0.0,-0.84375,0.65625
80,1697609165,1.0009766,0.12109375,-0.038085938,-0.125,-0.90625,0.53125
81,1697609205,1.0039062,0.12207031,-0.046875,0.0,-0.78125,0.46875
82,1697609245,0.99902344,0.115234375,-0.034179688,0.25,-0.28125,0.59375
83,1697609285,0.99121094,0.12792969,-0.036132812,0.46875,-0.34375,0.65625
84,1697609325,0.9921875,0.12890625,-0.041015625,0.125,-0.46875,0.78125
85,1697609365,0.99609375,0.12597656,-0.02734375,0.46875,-0.09375,0.46875
86,1697609405,0.99902344,0.12695312,-0.041992188,0.96875,0.25,0.125
87,1697609445,0.99609375,0.1328125,-0.049804688,0.84375,0.0625,0.125
88,1697609485,0.9902344,0.119140625,-0.036132812,0.53125,0.5625,0.25
89,1697609525,0.99902344,0.123046875,-0.036132812,-0.3125,-0.09375,0.125
90,1697609565,0.9824219,0.115234375,-0.033203125,-0.1875,0.375,0.4375
91,1697609605,0.99316406,0.119140625,-0.03125,0.0,-0.15625,0.1875
92,1697609645,0.99316406,0.119140625,-0.0390625,-0.25,0.125,0.0625
93,1697609685,1.0029297,0.13183594,-0.03515625,-0.0625,-0.09375,0.125
94,1697609725,1.0,0.123046875,-0.021484375,-0.5,0.0625,0.59375
95,1697609765,0.9863281,0.119140625,-0.04296875,-0.1875,-0.15625,0.4375
96,1697609805,0.99121094,0.11816406,-0.0390625,-0.3125,-0.15625,0.71875
97,1697609845,0.99316406,0.1171875,-0.013671875,-0.1875,-0.40625,0.65625
98,1697609885,1.0009766,0.11621094,-0.038085938,0.25,-0.03125,0.59375
99,1697609925,0.99121094,0.115234375,-0.024414062,0.3125,0.1875,0.71875
100,1697609965,0.9921875,0.12011719,-0.036132812,0.65625,0.0625,0.71875
101,1697610005,0.99316406,0.11621094,-0.03515625,0.59375,-0.15625,0.4375
102,1697610045,1.0048828,0.11328125,-0.02734375,0.65625,0.1875,0.71875
103,1697610085,0.9902344,0.11816406,-0.03125,1.21875,0.0625,0.59375
104,1697610125,0.99316406,0.12011719,-0.01953125,0.59375,-0.03125,0.0625
105,1697610165,0.9921875,0.11621094,-0.024414062,0.125,0.125,-0.1875
106,1697610205,0.99609375,0.11816406,-0.041992188,-0.25,-0.09375,0.1875
107,1697610245,0.9980469,0.11621094,-0.01953125,0.1875,0.3125,0.0625
108,1697610285,0.99316406,0.123046875,-0.022460938,0.40625,-0.03125,-0.3125
109,1697610325,0.9892578,0.11621094,-0.022460938,0.3125,0.1875,-0.125
110,1697610365,0.9921875,0.11621094,-0.04296875,-0.0625,-0.09375,-0.1875
111,1697610405,1.0,0.115234375,-0.034179688,0.3125,-0.03125,-0.125
112,1697610445,0.9921875,0.11230469,-0.030273438,0.40625,0.03125,-0.3125
113,1697610485,0.9921875,0.11035156,-0.021484375,0.0625,0.03125,-0.1875
114,1697610525,0.99902344,0.12109375,-0.051757812,-0.5625,-0.34375,-0.375
115,1697610565,0.99609375,0.119140625,-0.029296875,-0.5,0.1875,0.0625
116,1697610605,0.9863281,0.11425781,-0.03515625,0.0625,-0.09375,0.25
117,1697610645,0.9980469,0.11425781,-0.041992188,-0.25,-0.28125,-0.3125
118,1697610685,1.0058594,0.11230469,-0.01953125,-0.1875,-0.15625,-0.3125
119,1697610725,1.0,0.11035156,-0.040039062,-0.125,-0.15625,0.1875
120,1697610765,0.98828125,0.11328125,-0.02734375,0.0,-0.09375,-0.0625
121,1697610805,1.0019531,0.12207031,-0.032226562,0.0,-0.09375,-0.0625
122,1697610845,0.99902344,0.1171875,-0.051757812,-0.4375,0.125,-0.0625
123,1697610885,1.0009766,0.12109375,-0.030273438,0.0,0.03125,0.125
124,1697610925,0.9951172,0.11425781,-0.040039062,-0.5,-0.03125,0.0625
125,1697610965,0.98828125,0.109375,-0.04296875,-0.25,-0.15625,-0.0625
126,1697611005,1.0029297,0.11328125,-0.028320312,0.3125,0.0625,0.0625
127,1697611045,0.9941406,0.11035156,-0.030273438,-0.0625,-0.46875,-0.125
128,1697611085,1.0078125,0.125,-0.0390625,-0.4375,0.0625,0.125
129,1697611125,0.99316406,0.119140625,-0.040039062,-0.4375,0.03125,0.4375
130,1697611165,1.0,0.107421875,-0.038085938,-1.53125,-0.28125,-0.0625
131,1697611205,0.9921875,0.11621094,-0.034179688,-1.59375,-0.09375,-0.375
132,1697611245,0.98535156,0.115234375,-0.04296875,-1.34375,0.03125,0.25
133,1697611285,0.99121094,0.11035156,-0.034179688,-1.53125,0.03125,0.3125
134,1697611325,1.0009766,0.11328125,-0.040039062,-1.09375,-0.09375,-0.1875
135,1697611365,0.99316406,0.10449219,-0.037109375,-1.21875,0.125,0.0625
136,1697611405,1.0048828,0.11425781,-0.037109375,-0.8125,0.1875,0.125
137,1697611445,0.9980469,0.11425781,-0.03125,-0.6875,0.375,0.0
138,1697611485,0.99316406,0.11035156,-0.03515625,-0.5625,0.3125,0.0
139,1697611525,0.9863281,0.1015625,-0.038085938,-0.0625,0.25,-0.0625
140,1697611565,0.99902344,0.11328125,-0.0390625,-0.25,0.03125,-0.3125
141,1697611605,0.9970703,0.10839844,-0.028320312,0.0625,0.75,0.375
142,1697611645,0.9902344,0.11230469,-0.015625,0.0625,-0.03125,-0.125
143,1697611685,1.0019531,0.10546875,-0.03515625,-0.375,-0.34375,-0.625
144,1697611725,0.9970703,0.125,-0.0234375,0.1875,-0.03125,-0.75
145,1697611765,0.9980469,0.10546875,-0.034179688,0.25,-0.03125,-0.625
146,1697611805,0.9970703,0.10546875,-0.040039062,0.34375,-0.21875,-0.5
147,1697611845,0.9970703,0.10546875,-0.03515625,-0.1875,-0.34375,-0.3125
148,1697611885,0.99316406,0.115234375,-0.01953125,-0.0625,0.03125,-0.1875
149,1697611925,0.99316406,0.10644531,-0.044921875,-0.25,-0.15625,-0.25
150,1697611965,1.0,0.107421875,-0.030273438,0.0625,0.125,-0.125
151,1697612005,1.0,0.10449219,-0.033203125,0.1875,0.125,-0.0625
152,1697612045,0.98339844,0.11621094,-0.028320312,-0.5,0.0625,-0.1875
153,1697612085,1.0058594,0.115234375,-0.0390625,-0.9375,0.3125,0.0
154,1697612125,0.9902344,0.109375,-0.0390625,0.0625,0.3125,0.0625
155,1697612165,0.9921875,0.103515625,-0.016601562,-0.375,-0.15625,-0.375
156,1697612205,0.9921875,0.109375,-0.032226562,0.0,-0.03125,-0.5
157,1697612245,0.9980469,0.10546875,-0.036132812,-0.0625,0.03125,-0.3125
158,1697612285,0.99902344,0.10449219,-0.033203125,0.1875,0.25,-0.4375
159,1697612325,0.99121094,0.11230469,-0.043945312,0.3125,0.1875,-0.5
160,1697612365,0.99609375,0.115234375,-0.046875,-0.0625,-0.21875,-0.4375
161,1697612405,0.9921875,0.109375,-0.036132812,0.34375,0.0625,-0.5
162,1697612445,0.99902344,0.109375,-0.036132812,0.34375,0.125,-0.4375
163,1697612485,0.9863281,0.10839844,-0.049804688,0.3125,0.0625,-0.4375
164,1697612525,0.9951172,0.11230469,-0.036132812,0.46875,0.25,-0.3125
165,1697612565,0.9951172,0.11230469,-0.040039062,-0.125,-0.28125,-0.6875
166,1697612605,0.9951172,0.103515625,-0.03515625,0.34375,0.25,-0.25
167,1697612645,0.9863281,0.11816406,-0.041992188,0.3125,-0.21875,-0.5
168,1697612685,0.9980469,0.10839844,-0.04296875,0.125,-0.15625,-0.84375
169,1697612725,1.0029297,0.119140625,-0.040039062,-0.0625,0.03125,-0.90625
170,1697612765,1.0019531,0.115234375,-0.04296875,-0.75,0.03125,-0.8125
171,1697612805,0.98828125,0.10839844,-0.038085938,-0.125,0.0625,-0.8125
172,1697612845,0.9980469,0.1171875,-0.038085938,-0.5,-0.09375,-0.75
173,1697612885,1.0,0.11035156,-0.037109375,-0.1875,0.0625,-0.625
174,1697612925,0.9970703,0.11328125,-0.0390625,0.125,0.0625,-0.5625
175,1697612965,0.9951172,0.11035156,-0.033203125,0.40625,0.25,-0.6875
176,1697613005,0.99316406,0.111328125,-0.043945312,0.65625,0.3125,-0.375
177,1697613045,0.9951172,0.111328125,-0.033203125,0.90625,0.4375,-0.625
178,1697613085,0.99316406,0.109375,-0.032226562,0.40625,0.5625,-0.375
179,1697613125,0.9941406,0.123046875,-0.024414062,1.15625,0.4375,-0.0625
180,1697613165,0.9941406,0.111328125,-0.037109375,0.65625,-0.03125,-0.5
181,1697613205,0.9980469,0.11425781,-0.030273438,0.59375,0.3125,-0.75
182,1697613245,1.0019531,0.123046875,-0.03125,0.40625,0.3125,-0.4375
183,1697613285,0.99121094,0.11328125,-0.034179688,0.0625,0.375,-0.375
184,1697613325,0.9873047,0.11230469,-0.037109375,0.25,0.125,-0.625
185,1697613365,0.99316406,0.12597656,-0.03125,0.0625,0.03125,-0.375
186,1697613405,0.99121094,0.115234375,-0.03515625,0.25,0.03125,-0.625
187,1697613445,1.0048828,0.12402344,-0.024414062,0.25,0.0625,-0.75
188,1697613485,0.9921875,0.1171875,-0.033203125,-0.3125,-0.03125,-0.3125
189,1697613525,0.99121094,0.123046875,-0.022460938,0.0,-0.09375,-0.3125
190,1697613565,1.0097656,0.1171875,-0.025390625,-0.5,-0.40625,-0.3125
191,1697613605,1.0039062,0.111328125,-0.034179688,-0.25,0.0625,-0.3125
192,1697613645,0.99121094,0.11230469,-0.03515625,0.3125,-0.03125,-0.0625
193,1697613685,1.0019531,0.11621094,-0.029296875,-0.4375,-0.34375,-0.4375
194,1697613725,0.99609375,0.11425781,-0.03515625,-0.25,0.125,-0.375
195,1697613765,1.0019531,0.119140625,-0.030273438,-0.4375,-0.03125,-0.0625
196,1697613805,0.9902344,0.11230469,-0.036132812,0.0,0.125,0.0625
197,1697613845,0.9941406,0.123046875,-0.04296875,0.125,0.125,-0.0625
198,1697613885,1.0048828,0.11621094,-0.02734375,-0.125,0.25,0.0
199,1697613925,0.99902344,0.119140625,-0.041992188,0.0625,0.125,-0.125
200,1697613965,1.0029297,0.11621094,-0.04296875,0.3125,0.3125,-0.0625
201,1697614005,0.9980469,0.11328125,-0.033203125,0.40625,0.3125,-0.25
202,1697614045,0.98828125,0.12011719,-0.025390625,0.53125,0.4375,-0.0625
203,1697614085,0.99316406,0.12109375,-0.032226562,-0.3125,0.03125,-0.0625
204,1697614125,0.99609375,0.109375,-0.04296875,-0.9375,0.5625,0.3125
205,1697614165,0.98046875,0.11425781,-0.03515625,-0.5,0.125,0.0625
206,1697614205,0.9892578,0.10839844,-0.046875,-0.9375,-0.09375,-0.25
207,1697614245,0.9951172,0.11816406,-0.03515625,-0.625,0.125,-0.5625
208,1697614285,0.99316406,0.11328125,-0.030273438,-1.03125,0.3125,-0.1875
209,1697614325,1.0019531,0.109375,-0.026367188,-0.6875,0.5625,-0.1875
210,1697614365,1.0039062,0.10644531,-0.028320312,-0.4375,0.375,-0.125
211,1697614405,0.99609375,0.107421875,-0.037109375,0.0625,0.4375,0.0625
212,1697614445,0.9980469,0.11328125,-0.030273438,0.78125,0.5625,-0.0625
213,1697614485,0.99609375,0.11230469,-0.017578125,0.90625,0.75,0.0
214,1697614525,0.9892578,0.111328125,-0.041015625,0.59375,0.8125,-0.0625
215,1697614565,0.98828125,0.11035156,-0.040039062,0.78125,0.75,0.125
216,1697614605,1.0078125,0.11035156,-0.041992188,0.46875,0.125,-0.0625
217,1697614645,0.99316406,0.1171875,-0.022460938,0.71875,1.0,0.375
218,1697614685,0.9863281,0.11816406,-0.032226562,0.78125,0.25,0.25
219,1697614725,0.9941406,0.109375,-0.034179688,0.1875,-0.09375,-0.1875
220,1697614765,1.0,0.12109375,-0.024414062,-0.125,-0.09375,-0.1875
221,1697614805,0.98339844,0.11425781,-0.028320312,-0.5625,0.03125,-0.0625
222,1697614845,0.99316406,0.10644531,-0.03515625,0.0,-0.34375,-0.1875
223,1697614885,0.99121094,0.11328125,-0.028320312,-0.3125,-0.53125,-0.25
224,1697614925,1.0009766,0.10839844,-0.0234375,0.0,-0.53125,-0.5
225,1697614965,1.0009766,0.11328125,-0.018554688,0.25,-0.40625,-0.5
226,1697615005,0.9921875,0.11230469,-0.030273438,0.1875,-0.46875,-0.4375
227,1697615045,1.0039062,0.111328125,-0.041015625,0.53125,-0.53125,-0.1875
228,1697615085,0.99121094,0.11425781,-0.0390625,0.3125,-0.34375,-0.1875
229,1697615125,1.0107422,0.10253906,-0.036132812,0.0,-0.28125,-0.375
230,1697615165,0.9951172,0.10449219,-0.036132812,0.71875,0.25,0.0625
231,1697615205,0.9921875,0.11621094,-0.0390625,0.125,-0.03125,0.0
232,1697615245,0.99902344,0.11035156,-0.036132812,0.125,0.125,-0.375
233,1697615285,1.0048828,0.109375,-0.03515625,0.125,0.1875,-0.25
234,1697615325,1.0009766,0.1171875,-0.036132812,0.0625,0.3125,-0.1875
235,1697615365,0.9892578,0.11621094,-0.036132812,0.1875,0.1875,-0.3125
236,1697615405,0.9970703,0.11230469,-0.03125,-0.5625,-0.03125,-0.25
237,1697615445,1.0,0.10839844,-0.045898438,-0.6875,0.03125,-0.3125
238,1697615485,0.9941406,0.109375,-0.0390625,-0.25,0.03125,-0.4375
239,1697615525,0.99609375,0.10839844,-0.02734375,-0.25,-0.15625,-0.4375
240,1697615565,0.9951172,0.10546875,-0.033203125,0.1875,-0.03125,-0.4375
241,1697615605,1.0048828,0.10644531,-0.040039062,0.1875,-0.46875,-0.6875
242,1697615645,0.9892578,0.109375,-0.041992188,0.3125,0.375,-0.3125
243,1697615685,0.99316406,0.11328125,-0.032226562,0.71875,0.0625,-0.375
244,1697615725,1.0087891,0.10546875,-0.034179688,0.1875,0.125,-0.6875
245,1697615765,1.0,0.11035156,-0.03125,0.125,0.3125,-0.6875
246,1697615805,1.0019531,0.109375,-0.020507812,0.0625,0.4375,-0.25
247,1697615845,0.99609375,0.10839844,-0.02734375,0.40625,0.5625,-0.375
248,1697615885,0.99121094,0.109375,-0.040039062,0.46875,0.3125,-0.25
249,1697615925,0.9951172,0.10449219,-0.04296875,0.46875,0.1875,-0.25
250,1697615965,1.0019531,0.11425781,-0.037109375,0.53125,0.375,-0.25
251,1697616005,0.9921875,0.115234375,-0.045898438,0.71875,0.1875,-0.3125
252,1697616045,1.0048828,0.12011719,-0.040039062,0.65625,0.1875,0.0
253,1697616085,0.99121094,0.115234375,-0.0390625,0.40625,-0.03125,-0.25
254,1697616125,1.0009766,0.1171875,-0.041015625,-0.1875,0.03125,-0.4375
255,1697616165,0.9863281,0.12597656,-0.045898438,0.0,0.0625,0.0625
256,1697616205,0.9902344,0.11621094,-0.047851562,-0.5625,-0.34375,-0.3125
257,1697616245,1.0029297,0.11328125,-0.0390625,-1.09375,-0.28125,-0.8125
258,1697616285,1.0019531,0.11328125,-0.025390625,-1.28125,-0.03125,-0.6875
259,1697616325,0.99121094,0.115234375,-0.030273438,-1.09375,0.25,-0.5625
260,1697616365,0.984375,0.10546875,-0.053710938,-0.5625,0.1875,-0.625
261,1697616405,0.99902344,0.11328125,-0.029296875,-0.875,0.0625,-0.5
262,1697616445,0.99316406,0.10839844,-0.036132812,-0.5625,0.3125,-0.4375
263,1697616485,1.0029297,0.10839844,-0.0390625,-0.125,0.375,-0.5
264,1697616525,0.9892578,0.107421875,-0.036132812,0.25,0.5625,-0.5625
265,1697616565,0.9921875,0.10839844,-0.033203125,0.78125,0.5625,-0.25
266,1697616605,0.9980469,0.11621094,-0.030273438,0.34375,0.1875,-0.375
267,1697616645,0.9951172,0.11328125,-0.032226562,0.34375,0.875,-0.1875
268,1697616685,0.9863281,0.115234375,-0.033203125,0.90625,0.5625,0.125
269,1697616725,0.99316406,0.11328125,-0.020507812,0.25,0.25,-0.25
270,1697616765,1.0048828,0.10449219,-0.034179688,0.0625,0.375,-0.375
271,1697616805,0.9863281,0.12011719,-0.03515625,-0.1875,0.375,-0.125
272,1697616845,0.9892578,0.11621094,-0.01953125,-0.5,0.5625,-0.1875
273,1697616885,0.99609375,0.12109375,-0.03125,-0.5,0.375,-0.1875
274,1697616925,0.9951172,0.12890625,-0.037109375,-0.625,-0.03125,-0.1875
275,1697616965,0.99121094,0.119140625,-0.040039062,-0.625,0.125,-0.25
276,1697617005,0.9970703,0.11230469,-0.041992188,-0.6875,-0.09375,-0.4375
277,1697617045,0.99316406,0.11621094,-0.030273438,-0.6875,0.03125,-0.3125
278,1697617085,0.9970703,0.11328125,-0.02734375,-0.375,-0.03125,0.0
279,1697617125,1.0,0.11328125,-0.018554688,-0.8125,-0.53125,-0.3125
280,1697617165,0.9902344,0.10839844,-0.022460938,-0.0625,0.125,-0.0625
281,1697617205,0.99121094,0.109375,-0.017578125,0.0,-0.03125,-0.125
282,1697617245,1.0019531,0.109375,-0.040039062,-0.625,-0.40625,-0.625
283,1697617285,0.99121094,0.11621094,-0.025390625,-0.4375,-0.09375,-0.5
284,1697617325,0.9921875,0.119140625,-0.041992188,-0.6875,-0.03125,-0.25
285,1697617365,0.99121094,0.11035156,-0.01953125,-0.125,0.0625,-0.25
286,1697617405,0.9980469,0.1171875,-0.029296875,-0.5,-0.21875,-0.25
287,1697617445,1.0019531,0.11035156,-0.030273438,-0.4375,-0.28125,-0.25
288,1697617485,0.9951172,0.11328125,-0.028320312,0.25,0.0625,-0.125
289,1697617525,0.99121094,0.12207031,-0.04296875,0.3125,0.03125,-0.375
290,1697617565,0.9941406,0.11230469,-0.028320312,0.40625,-0.03125,-0.1875
291,1697617605,0.9863281,0.11816406,-0.02734375,0.3125,-0.15625,-0.125
292,1697617645,1.0,0.11035156,-0.037109375,-0.125,-0.15625,-0.4375
293,1697617685,0.9941406,0.11425781,-0.03125,0.90625,0.125,-0.25
294,1697617725,0.9921875,0.1171875,-0.036132812,0.59375,-0.09375,-0.6875
295,1697617765,0.9970703,0.11035156,-0.03125,0.0,-0.09375,-0.75
296,1697617805,0.99902344,0.11328125,-0.024414062,-0.375,-0.34375,-0.3125
297,1697617845,0.9970703,0.11425781,-0.040039062,-0.0625,-0.09375,-0.1875
298,1697617885,0.9892578,0.115234375,-0.041015625,0.125,-0.40625,-0.375
299,1697617925,0.9892578,0.109375,-0.026367188,-0.0625,-0.40625,-0.1875
300,1697617965,1.0029297,0.111328125,-0.037109375,-0.125,-0.34375,0.1875
301,1697618005,0.9951172,0.11816406,-0.034179688,-0.1875,-0.03125,0.125
302,1697618045,0.99902344,0.11230469,-0.029296875,-0.3125,-0.28125,0.0
303,1697618085,0.9941406,0.11230469,-0.034179688,0.1875,0.0625,0.0
304,1697618125,1.0019531,0.11230469,-0.047851562,-0.25,-0.34375,-0.25
305,1697618165,0.9970703,0.11621094,-0.044921875,-0.0625,0.375,0.1875
306,1697618205,0.9980469,0.119140625,-0.034179688,-0.1875,-0.09375,0.0625
307,1697618245,0.99121094,0.11425781,-0.030273438,-0.6875,-0.03125,-0.3125
308,1697618285,1.0,0.115234375,-0.037109375,-0.375,0.0625,-0.3125
309,1697618325,0.99609375,0.11328125,-0.044921875,-0.5625,-0.09375,-0.125
310,1697618365,1.0009766,0.11328125,-0.046875,-0.0625,0.03125,-0.5
311,1697618405,0.9941406,0.115234375,-0.02734375,-0.125,-0.09375,-0.3125
312,1697618445,0.9921875,0.11328125,-0.036132812,-0.375,-0.28125,-0.1875
313,1697618485,0.9970703,0.111328125,-0.024414062,-0.3125,-0.15625,-0.25
314,1697618525,0.99902344,0.11425781,-0.03125,0.0,-0.03125,-0.4375
315,1697618565,0.99316406,0.115234375,-0.028320312,0.1875,-0.03125,-0.3125
316,1697618605,0.9785156,0.11816406,-0.024414062,0.0625,0.25,-0.0625
317,1697618645,1.0,0.11035156,-0.034179688,-0.1875,0.0625,-0.25
318,1697618685,0.99121094,0.12207031,-0.033203125,0.71875,0.375,0.0
319,1697618725,0.9951172,0.11425781,-0.03515625,0.65625,0.125,-0.3125
320,1697618765,0.9951172,0.11328125,-0.03515625,0.65625,0.3125,-0.25
321,1697618805,1.0039062,0.119140625,-0.024414062,0.90625,0.5,-0.25
322,1697618845,1.0019531,0.11230469,-0.029296875,0.96875,0.375,0.1875
323,1697618885,0.98339844,0.11230469,-0.0390625,1.15625,0.25,0.125
324,1697618925,0.9902344,0.12011719,-0.032226562,0.84375,0.25,0.0
325,1697618965,0.9951172,0.115234375,-0.030273438,0.78125,0.125,0.3125
326,1697619005,0.9951172,0.12792969,-0.03515625,1.09375,0.25,0.3125
327,1697619045,0.9902344,0.123046875,-0.029296875,1.15625,0.1875,0.25
328,1697619085,0.9941406,0.12109375,-0.045898438,1.21875,0.3125,0.4375
329,1697619125,0.9921875,0.109375,-0.034179688,0.59375,-0.28125,0.3125
330,1697619165,0.99609375,0.11230469,-0.0390625,0.34375,0.1875,0.375
331,1697619205,0.99316406,0.109375,-0.041015625,0.65625,-0.03125,0.53125
332,1697619245,0.9921875,0.111328125,-0.033203125,0.0,-0.28125,0.125
333,1697619285,0.9921875,0.107421875,-0.026367188,-0.1875,-0.09375,0.0
334,1697619325,0.99609375,0.1171875,-0.033203125,-0.375,-0.21875,0.25
335,1697619365,0.9941406,0.11230469,-0.034179688,-0.5625,-0.21875,0.3125
336,1697619405,0.9921875,0.115234375,-0.028320312,-0.4375,-0.34375,0.1875
337,1697619445,1.0029297,0.11816406,-0.041992188,-0.875,-0.46875,0.1875
338,1697619485,1.0039062,0.11816406,-0.028320312,-0.75,-0.46875,0.125
339,1697619525,0.9921875,0.11035156,-0.053710938,-0.5,-0.34375,0.25
340,1697619565,0.99121094,0.10546875,-0.024414062,-0.375,-0.40625,0.25
341,1697619605,0.99902344,0.099609375,-0.037109375,-0.125,-0.09375,0.25
342,1697619645,1.0048828,0.111328125,-0.036132812,-0.4375,-0.34375,0.1875
343,1697619685,1.0039062,0.10839844,-0.03125,0.0625,0.125,0.53125
344,1697619725,0.99609375,0.11035156,-0.040039062,0.25,-0.21875,0.4375
345,1697619765,1.0019531,0.10449219,-0.041992188,-0.25,-0.09375,0.0
346,1697619805,0.9941406,0.1171875,-0.037109375,-0.0625,0.03125,0.3125
347,1697619845,1.0029297,0.10839844,-0.047851562,-0.3125,0.03125,0.4375
348,1697619885,0.99316406,0.107421875,-0.0390625,-0.25,0.03125,0.25
349,1697619925,0.9863281,0.10839844,-0.030273438,-0.4375,-0.59375,0.1875
350,1697619965,1.0009766,0.109375,-0.029296875,-0.0625,-0.40625,0.125
351,1697620005,0.99316406,0.12109375,-0.032226562,-0.75,-0.21875,0.4375
352,1697620045,0.99316406,0.109375,-0.025390625,-1.46875,-0.21875,0.3125
353,1697620085,0.9941406,0.11230469,-0.041992188,-1.84375,-0.09375,0.25
354,1697620125,0.9970703,0.10546875,-0.022460938,-1.46875,-0.03125,0.375
355,1697620165,1.0087891,0.10058594,-0.036132812,-1.53125,-0.21875,-0.125
356,1697620205,0.9951172,0.111328125,-0.03515625,0.0,0.4375,0.375
357,1697620245,0.98828125,0.103515625,-0.033203125,-0.125,-0.03125,0.25
358,1697620285,0.9941406,0.10449219,-0.025390625,-0.5,0.03125,-0.0625
359,1697620325,1.0078125,0.10253906,-0.028320312,-0.8125,0.0625,-0.125
360,1697620365,0.99316406,0.11035156,-0.02734375,-0.5625,0.625,0.25
361,1697620405,0.99902344,0.11425781,-0.029296875,-0.25,0.3125,0.0625
362,1697620445,1.0009766,0.10644531,-0.030273438,0.34375,0.25,-0.3125
363,1697620485,0.9902344,0.111328125,-0.034179688,0.84375,0.375,-0.1875
364,1697620525,1.0,0.11425781,-0.017578125,0.59375,0.375,-0.125
365,1697620565,0.99316406,0.11230469,-0.032226562,0.46875,0.125,-0.25
366,1697620605,1.0019531,0.11035156,-0.030273438,0.78125,-0.15625,-0.4375
367,1697620645,0.9941406,0.11816406,-0.030273438,0.46875,-0.40625,-0.625
368,1697620685,0.9980469,0.11230469,-0.041015625,0.40625,0.03125,-0.5625
369,1697620725,0.9863281,0.11328125,-0.0234375,0.46875,-0.46875,-0.4375
370,1697620765,0.9873047,0.11621094,-0.02734375,-0.3125,-0.59375,-0.90625
371,1697620805,1.0,0.115234375,-0.021484375,-0.6875,-0.40625,-0.6875
372,1697620845,1.0009766,0.111328125,-0.029296875,-0.8125,-0.71875,-0.5
373,1697620885,1.0039062,0.107421875,-0.04296875,-0.5,-0.34375,-0.4375
374,1697620925,0.9970703,0.10546875,-0.038085938,-0.5,-0.53125,-0.625
375,1697620965,1.0039062,0.115234375,-0.033203125,-0.4375,-0.53125,-0.3125
376,1697621005,1.0019531,0.11328125,-0.033203125,-0.4375,-0.21875,-0.125
377,1697621045,0.9980469,0.10839844,-0.030273438,-0.1875,0.03125,-0.125
378,1697621085,0.9951172,0.11230469,-0.037109375,0.46875,0.125,-0.125
379,1697621125,0.98828125,0.11328125,-0.029296875,0.59375,0.0625,-0.0625
380,1697621165,1.0,0.11035156,-0.045898438,0.125,-0.21875,0.0
381,1697621205,0.9941406,0.12109375,-0.018554688,1.09375,0.25,0.0
382,1697621245,0.9921875,0.12011719,-0.030273438,0.53125,-0.34375,0.0
383,1697621285,0.9980469,0.11816406,-0.041015625,0.0625,-0.15625,-0.25
384,1697621325,1.0048828,0.10546875,-0.037109375,0.125,-0.03125,-0.4375
385,1697621365,0.9980469,0.107421875,-0.044921875,0.0625,0.25,-0.84375
386,1697621405,1.0087891,0.11035156,-0.046875,0.125,0.25,-0.6875
387,1697621445,0.9902344,0.11621094,-0.025390625,-0.3125,0.3125,-0.5625
388,1697621485,0.9941406,0.107421875,-0.052734375,-0.625,0.25,-0.5
389,1697621525,0.9892578,0.10644531,-0.040039062,-1.09375,0.03125,-0.0625
390,1697621565,1.0,0.107421875,-0.03515625,-0.875,0.0625,-0.0625
391,1697621605,0.9902344,0.111328125,-0.048828125,0.0625,0.1875,-0.25
392,1697621645,0.99316406,0.109375,-0.028320312,1.21875,0.125,-0.3125
393,1697621685,1.0,0.11328125,-0.028320312,1.625,0.25,-0.4375
394,1697621725,0.9980469,0.111328125,-0.021484375,1.21875,0.0625,-0.8125
395,1697621765,0.99316406,0.11425781,-0.030273438,1.09375,0.75,-0.3125
396,1697621805,0.99316406,0.1171875,-0.030273438,1.46875,0.25,-0.0625
397,1697621845,0.9941406,0.119140625,-0.016601562,0.96875,0.25,-0.1875
398,1697621885,1.0039062,0.109375,-0.034179688,0.3125,0.3125,-0.3125
399,1697621925,0.9941406,0.11621094,-0.025390625,0.25,0.3125,-0.125
400,1697621965,0.9980469,0.11328125,-0.024414062,0.1875,0.3125,0.0
401,1697622005,0.9892578,0.12011719,-0.024414062,0.1875,0.03125,0.0625
402,1697622045,1.0039062,0.11816406,-0.03515625,0.0,-0.03125,0.125
403,1697622085,1.0048828,0.11621094,-0.038085938,0.0625,0.0625,0.0625
404,1697622125,1.0029297,0.109375,-0.03125,-0.375,-0.09375,0.125
405,1697622165,0.9921875,0.10058594,-0.033203125,-0.5,-0.34375,0.0625
406,1697622205,0.99121094,0.1171875,-0.034179688,0.0,-0.09375,0.3125
407,1697622245,1.0048828,0.11621094,-0.0390625,-0.6875,-0.65625,-0.0625
408,1697622285,0.9902344,0.11230469,-0.033203125,0.1875,0.0625,0.53125
409,1697622325,0.98828125,0.11621094,-0.041015625,0.59375,-0.40625,0.4375
410,1697622365,0.9902344,0.10546875,-0.029296875,0.0625,-0.28125,-0.1875
411,1697622405,0.9902344,0.11230469,-0.03125,0.40625,0.03125,-0.0625
412,1697622445,1.0009766,0.11035156,-0.029296875,-0.0625,0.125,0.0
413,1697622485,1.0,0.109375,-0.01953125,0.25,0.1875,-0.0625
414,1697622525,1.0029297,0.11425781,-0.026367188,0.125,0.03125,0.0
415,1697622565,0.99609375,0.09765625,-0.037109375,0.25,0.03125,-0.0625
416,1697622605,0.9892578,0.11425781,-0.032226562,0.34375,0.125,-0.125
417,1697622645,0.9892578,0.10546875,-0.03515625,0.25,0.1875,-0.0625
418,1697622685,0.9980469,0.10644531,-0.046875,0.125,0.03125,0.0
419,1697622725,0.99316406,0.10644531,-0.036132812,0.0,0.125,0.125
420,1697622765,1.0029297,0.111328125,-0.021484375,-0.1875,0.1875,0.0
421,1697622805,0.9921875,0.109375,-0.040039062,0.84375,0.125,0.3125
422,1697622845,0.9921875,0.115234375,-0.04296875,-0.125,-0.21875,0.0
423,1697622885,1.0019531,0.107421875,-0.024414062,-0.9375,0.125,-0.125
424,1697622925,0.9980469,0.1171875,-0.037109375,-1.0,0.125,0.125
425,1697622965,1.0029297,0.11230469,-0.040039062,-1.09375,0.0625,0.125
426,1697623005,0.98828125,0.107421875,-0.040039062,-0.6875,-0.03125,-0.0625
427,1697623045,1.0019531,0.11230469,-0.037109375,-0.8125,-0.09375,0.125
428,1697623085,1.0,0.11035156,-0.034179688,-0.5625,-0.03125,0.125
429,1697623125,1.0029297,0.10546875,-0.036132812,-0.125,-0.15625,-0.125
430,1697623165,0.9921875,0.103515625,-0.037109375,0.125,-0.09375,0.0
431,1697623205,1.0019531,0.12011719,-0.028320312,0.0625,-0.09375,-0.0625
432,1697623245,1.0048828,0.109375,-0.036132812,-0.25,-0.40625,-0.0625
433,1697623285,1.0019531,0.115234375,-0.025390625,0.0,0.03125,0.125
434,1697623325,0.9892578,0.11425781,-0.03515625,0.84375,-0.15625,0.46875
435,1697623365,0.99316406,0.109375,-0.025390625,0.0,-0.21875,0.0
436,1697623405,0.9902344,0.109375,-0.030273438,-0.0625,-0.09375,-0.0625
437,1697623445,0.99316406,0.11230469,-0.029296875,0.125,-0.09375,0.1875
438,1697623485,1.0117188,0.10644531,-0.040039062,0.0625,0.125,0.125
439,1697623525,0.99316406,0.11425781,-0.034179688,-0.1875,0.0625,0.125
440,1697623565,0.984375,0.109375,-0.02734375,-1.03125,-0.15625,0.25
441,1697623605,1.0009766,0.10839844,-0.026367188,-0.625,-0.15625,0.1875
442,1697623645,0.9980469,0.107421875,-0.03515625,-0.125,0.25,0.125
443,1697623685,1.0029297,0.103515625,-0.033203125,0.0,0.25,-0.0625
444,1697623725,0.9941406,0.11425781,-0.036132812,0.125,0.375,0.25
445,1697623765,1.0078125,0.11328125,-0.03515625,-0.625,-0.28125,0.0
446,1697623805,1.0029297,0.09863281,-0.03125,0.0625,0.5,0.25
447,1697623845,0.99609375,0.111328125,-0.02734375,0.1875,0.0625,0.1875
448,1697623885,0.9951172,0.12109375,-0.024414062,-0.25,0.03125,-0.375
449,1697623925,0.99902344,0.119140625,-0.03515625,-0.5,0.125,-0.375
450,1697623965,1.0,0.11230469,-0.041992188,-1.0,0.1875,-0.3125
451,1697624005,0.9941406,0.10839844,-0.040039062,-0.4375,0.1875,-0.375
452,1697624045,0.9921875,0.10839844,-0.030273438,-0.3125,0.03125,-0.5
453,1697624085,0.9980469,0.10546875,-0.033203125,-0.125,-0.21875,-0.3125
454,1697624125,1.0,0.1171875,-0.04296875,0.34375,-0.09375,-0.3125
455,1697624165,0.99609375,0.10253906,-0.033203125,0.34375,-0.03125,-0.1875
456,1697624205,0.9970703,0.115234375,-0.04296875,0.78125,0.03125,-0.1875
457,1697624245,0.9921875,0.11230469,-0.018554688,0.59375,-0.09375,-0.25
458,1697624285,1.0029297,0.11230469,-0.03125,0.46875,0.0625,-0.25
459,1697624325,0.99609375,0.115234375,-0.032226562,1.34375,0.25,0.125
460,1697624365,0.9892578,0.11425781,-0.02734375,0.53125,-0.03125,-0.1875
461,1697624405,0.99316406,0.119140625,-0.0146484375,0.125,0.1875,-0.4375
462,1697624445,0.99609375,0.11328125,-0.021484375,-0.25,0.125,-0.1875
463,1697624485,0.99316406,0.11230469,-0.0234375,-0.125,0.25,-0.25
464,1697624525,0.99902344,0.111328125,-0.033203125,-0.125,0.03125,-0.1875
465,1697624565,0.99902344,0.11230469,-0.02734375,-0.4375,-0.09375,-0.0625
466,1697624605,1.0029297,0.109375,-0.029296875,-0.3125,-0.21875,0.0625
467,1697624645,0.99316406,0.109375,-0.037109375,-0.125,0.03125,0.0625
468,1697624685,1.0029297,0.115234375,-0.034179688,-0.25,-0.15625,0.0625
469,1697624725,0.9902344,0.11230469,-0.034179688,0.0,0.3125,0.0625
470,1697624765,0.9980469,0.111328125,-0.04296875,-0.6875,-0.28125,0.0625
471,1697624805,0.9951172,0.11230469,-0.0390625,0.25,0.25,0.3125
472,1697624845,0.9902344,0.11816406,-0.032226562,0.1875,-0.21875,0.0
473,1697624885,1.0009766,0.11621094,-0.0234375,0.25,0.125,-0.1875
474,1697624925,1.0009766,0.11035156,-0.048828125,0.3125,0.3125,0.0625
475,1697624965,1.0,0.103515625,-0.033203125,0.0625,0.0625,0.0625
476,1697625005,0.9951172,0.10449219,-0.01953125,0.46875,0.0625,-0.0625
477,1697625045,0.99316406,0.12011719,-0.030273438,0.34375,0.0625,0.0
478,1697625085,0.9921875,0.111328125,-0.03515625,0.125,0.03125,0.0
479,1697625125,0.9941406,0.10839844,-0.03515625,0.25,0.1875,0.125
480,1697625165,0.99609375,0.10546875,-0.024414062,0.34375,0.125,0.1875
481,1697625205,1.0039062,0.11035156,-0.0390625,0.65625,0.0625,0.1875
482,1697625245,0.99609375,0.11230469,-0.030273438,0.3125,-0.28125,-0.1875
483,1697625285,0.99121094,0.11621094,-0.026367188,0.34375,0.1875,0.25
484,1697625325,0.9980469,0.12597656,-0.034179688,0.3125,-0.21875,0.3125
485,1697625365,0.99609375,0.11230469,-0.020507812,-0.5625,-0.46875,0.125
486,1697625405,1.0029297,0.109375,-0.029296875,-0.5,-0.09375,-0.25
487,1697625445,0.99316406,0.11425781,-0.029296875,-0.625,-0.09375,0.1875
488,1697625485,0.99609375,0.10253906,-0.017578125,-0.6875,-0.09375,0.25
489,1697625525,1.0,0.1171875,-0.028320312,-0.5625,-0.15625,0.3125
490,1697625565,0.99121094,0.10449219,-0.030273438,-0.75,-0.03125,0.3125
491,1697625605,0.99121094,0.109375,-0.0234375,-0.375,0.03125,0.25
492,1697625645,0.98828125,0.10058594,-0.029296875,0.0,0.25,0.1875
493,1697625685,0.9921875,0.1015625,-0.030273438,0.0,0.1875,0.4375
494,1697625725,0.99121094,0.099609375,-0.024414062,-0.0625,0.125,0.46875
495,1697625765,1.0039062,0.10839844,-0.028320312,0.0,-0.09375,0.1875
496,1697625805,0.9892578,0.11035156,-0.03125,0.75,0.40625,0.625
497,1697625845,0.99316406,0.107421875,-0.03125,0.4375,0.125,0.5625
498,1697625885,1.0029297,0.109375,-0.032226562,-0.40625,0.0625,0.15625
499,1697625925,0.9941406,0.10546875,-0.037109375,-0.40625,0.28125,0.34375
500,1697625965,1.0039062,0.109375,-0.03515625,-0.28125,0.125,0.28125
501,1697626005,0.99902344,0.095703125,-0.01953125,-0.0625,0.1875,0.09375
502,1697626045,0.9941406,0.11425781,-0.0390625,-0.0625,-0.0625,0.09375
503,1697626085,0.9941406,0.10253906,-0.01953125,-0.46875,-0.125,0.09375
504,1697626125,1.0019531,0.099609375,-0.028320312,-0.53125,0.0,0.09375
505,1697626165,1.0048828,0.111328125,-0.029296875,-0.71875,0.0,0.15625
506,1697626205,0.99609375,0.10546875,-0.020507812,-0.90625,-0.0625,0.15625
507,1697626245,0.98828125,0.09375,-0.03515625,-0.40625,0.0625,0.09375
508,1697626285,1.0078125,0.11035156,-0.025390625,-1.15625,-0.3125,-0.21875
509,1697626325,0.9863281,0.10839844,-0.0234375,-0.78125,0.1875,0.09375
510,1697626365,0.99609375,0.10253906,-0.025390625,-0.65625,-0.375,0.21875
511,1697626405,1.0019531,0.09765625,-0.024414062,-1.15625,-0.4375,-0.34375
512,1697626445,0.9980469,0.10546875,-0.02734375,-1.09375,-0.25,-0.34375
513,1697626485,0.99902344,0.103515625,-0.032226562,-1.15625,-0.4375,-0.28125
514,1697626525,0.99121094,0.09472656,-0.028320312,-0.1875,-0.5,-0.40625
515,1697626565,1.0009766,0.09277344,-0.025390625,-0.0625,-0.5,-0.28125
516,1697626605,1.0,0.10546875,-0.029296875,0.5,-0.5,-0.40625
517,1697626645,0.99902344,0.09765625,-0.020507812,0.6875,-0.3125,-0.53125
518,1697626685,0.9980469,0.109375,-0.034179688,0.8125,-0.25,-0.53125
519,1697626725,1.0,0.1015625,-0.018554688,1.0,-0.25,-0.53125
520,1697626765,0.9921875,0.10839844,-0.030273438,0.9375,-0.125,-0.21875
521,1697626805,1.0,0.109375,-0.025390625,0.75,-0.3125,-0.53125
522,1697626845,1.0019531,0.11230469,-0.029296875,1.15625,0.1875,-0.28125
523,1697626885,0.98828125,0.10839844,-0.025390625,1.34375,-0.125,-0.40625
524,1697626925,0.99609375,0.10644531,-0.0234375,0.0,-0.1875,-0.71875
525,1697626965,0.99902344,0.115234375,-0.030273438,-0.25,-0.0625,-0.53125
526,1697627005,1.0009766,0.107421875,-0.028320312,-0.34375,-0.0625,-0.40625
527,1697627045,0.9980469,0.09765625,-0.026367188,-0.0625,-0.25,-0.59375
528,1697627085,0.99609375,0.11621094,-0.01953125,-0.40625,-0.375,-0.53125
529,1697627125,1.0058594,0.12011719,-0.03125,-0.71875,-0.375,-0.34375
530,1697627165,0.9980469,0.103515625,-0.033203125,-0.40625,-0.375,-0.40625
531,1697627205,1.0,0.11230469,-0.029296875,-0.25,-0.4375,-0.40625
532,1697627245,0.99121094,0.10644531,-0.0390625,-0.28125,-0.375,-0.28125
533,1697627285,0.9951172,0.11035156,-0.03125,-0.125,-0.4375,-0.40625
534,1697627325,1.0029297,0.109375,-0.040039062,-0.1875,-0.5,-0.40625
535,1697627365,0.9951172,0.10449219,-0.038085938,0.3125,0.0,-0.15625
536,1697627405,0.99121094,0.12109375,-0.034179688,1.0,-0.1875,-0.09375
537,1697627445,0.99609375,0.11328125,-0.029296875,0.125,-0.25,-0.28125
538,1697627485,0.99609375,0.10546875,-0.040039062,0.0,-0.1875,-0.40625
539,1697627525,0.99121094,0.109375,-0.025390625,0.5,0.0625,-0.15625
540,1697627565,1.0087891,0.10253906,-0.033203125,0.4375,0.125,-0.34375
541,1697627605,1.0009766,0.11328125,-0.029296875,0.75,0.0625,-0.09375
542,1697627645,0.99609375,0.11425781,-0.034179688,0.0,-0.0625,-0.03125
543,1697627685,1.0,0.103515625,-0.022460938,0.125,0.125,-0.21875
544,1697627725,0.9951172,0.115234375,-0.034179688,0.375,0.1875,-0.21875
545,1697627765,0.9921875,0.11230469,-0.02734375,0.1875,0.125,-0.21875
546,1697627805,1.0,0.107421875,-0.03515625,-0.125,-0.0625,-0.15625
547,1697627845,0.9941406,0.1015625,-0.043945312,-0.1875,0.0,-0.09375
548,1697627885,0.9980469,0.10839844,-0.024414062,-0.53125,-0.375,-0.40625
549,1697627925,0.9970703,0.11621094,-0.034179688,0.0625,0.21875,0.03125
550,1697627965,0.984375,0.107421875,-0.036132812,-0.28125,-0.5,-0.09375
551,1697628005,0.99609375,0.09472656,-0.029296875,-0.84375,-0.5,-0.34375
552,1697628045,1.0,0.10546875,-0.018554688,-0.46875,-0.25,-0.59375
553,1697628085,0.9970703,0.103515625,-0.033203125,-0.34375,-0.4375,-0.28125
554,1697628125,0.9921875,0.10253906,-0.0390625,-0.125,-0.25,-0.53125
555,1697628165,0.99121094,0.10546875,-0.03125,-0.0625,-0.3125,-0.40625
556,1697628205,1.0019531,0.109375,-0.046875,-0.0625,-0.1875,-0.53125
557,1697628245,0.9892578,0.10449219,-0.022460938,0.4375,-0.125,-0.28125
558,1697628285,0.99121094,0.109375,-0.0390625,0.8125,-0.0625,-0.40625
559,1697628325,1.0,0.103515625,-0.02734375,0.8125,0.0,-0.40625
560,1697628365,0.9921875,0.109375,-0.0234375,0.75,-0.0625,-0.34375
561,1697628405,0.9941406,0.115234375,-0.032226562,0.6875,0.1875,-0.21875
562,1697628445,1.0019531,0.111328125,-0.034179688,-0.0625,-0.1875,-0.40625
563,1697628485,1.0029297,0.115234375,-0.02734375,0.4375,0.40625,-0.03125
564,1697628525,0.99609375,0.1171875,-0.02734375,0.25,-0.0625,0.03125
565,1697628565,0.99902344,0.11035156,-0.040039062,-0.46875,-0.0625,-0.40625
566,1697628605,1.0078125,0.10449219,-0.037109375,-0.34375,0.0625,-0.59375
567,1697628645,0.99902344,0.115234375,-0.0234375,-0.40625,0.125,-0.53125
568,1697628685,0.9794922,0.11230469,-0.028320312,-0.78125,0.0,-0.46875
569,1697628725,0.9941406,0.11035156,-0.0390625,-0.71875,0.0625,-0.28125
570,1697628765,0.99902344,0.11230469,-0.033203125,-0.78125,-0.125,-0.15625
571,1697628805,1.0019531,0.10839844,-0.033203125,-0.125,-0.25,-0.28125
572,1697628845,0.99316406,0.1171875,-0.029296875,0.5,-0.0625,-0.28125
573,1697628885,1.0048828,0.10253906,-0.033203125,0.3125,-0.0625,-0.15625
574,1697628925,0.9921875,0.103515625,-0.030273438,0.3125,-0.0625,-0.21875
575,1697628965,1.0019531,0.11328125,-0.037109375,0.5,0.0,-0.21875
576,1697629005,1.0,0.115234375,-0.025390625,0.3125,0.1875,-0.34375
577,1697629045,1.0039062,0.119140625,-0.026367188,0.5,0.0625,-0.46875
578,1697629085,0.9951172,0.111328125,-0.034179688,0.9375,0.21875,0.09375
579,1697629125,0.9980469,0.11425781,-0.02734375,0.125,-0.1875,-0.28125
580,1697629165,1.0019531,0.11425781,-0.026367188,-0.34375,-0.1875,-0.59375
581,1697629205,1.0029297,0.123046875,-0.030273438,-0.0625,0.125,-0.34375
582,1697629245,0.9902344,0.10839844,-0.029296875,-0.34375,0.1875,-0.40625
583,1697629285,0.9892578,0.107421875,-0.029296875,-0.25,-0.0625,-0.53125
584,1697629325,0.9892578,0.109375,-0.036132812,-0.40625,-0.1875,-0.40625
585,1697629365,0.99316406,0.11035156,-0.036132812,-0.0625,-0.125,-0.34375
586,1697629405,0.9941406,0.103515625,-0.02734375,0.3125,0.0,-0.46875
587,1697629445,1.0,0.10644531,-0.041992188,0.5,-0.0625,-0.40625
588,1697629485,0.99316406,0.11035156,-0.040039062,0.5,-0.125,-0.09375
589,1697629525,1.0107422,0.11035156,-0.029296875,0.4375,-0.125,0.09375
590,1697629565,1.0,0.11328125,-0.026367188,0.6875,0.0,-0.09375
591,1697629605,1.0068359,0.10644531,-0.041015625,0.5625,-0.0625,-0.21875
592,1697629645,0.984375,0.11035156,-0.03515625,1.53125,0.28125,0.09375
593,1697629685,1.0,0.107421875,-0.040039062,0.25,-0.1875,-0.09375
594,1697629725,0.9951172,0.11035156,-0.028320312,-0.0625,0.0,-0.46875
595,1697629765,1.0,0.123046875,-0.021484375,0.125,0.21875,-0.15625
596,1697629805,0.9941406,0.1171875,-0.026367188,-0.71875,-0.0625,-0.15625
597,1697629845,0.9921875,0.103515625,-0.01953125,-0.65625,0.125,-0.40625
598,1697629885,1.0,0.11230469,-0.018554688,-0.96875,-0.0625,-0.09375
599,1697629925,1.0,0.11230469,-0.024414062,-0.90625,0.125,-0.09375
600,1697629965,1.0019531,0.11230469,-0.033203125,-0.25,0.21875,-0.21875
601,1697630005,0.9902344,0.109375,-0.034179688,0.0625,0.21875,-0.28125
602,1697630045,0.9921875,0.115234375,-0.01953125,0.125,0.34375,-0.15625
603,1697630085,1.0019531,0.111328125,-0.04296875,0.0625,0.21875,-0.09375
604,1697630125,0.9980469,0.11328125,-0.03125,0.0625,0.46875,-0.09375
605,1697630165,1.0019531,0.11816406,-0.02734375,-0.125,0.21875,-0.21875
606,1697630205,0.9892578,0.11035156,-0.021484375,0.75,0.78125,0.34375
607,1697630245,0.9980469,0.11425781,-0.021484375,0.125,0.1875,0.21875
608,1697630285,0.9951172,0.11035156,-0.03125,-0.0625,0.1875,-0.15625
609,1697630325,1.0078125,0.12011719,-0.034179688,-0.25,0.40625,-0.03125
610,1697630365,1.0,0.10253906,-0.022460938,-0.40625,0.21875,-0.03125
611,1697630405,0.9902344,0.11230469,-0.025390625,0.1875,0.21875,-0.03125
612,1697630445,1.0,0.115234375,-0.03125,-0.1875,-0.25,-0.15625
613,1697630485,1.0058594,0.115234375,-0.028320312,-0.25,-0.125,-0.09375
614,1697630525,0.9921875,0.11425781,-0.03125,-0.125,0.0625,0.03125
615,1697630565,0.9921875,0.11621094,-0.028320312,-0.46875,0.125,0.09375
616,1697630605,0.99316406,0.11035156,-0.01953125,-0.65625,-0.0625,-0.03125
617,1697630645,0.9863281,0.11328125,-0.0146484375,-0.59375,-0.1875,-0.09375
618,1697630685,0.99902344,0.11328125,-0.024414062,-0.90625,-0.5625,-0.15625
619,1697630725,1.0029297,0.107421875,-0.0126953125,-0.1875,0.125,-0.15625
620,1697630765,0.9902344,0.11328125,-0.024414062,0.0625,-0.3125,-0.15625
621,1697630805,1.0009766,0.11035156,-0.029296875,-0.65625,-0.1875,-0.53125
622,1697630845,0.9941406,0.10644531,-0.0390625,0.0,0.125,-0.59375
623,1697630885,1.0019531,0.111328125,-0.03515625,0.1875,0.21875,-0.40625
624,1697630925,1.0,0.11328125,-0.0234375,0.4375,0.40625,-0.46875
625,1697630965,0.99316406,0.1171875,-0.036132812,0.0625,0.1875,-0.15625
626,1697631005,0.9921875,0.12109375,-0.02734375,-0.125,0.125,-0.40625
627,1697631045,0.99316406,0.12402344,-0.037109375,0.3125,0.46875,-0.65625
628,1697631085,0.99902344,0.1171875,-0.021484375,0.8125,0.46875,-0.59375
629,1697631125,0.99121094,0.11425781,-0.015625,0.625,0.1875,-0.65625
630,1697631165,0.9970703,0.10546875,-0.018554688,1.09375,0.1875,-0.71875
631,1697631205,1.0009766,0.123046875,-0.017578125,0.0,-0.25,-0.78125
632,1697631245,0.9951172,0.11425781,-0.026367188,0.5,0.21875,-0.46875
633,1697631285,0.9951172,0.12109375,-0.02734375,0.6875,-0.1875,-0.78125
634,1697631325,0.99316406,0.11816406,-0.025390625,-0.34375,-0.5,-0.65625
635,1697631365,0.99609375,0.119140625,-0.02734375,-0.59375,-0.3125,-0.34375
636,1697631405,0.9980469,0.1171875,-0.03125,-0.28125,-0.375,-0.34375
637,1697631445,0.99902344,0.11035156,-0.030273438,0.0,-0.1875,-0.34375
638,1697631485,0.98828125,0.11816406,-0.018554688,0.375,-0.25,-0.40625
639,1697631525,0.9970703,0.12109375,-0.01953125,0.0,-0.5625,-0.21875
640,1697631565,0.99121094,0.12988281,-0.016601562,-0.0625,-0.4375,-0.21875
641,1697631605,1.0009766,0.125,-0.024414062,0.25,-0.1875,-0.09375
642,1697631645,1.0,0.11816406,-0.0234375,0.3125,-0.25,-0.09375
643,1697631685,0.99609375,0.123046875,-0.0126953125,0.5,-0.0625,-0.15625
644,1697631725,0.9921875,0.12597656,-0.030273438,0.0,-0.5625,-0.15625
645,1697631765,0.99121094,0.12011719,-0.018554688,0.5,-0.0625,0.21875
646,1697631805,0.99121094,0.11816406,-0.022460938,0.375,-0.4375,0.15625
647,1697631845,0.99316406,0.11425781,-0.01953125,-0.25,-0.1875,-0.28125
648,1697631885,1.0029297,0.12109375,-0.029296875,-0.34375,-0.0625,-0.03125
649,1697631925,1.0009766,0.11621094,-0.025390625,-0.46875,-0.3125,0.09375
650,1697631965,0.9921875,0.111328125,-0.0390625,0.0625,-0.0625,0.03125
651,1697632005,0.98535156,0.11328125,-0.03515625,0.5,0.0,-0.03125
652,1697632045,0.99316406,0.11621094,-0.036132812,0.0625,-0.4375,0.15625
653,1697632085,0.99609375,0.115234375,-0.017578125,0.1875,-0.1875,-0.09375
654,1697632125,0.9951172,0.119140625,-0.028320312,0.0,-0.125,0.15625
655,1697632165,0.9921875,0.12109375,-0.041015625,0.0625,-0.25,-0.15625
656,1697632205,0.99316406,0.123046875,-0.024414062,0.0,-0.1875,-0.21875
657,1697632245,0.99609375,0.119140625,-0.021484375,-0.125,-0.4375,-0.28125
658,1697632285,0.9951172,0.123046875,-0.022460938,0.5,0.0,0.09375
659,1697632325,0.9892578,0.11621094,-0.022460938,0.25,-0.5,-0.21875
660,1697632365,1.0,0.111328125,-0.046875,-0.46875,-0.125,-0.46875
661,1697632405,0.98828125,0.111328125,-0.02734375,-0.28125,0.0,-0.40625
662,1697632445,0.9902344,0.111328125,-0.024414062,-0.46875,-0.25,-0.21875
663,1697632485,0.98828125,0.10546875,-0.022460938,0.125,-0.25,-0.03125
664,1697632525,0.99609375,0.11230469,-0.026367188,0.125,-0.3125,-0.28125
665,1697632565,0.9951172,0.12109375,-0.01953125,0.1875,-0.5,-0.28125
666,1697632605,0.99902344,0.12695312,-0.03515625,-0.0625,-0.3125,-0.28125
667,1697632645,0.99609375,0.12011719,-0.033203125,-0.0625,-0.1875,-0.34375
668,1697632685,0.98535156,0.119140625,-0.03125,-0.28125,-0.25,-0.15625
669,1697632725,0.99121094,0.11328125,-0.0390625,-0.125,-0.25,-0.15625
670,1697632765,0.9941406,0.11621094,-0.02734375,-0.46875,-0.625,-0.15625
671,1697632805,0.99316406,0.11425781,-0.024414062,0.3125,-0.1875,0.40625
672,1697632845,0.9951172,0.12402344,-0.034179688,0.0,-0.4375,-0.03125
673,1697632885,0.9941406,0.12011719,-0.02734375,-0.53125,-0.3125,-0.34375
674,1697632925,0.99316406,0.123046875,-0.03125,-0.1875,-0.25,-0.09375
675,1697632965,0.9951172,0.11328125,-0.041015625,0.3125,-0.125,0.03125
676,1697633005,0.99609375,0.12207031,-0.037109375,0.5625,-0.375,-0.15625
677,1697633045,0.9951172,0.12011719,-0.032226562,0.5625,-0.3125,-0.03125
678,1697633085,0.9941406,0.109375,-0.048828125,0.75,-0.3125,-0.03125
679,1697633125,0.9970703,0.12011719,-0.028320312,0.75,-0.5,0.09375
680,1697633165,0.9902344,0.11621094,-0.03515625,0.875,-0.3125,0.15625
681,1697633205,1.0,0.1171875,-0.044921875,0.75,-0.625,0.09375
682,1697633245,0.9980469,0.119140625,-0.02734375,0.5625,-0.5625,0.09375
683,1697633285,1.0,0.12207031,-0.024414062,0.0625,-0.5,-0.09375
684,1697633325,0.9863281,0.12207031,-0.029296875,0.75,-0.25,0.34375
685,1697633365,0.9921875,0.11328125,-0.03125,0.125,-0.375,0.03125
686,1697633405,0.9951172,0.11816406,-0.025390625,-0.1875,-0.5625,-0.34375
687,1697633445,0.99121094,0.12207031,-0.034179688,-0.28125,-0.5,-0.03125
688,1697633485,0.9951172,0.12207031,-0.041015625,-0.46875,-0.5,-0.09375
689,1697633525,1.0,0.12011719,-0.047851562,-0.25,-0.5,0.03125
690,1697633565,0.9892578,0.11621094,-0.045898438,-0.71875,-0.4375,-0.03125
691,1697633605,0.9980469,0.10839844,-0.041015625,-0.34375,-0.5,-0.15625
692,1697633645,0.9980469,0.12011719,-0.032226562,0.0625,-0.3125,-0.09375
693,1697633685,0.9921875,0.125,-0.048828125,0.0625,-0.5,-0.09375
694,1697633725,0.99609375,0.11621094,-0.033203125,0.1875,-0.375,-0.21875
695,1697633765,0.9980469,0.115234375,-0.041992188,-0.0625,-0.3125,-0.21875
696,1697633805,1.0097656,0.115234375,-0.040039062,-0.53125,-0.625,-0.40625
697,1697633845,0.9941406,0.11230469,-0.04296875,0.25,0.1875,-0.15625
698,1697633885,0.9873047,0.119140625,-0.037109375,0.5625,-0.1875,-0.21875
699,1697633925,0.9902344,0.11035156,-0.030273438,0.0625,-0.3125,-0.59375
700,1697633965,1.0039062,0.11621094,-0.03515625,0.0625,-0.25,-0.59375
701,1697634005,1.0009766,0.11328125,-0.037109375,-0.0625,-0.3125,-0.40625
702,1697634045,0.9951172,0.109375,-0.0390625,0.0,-0.125,-0.84375
703,1697634085,0.9892578,0.11621094,-0.043945312,-0.1875,-0.3125,-0.40625
704,1697634125,0.9951172,0.1171875,-0.029296875,-0.34375,-0.5625,-0.40625
705,1697634165,1.0009766,0.123046875,-0.04296875,-0.125,-0.375,-0.65625
706,1697634205,0.9951172,0.13378906,-0.055664062,0.0625,-0.25,-0.53125
707,1697634245,0.99121094,0.11816406,-0.057617188,-0.25,-0.3125,-0.59375
708,1697634285,0.99609375,0.12890625,-0.041015625,-0.125,-0.1875,-0.65625
709,1697634325,0.9921875,0.12597656,-0.034179688,-0.96875,-0.375,-0.875
710,1697634365,0.99902344,0.12890625,-0.034179688,-0.71875,0.0,-0.53125
711,1697634405,0.98535156,0.12402344,-0.046875,0.125,0.0,-0.71875
712,1697634445,0.9921875,0.123046875,-0.04296875,-1.03125,-0.4375,-0.71875
713,1697634485,0.99902344,0.12597656,-0.030273438,-1.6875,-0.375,-1.1875
714,1697634525,0.9951172,0.12402344,-0.043945312,-1.46875,-0.1875,-0.78125
715,1697634565,0.99902344,0.13378906,-0.034179688,-1.875,-0.1875,-0.46875
716,1697634605,0.99121094,0.11621094,-0.046875,-1.625,-0.3125,-0.28125
717,1697634645,0.99902344,0.12695312,-0.040039062,-1.5625,-0.3125,-0.40625
718,1697634685,0.9970703,0.12890625,-0.0390625,-0.65625,-0.3125,-0.71875
719,1697634725,0.9921875,0.125,-0.034179688,-0.78125,-0.0625,-0.53125
720,1697634765,0.9921875,0.12695312,-0.02734375,-0.53125,0.0,-0.40625
721,1697634805,0.99609375,0.115234375,-0.040039062,-0.96875,-0.0625,-0.15625
722,1697634845,0.9892578,0.12207031,-0.041015625,-0.28125,0.125,-0.46875
723,1697634885,1.0019531,0.12402344,-0.041992188,-0.40625,-0.1875,-0.46875
724,1697634925,0.98828125,0.11816406,-0.030273438,0.4375,0.59375,-0.09375
725,1697634965,0.99609375,0.13378906,-0.040039062,0.625,0.21875,-0.34375
726,1697635005,0.984375,0.12695312,-0.04296875,0.0625,0.125,-0.21875
727,1697635045,1.0029297,0.12695312,-0.036132812,0.25,0.59375,-0.21875
728,1697635085,0.9921875,0.12890625,-0.046875,0.4375,0.40625,-0.15625
729,1697635125,0.99902344,0.12988281,-0.036132812,0.5,0.71875,0.03125
730,1697635165,0.9892578,0.12890625,-0.033203125,0.25,0.78125,0.15625
731,1697635205,0.9980469,0.12109375,-0.045898438,0.3125,0.78125,0.03125
732,1697635245,0.99316406,0.1171875,-0.03125,0.4375,0.90625,0.34375
733,1697635285,0.99316406,0.12109375,-0.041015625,1.15625,0.96875,0.21875
734,1697635325,1.0039062,0.12890625,-0.024414062,1.21875,0.84375,0.5
735,1697635365,0.99316406,0.13574219,-0.03515625,0.875,0.96875,0.5
736,1697635405,0.99316406,0.12597656,-0.036132812,0.5,0.65625,0.15625
737,1697635445,0.99902344,0.119140625,-0.040039062,0.5625,1.03125,0.40625
738,1697635485,0.9951172,0.12011719,-0.01953125,1.65625,0.78125,0.28125
739,1697635525,0.9970703,0.12988281,-0.02734375,1.09375,0.28125,0.15625
740,1697635565,1.0,0.11425781,-0.020507812,0.9375,0.59375,-0.09375
741,1697635605,0.9921875,0.12792969,-0.026367188,1.09375,0.46875,0.15625
742,1697635645,0.9951172,0.12011719,-0.044921875,0.875,0.34375,0.21875
743,1697635685,1.0009766,0.12109375,-0.033203125,0.5625,0.28125,0.28125
744,1697635725,0.9941406,0.12207031,-0.029296875,0.6875,0.1875,0.28125
745,1697635765,0.9863281,0.12011719,-0.034179688,0.8125,0.1875,0.21875
746,1697635805,1.0,0.10546875,-0.01171875,0.875,0.21875,0.28125
747,1697635845,0.9892578,0.119140625,-0.034179688,1.03125,0.28125,0.21875
748,1697635885,0.99121094,0.12207031,-0.022460938,0.6875,0.125,0.28125
749,1697635925,0.98828125,0.12011719,-0.01953125,0.25,0.21875,0.34375
750,1697635965,1.0009766,0.11621094,-0.0234375,-0.40625,-0.0625,0.40625
751,1697636005,0.99609375,0.115234375,-0.018554688,0.1875,0.40625,1.0
752,1697636045,0.9921875,0.1171875,-0.0234375,-0.59375,-0.125,0.875
753,1697636085,0.9951172,0.11816406,-0.01171875,-0.90625,-0.1875,0.46875
754,1697636125,1.0126953,0.125,-0.038085938,-0.25,0.0625,0.5
755,1697636165,1.0019531,0.115234375,-0.018554688,-0.53125,0.0625,0.46875
756,1697636205,0.98535156,0.12011719,-0.0234375,-0.125,0.0,0.40625
757,1697636245,1.0,0.109375,-0.020507812,-0.1875,-0.3125,0.34375
758,1697636285,1.0029297,0.1171875,-0.041015625,-0.46875,-0.1875,0.46875
759,1697636325,0.9980469,0.119140625,-0.032226562,0.125,0.0625,0.28125
