,timestamp,accel_x,accel_y,accel_z,gyro_x,gyro_y,gyro_z,mag_x,mag_y,mag_z,ind
0,1695569436325,-0.7734375,-0.057617188,0.45898438,-144.4375,-96.8125,-12.59375,0.0,0.0,0.0,0
1,1695569436365,-1.2509766,0.0126953125,0.8808594,-118.0625,-73.6875,-46.09375,0.0,0.0,0.0,1
2,1695569436405,-1.1503906,-0.15234375,0.06347656,153.65625,-119.9375,24.09375,-23.6875,19.375,-85.25,2
3,1695569436445,-0.8828125,-0.34960938,0.2861328,-33.875,10.125,-24.125,0.0,0.0,0.0,3
4,1695569436485,-0.7167969,0.046875,0.57128906,20.0625,40.34375,-48.53125,0.0,0.0,0.0,4
5,1695569436525,-0.77441406,0.22265625,0.35546875,90.5625,-16.0625,-36.625,0.0,0.0,0.0,5
6,1695569436565,-0.87402344,0.04296875,0.39648438,80.3125,-4.46875,-15.28125,0.0,0.0,0.0,6
7,1695569436605,-0.7753906,0.29785156,0.421875,25.125,-3.625,-16.125,0.0,0.0,0.0,7
8,1695569436645,-0.72753906,0.21777344,0.484375,-29.375,-11.5625,4.125,0.0,0.0,0.0,8
9,1695569436685,-0.8701172,-0.1015625,0.57910156,-61.65625,-25.78125,5.59375,0.0,0.0,0.0,9
10,1695569436725,-0.92285156,-0.28808594,0.49121094,5.96875,-38.03125,2.84375,0.0,0.0,0.0,10
11,1695569436765,-0.80078125,0.001953125,0.45117188,23.46875,-8.6875,4.5625,0.0,0.0,0.0,11
12,1695569436805,-0.7363281,0.12890625,0.5644531,1.5,19.8125,13.15625,0.0,0.0,0.0,12
13,1695569436845,-0.6689453,0.22167969,0.38085938,-37.375,47.21875,29.71875,0.0,0.0,0.0,13
14,1695569436885,-0.7558594,0.31152344,0.19628906,-9.15625,93.84375,54.3125,0.0,0.0,0.0,14
15,1695569436925,-1.1542969,0.30371094,-0.0087890625,83.71875,59.25,67.96875,-22.5,16.375,-86.125,15
16,1695569436965,-1.1757812,0.119140625,0.3154297,-156.875,61.5625,9.9375,0.0,0.0,0.0,16
17,1695569437005,-0.8623047,-0.0048828125,0.3232422,-99.1875,78.21875,22.125,0.0,0.0,0.0,17
18,1695569437045,-1.4824219,0.22265625,0.17773438,84.34375,37.40625,85.96875,0.0,0.0,0.0,18
19,1695569437085,-2.0,-0.30371094,0.6699219,-119.53125,175.34375,53.09375,0.0,0.0,0.0,19
20,1695569437125,-1.7773438,-0.6298828,0.3798828,128.34375,113.5625,76.34375,0.0,0.0,0.0,20
21,1695569437165,-1.4794922,0.08300781,0.58984375,159.53125,121.8125,10.84375,0.0,0.0,0.0,21
22,1695569437205,-0.8935547,-0.14550781,0.13574219,142.125,43.3125,21.15625,0.0,0.0,0.0,22
23,1695569437245,-0.0546875,0.048828125,0.24707031,48.6875,-28.9375,-5.6875,0.0,0.0,0.0,23
24,1695569437285,0.35058594,-0.091796875,-0.38378906,81.34375,-47.0625,-46.09375,0.0,0.0,0.0,24
25,1695569437325,-0.015625,0.31835938,0.29296875,-17.71875,-157.25,-58.375,0.0,0.0,0.0,25
26,1695569437365,-0.5058594,0.40722656,-0.19921875,-53.53125,-214.25,-61.78125,0.0,0.0,0.0,26
27,1695569437405,-2.0,1.1748047,0.73535156,-186.78125,-200.09375,-67.53125,-19.625,12.0625,-91.375,27
28,1695569437445,-1.7617188,0.18359375,0.75097656,-33.875,-228.46875,-86.25,0.0,0.0,0.0,28
29,1695569437485,-1.3349609,-0.1953125,0.7050781,-122.875,-100.96875,45.875,0.0,0.0,0.0,29
30,1695569437525,-1.3271484,-0.39160156,0.60058594,-81.625,-30.34375,7.25,0.0,0.0,0.0,30
31,1695569437565,-0.52246094,0.049804688,0.23535156,199.875,-54.75,5.90625,0.0,0.0,0.0,31
32,1695569437605,-0.08984375,0.13085938,-0.12988281,66.34375,41.3125,13.40625,0.0,0.0,0.0,32
33,1695569437645,0.34375,-0.17480469,-0.32617188,98.5625,161.90625,-27.84375,0.0,0.0,0.0,33
34,1695569437685,0.31933594,0.026367188,-0.18847656,96.125,368.875,-6.96875,0.0,0.0,0.0,34
35,1695569437725,-0.115234375,0.0126953125,0.24511719,-402.0625,-64.96875,-102.125,0.0,0.0,0.0,35
36,1695569437765,-0.9970703,1.1240234,-0.5214844,55.53125,-93.21875,60.15625,0.0,0.0,0.0,36
37,1695569437805,-1.9765625,0.7246094,-0.11230469,-128.6875,106.125,131.21875,0.0,0.0,0.0,37
38,1695569437845,-2.0,-0.3828125,0.6279297,-142.15625,44.40625,156.78125,0.0,0.0,0.0,38
39,1695569437885,-2.0,-1.2392578,0.08984375,-133.4375,170.875,143.0,0.0,0.0,0.0,39
40,1695569437925,-1.7363281,0.001953125,0.33398438,209.03125,103.125,55.28125,-16.0625,23.4375,-89.625,40
41,1695569437965,-1.6982422,-0.25195312,0.6113281,125.0,83.96875,31.46875,0.0,0.0,0.0,41
42,1695569438005,-0.59375,0.4033203,-0.30371094,207.4375,-34.4375,2.0625,0.0,0.0,0.0,42
43,1695569438045,0.53125,0.296875,0.26757812,-37.4375,-62.46875,-3.5625,0.0,0.0,0.0,43
44,1695569438085,0.34960938,-0.060546875,0.12597656,-7.65625,-154.5625,-49.28125,0.0,0.0,0.0,44
45,1695569438125,0.032226562,0.14648438,-0.27246094,-53.84375,-153.53125,-70.9375,0.0,0.0,0.0,45
46,1695569438165,-0.578125,0.1796875,-0.28222656,8.53125,-173.1875,-45.78125,0.0,0.0,0.0,46
47,1695569438205,-2.0,1.6621094,1.9541016,-431.96875,-232.4375,-23.09375,0.0,0.0,0.0,47
48,1695569438245,-0.56640625,0.18652344,0.5292969,75.59375,-256.25,-33.9375,0.0,0.0,0.0,48
49,1695569438285,-1.7607422,-0.10546875,0.3330078,-176.21875,83.78125,49.375,0.0,0.0,0.0,49
50,1695569438325,-0.62402344,-0.6347656,0.8125,-79.65625,101.71875,-29.75,0.0,0.0,0.0,50
51,1695569438365,-0.32910156,0.02734375,-0.15722656,221.53125,-23.5,22.375,0.0,0.0,0.0,51
52,1695569438405,0.41992188,-0.32714844,-0.63183594,211.28125,180.53125,3.34375,-24.4375,12.625,-69.5,52
53,1695569438445,0.51953125,-0.052734375,0.06640625,-56.28125,200.84375,19.5625,0.0,0.0,0.0,53
54,1695569438485,0.1953125,0.23632812,0.66796875,-304.34375,-40.25,36.53125,0.0,0.0,0.0,54
55,1695569438525,-0.6191406,0.5566406,0.57128906,-45.1875,42.71875,3.34375,0.0,0.0,0.0,55
56,1695569438565,-2.0,2.0,0.3173828,-40.125,-32.78125,-14.0,0.0,0.0,0.0,56
57,1695569438605,-1.5527344,-0.26171875,-0.29296875,2.0,59.3125,23.3125,0.0,0.0,0.0,57
58,1695569438645,-2.0,-1.1855469,0.8457031,24.53125,202.125,97.28125,0.0,0.0,0.0,58
59,1695569438685,-1.6259766,-0.00390625,0.7519531,308.15625,105.15625,68.40625,0.0,0.0,0.0,59
60,1695569438725,-1.5439453,-0.030273438,-0.08203125,218.4375,66.03125,17.875,0.0,0.0,0.0,60
61,1695569438765,-0.22851562,0.390625,-0.040039062,103.6875,0.84375,16.9375,0.0,0.0,0.0,61
62,1695569438805,0.5332031,0.15527344,-0.12695312,69.125,-81.1875,2.65625,0.0,0.0,0.0,62
63,1695569438845,0.055664062,0.33203125,0.2529297,-24.125,-138.5,-36.40625,0.0,0.0,0.0,63
64,1695569438885,0.099609375,0.109375,-0.16699219,-55.1875,-159.875,-25.96875,0.0,0.0,0.0,64
65,1695569438925,-0.50097656,0.21191406,-0.1640625,-18.75,-203.6875,-25.03125,-20.6875,17.125,-80.3125,65
66,1695569438965,-2.0,1.3085938,1.3027344,-552.8125,-177.03125,-43.28125,0.0,0.0,0.0,66
67,1695569439005,-0.9140625,0.30566406,0.6689453,-27.25,-204.4375,-39.625,0.0,0.0,0.0,67
68,1695569439045,-1.5771484,-0.5410156,0.38183594,-65.4375,82.03125,61.75,0.0,0.0,0.0,68
69,1695569439085,-1.1533203,-0.97753906,0.5859375,-84.5,81.46875,-41.75,0.0,0.0,0.0,69
70,1695569439125,-0.15820312,-0.068359375,-0.3486328,219.59375,18.1875,-30.53125,0.0,0.0,0.0,70
71,1695569439165,0.6298828,0.049804688,-0.8623047,233.0625,270.1875,19.03125,0.0,0.0,0.0,71
72,1695569439205,0.37109375,0.45703125,0.5371094,-261.5,172.09375,-14.46875,0.0,0.0,0.0,72
73,1695569439245,0.24414062,0.12695312,0.59765625,50.59375,-133.125,11.40625,0.0,0.0,0.0,73
74,1695569439285,-0.5361328,0.6220703,-0.53027344,-8.0,122.46875,24.09375,0.0,0.0,0.0,74
75,1695569439325,-2.0,1.2480469,0.85253906,-231.8125,-124.40625,198.21875,0.0,0.0,0.0,75
76,1695569439365,-2.0,-0.6386719,0.7519531,104.71875,6.5625,129.3125,0.0,0.0,0.0,76
77,1695569439405,-2.0,-1.2197266,0.42285156,-49.46875,212.9375,112.46875,-23.125,23.0,-76.6875,77
78,1695569439445,-1.7060547,0.45410156,0.46777344,252.96875,75.84375,1.15625,0.0,0.0,0.0,78
79,1695569439485,-1.1064453,0.2607422,0.3935547,207.03125,67.3125,54.6875,0.0,0.0,0.0,79
80,1695569439525,-0.044921875,0.24707031,-0.29296875,134.09375,16.40625,58.9375,0.0,0.0,0.0,80
81,1695569439565,0.7988281,-0.022460938,0.14648438,-39.4375,-31.875,-7.46875,0.0,0.0,0.0,81
82,1695569439605,-0.06347656,0.22851562,0.25390625,23.59375,-170.5625,-59.15625,0.0,0.0,0.0,82
83,1695569439645,0.21484375,0.20410156,-0.30273438,-50.125,-173.65625,-34.4375,0.0,0.0,0.0,83
84,1695569439685,-0.56640625,0.13183594,-0.23535156,-53.90625,-205.15625,-56.21875,0.0,0.0,0.0,84
85,1695569439725,-2.0,1.2167969,1.6035156,-569.15625,-242.9375,-9.90625,0.0,0.0,0.0,85
86,1695569439765,-0.40820312,0.43847656,0.9707031,-31.75,-149.375,-66.71875,0.0,0.0,0.0,86
87,1695569439805,-1.7929688,-0.40429688,0.4580078,-45.5,41.4375,20.6875,0.0,0.0,0.0,87
88,1695569439845,-1.0283203,-0.90625,0.45410156,-8.9375,34.15625,-16.25,0.0,0.0,0.0,88
89,1695569439885,-0.059570312,-0.09667969,-0.21875,205.96875,2.65625,-14.3125,0.0,0.0,0.0,89
90,1695569439925,0.82128906,-0.16015625,-0.8300781,189.5625,250.53125,30.125,-25.625,14.875,-66.5,90
91,1695569439965,0.4111328,0.24121094,0.2841797,-61.53125,286.53125,-30.46875,0.0,0.0,0.0,91
92,1695569440005,0.06640625,0.13574219,0.6904297,-209.90625,-294.6875,-27.59375,0.0,0.0,0.0,92
93,1695569440045,-0.22070312,0.51953125,-0.24511719,63.46875,139.75,19.46875,0.0,0.0,0.0,93
94,1695569440085,-2.0,1.2431641,0.65722656,-297.6875,-366.90625,195.84375,0.0,0.0,0.0,94
95,1695569440125,-2.0,-0.57421875,0.2548828,116.625,7.25,113.625,0.0,0.0,0.0,95
96,1695569440165,-1.8017578,-0.859375,0.56933594,122.3125,197.875,64.6875,0.0,0.0,0.0,96
97,1695569440205,-1.5390625,0.4951172,0.65625,237.53125,153.0,7.90625,0.0,0.0,0.0,97
98,1695569440245,-1.2890625,0.047851562,0.13183594,212.03125,60.28125,63.46875,0.0,0.0,0.0,98
99,1695569440285,0.033203125,0.15722656,-0.18164062,103.25,17.4375,21.71875,0.0,0.0,0.0,99
100,1695569440325,0.3466797,0.3359375,0.18554688,24.59375,-79.78125,-41.03125,0.0,0.0,0.0,100
101,1695569440365,0.07910156,0.2939453,-0.041015625,15.125,-177.5,-22.0625,0.0,0.0,0.0,101
102,1695569440405,0.17480469,0.15136719,-0.40234375,-14.34375,-152.84375,-1.34375,-23.5625,19.5625,-80.3125,102
103,1695569440445,-1.0195312,0.3232422,-0.14257812,-165.96875,-227.8125,-58.5625,0.0,0.0,0.0,103
104,1695569440485,-2.0,0.9941406,1.6826172,-366.84375,-47.875,-72.53125,0.0,0.0,0.0,104
105,1695569440525,-1.0615234,-0.17871094,0.4658203,-90.40625,-122.28125,-53.0,0.0,0.0,0.0,105
106,1695569440565,-1.4560547,-0.7138672,0.5175781,-28.75,49.0625,33.125,0.0,0.0,0.0,106
107,1695569440605,-0.5341797,-0.43554688,0.54296875,25.6875,67.84375,-27.0,0.0,0.0,0.0,107
108,1695569440645,0.0625,-0.06933594,-0.50878906,218.90625,-1.65625,-32.0,0.0,0.0,0.0,108
109,1695569440685,0.5908203,0.059570312,-0.55859375,-2.75,341.53125,-18.21875,0.0,0.0,0.0,109
110,1695569440725,0.3154297,0.35839844,0.52246094,-133.0625,-63.125,90.25,0.0,0.0,0.0,110
111,1695569440765,-0.22851562,0.22558594,0.5126953,-70.3125,-20.78125,-64.96875,0.0,0.0,0.0,111
112,1695569440805,-2.0,1.9003906,-0.8232422,-141.0,-233.71875,-83.5625,0.0,0.0,0.0,112
113,1695569440845,-1.9423828,0.041992188,-0.54003906,223.875,151.03125,59.375,0.0,0.0,0.0,113
114,1695569440885,-1.8964844,-0.79003906,1.1884766,-106.53125,293.5625,46.625,0.0,0.0,0.0,114
115,1695569440925,-1.8583984,-0.46875,0.20117188,267.0,89.34375,78.71875,-23.5625,23.4375,-81.0625,115
116,1695569440965,-1.3994141,0.26367188,0.13574219,167.40625,91.59375,27.875,0.0,0.0,0.0,116
117,1695569441005,-0.20410156,0.15625,0.119140625,134.3125,34.40625,44.90625,0.0,0.0,0.0,117
118,1695569441045,0.5283203,-0.048828125,-0.28710938,46.25,-40.84375,-15.28125,0.0,0.0,0.0,118
119,1695569441085,-0.07128906,0.4091797,0.29785156,-8.8125,-146.0,-50.5625,0.0,0.0,0.0,119
120,1695569441125,0.03515625,0.083984375,-0.15527344,-40.78125,-153.8125,-27.78125,0.0,0.0,0.0,120
121,1695569441165,-0.49414062,0.049804688,-0.36621094,-68.3125,-193.5,-40.1875,0.0,0.0,0.0,121
122,1695569441205,-2.0,1.6552734,1.6445312,-564.28125,-198.3125,-0.8125,0.0,0.0,0.0,122
123,1695569441245,-0.6669922,0.5878906,0.23632812,-29.96875,-207.09375,-78.75,0.0,0.0,0.0,123
124,1695569441285,-1.6835938,-0.6591797,0.42578125,-212.34375,110.15625,76.15625,0.0,0.0,0.0,124
125,1695569441325,-1.2138672,-1.25,0.9121094,-74.53125,82.75,-27.53125,0.0,0.0,0.0,125
126,1695569441365,-0.20605469,-0.09472656,-0.19628906,221.53125,-44.8125,5.53125,0.0,0.0,0.0,126
127,1695569441405,0.6582031,-0.3857422,-1.109375,230.875,326.15625,-33.65625,-27.125,15.9375,-67.5625,127
128,1695569441445,0.43945312,0.16992188,0.061523438,0.90625,238.375,-21.1875,0.0,0.0,0.0,128
129,1695569441485,-0.045898438,0.37109375,0.7246094,-263.1875,-249.28125,-44.09375,0.0,0.0,0.0,129
130,1695569441525,-0.45898438,1.1357422,-0.16210938,55.53125,-133.875,101.5,0.0,0.0,0.0,130
131,1695569441565,-2.0,0.984375,-0.39453125,-228.34375,15.25,184.0625,0.0,0.0,0.0,131
132,1695569441605,-2.0,-0.5058594,-0.10058594,170.03125,74.5625,193.15625,0.0,0.0,0.0,132
133,1695569441645,-2.0,-1.6318359,0.45410156,-151.875,300.9375,155.5625,0.0,0.0,0.0,133
134,1695569441685,-1.6542969,0.64941406,0.31835938,293.9375,38.0625,12.9375,0.0,0.0,0.0,134
135,1695569441725,-1.0322266,0.36621094,0.32128906,182.84375,96.1875,64.125,0.0,0.0,0.0,135
136,1695569441765,-0.0146484375,0.028320312,-0.1015625,105.5625,9.125,36.96875,0.0,0.0,0.0,136
137,1695569441805,0.39160156,0.43359375,0.2734375,-35.78125,-57.03125,-24.3125,0.0,0.0,0.0,137
138,1695569441845,-0.10058594,0.18261719,0.0078125,-22.15625,-155.46875,-50.90625,0.0,0.0,0.0,138
139,1695569441885,0.14453125,0.10058594,-0.41796875,-59.65625,-156.6875,-19.84375,0.0,0.0,0.0,139
140,1695569441925,-1.1132812,0.30273438,-0.2919922,-89.5,-242.625,-31.6875,-24.4375,20.4375,-80.125,140
141,1695569441965,-2.0,1.1328125,1.8398438,-440.5,-28.9375,-98.21875,0.0,0.0,0.0,141
142,1695569442005,-0.6464844,0.0146484375,0.29492188,-29.875,-169.09375,-34.375,0.0,0.0,0.0,142
143,1695569442045,-1.5283203,-0.85839844,0.3779297,-21.5625,95.75,35.03125,0.0,0.0,0.0,143
144,1695569442085,-0.40820312,-0.45214844,0.78027344,-13.6875,41.78125,9.9375,0.0,0.0,0.0,144
145,1695569442125,-0.05078125,-0.30371094,-0.5722656,325.0625,-57.4375,-55.4375,0.0,0.0,0.0,145
146,1695569442165,0.5078125,0.026367188,-0.81152344,151.15625,352.65625,-43.59375,0.0,0.0,0.0,146
147,1695569442205,0.026367188,0.43847656,0.2861328,-163.28125,64.0,-55.625,0.0,0.0,0.0,147
148,1695569442245,-0.1484375,0.18554688,0.79785156,-94.0625,-40.65625,-36.34375,0.0,0.0,0.0,148
149,1695569442285,-1.7402344,1.8710938,-0.9628906,-33.84375,93.25,-34.0625,0.0,0.0,0.0,149
150,1695569442325,-2.0,0.47753906,-0.015625,-86.1875,93.6875,219.46875,0.0,0.0,0.0,150
151,1695569442365,-2.0,-0.85253906,0.15039062,206.78125,213.3125,165.75,0.0,0.0,0.0,151
152,1695569442405,-1.7597656,-1.859375,1.1416016,-178.46875,237.90625,107.53125,-25.375,23.4375,-80.3125,152
153,1695569442445,-1.7695312,0.5878906,0.11035156,252.5,52.46875,25.5,0.0,0.0,0.0,153
154,1695569442485,-0.54296875,0.40722656,0.16796875,183.40625,55.78125,35.1875,0.0,0.0,0.0,154
155,1695569442525,0.0126953125,0.16113281,-0.29003906,92.09375,-65.875,-3.3125,0.0,0.0,0.0,155
156,1695569442565,0.7636719,0.20605469,0.296875,-89.8125,-73.375,4.0,0.0,0.0,0.0,156
157,1695569442605,0.05859375,0.2109375,-0.12011719,-31.5,-152.59375,-35.46875,0.0,0.0,0.0,157
158,1695569442645,-0.17773438,0.08203125,-0.3330078,6.28125,-191.59375,-47.3125,0.0,0.0,0.0,158
159,1695569442685,-2.0,1.2509766,1.5585938,-623.5625,-404.6875,-117.03125,0.0,0.0,0.0,159
160,1695569442725,-0.77734375,0.05859375,0.5859375,8.96875,-204.3125,-42.4375,0.0,0.0,0.0,160
161,1695569442765,-1.5595703,-0.6269531,0.32128906,30.75,-8.5,17.6875,0.0,0.0,0.0,161
162,1695569442805,-1.1230469,-0.80078125,0.39160156,-39.1875,56.25,-65.625,0.0,0.0,0.0,162
163,1695569442845,-0.0078125,-0.14257812,-0.3173828,197.6875,44.84375,-43.40625,0.0,0.0,0.0,163
164,1695569442885,0.5761719,0.17382812,-0.796875,281.71875,313.28125,16.40625,0.0,0.0,0.0,164
165,1695569442925,0.33007812,0.484375,0.42089844,-264.125,278.1875,-104.1875,-31.625,16.25,-76.6875,165
166,1695569442965,0.005859375,0.203125,1.1171875,-9.0625,-327.90625,53.625,0.0,0.0,0.0,166
167,1695569443005,-0.23730469,0.5205078,-0.41992188,24.28125,194.125,62.0625,0.0,0.0,0.0,167
168,1695569443045,-2.0,0.8408203,1.4316406,-438.4375,-483.71875,206.65625,0.0,0.0,0.0,168
169,1695569443085,-2.0,-0.43554688,0.22363281,239.4375,65.65625,101.84375,0.0,0.0,0.0,169
170,1695569443125,-2.0,-1.5507812,0.625,-11.375,243.46875,132.0,0.0,0.0,0.0,170
171,1695569443165,-1.4365234,-0.045898438,0.46972656,254.9375,127.375,13.40625,0.0,0.0,0.0,171
172,1695569443205,-1.1933594,0.28125,-0.0009765625,281.1875,51.5,29.84375,0.0,0.0,0.0,172
173,1695569443245,-0.18847656,0.33984375,-0.28222656,40.75,39.96875,34.21875,0.0,0.0,0.0,173
174,1695569443285,0.42871094,0.4873047,0.31054688,-40.78125,-57.9375,4.0,0.0,0.0,0.0,174
175,1695569443325,0.037109375,0.059570312,0.14550781,-25.34375,-163.34375,-29.75,0.0,0.0,0.0,175
176,1695569443365,0.16503906,-0.045898438,-0.4189453,28.65625,-198.3125,-2.8125,0.0,0.0,0.0,176
177,1695569443405,-1.5566406,-0.09375,-0.36816406,85.1875,-256.96875,-26.5625,-28.9375,23.875,-81.0625,177
178,1695569443445,-2.0,1.5566406,2.0,-820.09375,-122.875,14.625,0.0,0.0,0.0,178
179,1695569443485,-1.203125,-0.16308594,0.54589844,-85.53125,-133.375,-83.5625,0.0,0.0,0.0,179
180,1695569443525,-1.5224609,-0.8642578,0.48828125,49.78125,44.34375,15.96875,0.0,0.0,0.0,180
181,1695569443565,-0.6142578,-0.4892578,0.29296875,119.3125,-26.3125,-2.21875,0.0,0.0,0.0,181
182,1695569443605,0.0087890625,-0.16210938,-0.3330078,253.46875,75.90625,-14.84375,0.0,0.0,0.0,182
183,1695569443645,0.5722656,0.111328125,-0.8544922,245.59375,398.25,35.75,0.0,0.0,0.0,183
184,1695569443685,0.8261719,0.31445312,-0.11621094,-161.40625,270.90625,-90.84375,0.0,0.0,0.0,184
185,1695569443725,0.22363281,0.74902344,1.8681641,-143.5625,-690.5625,101.25,0.0,0.0,0.0,185
186,1695569443765,-0.4013672,1.0214844,-0.51660156,-110.3125,323.21875,2.65625,0.0,0.0,0.0,186
187,1695569443805,-2.0,0.77441406,0.734375,-489.53125,-481.875,426.9375,0.0,0.0,0.0,187
188,1695569443845,-2.0,-0.546875,0.421875,329.5625,-1.84375,109.96875,0.0,0.0,0.0,188
189,1695569443885,-2.0,-1.8701172,0.84472656,-149.375,176.125,195.40625,0.0,0.0,0.0,189
190,1695569443925,-1.4257812,0.44628906,0.49414062,270.375,12.875,-8.375,-27.3125,37.0625,-83.3125,190
191,1695569443965,-0.9511719,0.13183594,0.09082031,212.09375,49.25,28.5,0.0,0.0,0.0,191
192,1695569444005,0.015625,0.20410156,-0.11035156,105.40625,45.15625,20.625,0.0,0.0,0.0,192
193,1695569444045,0.8408203,0.0087890625,-0.041015625,-1.46875,-53.84375,-38.03125,0.0,0.0,0.0,193
194,1695569444085,-0.037109375,0.50878906,0.3388672,-14.40625,-129.90625,-38.09375,0.0,0.0,0.0,194
195,1695569444125,-0.076171875,0.1796875,-0.3701172,5.84375,-233.84375,-11.90625,0.0,0.0,0.0,195
196,1695569444165,-1.7294922,-0.028320312,-0.20019531,89.28125,-296.21875,-78.5625,0.0,0.0,0.0,196
197,1695569444205,-2.0,1.1162109,1.6689453,-619.875,-105.65625,29.71875,0.0,0.0,0.0,197
198,1695569444245,-1.2705078,-0.34472656,0.65234375,-50.96875,-97.0,-102.0,0.0,0.0,0.0,198
199,1695569444285,-1.8623047,-0.9121094,0.38085938,93.5,43.125,-10.21875,0.0,0.0,0.0,199
200,1695569444325,-0.38476562,-0.4560547,0.24511719,94.21875,15.65625,-53.25,0.0,0.0,0.0,200
201,1695569444365,-0.022460938,0.20898438,-0.328125,216.15625,95.625,-6.25,0.0,0.0,0.0,201
202,1695569444405,0.75,0.2685547,-0.84375,220.9375,281.71875,16.9375,-38.6875,15.1875,-68.4375,202
203,1695569444445,0.296875,0.74121094,0.9941406,-201.25,236.875,-85.78125,0.0,0.0,0.0,203
204,1695569444485,0.30371094,0.036132812,0.8027344,-68.875,-214.375,0.34375,0.0,0.0,0.0,204
205,1695569444525,-1.0732422,1.2490234,-0.8564453,-37.84375,204.28125,38.4375,0.0,0.0,0.0,205
206,1695569444565,-2.0,0.77734375,0.25683594,-9.59375,50.40625,413.3125,0.0,0.0,0.0,206
207,1695569444605,-2.0,-0.90625,0.19042969,89.40625,68.15625,98.3125,0.0,0.0,0.0,207
208,1695569444645,-1.6416016,-1.4941406,0.78027344,-106.78125,207.25,121.875,0.0,0.0,0.0,208
209,1695569444685,-1.7080078,0.4814453,0.375,339.03125,85.4375,29.46875,0.0,0.0,0.0,209
210,1695569444725,-1.0898438,0.21582031,0.31054688,225.21875,68.15625,32.9375,0.0,0.0,0.0,210
211,1695569444765,-0.11230469,0.16992188,-0.24804688,126.375,57.25,17.3125,0.0,0.0,0.0,211
212,1695569444805,0.6533203,0.2421875,0.23046875,-49.46875,-36.9375,-29.1875,0.0,0.0,0.0,212
213,1695569444845,0.024414062,0.25878906,0.09472656,11.21875,-155.28125,-27.0,0.0,0.0,0.0,213
214,1695569444885,0.14355469,0.028320312,-0.38378906,-64.65625,-136.0,-15.6875,0.0,0.0,0.0,214
215,1695569444925,-0.5527344,-0.041992188,-0.15625,-50.78125,-164.625,-42.9375,-34.8125,18.625,-74.3125,215
216,1695569444965,-2.0,1.1455078,2.0,-459.84375,-147.46875,-200.40625,0.0,0.0,0.0,216
217,1695569445005,-0.6044922,0.0,0.45703125,-91.6875,-143.3125,-66.78125,0.0,0.0,0.0,217
218,1695569445045,-1.9521484,-0.5332031,0.6123047,-6.4375,48.625,13.40625,0.0,0.0,0.0,218
219,1695569445085,-0.625,-0.57714844,0.3779297,44.46875,51.4375,-64.09375,0.0,0.0,0.0,219
220,1695569445125,-0.01953125,0.06933594,-0.41992188,222.15625,13.28125,-3.25,0.0,0.0,0.0,220
221,1695569445165,0.84375,0.0068359375,-0.6142578,52.78125,316.875,41.4375,0.0,0.0,0.0,221
222,1695569445205,0.49316406,0.44433594,0.5185547,-141.875,210.8125,49.0625,0.0,0.0,0.0,222
223,1695569445245,0.07714844,0.16992188,0.91015625,77.1875,-226.21875,10.0625,0.0,0.0,0.0,223
224,1695569445285,-0.6513672,0.5839844,-0.7636719,-13.3125,214.71875,-12.03125,0.0,0.0,0.0,224
225,1695569445325,-2.0,1.2773438,0.90527344,-93.15625,-79.375,292.65625,0.0,0.0,0.0,225
226,1695569445365,-1.4609375,-0.24609375,0.6269531,47.28125,-10.28125,108.3125,0.0,0.0,0.0,226
227,1695569445405,-2.0,-1.1835938,0.42382812,110.09375,193.21875,193.90625,-30.0,23.4375,-71.0,227
228,1695569445445,-1.3964844,0.21777344,0.64941406,219.03125,97.59375,13.28125,0.0,0.0,0.0,228
229,1695569445485,-1.1523438,0.051757812,0.19042969,212.5625,66.625,13.28125,0.0,0.0,0.0,229
230,1695569445525,-0.30664062,0.21777344,-0.28710938,84.09375,16.34375,16.40625,0.0,0.0,0.0,230
231,1695569445565,0.5126953,0.0546875,-0.044921875,70.78125,-64.40625,-7.21875,0.0,0.0,0.0,231
232,1695569445605,0.11621094,0.44726562,0.28320312,-9.0625,-127.625,-49.15625,0.0,0.0,0.0,232
233,1695569445645,0.24414062,0.2705078,-0.37109375,-35.15625,-192.34375,-36.09375,0.0,0.0,0.0,233
234,1695569445685,-0.8613281,0.33789062,-0.2626953,-59.28125,-226.21875,-81.9375,0.0,0.0,0.0,234
235,1695569445725,-2.0,1.3613281,1.7382812,-607.0,-89.96875,-9.40625,0.0,0.0,0.0,235
236,1695569445765,-0.6455078,0.041015625,0.5566406,-59.78125,-155.71875,-39.0625,0.0,0.0,0.0,236
237,1695569445805,-1.6601562,-0.7324219,0.3466797,-31.3125,48.375,49.0,0.0,0.0,0.0,237
238,1695569445845,-0.7167969,-0.7402344,0.59375,-31.375,50.9375,-35.15625,0.0,0.0,0.0,238
239,1695569445885,-0.10449219,0.10449219,-0.31054688,187.0625,19.875,5.90625,0.0,0.0,0.0,239
240,1695569445925,0.82910156,-0.064453125,-0.8183594,94.15625,304.5,24.03125,-30.625,20.4375,-67.375,240
241,1695569445965,0.5029297,0.17578125,0.28808594,-47.1875,84.34375,31.40625,0.0,0.0,0.0,241
242,1695569446005,0.07519531,-0.0546875,0.64941406,-166.9375,-10.4375,-95.53125,0.0,0.0,0.0,242
243,1695569446045,-1.0683594,1.2675781,-0.48242188,-19.78125,-20.15625,-52.03125,0.0,0.0,0.0,243
244,1695569446085,-2.0,0.7363281,-0.078125,-52.125,29.28125,315.78125,0.0,0.0,0.0,244
245,1695569446125,-2.0,-1.0419922,0.18652344,44.65625,192.5625,197.25,0.0,0.0,0.0,245
246,1695569446165,-1.4980469,-1.2363281,0.75683594,26.0,177.0625,98.125,0.0,0.0,0.0,246
247,1695569446205,-1.9169922,0.37597656,0.17285156,306.625,52.53125,27.6875,0.0,0.0,0.0,247
248,1695569446245,-0.7626953,0.32617188,0.5361328,123.75,115.875,42.84375,0.0,0.0,0.0,248
249,1695569446285,-0.061523438,0.14648438,-0.4580078,164.15625,-15.34375,40.34375,0.0,0.0,0.0,249
250,1695569446325,0.7705078,0.16894531,0.29785156,-68.0,-35.78125,-20.9375,0.0,0.0,0.0,250
251,1695569446365,-0.013671875,0.24414062,0.053710938,4.625,-148.15625,-57.28125,0.0,0.0,0.0,251
252,1695569446405,0.24609375,0.09667969,-0.44921875,-27.1875,-184.34375,-37.0,-27.875,26.5625,-85.875,252
253,1695569446445,-1.5400391,0.19042969,0.107421875,-184.90625,-252.59375,-129.46875,0.0,0.0,0.0,253
254,1695569446485,-2.0,0.53222656,1.515625,-402.1875,29.90625,12.875,0.0,0.0,0.0,254
255,1695569446525,-0.9824219,-0.6308594,0.47070312,3.84375,-164.25,-44.5,0.0,0.0,0.0,255
256,1695569446565,-1.8789062,-0.8701172,0.5107422,-32.3125,101.375,7.625,0.0,0.0,0.0,256
257,1695569446605,-0.61621094,0.08300781,0.29296875,156.90625,-16.875,-0.5,0.0,0.0,0.0,257
258,1695569446645,0.18554688,-0.24902344,-0.671875,286.84375,79.28125,-18.625,0.0,0.0,0.0,258
259,1695569446685,0.97558594,-0.115234375,-0.50878906,45.15625,400.25,54.125,0.0,0.0,0.0,259
260,1695569446725,0.31347656,0.3935547,0.6015625,-222.0625,-174.46875,27.4375,0.0,0.0,0.0,260
261,1695569446765,0.31835938,0.103515625,0.23144531,-121.53125,38.0,-65.03125,0.0,0.0,0.0,261
262,1695569446805,-2.0,1.7861328,-0.8925781,-32.0625,6.40625,-293.96875,0.0,0.0,0.0,262
263,1695569446845,-1.9160156,0.15722656,-0.087890625,89.15625,183.9375,170.28125,0.0,0.0,0.0,263
264,1695569446885,-2.0,-1.09375,0.31933594,96.46875,76.40625,164.71875,0.0,0.0,0.0,264
265,1695569446925,-1.6259766,-1.21875,0.7421875,-32.84375,176.625,110.34375,-36.125,30.1875,-73.375,265
266,1695569446965,-1.5996094,0.28808594,0.20214844,205.3125,116.625,37.15625,0.0,0.0,0.0,266
267,1695569447005,-0.8886719,0.32617188,0.16992188,183.15625,69.875,41.78125,0.0,0.0,0.0,267
268,1695569447045,0.4453125,0.09765625,-0.22949219,62.96875,20.625,8.90625,0.0,0.0,0.0,268
269,1695569447085,0.18359375,0.5019531,0.38085938,-11.5,-114.625,-40.84375,0.0,0.0,0.0,269
270,1695569447125,0.14355469,0.15332031,-0.0146484375,-40.25,-123.6875,-50.125,0.0,0.0,0.0,270
271,1695569447165,0.043945312,-0.04296875,-0.42773438,-38.90625,-138.125,-29.625,0.0,0.0,0.0,271
272,1695569447205,-2.0,0.49804688,0.4951172,-260.5625,-282.25,-69.96875,0.0,0.0,0.0,272
273,1695569447245,-2.0,0.43164062,0.9121094,-52.09375,-145.40625,-104.3125,0.0,0.0,0.0,273
274,1695569447285,-1.40625,-0.63671875,0.25683594,-113.46875,-68.8125,-30.03125,0.0,0.0,0.0,274
275,1695569447325,-1.3964844,-0.81152344,0.6347656,-109.4375,49.53125,-37.78125,0.0,0.0,0.0,275
276,1695569447365,-0.45898438,0.20507812,0.16210938,119.90625,-2.625,23.59375,0.0,0.0,0.0,276
277,1695569447405,0.13476562,-0.08984375,-0.7167969,179.5,149.21875,-33.71875,-38.125,11.5625,-54.6875,277
278,1695569447445,0.5830078,0.0,-0.001953125,-96.15625,164.40625,103.3125,0.0,0.0,0.0,278
279,1695569447485,0.51953125,0.18945312,1.3818359,-62.46875,-140.6875,64.0,0.0,0.0,0.0,279
280,1695569447525,0.26660156,0.020507812,-0.15722656,-43.65625,112.15625,10.375,0.0,0.0,0.0,280
281,1695569447565,-2.0,2.0,-1.1572266,-267.46875,-188.90625,-114.9375,0.0,0.0,0.0,281
282,1695569447605,-1.4853516,0.33203125,0.001953125,121.375,258.40625,23.25,0.0,0.0,0.0,282
283,1695569447645,-2.0,-0.32421875,0.24804688,62.84375,116.5,192.84375,0.0,0.0,0.0,283
284,1695569447685,-1.6962891,-1.2099609,0.4970703,20.1875,237.65625,161.375,0.0,0.0,0.0,284
285,1695569447725,-1.4384766,0.33007812,0.21289062,161.1875,45.28125,18.1875,0.0,0.0,0.0,285
286,1695569447765,-0.60546875,0.10449219,-0.0859375,65.28125,107.65625,9.5625,0.0,0.0,0.0,286
287,1695569447805,-0.015625,0.0009765625,-0.056640625,51.0,-1.3125,-5.375,0.0,0.0,0.0,287
288,1695569447845,0.24609375,-0.06542969,0.18457031,62.25,-99.4375,1.875,0.0,0.0,0.0,288
289,1695569447885,0.034179688,0.23925781,-0.053710938,79.09375,-172.375,-41.65625,0.0,0.0,0.0,289
290,1695569447925,-0.171875,0.15625,-0.34765625,38.9375,-207.0,-20.875,-34.375,21.0625,-69.625,290
291,1695569447965,-2.0,0.74609375,0.1484375,-211.25,-272.65625,-48.28125,0.0,0.0,0.0,291
292,1695569448005,-1.7744141,0.71777344,1.6074219,-387.84375,-13.8125,-114.28125,0.0,0.0,0.0,292
293,1695569448045,-1.65625,-0.56347656,0.37890625,-22.90625,-80.28125,9.5625,0.0,0.0,0.0,293
294,1695569448085,-1.5947266,-0.9003906,0.43359375,12.5,39.78125,-7.9375,0.0,0.0,0.0,294
295,1695569448125,-0.41210938,0.12207031,0.2841797,16.40625,43.9375,-9.34375,0.0,0.0,0.0,295
296,1695569448165,0.36816406,-0.18554688,-0.6875,210.4375,151.53125,-50.5625,0.0,0.0,0.0,296
297,1695569448205,0.9433594,0.3173828,-0.14550781,-28.875,345.25,13.28125,0.0,0.0,0.0,297
298,1695569448245,0.23730469,0.47265625,0.9794922,-33.65625,-367.03125,35.03125,0.0,0.0,0.0,298
299,1695569448285,0.18652344,-0.0048828125,-0.27539062,-110.375,175.59375,-18.3125,0.0,0.0,0.0,299
300,1695569448325,-2.0,1.8369141,-0.97265625,-192.46875,-343.53125,-120.1875,0.0,0.0,0.0,300
301,1695569448365,-2.0,0.21972656,-0.095703125,178.28125,320.53125,74.3125,0.0,0.0,0.0,301
302,1695569448405,-2.0,-0.89941406,0.37695312,106.625,110.9375,139.4375,-25.0625,17.125,-55.875,302
303,1695569448445,-1.4775391,-1.1054688,0.6953125,-3.625,209.53125,80.4375,0.0,0.0,0.0,303
304,1695569448485,-1.6103516,0.45214844,0.16992188,198.90625,42.40625,13.71875,0.0,0.0,0.0,304
305,1695569448525,-0.7705078,0.37695312,-0.115234375,131.6875,18.53125,48.25,0.0,0.0,0.0,305
306,1695569448565,0.5488281,0.2578125,-0.18261719,-26.3125,-0.6875,-6.90625,0.0,0.0,0.0,306
307,1695569448605,0.6015625,0.0859375,0.20605469,-9.15625,-148.625,-16.8125,0.0,0.0,0.0,307
308,1695569448645,0.22070312,0.26171875,-0.23339844,2.59375,-198.625,-29.96875,0.0,0.0,0.0,308
309,1695569448685,-0.1640625,0.15039062,-0.2529297,14.9375,-149.0,-25.03125,0.0,0.0,0.0,309
310,1695569448725,-2.0,0.7792969,0.9238281,-603.84375,-363.40625,-152.90625,0.0,0.0,0.0,310
311,1695569448765,-1.1669922,-0.30859375,0.8935547,-17.28125,-179.40625,-72.65625,0.0,0.0,0.0,311
312,1695569448805,-1.4375,-0.6640625,0.40722656,169.46875,-15.40625,-57.875,0.0,0.0,0.0,312
313,1695569448845,-1.1982422,-0.02734375,0.18945312,62.25,-1.78125,-18.21875,0.0,0.0,0.0,313
314,1695569448885,-0.10058594,0.16699219,-0.17578125,88.0,83.78125,-58.59375,0.0,0.0,0.0,314
315,1695569448925,0.6796875,-0.13964844,-0.5185547,218.375,241.375,46.4375,-15.3125,19.5625,-45.9375,315
316,1695569448965,0.75,0.14746094,-0.07324219,-107.4375,276.46875,68.15625,0.0,0.0,0.0,316
317,1695569449005,-0.42578125,0.16015625,0.9863281,-146.9375,-504.59375,54.0625,0.0,0.0,0.0,317
318,1695569449045,-0.76464844,0.62597656,-0.4658203,147.25,124.875,-133.6875,0.0,0.0,0.0,318
319,1695569449085,-2.0,0.84765625,0.2705078,-306.90625,-200.875,231.90625,0.0,0.0,0.0,319
320,1695569449125,-2.0,-0.453125,0.41015625,191.4375,217.8125,162.875,0.0,0.0,0.0,320
321,1695569449165,-1.5478516,-0.9169922,1.0439453,41.3125,198.78125,71.625,0.0,0.0,0.0,321
322,1695569449205,-1.6914062,0.26171875,0.37597656,215.5,109.71875,4.0625,0.0,0.0,0.0,322
323,1695569449245,-0.8017578,0.4248047,-0.06933594,270.84375,35.3125,49.78125,0.0,0.0,0.0,323
324,1695569449285,0.08300781,-0.009765625,-0.19433594,114.0625,14.875,40.28125,0.0,0.0,0.0,324
325,1695569449325,0.93066406,0.09082031,-0.0546875,-1.0625,-32.125,8.03125,0.0,0.0,0.0,325
326,1695569449365,0.013671875,0.44140625,0.09082031,4.75,-143.6875,-20.09375,0.0,0.0,0.0,326
327,1695569449405,0.03125,0.13769531,-0.5175781,-4.46875,-197.71875,16.65625,-10.5,42.8125,-67.6875,327
328,1695569449445,-1.9990234,0.2607422,0.25878906,-72.65625,-280.03125,-83.5,0.0,0.0,0.0,328
329,1695569449485,-2.0,0.27441406,1.6328125,-340.84375,-49.9375,-53.125,0.0,0.0,0.0,329
330,1695569449525,-1.1162109,0.11816406,0.7529297,26.65625,-69.0,-91.6875,0.0,0.0,0.0,330
331,1695569449565,-1.4296875,-0.33398438,-0.09082031,133.84375,3.09375,-25.71875,0.0,0.0,0.0,331
332,1695569449605,-0.36816406,-0.47753906,-0.11230469,155.9375,23.3125,-44.8125,0.0,0.0,0.0,332
333,1695569449645,0.037109375,-0.030273438,-0.43652344,206.65625,137.8125,-36.9375,0.0,0.0,0.0,333
334,1695569449685,0.3642578,0.15527344,-0.2626953,70.96875,174.71875,10.1875,0.0,0.0,0.0,334
335,1695569449725,-0.020507812,0.44140625,0.65527344,-126.34375,-329.71875,101.78125,0.0,0.0,0.0,335
336,1695569449765,-0.015625,-0.17871094,0.047851562,49.65625,87.25,-69.34375,0.0,0.0,0.0,336
337,1695569449805,-2.0,1.3505859,0.72265625,-2.28125,-288.03125,-138.0625,0.0,0.0,0.0,337
338,1695569449845,-1.4033203,-0.21972656,-0.28808594,182.46875,-140.6875,-4.53125,0.0,0.0,0.0,338
339,1695569449885,-2.0,-0.19238281,0.42578125,140.0625,92.8125,28.71875,0.0,0.0,0.0,339
340,1695569449925,-1.7070312,-0.8154297,0.73339844,12.375,139.6875,49.25,-27.0,33.9375,-68.75,340
341,1695569449965,-1.9326172,0.31054688,0.57714844,269.03125,110.28125,-11.4375,0.0,0.0,0.0,341
342,1695569450005,-1.0498047,0.033203125,0.20605469,255.0,81.03125,41.1875,0.0,0.0,0.0,342
343,1695569450045,0.07714844,-0.24121094,0.13183594,173.5625,43.6875,35.375,0.0,0.0,0.0,343
344,1695569450085,0.40429688,-0.087890625,-0.66308594,172.90625,18.125,-13.5,0.0,0.0,0.0,344
345,1695569450125,-0.060546875,0.73339844,0.33007812,81.46875,-108.09375,1.4375,0.0,0.0,0.0,345
346,1695569450165,0.13867188,0.25976562,-0.5019531,56.375,-190.1875,26.09375,0.0,0.0,0.0,346
347,1695569450205,-1.1181641,0.040039062,-0.18847656,-55.4375,-260.5,-7.53125,0.0,0.0,0.0,347
348,1695569450245,-2.0,0.103515625,0.9667969,-147.21875,-95.84375,-128.25,0.0,0.0,0.0,348
349,1695569450285,-0.74121094,0.017578125,0.9472656,35.25,-145.03125,-104.3125,0.0,0.0,0.0,349
350,1695569450325,-1.7929688,-0.3486328,-0.017578125,159.71875,-59.71875,-117.03125,0.0,0.0,0.0,350
351,1695569450365,-1.7441406,0.52246094,0.053710938,160.15625,15.3125,-8.5,0.0,0.0,0.0,351
352,1695569450405,-0.2890625,0.12109375,-0.017578125,95.375,42.96875,-115.875,-27.125,15.3125,-54.5,352
353,1695569450445,0.099609375,-0.0234375,-0.087890625,176.9375,81.59375,-52.9375,0.0,0.0,0.0,353
354,1695569450485,0.2890625,-0.08105469,0.0234375,196.28125,161.90625,34.09375,0.0,0.0,0.0,354
355,1695569450525,0.34472656,0.0546875,0.71484375,65.09375,-168.53125,55.21875,0.0,0.0,0.0,355
356,1695569450565,-0.4248047,0.016601562,0.18457031,61.03125,-41.40625,-103.71875,0.0,0.0,0.0,356
357,1695569450605,-2.0,1.6503906,0.5371094,-12.40625,-154.625,-102.96875,0.0,0.0,0.0,357
358,1695569450645,-0.41015625,-0.07910156,-0.67578125,96.71875,10.375,-69.28125,0.0,0.0,0.0,358
359,1695569450685,-2.0,-0.60839844,0.3671875,55.40625,152.15625,21.59375,0.0,0.0,0.0,359
360,1695569450725,-1.7226562,-0.47851562,0.2939453,130.59375,96.0625,0.46875,0.0,0.0,0.0,360
361,1695569450765,-1.5859375,0.49804688,0.33984375,257.1875,112.78125,-30.84375,0.0,0.0,0.0,361
362,1695569450805,-1.0751953,-0.045898438,0.08691406,199.5,61.6875,14.28125,0.0,0.0,0.0,362
363,1695569450845,0.033203125,0.14746094,0.52441406,33.8125,87.4375,-1.71875,0.0,0.0,0.0,363
364,1695569450885,-0.040039062,0.020507812,-0.22460938,50.53125,-67.875,-14.90625,0.0,0.0,0.0,364
365,1695569450925,0.015625,-0.44140625,0.30273438,12.3125,-61.96875,-26.3125,-29.375,16.8125,-61.5625,365
366,1695569450965,-0.021484375,0.107421875,-0.4375,99.09375,-104.5625,-18.3125,0.0,0.0,0.0,366
367,1695569451005,-0.6220703,0.15429688,-0.23046875,127.65625,-182.75,-21.1875,0.0,0.0,0.0,367
368,1695569451045,-2.0,0.6269531,0.96484375,-51.53125,-165.0,-86.5,0.0,0.0,0.0,368
369,1695569451085,-1.4433594,0.022460938,0.7714844,-6.96875,-133.5,-133.375,0.0,0.0,0.0,369
370,1695569451125,-1.6894531,0.0234375,0.21191406,24.9375,-23.15625,-40.375,0.0,0.0,0.0,370
371,1695569451165,-1.9013672,0.21582031,0.46191406,25.875,-12.96875,-15.59375,0.0,0.0,0.0,371
372,1695569451205,-0.7050781,0.21191406,0.47265625,44.96875,61.625,-62.6875,0.0,0.0,0.0,372
373,1695569451245,-0.27441406,0.00390625,-0.11328125,110.53125,84.46875,-26.25,0.0,0.0,0.0,373
374,1695569451285,0.20507812,-0.009765625,-0.18164062,121.1875,142.0,-18.15625,0.0,0.0,0.0,374
375,1695569451325,0.54003906,0.040039062,0.0703125,11.28125,103.3125,95.0625,0.0,0.0,0.0,375
376,1695569451365,-0.01953125,0.5175781,0.6357422,-50.75,-139.65625,10.59375,0.0,0.0,0.0,376
377,1695569451405,-0.7792969,0.3701172,-0.4892578,-52.25,119.125,-96.09375,-25.1875,16.5625,-48.8125,377
378,1695569451445,-2.0,0.88671875,0.13085938,-129.15625,28.96875,140.78125,0.0,0.0,0.0,378
379,1695569451485,-1.6865234,-0.44726562,1.1835938,228.25,-32.0,116.0,0.0,0.0,0.0,379
380,1695569451525,-1.671875,-0.83984375,0.5625,105.28125,158.0,56.3125,0.0,0.0,0.0,380
381,1695569451565,-1.5439453,0.029296875,0.4716797,140.90625,160.25,-2.9375,0.0,0.0,0.0,381
382,1695569451605,-1.0537109,0.08691406,-0.061523438,252.375,50.21875,29.9375,0.0,0.0,0.0,382
383,1695569451645,-0.10644531,0.484375,0.3701172,27.5,28.125,8.71875,0.0,0.0,0.0,383
384,1695569451685,0.27148438,0.21679688,-0.18164062,2.1875,-77.21875,-31.3125,0.0,0.0,0.0,384
385,1695569451725,0.1796875,-0.25195312,0.17871094,15.90625,-146.25,-46.59375,0.0,0.0,0.0,385
386,1695569451765,-0.0048828125,0.107421875,-0.2783203,62.78125,-188.0625,-15.40625,0.0,0.0,0.0,386
387,1695569451805,-1.2460938,0.18652344,-0.1328125,30.0,-257.34375,-6.125,0.0,0.0,0.0,387
388,1695569451845,-2.0,1.1972656,1.6875,-529.4375,33.5625,-79.0,0.0,0.0,0.0,388
389,1695569451885,-1.046875,-0.31933594,0.5097656,-18.8125,-162.25,-37.75,0.0,0.0,0.0,389
390,1695569451925,-1.7626953,-0.3408203,0.4638672,-7.03125,24.28125,3.21875,-18.75,13.6875,-43.6875,390
391,1695569451965,-0.8613281,-0.55566406,0.7109375,-39.625,59.4375,-26.25,0.0,0.0,0.0,391
392,1695569452005,-0.34179688,0.048828125,-0.040039062,210.9375,32.09375,-16.6875,0.0,0.0,0.0,392
393,1695569452045,0.328125,-0.20800781,-0.4609375,184.1875,228.0,-59.53125,0.0,0.0,0.0,393
394,1695569452085,0.5263672,0.015625,-0.09863281,98.5625,320.0625,32.625,0.0,0.0,0.0,394
395,1695569452125,-0.0703125,0.37597656,0.44140625,-282.78125,-155.03125,47.84375,0.0,0.0,0.0,395
396,1695569452165,-0.025390625,0.22363281,0.76171875,-181.21875,-260.5,-18.5625,0.0,0.0,0.0,396
397,1695569452205,-2.0,2.0,0.68847656,-99.4375,-77.65625,-103.34375,0.0,0.0,0.0,397
398,1695569452245,-1.6542969,-0.19335938,-0.4189453,-6.1875,91.40625,8.59375,0.0,0.0,0.0,398
399,1695569452285,-2.0,-1.0224609,0.4482422,68.65625,296.3125,132.8125,0.0,0.0,0.0,399
400,1695569452325,-1.7216797,-0.8017578,0.37597656,184.375,139.75,40.03125,0.0,0.0,0.0,400
401,1695569452365,-1.3935547,0.48632812,0.01953125,239.4375,72.5,-13.03125,0.0,0.0,0.0,401
402,1695569452405,-0.091796875,0.40039062,0.16894531,112.34375,39.78125,23.78125,-25.625,25.5625,-73.375,402
403,1695569452445,0.27246094,0.10644531,-0.09863281,-51.15625,-44.875,-4.15625,0.0,0.0,0.0,403
404,1695569452485,-0.0009765625,-0.17480469,0.4736328,-62.09375,-95.0625,-61.21875,0.0,0.0,0.0,404
405,1695569452525,-0.04296875,0.2529297,-0.33984375,-6.59375,-219.5,-30.53125,0.0,0.0,0.0,405
406,1695569452565,-2.0,0.5361328,-0.15039062,-88.15625,-337.1875,-75.6875,0.0,0.0,0.0,406
407,1695569452605,-2.0,0.71191406,1.0283203,-251.3125,-210.90625,-142.84375,0.0,0.0,0.0,407
408,1695569452645,-1.2685547,-0.19628906,0.29101562,-75.53125,-98.84375,10.71875,0.0,0.0,0.0,408
409,1695569452685,-1.2089844,-0.5439453,0.19628906,-116.03125,76.8125,-20.71875,0.0,0.0,0.0,409
410,1695569452725,-0.13671875,0.05859375,0.3203125,75.71875,59.375,-11.90625,0.0,0.0,0.0,410
411,1695569452765,0.17578125,-0.234375,-0.34472656,198.28125,40.5,19.6875,0.0,0.0,0.0,411
412,1695569452805,0.58203125,-0.16894531,-0.44726562,149.34375,407.8125,-5.8125,0.0,0.0,0.0,412
413,1695569452845,-0.059570312,0.30273438,0.47070312,-241.15625,100.25,18.90625,0.0,0.0,0.0,413
414,1695569452885,-0.53125,-0.15917969,1.2744141,-509.84375,-329.53125,-92.71875,0.0,0.0,0.0,414
415,1695569452925,-2.0,2.0,-1.6601562,90.125,102.40625,-103.03125,-29.25,21.3125,-53.4375,415
416,1695569452965,-2.0,0.4453125,0.1015625,60.34375,331.71875,166.3125,0.0,0.0,0.0,416
417,1695569453005,-2.0,-0.20117188,0.5410156,130.71875,114.59375,127.65625,0.0,0.0,0.0,417
418,1695569453045,-1.8115234,-1.0849609,0.6894531,4.3125,210.8125,112.84375,0.0,0.0,0.0,418
419,1695569453085,-1.5546875,0.60253906,0.35253906,207.6875,84.875,-22.53125,0.0,0.0,0.0,419
420,1695569453125,-0.91503906,0.20898438,0.38671875,170.53125,51.625,30.625,0.0,0.0,0.0,420
421,1695569453165,0.24023438,0.091796875,-0.0078125,36.46875,28.1875,28.71875,0.0,0.0,0.0,421
422,1695569453205,0.6142578,-0.17480469,0.1796875,-10.625,-103.15625,-21.3125,0.0,0.0,0.0,422
423,1695569453245,-0.053710938,0.15234375,-0.013671875,15.25,-151.0625,-39.875,0.0,0.0,0.0,423
424,1695569453285,-0.140625,0.18652344,-0.21679688,-17.09375,-230.25,-25.28125,0.0,0.0,0.0,424
425,1695569453325,-2.0,1.0771484,-0.19824219,-185.375,-360.1875,-39.8125,0.0,0.0,0.0,425
426,1695569453365,-1.3779297,0.4375,0.9736328,-88.75,-184.03125,-87.0,0.0,0.0,0.0,426
427,1695569453405,-1.3359375,-0.3720703,0.41796875,-120.3125,-69.03125,-39.4375,-30.3125,23.4375,-43.125,427
428,1695569453445,-1.5019531,-0.7421875,0.49804688,-111.40625,119.6875,-23.34375,0.0,0.0,0.0,428
429,1695569453485,-0.2421875,0.049804688,0.21484375,185.46875,-28.75,-28.40625,0.0,0.0,0.0,429
430,1695569453525,0.15917969,-0.2841797,-0.8828125,275.75,101.5,-39.4375,0.0,0.0,0.0,430
431,1695569453565,0.77441406,-0.10449219,-0.3408203,7.5,359.84375,-48.90625,0.0,0.0,0.0,431
432,1695569453605,0.095703125,0.5800781,0.9433594,-373.5,-201.8125,53.5,0.0,0.0,0.0,432
433,1695569453645,-0.21972656,0.4970703,0.5185547,-25.96875,15.375,-4.53125,0.0,0.0,0.0,433
434,1695569453685,-2.0,1.5517578,-0.16894531,-328.5,-364.34375,-31.25,0.0,0.0,0.0,434
435,1695569453725,-2.0,-0.22949219,-0.2705078,123.03125,58.09375,123.6875,0.0,0.0,0.0,435
436,1695569453765,-2.0,-1.0957031,0.7050781,21.21875,249.125,81.53125,0.0,0.0,0.0,436
437,1695569453805,-1.5273438,-0.11621094,0.64160156,287.9375,118.625,59.6875,0.0,0.0,0.0,437
438,1695569453845,-1.6992188,-0.06542969,0.07910156,183.15625,111.3125,20.5625,0.0,0.0,0.0,438
439,1695569453885,-0.4013672,0.2421875,0.23144531,200.0625,75.5,8.84375,0.0,0.0,0.0,439
440,1695569453925,0.36523438,0.4609375,-0.3935547,99.34375,-46.28125,-3.96875,-37.375,30.0625,-70.875,440
441,1695569453965,0.2939453,0.20800781,0.45410156,-82.59375,-119.53125,-37.75,0.0,0.0,0.0,441
442,1695569454005,0.001953125,0.0029296875,-0.036132812,1.5,-157.65625,-38.90625,0.0,0.0,0.0,442
443,1695569454045,-0.02734375,0.001953125,-0.23632812,-15.6875,-201.75,-17.15625,0.0,0.0,0.0,443
444,1695569454085,-2.0,1.0400391,1.1455078,-119.9375,-355.0,-45.0625,0.0,0.0,0.0,444
445,1695569454125,-1.6962891,0.4189453,1.1376953,-132.03125,-120.6875,-133.9375,0.0,0.0,0.0,445
446,1695569454165,-1.2646484,-0.20996094,0.3125,-61.46875,-49.8125,13.15625,0.0,0.0,0.0,446
447,1695569454205,-1.6416016,-0.62109375,0.5722656,-143.625,142.875,3.71875,0.0,0.0,0.0,447
448,1695569454245,-0.5449219,-0.12988281,0.39453125,161.25,-48.40625,7.6875,0.0,0.0,0.0,448
449,1695569454285,0.091796875,-0.4951172,-0.64941406,299.46875,47.84375,-56.15625,0.0,0.0,0.0,449
450,1695569454325,0.5410156,-0.034179688,-0.4716797,115.59375,334.875,-10.28125,0.0,0.0,0.0,450
451,1695569454365,0.12207031,0.46875,0.41308594,-232.9375,93.75,-52.1875,0.0,0.0,0.0,451
452,1695569454405,0.48632812,0.14160156,0.08984375,-149.375,-130.4375,-9.34375,-32.6875,11.125,-44.625,452
453,1695569454445,-2.0,1.9150391,-0.80566406,-44.375,104.78125,-101.21875,0.0,0.0,0.0,453
454,1695569454485,-2.0,0.42773438,-0.13085938,21.40625,120.15625,199.375,0.0,0.0,0.0,454
455,1695569454525,-2.0,-0.8496094,0.1484375,100.4375,112.59375,215.0,0.0,0.0,0.0,455
456,1695569454565,-1.765625,-1.4960938,0.6591797,-99.5625,199.5,142.25,0.0,0.0,0.0,456
457,1695569454605,-1.8173828,0.33789062,0.28515625,285.1875,24.15625,-30.84375,0.0,0.0,0.0,457
458,1695569454645,-0.8339844,0.47460938,0.3564453,126.3125,92.8125,0.34375,0.0,0.0,0.0,458
459,1695569454685,0.091796875,0.47070312,-0.5136719,128.34375,-32.90625,17.375,0.0,0.0,0.0,459
460,1695569454725,0.5800781,0.0390625,0.43066406,-81.9375,-54.59375,-6.25,0.0,0.0,0.0,460
461,1695569454765,-0.048828125,0.171875,-0.09082031,-26.5625,-166.34375,-43.78125,0.0,0.0,0.0,461
462,1695569454805,-0.08496094,0.16308594,-0.25585938,18.34375,-253.5625,-27.0,0.0,0.0,0.0,462
463,1695569454845,-2.0,0.94433594,-0.33398438,-123.84375,-431.84375,-29.5625,0.0,0.0,0.0,463
464,1695569454885,-1.1904297,0.57421875,1.2001953,-457.09375,-112.1875,-157.71875,0.0,0.0,0.0,464
465,1695569454925,-1.4326172,-0.52441406,0.3955078,-47.8125,-68.25,79.09375,-16.5,7.5625,-34.875,465
466,1695569454965,-1.4941406,-0.93847656,0.5205078,-48.96875,68.59375,-62.46875,0.0,0.0,0.0,466
467,1695569455005,-0.33398438,0.001953125,0.3330078,92.4375,25.75,29.53125,0.0,0.0,0.0,467
468,1695569455045,0.17773438,-0.20800781,-0.55371094,287.40625,52.28125,-9.0625,0.0,0.0,0.0,468
469,1695569455085,0.625,-0.09765625,-0.38476562,57.25,367.59375,-68.1875,0.0,0.0,0.0,469
470,1695569455125,-0.0068359375,0.34960938,0.48046875,-307.375,-11.84375,76.875,0.0,0.0,0.0,470
471,1695569455165,0.11425781,0.01953125,0.19238281,-131.53125,-3.0625,3.34375,0.0,0.0,0.0,471
472,1695569455205,-2.0,2.0,-0.8105469,-147.125,-347.375,-116.84375,0.0,0.0,0.0,472
473,1695569455245,-1.4414062,0.17675781,-0.3720703,-65.03125,144.03125,3.53125,0.0,0.0,0.0,473
474,1695569455285,-2.0,-1.0585938,0.4111328,264.28125,112.53125,151.65625,0.0,0.0,0.0,474
475,1695569455325,-1.6103516,-0.93847656,0.55859375,202.4375,190.53125,68.65625,0.0,0.0,0.0,475
476,1695569455365,-1.5244141,0.36523438,0.09667969,233.5,114.71875,21.78125,0.0,0.0,0.0,476
477,1695569455405,-1.0361328,0.16015625,-0.015625,216.59375,36.125,11.03125,-27.0,27.5,-60.8125,477
478,1695569455445,0.5703125,0.4580078,0.064453125,-32.90625,2.59375,10.59375,0.0,0.0,0.0,478
479,1695569455485,-0.018554688,0.31640625,0.27246094,13.78125,-208.5625,-40.84375,0.0,0.0,0.0,479
480,1695569455525,0.12109375,0.087890625,-0.359375,-4.90625,-204.0625,-29.75,0.0,0.0,0.0,480
481,1695569455565,-0.46289062,0.23242188,-0.11816406,-32.65625,-240.4375,-30.53125,0.0,0.0,0.0,481
482,1695569455605,-2.0,1.5234375,1.6367188,-652.71875,-136.78125,7.0,0.0,0.0,0.0,482
483,1695569455645,-0.84765625,-0.15820312,0.44335938,-60.0,-242.15625,-63.1875,0.0,0.0,0.0,483
484,1695569455685,-1.5078125,-0.49902344,0.41601562,-24.78125,53.8125,-33.34375,0.0,0.0,0.0,484
485,1695569455725,-0.6308594,-0.28222656,0.6074219,-28.40625,32.15625,-4.84375,0.0,0.0,0.0,485
486,1695569455765,-0.13964844,0.028320312,-0.09082031,185.46875,11.9375,14.5,0.0,0.0,0.0,486
487,1695569455805,0.6064453,-0.32910156,-0.6611328,234.25,209.34375,11.15625,0.0,0.0,0.0,487
488,1695569455845,0.49804688,-0.013671875,-0.14746094,-20.71875,266.84375,-53.125,0.0,0.0,0.0,488
489,1695569455885,-0.20214844,0.34375,0.4345703,-324.84375,-144.53125,-58.3125,0.0,0.0,0.0,489
490,1695569455925,-0.80078125,1.2617188,-0.28808594,90.875,-38.90625,-12.46875,-25.375,15.625,-45.9375,490
491,1695569455965,-2.0,0.9091797,-0.12597656,-162.5625,44.34375,260.71875,0.0,0.0,0.0,491
492,1695569456005,-2.0,-0.5390625,0.091796875,97.28125,17.4375,252.5,0.0,0.0,0.0,492
493,1695569456045,-2.0,-1.5634766,0.91503906,-121.96875,254.375,123.875,0.0,0.0,0.0,493
494,1695569456085,-1.7226562,0.24707031,0.40820312,257.4375,36.84375,4.5625,0.0,0.0,0.0,494
495,1695569456125,-0.8125,0.08105469,0.15039062,210.625,97.53125,32.40625,0.0,0.0,0.0,495
496,1695569456165,0.34765625,0.3095703,-0.1796875,69.5,36.71875,21.09375,0.0,0.0,0.0,496
497,1695569456205,0.1875,0.10546875,0.32910156,12.3125,-101.28125,-23.6875,0.0,0.0,0.0,497
498,1695569456245,0.020507812,0.20898438,-0.078125,-25.15625,-148.625,-36.15625,0.0,0.0,0.0,498
499,1695569456285,0.005859375,0.09082031,-0.28125,25.0,-211.1875,-10.6875,0.0,0.0,0.0,499
500,1695569456325,-2.0,0.19433594,-0.37695312,-17.40625,-326.6875,-43.96875,0.0,0.0,0.0,500
501,1695569456365,-2.0,0.8095703,1.5634766,-484.5625,29.65625,-73.4375,0.0,0.0,0.0,501
502,1695569456405,-1.3378906,-0.2734375,0.31152344,-14.34375,-111.03125,-40.59375,-22.1875,18.8125,-33.1875,502
503,1695569456445,-1.4130859,-0.63671875,0.45996094,-103.46875,74.15625,-16.9375,0.0,0.0,0.0,503
504,1695569456485,-0.31933594,-0.08300781,0.56152344,117.90625,0.0,17.5625,0.0,0.0,0.0,504
505,1695569456525,0.09277344,-0.43945312,-0.6611328,299.1875,46.875,-50.96875,0.0,0.0,0.0,505
506,1695569456565,0.5498047,-0.09667969,-0.6113281,39.90625,359.0,-46.71875,0.0,0.0,0.0,506
507,1695569456605,0.15039062,0.5097656,0.54296875,-253.625,-20.09375,3.21875,0.0,0.0,0.0,507
508,1695569456645,0.6464844,0.29492188,-0.14257812,-120.6875,-90.78125,-21.1875,0.0,0.0,0.0,508
509,1695569456685,-2.0,1.9111328,-0.08984375,-206.375,-66.375,-214.0625,0.0,0.0,0.0,509
510,1695569456725,-1.7578125,0.018554688,-0.4482422,63.65625,8.59375,37.46875,0.0,0.0,0.0,510
511,1695569456765,-2.0,-1.1464844,0.7246094,120.46875,205.3125,211.78125,0.0,0.0,0.0,511
512,1695569456805,-1.5488281,-1.0517578,1.1220703,184.25,210.25,106.3125,0.0,0.0,0.0,512
513,1695569456845,-1.6201172,-0.26953125,-0.20410156,235.40625,103.75,-12.90625,0.0,0.0,0.0,513
514,1695569456885,-0.45703125,0.32421875,-0.1796875,166.125,62.375,-11.71875,0.0,0.0,0.0,514
515,1695569456925,0.9345703,0.71777344,-0.107421875,-16.3125,-6.0625,0.0,-33.75,26.875,-58.125,515
516,1695569456965,-0.20117188,0.28515625,0.29785156,-33.15625,-143.03125,-45.375,0.0,0.0,0.0,516
517,1695569457005,0.2861328,0.12988281,-0.38183594,-46.46875,-154.4375,-36.75,0.0,0.0,0.0,517
518,1695569457045,-0.7001953,0.20800781,-0.28320312,-39.5625,-264.78125,-60.0625,0.0,0.0,0.0,518
519,1695569457085,-2.0,1.9863281,1.9541016,-502.03125,-32.84375,71.46875,0.0,0.0,0.0,519
520,1695569457125,-0.49804688,0.20703125,0.45507812,-80.65625,-228.90625,-70.28125,0.0,0.0,0.0,520
521,1695569457165,-1.5371094,-0.5878906,0.41992188,-92.0625,-1.78125,77.6875,0.0,0.0,0.0,521
522,1695569457205,-0.9189453,-0.4189453,0.67285156,-92.78125,63.15625,-5.9375,0.0,0.0,0.0,522
523,1695569457245,-0.21777344,-0.080078125,-0.12207031,136.53125,-41.40625,35.375,0.0,0.0,0.0,523
524,1695569457285,0.5263672,-0.3955078,-0.78222656,187.5,333.3125,-31.03125,0.0,0.0,0.0,524
525,1695569457325,0.4716797,-0.19433594,-0.068359375,2.0625,295.875,-36.8125,0.0,0.0,0.0,525
526,1695569457365,-0.103515625,0.0546875,0.29296875,-240.90625,-104.1875,-32.59375,0.0,0.0,0.0,526
527,1695569457405,-1.3359375,1.4882812,-0.36328125,184.875,-69.59375,-9.21875,-25.5,3.3125,-43.25,527
528,1695569457445,-1.4189453,0.3984375,-0.4560547,-297.8125,72.5625,108.8125,0.0,0.0,0.0,528
529,1695569457485,-2.0,-0.59277344,0.29785156,240.09375,127.65625,233.6875,0.0,0.0,0.0,529
530,1695569457525,-1.6298828,-1.2734375,0.7763672,-59.21875,156.1875,109.125,0.0,0.0,0.0,530
531,1695569457565,-1.5703125,0.16015625,0.390625,208.34375,93.5,25.375,0.0,0.0,0.0,531
532,1695569457605,-0.84765625,0.2763672,0.4638672,166.125,122.0625,36.25,0.0,0.0,0.0,532
533,1695569457645,0.15625,0.052734375,-0.4609375,190.21875,-7.9375,49.125,0.0,0.0,0.0,533
534,1695569457685,0.5917969,-0.21875,0.34765625,-73.0,-74.96875,-6.65625,0.0,0.0,0.0,534
535,1695569457725,0.07421875,0.4033203,-0.056640625,3.84375,-204.53125,-4.59375,0.0,0.0,0.0,535
536,1695569457765,-0.16503906,0.15136719,-0.23535156,-1.0625,-264.125,-22.34375,0.0,0.0,0.0,536
537,1695569457805,-2.0,1.1660156,0.9033203,-65.125,-370.6875,-50.5625,0.0,0.0,0.0,537
538,1695569457845,-1.1015625,0.42382812,1.1152344,-340.90625,-155.90625,-85.28125,0.0,0.0,0.0,538
539,1695569457885,-1.4824219,-0.6123047,0.40820312,-4.09375,-80.46875,23.1875,0.0,0.0,0.0,539
540,1695569457925,-1.5019531,-0.6201172,0.34765625,-60.5,79.40625,-38.34375,-16.5,8.5625,-34.5625,540
541,1695569457965,-0.07910156,-0.0107421875,0.2607422,129.625,-13.3125,14.8125,0.0,0.0,0.0,541
542,1695569458005,0.29589844,-0.34277344,-0.42773438,291.90625,97.21875,-10.5,0.0,0.0,0.0,542
543,1695569458045,0.5361328,0.009765625,-0.33984375,81.96875,383.28125,-39.4375,0.0,0.0,0.0,543
544,1695569458085,-0.2265625,0.44726562,0.43554688,-178.1875,30.9375,-44.8125,0.0,0.0,0.0,544
545,1695569458125,-0.5986328,0.28222656,1.1201172,-193.375,-318.5625,-30.28125,0.0,0.0,0.0,545
546,1695569458165,-2.0,1.7568359,0.80078125,-180.6875,-105.71875,-31.5625,0.0,0.0,0.0,546
547,1695569458205,-1.4150391,-0.48339844,0.08496094,4.4375,39.84375,59.875,0.0,0.0,0.0,547
548,1695569458245,-2.0,-1.1152344,0.3544922,192.625,178.09375,104.21875,0.0,0.0,0.0,548
549,1695569458285,-1.7333984,-0.9501953,0.7636719,90.4375,208.125,74.15625,0.0,0.0,0.0,549
550,1695569458325,-1.5742188,0.27246094,0.3388672,299.84375,116.5,25.625,0.0,0.0,0.0,550
551,1695569458365,-0.75,0.13574219,0.06933594,233.75,52.84375,21.53125,0.0,0.0,0.0,551
552,1695569458405,0.70410156,0.3408203,-0.2685547,-5.625,50.15625,6.09375,-27.75,25.8125,-58.4375,552
553,1695569458445,-0.21386719,0.21386719,0.42089844,20.75,-157.3125,-44.9375,0.0,0.0,0.0,553
554,1695569458485,0.11328125,0.13476562,-0.140625,-10.5,-157.4375,-38.71875,0.0,0.0,0.0,554
555,1695569458525,-0.20214844,0.087890625,-0.24414062,12.9375,-227.0,-30.03125,0.0,0.0,0.0,555
556,1695569458565,-2.0,1.2392578,1.5771484,-231.15625,-341.9375,42.15625,0.0,0.0,0.0,556
557,1695569458605,-0.73535156,0.3232422,0.80371094,-128.90625,-244.03125,-67.40625,0.0,0.0,0.0,557
558,1695569458645,-1.4570312,-0.26757812,0.359375,-54.9375,-4.09375,15.71875,0.0,0.0,0.0,558
559,1695569458685,-1.2421875,-0.7324219,0.37109375,-39.6875,102.65625,-79.0,0.0,0.0,0.0,559
560,1695569458725,0.013671875,-0.068359375,0.0859375,142.8125,8.71875,-2.59375,0.0,0.0,0.0,560
561,1695569458765,0.36035156,-0.25585938,-0.6328125,336.03125,118.21875,-13.1875,0.0,0.0,0.0,561
562,1695569458805,0.5419922,0.080078125,-0.30273438,22.1875,388.53125,-15.28125,0.0,0.0,0.0,562
563,1695569458845,-0.9921875,0.76953125,0.95214844,-249.15625,-25.34375,-71.84375,0.0,0.0,0.0,563
564,1695569458885,-0.25195312,0.6748047,0.20605469,-86.125,-157.5,6.6875,0.0,0.0,0.0,564
565,1695569458925,-2.0,1.0771484,0.111328125,-63.6875,-77.90625,217.15625,-19.8125,10.5625,-42.1875,565
566,1695569458965,-1.7578125,-0.6845703,0.3388672,131.03125,100.625,155.3125,0.0,0.0,0.0,566
567,1695569459005,-2.0,-1.1533203,1.0556641,4.6875,321.53125,129.0625,0.0,0.0,0.0,567
568,1695569459045,-1.5908203,-0.123046875,0.40527344,257.96875,129.5625,26.71875,0.0,0.0,0.0,568
569,1695569459085,-1.3486328,0.38964844,0.3017578,261.09375,88.4375,31.125,0.0,0.0,0.0,569
570,1695569459125,-0.05078125,0.10449219,-0.16894531,135.375,104.28125,57.40625,0.0,0.0,0.0,570
571,1695569459165,0.40527344,0.19824219,-0.052734375,-25.96875,-48.1875,0.03125,0.0,0.0,0.0,571
572,1695569459205,-0.0390625,0.013671875,0.13671875,-29.125,-143.3125,-38.40625,0.0,0.0,0.0,572
573,1695569459245,0.041015625,0.12988281,-0.43652344,-11.84375,-193.875,-18.625,0.0,0.0,0.0,573
574,1695569459285,-1.5185547,0.14941406,-0.23632812,-17.53125,-287.375,-42.9375,0.0,0.0,0.0,574
575,1695569459325,-2.0,0.91503906,1.5566406,-467.3125,-102.125,-51.03125,0.0,0.0,0.0,575
576,1695569459365,-1.0849609,-0.12792969,0.6035156,-51.09375,-131.65625,-84.71875,0.0,0.0,0.0,576
577,1695569459405,-1.6835938,-0.57128906,0.17382812,27.03125,107.40625,-22.46875,-14.25,13.8125,-37.25,577
578,1695569459445,-0.2939453,-0.4091797,0.44433594,31.78125,95.0625,-96.09375,0.0,0.0,0.0,578
579,1695569459485,0.22363281,-0.19335938,-0.36816406,276.28125,49.0,13.84375,0.0,0.0,0.0,579
580,1695569459525,0.8300781,0.12207031,-0.6279297,201.65625,357.03125,57.1875,0.0,0.0,0.0,580
581,1695569459565,0.1015625,0.6777344,0.5761719,-268.03125,64.4375,-68.4375,0.0,0.0,0.0,581
582,1695569459605,0.46875,0.31054688,0.19042969,-164.8125,-202.46875,-19.1875,0.0,0.0,0.0,582
583,1695569459645,-2.0,1.8583984,-1.1777344,-135.9375,14.75,-187.6875,0.0,0.0,0.0,583
584,1695569459685,-1.921875,0.31445312,-0.10253906,119.0,215.9375,194.5625,0.0,0.0,0.0,584
585,1695569459725,-2.0,-1.4013672,0.3515625,51.75,50.59375,143.28125,0.0,0.0,0.0,585
586,1695569459765,-1.5810547,-1.4433594,1.0019531,23.3125,190.71875,91.34375,0.0,0.0,0.0,586
587,1695569459805,-1.6650391,0.4873047,-0.033203125,257.5625,133.03125,5.125,0.0,0.0,0.0,587
588,1695569459845,-1.0869141,0.18359375,0.072265625,228.8125,49.375,19.9375,0.0,0.0,0.0,588
589,1695569459885,0.57714844,0.28320312,-0.15039062,66.21875,19.53125,14.375,0.0,0.0,0.0,589
590,1695569459925,-0.11425781,0.41992188,0.3359375,-4.96875,-135.21875,-48.96875,-24.625,26.3125,-63.8125,590
591,1695569459965,0.06542969,0.17871094,-0.060546875,-2.28125,-172.6875,-26.4375,0.0,0.0,0.0,591
592,1695569460005,-0.12597656,0.051757812,-0.3095703,35.15625,-214.75,-4.40625,0.0,0.0,0.0,592
593,1695569460045,-2.0,1.0576172,0.7597656,-420.375,-341.5625,-25.90625,0.0,0.0,0.0,593
594,1695569460085,-1.0283203,0.47851562,0.8779297,-39.9375,-285.84375,-118.4375,0.0,0.0,0.0,594
595,1695569460125,-1.6103516,-0.3701172,0.2626953,-100.28125,6.15625,11.03125,0.0,0.0,0.0,595
596,1695569460165,-1.1796875,-0.85546875,0.50097656,-165.125,78.84375,-42.5625,0.0,0.0,0.0,596
597,1695569460205,-0.1875,-0.09863281,0.32226562,154.15625,-14.71875,25.0,0.0,0.0,0.0,597
598,1695569460245,0.12109375,-0.5595703,-0.6826172,337.9375,16.65625,9.03125,0.0,0.0,0.0,598
599,1695569460285,0.54589844,-0.06542969,-0.38183594,94.46875,307.65625,-30.84375,0.0,0.0,0.0,599
600,1695569460325,0.11035156,0.47851562,0.33789062,-337.34375,67.1875,-22.59375,0.0,0.0,0.0,600
601,1695569460365,-0.12207031,0.87597656,0.49414062,-60.9375,-339.0625,9.5,0.0,0.0,0.0,601
602,1695569460405,-2.0,1.2617188,-0.51464844,-309.84375,-15.15625,257.0,-19.0625,11.5625,-43.25,602
603,1695569460445,-2.0,-0.78515625,0.24121094,268.84375,40.625,209.625,0.0,0.0,0.0,603
604,1695569460485,-1.7978516,-1.9550781,1.1796875,-246.09375,306.625,117.59375,0.0,0.0,0.0,604
605,1695569460525,-1.7294922,0.13671875,0.053710938,341.21875,42.90625,25.25,0.0,0.0,0.0,605
606,1695569460565,-1.0546875,0.36328125,0.29296875,250.53125,107.03125,33.1875,0.0,0.0,0.0,606
607,1695569460605,0.10546875,0.29882812,-0.25,138.46875,25.4375,44.28125,0.0,0.0,0.0,607
608,1695569460645,0.73828125,0.1875,0.076171875,-31.75,-31.9375,-19.4375,0.0,0.0,0.0,608
609,1695569460685,-0.044921875,0.21875,-0.001953125,-31.5625,-118.78125,-42.125,0.0,0.0,0.0,609
610,1695569460725,0.18066406,0.056640625,-0.4580078,-34.625,-160.71875,-28.15625,0.0,0.0,0.0,610
611,1695569460765,-1.0712891,0.0703125,-0.33496094,23.4375,-226.8125,-44.625,0.0,0.0,0.0,611
612,1695569460805,-2.0,1.9765625,2.0,-726.53125,-39.9375,-76.5,0.0,0.0,0.0,612
613,1695569460845,-0.86621094,-0.28027344,0.43066406,-81.5625,-217.90625,-71.96875,0.0,0.0,0.0,613
614,1695569460885,-1.8632812,-0.70703125,0.40039062,8.71875,53.5625,-19.375,0.0,0.0,0.0,614
615,1695569460925,-0.44726562,-0.33691406,0.60546875,-14.46875,19.15625,0.40625,-15.3125,10.6875,-38.625,615
616,1695569460965,-0.021484375,-0.1796875,-0.38085938,283.25,-31.03125,-5.625,0.0,0.0,0.0,616
617,1695569461005,0.7441406,-0.21777344,-0.8457031,166.5625,437.96875,-38.71875,0.0,0.0,0.0,617
618,1695569461045,0.4658203,0.31347656,0.4482422,-222.125,144.5625,-7.40625,0.0,0.0,0.0,618
619,1695569461085,0.091796875,0.32421875,0.8564453,-85.46875,-160.65625,-15.8125,0.0,0.0,0.0,619
620,1695569461125,-0.43847656,1.0253906,-0.56933594,-49.03125,158.625,-55.25,0.0,0.0,0.0,620
621,1695569461165,-2.0,1.5224609,0.10644531,-134.59375,-78.25,411.53125,0.0,0.0,0.0,621
622,1695569461205,-2.0,-0.66796875,-0.025390625,74.625,30.0625,221.65625,0.0,0.0,0.0,622
623,1695569461245,-2.0,-1.7226562,0.6533203,-29.75,244.0,157.75,0.0,0.0,0.0,623
624,1695569461285,-1.6240234,-0.095703125,0.29882812,351.125,41.71875,18.28125,0.0,0.0,0.0,624
625,1695569461325,-1.3916016,0.2265625,0.099609375,291.375,84.8125,13.53125,0.0,0.0,0.0,625
626,1695569461365,-0.09082031,0.58984375,-0.3173828,155.125,66.4375,-16.96875,0.0,0.0,0.0,626
627,1695569461405,0.6748047,0.6123047,0.1015625,-62.5625,-15.75,-17.71875,-22.5,27.0625,-61.375,627
628,1695569461445,-0.15820312,0.072265625,0.2421875,-36.8125,-121.71875,-19.59375,0.0,0.0,0.0,628
629,1695569461485,0.19238281,0.087890625,-0.43554688,-1.0625,-183.5,-34.0625,0.0,0.0,0.0,629
630,1695569461525,-0.7890625,0.080078125,-0.33789062,58.9375,-229.9375,-26.8125,0.0,0.0,0.0,630
631,1695569461565,-2.0,1.3837891,1.4326172,-547.3125,-178.46875,-57.21875,0.0,0.0,0.0,631
632,1695569461605,-0.8066406,0.31152344,0.6191406,-155.15625,-178.0625,-91.6875,0.0,0.0,0.0,632
633,1695569461645,-1.5361328,-0.35058594,0.10839844,11.28125,15.3125,55.46875,0.0,0.0,0.0,633
634,1695569461685,-0.6933594,-1.09375,0.38964844,-36.15625,27.875,-52.3125,0.0,0.0,0.0,634
635,1695569461725,-0.0859375,-0.0703125,-0.06347656,131.6875,51.0625,0.40625,0.0,0.0,0.0,635
636,1695569461765,0.5576172,-0.13378906,-1.0332031,247.71875,229.59375,-10.03125,0.0,0.0,0.0,636
637,1695569461805,0.6972656,0.10546875,-0.1015625,-182.9375,390.71875,-69.28125,0.0,0.0,0.0,637
638,1695569461845,-0.10058594,0.2529297,1.5244141,-145.65625,-508.0625,68.65625,0.0,0.0,0.0,638
639,1695569461885,-0.17675781,0.4326172,-0.2421875,-48.96875,166.375,-26.875,0.0,0.0,0.0,639
640,1695569461925,-2.0,1.5673828,0.62402344,-144.0625,-257.46875,373.65625,-16.0625,9.1875,-45.9375,640
641,1695569461965,-2.0,-0.9941406,0.6513672,83.0625,25.4375,186.25,0.0,0.0,0.0,641
642,1695569462005,-1.28125,-1.4433594,0.6425781,-10.15625,179.90625,94.28125,0.0,0.0,0.0,642
643,1695569462045,-1.5664062,0.57421875,0.15917969,266.78125,63.8125,18.34375,0.0,0.0,0.0,643
644,1695569462085,-0.8769531,0.30273438,0.12011719,226.3125,94.53125,43.9375,0.0,0.0,0.0,644
645,1695569462125,0.2861328,0.27246094,-0.28808594,109.96875,4.0625,22.3125,0.0,0.0,0.0,645
646,1695569462165,0.64160156,0.39648438,0.3154297,-63.75,-72.53125,-32.375,0.0,0.0,0.0,646
647,1695569462205,0.06933594,0.17675781,-0.125,-53.375,-123.125,-36.15625,0.0,0.0,0.0,647
648,1695569462245,-0.09472656,0.034179688,-0.35839844,-3.6875,-215.71875,-36.34375,0.0,0.0,0.0,648
649,1695569462285,-2.0,0.54589844,0.13769531,-172.6875,-310.5625,-53.78125,0.0,0.0,0.0,649
650,1695569462325,-1.3330078,0.4716797,1.2919922,-342.0,-98.40625,-95.21875,0.0,0.0,0.0,650
651,1695569462365,-1.7314453,-0.46289062,0.45898438,-34.1875,-71.71875,38.4375,0.0,0.0,0.0,651
652,1695569462405,-1.3242188,-0.6279297,0.34179688,-18.3125,2.59375,-35.0625,-9.625,10.375,-38.625,652
653,1695569462445,-0.18261719,-0.09277344,0.25976562,74.03125,17.6875,11.9375,0.0,0.0,0.0,653
654,1695569462485,0.40527344,-0.25195312,-0.5800781,237.59375,126.6875,-25.78125,0.0,0.0,0.0,654
655,1695569462525,0.70996094,0.005859375,-0.5,-15.21875,408.90625,-24.25,0.0,0.0,0.0,655
656,1695569462565,-0.3671875,0.45898438,0.6611328,-108.28125,-14.96875,-0.8125,0.0,0.0,0.0,656
657,1695569462605,0.24511719,0.13085938,0.04296875,-118.90625,-273.6875,18.78125,0.0,0.0,0.0,657
658,1695569462645,-2.0,2.0,-1.1025391,-27.40625,100.5,-121.15625,0.0,0.0,0.0,658
659,1695569462685,-1.7119141,0.036132812,-0.2998047,-69.78125,56.0625,70.34375,0.0,0.0,0.0,659
660,1695569462725,-2.0,-1.390625,0.48242188,214.78125,202.1875,131.09375,0.0,0.0,0.0,660
661,1695569462765,-1.5917969,-0.7294922,0.60546875,105.75,151.59375,77.5,0.0,0.0,0.0,661
662,1695569462805,-1.5351562,0.296875,0.20898438,196.875,83.90625,24.46875,0.0,0.0,0.0,662
663,1695569462845,-0.4296875,0.3330078,-0.005859375,213.65625,40.5625,34.90625,0.0,0.0,0.0,663
664,1695569462885,0.5996094,0.041015625,-0.29296875,30.0625,4.4375,27.9375,0.0,0.0,0.0,664
665,1695569462925,0.022460938,0.29101562,0.34960938,-24.90625,-102.125,-22.84375,-18.625,27.0625,-51.375,665
666,1695569462965,0.057617188,0.33984375,-0.0859375,-10.03125,-160.71875,4.4375,0.0,0.0,0.0,666
667,1695569463005,-0.2109375,0.0,-0.35253906,-29.5,-211.8125,5.0625,0.0,0.0,0.0,667
668,1695569463045,-2.0,0.38476562,0.39257812,-136.84375,-270.84375,-89.125,0.0,0.0,0.0,668
669,1695569463085,-1.1425781,0.45898438,0.8984375,-315.9375,-116.90625,1.5,0.0,0.0,0.0,669
670,1695569463125,-1.5410156,-0.45507812,0.68847656,10.78125,-49.75,-50.5625,0.0,0.0,0.0,670
671,1695569463165,-1.1650391,-0.4423828,-0.00390625,110.28125,19.40625,8.34375,0.0,0.0,0.0,671
672,1695569463205,-0.0029296875,-0.5214844,-0.1953125,184.625,130.28125,-58.5,0.0,0.0,0.0,672
673,1695569463245,0.2939453,-0.0126953125,-0.28710938,229.21875,146.28125,10.59375,0.0,0.0,0.0,673
674,1695569463285,0.45117188,0.3173828,-0.09082031,83.96875,195.1875,3.65625,0.0,0.0,0.0,674
675,1695569463325,0.056640625,0.25390625,0.63378906,-246.0,-377.8125,16.53125,0.0,0.0,0.0,675
676,1695569463365,-0.5253906,0.44433594,0.56347656,210.96875,-131.125,13.71875,0.0,0.0,0.0,676
677,1695569463405,-2.0,0.6152344,0.20507812,-362.375,-160.71875,-200.46875,-3.625,21.3125,-31.125,677
678,1695569463445,-1.1044922,-0.91503906,0.88183594,344.53125,172.53125,-37.25,0.0,0.0,0.0,678
679,1695569463485,-1.7822266,-0.53515625,0.81640625,189.6875,131.40625,-11.71875,0.0,0.0,0.0,679
680,1695569463525,-1.9677734,-0.56152344,0.6347656,43.1875,184.0,2.90625,0.0,0.0,0.0,680
681,1695569463565,-1.1953125,0.16894531,0.30273438,416.4375,81.46875,1.6875,0.0,0.0,0.0,681
682,1695569463605,-0.15039062,-0.07519531,-0.5751953,201.40625,68.65625,24.40625,0.0,0.0,0.0,682
683,1695569463645,0.6982422,0.31640625,0.064453125,51.4375,-57.28125,60.59375,0.0,0.0,0.0,683
684,1695569463685,-0.15722656,-0.13867188,0.030273438,159.40625,-105.53125,-21.375,0.0,0.0,0.0,684
685,1695569463725,0.28710938,0.34375,-0.46289062,27.9375,-111.59375,20.0,0.0,0.0,0.0,685
686,1695569463765,-0.96875,0.16503906,-0.20214844,-22.78125,-271.1875,-57.3125,0.0,0.0,0.0,686
687,1695569463805,-2.0,0.21191406,1.3789062,-102.375,85.75,-29.8125,0.0,0.0,0.0,687
688,1695569463845,-0.3701172,0.022460938,1.0058594,28.0,-132.03125,-85.34375,0.0,0.0,0.0,688
689,1695569463885,-1.6806641,-0.40234375,0.36132812,126.6875,-45.3125,-89.0,0.0,0.0,0.0,689
690,1695569463925,-1.7158203,0.22265625,0.10058594,172.40625,19.5625,-52.75,2.375,43.5625,-41.9375,690
691,1695569463965,-0.3701172,0.061523438,-0.29589844,220.875,68.65625,-106.9375,0.0,0.0,0.0,691
692,1695569464005,0.16699219,0.041015625,-0.46875,89.03125,281.96875,-77.34375,0.0,0.0,0.0,692
693,1695569464045,0.54296875,0.18261719,-0.3154297,113.03125,182.125,18.34375,0.0,0.0,0.0,693
694,1695569464085,-0.94921875,0.47558594,1.3359375,291.5,-482.3125,148.375,0.0,0.0,0.0,694
695,1695569464125,0.44921875,-0.087890625,-0.2607422,-19.4375,26.90625,-82.15625,0.0,0.0,0.0,695
696,1695569464165,-2.0,0.4580078,2.0,-43.96875,-506.1875,-73.9375,0.0,0.0,0.0,696
697,1695569464205,-1.5898438,-0.6298828,-0.08496094,438.34375,-35.71875,-14.0625,0.0,0.0,0.0,697
698,1695569464245,-2.0,0.13769531,0.6767578,69.875,136.875,-87.78125,0.0,0.0,0.0,698
699,1695569464285,-1.6982422,-0.3779297,0.4091797,105.28125,112.46875,-12.96875,0.0,0.0,0.0,699
700,1695569464325,-1.5869141,0.4423828,0.68359375,209.34375,153.1875,-64.53125,0.0,0.0,0.0,700
701,1695569464365,-0.8857422,-0.08203125,-0.265625,181.6875,22.875,23.53125,0.0,0.0,0.0,701
702,1695569464405,0.26464844,-0.17089844,0.5078125,35.3125,89.59375,7.0,-4.9375,41.5625,-94.375,702
703,1695569464445,0.07128906,0.14453125,-0.62597656,198.71875,-39.8125,-0.6875,0.0,0.0,0.0,703
704,1695569464485,0.024414062,0.47265625,-0.17285156,112.09375,-146.4375,39.40625,0.0,0.0,0.0,704
705,1695569464525,-0.83203125,0.19238281,0.052734375,-46.53125,-194.46875,-13.625,0.0,0.0,0.0,705
706,1695569464565,-2.0,0.52246094,0.29296875,98.875,-316.40625,-14.0625,0.0,0.0,0.0,706
707,1695569464605,-1.5429688,-0.28808594,0.67871094,-226.09375,-158.78125,-72.78125,0.0,0.0,0.0,707
708,1695569464645,-1.6357422,-0.21972656,0.828125,80.90625,-127.21875,-81.1875,0.0,0.0,0.0,708
709,1695569464685,-1.8867188,0.25976562,0.4580078,2.90625,-34.8125,-54.6875,0.0,0.0,0.0,709
710,1695569464725,-0.48535156,0.1796875,0.39746094,73.59375,5.40625,-86.375,0.0,0.0,0.0,710
711,1695569464765,-0.19140625,0.052734375,-0.12109375,92.34375,36.25,-84.96875,0.0,0.0,0.0,711
712,1695569464805,0.12597656,-0.064453125,-0.6513672,268.125,234.59375,-91.1875,0.0,0.0,0.0,712
713,1695569464845,0.33789062,0.11230469,-0.018554688,12.1875,260.3125,30.5,0.0,0.0,0.0,713
714,1695569464885,0.12597656,-0.35253906,1.8613281,-514.78125,-315.5,-8.8125,0.0,0.0,0.0,714
715,1695569464925,-0.15820312,0.33203125,-0.29882812,204.21875,108.9375,-23.6875,-23.25,20.3125,-83.75,715
716,1695569464965,-2.0,1.6132812,-0.07910156,-216.8125,-682.4375,225.375,0.0,0.0,0.0,716
717,1695569465005,-1.3691406,-0.13964844,0.6064453,274.59375,228.9375,18.84375,0.0,0.0,0.0,717
718,1695569465045,-1.9287109,-0.37597656,0.44335938,52.40625,192.78125,-9.46875,0.0,0.0,0.0,718
719,1695569465085,-2.0,-0.703125,0.64453125,70.78125,196.8125,65.15625,0.0,0.0,0.0,719
720,1695569465125,-1.5175781,-0.37109375,0.3154297,224.09375,125.65625,6.03125,0.0,0.0,0.0,720
721,1695569465165,-0.46289062,-0.0625,0.0078125,206.40625,54.0625,-17.03125,0.0,0.0,0.0,721
722,1695569465205,0.22558594,0.33398438,-0.11230469,84.34375,-27.46875,-48.46875,0.0,0.0,0.0,722
723,1695569465245,0.13574219,0.3876953,-0.052734375,-2.875,-113.1875,-40.90625,0.0,0.0,0.0,723
724,1695569465285,0.19628906,0.19335938,-0.296875,16.21875,-152.46875,-57.21875,0.0,0.0,0.0,724
725,1695569465325,-0.42578125,0.234375,0.0078125,-96.15625,-212.59375,-92.90625,0.0,0.0,0.0,725
726,1695569465365,-2.0,1.0429688,1.6347656,-305.6875,-178.46875,-125.3125,0.0,0.0,0.0,726
727,1695569465405,-0.85839844,0.21289062,0.39746094,-38.09375,-240.96875,-85.84375,-22.625,6.9375,-68.75,727
728,1695569465445,-1.4785156,-0.21875,0.41308594,-36.875,17.3125,9.03125,0.0,0.0,0.0,728
729,1695569465485,-1.1962891,-0.4970703,0.9453125,-177.5625,119.6875,-4.34375,0.0,0.0,0.0,729
730,1695569465525,-0.29882812,-0.0126953125,-0.013671875,187.59375,-68.0,29.03125,0.0,0.0,0.0,730
731,1695569465565,0.052734375,-0.23535156,-0.4326172,195.65625,77.5625,0.21875,0.0,0.0,0.0,731
732,1695569465605,0.3203125,0.0068359375,-0.21191406,93.90625,226.4375,3.59375,0.0,0.0,0.0,732
733,1695569465645,0.07714844,0.32617188,0.23144531,-92.375,134.5625,2.65625,0.0,0.0,0.0,733
734,1695569465685,0.064453125,0.038085938,0.0009765625,-139.53125,156.46875,-73.375,0.0,0.0,0.0,734
735,1695569465725,-2.0,1.9677734,-0.4453125,-244.71875,-114.09375,-27.59375,0.0,0.0,0.0,735
736,1695569465765,-1.3554688,0.23242188,-0.052734375,-114.15625,147.125,73.28125,0.0,0.0,0.0,736
737,1695569465805,-2.0,-1.6103516,-0.056640625,231.4375,74.5,220.5,0.0,0.0,0.0,737
738,1695569465845,-1.265625,-1.4726562,0.8066406,95.5,172.59375,56.375,0.0,0.0,0.0,738
739,1695569465885,-1.5556641,0.7402344,-0.25,321.75,76.78125,-31.6875,0.0,0.0,0.0,739
740,1695569465925,-0.74609375,0.796875,0.25878906,96.65625,19.875,-8.875,-12.625,17.875,-84.625,740
741,1695569465965,0.10839844,0.5410156,-0.115234375,-7.15625,-60.3125,18.53125,0.0,0.0,0.0,741
742,1695569466005,0.41308594,-0.47753906,0.48046875,-68.4375,-72.28125,-9.65625,0.0,0.0,0.0,742
743,1695569466045,-0.06347656,0.16308594,-0.3173828,-7.8125,-175.1875,-63.1875,0.0,0.0,0.0,743
744,1695569466085,-0.55566406,0.078125,-0.21875,39.84375,-247.4375,-36.625,0.0,0.0,0.0,744
745,1695569466125,-2.0,0.9326172,1.6455078,-296.53125,-211.75,-121.96875,0.0,0.0,0.0,745
746,1695569466165,-1.0986328,0.43164062,0.32617188,-102.5,-290.78125,-143.09375,0.0,0.0,0.0,746
747,1695569466205,-1.4863281,-0.013671875,0.37597656,-141.5,-35.34375,4.6875,0.0,0.0,0.0,747
748,1695569466245,-0.93847656,-0.7753906,0.6933594,-205.28125,174.1875,9.6875,0.0,0.0,0.0,748
749,1695569466285,-0.42089844,-0.3466797,0.26757812,179.6875,1.4375,70.0,0.0,0.0,0.0,749
750,1695569466325,0.14550781,-0.5205078,-0.4453125,347.59375,-53.84375,-0.8125,0.0,0.0,0.0,750
751,1695569466365,0.99609375,0.033203125,-0.7011719,140.71875,463.0,-55.625,0.0,0.0,0.0,751
752,1695569466405,0.33789062,0.3642578,0.123046875,-324.53125,316.15625,-149.5,-18.625,11.0,-79.25,752
753,1695569466445,0.09082031,0.09472656,0.46777344,-309.46875,-409.75,39.28125,0.0,0.0,0.0,753
754,1695569466485,-2.0,2.0,-1.4023438,-2.59375,-46.875,-61.34375,0.0,0.0,0.0,754
755,1695569466525,-2.0,0.28710938,0.0078125,158.375,429.3125,190.46875,0.0,0.0,0.0,755
756,1695569466565,-2.0,-2.0,0.69140625,11.03125,193.84375,107.53125,0.0,0.0,0.0,756
757,1695569466605,-1.5957031,-0.66503906,0.5126953,231.3125,103.5625,29.28125,0.0,0.0,0.0,757
758,1695569466645,-1.3710938,0.6386719,0.18652344,231.96875,147.8125,19.75,0.0,0.0,0.0,758
759,1695569466685,-0.8125,0.1171875,0.0078125,277.4375,10.375,35.25,0.0,0.0,0.0,759
