,timestamp,accel_x,accel_y,accel_z,gyro_x,gyro_y,gyro_z,ind
0,1696190577026,-0.04248047,-0.4360962,-0.0154418945,-19.03125,19.40625,-24.171875,0
1,1696190577066,0.006591797,-0.5549927,-0.10235596,-22.453125,9.5625,-40.359375,1
2,1696190577106,-0.04711914,-0.8101196,-0.10748291,-31.875,-4.53125,-35.8125,2
3,1696190577146,-0.063964844,-0.92266846,-0.14556885,-34.734375,-4.375,-9.734375,3
4,1696190577186,-0.1027832,-1.0337524,-0.13873291,-21.484375,-1.421875,-10.21875,4
5,1696190577226,-0.18457031,-0.9746704,-0.020568848,-2.03125,-7.078125,-6.15625,5
6,1696190577266,-0.1184082,-0.8171997,-0.06549072,-7.078125,-5.34375,0.15625,6
7,1696190577306,-0.07495117,-0.5796509,-0.06109619,-2.765625,-0.5625,9.03125,7
8,1696190577346,-0.09838867,-0.45806885,-0.08404541,16.1875,2.71875,18.484375,8
9,1696190577386,-0.06616211,-0.28179932,-0.19659424,27.03125,1.8125,40.34375,9
10,1696190577426,0.08862305,-0.07305908,-0.10772705,12.078125,2.140625,66.453125,10
11,1696190577466,0.1081543,-0.13238525,0.01776123,45.171875,-12.28125,53.265625,11
12,1696190577506,0.22436523,-0.75494385,-0.2576294,159.04688,-17.828125,48.640625,12
13,1696190577546,0.19897461,-1.1834106,-0.8233032,113.515625,-18.03125,15.28125,13
14,1696190577586,0.27368164,-1.0049438,-0.4036255,-8.875,-1.078125,48.703125,14
15,1696190577626,0.28466797,-0.64141846,-0.4241333,20.453125,-16.375,-11.859375,15
16,1696190577666,0.42529297,-0.84381104,-0.4817505,-4.875,-24.84375,-10.234375,16
17,1696190577706,0.14624023,-0.5940552,-0.56085205,10.078125,-38.96875,-10.09375,17
18,1696190577746,-0.020507812,-0.9385376,-0.63848877,28.65625,14.921875,21.546875,18
19,1696190577786,0.68188477,-1.0317993,-0.76104736,47.375,9.84375,13.265625,19
20,1696190577826,0.73657227,-1.6358032,-0.7095337,-17.703125,-13.390625,-36.328125,20
21,1696190577866,-0.30859375,-1.4048462,-0.7839966,-45.46875,-13.875,-31.53125,21
22,1696190577906,0.5344238,-1.31427,-0.66851807,-61.0,-2.515625,-5.328125,22
23,1696190577946,0.011962891,-1.7703247,-0.80596924,5.640625,-26.953125,-25.96875,23
24,1696190577986,-0.11694336,-1.4480591,-0.3880005,-116.015625,18.140625,-3.46875,24
25,1696190578026,-0.8532715,-1.093811,0.05316162,-37.328125,7.828125,-11.71875,25
26,1696190578066,0.03491211,-0.9011841,-0.2798462,73.28125,15.140625,20.3125,26
27,1696190578106,-0.09301758,-0.74102783,0.085632324,-57.203125,0.21875,3.75,27
28,1696190578146,-0.1628418,-0.68878174,0.109313965,37.796875,-12.015625,19.46875,28
29,1696190578186,-0.036621094,-0.7810669,-0.14898682,62.453125,-6.734375,35.453125,29
30,1696190578226,-0.060302734,-0.97198486,-0.40509033,66.3125,-8.59375,40.671875,30
31,1696190578266,0.37353516,-1.2949829,-0.82769775,84.71875,-20.3125,21.65625,31
32,1696190578306,1.1181641,-1.3706665,-1.2168579,25.5625,-75.09375,58.875,32
33,1696190578346,0.72558594,-1.3169556,-0.68756104,36.390625,20.0,-6.6875,33
34,1696190578386,0.10522461,-1.1585083,-1.1477661,-2.328125,25.484375,-14.34375,34
35,1696190578426,0.7519531,-1.0386353,-0.7666626,-18.5625,-0.96875,-5.65625,35
36,1696190578466,0.54541016,-0.9463501,-0.6165161,-19.53125,19.859375,-13.46875,36
37,1696190578506,0.29077148,-0.94488525,-0.7451782,-19.859375,12.953125,-30.6875,37
38,1696190578546,0.4099121,-0.84576416,-0.47149658,-25.71875,23.625,-27.734375,38
39,1696190578586,0.22607422,-0.75323486,-0.42633057,-42.65625,13.390625,-37.1875,39
40,1696190578626,-0.028564453,-0.5725708,-0.3460083,-48.59375,19.90625,-48.546875,40
41,1696190578666,0.26098633,-0.4343872,-0.24786377,-80.28125,22.625,-28.40625,41
42,1696190578706,0.08325195,-0.3057251,-0.18292236,-84.015625,24.984375,-33.1875,42
43,1696190578746,0.04736328,-0.144104,-0.047668457,-67.546875,23.28125,-30.796875,43
44,1696190578786,-0.04296875,-0.12261963,-0.014465332,-13.875,8.46875,-25.75,44
45,1696190578826,-0.15136719,-0.35333252,-0.12921143,-4.703125,8.28125,-27.953125,45
46,1696190578866,-0.040771484,-0.6536255,-0.2276001,36.8125,5.765625,-21.796875,46
47,1696190578906,0.01171875,-1.3047485,-0.23199463,0.421875,-5.65625,-3.578125,47
48,1696190578946,0.0859375,-1.2234497,-0.051086426,-19.84375,4.109375,5.09375,48
49,1696190578986,-0.24316406,-0.5808716,-0.17877197,-24.640625,22.859375,-4.703125,49
50,1696190579026,0.03125,-0.37384033,-0.21539307,6.5,20.65625,-4.46875,50
51,1696190579066,0.2783203,-0.5010376,-0.07965088,12.96875,9.8125,29.875,51
52,1696190579106,-0.036865234,-0.38482666,-0.14776611,19.140625,-5.84375,36.875,52
53,1696190579146,0.10131836,-0.269104,-0.19439697,26.109375,-8.1875,32.984375,53
54,1696190579186,0.10986328,-0.46148682,-0.16314697,39.96875,-16.625,39.8125,54
55,1696190579226,0.114746094,-0.8464966,-0.32354736,94.453125,-14.34375,44.46875,55
56,1696190579266,0.29223633,-1.2410278,-0.4800415,67.4375,-12.578125,45.140625,56
57,1696190579306,0.49023438,-0.8345337,-0.40216064,28.953125,-19.40625,32.953125,57
58,1696190579346,-0.0703125,-0.44366455,-0.5913696,42.40625,-39.078125,6.046875,58
59,1696190579386,0.65112305,-0.9365845,-0.45928955,40.46875,-10.78125,41.515625,59
60,1696190579426,0.001953125,-0.6511841,-0.58135986,19.015625,-21.796875,-4.96875,60
61,1696190579466,0.9387207,-0.9627075,-0.5552368,14.015625,5.15625,22.171875,61
62,1696190579506,0.5144043,-0.83673096,-0.67315674,-17.53125,-21.828125,-47.921875,62
63,1696190579546,0.53466797,-1.2234497,-0.6548462,-21.4375,-4.078125,-30.03125,63
64,1696190579586,0.09106445,-1.5913696,-0.8086548,-38.78125,-3.890625,-41.921875,64
65,1696190579626,0.11352539,-1.1714478,-0.4085083,-141.85938,13.1875,-36.0,65
66,1696190579666,-0.2097168,-1.5730591,-0.11798096,-19.484375,6.515625,-33.234375,66
67,1696190579706,-0.17871094,-1.6323853,-0.29522705,-23.296875,11.8125,-16.625,67
68,1696190579746,-0.28320312,-1.342102,-0.1531372,37.03125,23.9375,-4.640625,68
69,1696190579786,-0.21606445,-1.347229,-0.3604126,43.390625,32.3125,9.5,69
70,1696190579826,-0.005859375,-0.90216064,-0.22003174,-0.875,1.3125,-2.453125,70
71,1696190579866,-0.0053710938,-0.5911255,-0.022277832,-9.421875,-3.015625,4.5625,71
72,1696190579906,-0.107666016,-0.64068604,0.002380371,14.96875,-8.921875,15.796875,72
73,1696190579946,0.03491211,-0.71954346,-0.11505127,42.6875,-12.703125,24.078125,73
74,1696190579986,0.022949219,-0.7461548,-0.14483643,35.859375,-20.15625,34.6875,74
75,1696190580026,0.056640625,-1.010315,-0.612854,100.765625,-19.515625,51.546875,75
76,1696190580066,0.62475586,-1.7510376,-1.390686,60.75,-40.796875,24.09375,76
77,1696190580106,1.4887695,-1.0076294,-0.74420166,-49.59375,-21.84375,50.703125,77
78,1696190580146,0.12475586,-1.229065,-0.97247314,72.1875,-7.28125,6.625,78
79,1696190580186,0.48999023,-1.0650024,-0.9607544,5.28125,5.6875,10.84375,79
80,1696190580226,0.8803711,-0.9414673,-0.75006104,-6.984375,19.828125,11.0,80
81,1696190580266,0.44091797,-0.71954346,-0.65997314,-18.53125,13.765625,-6.359375,81
82,1696190580306,0.4736328,-0.70758057,-0.7258911,-3.375,17.125,-26.125,82
83,1696190580346,0.47875977,-0.74102783,-0.5628052,-5.53125,22.265625,-24.5625,83
84,1696190580386,0.22631836,-0.64727783,-0.505188,-42.875,17.484375,-38.765625,84
85,1696190580426,0.19580078,-0.62677,-0.39312744,-54.90625,20.03125,-41.71875,85
86,1696190580466,0.27734375,-0.5112915,-0.35235596,-55.21875,11.25,-44.71875,86
87,1696190580506,0.1887207,-0.43414307,-0.16461182,-45.015625,12.4375,-35.625,87
88,1696190580546,-0.03100586,-0.36090088,-0.16461182,-56.6875,11.53125,-45.515625,88
89,1696190580586,-0.19604492,-0.21636963,-0.12310791,-47.5,18.46875,-50.15625,89
90,1696190580626,0.12011719,-0.2888794,-0.1831665,-45.9375,22.71875,-40.125,90
91,1696190580666,-0.068115234,-0.6567993,-0.19390869,-14.890625,17.140625,-34.421875,91
92,1696190580706,-0.03491211,-1.2427368,-0.14117432,-1.6875,1.78125,-31.53125,92
93,1696190580746,-0.06982422,-1.1521606,-0.20904541,-36.09375,3.375,-24.546875,93
94,1696190580786,-0.16748047,-0.6428833,-0.28814697,-6.453125,6.484375,-18.4375,94
95,1696190580826,-0.03466797,-0.6421509,-0.14874268,-11.796875,9.796875,0.859375,95
96,1696190580866,-0.057373047,-0.55133057,-0.14605713,-3.28125,1.390625,11.125,96
97,1696190580906,-0.018066406,-0.3982544,-0.2107544,1.65625,-1.90625,24.421875,97
98,1696190580946,0.09716797,-0.32574463,-0.13775635,14.625,-6.953125,33.359375,98
99,1696190580986,0.16308594,-0.35845947,-0.18170166,26.859375,-21.046875,41.46875,99
100,1696190581026,0.17333984,-0.4439087,-0.15460205,55.4375,-29.90625,55.890625,100
101,1696190581066,0.17578125,-0.47564697,-0.33062744,54.40625,-36.328125,39.0,101
102,1696190581106,-0.21801758,-0.7571411,-0.38067627,122.671875,-5.640625,36.390625,102
103,1696190581146,0.7077637,-1.0178833,-0.6445923,92.09375,-3.84375,71.546875,103
104,1696190581186,0.31469727,-0.8484497,-0.61798096,14.59375,-34.015625,2.765625,104
105,1696190581226,0.35131836,-0.8635864,-0.5354614,9.578125,-15.875,16.0625,105
106,1696190581266,0.026611328,-0.7373657,-0.725647,4.6875,-11.765625,14.40625,106
107,1696190581306,0.5986328,-0.83551025,-0.6934204,10.296875,1.53125,5.4375,107
108,1696190581346,0.43481445,-1.1309204,-0.68951416,7.796875,5.578125,-11.21875,108
109,1696190581386,0.5961914,-1.5200806,-0.8015747,-54.609375,-11.734375,-43.515625,109
110,1696190581426,-0.3527832,-1.006897,-0.6760864,-134.42188,19.015625,-25.0625,110
111,1696190581466,0.24316406,-1.7051392,-0.08111572,-1.421875,-25.5625,-33.09375,111
112,1696190581506,-0.006591797,-1.9866333,-0.7515259,-62.375,3.59375,-27.1875,112
113,1696190581546,-0.42089844,-1.4885864,-0.07867432,-27.4375,5.515625,-17.40625,113
114,1696190581586,-0.26904297,-1.1279907,-0.23980713,55.71875,12.703125,16.578125,114
115,1696190581626,-0.14111328,-0.9053345,-0.23858643,28.0625,15.015625,23.453125,115
116,1696190581666,0.02709961,-0.71466064,-0.31793213,33.875,0.84375,15.859375,116
117,1696190581706,-0.32104492,-0.5628052,-0.031311035,25.03125,4.3125,8.609375,117
118,1696190581746,0.19824219,-0.36993408,-0.074035645,2.0,-0.015625,38.90625,118
119,1696190581786,0.08154297,-0.77789307,-0.41607666,52.828125,-30.640625,34.4375,119
120,1696190581826,0.5437012,-1.4666138,-0.7461548,53.296875,-24.84375,49.171875,120
121,1696190581866,1.6394043,-1.2280884,-0.9932251,-6.015625,-36.359375,77.3125,121
122,1696190581906,0.5859375,-1.0293579,-0.7871704,29.84375,-29.59375,19.765625,122
123,1696190581946,0.79541016,-0.9690552,-0.9258423,52.5625,1.390625,37.328125,123
124,1696190581986,0.7487793,-0.82281494,-0.7354126,40.140625,4.171875,1.078125,124
125,1696190582026,0.60791016,-0.7803345,-0.68756104,12.25,4.1875,7.796875,125
126,1696190582066,0.6003418,-0.6963501,-0.81085205,5.671875,4.984375,-12.5,126
127,1696190582106,0.5812988,-0.6514282,-0.71173096,13.921875,14.484375,-22.671875,127
128,1696190582146,0.49560547,-0.7319946,-0.5845337,-26.71875,15.265625,-34.203125,128
129,1696190582186,0.234375,-0.6091919,-0.55426025,-40.703125,17.640625,-40.65625,129
130,1696190582226,0.21191406,-0.54400635,-0.489563,-46.234375,25.28125,-46.703125,130
131,1696190582266,0.20727539,-0.5322876,-0.3406372,-51.0,24.53125,-46.1875,131
132,1696190582306,0.10864258,-0.4282837,-0.41046143,-42.0625,21.234375,-45.640625,132
133,1696190582346,0.2644043,-0.42877197,-0.31036377,-50.046875,23.75,-43.5625,133
134,1696190582386,0.11303711,-0.49346924,-0.2612915,-33.4375,22.453125,-32.375,134
135,1696190582426,0.01928711,-0.40875244,-0.21734619,-50.078125,17.53125,-34.046875,135
136,1696190582466,-0.017822266,-0.32843018,-0.32208252,-68.15625,19.84375,-25.78125,136
137,1696190582506,0.13623047,-0.46173096,-0.21051025,-11.375,16.265625,-20.78125,137
138,1696190582546,0.2536621,-1.0371704,-0.2822876,32.1875,-2.25,1.90625,138
139,1696190582586,-0.09301758,-1.154602,-0.4187622,10.421875,0.109375,-5.75,139
140,1696190582626,-0.046142578,-0.6902466,-0.3579712,-15.609375,12.09375,1.671875,140
141,1696190582666,0.14404297,-0.41851807,-0.32452393,-15.28125,4.5,14.6875,141
142,1696190582706,0.18774414,-0.5437622,-0.2966919,25.265625,-1.53125,31.046875,142
143,1696190582746,0.16381836,-0.60601807,-0.2041626,25.890625,-6.625,28.375,143
144,1696190582786,0.0126953125,-0.41070557,-0.2654419,24.21875,-14.0,30.625,144
145,1696190582826,0.16772461,-0.35064697,-0.25372314,23.1875,-9.140625,44.140625,145
146,1696190582866,0.18457031,-0.33917236,-0.1819458,16.5,-14.390625,31.859375,146
147,1696190582906,0.01928711,-0.39923096,-0.3670044,45.734375,-16.890625,31.609375,147
148,1696190582946,0.3857422,-0.57232666,-0.4421997,75.171875,-11.125,47.21875,148
149,1696190582986,0.6958008,-0.9216919,-0.39068604,60.140625,-28.171875,31.921875,149
150,1696190583026,0.4440918,-1.0112915,-0.66363525,32.40625,-26.671875,0.734375,150
151,1696190583066,0.32226562,-0.77838135,-0.7539673,-27.25,-10.890625,-4.140625,151
152,1696190583106,0.5979004,-0.58306885,-0.50567627,-40.109375,0.03125,-9.765625,152
153,1696190583146,0.6503906,-0.75372314,-0.4204712,-27.0625,-8.390625,-28.421875,153
154,1696190583186,0.42382812,-1.2608032,-0.6272583,10.25,-14.3125,-51.109375,154
155,1696190583226,0.28637695,-1.8501587,-1.0144653,-56.921875,4.1875,-36.6875,155
156,1696190583266,-0.12866211,-1.3233032,-0.19659424,-155.57812,17.34375,-32.546875,156
157,1696190583306,0.12207031,-1.9014282,-0.4602661,45.734375,13.984375,-20.984375,157
158,1696190583346,-0.025146484,-1.741272,-0.37872314,-39.25,8.34375,-9.375,158
159,1696190583386,-0.36791992,-1.3838501,-0.13897705,33.125,22.03125,0.046875,159
160,1696190583426,-0.22094727,-1.0442505,-0.22442627,49.109375,21.796875,15.203125,160
161,1696190583466,-0.061035156,-0.8154907,-0.14483643,-6.984375,19.765625,10.34375,161
162,1696190583506,0.10913086,-0.44781494,-0.08795166,-14.28125,-5.8125,4.78125,162
163,1696190583546,0.068847656,-0.44049072,-0.0068969727,-14.515625,-11.0625,8.1875,163
164,1696190583586,0.20922852,-0.5335083,0.09197998,7.5625,-18.578125,27.984375,164
165,1696190583626,-0.060058594,-0.8389282,-0.2703247,61.578125,-12.625,29.421875,165
166,1696190583666,0.061767578,-1.0454712,-0.7686157,94.03125,-35.53125,40.90625,166
167,1696190583706,1.0180664,-1.3137817,-1.328186,52.9375,-20.671875,82.5,167
168,1696190583746,1.2370605,-0.9661255,-0.614563,-48.34375,-5.375,22.296875,168
169,1696190583786,0.40429688,-1.1831665,-0.7739868,107.71875,3.140625,13.109375,169
170,1696190583826,0.7260742,-1.1043091,-1.0488892,36.4375,10.703125,20.6875,170
171,1696190583866,0.8544922,-0.7854614,-0.7324829,-15.546875,15.59375,13.28125,171
172,1696190583906,0.50805664,-0.8311157,-0.75787354,11.71875,13.25,2.140625,172
173,1696190583946,0.73291016,-0.645813,-0.7190552,-21.203125,11.421875,-21.625,173
174,1696190583986,0.51586914,-0.71588135,-0.6050415,-31.875,15.640625,-23.09375,174
175,1696190584026,0.23657227,-0.5779419,-0.43292236,-28.984375,12.125,-42.703125,175
176,1696190584066,0.18774414,-0.55474854,-0.3706665,-32.46875,18.296875,-43.5,176
177,1696190584106,0.24682617,-0.50128174,-0.3352661,-43.453125,17.640625,-43.140625,177
178,1696190584146,0.30322266,-0.53131104,-0.3069458,-44.421875,21.953125,-47.609375,178
179,1696190584186,0.20922852,-0.55474854,-0.23345947,-50.40625,14.78125,-49.90625,179
180,1696190584226,0.11645508,-0.47149658,-0.22955322,-48.703125,16.15625,-44.796875,180
181,1696190584266,0.039794922,-0.35113525,-0.21221924,-52.328125,14.171875,-40.875,181
182,1696190584306,0.11230469,-0.26568604,-0.25201416,-45.34375,7.140625,-30.46875,182
183,1696190584346,0.06958008,-0.47906494,-0.30230713,-3.703125,2.8125,-10.0,183
184,1696190584386,0.060546875,-1.0252075,-0.21002197,-7.421875,5.5,-25.296875,184
185,1696190584426,0.22094727,-1.3186646,-0.24884033,-10.875,-2.453125,1.71875,185
186,1696190584466,0.1303711,-0.61553955,-0.29205322,-0.765625,5.828125,17.765625,186
187,1696190584506,0.0061035156,-0.3040161,-0.18658447,-13.140625,0.203125,6.96875,187
188,1696190584546,0.0043945312,-0.54815674,-0.20098877,17.421875,3.375,21.625,188
189,1696190584586,0.04345703,-0.58551025,-0.21392822,18.875,-3.125,24.78125,189
190,1696190584626,0.08276367,-0.48736572,-0.20391846,31.96875,0.609375,28.890625,190
191,1696190584666,0.33813477,-0.42926025,-0.2546997,27.515625,-4.96875,39.125,191
192,1696190584706,0.16088867,-0.44708252,-0.3538208,51.296875,-21.515625,29.40625,192
193,1696190584746,0.2824707,-0.56817627,-0.4192505,39.3125,-17.765625,28.90625,193
194,1696190584786,0.4050293,-0.6116333,-0.33111572,54.921875,-19.078125,39.125,194
195,1696190584826,0.40771484,-0.7251587,-0.57159424,70.703125,-19.609375,28.578125,195
196,1696190584866,0.08178711,-0.75445557,-0.48345947,41.90625,-19.015625,-3.09375,196
197,1696190584906,0.5288086,-0.95318604,-0.46124268,-12.734375,-7.609375,12.65625,197
198,1696190584946,0.15527344,-0.78741455,-0.647522,25.4375,-23.28125,-55.078125,198
199,1696190584986,0.6467285,-2.0,-1.038147,-22.75,1.3125,-26.578125,199
200,1696190585026,-0.068359375,-1.2925415,-0.59552,-147.1875,-2.03125,-52.265625,200
201,1696190585066,0.13598633,-1.9129028,0.009216309,-43.78125,4.3125,-33.609375,201
202,1696190585106,-0.23730469,-2.0,-0.5835571,-32.734375,10.734375,-40.8125,202
203,1696190585146,-0.23046875,-1.5337524,-0.12164307,-6.53125,16.1875,-1.453125,203
204,1696190585186,-0.35668945,-1.1235962,-0.15924072,74.6875,24.296875,13.796875,204
205,1696190585226,-0.17285156,-0.8418579,-0.20318604,11.484375,9.140625,11.0,205
206,1696190585266,0.10107422,-0.6548462,0.013366699,-35.65625,5.0625,3.40625,206
207,1696190585306,-0.15014648,-0.34747314,-0.040100098,-21.9375,-2.0,8.90625,207
208,1696190585346,0.041992188,-0.48883057,-0.02911377,13.9375,-7.421875,22.125,208
209,1696190585386,0.29125977,-0.6687622,-0.0635376,68.34375,-9.140625,22.1875,209
210,1696190585426,-0.009277344,-0.8711548,-0.22247314,50.0,-23.265625,34.953125,210
211,1696190585466,0.1809082,-1.479065,-0.84503174,69.9375,-47.578125,52.265625,211
212,1696190585506,1.7270508,-1.2461548,-1.250061,2.640625,-15.1875,103.75,212
213,1696190585546,0.8408203,-1.4146118,-0.80841064,42.828125,-30.71875,18.984375,213
214,1696190585586,0.3828125,-1.1377563,-0.9578247,-2.46875,-0.671875,11.203125,214
215,1696190585626,0.4873047,-0.7180786,-0.6218872,29.09375,-4.375,33.875,215
216,1696190585666,0.82470703,-0.7444458,-0.5991821,39.1875,7.84375,38.078125,216
217,1696190585706,1.0068359,-0.71466064,-0.7373657,71.5,-0.03125,15.0,217
218,1696190585746,0.66430664,-0.8882446,-0.7686157,20.5625,12.6875,-24.390625,218
219,1696190585786,0.29418945,-0.7630005,-0.7258911,-21.15625,17.875,-47.1875,219
220,1696190585826,0.16357422,-0.50909424,-0.48345947,-50.8125,26.046875,-46.609375,220
221,1696190585866,0.36328125,-0.43585205,-0.2756958,-71.546875,27.84375,-38.765625,221
222,1696190585906,0.2590332,-0.38555908,-0.20245361,-33.84375,27.171875,-52.984375,222
223,1696190585946,0.1652832,-0.5310669,-0.4121704,-64.984375,23.03125,-57.265625,223
224,1696190585986,0.14453125,-0.5327759,-0.31988525,-58.546875,31.40625,-53.9375,224
225,1696190586026,0.22509766,-0.692688,-0.2720337,-30.625,32.5,-45.703125,225
226,1696190586066,0.20336914,-0.6331177,-0.22149658,-83.328125,21.515625,-28.265625,226
227,1696190586106,0.041503906,-0.19073486,-0.22515869,-74.609375,21.15625,-47.21875,227
228,1696190586146,-0.01586914,-0.40264893,-0.32476807,-24.703125,15.6875,-51.84375,228
229,1696190586186,0.05126953,-0.8440552,-0.23956299,-18.65625,12.140625,-17.515625,229
230,1696190586226,0.18847656,-1.2581177,0.010437012,-8.734375,15.65625,-9.390625,230
231,1696190586266,-0.056152344,-0.7185669,-0.23052979,-15.703125,0.578125,-14.53125,231
232,1696190586306,0.008056641,-0.59942627,-0.27105713,0.3125,10.890625,-2.78125,232
233,1696190586346,0.020263672,-0.6604614,-0.12506104,-13.40625,3.515625,14.515625,233
234,1696190586386,0.05126953,-0.65802,-0.10235596,12.25,1.765625,18.65625,234
235,1696190586426,-0.087402344,-0.32232666,-0.086242676,9.484375,-4.59375,25.84375,235
236,1696190586466,-0.16577148,0.05291748,-0.2769165,15.921875,2.9375,31.65625,236
237,1696190586506,0.37890625,-0.25201416,-0.31866455,67.53125,8.265625,45.46875,237
238,1696190586546,0.5217285,-0.7095337,-0.31158447,92.96875,-34.046875,47.609375,238
239,1696190586586,0.5097656,-1.2512817,-0.4006958,158.5,-47.453125,46.296875,239
240,1696190586626,0.08569336,-1.2581177,-0.9307251,81.34375,-37.6875,28.890625,240
241,1696190586666,0.2133789,-0.72784424,-0.77178955,-32.375,-25.34375,39.0,241
242,1696190586706,0.6972656,-0.44659424,-0.39068604,-48.796875,-17.828125,-14.09375,242
243,1696190586746,0.24414062,-0.56915283,-0.39385986,86.765625,-27.96875,26.09375,243
244,1696190586786,0.088134766,-0.8948364,-0.6709595,-18.28125,-7.703125,-7.984375,244
245,1696190586826,0.35009766,-0.87677,-0.55963135,-21.765625,8.125,-17.578125,245
246,1696190586866,0.7792969,-1.250061,-0.27642822,-63.421875,-29.90625,-84.296875,246
247,1696190586906,-0.3984375,-1.946106,-1.039856,19.90625,1.78125,-27.640625,247
248,1696190586946,0.31420898,-1.5813599,-0.458313,-74.265625,11.359375,-35.96875,248
249,1696190586986,-0.18798828,-2.0,-0.75738525,8.59375,14.5,-25.984375,249
250,1696190587026,-0.2944336,-1.7730103,-0.5586548,-35.0625,22.828125,-6.09375,250
251,1696190587066,-0.4230957,-1.1511841,-0.0635376,-3.984375,26.640625,7.640625,251
252,1696190587106,-0.2055664,-0.7678833,-0.14801025,10.265625,30.75,14.625,252
253,1696190587146,0.06518555,-0.57696533,-0.051818848,-20.296875,15.984375,-1.78125,253
254,1696190587186,0.079589844,-0.49371338,-0.0022583008,-54.515625,1.8125,-3.984375,254
255,1696190587226,0.07543945,-0.30474854,0.17230225,-19.34375,-5.421875,19.640625,255
256,1696190587266,0.07885742,-0.5256958,0.04095459,53.921875,-12.046875,14.421875,256
257,1696190587306,-0.15771484,-0.8753052,-0.21392822,91.890625,-18.734375,28.640625,257
258,1696190587346,0.118896484,-1.0379028,-0.550354,109.015625,-19.125,56.734375,258
259,1696190587386,0.92041016,-1.7937622,-0.76031494,71.375,-20.015625,75.453125,259
260,1696190587426,0.60375977,-0.69488525,-1.854065,-32.25,-9.875,36.671875,260
261,1696190587466,0.7463379,-1.1113892,-0.48687744,-0.453125,-12.03125,18.015625,261
262,1696190587506,0.56396484,-1.0193481,-1.0662231,9.578125,24.984375,39.5,262
263,1696190587546,0.8652344,-0.82647705,-0.458313,7.28125,10.375,16.15625,263
264,1696190587586,0.5004883,-0.8362427,-0.7559204,40.15625,5.109375,2.546875,264
265,1696190587626,0.32470703,-0.7473755,-0.79815674,15.484375,14.890625,1.40625,265
266,1696190587666,0.75634766,-0.63360596,-0.7420044,-19.21875,17.171875,-17.328125,266
267,1696190587706,0.5817871,-0.69903564,-0.59552,-34.765625,11.390625,-30.953125,267
268,1696190587746,0.12646484,-0.66973877,-0.5557251,-44.921875,17.921875,-48.703125,268
269,1696190587786,0.06298828,-0.59039307,-0.45855713,-37.640625,19.265625,-53.0,269
270,1696190587826,0.23364258,-0.61676025,-0.37677002,-35.875,27.078125,-46.328125,270
271,1696190587866,0.23852539,-0.55718994,-0.31378174,-22.359375,18.03125,-40.0,271
272,1696190587906,0.09838867,-0.59039307,-0.28399658,-38.4375,17.859375,-39.265625,272
273,1696190587946,0.091552734,-0.4133911,-0.2715454,-91.0,10.53125,-42.546875,273
274,1696190587986,0.06323242,-0.06011963,-0.16827393,-79.59375,1.46875,-39.90625,274
275,1696190588026,0.09838867,-0.19122314,-0.16998291,1.421875,2.953125,-36.078125,275
276,1696190588066,0.10107422,-0.71661377,-0.40753174,11.828125,3.734375,-28.9375,276
277,1696190588106,0.034423828,-1.1777954,-0.36016846,46.765625,-5.875,-0.359375,277
278,1696190588146,0.22338867,-0.9500122,-0.4204712,4.96875,-22.796875,4.09375,278
279,1696190588186,-0.095703125,-0.6436157,-0.27886963,-12.40625,-12.53125,0.3125,279
280,1696190588226,-0.08276367,-0.4734497,-0.27423096,-12.390625,-6.25,8.609375,280
281,1696190588266,0.013671875,-0.3508911,-0.27423096,-11.046875,-7.8125,26.96875,281
282,1696190588306,0.111572266,-0.40142822,-0.20196533,41.78125,5.125,39.90625,282
283,1696190588346,0.3125,-0.41583252,-0.18292236,-21.265625,-19.484375,33.015625,283
284,1696190588386,-0.17553711,-0.09576416,-0.18658447,1.28125,-14.953125,43.3125,284
285,1696190588426,0.21142578,-0.20343018,-0.2390747,65.953125,1.859375,51.359375,285
286,1696190588466,0.4387207,-0.59552,-0.4680786,102.28125,-20.734375,38.25,286
287,1696190588506,0.7290039,-0.9849243,-0.5281372,90.796875,-30.234375,34.265625,287
288,1696190588546,-0.103759766,-1.0559692,-0.538147,5.09375,-14.703125,-14.796875,288
289,1696190588586,-0.20458984,-0.661438,-0.52716064,-67.546875,14.265625,-6.578125,289
300,1696190588626,-0.061523438,-0.2588501,-0.003967285,6.25,3.234375,18.921875,300
301,1696190588666,0.38427734,-0.5615845,0.14666748,47.703125,-12.1875,14.046875,301
302,1696190588706,0.32983398,-0.90631104,-0.11260986,77.046875,-32.71875,15.9375,302
303,1696190588746,-0.07861328,-1.3189087,-0.29083252,82.203125,-42.359375,16.46875,303
304,1696190588786,-0.5734863,-1.4666138,-0.6514282,47.140625,-51.390625,43.90625,304
305,1696190588826,0.07446289,-1.4902954,-0.456604,52.453125,-31.109375,60.578125,305
306,1696190588866,0.54248047,-1.2752075,-0.973938,33.609375,-25.109375,51.109375,306
307,1696190588906,0.85595703,-0.7371216,-1.5698853,-13.6875,-19.171875,74.796875,307
308,1696190588946,1.999939,-0.86383057,-0.27008057,-12.9375,-7.71875,54.375,308
309,1696190588986,0.34936523,-0.9439087,-0.67755127,105.703125,3.09375,33.453125,309
310,1696190589026,0.59521484,-0.6856079,-0.81573486,24.78125,3.578125,10.15625,310
311,1696190589066,0.6833496,-0.8140259,-0.614563,12.53125,2.796875,6.1875,311
312,1696190589106,0.5090332,-0.5405884,-0.7456665,-2.3125,7.296875,-9.875,312
313,1696190589146,0.47973633,-0.4673462,-0.68463135,-7.1875,19.0,-32.75,313
314,1696190589186,0.43286133,-0.6699829,-0.51934814,-11.46875,26.078125,-32.671875,314
315,1696190589226,0.2607422,-0.6658325,-0.43048096,-23.75,29.1875,-33.265625,315
316,1696190589266,0.16455078,-0.52471924,-0.36749268,-54.15625,25.703125,-46.21875,316
317,1696190589306,0.27416992,-0.47442627,-0.24859619,-61.921875,28.09375,-42.109375,317
318,1696190589346,0.095703125,-0.4524536,-0.2539673,-65.15625,22.03125,-54.6875,318
319,1696190589386,0.10571289,-0.50494385,-0.23028564,-72.875,21.984375,-39.84375,319
320,1696190589426,0.27856445,-0.5210571,-0.25567627,-42.34375,25.4375,-35.109375,320
321,1696190589466,0.32836914,-0.661438,-0.22711182,-21.40625,12.0,-27.875,321
322,1696190589506,0.16040039,-0.7979126,-0.2942505,-15.421875,2.3125,-19.640625,322
323,1696190589546,0.080322266,-0.69244385,-0.29107666,-17.078125,-3.109375,-23.109375,323
324,1696190589586,0.009277344,-0.6968384,-0.32647705,-14.328125,3.515625,-11.90625,324
325,1696190589626,0.11254883,-0.66412354,-0.21905518,-6.703125,6.3125,-0.09375,325
326,1696190589666,0.0107421875,-0.5667114,-0.2732544,-1.140625,2.71875,8.59375,326
327,1696190589706,0.11352539,-0.40533447,-0.28570557,12.375,2.921875,27.0625,327
328,1696190589746,0.18261719,-0.33551025,-0.25201416,12.03125,-5.671875,28.859375,328
329,1696190589786,-0.016357422,-0.23834229,-0.2666626,30.984375,-10.484375,29.078125,329
330,1696190589826,0.14770508,-0.39068604,-0.117004395,40.09375,7.109375,51.640625,330
331,1696190589866,-0.068115234,-0.3352661,-0.35821533,70.5,-7.3125,40.09375,331
332,1696190589906,0.49731445,-0.45098877,-0.49908447,109.46875,-3.734375,60.734375,332
333,1696190589946,0.6791992,-0.8135376,-0.68756104,111.578125,-18.65625,32.25,333
334,1696190589986,0.45214844,-0.7053833,-0.9133911,38.875,-6.921875,25.21875,334
335,1696190590026,0.47192383,-0.8262329,-0.4680786,-46.34375,-6.765625,3.078125,335
336,1696190590066,0.30419922,-0.47052002,-0.6526489,25.46875,-7.96875,-14.484375,336
337,1696190590106,0.6765137,-0.6350708,-0.6807251,-46.0,-6.984375,-29.046875,337
338,1696190590146,0.48364258,-1.4077759,-0.76226807,9.125,-15.015625,-32.125,338
339,1696190590186,0.8366699,-1.609436,-1.1797485,-63.875,-25.78125,-27.15625,339
340,1696190590226,0.16186523,-1.1409302,-0.7774048,-105.46875,7.015625,-50.296875,340
341,1696190590266,0.15063477,-1.8687134,-0.38311768,-8.234375,4.375,-61.359375,341
342,1696190590306,-0.19482422,-1.881897,-0.49786377,-23.234375,-1.296875,-32.8125,342
343,1696190590346,-0.4855957,-1.322815,-0.35406494,4.625,31.03125,-10.109375,343
344,1696190590386,-0.5197754,-0.90045166,-0.47564697,11.953125,32.203125,-10.140625,344
345,1696190590426,-0.064453125,-0.5598755,-0.070373535,-58.421875,14.203125,-1.328125,345
346,1696190590466,0.39404297,-0.34820557,0.025817871,-39.265625,0.171875,11.359375,346
347,1696190590506,-0.019042969,-0.51763916,-0.04473877,45.484375,-17.75,14.28125,347
348,1696190590546,-0.11816406,-0.7473755,-0.13140869,37.375,-18.53125,30.640625,348
349,1696190590586,-0.053222656,-0.7876587,-0.20953369,49.203125,-20.875,31.015625,349
350,1696190590626,-0.23266602,-0.87335205,-0.41192627,61.1875,-19.46875,56.546875,350
351,1696190590666,0.1418457,-1.6182251,-0.4331665,23.9375,-36.328125,52.90625,351
352,1696190590706,1.5339355,-0.40411377,-1.4436646,47.375,-13.859375,118.21875,352
353,1696190590746,1.1828613,-1.3269653,-1.0183716,35.5625,-29.125,25.890625,353
354,1696190590786,0.8076172,-0.8530884,-1.03302,11.0625,-18.109375,38.078125,354
355,1696190590826,0.9499512,-0.630188,-0.62286377,15.390625,-22.46875,20.734375,355
356,1696190590866,0.72924805,-0.645813,-0.644104,68.28125,-12.296875,21.28125,356
357,1696190590906,0.703125,-0.77838135,-0.6934204,19.59375,-3.171875,15.546875,357
358,1696190590946,0.74438477,-0.53570557,-0.6008911,-13.703125,2.5,-1.28125,358
359,1696190590986,0.7922363,-0.48760986,-0.55181885,-32.53125,-0.421875,-29.625,359
360,1696190591026,0.5739746,-0.6511841,-0.62042236,-4.3125,6.859375,-32.9375,360
361,1696190591066,0.6911621,-0.5901489,-0.628479,-10.5625,11.609375,-38.203125,361
362,1696190591106,0.46142578,-0.6729126,-0.39019775,-20.3125,19.09375,-45.015625,362
363,1696190591146,0.3347168,-0.61798096,-0.44439697,-39.6875,20.546875,-56.296875,363
364,1696190591186,0.3322754,-0.51641846,-0.28009033,-49.96875,26.375,-46.046875,364
365,1696190591226,0.3347168,-0.3430786,-0.30645752,-58.859375,26.265625,-54.25,365
366,1696190591266,0.27172852,-0.33551025,-0.22418213,-49.125,25.109375,-53.921875,366
367,1696190591306,0.2619629,-0.38897705,-0.20928955,-51.296875,22.75,-48.203125,367
368,1696190591346,0.23876953,-0.39678955,-0.3008423,-25.796875,21.515625,-45.0,368
369,1696190591386,0.11206055,-0.55718994,-0.32940674,-16.765625,13.375,-30.4375,369
370,1696190591426,0.15917969,-0.7307739,-0.39678955,-10.703125,10.09375,-23.921875,370
371,1696190591466,0.24487305,-0.8953247,-0.38970947,-14.921875,8.4375,-9.84375,371
372,1696190591506,0.21655273,-0.75665283,-0.29107666,-14.953125,2.796875,-7.203125,372
373,1696190591546,0.12768555,-0.6914673,-0.26348877,-6.84375,7.015625,3.796875,373
374,1696190591586,0.21899414,-0.6008911,-0.32574463,8.640625,6.015625,17.546875,374
375,1696190591626,0.29663086,-0.5823364,-0.21295166,8.625,-3.703125,27.625,375
376,1696190591666,0.095947266,-0.56500244,-0.12359619,18.46875,-8.71875,16.734375,376
377,1696190591706,-0.067871094,-0.40289307,-0.2678833,25.78125,-7.34375,21.953125,377
378,1696190591746,0.23876953,-0.31915283,-0.19146729,17.109375,4.640625,43.5625,378
379,1696190591786,0.2055664,-0.3320923,-0.38531494,59.109375,9.921875,47.609375,379
380,1696190591826,0.46704102,-0.3279419,-0.6013794,85.734375,-10.46875,54.203125,380
381,1696190591866,0.41992188,-0.6326294,-0.44781494,77.53125,-18.5625,23.921875,381
382,1696190591906,0.13232422,-0.65802,-0.7439575,61.734375,-25.328125,29.265625,382
383,1696190591946,0.5842285,-0.81622314,-0.6616821,9.765625,-6.6875,19.140625,383
384,1696190591986,0.71606445,-0.6084595,-0.7251587,2.484375,-20.375,3.046875,384
385,1696190592026,0.6887207,-0.6812134,-0.5042114,-31.890625,-20.3125,-26.625,385
386,1696190592066,-0.029052734,-0.6904907,-0.69659424,-57.390625,-11.421875,-34.0625,386
387,1696190592106,0.45214844,-1.1958618,-0.31671143,-54.671875,-6.4375,-72.046875,387
388,1696190592146,0.14355469,-1.5601196,-0.9417114,11.09375,8.265625,-55.78125,388
389,1696190592186,0.29492188,-1.576477,-0.8821411,-62.71875,16.4375,-44.21875,389
390,1696190592226,-0.020507812,-1.925354,-0.661438,19.1875,11.21875,-47.296875,390
391,1696190592266,0.052490234,-1.7178345,-0.9710083,27.03125,15.5,13.96875,391
392,1696190592306,-0.08154297,-1.2332153,-0.80133057,-14.5,34.9375,-8.03125,392
393,1696190592346,-0.33203125,-0.79937744,-0.19537354,-51.546875,12.3125,-0.921875,393
394,1696190592386,0.037109375,-0.6174927,-0.08477783,-40.78125,9.4375,-4.71875,394
395,1696190592426,0.20385742,-0.42974854,-0.11602783,-33.71875,-0.140625,12.046875,395
396,1696190592466,0.12011719,-0.49908447,0.059753418,-8.0625,-13.5625,19.546875,396
397,1696190592506,-0.23632812,-0.6157837,-0.12750244,34.734375,-10.96875,14.328125,397
398,1696190592546,0.067871094,-0.81988525,-0.12628174,26.65625,-20.8125,26.484375,398
399,1696190592586,0.24072266,-0.8179321,-0.18145752,35.796875,-25.453125,31.125,399
400,1696190592626,-0.17114258,-1.2891235,-0.6321411,59.890625,-38.21875,46.640625,400
401,1696190592666,0.24047852,-1.3787231,-0.53912354,19.0,-26.15625,70.5,401
402,1696190592706,0.8811035,-1.3633423,-0.9507446,36.109375,16.0,70.765625,402
403,1696190592746,1.3994141,-0.31695557,-1.1184692,19.546875,0.359375,52.90625,403
404,1696190592786,0.84814453,-1.0210571,-0.94122314,-25.328125,-24.140625,29.453125,404
405,1696190592826,0.7998047,-0.67974854,-0.71295166,25.953125,1.921875,19.640625,405
406,1696190592866,0.7175293,-0.75128174,-0.59747314,6.65625,3.1875,1.484375,406
407,1696190592906,0.6723633,-0.72125244,-0.55133057,21.46875,10.609375,9.921875,407
408,1696190592946,0.7253418,-0.55792236,-0.62750244,6.875,10.84375,-13.890625,408
409,1696190592986,0.65356445,-0.60235596,-0.5293579,-23.890625,12.5,-33.453125,409
410,1696190593026,0.41796875,-0.5586548,-0.5288696,-28.78125,14.96875,-45.890625,410
411,1696190593066,0.1381836,-0.45806885,-0.49884033,-21.15625,23.078125,-53.015625,411
412,1696190593106,0.2446289,-0.48516846,-0.44488525,-23.453125,20.546875,-43.359375,412
413,1696190593146,0.3762207,-0.4680786,-0.37335205,-29.765625,21.09375,-47.109375,413
414,1696190593186,0.24023438,-0.38604736,-0.28863525,-42.53125,14.859375,-43.96875,414
415,1696190593226,0.26049805,-0.40826416,-0.33087158,-21.421875,11.796875,-45.375,415
416,1696190593266,0.24291992,-0.440979,-0.31988525,-36.328125,10.28125,-36.015625,416
417,1696190593306,0.24584961,-0.37799072,-0.32696533,-19.734375,7.640625,-33.890625,417
418,1696190593346,0.18945312,-0.43121338,-0.41290283,-6.46875,6.546875,-26.921875,418
419,1696190593386,0.087402344,-0.65216064,-0.46124268,-3.296875,9.609375,-13.671875,419
420,1696190593426,0.16015625,-0.8545532,-0.3616333,-2.453125,4.265625,7.90625,420
421,1696190593466,0.19018555,-0.7449341,-0.33355713,9.59375,-4.09375,18.578125,421
422,1696190593506,0.27294922,-0.5293579,-0.29571533,6.65625,-4.0625,23.109375,422
423,1696190593546,0.15893555,-0.46246338,-0.26055908,-13.625,-3.5,19.0,423
424,1696190593586,-0.036376953,-0.24639893,-0.26080322,2.0625,-6.5625,37.890625,424
425,1696190593626,0.28637695,-0.3772583,-0.2498169,35.609375,-3.078125,42.703125,425
426,1696190593666,0.4267578,-0.57281494,-0.3477173,59.390625,-12.625,34.4375,426
427,1696190593706,0.30810547,-0.6326294,-0.49591064,47.953125,-18.609375,37.9375,427
428,1696190593746,0.34448242,-0.64068604,-0.40216064,6.90625,-14.25,32.765625,428
429,1696190593786,0.3046875,-0.489563,-0.48345947,13.203125,-16.828125,24.375,429
430,1696190593826,0.65966797,-0.6148071,-0.5466919,23.171875,-8.96875,25.84375,430
431,1696190593866,0.6755371,-0.831604,-0.5664673,27.3125,-9.515625,-2.515625,431
432,1696190593906,0.49926758,-0.9241333,-0.5420532,-34.84375,-3.453125,-44.5,432
433,1696190593946,0.052978516,-0.6709595,-0.53082275,-55.90625,1.78125,-61.140625,433
434,1696190593986,0.1665039,-1.1101685,-0.29351807,-26.40625,17.828125,-49.671875,434
435,1696190594026,0.06591797,-1.5471802,-0.59039307,41.265625,16.203125,-59.59375,435
436,1696190594066,-0.14453125,-1.2376099,-0.9751587,-33.625,7.0,-25.828125,436
437,1696190594106,0.5710449,-1.9048462,-0.72320557,-10.140625,13.28125,-37.75,437
438,1696190594146,-0.15356445,-1.8865356,-0.97247314,-50.796875,19.78125,-7.796875,438
439,1696190594186,-0.4970703,-1.2781372,-0.3201294,-58.078125,24.171875,9.390625,439
440,1696190594226,-0.16918945,-0.81744385,-0.124816895,-36.28125,23.8125,-27.921875,440
441,1696190594266,-0.11206055,-0.5142212,0.21868896,-33.140625,-0.3125,9.71875,441
442,1696190594306,-0.004638672,-0.38702393,0.03387451,-21.8125,-1.6875,12.109375,442
443,1696190594346,-0.013916016,-0.6487427,0.12200928,-17.0625,2.84375,8.859375,443
444,1696190594386,-0.107910156,-0.7876587,0.024108887,13.015625,-13.96875,18.703125,444
445,1696190594426,-0.13769531,-0.8154907,0.027282715,40.9375,-16.15625,30.109375,445
446,1696190594466,-0.16723633,-1.0366821,-0.18927002,68.671875,-18.40625,30.671875,446
447,1696190594506,0.037841797,-1.3711548,-0.6380005,17.203125,-30.9375,54.09375,447
448,1696190594546,0.14624023,-1.5066528,-0.39483643,-32.828125,-28.515625,64.015625,448
449,1696190594586,0.67333984,-1.670227,-0.52838135,-14.359375,8.390625,63.328125,449
450,1696190594626,1.999939,-0.5947876,-1.0083618,-15.625,0.6875,59.296875,450
451,1696190594666,0.60253906,-1.0940552,-0.7918091,39.390625,-13.59375,22.3125,451
452,1696190594706,0.95288086,-0.8076782,-0.5059204,35.078125,-2.03125,46.53125,452
453,1696190594746,0.6672363,-0.6626587,-0.37628174,117.21875,4.609375,25.515625,453
454,1696190594786,0.58081055,-0.86920166,-0.73443604,76.234375,-6.0625,17.90625,454
455,1696190594826,0.52001953,-0.8501587,-0.5576782,-7.8125,7.609375,5.65625,455
456,1696190594866,0.51904297,-0.63165283,-0.5549927,-20.859375,15.515625,-27.890625,456
457,1696190594906,0.66186523,-0.6970825,-0.51885986,-9.359375,8.9375,-31.375,457
458,1696190594946,0.4416504,-0.7246704,-0.43536377,-18.453125,12.96875,-54.515625,458
459,1696190594986,0.17407227,-0.6226196,-0.42364502,-48.4375,17.5,-49.390625,459
460,1696190595026,0.1237793,-0.5298462,-0.27105713,-96.296875,18.890625,-41.0625,460
461,1696190595066,0.2578125,-0.36138916,-0.20196533,-90.65625,19.875,-52.859375,461
462,1696190595106,0.29467773,-0.23468018,-0.20684814,-45.859375,19.84375,-56.359375,462
463,1696190595146,0.04272461,-0.37872314,-0.27423096,1.375,40.984375,-54.6875,463
464,1696190595186,0.01171875,-0.65289307,-0.23272705,-2.875,42.765625,-26.625,464
465,1696190595226,0.19702148,-0.7871704,-0.3538208,21.734375,45.453125,-14.328125,465
466,1696190595266,0.57299805,-0.8323364,-0.47613525,-25.640625,16.671875,-9.890625,466
467,1696190595306,0.39013672,-0.5383911,-0.2852173,-44.984375,-8.34375,-12.390625,467
468,1696190595346,-0.09765625,-0.5354614,-0.3567505,11.140625,-8.75,-10.375,468
469,1696190595386,0.19213867,-0.6987915,-0.24713135,-1.78125,-12.8125,6.046875,469
470,1696190595426,0.18359375,-0.7527466,-0.18585205,7.609375,-14.765625,0.625,470
471,1696190595466,-0.051513672,-0.42340088,-0.27301025,15.734375,-17.765625,10.375,471
472,1696190595506,0.045654297,-0.32647705,-0.2078247,-0.953125,-13.6875,25.0625,472
473,1696190595546,0.048828125,-0.28277588,-0.25860596,45.859375,-8.734375,40.734375,473
474,1696190595586,0.3178711,-0.4126587,-0.44122314,77.171875,-19.84375,54.703125,474
475,1696190595626,0.68725586,-0.80303955,-0.51275635,105.140625,-27.46875,55.09375,475
476,1696190595666,0.42651367,-1.086731,-0.6187134,71.984375,-38.703125,17.65625,476
477,1696190595706,0.14697266,-0.75128174,-0.68756104,23.375,-22.921875,19.25,477
478,1696190595746,0.41479492,-0.6182251,-0.5027466,-20.09375,-18.109375,24.46875,478
486,1696190595786,0.8395996,-1.3591919,-0.8530884,13.796875,-2.4375,-22.765625,486
487,1696190595826,0.39453125,-1.8230591,-1.0886841,35.921875,-6.90625,-10.15625,487
488,1696190595866,-0.38989258,-1.4243774,-0.6694946,-36.734375,27.390625,14.859375,488
489,1696190595906,-0.56591797,-0.9038696,-0.37750244,-41.3125,24.578125,0.859375,489
490,1696190595946,0.13720703,-0.5220337,-0.11114502,-57.765625,14.3125,-3.28125,490
491,1696190595986,0.33251953,-0.44293213,0.10736084,-40.375,-1.4375,7.296875,491
492,1696190596026,-0.095947266,-0.39727783,-0.06500244,45.75,-8.71875,10.46875,492
493,1696190596066,-0.05859375,-0.76690674,-0.13214111,33.640625,-21.234375,17.078125,493
494,1696190596106,0.18481445,-0.8401489,-0.29327393,-14.875,-14.75,21.375,494
495,1696190596146,0.12695312,-1.0403442,-0.30499268,22.71875,-30.828125,18.203125,495
496,1696190596186,-0.038085938,-1.3223267,-0.21588135,8.515625,-47.125,63.25,496
497,1696190596226,0.54052734,-1.1109009,-0.94903564,54.171875,2.390625,103.5,497
498,1696190596266,1.999939,-0.48150635,-1.123352,104.671875,-5.921875,121.84375,498
499,1696190596306,0.8222656,-1.109436,-0.9795532,0.46875,-25.84375,-2.25,499
500,1696190596346,0.8527832,-0.67266846,-0.4932251,-8.828125,-21.859375,52.59375,500
501,1696190596386,0.8166504,-0.6213989,-0.54766846,43.1875,-12.875,29.96875,501
502,1696190596426,0.81640625,-0.63531494,-0.45025635,60.8125,0.65625,5.3125,502
503,1696190596466,0.6328125,-0.79888916,-0.55841064,18.671875,4.875,-1.34375,503
504,1696190596506,0.66381836,-0.5586548,-0.4631958,-26.34375,10.171875,-25.359375,504
505,1696190596546,0.6489258,-0.44854736,-0.57891846,11.921875,11.984375,-34.75,505
506,1696190596586,0.6948242,-0.6553345,-0.42364502,-4.59375,12.4375,-36.84375,506
507,1696190596626,0.4296875,-0.50445557,-0.49493408,-18.15625,14.34375,-49.84375,507
508,1696190596666,0.28442383,-0.5671997,-0.45391846,-20.5625,18.984375,-43.171875,508
509,1696190596706,0.36328125,-0.6194458,-0.38067627,-40.90625,20.46875,-48.640625,509
510,1696190596746,0.19750977,-0.4265747,-0.3760376,-45.34375,23.578125,-47.03125,510
511,1696190596786,0.28320312,-0.3435669,-0.31988525,-23.8125,25.609375,-44.390625,511
512,1696190596826,0.40478516,-0.38116455,-0.3694458,-14.109375,23.90625,-39.59375,512
513,1696190596866,0.37353516,-0.44000244,-0.30841064,-13.890625,14.109375,-33.28125,513
514,1696190596906,0.24438477,-0.51934814,-0.362854,-2.515625,4.609375,-25.921875,514
515,1696190596946,0.16333008,-0.5274048,-0.44488525,0.3125,8.796875,-11.765625,515
516,1696190596986,0.17211914,-0.45196533,-0.17926025,-26.34375,6.484375,-3.859375,516
517,1696190597026,0.23217773,-0.30474854,-0.37408447,-37.0625,4.84375,5.328125,517
518,1696190597066,0.24194336,-0.24005127,-0.25909424,-0.4375,3.203125,20.0,518
519,1696190597106,0.38452148,-0.44024658,-0.2053833,31.46875,-4.75,33.65625,519
520,1696190597146,0.18969727,-0.34014893,-0.25616455,11.171875,-20.796875,21.515625,520
521,1696190597186,-0.040527344,-0.3652954,-0.362854,48.0625,-14.59375,38.625,521
522,1696190597226,0.40649414,-0.35577393,-0.4360962,44.453125,-21.984375,36.96875,522
523,1696190597266,0.64208984,-0.6958618,-0.55010986,72.609375,-13.625,33.78125,523
524,1696190597306,0.59472656,-0.8887329,-0.51031494,31.40625,-9.8125,4.515625,524
525,1696190597346,0.5612793,-0.8723755,-0.62213135,0.953125,-9.40625,-11.828125,525
526,1696190597386,0.31323242,-0.61383057,-0.6248169,-11.609375,-0.4375,-19.9375,526
527,1696190597426,0.5415039,-0.53692627,-0.5003052,-57.03125,6.8125,-26.390625,527
528,1696190597466,0.45874023,-0.6404419,-0.39605713,-12.015625,1.5,-28.484375,528
529,1696190597506,0.6308594,-1.6245728,-0.7144165,26.015625,5.65625,-65.921875,529
530,1696190597546,-0.1928711,-1.6636353,-0.75128174,-56.609375,17.21875,-62.421875,530
531,1696190597586,0.27734375,-1.2874146,-0.62164307,-44.203125,32.578125,-5.859375,531
532,1696190597626,-0.06958008,-1.7815552,-0.49468994,-41.203125,21.96875,-55.53125,532
533,1696190597666,-0.36938477,-1.750061,-0.56988525,-24.53125,-0.1875,-18.609375,533
534,1696190597706,-0.23632812,-1.223938,-0.34429932,-19.546875,44.859375,-37.0,534
535,1696190597746,-0.26782227,-0.7288208,-0.13677979,-36.140625,21.296875,-13.34375,535
536,1696190597786,-0.09423828,-0.5730591,0.059753418,-27.34375,19.984375,-16.765625,536
537,1696190597826,-0.14160156,-0.5869751,-0.021057129,-19.75,4.609375,-2.984375,537
538,1696190597866,-0.16992188,-0.50982666,0.08441162,-10.734375,-1.53125,10.453125,538
539,1696190597906,-0.049316406,-0.6643677,0.06512451,27.265625,-8.640625,19.109375,539
540,1696190597946,-0.034423828,-1.0110474,0.00579834,39.203125,-12.9375,21.96875,540
541,1696190597986,-0.15136719,-1.1397095,-0.16607666,42.796875,-19.1875,22.5,541
542,1696190598026,-0.15820312,-1.0774536,-0.20684814,34.109375,-14.515625,29.0,542
543,1696190598066,-0.11767578,-1.22052,-0.27398682,44.765625,-24.25,48.21875,543
544,1696190598106,-0.22265625,-1.1160278,-0.47198486,8.890625,-24.671875,61.09375,544
545,1696190598146,0.010986328,-0.942688,-0.27764893,26.15625,-25.28125,63.640625,545
546,1696190598186,0.1977539,-1.0769653,-0.62213135,91.921875,-19.453125,65.03125,546
547,1696190598226,0.82666016,-1.0376587,-1.0615845,-2.046875,-35.140625,52.484375,547
548,1696190598266,1.8886719,-0.58673096,-0.74102783,-46.9375,-25.9375,34.296875,548
549,1696190598306,0.5834961,-0.93341064,-0.70635986,97.53125,-35.859375,6.796875,549
550,1696190598346,0.77197266,-0.6482544,-0.8213501,1.8125,-11.75,32.25,550
551,1696190598386,0.8625488,-0.61676025,-0.43145752,30.46875,2.71875,10.0,551
552,1696190598426,0.6484375,-0.6716919,-0.71099854,2.953125,7.40625,9.765625,552
553,1696190598466,0.6994629,-0.5108032,-0.50616455,12.21875,9.984375,8.15625,553
554,1696190598506,0.6936035,-0.58258057,-0.60162354,36.71875,13.046875,-18.0625,554
555,1696190598546,0.5566406,-0.64312744,-0.5913696,-6.671875,14.890625,-24.84375,555
556,1696190598586,0.4321289,-0.54034424,-0.4915161,-34.03125,18.359375,-39.3125,556
557,1696190598626,0.19970703,-0.47491455,-0.45367432,-53.625,23.609375,-47.359375,557
558,1696190598666,0.27514648,-0.49517822,-0.2937622,-53.828125,21.5625,-46.78125,558
559,1696190598706,0.25170898,-0.4776001,-0.37286377,-27.34375,20.640625,-44.453125,559
560,1696190598746,0.3552246,-0.5352173,-0.37554932,-25.3125,21.046875,-37.625,560
561,1696190598786,0.35180664,-0.75909424,-0.45806885,-61.234375,8.453125,-72.1875,561
562,1696190598826,0.27807617,-0.6531372,-0.37335205,-18.25,26.21875,-23.21875,562
563,1696190598866,0.30444336,-0.5820923,-0.30914307,-53.046875,22.421875,-40.015625,563
564,1696190598906,0.091552734,-0.35284424,-0.2390747,-58.390625,21.265625,-37.75,564
565,1696190598946,0.16259766,-0.41705322,-0.16778564,-20.53125,17.859375,-22.0625,565
566,1696190598986,0.15795898,-0.67926025,-0.31011963,14.609375,5.9375,-4.671875,566
567,1696190599026,0.21166992,-0.8496704,-0.33770752,14.9375,8.203125,6.921875,567
568,1696190599066,0.1850586,-0.725647,-0.20733643,-19.171875,9.703125,0.71875,568
569,1696190599106,-0.111816406,-0.20977783,-0.17242432,-89.34375,4.109375,9.9375,569
570,1696190599146,0.08325195,0.074645996,-0.09552002,-17.21875,17.65625,43.015625,570
571,1696190599186,0.53759766,-0.120910645,-0.0015258789,65.375,-5.625,48.4375,571
572,1696190599226,0.40234375,-0.4212036,-0.37554932,148.875,-35.015625,47.359375,572
573,1696190599266,0.26513672,-0.7703247,-0.5874634,112.90625,-32.734375,28.125,573
574,1696190599306,0.27807617,-1.0432739,-0.6067505,33.203125,-28.1875,16.65625,574
575,1696190599346,0.32836914,-1.0393677,-0.5574341,29.140625,1.109375,12.671875,575
576,1696190599386,0.22314453,-0.56329346,-0.47149658,-45.234375,-1.296875,-15.21875,576
577,1696190599426,0.35058594,-0.35455322,-0.38653564,-28.03125,8.234375,-18.546875,577
578,1696190599466,0.54418945,-0.8430786,-0.40338135,20.203125,-9.796875,-12.84375,578
579,1696190599506,0.18286133,-2.0,-1.1428833,45.84375,21.015625,-86.265625,579
580,1696190599546,-0.4892578,-1.5078735,-0.5112915,-121.734375,29.515625,-16.296875,580
581,1696190599586,-0.076660156,-1.7258911,-0.68414307,-112.515625,1.640625,-61.0,581
582,1696190599626,-0.12890625,-1.8369751,-0.15167236,-85.1875,-4.078125,-3.6875,582
583,1696190599666,-0.5708008,-1.3555298,0.06512451,51.03125,56.109375,-10.015625,583
584,1696190599706,-0.7270508,-1.1155396,-0.20196533,30.640625,22.953125,-2.84375,584
585,1696190599746,0.16674805,-0.76104736,-0.019836426,-49.640625,14.578125,5.109375,585
586,1696190599786,0.24560547,-0.45025635,0.18865967,-62.796875,-2.234375,-7.328125,586
587,1696190599826,-0.20605469,-0.2859497,0.018737793,24.8125,-5.328125,12.65625,587
588,1696190599866,-0.013183594,-0.55914307,0.016540527,43.765625,-2.890625,16.75,588
589,1696190599906,0.1274414,-0.77008057,0.0099487305,20.671875,-11.359375,25.71875,589
590,1696190599946,0.16992188,-0.9727173,0.07513428,29.4375,-23.71875,21.53125,590
591,1696190599986,-0.27929688,-1.159729,-0.25006104,67.75,-27.203125,36.234375,591
592,1696190600026,-0.16186523,-1.329895,-0.3899536,58.578125,-27.921875,63.859375,592
593,1696190600066,0.26757812,-1.3545532,-0.5906372,79.484375,-16.109375,69.3125,593
594,1696190600106,0.5812988,-1.2417603,-0.9956665,34.0,-23.96875,51.53125,594
595,1696190600146,1.1015625,-0.10357666,-1.4519653,-31.453125,-37.34375,84.703125,595
596,1696190600186,0.7192383,-1.1187134,-0.23687744,53.59375,-42.328125,-12.0,596
597,1696190600226,0.5131836,-0.9282837,-1.380188,104.96875,13.34375,48.328125,597
598,1696190600266,0.6838379,-0.64556885,-0.3616333,-51.125,9.28125,-7.359375,598
599,1696190600306,0.7844238,-0.7295532,-0.5256958,40.921875,5.296875,2.03125,599
600,1696190600346,0.6496582,-0.7966919,-0.63165283,-2.03125,11.265625,-12.203125,600
601,1696190600386,0.55737305,-0.5906372,-0.6055298,0.59375,9.09375,-32.234375,601
602,1696190600426,0.34936523,-0.62457275,-0.6511841,-6.28125,22.546875,-33.375,602
603,1696190600466,0.34423828,-0.58721924,-0.5105591,-25.171875,23.65625,-30.96875,603
604,1696190600506,0.34545898,-0.6380005,-0.4434204,-26.953125,27.390625,-35.609375,604
605,1696190600546,0.30688477,-0.68096924,-0.34161377,-54.3125,27.75,-41.125,605
606,1696190600586,0.11352539,-0.4216919,-0.31329346,-92.625,21.109375,-47.578125,606
607,1696190600626,0.18701172,-0.26885986,-0.27252197,-68.765625,21.921875,-46.1875,607
608,1696190600666,0.118896484,-0.30963135,-0.22906494,-31.671875,20.359375,-45.984375,608
609,1696190600706,0.19360352,-0.57476807,-0.333313,5.140625,16.421875,-34.296875,609
610,1696190600746,0.22265625,-0.93292236,-0.33673096,32.34375,9.21875,-20.453125,610
611,1696190600786,0.26586914,-1.0032349,-0.39971924,-16.015625,-6.171875,-9.78125,611
612,1696190600826,0.07446289,-0.53570557,-0.3201294,-40.25,-8.578125,-20.125,612
613,1696190600866,0.057861328,-0.39678955,-0.33599854,-56.34375,4.34375,-18.0625,613
614,1696190600906,0.09448242,-0.49835205,-0.13531494,-3.46875,-2.921875,9.390625,614
615,1696190600946,0.1274414,-0.736145,-0.18658447,19.828125,0.859375,21.171875,615
616,1696190600986,0.07348633,-0.36065674,-0.23712158,-42.6875,-11.0,4.65625,616
617,1696190601026,-0.08886719,0.13885498,-0.17022705,-74.328125,-1.140625,25.546875,617
618,1696190601066,0.19018555,0.14520264,-0.14068604,77.0,-1.15625,49.125,618
619,1696190601106,0.40551758,-0.47418213,-0.35821533,176.28125,-14.640625,45.28125,619
620,1696190601146,0.56811523,-1.0215454,-0.8533325,153.5,-16.421875,43.59375,620
621,1696190601186,0.50219727,-1.1484985,-0.6734009,-4.203125,-21.59375,20.4375,621
622,1696190601226,0.0017089844,-0.7202759,-0.6109009,-35.46875,-15.75,11.234375,622
623,1696190601266,0.5205078,-0.6397095,-0.38336182,-44.609375,-0.03125,9.234375,623
624,1696190601306,0.3310547,-0.48468018,-0.23321533,-30.46875,-9.96875,-12.1875,624
625,1696190601346,0.37939453,-0.93414307,-0.506897,107.234375,-14.265625,-8.609375,625
626,1696190601386,0.023925781,-2.0,-1.4546509,20.578125,16.25,-95.5625,626
627,1696190601426,-0.118652344,-1.3938599,-1.0718384,-107.328125,2.671875,-17.359375,627
628,1696190601466,0.42163086,-1.9942017,-0.71466064,-50.34375,8.3125,-63.015625,628
629,1696190601506,-0.24121094,-1.9502563,-0.44952393,-107.109375,2.109375,-12.40625,629
630,1696190601546,-0.45483398,-1.4624634,-0.08721924,21.0625,39.65625,-10.6875,630
631,1696190601586,-0.53149414,-1.0357056,-0.2546997,-9.484375,21.375,-9.21875,631
632,1696190601626,-0.06518555,-0.5454712,0.12908936,-92.65625,8.15625,-10.4375,632
633,1696190601666,-0.014404297,-0.36749268,0.19476318,-20.625,-4.765625,-8.859375,633
634,1696190601706,-0.021972656,-0.4920044,-0.15289307,50.875,-3.796875,9.9375,634
635,1696190601746,-0.035888672,-0.6885376,0.10345459,-17.15625,-8.609375,9.90625,635
636,1696190601786,0.115478516,-0.72906494,0.09906006,45.515625,-7.828125,37.796875,636
637,1696190601826,-0.10839844,-1.038147,-0.077941895,76.53125,-22.46875,29.578125,637
638,1696190601866,-0.28198242,-1.2263794,-0.26275635,80.4375,-21.90625,45.6875,638
639,1696190601906,0.09814453,-1.2236938,-0.54156494,68.921875,-14.125,70.34375,639
640,1696190601946,0.4321289,-1.2688599,-0.7073364,83.671875,-2.0625,72.109375,640
641,1696190601986,0.81640625,-1.1765747,-1.1411743,62.140625,-20.421875,53.921875,641
642,1696190602026,1.7529297,-0.3508911,-1.2715454,-43.234375,-30.1875,71.921875,642
643,1696190602066,0.5620117,-0.95147705,-0.4734497,69.0625,-39.984375,5.484375,643
644,1696190602106,0.05810547,-1.0081177,-1.348938,-6.703125,1.890625,31.78125,644
645,1696190602146,0.75805664,-0.5708618,-0.47906494,-37.390625,1.828125,-0.375,645
646,1696190602186,0.85839844,-0.51348877,-0.68707275,33.28125,0.859375,9.609375,646
647,1696190602226,0.7155762,-0.56866455,-0.70025635,15.640625,12.703125,-5.0625,647
648,1696190602266,0.5576172,-0.5977173,-0.6331177,-9.3125,9.515625,-28.8125,648
649,1696190602306,0.36621094,-0.57354736,-0.60040283,-8.484375,16.75,-34.53125,649
650,1696190602346,0.4633789,-0.5252075,-0.5923462,-21.0625,18.5,-44.25,650
651,1696190602386,0.41259766,-0.5601196,-0.4727173,-67.09375,20.296875,-52.890625,651
652,1696190602426,0.10595703,-0.3887329,-0.37335205,-68.5625,19.421875,-64.015625,652
653,1696190602466,0.036132812,-0.38482666,-0.34381104,-50.875,39.3125,-46.828125,653
654,1696190602506,0.39135742,-0.5015259,-0.18267822,-47.140625,29.734375,-44.390625,654
655,1696190602546,0.13989258,-0.4451294,-0.28033447,-60.6875,12.296875,-44.25,655
656,1696190602586,0.10449219,-0.30255127,-0.19708252,-26.578125,8.453125,-38.265625,656
657,1696190602626,0.0949707,-0.5366821,-0.32061768,3.21875,16.109375,-30.328125,657
658,1696190602666,0.12182617,-0.7781372,-0.34576416,1.578125,13.6875,-18.09375,658
659,1696190602706,0.017089844,-0.99420166,-0.3579712,5.0,13.765625,-14.5,659
660,1696190602746,0.05078125,-0.97076416,-0.4216919,-20.609375,9.0625,-9.640625,660
661,1696190602786,-0.028076172,-0.71173096,-0.37091064,-81.265625,6.3125,-7.078125,661
662,1696190602826,0.16503906,-0.59332275,-0.10821533,-35.0,3.203125,8.0,662
663,1696190602866,0.13134766,-0.581604,-0.14727783,28.546875,4.75,21.328125,663
664,1696190602906,0.11694336,-0.36090088,-0.24468994,-0.4375,-3.765625,32.203125,664
665,1696190602946,0.13549805,-0.0491333,-0.09454346,-29.0,-9.96875,41.125,665
666,1696190602986,0.17822266,-0.070129395,-0.005432129,46.421875,-21.828125,49.296875,666
667,1696190603026,0.12060547,-0.50006104,-0.3093872,190.29688,-28.5625,50.15625,667
668,1696190603066,0.30688477,-0.9002075,-0.6189575,112.765625,-26.453125,32.09375,668
669,1696190603106,0.52319336,-0.8477173,-0.73760986,39.640625,-24.75,51.640625,669
670,1696190603146,0.5444336,-0.85113525,-0.4085083,-59.859375,-3.234375,15.84375,670
671,1696190603186,-0.22192383,-0.6692505,-0.37042236,34.53125,-12.828125,-18.796875,671
672,1696190603226,0.66308594,-0.6489868,-0.6758423,25.265625,-6.0,26.859375,672
673,1696190603266,0.70532227,-0.6304321,-0.5466919,-35.515625,-5.0,-15.84375,673
674,1696190603306,0.3803711,-0.95928955,-0.56134033,26.46875,-0.9375,-49.421875,674
675,1696190603346,0.5695801,-1.6255493,-0.8201294,-27.046875,-11.875,-42.515625,675
676,1696190603386,0.19189453,-1.5376587,-0.772522,-96.40625,-3.25,-52.796875,676
677,1696190603426,-0.0078125,-1.7874146,-0.64727783,-83.546875,9.421875,-53.03125,677
678,1696190603466,-0.30078125,-1.7073364,-0.32183838,-75.9375,16.5,-30.75,678
679,1696190603506,-0.4584961,-1.5889282,-0.023010254,40.1875,44.25,-11.5625,679
680,1696190603546,-0.46166992,-1.217102,-0.27838135,46.046875,35.546875,3.40625,680
681,1696190603586,-0.125,-0.7866821,0.06463623,-79.828125,10.75,-14.75,681
682,1696190603626,0.011474609,-0.48638916,0.11907959,-20.25,3.21875,-0.96875,682
683,1696190603666,0.0053710938,-0.72320557,-0.09698486,13.140625,0.046875,5.34375,683
684,1696190603706,-0.0068359375,-0.7168579,-0.038146973,34.0625,-5.46875,13.671875,684
685,1696190603746,0.036376953,-0.741272,-0.14361572,24.265625,-10.875,20.265625,685
686,1696190603786,0.16918945,-0.8237915,-0.12432861,37.171875,-19.125,27.453125,686
687,1696190603826,-0.034179688,-0.9314575,-0.33477783,38.640625,-21.484375,34.8125,687
688,1696190603866,-0.06225586,-1.0911255,-0.33013916,32.875,-23.3125,47.5625,688
689,1696190603906,0.10571289,-1.1394653,-0.3945923,32.15625,-24.515625,46.25,689
690,1696190603946,0.27612305,-1.4876099,-0.7271118,46.796875,-9.96875,38.25,690
691,1696190603986,1.3942871,-0.95880127,-1.0071411,-55.765625,-17.46875,43.546875,691
692,1696190604026,0.642334,-1.09552,-0.3970337,42.546875,-19.015625,25.671875,692
693,1696190604066,0.77685547,-1.0137329,-0.9898071,70.59375,-2.984375,29.15625,693
694,1696190604106,0.7385254,-0.84210205,-0.49713135,1.265625,-3.984375,33.703125,694
695,1696190604146,0.63134766,-0.79156494,-0.7451782,54.109375,2.765625,19.96875,695
696,1696190604186,0.64331055,-0.67755127,-0.56744385,0.421875,4.28125,11.546875,696
697,1696190604226,0.5966797,-0.5442505,-0.65411377,1.890625,7.484375,4.734375,697
698,1696190604266,0.63256836,-0.66119385,-0.5317993,0.625,9.84375,-13.234375,698
699,1696190604306,0.44604492,-0.6902466,-0.50201416,-17.890625,15.359375,-27.15625,699
700,1696190604346,0.19238281,-0.5252075,-0.48858643,-40.421875,17.953125,-30.015625,700
701,1696190604386,0.3046875,-0.38458252,-0.3201294,-46.171875,19.390625,-31.6875,701
702,1696190604426,0.40942383,-0.4024048,-0.26031494,-21.5625,11.40625,-38.375,702
703,1696190604466,0.3293457,-0.49639893,-0.3587036,1.359375,10.703125,-34.5,703
704,1696190604506,0.29833984,-0.6709595,-0.46124268,-7.640625,10.5,-36.78125,704
705,1696190604546,0.28735352,-0.87506104,-0.37921143,-22.234375,17.015625,-25.234375,705
706,1696190604586,0.09814453,-0.6096802,-0.39923096,-61.625,13.359375,-32.3125,706
707,1696190604626,0.07373047,-0.26153564,-0.3477173,-64.84375,20.140625,-23.65625,707
708,1696190604666,0.34887695,-0.31134033,-0.16143799,-22.046875,13.203125,-15.828125,708
709,1696190604706,0.25634766,-0.69122314,-0.31793213,43.625,-8.265625,-7.421875,709
710,1696190604746,0.25634766,-0.87335205,-0.44683838,23.484375,-1.125,-5.765625,710
711,1696190604786,0.22143555,-0.80596924,-0.43536377,1.9375,-5.296875,-9.0625,711
712,1696190604826,0.17578125,-0.7119751,-0.3682251,-15.578125,-3.5,-11.9375,712
713,1696190604866,-0.017089844,-0.53082275,-0.24298096,-17.203125,4.25,-4.15625,713
714,1696190604906,-0.0012207031,-0.33233643,-0.23931885,-17.21875,3.09375,18.515625,714
715,1696190604946,0.18701172,-0.25811768,-0.16021729,0.875,3.5625,15.625,715
716,1696190604986,0.28393555,-0.30963135,-0.1807251,30.828125,-7.921875,15.78125,716
717,1696190605026,0.32299805,-0.2835083,-0.35601807,60.203125,-28.375,25.984375,717
718,1696190605066,0.56469727,-0.6074829,-0.30426025,54.890625,-11.984375,30.953125,718
719,1696190605106,0.09838867,-0.71759033,-0.55181885,54.84375,-41.765625,-3.671875,719
720,1696190605146,0.16503906,-0.8557739,-0.6602173,6.890625,-2.953125,35.953125,720
721,1696190605186,0.6347656,-0.71881104,-0.21099854,-112.625,-15.828125,-15.890625,721
722,1696190605226,-0.13378906,-0.34576416,-0.4968872,33.109375,-8.078125,-22.53125,722
723,1696190605266,0.98217773,-1.2857056,-0.56744385,51.34375,5.53125,-2.921875,723
724,1696190605306,0.068847656,-2.0,-1.1533813,-62.71875,-9.890625,-97.8125,724
725,1696190605346,0.09448242,-1.826477,-0.43585205,-169.75,12.546875,-33.484375,725
726,1696190605386,-0.3173828,-1.6917114,-0.3189087,-23.21875,-2.015625,-56.28125,726
727,1696190605426,-0.41259766,-2.0,-0.4961548,-6.78125,24.71875,-7.09375,727
728,1696190605466,-0.65844727,-1.3215942,-0.0869751,-21.671875,60.28125,3.015625,728
729,1696190605506,-0.38989258,-0.85235596,0.07171631,-58.96875,27.53125,-9.21875,729
730,1696190605546,-0.10839844,-0.46343994,0.17938232,-55.203125,11.171875,-9.296875,730
731,1696190605586,0.09057617,-0.43634033,0.16156006,16.59375,7.3125,-2.375,731
732,1696190605626,0.052246094,-0.5496216,-0.02911377,49.375,-2.765625,13.140625,732
733,1696190605666,-0.03857422,-0.5940552,0.047058105,-5.84375,-3.265625,15.015625,733
734,1696190605706,0.028564453,-0.7119751,0.054870605,42.859375,-10.453125,25.765625,734
735,1696190605746,0.125,-1.0562134,0.097839355,36.96875,-19.046875,23.734375,735
736,1696190605786,-0.23779297,-1.3189087,-0.15484619,63.71875,-27.265625,16.609375,736
737,1696190605826,-0.2614746,-1.3088989,-0.20343018,12.1875,-29.9375,40.5,737
738,1696190605866,-0.17456055,-1.2319946,-0.3447876,27.375,-17.140625,49.734375,738
739,1696190605906,0.29101562,-1.3120728,-0.3086548,14.0,-5.53125,50.625,739
740,1696190605946,0.63500977,-1.3469849,-0.23883057,48.96875,7.046875,49.890625,740
741,1696190605986,0.6442871,-0.90753174,-1.2422485,46.609375,1.8125,30.1875,741
742,1696190606026,1.9990234,-0.7029419,-0.3880005,20.984375,-26.640625,99.234375,742
743,1696190606066,0.4321289,-0.85357666,-0.6397095,176.09375,-2.65625,14.984375,743
744,1696190606106,0.62109375,-0.6878052,-0.7005005,-32.953125,5.359375,12.265625,744
745,1696190606146,0.8156738,-0.6502075,-0.54107666,25.421875,-17.5,20.265625,745
746,1696190606186,0.91918945,-0.6211548,-0.5215454,16.109375,5.359375,2.109375,746
747,1696190606226,0.49658203,-0.65753174,-0.550354,-0.609375,-6.9375,-15.390625,747
748,1696190606266,0.32055664,-0.59820557,-0.57818604,9.125,4.578125,-27.171875,748
749,1696190606306,0.51416016,-0.55133057,-0.4060669,-36.953125,6.921875,-21.53125,749
750,1696190606346,0.359375,-0.5437622,-0.28497314,-67.0625,6.171875,-48.125,750
751,1696190606386,0.24633789,-0.569397,-0.29962158,-30.328125,5.984375,-49.5625,751
752,1696190606426,0.3491211,-0.66241455,-0.24468994,-22.625,13.515625,-51.859375,752
753,1696190606466,0.23950195,-0.6243286,-0.24615479,-16.53125,15.328125,-51.59375,753
754,1696190606506,0.09741211,-0.61846924,-0.333313,-31.859375,15.21875,-47.140625,754
755,1696190606546,0.18896484,-0.5742798,-0.23712158,-40.09375,20.09375,-43.421875,755
756,1696190606586,0.17163086,-0.5171509,-0.23272705,-30.59375,11.25,-37.90625,756
757,1696190606626,0.21923828,-0.59161377,-0.28790283,3.140625,12.109375,-30.03125,757
758,1696190606666,0.30029297,-0.75323486,-0.31866455,-4.25,0.59375,-14.9375,758
759,1696190606706,0.33789062,-0.7996216,-0.27496338,-0.1875,-5.890625,-5.703125,759
760,1696190606746,0.07397461,-0.84039307,-0.2793579,-14.203125,-9.15625,-30.6875,760
761,1696190606786,-0.080566406,-0.93536377,-0.27349854,3.65625,0.734375,-21.53125,761
762,1696190606826,-0.021728516,-0.82940674,-0.2617798,-26.421875,5.734375,3.171875,762
763,1696190606866,0.095703125,-0.64508057,-0.14923096,-5.65625,6.5,1.0625,763
764,1696190606906,0.24511719,-0.77471924,-0.18365479,8.953125,-1.84375,11.75,764
765,1696190606946,0.037597656,-0.4883423,-0.29473877,1.328125,5.28125,20.890625,765
766,1696190606986,-0.020263672,-0.21759033,-0.06402588,-6.125,14.71875,32.671875,766
767,1696190607026,-0.064208984,-0.117004395,-0.0154418945,-21.09375,14.359375,17.796875,767
768,1696190607066,-0.1616211,-0.23028564,-0.26885986,67.578125,15.59375,37.484375,768
769,1696190607106,0.59887695,-0.44439697,-0.32525635,72.53125,3.96875,54.484375,769
770,1696190607146,0.9284668,-0.6692505,-0.4277954,101.6875,-40.171875,31.046875,770
771,1696190607186,0.65527344,-1.4014282,-0.6873169,82.625,-30.453125,32.734375,771
772,1696190607226,-0.40625,-0.8311157,-1.0652466,32.890625,-25.34375,-3.84375,772
773,1696190607266,0.5905762,-0.7461548,-0.725647,-93.84375,-1.40625,48.203125,773
774,1696190607306,0.74853516,-0.5317993,-0.020812988,-138.28125,-13.03125,-37.84375,774
775,1696190607346,0.21826172,-0.5015259,-0.40997314,142.96875,5.234375,-8.296875,775
776,1696190607386,0.61816406,-1.513977,-0.6951294,9.28125,9.59375,-40.75,776
