,timestamp,accel_x,accel_y,accel_z,gyro_x,gyro_y,gyro_z,mag_x,mag_y,mag_z,ind
0,1695394177014,-0.047851562,-0.546875,0.8388672,-0.09375,0.0,-0.125,0.0,0.0,0.0,136
1,1695394177054,-0.044921875,-0.5410156,0.8359375,-0.15625,0.0,-0.0625,0.0,0.0,0.0,137
2,1695394177094,-0.047851562,-0.546875,0.83984375,-0.03125,0.0,-0.125,0.0,0.0,0.0,138
3,1695394177134,-0.056640625,-0.5410156,0.83691406,-0.09375,-0.125,-0.1875,0.0,0.0,0.0,139
4,1695394177174,-0.048828125,-0.5449219,0.84277344,0.15625,0.125,0.125,0.0,0.0,0.0,140
5,1695394177214,-0.047851562,-0.5371094,0.8300781,0.21875,0.0,0.125,0.0,0.0,0.0,141
6,1695394177254,-0.051757812,-0.5390625,0.8330078,0.09375,-0.1875,0.3125,0.0,0.0,0.0,142
7,1695394177294,-0.045898438,-0.5332031,0.8330078,-0.21875,-0.125,0.375,0.0,0.0,0.0,143
8,1695394177334,-0.0390625,-0.5410156,0.85058594,-0.28125,-0.34375,0.1875,0.0,0.0,0.0,144
9,1695394177374,-0.047851562,-0.546875,0.8515625,-0.28125,0.0625,0.4375,0.0,0.0,0.0,145
10,1695394177414,-0.041992188,-0.5449219,0.8359375,-0.40625,-0.65625,0.0,0.0,0.0,0.0,146
11,1695394177454,-0.051757812,-0.54296875,0.8457031,-0.46875,-0.25,-0.125,-31.0625,-40.4375,-87.0625,147
12,1695394177494,-0.053710938,-0.5498047,0.8378906,-0.53125,0.0,-0.375,0.0,0.0,0.0,148
13,1695394177534,-0.056640625,-0.54589844,0.84375,-0.28125,-0.25,-0.625,0.0,0.0,0.0,149
14,1695394177574,-0.044921875,-0.5410156,0.83984375,-0.09375,0.125,-0.75,0.0,0.0,0.0,150
15,1695394177614,-0.041992188,-0.54296875,0.84375,0.15625,0.0,-0.75,0.0,0.0,0.0,151
16,1695394177654,-0.043945312,-0.5361328,0.8330078,0.15625,0.1875,-0.4375,0.0,0.0,0.0,152
17,1695394177694,-0.044921875,-0.5332031,0.8310547,0.03125,0.0625,-0.375,0.0,0.0,0.0,153
18,1695394177734,-0.051757812,-0.54003906,0.83984375,0.09375,0.1875,0.0,0.0,0.0,0.0,154
19,1695394177774,-0.047851562,-0.53027344,0.8417969,0.21875,0.125,0.0625,0.0,0.0,0.0,155
20,1695394177814,-0.046875,-0.5371094,0.8535156,0.15625,0.125,0.375,0.0,0.0,0.0,156
21,1695394177854,-0.044921875,-0.5410156,0.85839844,-0.03125,0.0,0.53125,0.0,0.0,0.0,157
22,1695394177894,-0.049804688,-0.5390625,0.8457031,-0.03125,-0.0625,0.46875,0.0,0.0,0.0,158
23,1695394177934,-0.05078125,-0.54589844,0.828125,0.03125,0.0,0.46875,-31.625,-39.125,-84.8125,159
24,1695394177974,-0.056640625,-0.5410156,0.83984375,0.03125,0.0625,0.3125,0.0,0.0,0.0,160
25,1695394178014,-0.044921875,-0.54003906,0.85058594,0.03125,0.125,0.3125,0.0,0.0,0.0,161
26,1695394178054,-0.045898438,-0.54589844,0.8544922,-0.09375,0.0,0.25,0.0,0.0,0.0,162
27,1695394178094,-0.046875,-0.5390625,0.8359375,-0.03125,-0.0625,0.125,0.0,0.0,0.0,163
28,1695394178134,-0.051757812,-0.5419922,0.83691406,-0.03125,-0.25,0.0,0.0,0.0,0.0,164
29,1695394178174,-0.044921875,-0.5332031,0.84472656,-0.15625,-0.0625,-0.1875,0.0,0.0,0.0,165
30,1695394178214,-0.052734375,-0.5419922,0.84472656,0.28125,0.125,-0.125,0.0,0.0,0.0,166
31,1695394178254,-0.044921875,-0.54003906,0.84277344,-0.28125,-0.125,-0.125,0.0,0.0,0.0,167
32,1695394178294,-0.043945312,-0.54296875,0.84472656,0.15625,0.0,-0.0625,0.0,0.0,0.0,168
33,1695394178334,-0.045898438,-0.53125,0.8457031,-0.34375,0.0,-0.125,0.0,0.0,0.0,169
34,1695394178374,-0.043945312,-0.5439453,0.8486328,0.09375,0.0,-0.125,0.0,0.0,0.0,170
35,1695394178414,-0.049804688,-0.5439453,0.83984375,-0.03125,0.0625,-0.0625,0.0,0.0,0.0,171
36,1695394178454,-0.052734375,-0.5410156,0.8330078,0.03125,0.0,-0.0625,-29.375,-40.3125,-84.8125,172
37,1695394178494,-0.047851562,-0.5410156,0.8261719,0.09375,0.0625,0.0,0.0,0.0,0.0,173
38,1695394178534,-0.045898438,-0.5371094,0.85253906,-0.09375,0.0625,0.0,0.0,0.0,0.0,174
39,1695394178574,-0.045898438,-0.54589844,0.84375,0.03125,0.0625,0.0,0.0,0.0,0.0,175
40,1695394178614,-0.060546875,-0.5449219,0.8408203,-0.03125,-0.0625,0.0625,0.0,0.0,0.0,176
41,1695394178654,-0.047851562,-0.5419922,0.83691406,-0.03125,0.0,0.0,0.0,0.0,0.0,177
42,1695394178694,-0.049804688,-0.5419922,0.84375,-0.03125,-0.0625,0.0,0.0,0.0,0.0,178
43,1695394178734,-0.046875,-0.55078125,0.8515625,-0.03125,-0.0625,-0.125,0.0,0.0,0.0,179
44,1695394178774,-0.05859375,-0.5439453,0.83691406,-0.03125,0.0,-0.125,0.0,0.0,0.0,180
45,1695394178814,-0.049804688,-0.53125,0.8359375,-0.15625,-0.125,-0.125,0.0,0.0,0.0,181
46,1695394178854,-0.049804688,-0.5371094,0.8359375,0.03125,0.0,-0.1875,0.0,0.0,0.0,182
47,1695394178894,-0.043945312,-0.5341797,0.8496094,-0.03125,0.0,-0.125,0.0,0.0,0.0,183
48,1695394178934,-0.044921875,-0.5410156,0.84375,-0.28125,-0.1875,-0.125,-31.8125,-41.1875,-86.0,184
49,1695394178974,-0.0546875,-0.5361328,0.84472656,0.21875,0.0625,0.0,0.0,0.0,0.0,185
50,1695394179014,-0.041015625,-0.5371094,0.828125,-0.34375,0.1875,-0.0625,0.0,0.0,0.0,186
51,1695394179054,-0.045898438,-0.54296875,0.8466797,0.3125,-0.0625,0.0,0.0,0.0,0.0,187
52,1695394179094,-0.040039062,-0.53515625,0.83691406,-0.53125,-0.0625,-0.0625,0.0,0.0,0.0,188
53,1695394179134,-0.051757812,-0.53125,0.84277344,0.03125,-0.0625,-0.1875,0.0,0.0,0.0,189
54,1695394179174,-0.055664062,-0.54589844,0.8486328,-0.09375,0.0,-0.0625,0.0,0.0,0.0,190
55,1695394179214,-0.051757812,-0.53808594,0.85546875,-0.03125,-0.125,-0.125,0.0,0.0,0.0,191
56,1695394179254,-0.052734375,-0.54003906,0.83203125,0.09375,-0.0625,-0.0625,0.0,0.0,0.0,192
57,1695394179294,-0.052734375,-0.54003906,0.8310547,0.03125,0.0625,-0.0625,0.0,0.0,0.0,193
58,1695394179334,-0.048828125,-0.5361328,0.8378906,-0.03125,0.0,-0.125,0.0,0.0,0.0,194
59,1695394179374,-0.048828125,-0.5439453,0.85058594,-0.03125,-0.0625,0.0625,0.0,0.0,0.0,195
60,1695394179414,-0.056640625,-0.5332031,0.8486328,0.15625,0.0,0.0,0.0,0.0,0.0,196
61,1695394179454,-0.049804688,-0.5361328,0.84375,0.03125,-0.0625,0.0,-31.1875,-40.3125,-85.375,197
62,1695394179494,-0.052734375,-0.5371094,0.83691406,-0.03125,0.0,0.0625,0.0,0.0,0.0,198
63,1695394179534,-0.041992188,-0.546875,0.84765625,0.09375,0.0625,-0.0625,0.0,0.0,0.0,199
64,1695394179574,-0.055664062,-0.54296875,0.8261719,-0.09375,0.0,-0.125,0.0,0.0,0.0,200
65,1695394179614,-0.053710938,-0.5439453,0.8466797,0.09375,0.125,-0.125,0.0,0.0,0.0,201
66,1695394179654,-0.04296875,-0.5410156,0.8466797,-0.03125,0.0,-0.125,0.0,0.0,0.0,202
67,1695394179694,-0.052734375,-0.54003906,0.8378906,-0.03125,-0.0625,0.03125,0.0,0.0,0.0,203
68,1695394179734,-0.059570312,-0.5390625,0.8496094,-0.03125,-0.125,-0.15625,0.0,0.0,0.0,204
69,1695394179774,-0.045898438,-0.54589844,0.8457031,0.03125,0.125,0.09375,0.0,0.0,0.0,205
70,1695394179814,-0.043945312,-0.5214844,0.83984375,-0.03125,-0.1875,-0.03125,0.0,0.0,0.0,206
71,1695394179854,-0.053710938,-0.5419922,0.83496094,0.09375,0.125,-0.09375,0.0,0.0,0.0,207
72,1695394179894,-0.052734375,-0.53808594,0.85546875,-0.28125,0.0625,-0.09375,0.0,0.0,0.0,208
73,1695394179934,-0.04296875,-0.5371094,0.8457031,0.03125,0.125,-0.03125,-32.5625,-39.4375,-85.25,209
74,1695394179974,-0.053710938,-0.5341797,0.83496094,-0.15625,0.25,-0.15625,0.0,0.0,0.0,210
75,1695394180014,-0.056640625,-0.5390625,0.84277344,0.03125,0.0,-0.15625,0.0,0.0,0.0,211
76,1695394180054,-0.049804688,-0.5410156,0.82910156,0.09375,0.0625,-0.15625,0.0,0.0,0.0,212
77,1695394180094,-0.05078125,-0.54296875,0.8515625,-0.21875,0.0,-0.09375,0.0,0.0,0.0,213
78,1695394180134,-0.040039062,-0.5390625,0.83691406,0.15625,0.0625,-0.15625,0.0,0.0,0.0,214
79,1695394180174,-0.044921875,-0.53808594,0.85253906,-0.09375,0.0625,-0.03125,0.0,0.0,0.0,215
80,1695394180214,-0.055664062,-0.5498047,0.8496094,-0.03125,-0.0625,0.03125,0.0,0.0,0.0,216
81,1695394180254,-0.044921875,-0.5332031,0.8486328,0.09375,0.125,-0.09375,0.0,0.0,0.0,217
82,1695394180294,-0.045898438,-0.53808594,0.85058594,-0.03125,-0.1875,0.09375,0.0,0.0,0.0,218
83,1695394180334,-0.053710938,-0.5332031,0.8310547,-0.09375,-0.0625,0.15625,0.0,0.0,0.0,219
84,1695394180374,-0.043945312,-0.5292969,0.8388672,-0.03125,0.0,0.03125,0.0,0.0,0.0,220
85,1695394180414,-0.041015625,-0.5439453,0.83691406,-0.03125,-0.0625,-0.09375,0.0,0.0,0.0,221
86,1695394180454,-0.05078125,-0.54296875,0.8535156,0.03125,0.0625,-0.03125,-30.4375,-38.8125,-86.125,222
87,1695394180494,-0.043945312,-0.5371094,0.84277344,-0.15625,0.0,-0.09375,0.0,0.0,0.0,223
88,1695394180534,-0.053710938,-0.5449219,0.84765625,0.34375,0.0,-0.03125,0.0,0.0,0.0,224
89,1695394180574,-0.043945312,-0.54003906,0.8515625,-0.21875,0.125,0.15625,0.0,0.0,0.0,225
90,1695394180614,-0.053710938,-0.5488281,0.8388672,0.21875,0.0,0.03125,0.0,0.0,0.0,226
91,1695394180654,-0.045898438,-0.5341797,0.8300781,-0.34375,0.0,-0.03125,0.0,0.0,0.0,227
92,1695394180694,-0.048828125,-0.53808594,0.8388672,0.09375,0.0625,-0.09375,0.0,0.0,0.0,228
93,1695394180734,-0.060546875,-0.5410156,0.8310547,0.03125,0.125,-0.15625,0.0,0.0,0.0,229
94,1695394180774,-0.047851562,-0.5419922,0.8359375,-0.15625,-0.125,0.03125,0.0,0.0,0.0,230
95,1695394180814,-0.052734375,-0.5498047,0.8408203,0.15625,0.0625,0.09375,0.0,0.0,0.0,231
96,1695394180854,-0.046875,-0.5361328,0.8378906,-0.09375,0.0,-0.15625,0.0,0.0,0.0,232
97,1695394180894,-0.041015625,-0.54589844,0.84765625,0.03125,0.0625,-0.03125,0.0,0.0,0.0,233
98,1695394180934,-0.044921875,-0.546875,0.84472656,0.03125,0.0,-0.09375,-30.875,-38.8125,-83.75,234
99,1695394180974,-0.051757812,-0.5419922,0.83984375,-0.09375,0.0,0.09375,0.0,0.0,0.0,235
100,1695394181014,-0.051757812,-0.53222656,0.84277344,0.09375,0.0625,-0.15625,0.0,0.0,0.0,236
101,1695394181054,-0.049804688,-0.5361328,0.8310547,-0.15625,-0.0625,-0.03125,0.0,0.0,0.0,237
102,1695394181094,-0.041992188,-0.5449219,0.83984375,0.03125,0.0625,-0.09375,0.0,0.0,0.0,238
103,1695394181134,-0.05078125,-0.5361328,0.83984375,-0.03125,-0.0625,-0.15625,0.0,0.0,0.0,239
104,1695394181174,-0.044921875,-0.5439453,0.8408203,-0.03125,-0.0625,-0.03125,0.0,0.0,0.0,240
105,1695394181214,-0.046875,-0.53027344,0.83691406,-0.03125,-0.125,-0.09375,0.0,0.0,0.0,241
106,1695394181254,-0.052734375,-0.5371094,0.8232422,-0.03125,0.0,0.09375,0.0,0.0,0.0,242
107,1695394181294,-0.055664062,-0.5341797,0.8408203,-0.09375,0.0,-0.09375,0.0,0.0,0.0,243
108,1695394181334,-0.053710938,-0.5449219,0.8408203,0.03125,0.25,0.15625,0.0,0.0,0.0,244
109,1695394181374,-0.043945312,-0.5361328,0.8388672,-0.09375,-0.3125,-0.09375,0.0,0.0,0.0,245
110,1695394181414,-0.043945312,-0.54785156,0.8359375,-0.09375,0.0,0.03125,0.0,0.0,0.0,246
111,1695394181454,-0.051757812,-0.5253906,0.85058594,-0.15625,0.125,-0.09375,-31.8125,-38.1875,-85.5625,247
112,1695394181494,-0.05859375,-0.5390625,0.8408203,0.09375,0.0,-0.1875,0.0,0.0,0.0,248
113,1695394181534,-0.043945312,-0.5371094,0.8408203,-0.15625,0.0625,-0.09375,0.0,0.0,0.0,249
114,1695394181574,-0.051757812,-0.5419922,0.8359375,-0.03125,-0.1875,-0.03125,0.0,0.0,0.0,250
115,1695394181614,-0.048828125,-0.5449219,0.84472656,0.03125,-0.0625,-0.15625,0.0,0.0,0.0,251
116,1695394181654,-0.049804688,-0.5332031,0.82910156,-0.03125,0.0,0.03125,0.0,0.0,0.0,252
117,1695394181694,-0.041015625,-0.53515625,0.84375,-0.03125,-0.125,-0.03125,0.0,0.0,0.0,253
118,1695394181734,-0.049804688,-0.52734375,0.8388672,-0.03125,0.0,0.03125,0.0,0.0,0.0,254
119,1695394181774,-0.053710938,-0.5361328,0.84765625,0.15625,0.125,0.03125,0.0,0.0,0.0,255
120,1695394181814,-0.05078125,-0.53125,0.83691406,-0.03125,0.0,0.09375,0.0,0.0,0.0,256
121,1695394181854,-0.048828125,-0.53515625,0.84472656,0.09375,0.0625,0.03125,0.0,0.0,0.0,257
122,1695394181894,-0.055664062,-0.546875,0.8466797,0.03125,0.0625,0.09375,0.0,0.0,0.0,258
123,1695394181934,-0.051757812,-0.5449219,0.8486328,-0.03125,0.0,-0.03125,-31.375,-38.9375,-85.25,259
124,1695394181974,-0.057617188,-0.54003906,0.8466797,-0.03125,0.0,-0.03125,0.0,0.0,0.0,260
125,1695394182014,-0.05078125,-0.5449219,0.84277344,-0.09375,-0.0625,-0.15625,0.0,0.0,0.0,261
126,1695394182054,-0.049804688,-0.54003906,0.84472656,0.28125,0.0625,-0.03125,0.0,0.0,0.0,262
127,1695394182094,-0.043945312,-0.5361328,0.83984375,-0.15625,-0.0625,-0.03125,0.0,0.0,0.0,263
128,1695394182134,-0.038085938,-0.5410156,0.84765625,0.34375,0.125,0.09375,0.0,0.0,0.0,264
129,1695394182174,-0.048828125,-0.5390625,0.83984375,-0.34375,-0.0625,-0.09375,0.0,0.0,0.0,265
130,1695394182214,-0.059570312,-0.5371094,0.83203125,0.15625,-0.0625,-0.03125,0.0,0.0,0.0,266
131,1695394182254,-0.045898438,-0.5419922,0.83691406,-0.03125,0.1875,-0.15625,0.0,0.0,0.0,267
132,1695394182294,-0.05078125,-0.5361328,0.8417969,0.09375,0.0625,-0.09375,0.0,0.0,0.0,268
133,1695394182334,-0.04296875,-0.54003906,0.84277344,0.09375,0.125,-0.09375,0.0,0.0,0.0,269
134,1695394182374,-0.045898438,-0.54003906,0.8408203,-0.03125,-0.0625,-0.03125,0.0,0.0,0.0,270
135,1695394182414,-0.053710938,-0.5449219,0.8515625,-0.03125,0.0,0.09375,0.0,0.0,0.0,271
136,1695394182454,-0.047851562,-0.53515625,0.8330078,0.03125,0.0625,0.09375,-31.8125,-38.9375,-85.5625,272
137,1695394182494,-0.045898438,-0.5371094,0.85546875,0.15625,0.0,-0.03125,0.0,0.0,0.0,273
138,1695394182534,-0.049804688,-0.5390625,0.8359375,-0.03125,-0.125,-0.03125,0.0,0.0,0.0,274
139,1695394182574,-0.041992188,-0.5390625,0.8388672,0.03125,-0.0625,0.03125,0.0,0.0,0.0,275
140,1695394182614,-0.043945312,-0.5410156,0.84277344,-0.09375,-0.125,-0.09375,0.0,0.0,0.0,276
141,1695394182654,-0.052734375,-0.5371094,0.8310547,-0.09375,0.0,-0.03125,0.0,0.0,0.0,277
142,1695394182694,-0.045898438,-0.53515625,0.8310547,-0.15625,0.0,-0.3125,0.0,0.0,0.0,278
143,1695394182734,-0.049804688,-0.5332031,0.85253906,0.21875,0.0625,-0.15625,0.0,0.0,0.0,279
144,1695394182774,-0.052734375,-0.5361328,0.82910156,-0.40625,0.125,0.03125,0.0,0.0,0.0,280
145,1695394182814,-0.0546875,-0.5498047,0.8388672,0.21875,0.0,-0.03125,0.0,0.0,0.0,281
146,1695394182854,-0.052734375,-0.5410156,0.8417969,-0.40625,-0.0625,-0.03125,0.0,0.0,0.0,282
147,1695394182894,-0.056640625,-0.5449219,0.84375,0.03125,-0.125,-0.09375,0.0,0.0,0.0,283
148,1695394182934,-0.045898438,-0.5371094,0.8330078,-0.15625,0.1875,-0.15625,-29.125,-40.3125,-85.6875,284
149,1695394182974,-0.051757812,-0.54785156,0.84277344,-0.03125,-0.0625,-0.09375,0.0,0.0,0.0,285
150,1695394183014,-0.040039062,-0.53808594,0.82910156,0.03125,0.0,-0.03125,0.0,0.0,0.0,286
151,1695394183054,-0.052734375,-0.54003906,0.83984375,-0.15625,0.0,-0.09375,0.0,0.0,0.0,287
152,1695394183094,-0.05078125,-0.54003906,0.83203125,0.09375,0.0625,-0.03125,0.0,0.0,0.0,288
153,1695394183134,-0.048828125,-0.53515625,0.8408203,-0.09375,0.0625,-0.09375,0.0,0.0,0.0,289
154,1695394183174,-0.0546875,-0.5361328,0.8359375,0.03125,0.0625,-0.03125,0.0,0.0,0.0,290
155,1695394183214,-0.049804688,-0.53027344,0.84765625,0.03125,0.0625,0.03125,0.0,0.0,0.0,291
156,1695394183254,-0.048828125,-0.53515625,0.84277344,-0.15625,0.0,-0.09375,0.0,0.0,0.0,292
157,1695394183294,-0.056640625,-0.5390625,0.83691406,0.09375,0.125,0.03125,0.0,0.0,0.0,293
158,1695394183334,-0.048828125,-0.5390625,0.8330078,-0.09375,0.125,0.03125,0.0,0.0,0.0,294
159,1695394183374,-0.05078125,-0.5332031,0.8359375,-0.15625,-0.0625,-0.1875,0.0,0.0,0.0,295
160,1695394183414,-0.051757812,-0.54296875,0.83203125,0.15625,0.1875,0.03125,0.0,0.0,0.0,296
161,1695394183454,-0.046875,-0.53515625,0.8310547,-0.28125,0.0,0.09375,-30.125,-39.5625,-84.0625,297
162,1695394183494,-0.05078125,-0.5419922,0.84375,0.09375,0.0,-0.03125,0.0,0.0,0.0,298
163,1695394183534,-0.045898438,-0.53222656,0.84277344,-0.28125,0.0625,-0.09375,0.0,0.0,0.0,299
164,1695394183574,-0.048828125,-0.54003906,0.83691406,-0.03125,-0.125,-0.03125,0.0,0.0,0.0,300
165,1695394183614,-0.048828125,-0.53222656,0.8496094,0.0,-0.09375,-0.125,0.0,0.0,0.0,301
166,1695394183654,-0.048828125,-0.5410156,0.8408203,0.0,-0.15625,0.0,0.0,0.0,0.0,302
167,1695394183694,-0.048828125,-0.5419922,0.83691406,0.1875,0.15625,0.0625,0.0,0.0,0.0,303
168,1695394183734,-0.040039062,-0.5410156,0.84375,-0.125,-0.03125,-0.125,0.0,0.0,0.0,304
169,1695394183774,-0.041015625,-0.546875,0.84375,0.125,-0.09375,-0.0625,0.0,0.0,0.0,305
170,1695394183814,-0.05078125,-0.53222656,0.83691406,-0.125,-0.09375,0.125,0.0,0.0,0.0,306
171,1695394183854,-0.0546875,-0.5390625,0.8417969,0.0,-0.03125,0.0,0.0,0.0,0.0,307
172,1695394183894,-0.05078125,-0.5439453,0.82910156,0.0625,0.09375,0.0625,0.0,0.0,0.0,308
173,1695394183934,-0.051757812,-0.5419922,0.85058594,0.0,-0.09375,0.0625,-31.375,-39.4375,-84.5,309
174,1695394183974,-0.051757812,-0.5341797,0.8515625,0.0,-0.15625,0.0625,0.0,0.0,0.0,310
175,1695394184014,-0.047851562,-0.5361328,0.84277344,0.0,-0.09375,0.125,0.0,0.0,0.0,311
176,1695394184054,-0.052734375,-0.5410156,0.83691406,-0.125,-0.15625,-0.0625,0.0,0.0,0.0,312
177,1695394184094,-0.052734375,-0.55078125,0.84472656,0.1875,0.03125,0.0625,0.0,0.0,0.0,313
178,1695394184134,-0.048828125,-0.5361328,0.8486328,-0.0625,-0.09375,0.0,0.0,0.0,0.0,314
179,1695394184174,-0.043945312,-0.5410156,0.84375,0.25,-0.15625,-0.125,0.0,0.0,0.0,315
180,1695394184214,-0.043945312,-0.5390625,0.83691406,-0.375,-0.09375,0.0,0.0,0.0,0.0,316
181,1695394184254,-0.0546875,-0.54589844,0.8486328,0.0,-0.09375,-0.0625,0.0,0.0,0.0,317
182,1695394184294,-0.041015625,-0.53515625,0.8515625,0.0,0.03125,-0.0625,0.0,0.0,0.0,318
183,1695394184334,-0.045898438,-0.54296875,0.8457031,0.0,-0.03125,-0.1875,0.0,0.0,0.0,319
184,1695394184374,-0.05859375,-0.53515625,0.8408203,0.0625,0.09375,0.0,0.0,0.0,0.0,320
185,1695394184414,-0.038085938,-0.5371094,0.8457031,-0.1875,-0.09375,0.0625,0.0,0.0,0.0,321
186,1695394184454,-0.048828125,-0.54296875,0.83984375,0.25,-0.21875,0.125,-30.4375,-39.5625,-85.125,322
187,1695394184494,-0.044921875,-0.5341797,0.8496094,0.0,-0.34375,0.25,0.0,0.0,0.0,323
188,1695394184534,-0.048828125,-0.54003906,0.83496094,0.125,0.09375,0.5625,0.0,0.0,0.0,324
189,1695394184574,-0.045898438,-0.5439453,0.8330078,-0.5,-0.21875,0.625,0.0,0.0,0.0,325
190,1695394184614,-0.04296875,-0.55078125,0.84277344,-0.0625,-0.21875,0.5,0.0,0.0,0.0,326
191,1695394184654,-0.056640625,-0.546875,0.8378906,0.25,-0.15625,0.4375,0.0,0.0,0.0,327
192,1695394184694,-0.043945312,-0.53808594,0.84277344,0.0,-0.03125,0.375,0.0,0.0,0.0,328
193,1695394184734,-0.045898438,-0.5439453,0.8339844,0.375,0.09375,0.3125,0.0,0.0,0.0,329
194,1695394184774,-0.0546875,-0.5371094,0.8408203,-0.375,-0.34375,0.25,0.0,0.0,0.0,330
195,1695394184814,-0.041015625,-0.5517578,0.85253906,0.0625,0.15625,0.4375,0.0,0.0,0.0,331
196,1695394184854,-0.048828125,-0.5488281,0.8544922,-0.1875,-0.40625,0.25,0.0,0.0,0.0,332
197,1695394184894,-0.052734375,-0.5449219,0.8359375,0.0,-0.15625,0.4375,0.0,0.0,0.0,333
198,1695394184934,-0.056640625,-0.5341797,0.83984375,-0.1875,-0.21875,0.1875,-30.3125,-40.0,-84.1875,334
199,1695394184974,-0.046875,-0.5488281,0.8378906,-0.0625,-0.09375,0.0,0.0,0.0,0.0,335
200,1695394185014,-0.051757812,-0.54003906,0.83496094,0.0625,0.03125,-0.0625,0.0,0.0,0.0,336
201,1695394185054,-0.05078125,-0.54296875,0.83691406,0.0,-0.03125,0.0,0.0,0.0,0.0,337
202,1695394185094,-0.052734375,-0.54589844,0.83691406,0.0625,-0.03125,0.0,0.0,0.0,0.0,338
203,1695394185134,-0.045898438,-0.5410156,0.8417969,0.0,0.09375,-0.125,0.0,0.0,0.0,339
204,1695394185174,-0.04296875,-0.5361328,0.8330078,0.0,-0.15625,-0.125,0.0,0.0,0.0,340
205,1695394185214,-0.051757812,-0.55078125,0.82714844,-0.0625,0.03125,0.0,0.0,0.0,0.0,341
206,1695394185254,-0.041992188,-0.5410156,0.8457031,0.0625,-0.15625,0.1875,0.0,0.0,0.0,342
207,1695394185294,-0.056640625,-0.5390625,0.83984375,0.0625,0.03125,0.125,0.0,0.0,0.0,343
208,1695394185334,-0.0546875,-0.54003906,0.84277344,0.0,-0.09375,0.0,0.0,0.0,0.0,344
209,1695394185374,-0.0546875,-0.5410156,0.84277344,0.0625,0.03125,0.0625,0.0,0.0,0.0,345
210,1695394185414,-0.047851562,-0.54003906,0.8378906,0.0625,0.03125,0.0625,0.0,0.0,0.0,346
211,1695394185454,-0.036132812,-0.5361328,0.8457031,-0.0625,0.03125,-0.0625,-31.0625,-38.9375,-86.0,347
212,1695394185494,-0.06347656,-0.5439453,0.8535156,0.3125,0.09375,0.0,0.0,0.0,0.0,348
213,1695394185534,-0.044921875,-0.54296875,0.85058594,0.0,-0.09375,-0.125,0.0,0.0,0.0,349
214,1695394185574,-0.055664062,-0.5439453,0.8388672,0.0625,0.03125,0.0625,0.0,0.0,0.0,350
215,1695394185614,-0.049804688,-0.5361328,0.8496094,-0.1875,-0.15625,0.0,0.0,0.0,0.0,351
216,1695394185654,-0.056640625,-0.53808594,0.8457031,0.0625,0.03125,-0.0625,0.0,0.0,0.0,352
217,1695394185694,-0.052734375,-0.5410156,0.8417969,-0.3125,-0.09375,0.0,0.0,0.0,0.0,353
218,1695394185734,-0.05859375,-0.54589844,0.8466797,0.0,-0.03125,0.0,0.0,0.0,0.0,354
219,1695394185774,-0.040039062,-0.53125,0.84472656,-0.125,-0.21875,-0.0625,0.0,0.0,0.0,355
220,1695394185814,-0.048828125,-0.5439453,0.83691406,0.0,0.03125,-0.0625,0.0,0.0,0.0,356
221,1695394185854,-0.049804688,-0.5341797,0.8417969,0.0625,0.03125,-0.0625,0.0,0.0,0.0,357
222,1695394185894,-0.049804688,-0.5410156,0.8408203,-0.0625,-0.15625,0.0,0.0,0.0,0.0,358
223,1695394185934,-0.053710938,-0.53222656,0.84375,0.0,-0.09375,0.0,-30.4375,-39.5625,-85.375,359
224,1695394185974,-0.049804688,-0.53808594,0.8417969,-0.0625,-0.03125,0.0625,0.0,0.0,0.0,360
225,1695394186014,-0.047851562,-0.5371094,0.8300781,0.0625,-0.03125,0.0,0.0,0.0,0.0,361
226,1695394186054,-0.04296875,-0.546875,0.83984375,-0.0625,-0.09375,0.0,0.0,0.0,0.0,362
227,1695394186094,-0.053710938,-0.54589844,0.8457031,0.0,-0.03125,0.125,0.0,0.0,0.0,363
228,1695394186134,-0.053710938,-0.5410156,0.83691406,-0.125,-0.03125,0.0,0.0,0.0,0.0,364
229,1695394186174,-0.047851562,-0.53222656,0.8339844,0.0625,0.03125,0.0,0.0,0.0,0.0,365
230,1695394186214,-0.060546875,-0.5439453,0.84375,0.0625,0.03125,0.0625,0.0,0.0,0.0,366
231,1695394186254,-0.052734375,-0.5332031,0.8388672,-0.125,-0.28125,0.0625,0.0,0.0,0.0,367
232,1695394186294,-0.059570312,-0.5439453,0.8388672,0.125,-0.03125,0.125,0.0,0.0,0.0,368
233,1695394186334,-0.051757812,-0.53808594,0.8486328,-0.3125,-0.15625,0.125,0.0,0.0,0.0,369
234,1695394186374,-0.041992188,-0.54003906,0.8408203,0.125,0.03125,-0.0625,0.0,0.0,0.0,370
235,1695394186414,-0.044921875,-0.5361328,0.83496094,-0.1875,-0.09375,-0.0625,0.0,0.0,0.0,371
236,1695394186454,-0.044921875,-0.53515625,0.8359375,0.0625,-0.21875,-0.1875,-31.8125,-40.75,-86.3125,372
237,1695394186494,-0.049804688,-0.54296875,0.83203125,-0.0625,-0.03125,-0.0625,0.0,0.0,0.0,373
238,1695394186534,-0.051757812,-0.5410156,0.8339844,-0.0625,0.21875,0.125,0.0,0.0,0.0,374
239,1695394186574,-0.051757812,-0.54003906,0.8515625,0.25,-0.15625,-0.125,0.0,0.0,0.0,375
240,1695394186614,-0.047851562,-0.546875,0.84375,-0.0625,-0.15625,0.0625,0.0,0.0,0.0,376
241,1695394186654,-0.056640625,-0.5410156,0.8417969,-0.125,-0.15625,0.0625,0.0,0.0,0.0,377
242,1695394186694,-0.049804688,-0.546875,0.8496094,0.0625,0.03125,0.0625,0.0,0.0,0.0,378
243,1695394186734,-0.049804688,-0.5410156,0.8457031,0.0,-0.09375,0.0,0.0,0.0,0.0,379
244,1695394186774,-0.045898438,-0.54296875,0.8339844,0.125,0.09375,0.0625,0.0,0.0,0.0,380
245,1695394186814,-0.051757812,-0.5439453,0.8457031,0.0,0.09375,0.0,0.0,0.0,0.0,381
246,1695394186854,-0.053710938,-0.53222656,0.83496094,0.0625,0.03125,-0.0625,0.0,0.0,0.0,382
247,1695394186894,-0.049804688,-0.5371094,0.8300781,0.0,-0.03125,0.0,0.0,0.0,0.0,383
248,1695394186934,-0.055664062,-0.53027344,0.8486328,0.0625,0.03125,0.0625,-33.0,-39.875,-86.125,384
249,1695394186974,-0.051757812,-0.5419922,0.8408203,0.0625,-0.09375,0.0,0.0,0.0,0.0,385
250,1695394187014,-0.051757812,-0.5439453,0.8378906,-0.0625,0.15625,0.125,0.0,0.0,0.0,386
251,1695394187054,-0.038085938,-0.53808594,0.83496094,0.1875,-0.21875,-0.0625,0.0,0.0,0.0,387
252,1695394187094,-0.041992188,-0.53808594,0.8408203,-0.125,-0.09375,-0.0625,0.0,0.0,0.0,388
253,1695394187134,-0.055664062,-0.546875,0.84277344,-0.1875,-0.15625,-0.125,0.0,0.0,0.0,389
254,1695394187174,-0.044921875,-0.5371094,0.84277344,0.0,-0.03125,-0.0625,0.0,0.0,0.0,390
255,1695394187214,-0.048828125,-0.54589844,0.8466797,-0.0625,-0.21875,-0.125,0.0,0.0,0.0,391
256,1695394187254,-0.0546875,-0.5439453,0.84375,0.0,-0.03125,-0.1875,0.0,0.0,0.0,392
257,1695394187294,-0.043945312,-0.53808594,0.8173828,-0.1875,-0.03125,-0.0625,0.0,0.0,0.0,393
258,1695394187334,-0.048828125,-0.53808594,0.8457031,-0.1875,-0.03125,-0.125,0.0,0.0,0.0,394
259,1695394187374,-0.053710938,-0.5410156,0.8457031,0.1875,0.03125,-0.125,0.0,0.0,0.0,395
260,1695394187414,-0.038085938,-0.5410156,0.85253906,-0.0625,-0.03125,0.0625,0.0,0.0,0.0,396
261,1695394187454,-0.051757812,-0.5410156,0.85839844,0.125,0.15625,0.0,-31.625,-40.3125,-85.6875,397
262,1695394187494,-0.051757812,-0.5449219,0.83203125,0.0625,-0.03125,0.0625,0.0,0.0,0.0,398
263,1695394187534,-0.045898438,-0.54589844,0.8339844,0.0,-0.09375,0.0625,0.0,0.0,0.0,399
264,1695394187574,-0.0546875,-0.53515625,0.8330078,0.0,-0.15625,0.0625,0.0,0.0,0.0,400
265,1695394187614,-0.04296875,-0.54003906,0.83691406,-0.125,-0.09375,0.0625,0.0,0.0,0.0,401
266,1695394187654,-0.044921875,-0.54589844,0.8408203,0.0,-0.15625,-0.0625,0.0,0.0,0.0,402
267,1695394187694,-0.044921875,-0.5449219,0.828125,-0.0625,0.09375,-0.125,0.0,0.0,0.0,403
268,1695394187734,-0.047851562,-0.5449219,0.83496094,0.0,-0.09375,0.0625,0.0,0.0,0.0,404
269,1695394187774,-0.041015625,-0.546875,0.8535156,0.0,-0.03125,0.0,0.0,0.0,0.0,405
270,1695394187814,-0.044921875,-0.546875,0.8466797,0.0,-0.09375,-0.125,0.0,0.0,0.0,406
271,1695394187854,-0.053710938,-0.5361328,0.8300781,0.25,0.03125,-0.0625,0.0,0.0,0.0,407
272,1695394187894,-0.05859375,-0.53515625,0.8330078,0.0625,0.03125,0.0,0.0,0.0,0.0,408
273,1695394187934,-0.047851562,-0.54003906,0.8378906,0.1875,-0.15625,-0.0625,-31.9375,-39.5625,-85.6875,409
274,1695394187974,-0.057617188,-0.5439453,0.8359375,-0.125,0.15625,0.125,0.0,0.0,0.0,410
275,1695394188014,-0.051757812,-0.53222656,0.83984375,0.1875,-0.28125,-0.0625,0.0,0.0,0.0,411
276,1695394188054,-0.05078125,-0.53515625,0.8378906,-0.1875,0.03125,0.0,0.0,0.0,0.0,412
277,1695394188094,-0.045898438,-0.5439453,0.8388672,-0.125,-0.03125,0.0625,0.0,0.0,0.0,413
278,1695394188134,-0.04296875,-0.5419922,0.8310547,0.0625,0.03125,-0.0625,0.0,0.0,0.0,414
279,1695394188174,-0.05078125,-0.5371094,0.8359375,-0.125,-0.03125,-0.0625,0.0,0.0,0.0,415
280,1695394188214,-0.045898438,-0.53515625,0.84472656,0.1875,-0.03125,0.0,0.0,0.0,0.0,416
281,1695394188254,-0.051757812,-0.54296875,0.8466797,-0.125,-0.03125,0.0625,0.0,0.0,0.0,417
282,1695394188294,-0.041992188,-0.546875,0.8515625,0.0625,0.03125,0.125,0.0,0.0,0.0,418
283,1695394188334,-0.05078125,-0.5410156,0.85253906,0.0,-0.21875,-0.0625,0.0,0.0,0.0,419
284,1695394188374,-0.055664062,-0.54003906,0.83203125,-0.0625,-0.15625,0.125,0.0,0.0,0.0,420
285,1695394188414,-0.05859375,-0.53125,0.8408203,0.1875,0.15625,0.125,0.0,0.0,0.0,421
286,1695394188454,-0.049804688,-0.5390625,0.83496094,-0.0625,-0.03125,0.0625,-29.375,-39.125,-86.75,422
287,1695394188494,-0.061523438,-0.54589844,0.85253906,0.0,-0.09375,0.0625,0.0,0.0,0.0,423
288,1695394188534,-0.053710938,-0.5410156,0.8417969,0.0,-0.03125,0.1875,0.0,0.0,0.0,424
289,1695394188574,-0.053710938,-0.5439453,0.82910156,0.0625,0.03125,-0.0625,0.0,0.0,0.0,425
290,1695394188614,-0.05078125,-0.54003906,0.8486328,0.0,0.03125,-0.0625,0.0,0.0,0.0,426
291,1695394188654,-0.0546875,-0.5498047,0.82910156,0.0,-0.21875,0.0,0.0,0.0,0.0,427
292,1695394188694,-0.04296875,-0.54296875,0.82421875,0.0625,0.15625,-0.125,0.0,0.0,0.0,428
293,1695394188734,-0.059570312,-0.5371094,0.8457031,0.0,-0.15625,0.0,0.0,0.0,0.0,429
294,1695394188774,-0.044921875,-0.53808594,0.83984375,-0.1875,-0.28125,-0.0625,0.0,0.0,0.0,430
295,1695394188814,-0.047851562,-0.54589844,0.8408203,0.03125,0.125,0.03125,0.0,0.0,0.0,431
296,1695394188854,-0.05078125,-0.5419922,0.8544922,-0.09375,-0.1875,-0.03125,0.0,0.0,0.0,432
297,1695394188894,-0.053710938,-0.5419922,0.84277344,-0.03125,-0.0625,-0.03125,0.0,0.0,0.0,433
298,1695394188934,-0.051757812,-0.5371094,0.8457031,-0.15625,0.0,-0.25,-30.875,-39.875,-84.8125,434
299,1695394188974,-0.049804688,-0.5449219,0.8613281,-0.03125,-0.0625,-0.03125,0.0,0.0,0.0,435
300,1695394189014,-0.052734375,-0.5419922,0.84277344,-0.15625,0.0625,0.03125,0.0,0.0,0.0,436
301,1695394189054,-0.0546875,-0.5419922,0.8378906,-0.03125,-0.125,-0.03125,0.0,0.0,0.0,437
302,1695394189094,-0.041015625,-0.5390625,0.84472656,0.09375,0.0625,-0.03125,0.0,0.0,0.0,438
303,1695394189134,-0.055664062,-0.54003906,0.84277344,-0.15625,0.0,0.03125,0.0,0.0,0.0,439
304,1695394189174,-0.043945312,-0.5419922,0.85253906,-0.03125,0.0,-0.03125,0.0,0.0,0.0,440
305,1695394189214,-0.055664062,-0.5390625,0.85253906,0.03125,0.0625,0.09375,0.0,0.0,0.0,441
306,1695394189254,-0.04296875,-0.54003906,0.8378906,0.09375,0.0,-0.09375,0.0,0.0,0.0,442
307,1695394189294,-0.05078125,-0.5410156,0.84472656,-0.03125,0.0,-0.03125,0.0,0.0,0.0,443
308,1695394189334,-0.05078125,-0.53515625,0.8359375,0.03125,0.0625,0.03125,0.0,0.0,0.0,444
309,1695394189374,-0.045898438,-0.53515625,0.8388672,0.03125,0.0625,-0.09375,0.0,0.0,0.0,445
310,1695394189414,-0.045898438,-0.54589844,0.8408203,0.03125,0.0625,-0.03125,0.0,0.0,0.0,446
311,1695394189454,-0.04296875,-0.5332031,0.8378906,-0.03125,-0.0625,-0.03125,-31.625,-39.5625,-86.4375,447
312,1695394189494,-0.0546875,-0.5390625,0.85546875,0.03125,0.125,-0.03125,0.0,0.0,0.0,448
313,1695394189534,-0.045898438,-0.54785156,0.83984375,-0.03125,0.0,-0.03125,0.0,0.0,0.0,449
314,1695394189574,-0.049804688,-0.53125,0.83203125,-0.21875,-0.1875,-0.15625,0.0,0.0,0.0,450
315,1695394189614,-0.048828125,-0.546875,0.8378906,0.03125,0.1875,0.09375,0.0,0.0,0.0,451
316,1695394189654,-0.047851562,-0.5371094,0.84765625,-0.09375,-0.125,0.09375,0.0,0.0,0.0,452
317,1695394189694,-0.048828125,-0.5439453,0.84375,0.15625,0.0,-0.03125,0.0,0.0,0.0,453
318,1695394189734,-0.055664062,-0.5253906,0.8544922,-0.375,0.125,0.03125,0.0,0.0,0.0,454
319,1695394189774,-0.052734375,-0.5371094,0.8339844,0.03125,0.0625,-0.09375,0.0,0.0,0.0,455
320,1695394189814,-0.053710938,-0.54589844,0.8310547,-0.21875,0.0,-0.21875,0.0,0.0,0.0,456
321,1695394189854,-0.037109375,-0.5361328,0.84375,-0.03125,0.0,-0.09375,0.0,0.0,0.0,457
322,1695394189894,-0.0546875,-0.5419922,0.84375,0.03125,0.0625,-0.03125,0.0,0.0,0.0,458
323,1695394189934,-0.053710938,-0.5332031,0.8486328,-0.03125,-0.125,0.03125,-30.875,-40.9375,-85.6875,459
324,1695394189974,-0.040039062,-0.5410156,0.83691406,0.03125,0.125,-0.09375,0.0,0.0,0.0,460
325,1695394190014,-0.045898438,-0.53808594,0.83691406,0.03125,0.0,0.03125,0.0,0.0,0.0,461
326,1695394190054,-0.0546875,-0.5361328,0.8466797,-0.03125,-0.0625,0.09375,0.0,0.0,0.0,462
327,1695394190094,-0.04296875,-0.53808594,0.84375,0.03125,-0.0625,0.09375,0.0,0.0,0.0,463
328,1695394190134,-0.051757812,-0.5439453,0.83203125,-0.03125,-0.0625,-0.03125,0.0,0.0,0.0,464
329,1695394190174,-0.05078125,-0.5332031,0.8359375,0.09375,0.0,-0.03125,0.0,0.0,0.0,465
330,1695394190214,-0.043945312,-0.5449219,0.8486328,-0.15625,0.0,0.03125,0.0,0.0,0.0,466
331,1695394190254,-0.041992188,-0.5371094,0.8496094,-0.03125,0.0,-0.03125,0.0,0.0,0.0,467
332,1695394190294,-0.046875,-0.5449219,0.8359375,-0.03125,-0.0625,-0.09375,0.0,0.0,0.0,468
333,1695394190334,-0.047851562,-0.54296875,0.83496094,0.03125,-0.1875,-0.03125,0.0,0.0,0.0,469
334,1695394190374,-0.041015625,-0.5439453,0.82714844,-0.09375,0.0625,-0.15625,0.0,0.0,0.0,470
335,1695394190414,-0.056640625,-0.53808594,0.8515625,0.21875,0.0625,-0.03125,0.0,0.0,0.0,471
336,1695394190454,-0.04296875,-0.5419922,0.8388672,-0.09375,-0.0625,0.03125,-30.875,-39.875,-86.75,472
337,1695394190494,-0.047851562,-0.5527344,0.84375,0.21875,0.125,-0.03125,0.0,0.0,0.0,473
338,1695394190534,-0.047851562,-0.5498047,0.83203125,-0.3125,-0.0625,-0.09375,0.0,0.0,0.0,474
339,1695394190574,-0.053710938,-0.5390625,0.84765625,-0.03125,0.0,-0.15625,0.0,0.0,0.0,475
340,1695394190614,-0.049804688,-0.5332031,0.8466797,-0.21875,-0.0625,-0.25,0.0,0.0,0.0,476
341,1695394190654,-0.044921875,-0.546875,0.8457031,-0.09375,0.0,-0.25,0.0,0.0,0.0,477
342,1695394190694,-0.04296875,-0.5419922,0.8359375,0.09375,0.1875,-0.25,0.0,0.0,0.0,478
343,1695394190734,-0.057617188,-0.54296875,0.8330078,-0.25,0.0,-0.09375,0.0,0.0,0.0,479
344,1695394190774,-0.049804688,-0.54589844,0.8457031,-0.03125,0.0,-0.21875,0.0,0.0,0.0,480
345,1695394190814,-0.057617188,-0.5419922,0.83496094,0.03125,0.125,-0.15625,0.0,0.0,0.0,481
346,1695394190854,-0.05078125,-0.5410156,0.828125,0.03125,0.0,-0.09375,0.0,0.0,0.0,482
347,1695394190894,-0.044921875,-0.5439453,0.83496094,0.03125,0.0,-0.09375,0.0,0.0,0.0,483
348,1695394190934,-0.047851562,-0.53515625,0.8408203,0.03125,-0.0625,0.03125,-31.625,-39.125,-86.125,484
349,1695394190974,-0.04296875,-0.5371094,0.8388672,-0.03125,-0.1875,-0.09375,0.0,0.0,0.0,485
350,1695394191014,-0.04296875,-0.53222656,0.8388672,-0.09375,0.125,-0.03125,0.0,0.0,0.0,486
351,1695394191054,-0.045898438,-0.5390625,0.8457031,0.09375,-0.25,0.09375,0.0,0.0,0.0,487
352,1695394191094,-0.053710938,-0.5390625,0.84277344,-0.09375,-0.25,0.28125,0.0,0.0,0.0,488
353,1695394191134,-0.046875,-0.5410156,0.83691406,-0.25,-0.3125,0.21875,0.0,0.0,0.0,489
354,1695394191174,-0.051757812,-0.54003906,0.8261719,-0.03125,-0.0625,0.15625,0.0,0.0,0.0,490
355,1695394191214,-0.044921875,-0.5361328,0.84375,-0.5,0.1875,0.15625,0.0,0.0,0.0,491
356,1695394191254,-0.049804688,-0.5449219,0.82714844,-0.03125,-0.1875,-0.03125,0.0,0.0,0.0,492
357,1695394191294,-0.047851562,-0.54589844,0.83984375,-0.375,0.0625,-0.3125,0.0,0.0,0.0,493
358,1695394191334,-0.051757812,-0.5498047,0.8388672,0.09375,0.0,-0.4375,0.0,0.0,0.0,494
359,1695394191374,-0.048828125,-0.54785156,0.84765625,0.15625,0.125,-0.4375,0.0,0.0,0.0,495
360,1695394191414,-0.047851562,-0.5449219,0.85253906,0.15625,0.1875,-0.3125,0.0,0.0,0.0,496
361,1695394191454,-0.047851562,-0.54003906,0.83984375,0.46875,0.25,-0.21875,-30.75,-39.6875,-85.25,497
362,1695394191494,-0.0546875,-0.5419922,0.8466797,0.09375,0.0625,-0.15625,0.0,0.0,0.0,498
363,1695394191534,-0.048828125,-0.5371094,0.828125,-0.09375,-0.125,-0.09375,0.0,0.0,0.0,499
364,1695394191574,-0.04296875,-0.5419922,0.8408203,-0.03125,-0.1875,-0.03125,0.0,0.0,0.0,500
365,1695394191614,-0.05078125,-0.53125,0.8378906,-0.03125,-0.1875,-0.03125,0.0,0.0,0.0,501
366,1695394191654,-0.048828125,-0.54296875,0.8408203,0.03125,0.1875,-0.25,0.0,0.0,0.0,502
367,1695394191694,-0.045898438,-0.55078125,0.83691406,0.03125,0.25,-0.25,0.0,0.0,0.0,503
368,1695394191734,-0.046875,-0.5332031,0.828125,-0.03125,-0.1875,-0.21875,0.0,0.0,0.0,504
369,1695394191774,-0.056640625,-0.53515625,0.8300781,-0.03125,0.125,-0.09375,0.0,0.0,0.0,505
370,1695394191814,-0.048828125,-0.54296875,0.8339844,0.15625,0.0625,-0.09375,0.0,0.0,0.0,506
371,1695394191854,-0.045898438,-0.53808594,0.8535156,0.15625,-0.125,-0.09375,0.0,0.0,0.0,507
372,1695394191894,-0.041015625,-0.5390625,0.8378906,0.09375,0.25,0.15625,0.0,0.0,0.0,508
373,1695394191934,-0.045898438,-0.5332031,0.8486328,0.15625,-0.1875,0.09375,-30.3125,-38.9375,-85.5625,509
374,1695394191974,-0.055664062,-0.53515625,0.8339844,-0.09375,0.0625,0.21875,0.0,0.0,0.0,510
375,1695394192014,-0.05078125,-0.5410156,0.84277344,-0.15625,0.0,0.15625,0.0,0.0,0.0,511
376,1695394192054,-0.053710938,-0.54003906,0.8457031,-0.03125,-0.0625,-0.09375,0.0,0.0,0.0,512
377,1695394192094,-0.05078125,-0.54589844,0.8310547,-0.15625,0.0,-0.15625,0.0,0.0,0.0,513
378,1695394192134,-0.046875,-0.5498047,0.8564453,0.28125,0.0625,-0.21875,0.0,0.0,0.0,514
379,1695394192174,-0.047851562,-0.5410156,0.84765625,0.03125,0.0625,-0.09375,0.0,0.0,0.0,515
380,1695394192214,-0.055664062,-0.54296875,0.8408203,0.03125,0.125,-0.09375,0.0,0.0,0.0,516
381,1695394192254,-0.053710938,-0.5419922,0.8535156,-0.03125,0.0,-0.03125,0.0,0.0,0.0,517
382,1695394192294,-0.05078125,-0.5419922,0.8232422,-0.15625,-0.0625,-0.15625,0.0,0.0,0.0,518
383,1695394192334,-0.051757812,-0.5390625,0.8232422,0.09375,0.0,-0.21875,0.0,0.0,0.0,519
384,1695394192374,-0.052734375,-0.5419922,0.83203125,0.03125,0.0625,-0.03125,0.0,0.0,0.0,520
385,1695394192414,-0.044921875,-0.54003906,0.828125,-0.03125,0.0,-0.03125,0.0,0.0,0.0,521
386,1695394192454,-0.0546875,-0.53222656,0.8388672,0.03125,0.125,-0.09375,-32.25,-37.75,-85.125,522
387,1695394192494,-0.047851562,-0.53515625,0.8457031,0.03125,0.125,-0.09375,0.0,0.0,0.0,523
388,1695394192534,-0.046875,-0.53222656,0.8388672,-0.09375,0.125,-0.15625,0.0,0.0,0.0,524
389,1695394192574,-0.04296875,-0.5439453,0.8388672,0.40625,0.1875,-0.03125,0.0,0.0,0.0,525
390,1695394192614,-0.05078125,-0.53515625,0.83691406,-0.15625,0.0625,-0.03125,0.0,0.0,0.0,526
391,1695394192654,-0.052734375,-0.5419922,0.8408203,0.34375,-0.125,0.09375,0.0,0.0,0.0,527
392,1695394192694,-0.05078125,-0.5439453,0.8251953,-0.15625,0.0625,0.03125,0.0,0.0,0.0,528
393,1695394192734,-0.048828125,-0.54296875,0.8417969,0.21875,0.0625,0.03125,0.0,0.0,0.0,529
394,1695394192774,-0.051757812,-0.54589844,0.8388672,0.28125,0.0625,-0.15625,0.0,0.0,0.0,530
395,1695394192814,-0.045898438,-0.5361328,0.8544922,-0.03125,-0.0625,-0.21875,0.0,0.0,0.0,531
396,1695394192854,-0.044921875,-0.5371094,0.84472656,0.21875,0.125,-0.09375,0.0,0.0,0.0,532
397,1695394192894,-0.047851562,-0.5410156,0.84277344,-0.09375,-0.0625,-0.09375,0.0,0.0,0.0,533
398,1695394192934,-0.051757812,-0.5419922,0.8359375,0.03125,0.0625,-0.15625,-31.0625,-39.6875,-86.0,534
399,1695394192974,-0.048828125,-0.5449219,0.83984375,-0.03125,-0.0625,0.09375,0.0,0.0,0.0,535
400,1695394193014,-0.05078125,-0.5371094,0.8408203,0.03125,0.125,-0.03125,0.0,0.0,0.0,536
401,1695394193054,-0.048828125,-0.53515625,0.8310547,0.15625,0.0625,-0.09375,0.0,0.0,0.0,537
402,1695394193094,-0.05078125,-0.5390625,0.84375,0.03125,0.0625,-0.15625,0.0,0.0,0.0,538
403,1695394193134,-0.05078125,-0.53222656,0.84277344,0.15625,0.125,-0.25,0.0,0.0,0.0,539
404,1695394193174,-0.041992188,-0.53515625,0.8378906,0.09375,0.0625,0.03125,0.0,0.0,0.0,540
405,1695394193214,-0.049804688,-0.546875,0.84472656,0.03125,0.0625,-0.15625,0.0,0.0,0.0,541
406,1695394193254,-0.051757812,-0.5419922,0.83496094,-0.03125,-0.0625,-0.15625,0.0,0.0,0.0,542
407,1695394193294,-0.041992188,-0.546875,0.8496094,0.15625,0.25,0.09375,0.0,0.0,0.0,543
408,1695394193334,-0.0546875,-0.5410156,0.8330078,-0.03125,-0.25,0.03125,0.0,0.0,0.0,544
409,1695394193374,-0.047851562,-0.53808594,0.8310547,0.03125,-0.0625,-0.21875,0.0,0.0,0.0,545
410,1695394193414,-0.047851562,-0.5410156,0.84472656,-0.09375,0.0625,-0.09375,0.0,0.0,0.0,546
411,1695394193454,-0.048828125,-0.54003906,0.85058594,0.34375,0.125,-0.15625,-30.4375,-40.625,-85.6875,547
412,1695394193494,-0.043945312,-0.5371094,0.8359375,-0.21875,0.0,-0.03125,0.0,0.0,0.0,548
413,1695394193534,-0.047851562,-0.54296875,0.8417969,0.15625,0.125,-0.09375,0.0,0.0,0.0,549
414,1695394193574,-0.048828125,-0.5390625,0.84472656,0.03125,0.0,-0.09375,0.0,0.0,0.0,550
415,1695394193614,-0.053710938,-0.54296875,0.83984375,0.09375,0.0625,0.03125,0.0,0.0,0.0,551
416,1695394193654,-0.044921875,-0.5498047,0.84472656,0.21875,0.0,-0.15625,0.0,0.0,0.0,552
417,1695394193694,-0.053710938,-0.5371094,0.8330078,-0.03125,0.0,-0.03125,0.0,0.0,0.0,553
418,1695394193734,-0.051757812,-0.546875,0.83496094,0.09375,0.125,-0.15625,0.0,0.0,0.0,554
419,1695394193774,-0.0546875,-0.5419922,0.8408203,0.03125,0.125,-0.21875,0.0,0.0,0.0,555
420,1695394193814,-0.0546875,-0.53808594,0.8466797,0.09375,0.0,-0.09375,0.0,0.0,0.0,556
421,1695394193854,-0.043945312,-0.53515625,0.8466797,-0.09375,-0.0625,-0.03125,0.0,0.0,0.0,557
422,1695394193894,-0.051757812,-0.5390625,0.85253906,-0.03125,0.0,-0.21875,0.0,0.0,0.0,558
423,1695394193934,-0.049804688,-0.5410156,0.8515625,0.09375,-0.125,-0.21875,-30.875,-40.3125,-85.6875,559
424,1695394193974,-0.057617188,-0.54296875,0.8417969,-0.15625,-0.125,-0.21875,0.0,0.0,0.0,560
425,1695394194014,-0.046875,-0.54296875,0.8466797,0.21875,-0.09375,0.0625,0.0,0.0,0.0,561
426,1695394194054,-0.049804688,-0.54003906,0.8310547,-0.15625,-0.09375,0.1875,0.0,0.0,0.0,562
427,1695394194094,-0.044921875,-0.5419922,0.85839844,0.25,0.03125,-0.0625,0.0,0.0,0.0,563
428,1695394194134,-0.051757812,-0.5439453,0.83984375,-0.40625,-0.03125,0.0,0.0,0.0,0.0,564
429,1695394194174,-0.05078125,-0.5449219,0.84472656,0.09375,-0.09375,-0.125,0.0,0.0,0.0,565
430,1695394194214,-0.04296875,-0.5390625,0.85253906,-0.03125,0.03125,-0.125,0.0,0.0,0.0,566
431,1695394194254,-0.052734375,-0.5361328,0.8310547,-0.09375,-0.15625,0.0,0.0,0.0,0.0,567
432,1695394194294,-0.049804688,-0.5449219,0.84375,0.15625,0.03125,0.0625,0.0,0.0,0.0,568
433,1695394194334,-0.051757812,-0.54785156,0.8408203,-0.09375,0.03125,-0.0625,0.0,0.0,0.0,569
434,1695394194374,-0.044921875,-0.53222656,0.82910156,-0.03125,-0.03125,-0.0625,0.0,0.0,0.0,570
435,1695394194414,-0.047851562,-0.5341797,0.8408203,-0.09375,-0.03125,0.0625,0.0,0.0,0.0,571
436,1695394194454,-0.05078125,-0.5439453,0.8486328,-0.03125,-0.03125,0.0625,-31.1875,-39.5625,-86.125,572
437,1695394194494,-0.053710938,-0.54785156,0.82714844,0.09375,0.03125,0.0,0.0,0.0,0.0,573
438,1695394194534,-0.043945312,-0.5439453,0.84375,0.09375,0.09375,0.125,0.0,0.0,0.0,574
439,1695394194574,-0.060546875,-0.54296875,0.83691406,0.03125,-0.03125,0.0,0.0,0.0,0.0,575
440,1695394194614,-0.047851562,-0.5439453,0.84375,-0.03125,0.09375,0.125,0.0,0.0,0.0,576
441,1695394194654,-0.05078125,-0.5410156,0.85058594,-0.03125,0.15625,-0.0625,0.0,0.0,0.0,577
442,1695394194694,-0.055664062,-0.5341797,0.84375,0.03125,0.03125,0.125,0.0,0.0,0.0,578
443,1695394194734,-0.052734375,-0.5410156,0.83203125,-0.09375,0.03125,-0.0625,0.0,0.0,0.0,579
444,1695394194774,-0.046875,-0.5498047,0.8310547,0.15625,0.03125,0.0,0.0,0.0,0.0,580
445,1695394194814,-0.048828125,-0.5371094,0.8300781,-0.34375,-0.09375,0.0625,0.0,0.0,0.0,581
446,1695394194854,-0.052734375,-0.54296875,0.8417969,0.25,-0.15625,0.0,0.0,0.0,0.0,582
447,1695394194894,-0.043945312,-0.5361328,0.8359375,-0.34375,-0.03125,-0.0625,0.0,0.0,0.0,583
448,1695394194934,-0.057617188,-0.5419922,0.8378906,0.15625,-0.03125,0.0,-31.9375,-39.5625,-86.125,584
449,1695394194974,-0.04296875,-0.5341797,0.8388672,-0.21875,0.09375,-0.125,0.0,0.0,0.0,585
450,1695394195014,-0.053710938,-0.5410156,0.83984375,0.15625,-0.15625,0.0625,0.0,0.0,0.0,586
451,1695394195054,-0.047851562,-0.54003906,0.8417969,0.03125,0.03125,-0.0625,0.0,0.0,0.0,587
452,1695394195094,-0.0546875,-0.5419922,0.8417969,0.03125,0.03125,0.125,0.0,0.0,0.0,588
453,1695394195134,-0.048828125,-0.5332031,0.84375,-0.03125,-0.03125,0.0,0.0,0.0,0.0,589
454,1695394195174,-0.048828125,-0.5371094,0.8330078,-0.03125,0.09375,0.0625,0.0,0.0,0.0,590
455,1695394195214,-0.0546875,-0.5390625,0.8359375,-0.03125,0.03125,0.0625,0.0,0.0,0.0,591
456,1695394195254,-0.04296875,-0.5410156,0.84472656,0.09375,0.09375,0.1875,0.0,0.0,0.0,592
457,1695394195294,-0.044921875,-0.5361328,0.8417969,0.09375,0.03125,0.125,0.0,0.0,0.0,593
458,1695394195334,-0.04296875,-0.546875,0.8388672,-0.15625,-0.15625,0.0,0.0,0.0,0.0,594
459,1695394195374,-0.049804688,-0.5361328,0.8378906,-0.03125,0.03125,0.0,0.0,0.0,0.0,595
460,1695394195414,-0.048828125,-0.5449219,0.84765625,-0.03125,0.03125,0.0625,0.0,0.0,0.0,596
461,1695394195454,-0.043945312,-0.5332031,0.8310547,-0.03125,-0.03125,-0.0625,-30.4375,-39.5625,-84.0625,597
462,1695394195494,-0.043945312,-0.5439453,0.8232422,-0.03125,0.09375,0.0,0.0,0.0,0.0,598
463,1695394195534,-0.05078125,-0.5341797,0.84472656,-0.03125,-0.28125,0.0625,0.0,0.0,0.0,599
464,1695394195574,-0.044921875,-0.54589844,0.828125,-0.15625,-0.03125,0.0625,0.0,0.0,0.0,600
465,1695394195614,-0.047851562,-0.5332031,0.8535156,-0.15625,-0.03125,0.0,0.0,0.0,0.0,601
466,1695394195654,-0.038085938,-0.5390625,0.84765625,-0.03125,-0.09375,-0.125,0.0,0.0,0.0,602
467,1695394195694,-0.043945312,-0.54003906,0.83691406,-0.28125,-0.09375,-0.1875,0.0,0.0,0.0,603
468,1695394195734,-0.053710938,-0.5390625,0.83691406,0.15625,0.03125,-0.0625,0.0,0.0,0.0,604
469,1695394195774,-0.05078125,-0.5410156,0.8457031,-0.09375,0.03125,-0.0625,0.0,0.0,0.0,605
470,1695394195814,-0.048828125,-0.54003906,0.83984375,-0.03125,0.03125,-0.125,0.0,0.0,0.0,606
471,1695394195854,-0.041015625,-0.5449219,0.8408203,-0.09375,-0.09375,0.0,0.0,0.0,0.0,607
472,1695394195894,-0.055664062,-0.546875,0.8417969,-0.09375,-0.03125,0.125,0.0,0.0,0.0,608
473,1695394195934,-0.045898438,-0.5419922,0.828125,0.09375,-0.03125,0.0,-31.8125,-39.6875,-86.0,609
474,1695394195974,-0.041992188,-0.5439453,0.8417969,-0.03125,0.03125,0.1875,0.0,0.0,0.0,610
475,1695394196014,-0.053710938,-0.54785156,0.8417969,0.03125,-0.09375,0.125,0.0,0.0,0.0,611
476,1695394196054,-0.049804688,-0.5410156,0.84765625,-0.15625,0.03125,-0.0625,0.0,0.0,0.0,612
477,1695394196094,-0.049804688,-0.54785156,0.8466797,-0.09375,-0.03125,-0.0625,0.0,0.0,0.0,613
478,1695394196134,-0.047851562,-0.54296875,0.8574219,-0.09375,-0.03125,-0.125,0.0,0.0,0.0,614
479,1695394196174,-0.0546875,-0.53027344,0.8466797,-0.28125,-0.15625,-0.125,0.0,0.0,0.0,615
480,1695394196214,-0.05078125,-0.53027344,0.8378906,0.15625,0.03125,0.0,0.0,0.0,0.0,616
481,1695394196254,-0.048828125,-0.5371094,0.8544922,-0.21875,-0.15625,0.125,0.0,0.0,0.0,617
482,1695394196294,-0.045898438,-0.54003906,0.84277344,0.21875,-0.03125,0.0,0.0,0.0,0.0,618
483,1695394196334,-0.049804688,-0.54296875,0.84765625,-0.34375,-0.09375,-0.0625,0.0,0.0,0.0,619
484,1695394196374,-0.052734375,-0.54589844,0.8388672,0.09375,-0.09375,0.0,0.0,0.0,0.0,620
485,1695394196414,-0.059570312,-0.5419922,0.8417969,-0.09375,-0.03125,-0.1875,0.0,0.0,0.0,621
486,1695394196454,-0.056640625,-0.5390625,0.83984375,-0.03125,-0.03125,0.0,-30.3125,-40.75,-86.0,622
487,1695394196494,-0.047851562,-0.54003906,0.8408203,0.03125,0.09375,-0.0625,0.0,0.0,0.0,623
488,1695394196534,-0.053710938,-0.53808594,0.8261719,-0.03125,0.15625,-0.0625,0.0,0.0,0.0,624
489,1695394196574,-0.047851562,-0.54003906,0.8359375,0.03125,-0.09375,-0.0625,0.0,0.0,0.0,625
490,1695394196614,-0.053710938,-0.5449219,0.8330078,-0.15625,-0.09375,0.0,0.0,0.0,0.0,626
491,1695394196654,-0.053710938,-0.5410156,0.8330078,-0.0625,0.0,0.0625,0.0,0.0,0.0,627
492,1695394196694,-0.052734375,-0.5517578,0.8408203,0.0,0.0625,0.0,0.0,0.0,0.0,628
493,1695394196734,-0.04296875,-0.53222656,0.84472656,0.0,0.0625,0.0625,0.0,0.0,0.0,629
494,1695394196774,-0.043945312,-0.5439453,0.8417969,0.125,0.125,0.0625,0.0,0.0,0.0,630
495,1695394196814,-0.060546875,-0.5410156,0.8339844,-0.0625,-0.0625,0.0625,0.0,0.0,0.0,631
496,1695394196854,-0.051757812,-0.5439453,0.8300781,-0.0625,0.0,-0.0625,0.0,0.0,0.0,632
497,1695394196894,-0.055664062,-0.54589844,0.8378906,0.0625,0.125,0.0625,0.0,0.0,0.0,633
498,1695394196934,-0.046875,-0.5449219,0.8339844,0.0625,0.0625,-0.125,-31.9375,-39.875,-85.375,634
499,1695394196974,-0.05078125,-0.5419922,0.83984375,0.0,0.125,0.1875,0.0,0.0,0.0,635
500,1695394197014,-0.052734375,-0.53027344,0.8466797,-0.0625,-0.1875,0.0,0.0,0.0,0.0,636
501,1695394197054,-0.043945312,-0.5449219,0.8417969,0.0,0.0625,0.0625,0.0,0.0,0.0,637
502,1695394197094,-0.040039062,-0.54589844,0.83691406,-0.1875,0.0625,0.0,0.0,0.0,0.0,638
503,1695394197134,-0.043945312,-0.5419922,0.8457031,0.0625,-0.125,-0.25,0.0,0.0,0.0,639
504,1695394197174,-0.047851562,-0.5371094,0.8251953,-0.1875,0.0,-0.25,0.0,0.0,0.0,640
505,1695394197214,-0.053710938,-0.54296875,0.8457031,0.1875,-0.0625,-0.0625,0.0,0.0,0.0,641
506,1695394197254,-0.049804688,-0.5410156,0.8408203,-0.0625,-0.0625,0.0,0.0,0.0,0.0,642
507,1695394197294,-0.045898438,-0.53027344,0.8251953,0.0625,0.0625,-0.0625,0.0,0.0,0.0,643
508,1695394197334,-0.051757812,-0.5390625,0.8359375,0.0,-0.0625,0.0625,0.0,0.0,0.0,644
509,1695394197374,-0.052734375,-0.5439453,0.84472656,-0.0625,-0.0625,0.125,0.0,0.0,0.0,645
510,1695394197414,-0.04296875,-0.5410156,0.8417969,0.1875,0.15625,0.0,0.0,0.0,0.0,646
511,1695394197454,-0.047851562,-0.53027344,0.8544922,0.0625,0.0,0.0625,-31.0625,-39.6875,-86.625,647
512,1695394197494,-0.043945312,-0.5410156,0.84375,0.125,0.0625,0.0,0.0,0.0,0.0,648
513,1695394197534,-0.041992188,-0.5371094,0.83691406,0.0625,0.125,0.0625,0.0,0.0,0.0,649
514,1695394197574,-0.052734375,-0.5419922,0.83496094,0.0,0.125,0.0,0.0,0.0,0.0,650
515,1695394197614,-0.048828125,-0.5488281,0.83984375,0.125,0.0,0.0625,0.0,0.0,0.0,651
516,1695394197654,-0.051757812,-0.5371094,0.8359375,0.0,0.0625,0.0625,0.0,0.0,0.0,652
517,1695394197694,-0.048828125,-0.54589844,0.8388672,-0.0625,-0.0625,-0.0625,0.0,0.0,0.0,653
518,1695394197734,-0.044921875,-0.54003906,0.8378906,0.1875,0.0625,0.0,0.0,0.0,0.0,654
519,1695394197774,-0.053710938,-0.5332031,0.8339844,-0.21875,0.125,0.125,0.0,0.0,0.0,655
520,1695394197814,-0.052734375,-0.54003906,0.8330078,0.375,-0.125,0.0,0.0,0.0,0.0,656
521,1695394197854,-0.041992188,-0.53515625,0.85253906,-0.40625,0.0625,0.125,0.0,0.0,0.0,657
522,1695394197894,-0.05078125,-0.53808594,0.8457031,0.125,-0.0625,0.0625,0.0,0.0,0.0,658
523,1695394197934,-0.047851562,-0.53125,0.8359375,-0.0625,0.125,0.0625,-32.875,-39.6875,-84.9375,659
524,1695394197974,-0.046875,-0.54589844,0.8339844,-0.21875,-0.0625,0.3125,0.0,0.0,0.0,811
525,1695394198014,-0.05078125,-0.54003906,0.8466797,-0.0625,-0.0625,0.4375,0.0,0.0,0.0,812
526,1695394198054,-0.053710938,-0.54785156,0.84472656,0.0,0.0,0.4375,0.0,0.0,0.0,813
527,1695394198094,-0.0546875,-0.54003906,0.84375,-0.0625,-0.1875,0.25,0.0,0.0,0.0,814
528,1695394198134,-0.047851562,-0.5449219,0.83984375,-0.0625,-0.1875,0.1875,0.0,0.0,0.0,815
529,1695394198174,-0.051757812,-0.5341797,0.8339844,-0.1875,-0.25,0.25,0.0,0.0,0.0,816
530,1695394198214,-0.059570312,-0.5527344,0.8417969,0.0625,0.0625,0.1875,0.0,0.0,0.0,817
531,1695394198254,-0.046875,-0.5419922,0.83984375,-0.0625,-0.25,0.25,0.0,0.0,0.0,818
532,1695394198294,-0.048828125,-0.5390625,0.84375,-0.125,-0.0625,0.25,0.0,0.0,0.0,819
533,1695394198334,-0.0546875,-0.53222656,0.84277344,-0.1875,-0.0625,0.125,0.0,0.0,0.0,820
534,1695394198374,-0.05078125,-0.53515625,0.8339844,-0.0625,-0.0625,0.125,0.0,0.0,0.0,821
535,1695394198414,-0.046875,-0.53515625,0.8330078,-0.21875,0.0,0.125,-32.5625,-38.9375,-85.25,822
536,1695394198454,-0.049804688,-0.546875,0.84375,-0.0625,-0.125,0.1875,0.0,0.0,0.0,823
537,1695394198494,-0.0546875,-0.54296875,0.8457031,-0.0625,0.0,0.125,0.0,0.0,0.0,824
538,1695394198534,-0.0546875,-0.54589844,0.84765625,-0.125,-0.0625,0.25,0.0,0.0,0.0,825
539,1695394198574,-0.047851562,-0.54589844,0.8388672,-0.1875,-0.125,0.125,0.0,0.0,0.0,826
540,1695394198614,-0.049804688,-0.546875,0.83984375,-0.125,-0.0625,0.25,0.0,0.0,0.0,827
541,1695394198654,-0.051757812,-0.54589844,0.83984375,0.0625,0.0625,0.1875,0.0,0.0,0.0,828
542,1695394198694,-0.051757812,-0.53808594,0.82714844,-0.125,-0.125,0.1875,0.0,0.0,0.0,829
543,1695394198734,-0.049804688,-0.54003906,0.8359375,0.0,-0.125,0.25,0.0,0.0,0.0,830
544,1695394198774,-0.049804688,-0.5390625,0.8378906,-0.125,-0.0625,0.25,0.0,0.0,0.0,831
545,1695394198814,-0.046875,-0.5410156,0.8408203,-0.0625,-0.125,0.375,0.0,0.0,0.0,832
546,1695394198854,-0.048828125,-0.54589844,0.83203125,0.0,-0.125,0.1875,0.0,0.0,0.0,833
547,1695394198894,-0.047851562,-0.5332031,0.8330078,-0.21875,-0.0625,0.125,-31.1875,-40.625,-85.6875,834
548,1695394198934,-0.048828125,-0.54785156,0.8310547,0.25,0.125,0.3125,0.0,0.0,0.0,835
549,1695394198974,-0.04296875,-0.5292969,0.8408203,-0.21875,-0.25,0.1875,0.0,0.0,0.0,836
550,1695394199014,-0.056640625,-0.5498047,0.8378906,0.0625,-0.0625,0.125,0.0,0.0,0.0,837
551,1695394199054,-0.0546875,-0.5439453,0.8378906,-0.34375,-0.0625,0.1875,0.0,0.0,0.0,838
552,1695394199094,-0.049804688,-0.53222656,0.84472656,0.0,-0.1875,0.125,0.0,0.0,0.0,839
553,1695394199134,-0.051757812,-0.54003906,0.83691406,0.0,0.0625,0.125,0.0,0.0,0.0,840
554,1695394199174,-0.048828125,-0.5390625,0.83691406,-0.0625,-0.125,0.0625,0.0,0.0,0.0,841
555,1695394199214,-0.047851562,-0.5449219,0.8408203,-0.0625,0.0,0.125,0.0,0.0,0.0,842
556,1695394199254,-0.049804688,-0.5390625,0.8466797,-0.1875,-0.125,0.1875,0.0,0.0,0.0,843
557,1695394199294,-0.044921875,-0.5449219,0.8388672,-0.0625,-0.125,0.125,0.0,0.0,0.0,844
558,1695394199334,-0.04296875,-0.5419922,0.85253906,-0.0625,-0.0625,0.25,0.0,0.0,0.0,845
559,1695394199374,-0.040039062,-0.54003906,0.83496094,0.0625,0.0,0.25,0.0,0.0,0.0,846
560,1695394199414,-0.051757812,-0.5410156,0.8535156,-0.125,-0.125,0.3125,-31.8125,-41.1875,-86.3125,847
561,1695394199454,-0.0625,-0.53515625,0.8261719,-0.0625,-0.0625,0.375,0.0,0.0,0.0,848
562,1695394199494,-0.053710938,-0.5361328,0.8457031,-0.0625,-0.0625,0.25,0.0,0.0,0.0,849
563,1695394199534,-0.044921875,-0.53515625,0.84375,-0.0625,0.0,0.125,0.0,0.0,0.0,850
564,1695394199574,-0.05859375,-0.5449219,0.8457031,-0.0625,-0.0625,0.125,0.0,0.0,0.0,851
565,1695394199614,-0.052734375,-0.5410156,0.8330078,-0.1875,0.0,0.25,0.0,0.0,0.0,852
566,1695394199654,-0.053710938,-0.5371094,0.84375,0.125,-0.0625,-0.09375,0.0,0.0,0.0,853
567,1695394199694,-0.056640625,-0.54296875,0.8408203,-0.1875,0.125,0.03125,0.0,0.0,0.0,854
568,1695394199734,-0.05078125,-0.55078125,0.8359375,0.125,-0.25,-0.15625,0.0,0.0,0.0,855
569,1695394199774,-0.048828125,-0.5371094,0.8300781,-0.1875,-0.125,-0.03125,0.0,0.0,0.0,856
570,1695394199814,-0.045898438,-0.54589844,0.85253906,-0.1875,-0.125,-0.09375,0.0,0.0,0.0,857
571,1695394199854,-0.049804688,-0.5341797,0.84277344,0.0,0.0625,-0.28125,0.0,0.0,0.0,858
572,1695394199894,-0.045898438,-0.53808594,0.828125,-0.0625,-0.1875,-0.28125,-31.8125,-39.6875,-86.625,859
573,1695394199934,-0.051757812,-0.5371094,0.8457031,0.1875,0.0,-0.15625,0.0,0.0,0.0,860
574,1695394199974,-0.044921875,-0.5292969,0.84472656,-0.125,-0.0625,-0.15625,0.0,0.0,0.0,861
575,1695394200014,-0.049804688,-0.53515625,0.8339844,0.0,0.0,-0.03125,0.0,0.0,0.0,862
576,1695394200054,-0.05859375,-0.54589844,0.8466797,0.0,-0.125,-0.03125,0.0,0.0,0.0,863
577,1695394200094,-0.049804688,-0.54003906,0.84277344,0.0,0.0625,0.03125,0.0,0.0,0.0,864
578,1695394200134,-0.05078125,-0.5341797,0.8388672,0.0625,0.0625,-0.03125,0.0,0.0,0.0,865
579,1695394200174,-0.052734375,-0.53125,0.83984375,0.0625,0.125,0.03125,0.0,0.0,0.0,866
580,1695394200214,-0.041015625,-0.54296875,0.8378906,0.0,0.0,0.09375,0.0,0.0,0.0,867
581,1695394200254,-0.048828125,-0.54785156,0.83691406,0.0625,0.0625,-0.03125,0.0,0.0,0.0,868
582,1695394200294,-0.044921875,-0.5410156,0.82714844,0.0625,-0.0625,-0.03125,0.0,0.0,0.0,869
583,1695394200334,-0.051757812,-0.53515625,0.8300781,0.0625,0.0,0.09375,0.0,0.0,0.0,870
584,1695394200374,-0.048828125,-0.5410156,0.8486328,-0.0625,-0.0625,-0.03125,0.0,0.0,0.0,871
585,1695394200414,-0.047851562,-0.53027344,0.8574219,0.125,0.0625,-0.03125,-30.3125,-39.4375,-86.0,872
586,1695394200454,-0.049804688,-0.54785156,0.8408203,-0.25,0.125,0.09375,0.0,0.0,0.0,873
587,1695394200494,-0.0546875,-0.5439453,0.8515625,0.0625,-0.125,0.15625,0.0,0.0,0.0,874
588,1695394200534,-0.052734375,-0.54785156,0.8359375,-0.25,0.0,-0.03125,0.0,0.0,0.0,875
589,1695394200574,-0.041015625,-0.54003906,0.8535156,0.125,-0.125,0.03125,0.0,0.0,0.0,876
590,1695394200614,-0.053710938,-0.546875,0.85253906,-0.1875,-0.125,-0.15625,0.0,0.0,0.0,877
591,1695394200654,-0.048828125,-0.53515625,0.8408203,-0.0625,-0.125,-0.09375,0.0,0.0,0.0,878
592,1695394200694,-0.051757812,-0.5439453,0.85253906,0.0,-0.0625,-0.03125,0.0,0.0,0.0,879
593,1695394200734,-0.0546875,-0.54296875,0.83496094,0.0,0.0,-0.15625,0.0,0.0,0.0,880
594,1695394200774,-0.043945312,-0.5390625,0.8173828,0.0625,0.125,-0.03125,0.0,0.0,0.0,881
595,1695394200814,-0.044921875,-0.5449219,0.8359375,0.0,0.0,0.09375,0.0,0.0,0.0,882
596,1695394200854,-0.0546875,-0.54589844,0.83496094,0.125,0.0625,0.15625,0.0,0.0,0.0,883
597,1695394200894,-0.051757812,-0.5488281,0.8339844,0.0,0.0,0.03125,-31.375,-39.6875,-87.0625,884
598,1695394200934,-0.043945312,-0.5410156,0.8388672,0.0,-0.0625,0.03125,0.0,0.0,0.0,885
599,1695394200974,-0.05078125,-0.5361328,0.85253906,0.0,0.0625,0.09375,0.0,0.0,0.0,886
600,1695394201014,-0.05859375,-0.5419922,0.8310547,0.0,-0.125,0.03125,0.0,0.0,0.0,887
601,1695394201054,-0.048828125,-0.5449219,0.8408203,0.0,0.0625,-0.15625,0.0,0.0,0.0,888
602,1695394201094,-0.048828125,-0.5361328,0.8330078,-0.125,-0.1875,-0.15625,0.0,0.0,0.0,889
603,1695394201134,-0.048828125,-0.5439453,0.8330078,0.0625,0.0625,-0.03125,0.0,0.0,0.0,890
604,1695394201174,-0.043945312,-0.5449219,0.8496094,-0.125,0.0,0.03125,0.0,0.0,0.0,891
605,1695394201214,-0.048828125,-0.5517578,0.8613281,0.0,0.0625,-0.03125,0.0,0.0,0.0,892
606,1695394201254,-0.051757812,-0.5361328,0.8515625,-0.3125,0.0,-0.09375,0.0,0.0,0.0,893
607,1695394201294,-0.047851562,-0.5488281,0.84277344,0.0625,0.0,-0.15625,0.0,0.0,0.0,894
608,1695394201334,-0.05078125,-0.54589844,0.8330078,-0.25,0.0625,-0.28125,0.0,0.0,0.0,895
609,1695394201374,-0.048828125,-0.53808594,0.84277344,0.125,0.0625,-0.15625,0.0,0.0,0.0,896
610,1695394201414,-0.04296875,-0.53027344,0.8359375,0.0,0.0625,-0.09375,-31.8125,-40.0,-85.5625,897
611,1695394201454,-0.053710938,-0.53515625,0.8466797,0.0,0.0,-0.15625,0.0,0.0,0.0,898
612,1695394201494,-0.048828125,-0.5439453,0.83691406,0.0,-0.0625,-0.03125,0.0,0.0,0.0,899
613,1695394201534,-0.043945312,-0.54785156,0.84765625,0.0,-0.0625,0.03125,0.0,0.0,0.0,900
614,1695394201574,-0.0546875,-0.53808594,0.84472656,0.0625,0.125,-0.03125,0.0,0.0,0.0,901
615,1695394201614,-0.044921875,-0.5410156,0.8300781,0.0,0.0625,-0.03125,0.0,0.0,0.0,902
616,1695394201654,-0.056640625,-0.54003906,0.83984375,0.0625,0.0,0.03125,0.0,0.0,0.0,903
617,1695394201694,-0.056640625,-0.5439453,0.85546875,-0.125,0.0625,0.03125,0.0,0.0,0.0,904
618,1695394201734,-0.05078125,-0.54296875,0.8251953,0.0625,0.125,-0.03125,0.0,0.0,0.0,905
619,1695394201774,-0.055664062,-0.54003906,0.83203125,0.125,0.0625,-0.03125,0.0,0.0,0.0,906
620,1695394201814,-0.044921875,-0.5390625,0.83984375,-0.125,0.0625,-0.09375,0.0,0.0,0.0,907
621,1695394201854,-0.059570312,-0.5439453,0.8417969,0.25,0.0,-0.09375,0.0,0.0,0.0,908
622,1695394201894,-0.0546875,-0.5361328,0.82910156,-0.3125,0.0625,0.09375,-30.125,-39.5625,-85.125,909
623,1695394201934,-0.047851562,-0.5419922,0.83496094,0.3125,-0.125,-0.03125,0.0,0.0,0.0,910
624,1695394201974,-0.044921875,-0.54589844,0.8486328,-0.375,-0.0625,0.09375,0.0,0.0,0.0,911
625,1695394202014,-0.056640625,-0.5439453,0.8300781,0.0,0.0,-0.09375,0.0,0.0,0.0,912
626,1695394202054,-0.05078125,-0.53808594,0.8408203,0.0,0.0,-0.21875,0.0,0.0,0.0,913
627,1695394202094,-0.04296875,-0.54003906,0.84277344,-0.1875,0.0,-0.15625,0.0,0.0,0.0,914
628,1695394202134,-0.046875,-0.5361328,0.83496094,0.1875,0.0625,-0.09375,0.0,0.0,0.0,915
629,1695394202174,-0.051757812,-0.5371094,0.86035156,-0.0625,-0.0625,-0.03125,0.0,0.0,0.0,916
630,1695394202214,-0.051757812,-0.54003906,0.8339844,0.0625,-0.125,-0.03125,0.0,0.0,0.0,917
631,1695394202254,-0.041015625,-0.5410156,0.8486328,0.0,0.0,0.03125,0.0,0.0,0.0,918
632,1695394202294,-0.053710938,-0.54003906,0.828125,0.0625,0.125,0.09375,0.0,0.0,0.0,919
633,1695394202334,-0.049804688,-0.53808594,0.82714844,0.0625,0.125,-0.03125,0.0,0.0,0.0,920
634,1695394202374,-0.044921875,-0.5371094,0.8408203,0.0625,0.125,0.09375,0.0,0.0,0.0,921
635,1695394202414,-0.05078125,-0.53515625,0.8388672,0.0,-0.0625,-0.03125,-30.75,-40.4375,-85.5625,922
636,1695394202454,-0.049804688,-0.5390625,0.8417969,0.0,0.0,-0.09375,0.0,0.0,0.0,923
637,1695394202494,-0.045898438,-0.5361328,0.8330078,0.0,0.0625,0.03125,0.0,0.0,0.0,924
638,1695394202534,-0.049804688,-0.546875,0.8408203,-0.125,0.0625,0.03125,0.0,0.0,0.0,925
639,1695394202574,-0.044921875,-0.5390625,0.83203125,-0.1875,0.0625,-0.09375,0.0,0.0,0.0,926
640,1695394202614,-0.05078125,-0.54589844,0.84277344,0.1875,0.0625,0.03125,0.0,0.0,0.0,927
641,1695394202654,-0.0546875,-0.5341797,0.8623047,-0.25,-0.0625,0.03125,0.0,0.0,0.0,928
642,1695394202694,-0.051757812,-0.54003906,0.8388672,0.125,-0.0625,-0.15625,0.0,0.0,0.0,929
643,1695394202734,-0.049804688,-0.54589844,0.8417969,-0.125,0.0625,-0.03125,0.0,0.0,0.0,930
644,1695394202774,-0.048828125,-0.5410156,0.84277344,0.0625,0.0,-0.28125,0.0,0.0,0.0,931
645,1695394202814,-0.051757812,-0.54003906,0.84277344,-0.0625,0.0,-0.15625,0.0,0.0,0.0,932
646,1695394202854,-0.046875,-0.54296875,0.8408203,0.25,-0.0625,-0.34375,0.0,0.0,0.0,933
647,1695394202894,-0.046875,-0.5390625,0.8330078,0.0,-0.0625,-0.15625,-30.4375,-38.8125,-86.4375,934
648,1695394202934,-0.053710938,-0.53808594,0.8359375,0.125,0.1875,-0.15625,0.0,0.0,0.0,935
649,1695394202974,-0.059570312,-0.54003906,0.8300781,0.1875,0.1875,-0.28125,0.0,0.0,0.0,936
650,1695394203014,-0.048828125,-0.54296875,0.8417969,0.0,0.0625,-0.09375,0.0,0.0,0.0,937
651,1695394203054,-0.041015625,-0.5439453,0.83203125,0.1875,0.125,-0.21875,0.0,0.0,0.0,938
652,1695394203094,-0.051757812,-0.53808594,0.84765625,0.0625,0.125,-0.21875,0.0,0.0,0.0,939
653,1695394203134,-0.047851562,-0.5449219,0.84472656,0.0625,0.0625,-0.09375,0.0,0.0,0.0,940
654,1695394203174,-0.056640625,-0.5361328,0.8466797,0.125,0.1875,-0.28125,0.0,0.0,0.0,941
655,1695394203214,-0.047851562,-0.55078125,0.8330078,0.0,0.125,-0.15625,0.0,0.0,0.0,942
656,1695394203254,-0.048828125,-0.5371094,0.85546875,0.125,0.125,-0.34375,0.0,0.0,0.0,943
657,1695394203294,-0.05078125,-0.54296875,0.83691406,0.0,0.0625,-0.28125,0.0,0.0,0.0,944
658,1695394203334,-0.047851562,-0.53808594,0.8310547,0.0,0.0,-0.28125,0.0,0.0,0.0,945
659,1695394203374,-0.053710938,-0.54003906,0.8417969,0.25,0.0625,-0.09375,0.0,0.0,0.0,946
660,1695394203414,-0.041992188,-0.5410156,0.8388672,-0.0625,-0.0625,-0.15625,-30.125,-39.875,-86.125,947
661,1695394203454,-0.045898438,-0.5449219,0.84375,0.1875,0.125,-0.15625,0.0,0.0,0.0,948
662,1695394203494,-0.047851562,-0.5439453,0.828125,-0.125,0.125,-0.28125,0.0,0.0,0.0,949
663,1695394203534,-0.049804688,-0.5332031,0.8466797,0.125,0.0625,-0.21875,0.0,0.0,0.0,950
664,1695394203574,-0.05078125,-0.54003906,0.83691406,-0.125,0.125,-0.34375,0.0,0.0,0.0,951
665,1695394203614,-0.052734375,-0.5419922,0.8457031,0.1875,-0.0625,-0.28125,0.0,0.0,0.0,952
666,1695394203654,-0.049804688,-0.5410156,0.8466797,0.0,0.0625,-0.15625,0.0,0.0,0.0,953
667,1695394203694,-0.048828125,-0.5361328,0.84472656,0.0,-0.0625,-0.15625,0.0,0.0,0.0,954
668,1695394203734,-0.043945312,-0.5390625,0.8486328,0.0,0.0,-0.15625,0.0,0.0,0.0,955
669,1695394203774,-0.049804688,-0.53222656,0.828125,-0.125,0.0625,-0.21875,0.0,0.0,0.0,956
670,1695394203814,-0.051757812,-0.54589844,0.82714844,0.1875,0.0625,-0.15625,0.0,0.0,0.0,957
671,1695394203854,-0.051757812,-0.5410156,0.8408203,0.0625,0.1875,-0.21875,0.0,0.0,0.0,958
672,1695394203894,-0.051757812,-0.5361328,0.8378906,0.0,-0.0625,-0.09375,-30.875,-39.5625,-86.4375,959
673,1695394203934,-0.044921875,-0.5419922,0.8466797,0.0,-0.0625,-0.21875,0.0,0.0,0.0,960
674,1695394203974,-0.052734375,-0.5488281,0.8515625,-0.0625,0.0,-0.15625,0.0,0.0,0.0,961
675,1695394204014,-0.051757812,-0.53808594,0.8359375,0.0625,0.125,-0.21875,0.0,0.0,0.0,962
676,1695394204054,-0.0390625,-0.5449219,0.83496094,-0.0625,0.0,-0.28125,0.0,0.0,0.0,963
677,1695394204094,-0.059570312,-0.5361328,0.8515625,0.1875,0.21875,-0.28125,0.0,0.0,0.0,964
678,1695394204134,-0.057617188,-0.54296875,0.84375,-0.0625,-0.125,-0.21875,0.0,0.0,0.0,965
679,1695394204174,-0.048828125,-0.5419922,0.8388672,0.125,0.125,-0.15625,0.0,0.0,0.0,966
680,1695394204214,-0.049804688,-0.5410156,0.83496094,-0.25,0.0625,-0.28125,0.0,0.0,0.0,967
681,1695394204254,-0.0546875,-0.53808594,0.83984375,0.125,0.125,-0.375,0.0,0.0,0.0,968
682,1695394204294,-0.05078125,-0.54589844,0.84277344,-0.125,0.125,-0.34375,0.0,0.0,0.0,969
683,1695394204334,-0.049804688,-0.54296875,0.8535156,0.125,0.0,-0.4375,0.0,0.0,0.0,970
684,1695394204374,-0.052734375,-0.54003906,0.83691406,0.0625,0.125,-0.34375,0.0,0.0,0.0,971
685,1695394204414,-0.047851562,-0.54589844,0.8408203,-0.0625,0.0,-0.21875,-30.75,-38.9375,-87.0625,972
686,1695394204454,-0.05859375,-0.53515625,0.83984375,0.0625,0.125,-0.28125,0.0,0.0,0.0,973
687,1695394204494,-0.046875,-0.54296875,0.84375,0.0,0.1875,-0.09375,0.0,0.0,0.0,974
688,1695394204534,-0.053710938,-0.53808594,0.82714844,0.1875,0.0,-0.15625,0.0,0.0,0.0,975
689,1695394204574,-0.043945312,-0.5371094,0.84277344,0.0625,0.125,-0.21875,0.0,0.0,0.0,976
690,1695394204614,-0.049804688,-0.54003906,0.84375,0.0625,0.125,-0.15625,0.0,0.0,0.0,977
691,1695394204654,-0.043945312,-0.5332031,0.8359375,0.0,0.0,-0.21875,0.0,0.0,0.0,978
692,1695394204694,-0.044921875,-0.546875,0.84277344,0.0,0.0625,-0.21875,0.0,0.0,0.0,979
693,1695394204734,-0.049804688,-0.5439453,0.84472656,-0.0625,0.0,-0.15625,0.0,0.0,0.0,980
694,1695394204774,-0.05078125,-0.54296875,0.83496094,-0.125,-0.0625,-0.15625,0.0,0.0,0.0,981
695,1695394204814,-0.052734375,-0.5410156,0.8466797,0.25,0.21875,-0.09375,0.0,0.0,0.0,982
696,1695394204854,-0.049804688,-0.53515625,0.8339844,-0.15625,-0.0625,0.03125,0.0,0.0,0.0,983
697,1695394204894,-0.049804688,-0.54296875,0.8378906,0.21875,0.0625,-0.125,-31.375,-39.4375,-85.25,984
698,1695394204934,-0.045898438,-0.5371094,0.8486328,-0.40625,-0.0625,0.03125,0.0,0.0,0.0,985
699,1695394204974,-0.048828125,-0.5419922,0.83496094,-0.03125,-0.0625,-0.25,0.0,0.0,0.0,986
700,1695394205014,-0.049804688,-0.54003906,0.8408203,-0.15625,0.0,-0.1875,0.0,0.0,0.0,987
701,1695394205054,-0.047851562,-0.5439453,0.8466797,-0.03125,0.0,-0.1875,0.0,0.0,0.0,988
702,1695394205094,-0.043945312,-0.54003906,0.83984375,0.03125,0.125,-0.09375,0.0,0.0,0.0,989
703,1695394205134,-0.041015625,-0.53125,0.8496094,-0.15625,-0.0625,-0.09375,0.0,0.0,0.0,990
704,1695394205174,-0.06347656,-0.5410156,0.83984375,-0.03125,-0.0625,-0.125,0.0,0.0,0.0,991
705,1695394205214,-0.052734375,-0.5439453,0.84375,-0.09375,0.0625,-0.03125,0.0,0.0,0.0,992
706,1695394205254,-0.04296875,-0.5449219,0.8359375,0.15625,0.0625,-0.03125,0.0,0.0,0.0,993
707,1695394205294,-0.05078125,-0.5419922,0.8330078,0.03125,0.125,0.09375,0.0,0.0,0.0,994
708,1695394205334,-0.053710938,-0.53515625,0.8378906,-0.03125,0.0,0.09375,0.0,0.0,0.0,995
709,1695394205374,-0.056640625,-0.5419922,0.85058594,-0.03125,0.0,0.15625,0.0,0.0,0.0,996
710,1695394205414,-0.053710938,-0.5449219,0.85546875,-0.03125,0.0,0.03125,-31.1875,-41.375,-86.4375,997
711,1695394205454,-0.047851562,-0.5498047,0.8417969,0.03125,-0.0625,0.09375,0.0,0.0,0.0,998
712,1695394205494,-0.049804688,-0.5439453,0.84375,0.09375,0.0625,0.03125,0.0,0.0,0.0,999
713,1695394205534,-0.052734375,-0.53222656,0.8378906,-0.03125,-0.125,-0.09375,0.0,0.0,0.0,1000
714,1695394205574,-0.046875,-0.5410156,0.83203125,0.03125,0.34375,0.09375,0.0,0.0,0.0,1001
715,1695394205614,-0.044921875,-0.5371094,0.8457031,-0.03125,-0.125,-0.125,0.0,0.0,0.0,1002
716,1695394205654,-0.052734375,-0.5439453,0.83496094,-0.15625,0.0,-0.03125,0.0,0.0,0.0,1003
717,1695394205694,-0.049804688,-0.53808594,0.8359375,-0.09375,0.0,0.03125,0.0,0.0,0.0,1004
718,1695394205734,-0.060546875,-0.54003906,0.83984375,0.03125,0.0,-0.125,0.0,0.0,0.0,1005
719,1695394205774,-0.049804688,-0.5410156,0.828125,-0.21875,0.0,-0.125,0.0,0.0,0.0,1006
720,1695394205814,-0.052734375,-0.5517578,0.8408203,0.15625,0.125,0.09375,0.0,0.0,0.0,1007
721,1695394205854,-0.047851562,-0.5419922,0.84765625,-0.03125,-0.0625,-0.03125,0.0,0.0,0.0,1008
722,1695394205894,-0.047851562,-0.54003906,0.84472656,0.03125,0.125,-0.09375,-32.125,-39.4375,-85.25,1009
723,1695394205934,-0.044921875,-0.5419922,0.8623047,-0.03125,0.0,0.03125,0.0,0.0,0.0,1010
724,1695394205974,-0.048828125,-0.5410156,0.8310547,-0.03125,-0.0625,-0.125,0.0,0.0,0.0,1011
725,1695394206014,-0.045898438,-0.5439453,0.8466797,0.15625,0.0625,-0.09375,0.0,0.0,0.0,1012
726,1695394206054,-0.0546875,-0.5419922,0.84472656,-0.09375,-0.0625,0.03125,0.0,0.0,0.0,1013
727,1695394206094,-0.045898438,-0.54785156,0.8330078,-0.03125,-0.125,-0.03125,0.0,0.0,0.0,1014
728,1695394206134,-0.05078125,-0.5488281,0.8183594,-0.03125,0.125,-0.03125,0.0,0.0,0.0,1015
729,1695394206174,-0.056640625,-0.54589844,0.8417969,-0.03125,-0.0625,-0.09375,0.0,0.0,0.0,1016
730,1695394206214,-0.061523438,-0.54003906,0.8261719,0.03125,0.125,-0.03125,0.0,0.0,0.0,1017
731,1695394206254,-0.05859375,-0.5449219,0.8457031,-0.03125,-0.0625,-0.03125,0.0,0.0,0.0,1018
732,1695394206294,-0.053710938,-0.5449219,0.84765625,0.03125,-0.1875,-0.09375,0.0,0.0,0.0,1019
733,1695394206334,-0.047851562,-0.5410156,0.8339844,0.03125,0.1875,0.09375,0.0,0.0,0.0,1020
734,1695394206374,-0.049804688,-0.54296875,0.83203125,0.09375,-0.25,0.15625,0.0,0.0,0.0,1021
735,1695394206414,-0.05078125,-0.5371094,0.8378906,-0.21875,-0.125,0.15625,-30.4375,-39.5625,-85.6875,1022
736,1695394206454,-0.0546875,-0.5439453,0.84765625,0.09375,0.0625,-0.09375,0.0,0.0,0.0,1023
737,1695394206494,-0.060546875,-0.54003906,0.8466797,-0.15625,0.0,-0.09375,0.0,0.0,0.0,1024
738,1695394206534,-0.05078125,-0.5361328,0.8339844,-0.09375,0.0625,-0.03125,0.0,0.0,0.0,1025
739,1695394206574,-0.049804688,-0.5419922,0.83984375,0.21875,0.1875,-0.09375,0.0,0.0,0.0,1026
740,1695394206614,-0.044921875,-0.54296875,0.84375,-0.15625,-0.125,-0.09375,0.0,0.0,0.0,1027
741,1695394206654,-0.052734375,-0.54296875,0.8486328,0.09375,0.1875,-0.09375,0.0,0.0,0.0,1028
742,1695394206694,-0.045898438,-0.54296875,0.8486328,-0.09375,-0.0625,-0.03125,0.0,0.0,0.0,1029
743,1695394206734,-0.049804688,-0.5361328,0.8359375,-0.03125,-0.0625,0.03125,0.0,0.0,0.0,1030
744,1695394206774,-0.044921875,-0.5371094,0.8330078,-0.03125,-0.125,-0.09375,0.0,0.0,0.0,1031
745,1695394206814,-0.041015625,-0.54003906,0.8486328,0.03125,0.125,0.09375,0.0,0.0,0.0,1032
746,1695394206854,-0.047851562,-0.5449219,0.8388672,0.09375,0.125,-0.09375,-32.6875,-41.375,-84.375,1033
747,1695394206894,-0.044921875,-0.5419922,0.83691406,0.03125,0.0625,-0.03125,0.0,0.0,0.0,1034
748,1695394206934,-0.045898438,-0.54296875,0.8457031,0.03125,0.1875,-0.125,0.0,0.0,0.0,1035
749,1695394206974,-0.049804688,-0.5410156,0.8408203,-0.03125,0.0,0.03125,0.0,0.0,0.0,1036
750,1695394207014,-0.043945312,-0.53808594,0.84375,-0.09375,-0.0625,-0.09375,0.0,0.0,0.0,1037
751,1695394207054,-0.052734375,-0.5361328,0.8457031,0.03125,0.34375,0.15625,0.0,0.0,0.0,1038
752,1695394207094,-0.052734375,-0.5371094,0.8486328,0.09375,-0.1875,-0.125,0.0,0.0,0.0,1039
753,1695394207134,-0.06347656,-0.5419922,0.85058594,-0.15625,0.0,-0.03125,0.0,0.0,0.0,1040
754,1695394207174,-0.047851562,-0.53125,0.83496094,-0.21875,0.0,-0.09375,0.0,0.0,0.0,1041
755,1695394207214,-0.051757812,-0.5410156,0.84277344,0.03125,0.0,-0.125,0.0,0.0,0.0,1042
756,1695394207254,-0.0546875,-0.54003906,0.82910156,-0.21875,-0.125,-0.09375,0.0,0.0,0.0,1043
757,1695394207294,-0.044921875,-0.5410156,0.8388672,0.21875,0.0625,-0.125,0.0,0.0,0.0,1044
758,1695394207334,-0.05859375,-0.5390625,0.83984375,-0.03125,-0.125,-0.125,0.0,0.0,0.0,1045
759,1695394207374,-0.046875,-0.5361328,0.83691406,-0.03125,0.0,-0.03125,0.0,0.0,0.0,1046
