# Sensor type: Thingy
# Activity type: Shuffle walking
# Activity subtype: Normal
# Subject id: s1980013
# Notes: 
timestamp,accel_x,accel_y,accel_z,gyro_x,gyro_y,gyro_z,mag_x,mag_y,mag_z
1695948943563,-1.0078125,-0.016601562,-0.08886719,-0.75,1.0,-1.375,0.0,0.0,0.0
1695948943624,-0.99316406,-0.038085938,-0.125,1.0625,0.25,-3.03125,0.0,0.0,0.0
1695948943685,-0.98339844,-0.0234375,-0.16503906,2.78125,1.5,-2.65625,0.0,0.0,0.0
1695948943687,-0.97753906,-0.01171875,-0.1484375,12.1875,0.375,-0.71875,0.0,0.0,0.0
1695948943744,-0.9765625,-0.044921875,-0.109375,13.90625,4.40625,2.28125,0.0,0.0,0.0
1695948943774,-1.0195312,-0.08496094,-0.020507812,7.1875,9.0625,3.9375,0.0,0.0,0.0
1695948943803,-1.0371094,-0.08984375,0.029296875,-8.25,8.75,2.34375,0.0,0.0,0.0
1695948943865,-1.0458984,-0.14550781,-0.0107421875,-10.03125,-1.1875,4.46875,0.0,0.0,0.0
1695948943895,-0.98535156,-0.12402344,-0.07421875,4.5,-4.0625,5.15625,0.0,0.0,0.0
1695948943924,-0.99121094,-0.078125,-0.049804688,9.9375,1.1875,6.625,-39.4375,2.3125,1.1875
1695948943985,-1.0048828,0.040039062,0.01953125,-0.75,5.8125,8.0,0.0,0.0,0.0
1695948944014,-1.0087891,0.020507812,0.16308594,-1.1875,1.0,15.34375,0.0,0.0,0.0
1695948944043,-1.0927734,-0.09082031,0.14160156,3.15625,-7.59375,29.625,0.0,0.0,0.0
1695948944104,-1.0878906,9.765625E-4,0.05078125,-2.84375,-32.3125,22.28125,0.0,0.0,0.0
1695948944134,-1.0498047,0.091796875,-0.08984375,14.3125,-66.4375,19.6875,0.0,0.0,0.0
1695948944163,-1.2109375,0.30371094,0.020507812,-18.34375,-75.96875,17.09375,0.0,0.0,0.0
1695948944224,-1.1591797,0.17773438,0.041015625,-77.34375,-91.15625,4.84375,0.0,0.0,0.0
1695948944254,-0.9628906,0.17089844,-0.034179688,-17.34375,-72.375,-10.84375,0.0,0.0,0.0
1695948944284,-0.8876953,0.14257812,0.001953125,28.84375,-50.5625,5.4375,0.0,0.0,0.0
1695948944344,-0.95996094,0.068359375,0.08105469,46.4375,-38.5,-10.34375,0.0,0.0,0.0
1695948944374,-0.93652344,0.13867188,0.041992188,34.46875,-10.0,-32.9375,0.0,0.0,0.0
1695948944404,-0.8984375,0.0703125,0.25195312,29.09375,9.78125,-31.90625,0.0,0.0,0.0
1695948944464,-0.7050781,0.10644531,0.24511719,12.71875,23.21875,-34.71875,-34.5,4.4375,13.0
1695948944495,-0.6464844,0.24023438,0.053710938,-33.03125,24.5,-18.90625,0.0,0.0,0.0
1695948944525,-0.9375,0.32910156,0.21191406,-50.0625,39.625,-5.65625,0.0,0.0,0.0
1695948944584,-1.5175781,0.18945312,-0.109375,-62.28125,59.71875,37.6875,0.0,0.0,0.0
1695948944614,-0.97558594,-0.40234375,0.041015625,-54.96875,33.03125,5.375,0.0,0.0,0.0
1695948944644,-1.1845703,-0.14550781,0.21875,1.8125,24.0625,2.65625,0.0,0.0,0.0
1695948944704,-0.984375,0.0390625,-0.0087890625,8.15625,18.6875,8.125,0.0,0.0,0.0
1695948944735,-1.0283203,-0.18066406,-0.10839844,3.5,23.75,3.375,0.0,0.0,0.0
1695948944764,-0.98339844,-0.0068359375,-0.046875,21.15625,18.8125,2.03125,0.0,0.0,0.0
1695948944824,-0.99902344,-0.038085938,0.043945312,15.78125,17.65625,6.5625,0.0,0.0,0.0
1695948944856,-1.0410156,-0.064453125,0.119140625,16.21875,19.0625,5.5625,0.0,0.0,0.0
1695948944886,-1.0048828,0.013671875,0.28222656,25.3125,16.375,5.34375,0.0,0.0,0.0
1695948944944,-1.0195312,9.765625E-4,0.29101562,10.65625,5.5625,14.125,-36.875,2.625,4.1875
1695948944978,-1.0664062,-0.12597656,0.34765625,-19.3125,-37.21875,20.34375,0.0,0.0,0.0
1695948945004,-0.99609375,0.21875,-0.030273438,15.90625,-101.125,19.71875,0.0,0.0,0.0
1695948945064,-1.3916016,0.35351562,0.13183594,-33.34375,-83.59375,19.625,0.0,0.0,0.0
1695948945094,-1.2783203,-0.06347656,-0.28320312,1.375,-60.03125,-3.8125,0.0,0.0,0.0
1695948945124,-0.8886719,0.20410156,-0.021484375,-24.375,-40.25,-19.375,0.0,0.0,0.0
1695948945184,-1.0058594,0.0107421875,0.049804688,67.28125,-27.8125,-11.21875,0.0,0.0,0.0
1695948945213,-0.8535156,0.25683594,0.017578125,55.40625,-19.8125,-18.84375,0.0,0.0,0.0
1695948945244,-0.76660156,0.20703125,0.0703125,36.53125,3.0625,-13.90625,0.0,0.0,0.0
1695948945304,-0.65527344,0.234375,0.21484375,14.125,24.75,-14.5,0.0,0.0,0.0
1695948945334,-0.6582031,0.056640625,0.22558594,4.1875,31.15625,-8.65625,0.0,0.0,0.0
1695948945366,-0.8339844,0.328125,0.16308594,-18.09375,30.34375,0.15625,0.0,0.0,0.0
1695948945424,-1.9628906,-0.33496094,0.2421875,-79.4375,61.96875,0.3125,0.0,0.0,0.0
1695948945455,-0.74609375,0.32128906,-0.103515625,-62.53125,30.0,-18.53125,-36.75,2.75,8.5
1695948945483,-1.0820312,-0.14648438,0.03125,-26.625,32.4375,6.4375,0.0,0.0,0.0
1695948945544,-0.9951172,-0.0859375,0.0234375,-15.40625,27.25,-6.4375,0.0,0.0,0.0
1695948945578,-1.0566406,-0.1796875,-0.0703125,3.875,22.65625,-6.21875,0.0,0.0,0.0
1695948945603,-0.9501953,0.0703125,-0.0029296875,5.90625,21.875,-3.875,0.0,0.0,0.0
1695948945672,-0.98535156,0.009765625,0.028320312,5.84375,24.5,4.21875,0.0,0.0,0.0
1695948945694,-1.0439453,-0.068359375,0.0146484375,-12.84375,28.84375,2.71875,0.0,0.0,0.0
1695948945727,-1.0400391,-0.001953125,0.123046875,-4.78125,18.75,0.8125,0.0,0.0,0.0
1695948945784,-0.9433594,-0.018554688,0.22363281,12.4375,15.59375,9.28125,0.0,0.0,0.0
1695948945815,-1.0478516,-0.05859375,0.18847656,-15.90625,16.5625,11.375,0.0,0.0,0.0
1695948945847,-1.0615234,-0.032226562,0.28027344,-0.21875,-5.90625,15.53125,0.0,0.0,0.0
1695948945906,-1.0673828,-0.06933594,0.22363281,-27.5625,-54.78125,13.3125,0.0,0.0,0.0
1695948945966,-0.9921875,0.23730469,-0.0087890625,-4.125,-112.84375,16.75,-37.0,2.75,5.8125
1695948945969,-1.4667969,0.37695312,0.32617188,-26.875,-90.3125,38.78125,0.0,0.0,0.0
1695948946024,-1.2666016,-0.17773438,-0.30078125,-59.71875,-80.65625,3.4375,0.0,0.0,0.0
1695948946054,-0.89941406,0.0234375,-0.13183594,-17.125,-40.09375,-21.15625,0.0,0.0,0.0
1695948946083,-0.98339844,-0.05859375,0.10058594,60.8125,-30.25,-19.75,0.0,0.0,0.0
1695948946144,-0.7626953,0.25195312,0.13671875,70.09375,-24.28125,-25.625,0.0,0.0,0.0
1695948946174,-0.75,0.23339844,0.109375,42.8125,2.46875,-16.40625,0.0,0.0,0.0
1695948946204,-0.7207031,0.23925781,0.2626953,17.125,20.78125,-6.4375,0.0,0.0,0.0
1695948946265,-0.86328125,0.08203125,0.3623047,-9.53125,27.125,2.9375,0.0,0.0,0.0
1695948946294,-0.890625,0.08300781,0.33007812,-16.9375,23.6875,-15.0625,0.0,0.0,0.0
1695948946324,-0.76953125,0.28515625,-0.024414062,-55.09375,33.71875,-11.15625,0.0,0.0,0.0
1695948946385,-1.7421875,-0.27734375,0.19726562,-49.59375,92.5625,8.625,0.0,0.0,0.0
1695948946415,-0.66796875,0.3017578,-0.4296875,-61.5,30.90625,-29.21875,0.0,0.0,0.0
1695948946444,-1.1572266,-0.125,0.29882812,35.625,35.71875,14.125,-35.6875,2.1875,10.4375
1695948946505,-1.015625,-0.17285156,-0.08105469,14.5625,36.46875,-5.90625,0.0,0.0,0.0
1695948946535,-1.0039062,0.15527344,0.26464844,27.1875,15.03125,2.09375,0.0,0.0,0.0
1695948946565,-1.0263672,-0.038085938,0.06640625,-8.5,15.9375,0.1875,0.0,0.0,0.0
1695948946624,-0.9589844,-0.09375,-0.016601562,0.09375,9.90625,0.4375,0.0,0.0,0.0
1695948946655,-0.99316406,-0.07910156,-0.022460938,15.84375,17.65625,5.5625,0.0,0.0,0.0
1695948946683,-1.0380859,-0.0859375,0.07519531,8.59375,25.09375,6.5,0.0,0.0,0.0
1695948946744,-1.0126953,0.03125,0.20898438,6.09375,24.96875,2.40625,0.0,0.0,0.0
1695948946774,-0.9746094,0.051757812,0.26464844,14.3125,13.09375,9.0,0.0,0.0,0.0
1695948946803,-1.0078125,-0.04296875,0.30664062,-0.09375,-1.9375,17.78125,0.0,0.0,0.0
1695948946864,-1.0957031,-0.055664062,0.12792969,-15.90625,-43.0,18.5625,0.0,0.0,0.0
1695948946894,-1.1845703,0.1953125,-0.028320312,38.90625,-87.75,18.4375,0.0,0.0,0.0
1695948946924,-1.3007812,0.328125,0.3251953,22.375,-96.0625,37.0,-37.75,2.5,8.0625
1695948946984,-1.1787109,0.20410156,-0.10644531,-95.125,-88.40625,16.0,0.0,0.0,0.0
1695948947014,-0.9814453,0.25097656,-0.09082031,-60.21875,-49.53125,-0.09375,0.0,0.0,0.0
1695948947044,-1.0615234,-0.17285156,0.18261719,36.59375,-40.9375,-7.0,0.0,0.0,0.0
1695948947104,-0.86816406,0.06542969,-0.051757812,23.0,-30.1875,-12.875,0.0,0.0,0.0
1695948947135,-0.8486328,0.23535156,0.068359375,48.3125,-18.71875,-20.0,0.0,0.0,0.0
1695948947165,-0.78125,0.20898438,0.17871094,30.84375,20.84375,-22.375,0.0,0.0,0.0
1695948947224,-0.63671875,0.19921875,0.32128906,18.71875,41.71875,-13.21875,0.0,0.0,0.0
1695948947254,-0.97558594,-0.046875,0.52441406,-11.6875,43.65625,-8.96875,0.0,0.0,0.0
1695948947283,-0.8466797,0.10546875,0.30566406,-21.09375,23.46875,-20.625,0.0,0.0,0.0
1695948947345,-0.91796875,0.30664062,-0.22851562,-89.0625,56.0625,-18.46875,0.0,0.0,0.0
1695948947374,-1.4970703,-0.19140625,0.24511719,10.53125,44.8125,-5.15625,0.0,0.0,0.0
1695948947405,-0.68652344,0.32617188,-0.5566406,-36.03125,33.40625,-9.25,0.0,0.0,0.0
1695948947466,-1.1669922,-0.22460938,-0.12402344,14.9375,60.875,6.4375,-33.875,1.75,9.125
1695948947494,-1.0126953,0.034179688,0.028320312,27.125,31.09375,1.71875,0.0,0.0,0.0
1695948947526,-0.9453125,0.10058594,0.04296875,-16.25,21.4375,1.125,0.0,0.0,0.0
1695948947585,-0.97265625,-0.21679688,-0.07714844,-7.96875,14.1875,-0.40625,0.0,0.0,0.0
1695948947614,-0.98339844,-0.103515625,0.020507812,-0.625,23.6875,1.59375,0.0,0.0,0.0
1695948947645,-1.0283203,-0.052734375,0.13085938,12.125,32.4375,6.625,0.0,0.0,0.0
1695948947705,-0.99902344,0.061523438,0.2529297,1.5,32.78125,4.34375,0.0,0.0,0.0
1695948947735,-0.9863281,0.009765625,0.25878906,1.125,26.375,11.5625,0.0,0.0,0.0
1695948947764,-1.1318359,-0.09472656,0.3173828,4.3125,-5.28125,21.625,0.0,0.0,0.0
1695948947824,-1.0683594,-0.005859375,0.06347656,4.75,-68.15625,10.21875,0.0,0.0,0.0
1695948947854,-1.1679688,0.2841797,-0.0107421875,32.875,-96.40625,15.03125,0.0,0.0,0.0
1695948947883,-1.3671875,0.39257812,0.19433594,-22.78125,-101.1875,34.625,0.0,0.0,0.0
1695948947944,-1.1865234,0.10058594,-0.1796875,-91.8125,-90.0,4.84375,-34.625,3.25,10.9375
1695948947974,-0.9707031,0.15917969,0.125,8.75,-46.78125,6.71875,0.0,0.0,0.0
1695948948011,-0.8671875,-9.765625E-4,0.056640625,51.375,-44.96875,4.90625,0.0,0.0,0.0
1695948948064,-0.7783203,0.10546875,-0.11816406,37.875,-24.8125,-10.0,0.0,0.0,0.0
1695948948094,-0.7998047,0.18164062,0.053710938,39.71875,-2.375,-31.53125,0.0,0.0,0.0
1695948948125,-0.7138672,0.2939453,0.3046875,25.3125,21.375,-25.4375,0.0,0.0,0.0
1695948948185,-0.9375,-0.08496094,0.5263672,8.59375,29.9375,-13.53125,0.0,0.0,0.0
1695948948244,-0.8564453,0.08984375,0.39941406,-2.78125,7.46875,-26.78125,0.0,0.0,0.0
1695948948246,-0.64160156,0.33984375,-0.16210938,-102.3125,35.78125,-26.03125,0.0,0.0,0.0
1695948948304,-1.8466797,-0.16992188,0.12597656,24.5625,85.65625,18.375,0.0,0.0,0.0
1695948948334,-0.47070312,0.3486328,-0.66796875,-105.5,46.21875,-24.09375,0.0,0.0,0.0
1695948948364,-1.2880859,-0.5019531,0.14160156,2.28125,62.09375,9.71875,0.0,0.0,0.0
1695948948424,-0.91796875,0.09863281,0.044921875,27.3125,29.875,-5.0625,0.0,0.0,0.0
1695948948454,-1.0234375,0.034179688,0.032226562,-20.53125,31.875,-1.5,-38.375,2.3125,6.25
1695948948483,-0.99609375,-0.0546875,-0.022460938,-14.375,17.15625,-2.96875,0.0,0.0,0.0
1695948948545,-0.9951172,-0.07324219,0.0390625,-14.78125,14.4375,4.84375,0.0,0.0,0.0
1695948948575,-1.0097656,-0.10253906,0.038085938,-4.90625,17.15625,6.84375,0.0,0.0,0.0
1695948948603,-1.0478516,-0.12890625,0.16210938,12.59375,19.25,5.4375,0.0,0.0,0.0
1695948948664,-0.9609375,0.040039062,0.24023438,2.59375,26.375,1.4375,0.0,0.0,0.0
1695948948700,-1.0126953,0.0126953125,0.15722656,-3.3125,12.53125,10.40625,0.0,0.0,0.0
1695948948723,-1.0283203,0.038085938,0.25976562,7.53125,-10.84375,20.15625,0.0,0.0,0.0
1695948948784,-1.1386719,-0.07519531,0.036132812,-0.5,-49.96875,18.21875,0.0,0.0,0.0
1695948948815,-1.2001953,0.18847656,0.06542969,39.59375,-92.03125,22.0625,0.0,0.0,0.0
1695948948845,-1.2529297,0.32421875,0.15722656,-10.21875,-101.125,24.625,0.0,0.0,0.0
1695948948905,-1.1230469,0.119140625,-0.16699219,-87.4375,-94.34375,1.125,0.0,0.0,0.0
1695948948934,-0.9707031,0.0146484375,-0.14453125,1.875,-48.9375,-2.59375,-33.0,2.3125,13.0
1695948948964,-0.9501953,-0.16308594,0.059570312,68.09375,-27.8125,-13.71875,0.0,0.0,0.0
1695948949055,-0.8173828,0.27148438,-0.005859375,43.625,-15.1875,-23.125,0.0,0.0,0.0
1695948949057,-0.8183594,0.36816406,0.19824219,19.09375,12.96875,-20.6875,0.0,0.0,0.0
1695948949084,-0.8154297,0.16210938,0.22070312,2.65625,44.03125,-16.03125,0.0,0.0,0.0
1695948949144,-0.77441406,0.040039062,0.33984375,24.625,40.1875,-9.3125,0.0,0.0,0.0
1695948949174,-0.81933594,0.21386719,0.32421875,-31.46875,24.5625,-11.875,0.0,0.0,0.0
1695948949205,-0.8984375,0.31054688,-0.107421875,-52.21875,28.15625,9.34375,0.0,0.0,0.0
1695948949264,-1.6005859,-0.55078125,0.11035156,-45.9375,82.84375,-7.0625,0.0,0.0,0.0
1695948949294,-0.7558594,0.18261719,-0.31933594,-36.9375,33.59375,-14.625,0.0,0.0,0.0
1695948949324,-1.1103516,-0.020507812,0.15820312,29.53125,27.375,3.3125,0.0,0.0,0.0
1695948949383,-0.97558594,-0.048828125,-0.057617188,-15.84375,24.75,5.28125,0.0,0.0,0.0
1695948949413,-1.0371094,-0.09472656,0.047851562,-14.3125,17.71875,-4.0625,0.0,0.0,0.0
1695948949444,-0.9892578,-0.08105469,-0.05078125,-18.15625,15.09375,-8.71875,-35.5,1.5625,6.25
1695948949505,-0.94140625,-0.046875,0.0107421875,11.875,12.96875,5.5,0.0,0.0,0.0
1695948949533,-1.0097656,-0.10644531,0.00390625,8.09375,20.84375,8.25,0.0,0.0,0.0
1695948949564,-1.0449219,-0.064453125,0.18652344,16.5,23.65625,5.8125,0.0,0.0,0.0
1695948949625,-0.9658203,0.056640625,0.26953125,6.8125,17.65625,3.5,0.0,0.0,0.0
1695948949657,-0.96191406,0.0087890625,0.3671875,14.0625,7.78125,13.5625,0.0,0.0,0.0
1695948949683,-1.1503906,-0.140625,0.21289062,-1.0625,-29.59375,24.5625,0.0,0.0,0.0
1695948949745,-1.1884766,0.109375,-0.046875,52.53125,-87.1875,17.84375,0.0,0.0,0.0
1695948949775,-1.2587891,0.43847656,0.14648438,25.3125,-99.09375,29.3125,0.0,0.0,0.0
1695948949805,-1.3066406,0.15332031,0.14453125,-54.03125,-111.96875,24.625,0.0,0.0,0.0
1695948949864,-1.0117188,0.12695312,-0.23828125,-63.875,-71.4375,2.59375,0.0,0.0,0.0
1695948949895,-0.9091797,0.13867188,0.10253906,48.125,-50.34375,5.28125,0.0,0.0,0.0
1695948949924,-0.8457031,-0.005859375,0.08496094,80.78125,-35.375,-4.5625,-32.25,4.75,15.875
1695948949985,-0.79003906,0.16796875,0.072265625,46.59375,-7.375,-17.0625,0.0,0.0,0.0
1695948950014,-0.85839844,0.20410156,0.17480469,26.03125,21.125,-27.4375,0.0,0.0,0.0
1695948950045,-0.7519531,0.29003906,0.31347656,5.65625,36.28125,-29.28125,0.0,0.0,0.0
1695948950105,-0.83203125,0.0859375,0.37890625,-24.5625,34.125,-13.21875,0.0,0.0,0.0
1695948950135,-0.90234375,0.14746094,0.41308594,-18.46875,25.59375,-13.90625,0.0,0.0,0.0
1695948950164,-0.8203125,0.19433594,0.15136719,-44.9375,31.09375,-9.1875,0.0,0.0,0.0
1695948950224,-1.1708984,0.15820312,-0.0546875,-70.65625,65.09375,-8.71875,0.0,0.0,0.0
1695948950254,-1.2802734,-0.16503906,0.328125,-6.125,43.65625,-19.5,0.0,0.0,0.0
1695948950283,-0.89160156,0.07324219,-0.38183594,-18.28125,56.40625,-8.96875,0.0,0.0,0.0
1695948950344,-1.0595703,-0.10644531,-0.026367188,-4.78125,50.4375,-2.90625,0.0,0.0,0.0
1695948950374,-0.9873047,0.1015625,0.25,32.1875,27.71875,5.9375,0.0,0.0,0.0
1695948950403,-1.0136719,-0.041992188,0.05078125,-31.53125,26.75,-1.75,0.0,0.0,0.0
1695948950465,-1.0185547,-0.123046875,-0.029296875,-10.59375,13.5625,-7.84375,-36.5625,1.5625,5.5
1695948950523,-0.9814453,-0.12402344,-0.10644531,-0.9375,13.15625,1.125,0.0,0.0,0.0
1695948950525,-1.0009766,-0.07128906,0.01953125,0.09375,21.625,6.3125,0.0,0.0,0.0
1695948950584,-1.0361328,0.0,0.17675781,10.34375,27.375,5.21875,0.0,0.0,0.0
1695948950616,-0.9921875,0.07421875,0.23046875,-5.15625,17.40625,3.8125,0.0,0.0,0.0
1695948950644,-1.0087891,-0.099609375,0.31152344,11.4375,1.96875,15.71875,0.0,0.0,0.0
1695948950705,-1.1005859,-0.11816406,0.10546875,5.59375,-32.4375,18.8125,0.0,0.0,0.0
1695948950746,-1.1347656,0.18359375,0.03515625,55.75,-68.9375,17.46875,0.0,0.0,0.0
1695948950765,-1.2519531,0.2705078,0.09277344,24.21875,-89.53125,30.65625,0.0,0.0,0.0
1695948950824,-1.2285156,0.24414062,0.123046875,-18.6875,-111.84375,35.25,0.0,0.0,0.0
1695948950854,-1.0449219,0.28222656,-0.10839844,-73.28125,-82.25,11.90625,0.0,0.0,0.0
1695948950884,-1.0361328,0.030273438,-0.107421875,-12.96875,-54.90625,6.25,0.0,0.0,0.0
1695948950945,-0.9326172,-0.026367188,0.20605469,50.875,-50.40625,-9.0,-31.75,4.0,13.9375
1695948950974,-0.87109375,0.08300781,0.07519531,43.96875,-31.84375,-24.34375,0.0,0.0,0.0
1695948951006,-0.74902344,0.18652344,0.1484375,30.6875,-24.28125,-21.96875,0.0,0.0,0.0
1695948951065,-0.6669922,0.20898438,0.16894531,23.59375,6.1875,-15.25,0.0,0.0,0.0
1695948951096,-0.6123047,0.28222656,0.32617188,12.0625,44.40625,-8.59375,0.0,0.0,0.0
1695948951124,-0.9189453,0.030273438,0.5449219,-10.28125,70.8125,-3.8125,0.0,0.0,0.0
1695948951185,-0.98046875,-0.13671875,0.359375,-0.8125,22.53125,-20.90625,0.0,0.0,0.0
1695948951215,-1.6660156,0.43164062,-0.061523438,-86.15625,54.46875,-16.875,0.0,0.0,0.0
1695948951245,-0.8876953,0.05078125,0.13085938,-19.875,25.46875,-30.25,0.0,0.0,0.0
1695948951304,-0.9404297,0.23632812,0.10058594,35.125,16.0625,19.3125,0.0,0.0,0.0
1695948951336,-1.1582031,-0.28320312,-0.12109375,-35.25,45.75,-3.8125,0.0,0.0,0.0
1695948951364,-0.9785156,0.030273438,0.0068359375,6.5,23.53125,-8.21875,0.0,0.0,0.0
1695948951424,-0.9970703,-0.0087890625,0.07128906,-10.53125,33.84375,-6.6875,0.0,0.0,0.0
1695948951454,-0.9482422,0.041992188,-0.0390625,-44.46875,40.65625,1.1875,-35.25,2.75,6.125
1695948951484,-1.0117188,-0.13574219,-0.061523438,-14.1875,35.59375,9.46875,0.0,0.0,0.0
1695948951544,-1.0253906,-0.06542969,0.005859375,0.21875,32.5,4.78125,0.0,0.0,0.0
1695948951573,-1.0361328,0.009765625,0.20800781,3.03125,29.875,5.6875,0.0,0.0,0.0
1695948951604,-0.9638672,0.06640625,0.2548828,-6.5,27.125,3.875,0.0,0.0,0.0
1695948951665,-1.0351562,-0.044921875,0.28222656,-3.875,9.59375,13.4375,0.0,0.0,0.0
1695948951693,-1.0097656,-0.08105469,0.1953125,5.40625,-19.5625,15.09375,0.0,0.0,0.0
1695948951726,-1.0820312,-0.12402344,0.0859375,8.28125,-67.3125,9.34375,0.0,0.0,0.0
1695948951784,-1.1484375,0.3173828,0.024414062,40.875,-90.25,25.09375,0.0,0.0,0.0
1695948951813,-1.3095703,0.33691406,0.11230469,-1.5,-108.4375,43.28125,0.0,0.0,0.0
1695948951843,-1.1210938,0.27539062,-0.028320312,-27.0625,-122.21875,25.59375,0.0,0.0,0.0
1695948951904,-1.0371094,0.076171875,-0.047851562,11.15625,-62.0625,6.25,0.0,0.0,0.0
1695948951933,-0.92089844,-0.0146484375,0.2265625,44.71875,-55.71875,9.90625,-30.75,6.0625,15.25
1695948951963,-0.7519531,0.17089844,0.10449219,32.25,-22.375,-6.21875,0.0,0.0,0.0
1695948952024,-0.92871094,0.17773438,0.09375,12.0625,-3.53125,-20.4375,0.0,0.0,0.0
1695948952054,-0.90234375,0.140625,0.22265625,14.125,20.28125,-42.53125,0.0,0.0,0.0
1695948952084,-0.67578125,0.359375,0.515625,15.0625,37.3125,-35.375,0.0,0.0,0.0
1695948952145,-0.7832031,0.16699219,0.57421875,-20.03125,19.96875,-5.40625,0.0,0.0,0.0
1695948952174,-0.6669922,0.20019531,0.29492188,25.25,-9.25,6.84375,0.0,0.0,0.0
1695948952204,-0.75878906,0.18066406,-0.030273438,-8.4375,25.46875,12.53125,0.0,0.0,0.0
1695948952265,-1.9853516,0.0048828125,0.50878906,3.21875,102.375,-0.21875,0.0,0.0,0.0
1695948952294,-0.40039062,0.28027344,-0.8203125,-127.03125,50.875,-73.71875,0.0,0.0,0.0
1695948952323,-1.0195312,0.26757812,0.49316406,81.75,40.78125,25.84375,0.0,0.0,0.0
1695948952385,-1.1220703,-0.36132812,-0.15527344,-29.1875,59.78125,-10.0625,0.0,0.0,0.0
1695948952416,-0.9345703,0.15234375,-0.06933594,-6.0,36.59375,-14.1875,0.0,0.0,0.0
1695948952444,-0.9902344,0.07910156,0.057617188,-39.875,45.84375,-7.90625,-35.0625,3.0625,6.875
1695948952505,-0.95996094,-0.091796875,-0.11621094,-21.8125,44.40625,-1.5,0.0,0.0,0.0
1695948952534,-0.9873047,-0.047851562,-0.045898438,-4.96875,39.03125,8.625,0.0,0.0,0.0
1695948952565,-1.0742188,0.032226562,0.19726562,13.21875,28.84375,8.375,0.0,0.0,0.0
1695948952624,-1.0166016,0.005859375,0.33398438,-3.1875,7.03125,5.9375,0.0,0.0,0.0
1695948952654,-0.9267578,-0.05078125,0.34277344,-23.71875,-8.59375,7.03125,0.0,0.0,0.0
1695948952684,-0.9873047,-0.018554688,0.3544922,-14.75,-37.15625,21.0,0.0,0.0,0.0
1695948952745,-1.2373047,-0.15332031,0.041015625,-0.34375,-76.28125,26.1875,0.0,0.0,0.0
1695948952803,-1.3632812,0.4296875,0.1171875,41.125,-117.65625,34.0,0.0,0.0,0.0
1695948952805,-1.2363281,0.29296875,-0.043945312,13.90625,-134.4375,34.25,0.0,0.0,0.0
1695948952864,-1.1162109,0.043945312,-0.12402344,-61.375,-53.6875,-2.90625,0.0,0.0,0.0
1695948952895,-0.91796875,0.11816406,0.12890625,43.25,-34.90625,-22.8125,0.0,0.0,0.0
1695948952923,-0.78125,0.064453125,-0.1015625,32.375,-24.03125,-21.71875,-30.0,5.625,16.625
1695948952984,-0.70703125,0.23242188,0.036132812,36.28125,-4.375,-18.40625,0.0,0.0,0.0
1695948953016,-0.81933594,0.26953125,0.25,25.90625,25.46875,-24.625,0.0,0.0,0.0
1695948953044,-0.70703125,0.19628906,0.38964844,23.21875,41.90625,-22.5,0.0,0.0,0.0
1695948953104,-0.81933594,0.0703125,0.42382812,12.5,34.375,-10.28125,0.0,0.0,0.0
1695948953135,-0.84472656,0.17773438,0.2548828,-17.71875,22.65625,-12.1875,0.0,0.0,0.0
1695948953164,-1.1269531,0.39746094,-0.11425781,-80.90625,61.25,-7.1875,0.0,0.0,0.0
1695948953224,-1.2783203,-0.17285156,0.43164062,10.53125,37.75,-23.59375,0.0,0.0,0.0
1695948953255,-0.7734375,0.28515625,-0.33691406,-18.09375,42.9375,-5.71875,0.0,0.0,0.0
1695948953284,-1.2246094,-0.33691406,-0.22167969,-32.5,68.75,-14.6875,0.0,0.0,0.0
1695948953344,-0.953125,0.23828125,0.24707031,20.46875,30.125,-4.75,0.0,0.0,0.0
1695948953381,-1.0234375,-0.0703125,-0.051757812,-64.96875,40.90625,-1.75,0.0,0.0,0.0
1695948953404,-1.0029297,-0.061523438,-0.02734375,-21.875,16.0,-6.6875,0.0,0.0,0.0
1695948953464,-0.9707031,-0.05859375,9.765625E-4,-11.9375,13.21875,3.625,-36.4375,2.1875,4.75
1695948953497,-1.0380859,-0.12597656,0.0126953125,-9.25,18.9375,8.9375,0.0,0.0,0.0
1695948953525,-1.0195312,-0.032226562,0.10644531,0.34375,21.03125,4.96875,0.0,0.0,0.0
1695948953585,-1.0,0.028320312,0.21875,-2.71875,19.625,6.96875,0.0,0.0,0.0
1695948953614,-1.0292969,-0.10058594,0.27539062,2.21875,11.1875,10.625,0.0,0.0,0.0
1695948953643,-0.9970703,-0.0068359375,0.17578125,8.09375,-6.9375,12.59375,0.0,0.0,0.0
1695948953704,-1.109375,-0.036132812,0.1015625,9.8125,-39.90625,21.5625,0.0,0.0,0.0
1695948953734,-1.2158203,0.08691406,-0.009765625,38.71875,-80.78125,21.125,0.0,0.0,0.0
1695948953765,-1.2421875,0.26464844,0.21484375,33.59375,-116.125,34.9375,0.0,0.0,0.0
1695948953824,-1.2421875,0.27539062,0.0048828125,-69.25,-123.40625,16.1875,0.0,0.0,0.0
1695948953854,-1.0419922,0.123046875,-0.234375,-55.125,-82.25,2.03125,0.0,0.0,0.0
1695948953884,-0.96972656,-0.087890625,0.17773438,64.3125,-63.53125,-2.59375,0.0,0.0,0.0
1695948953944,-0.75097656,0.064453125,-0.020507812,65.46875,-43.5,-17.0625,-30.75,5.3125,14.9375
1695948953974,-0.6894531,0.25878906,0.07324219,40.25,-23.40625,-13.09375,0.0,0.0,0.0
1695948954003,-0.8496094,0.30273438,0.29003906,10.09375,16.0,-19.375,0.0,0.0,0.0
1695948954064,-0.85058594,0.18066406,0.34179688,-2.21875,45.4375,-26.15625,0.0,0.0,0.0
1695948954096,-0.8105469,-0.060546875,0.47851562,5.09375,42.0,-15.78125,0.0,0.0,0.0
1695948954124,-0.8886719,0.27539062,0.4189453,-19.125,18.15625,-16.09375,0.0,0.0,0.0
1695948954185,-0.5830078,0.38867188,0.07324219,-37.8125,14.90625,7.59375,0.0,0.0,0.0
1695948954213,-1.4453125,0.16210938,-0.2548828,-9.25,87.96875,18.5625,0.0,0.0,0.0
1695948954243,-0.9433594,0.024414062,0.17089844,-74.78125,31.03125,-42.40625,0.0,0.0,0.0
1695948954305,-0.9814453,0.16601562,0.33984375,56.75,39.03125,-1.5,0.0,0.0,0.0
1695948954335,-1.1259766,-0.35253906,-0.16796875,-17.125,53.3125,-6.34375,0.0,0.0,0.0
1695948954363,-0.97265625,0.15234375,0.26757812,11.6875,37.0625,-13.96875,0.0,0.0,0.0
1695948954425,-0.9765625,0.07421875,-0.0068359375,-46.0,39.375,-3.9375,0.0,0.0,0.0
1695948954454,-0.9921875,-0.08496094,-0.059570312,-8.4375,20.46875,7.09375,-36.125,3.0625,4.1875
1695948954485,-0.9970703,-0.13183594,-0.046875,-12.96875,28.875,7.09375,0.0,0.0,0.0
1695948954545,-1.0117188,-0.09667969,0.095703125,1.125,27.4375,6.5625,0.0,0.0,0.0
1695948954575,-1.0595703,-0.061523438,0.24121094,2.46875,19.96875,3.375,0.0,0.0,0.0
1695948954604,-0.92285156,0.083984375,0.19921875,-9.59375,3.3125,2.03125,0.0,0.0,0.0
1695948954665,-0.9482422,-0.030273438,0.29101562,25.90625,-15.84375,25.34375,0.0,0.0,0.0
1695948954696,-1.2841797,-0.18945312,0.043945312,-15.28125,-35.75,23.59375,0.0,0.0,0.0
1695948954784,-1.3261719,0.28320312,0.07421875,42.9375,-78.34375,15.40625,0.0,0.0,0.0
1695948954787,-1.2441406,0.18066406,0.25976562,23.71875,-137.4375,30.46875,0.0,0.0,0.0
1695948954814,-1.1826172,0.4404297,-0.123046875,-65.875,-119.96875,30.78125,0.0,0.0,0.0
1695948954843,-1.2275391,0.10253906,-0.15136719,-38.59375,-77.1875,19.6875,0.0,0.0,0.0
1695948954905,-0.9794922,-0.1171875,0.07324219,47.21875,-55.59375,-9.4375,0.0,0.0,0.0
1695948954935,-0.65625,0.1328125,-0.046875,54.90625,-45.5,-5.65625,-28.75,5.1875,14.8125
1695948954964,-0.63183594,0.16796875,0.048828125,62.46875,-18.59375,-1.5625,0.0,0.0,0.0
1695948955024,-0.734375,0.1328125,0.22460938,31.71875,18.09375,-20.3125,0.0,0.0,0.0
1695948955086,-0.7558594,0.2763672,0.3125,10.34375,41.28125,-30.5,0.0,0.0,0.0
1695948955089,-0.9248047,-0.083984375,0.5214844,-18.59375,44.34375,-32.4375,0.0,0.0,0.0
1695948955144,-0.75390625,0.14648438,0.29785156,-17.40625,15.46875,-47.71875,0.0,0.0,0.0
1695948955175,-0.85546875,0.8847656,9.765625E-4,-104.46875,55.0625,-15.125,0.0,0.0,0.0
1695948955204,-1.6103516,-0.4326172,0.36328125,0.28125,61.96875,0.9375,0.0,0.0,0.0
1695948955264,-0.7236328,0.4091797,-0.3125,-20.65625,52.3125,13.625,0.0,0.0,0.0
1695948955294,-1.2373047,-0.515625,-0.2548828,-63.625,80.59375,-21.21875,0.0,0.0,0.0
1695948955324,-0.89746094,0.30859375,0.26660156,18.46875,36.53125,-9.5,0.0,0.0,0.0
1695948955383,-1.0019531,0.036132812,-0.060546875,-45.5625,50.625,1.46875,0.0,0.0,0.0
1695948955415,-0.984375,-0.0048828125,-0.107421875,-18.09375,27.59375,-2.46875,0.0,0.0,0.0
1695948955445,-1.015625,-0.025390625,0.08496094,-26.40625,21.3125,5.21875,-35.8125,3.0625,4.625
1695948955505,-0.984375,-0.12792969,0.061523438,-9.25,15.21875,7.96875,0.0,0.0,0.0
1695948955538,-1.0429688,-0.16503906,0.20996094,-3.6875,23.34375,4.28125,0.0,0.0,0.0
1695948955565,-0.9941406,-0.06640625,0.26464844,-6.0625,24.9375,1.53125,0.0,0.0,0.0
1695948955623,-1.0146484,-0.049804688,0.22363281,6.03125,6.1875,9.34375,0.0,0.0,0.0
1695948955654,-1.1123047,0.03125,0.12988281,23.28125,-29.9375,17.53125,0.0,0.0,0.0
1695948955684,-1.2871094,0.1484375,0.17480469,46.84375,-67.53125,26.75,0.0,0.0,0.0
1695948955744,-1.2412109,0.36035156,0.19824219,38.3125,-121.875,40.125,0.0,0.0,0.0
1695948955774,-1.1601562,0.07714844,-0.057617188,1.5625,-144.21875,41.28125,0.0,0.0,0.0
1695948955803,-1.0380859,0.2919922,-0.19824219,-62.53125,-88.96875,12.71875,0.0,0.0,0.0
1695948955865,-1.0957031,-0.046875,-0.01171875,20.96875,-48.75,-16.09375,0.0,0.0,0.0
1695948955895,-0.8564453,0.030273438,-0.021484375,48.4375,-34.53125,-27.375,0.0,0.0,0.0
1695948955925,-0.8486328,0.15820312,0.034179688,44.84375,-19.21875,-25.0625,-29.8125,6.25,15.125
1695948955984,-0.7314453,0.34570312,0.17285156,28.28125,1.59375,-23.0,0.0,0.0,0.0
1695948956014,-0.58984375,0.24707031,0.2861328,14.625,45.3125,-26.28125,0.0,0.0,0.0
1695948956044,-0.78222656,0.09277344,0.4375,7.96875,62.34375,-9.375,0.0,0.0,0.0
1695948956105,-0.9824219,-0.07421875,0.48339844,14.5,3.875,-19.03125,0.0,0.0,0.0
1695948956134,-1.1845703,0.6699219,-0.09472656,-77.53125,36.8125,-10.40625,0.0,0.0,0.0
1695948956164,-1.2988281,-0.37597656,0.20703125,-7.15625,30.65625,-24.34375,0.0,0.0,0.0
1695948956225,-0.78125,0.6269531,-0.08496094,31.84375,40.71875,4.53125,0.0,0.0,0.0
1695948956255,-1.2148438,-0.34179688,-0.25585938,-59.15625,85.03125,-1.09375,0.0,0.0,0.0
1695948956284,-0.9589844,0.056640625,0.12695312,17.84375,38.21875,-5.0,0.0,0.0,0.0
1695948956374,-0.9609375,0.109375,0.0546875,-58.75,47.6875,-12.0,0.0,0.0,0.0
1695948956374,-0.9980469,-0.06640625,-0.057617188,-38.65625,27.1875,-4.6875,0.0,0.0,0.0
1695948956404,-0.9921875,-0.05078125,0.044921875,-18.40625,19.25,0.6875,0.0,0.0,0.0
1695948956464,-1.0107422,-0.091796875,0.0048828125,-27.75,15.84375,6.125,-34.75,2.3125,3.875
1695948956494,-1.0771484,-0.12011719,0.20214844,7.375,10.75,9.0,0.0,0.0,0.0
1695948956523,-0.96484375,-0.0390625,0.20214844,-1.96875,14.59375,-0.03125,0.0,0.0,0.0
1695948956584,-1.0048828,-0.140625,0.25878906,6.8125,7.46875,8.6875,0.0,0.0,0.0
1695948956617,-1.0019531,0.016601562,0.140625,5.46875,-15.125,9.53125,0.0,0.0,0.0
1695948956643,-1.1259766,0.01953125,0.2763672,39.84375,-44.90625,23.03125,0.0,0.0,0.0
1695948956704,-1.2607422,0.0390625,0.115234375,16.09375,-101.53125,27.96875,0.0,0.0,0.0
1695948956735,-1.2275391,0.2529297,0.3076172,71.1875,-153.84375,53.1875,0.0,0.0,0.0
1695948956763,-1.1269531,0.2626953,-0.12988281,-38.46875,-138.53125,34.9375,0.0,0.0,0.0
1695948956826,-1.2382812,0.10546875,-0.0390625,-7.46875,-69.0625,7.96875,0.0,0.0,0.0
1695948956854,-0.96484375,-0.038085938,0.11425781,46.25,-52.34375,-21.46875,0.0,0.0,0.0
1695948956884,-0.73046875,0.14550781,0.044921875,42.09375,-32.6875,-22.875,0.0,0.0,0.0
1695948956945,-0.7578125,0.22070312,0.14160156,44.59375,-8.59375,-22.75,-26.5,8.0,16.75
1695948956974,-0.765625,0.28222656,0.26464844,25.0,23.59375,-30.4375,0.0,0.0,0.0
1695948957004,-0.71777344,0.28222656,0.25195312,16.6875,46.46875,-26.15625,0.0,0.0,0.0
1695948957063,-0.8339844,0.12402344,0.47070312,-9.3125,48.1875,-2.59375,0.0,0.0,0.0
1695948957094,-0.9580078,0.0859375,0.5888672,-13.75,22.40625,-3.75,0.0,0.0,0.0
1695948957124,-1.0341797,0.14648438,0.21875,0.71875,12.84375,-15.3125,0.0,0.0,0.0
1695948957185,-1.0976562,0.06738281,0.020507812,-43.125,35.3125,-25.90625,0.0,0.0,0.0
1695948957221,-1.1621094,0.095703125,0.21972656,-33.59375,57.46875,-33.84375,0.0,0.0,0.0
1695948957244,-0.7451172,0.4970703,-0.27148438,-44.875,28.46875,4.15625,0.0,0.0,0.0
1695948957303,-1.1826172,-0.3720703,0.13378906,-28.90625,68.0625,11.125,0.0,0.0,0.0
1695948957364,-1.1240234,-0.3671875,-0.046875,6.03125,36.21875,-16.71875,0.0,0.0,0.0
1695948957369,-0.9316406,0.36621094,0.28320312,8.28125,32.84375,-11.28125,0.0,0.0,0.0
1695948957425,-1.0068359,0.021484375,-0.0146484375,-64.21875,54.78125,9.53125,0.0,0.0,0.0
1695948957454,-1.0175781,-0.15429688,-0.03125,-18.8125,28.40625,9.65625,-35.25,3.25,5.375
1695948957484,-0.98828125,-0.00390625,0.053710938,-14.0625,27.1875,3.9375,0.0,0.0,0.0
1695948957543,-1.0341797,-0.10644531,0.17089844,3.09375,23.9375,11.0625,0.0,0.0,0.0
1695948957575,-0.99316406,-0.055664062,0.296875,-3.5,26.625,6.125,0.0,0.0,0.0
1695948957604,-1.0332031,-0.05859375,0.34179688,4.125,9.59375,9.25,0.0,0.0,0.0
1695948957663,-1.0527344,-0.0146484375,0.22851562,26.78125,-24.09375,22.59375,0.0,0.0,0.0
1695948957694,-1.3310547,0.00390625,0.041015625,43.75,-72.6875,29.3125,0.0,0.0,0.0
1695948957725,-1.1308594,0.41308594,0.2626953,66.1875,-112.71875,39.09375,0.0,0.0,0.0
1695948957784,-1.1123047,0.21875,-0.08886719,-18.6875,-124.25,38.46875,0.0,0.0,0.0
1695948957814,-1.125,0.24511719,-0.12109375,-36.53125,-82.5625,23.15625,0.0,0.0,0.0
1695948957844,-1.0390625,0.03515625,0.11230469,-12.65625,-37.53125,-9.5,0.0,0.0,0.0
1695948957903,-0.83984375,0.041992188,-0.043945312,16.46875,-29.875,-18.28125,0.0,0.0,0.0
1695948957934,-0.85253906,0.22265625,0.0107421875,34.03125,-19.375,-19.21875,-30.125,7.25,13.4375
1695948957965,-0.86035156,0.27539062,0.18359375,33.1875,-1.4375,-31.28125,0.0,0.0,0.0
1695948958025,-0.74316406,0.18554688,0.203125,28.78125,26.625,-26.78125,0.0,0.0,0.0
1695948958054,-0.71777344,0.20800781,0.3955078,32.3125,51.65625,-11.15625,0.0,0.0,0.0
1695948958084,-1.0078125,0.037109375,0.56933594,6.5625,42.5,-8.46875,0.0,0.0,0.0
1695948958143,-0.7451172,0.21679688,0.2421875,-19.25,11.9375,-17.25,0.0,0.0,0.0
1695948958174,-1.3066406,0.3388672,-0.030273438,-72.34375,44.46875,-1.375,0.0,0.0,0.0
1695948958203,-1.1982422,-0.43164062,0.13378906,-22.90625,44.21875,-45.28125,0.0,0.0,0.0
1695948958264,-0.6826172,0.546875,-0.1953125,-17.84375,3.8125,8.125,0.0,0.0,0.0
1695948958293,-1.2021484,-0.38183594,-0.064453125,-20.53125,63.0625,2.46875,0.0,0.0,0.0
1695948958323,-1.0136719,-0.16113281,-0.099609375,-15.03125,29.375,-13.34375,0.0,0.0,0.0
1695948958384,-0.96972656,0.11230469,0.01171875,-22.5625,32.84375,-11.8125,0.0,0.0,0.0
1695948958415,-0.96875,-0.018554688,-0.09277344,-37.375,29.125,-3.21875,0.0,0.0,0.0
1695948958444,-0.9794922,-0.051757812,-0.04296875,-8.8125,23.875,4.46875,-33.875,3.5,5.375
1695948958504,-1.0253906,-0.10253906,0.03125,-4.40625,25.90625,8.625,0.0,0.0,0.0
1695948958534,-1.0615234,-0.09082031,0.12597656,-0.5625,26.5625,6.25,0.0,0.0,0.0
1695948958565,-0.9482422,0.09277344,0.25,-9.25,18.15625,1.96875,0.0,0.0,0.0
1695948958628,-0.9794922,-0.036132812,0.2734375,4.90625,-2.375,12.40625,0.0,0.0,0.0
1695948958654,-1.0429688,-0.11816406,0.16699219,-3.03125,-23.40625,17.71875,0.0,0.0,0.0
1695948958683,-1.03125,0.029296875,0.125,20.59375,-51.1875,15.78125,0.0,0.0,0.0
1695948958744,-1.4248047,0.0859375,0.111328125,45.03125,-89.03125,24.375,0.0,0.0,0.0
1695948958776,-1.3652344,0.25976562,0.140625,-13.625,-114.1875,22.34375,0.0,0.0,0.0
1695948958804,-1.0839844,0.35742188,-0.20898438,-118.4375,-79.5625,0.625,0.0,0.0,0.0
1695948958864,-1.0957031,0.0126953125,-0.18261719,7.0,-55.9375,9.0625,0.0,0.0,0.0
1695948958897,-0.82714844,0.05078125,0.10253906,49.84375,-41.84375,3.5,0.0,0.0,0.0
1695948958923,-0.7910156,0.140625,-0.07421875,47.65625,-29.21875,-1.9375,-29.375,8.3125,15.125
1695948958984,-0.8173828,0.1796875,0.12792969,31.78125,-3.9375,-22.25,0.0,0.0,0.0
1695948959026,-0.72558594,0.21386719,0.25,19.8125,27.96875,-24.59375,0.0,0.0,0.0
1695948959043,-0.6640625,0.0703125,0.4189453,6.09375,46.65625,-10.0,0.0,0.0,0.0
1695948959105,-0.9638672,0.048828125,0.61816406,-3.75,41.9375,-16.09375,0.0,0.0,0.0
1695948959134,-0.98046875,0.23828125,0.40625,-46.28125,8.9375,-20.375,0.0,0.0,0.0
1695948959164,-1.2841797,0.10546875,-0.32910156,-64.90625,61.78125,-5.34375,0.0,0.0,0.0
1695948959225,-0.87597656,0.072265625,0.32128906,9.5625,41.15625,-30.0625,0.0,0.0,0.0
1695948959254,-1.1503906,-0.091796875,0.041015625,4.1875,49.875,0.625,0.0,0.0,0.0
1695948959283,-0.9951172,-0.072265625,0.0234375,5.21875,45.625,-3.46875,0.0,0.0,0.0
1695948959344,-0.9511719,0.14257812,0.125,-49.09375,43.65625,-6.34375,0.0,0.0,0.0
1695948959386,-1.0117188,-0.08691406,-0.15234375,-42.03125,35.59375,1.84375,0.0,0.0,0.0
1695948959405,-0.9970703,-0.10644531,-0.11621094,-5.6875,18.09375,7.90625,0.0,0.0,0.0
1695948959464,-0.99609375,-0.029296875,0.016601562,1.875,21.5,8.5625,-35.5,2.625,6.25
1695948959495,-1.0009766,-0.048828125,0.14453125,7.78125,24.9375,8.75,0.0,0.0,0.0
1695948959524,-1.0283203,-0.060546875,0.24121094,-8.5625,31.21875,6.3125,0.0,0.0,0.0
1695948959584,-0.99902344,-0.13867188,0.27734375,-5.21875,20.59375,9.59375,0.0,0.0,0.0
1695948959644,-1.0576172,-0.107421875,0.19042969,18.90625,-11.15625,11.5625,0.0,0.0,0.0
1695948959647,-1.1835938,0.09863281,0.10839844,57.84375,-49.0625,15.8125,0.0,0.0,0.0
1695948959705,-1.2851562,0.18554688,0.16894531,41.0,-88.78125,27.53125,0.0,0.0,0.0
1695948959739,-1.2539062,0.2939453,0.24121094,25.90625,-143.71875,47.625,0.0,0.0,0.0
1695948959765,-1.1484375,0.31347656,-0.14648438,-58.5,-115.8125,28.78125,0.0,0.0,0.0
1695948959824,-1.1777344,-0.01953125,-0.13769531,-40.75,-64.625,3.8125,0.0,0.0,0.0
1695948959853,-0.875,-0.0546875,0.12207031,57.96875,-66.03125,1.84375,0.0,0.0,0.0
1695948959887,-0.68359375,0.17871094,0.03125,70.53125,-51.96875,10.53125,0.0,0.0,0.0
1695948959944,-0.8251953,0.18847656,0.08496094,52.84375,-23.28125,0.25,-28.5,9.8125,16.0
1695948959974,-0.79589844,0.28027344,0.18847656,21.65625,0.09375,-26.03125,0.0,0.0,0.0
1695948960004,-0.6484375,0.2705078,0.25,12.4375,30.28125,-31.90625,0.0,0.0,0.0
1695948960064,-0.78125,0.13769531,0.58496094,4.375,54.46875,-17.8125,0.0,0.0,0.0
1695948960095,-1.0058594,-0.044921875,0.6269531,-24.75,32.78125,-18.15625,0.0,0.0,0.0
1695948960125,-0.87597656,0.25390625,0.29492188,-5.03125,4.28125,-30.25,0.0,0.0,0.0
1695948960183,-1.2900391,0.4111328,-0.20214844,-109.71875,60.03125,-18.84375,0.0,0.0,0.0
1695948960215,-1.1542969,-0.15625,0.40527344,-15.28125,52.5,-48.4375,0.0,0.0,0.0
1695948960244,-0.7138672,0.36035156,-0.421875,-42.3125,33.28125,21.5625,0.0,0.0,0.0
1695948960304,-1.28125,-0.53222656,-0.05859375,-5.40625,81.1875,-11.34375,0.0,0.0,0.0
1695948960335,-1.1074219,-0.091796875,-0.028320312,25.96875,27.5625,-9.75,0.0,0.0,0.0
1695948960363,-0.8222656,0.51171875,0.20214844,-18.15625,37.0625,-15.4375,0.0,0.0,0.0
1695948960424,-1.0019531,-0.060546875,-0.040039062,-47.03125,38.09375,4.21875,0.0,0.0,0.0
1695948960455,-1.0126953,-0.23339844,0.0390625,-7.84375,27.96875,4.78125,-35.6875,5.0,4.75
1695948960483,-1.0078125,-0.0703125,0.14453125,-18.03125,25.78125,2.34375,0.0,0.0,0.0
1695948960544,-1.0507812,-0.10253906,0.29003906,8.53125,22.0625,4.46875,0.0,0.0,0.0
1695948960577,-0.9765625,0.036132812,0.33984375,-2.96875,17.84375,1.65625,0.0,0.0,0.0
1695948960604,-1.0449219,-0.12890625,0.22851562,3.875,-11.875,16.5625,0.0,0.0,0.0
1695948960665,-1.2949219,0.01171875,-0.18945312,25.4375,-53.4375,19.84375,0.0,0.0,0.0
1695948960696,-1.1386719,0.3388672,0.4970703,43.96875,-93.3125,25.53125,0.0,0.0,0.0
1695948960724,-1.1621094,0.25976562,0.01171875,-17.78125,-124.5,37.6875,0.0,0.0,0.0
1695948960785,-1.0322266,0.18652344,-0.16796875,-33.34375,-105.21875,34.4375,0.0,0.0,0.0
1695948960814,-1.1494141,0.005859375,-0.018554688,54.65625,-53.6875,-0.90625,0.0,0.0,0.0
1695948960843,-0.98535156,-0.0234375,0.061523438,39.28125,-46.5,-13.84375,0.0,0.0,0.0
1695948960905,-0.74316406,0.1953125,0.12597656,22.875,-31.84375,-3.21875,0.0,0.0,0.0
1695948960936,-0.7939453,0.20410156,0.16699219,16.9375,0.15625,-10.1875,-27.75,9.6875,16.75
1695948960963,-0.7558594,0.2529297,0.16894531,7.84375,26.5,-20.0625,0.0,0.0,0.0
1695948961025,-0.7705078,0.29882812,0.23730469,-5.9375,53.3125,-8.90625,0.0,0.0,0.0
1695948961054,-1.1074219,-0.064453125,0.49414062,1.4375,46.34375,-5.65625,0.0,0.0,0.0
1695948961085,-0.84765625,0.12792969,0.45898438,24.75,21.3125,-33.625,0.0,0.0,0.0
1695948961144,-0.73535156,0.203125,0.07714844,-32.3125,22.0625,-18.96875,0.0,0.0,0.0
1695948961174,-1.4599609,0.47558594,-0.22167969,-43.84375,84.96875,3.5625,0.0,0.0,0.0
1695948961204,-0.8310547,0.22363281,0.11425781,-37.5625,51.65625,-23.59375,0.0,0.0,0.0
1695948961265,-1.1533203,-0.2607422,0.033203125,-11.0,56.90625,2.09375,0.0,0.0,0.0
1695948961295,-1.0214844,-0.20019531,-0.10839844,-9.3125,37.5,-14.1875,0.0,0.0,0.0
1695948961323,-0.9824219,0.1015625,0.10546875,-19.125,40.25,-15.375,0.0,0.0,0.0
1695948961386,-0.97753906,0.09863281,-0.08496094,-45.0,33.34375,-4.6875,0.0,0.0,0.0
1695948961414,-1.0478516,-0.060546875,-0.022460938,-8.8125,14.25,5.28125,0.0,0.0,0.0
1695948961444,-0.9794922,-0.03125,-0.017578125,-19.375,19.5,-0.96875,-35.5,5.75,4.625
1695948961503,-1.0361328,-0.11230469,0.11425781,-11.25,23.09375,6.0,0.0,0.0,0.0
1695948961535,-1.0263672,-0.07519531,0.24121094,-18.46875,26.21875,3.0625,0.0,0.0,0.0
1695948961564,-0.984375,-0.0126953125,0.19628906,-0.21875,17.15625,5.875,0.0,0.0,0.0
1695948961624,-1.0341797,-0.00390625,0.29589844,9.625,-1.5,11.875,0.0,0.0,0.0
1695948961655,-1.1337891,-0.059570312,0.10058594,17.125,-41.1875,16.0,0.0,0.0,0.0
1695948961684,-1.2529297,0.115234375,0.060546875,42.875,-80.3125,15.8125,0.0,0.0,0.0
1695948961744,-1.2978516,0.28710938,0.27539062,28.84375,-118.15625,37.4375,0.0,0.0,0.0
1695948961774,-1.2324219,0.30078125,0.11035156,-59.28125,-138.78125,19.71875,0.0,0.0,0.0
1695948961804,-0.99609375,0.25195312,-0.40625,-56.84375,-83.09375,3.75,0.0,0.0,0.0
1695948961864,-1.0283203,-0.17382812,0.41308594,109.90625,-85.0,11.96875,0.0,0.0,0.0
1695948961925,-0.703125,0.07519531,0.11816406,51.90625,-58.4375,-4.625,0.0,0.0,0.0
1695948961928,-0.68652344,0.203125,0.059570312,44.03125,-34.40625,-4.1875,-28.9375,9.5,17.375
1695948961985,-0.6591797,0.21679688,0.11425781,3.9375,9.84375,-23.59375,0.0,0.0,0.0
1695948962013,-0.6503906,0.20507812,0.18945312,-0.15625,47.03125,-30.5625,0.0,0.0,0.0
1695948962044,-0.73535156,0.25097656,0.50097656,-7.65625,80.15625,-13.21875,0.0,0.0,0.0
1695948962104,-1.2060547,-0.018554688,0.7402344,-33.90625,62.03125,-13.46875,0.0,0.0,0.0
1695948962164,-0.91503906,0.11621094,0.390625,-2.78125,10.21875,-23.59375,0.0,0.0,0.0
1695948962167,-1.4267578,0.25195312,-9.765625E-4,-84.125,37.5,-13.46875,0.0,0.0,0.0
1695948962224,-1.0976562,-0.049804688,0.2783203,8.40625,41.09375,-31.53125,0.0,0.0,0.0
1695948962254,-0.64746094,0.46972656,-0.32226562,-37.125,31.34375,22.34375,0.0,0.0,0.0
1695948962285,-1.2832031,-0.7480469,9.765625E-4,-14.75,98.09375,-17.625,0.0,0.0,0.0
1695948962343,-0.97558594,0.034179688,-0.032226562,23.21875,37.75,-13.15625,0.0,0.0,0.0
1695948962376,-0.9013672,0.37695312,0.15625,-23.09375,42.75,3.75,0.0,0.0,0.0
1695948962405,-1.0087891,-0.125,-0.08105469,-45.1875,26.09375,9.0,0.0,0.0,0.0
1695948962464,-1.0341797,-0.18945312,-0.005859375,-17.71875,21.03125,-1.625,-36.75,6.375,5.0625
1695948962494,-0.9765625,-0.05078125,0.040039062,-8.09375,23.46875,3.9375,0.0,0.0,0.0
1695948962524,-0.9863281,-0.03515625,0.1640625,13.65625,30.1875,10.8125,0.0,0.0,0.0
1695948962585,-0.98339844,0.0068359375,0.21972656,-6.375,34.03125,1.1875,0.0,0.0,0.0
1695948962614,-1.0048828,-0.044921875,0.2939453,17.125,14.1875,16.75,0.0,0.0,0.0
1695948962644,-1.1816406,-0.0107421875,0.125,12.125,-19.6875,23.15625,0.0,0.0,0.0
1695948962705,-1.1982422,0.22558594,0.059570312,64.71875,-78.84375,21.25,0.0,0.0,0.0
1695948962737,-1.2919922,0.38183594,0.35839844,33.65625,-118.15625,39.25,0.0,0.0,0.0
1695948962765,-1.2275391,0.21875,-0.15234375,-11.375,-120.84375,38.09375,0.0,0.0,0.0
1695948962824,-1.1220703,0.103515625,-0.17675781,-82.71875,-60.40625,-1.09375,0.0,0.0,0.0
1695948962855,-0.99902344,0.025390625,-0.00390625,-19.4375,-31.78125,-24.6875,0.0,0.0,0.0
1695948962883,-0.78222656,0.16992188,0.0068359375,33.71875,-39.71875,-19.4375,0.0,0.0,0.0
1695948962944,-0.7675781,0.171875,-0.015625,27.3125,-15.0625,-18.0,-31.75,9.5,15.25
1695948962975,-0.70410156,0.22167969,0.03515625,26.28125,11.96875,-23.0,0.0,0.0,0.0
1695948963003,-0.6748047,0.24023438,0.18847656,30.5,41.15625,-15.78125,0.0,0.0,0.0
1695948963065,-1.0332031,-0.15234375,0.49902344,23.84375,47.03125,-17.0625,0.0,0.0,0.0
1695948963100,-0.93652344,0.16699219,0.55859375,18.21875,7.15625,-30.6875,0.0,0.0,0.0
1695948963124,-1.3203125,0.37109375,-0.16503906,-18.9375,4.90625,-0.71875,0.0,0.0,0.0
1695948963185,-0.7001953,0.49609375,-0.234375,-50.8125,28.03125,1.25,0.0,0.0,0.0
1695948963214,-1.3330078,-0.5566406,-0.203125,-57.875,67.40625,-3.71875,0.0,0.0,0.0
1695948963244,-1.0751953,-0.14257812,-0.14550781,-8.9375,35.71875,-6.5625,0.0,0.0,0.0
1695948963305,-0.9707031,0.043945312,0.02734375,-23.15625,38.71875,-3.40625,0.0,0.0,0.0
1695948963334,-0.9814453,-0.030273438,-0.1171875,-24.875,32.1875,-5.53125,0.0,0.0,0.0
1695948963363,-1.0078125,-0.017578125,-0.001953125,-9.4375,25.40625,1.46875,0.0,0.0,0.0
1695948963425,-1.0224609,-0.08496094,0.0234375,-12.59375,27.90625,6.125,0.0,0.0,0.0
1695948963455,-1.0537109,-0.07421875,0.18457031,-0.34375,26.5,2.28125,-37.5,8.1875,5.8125
1695948963484,-0.9794922,0.04296875,0.34765625,1.5625,22.375,0.5625,0.0,0.0,0.0
1695948963545,-0.98535156,-0.07910156,0.3623047,3.9375,5.09375,10.40625,0.0,0.0,0.0
1695948963576,-0.99316406,-0.07324219,0.28222656,-15.84375,-31.78125,14.125,0.0,0.0,0.0
1695948963604,-1.2636719,0.052734375,0.14746094,8.28125,-91.90625,24.625,0.0,0.0,0.0
1695948963664,-1.3398438,0.35351562,0.03515625,7.78125,-132.375,31.6875,0.0,0.0,0.0
1695948963694,-1.2265625,0.28222656,-0.0087890625,-57.40625,-137.625,20.96875,0.0,0.0,0.0
1695948963724,-1.1201172,-0.032226562,-0.20507812,-23.15625,-78.28125,11.4375,0.0,0.0,0.0
1695948963784,-0.9765625,-0.2421875,0.036132812,27.875,-31.34375,-30.3125,0.0,0.0,0.0
1695948963816,-0.62402344,0.15136719,-0.0703125,69.1875,-32.15625,-30.5,0.0,0.0,0.0
1695948963844,-0.6455078,0.3857422,0.12988281,52.59375,4.90625,-29.03125,0.0,0.0,0.0
1695948963904,-0.78125,0.36035156,0.22558594,-2.40625,54.65625,-27.4375,0.0,0.0,0.0
1695948963940,-0.75878906,0.17480469,0.30664062,11.8125,61.78125,-6.34375,-32.375,8.5,17.0625
1695948963965,-1.1230469,0.0068359375,0.5234375,0.65625,32.25,-6.09375,0.0,0.0,0.0
1695948964024,-0.7128906,0.35546875,0.10644531,-74.3125,21.375,-5.78125,0.0,0.0,0.0
1695948964054,-1.8535156,-0.33691406,-0.087890625,-14.125,81.9375,17.34375,0.0,0.0,0.0
1695948964085,-0.5175781,0.15039062,-0.37304688,-59.15625,38.59375,-29.21875,0.0,0.0,0.0
1695948964144,-1.2265625,-0.24707031,0.08886719,6.6875,48.71875,-1.3125,0.0,0.0,0.0
1695948964203,-0.9511719,0.0859375,0.09082031,12.125,32.96875,-4.25,0.0,0.0,0.0
1695948964206,-0.984375,0.0068359375,-0.08300781,-63.625,39.875,-5.34375,0.0,0.0,0.0
1695948964263,-0.96972656,-0.053710938,-0.020507812,-3.9375,23.28125,0.5625,0.0,0.0,0.0
1695948964296,-0.98339844,-0.095703125,0.030273438,-0.28125,26.9375,8.1875,0.0,0.0,0.0
1695948964354,-1.0009766,-0.0087890625,0.08203125,6.25,28.65625,7.40625,0.0,0.0,0.0
1695948964417,-1.0498047,-0.08203125,0.22265625,9.625,29.625,6.65625,0.0,0.0,0.0
1695948964420,-0.9765625,0.045898438,0.296875,0.46875,24.8125,4.71875,0.0,0.0,0.0
1695948964444,-1.0185547,-0.07128906,0.30273438,6.5,2.09375,15.34375,-38.6875,5.1875,5.1875
1695948964504,-1.0380859,-0.09765625,0.16503906,4.4375,-33.0625,15.46875,0.0,0.0,0.0
1695948964535,-1.2460938,0.0859375,0.059570312,39.28125,-75.84375,11.96875,0.0,0.0,0.0
1695948964565,-1.2148438,0.43945312,0.25195312,42.28125,-110.8125,32.3125,0.0,0.0,0.0
1695948964625,-1.2929688,0.1484375,-0.046875,-8.03125,-140.71875,46.65625,0.0,0.0,0.0
1695948964654,-1.0195312,0.32910156,-0.099609375,-61.375,-96.28125,22.46875,0.0,0.0,0.0
1695948964684,-1.1455078,0.0234375,0.11230469,1.3125,-48.875,-2.84375,0.0,0.0,0.0
1695948964744,-0.83496094,-0.07910156,0.0546875,45.3125,-32.6875,-25.0625,0.0,0.0,0.0
1695948964778,-0.6738281,0.17480469,0.05859375,43.96875,-19.5,-15.4375,0.0,0.0,0.0
1695948964804,-0.7626953,0.17578125,0.140625,36.09375,3.75,-20.5,0.0,0.0,0.0
1695948964864,-0.73828125,0.23046875,0.22753906,4.25,37.5625,-29.46875,0.0,0.0,0.0
1695948964894,-0.67089844,0.32714844,0.3701172,-10.78125,58.90625,-16.40625,0.0,0.0,0.0
1695948964926,-1.0703125,0.0068359375,0.57128906,-39.46875,53.4375,-9.125,-31.625,9.6875,17.5
1695948964984,-0.7753906,0.19824219,0.45703125,-10.84375,22.0,-13.59375,0.0,0.0,0.0
1695948965014,-1.3046875,0.20019531,0.13378906,-74.1875,38.59375,0.15625,0.0,0.0,0.0
1695948965044,-1.0488281,-0.109375,0.18945312,13.84375,22.78125,-22.5,0.0,0.0,0.0
1695948965104,-0.6123047,0.34960938,-0.31152344,-66.0625,43.65625,-10.46875,0.0,0.0,0.0
1695948965133,-1.3251953,-0.53808594,-0.026367188,1.5,80.15625,3.8125,0.0,0.0,0.0
1695948965163,-1.0615234,-0.20605469,-0.10058594,33.0625,34.3125,-8.34375,0.0,0.0,0.0
1695948965254,-0.8935547,0.4033203,0.25195312,28.65625,32.375,-8.59375,0.0,0.0,0.0
1695948965257,-0.9902344,-0.072265625,-0.09472656,-37.875,36.53125,1.375,0.0,0.0,0.0
1695948965284,-1.0039062,-0.17382812,-0.07519531,4.125,26.625,6.90625,0.0,0.0,0.0
1695948965344,-1.0175781,-0.076171875,0.049804688,0.09375,28.40625,4.71875,0.0,0.0,0.0
1695948965375,-0.99316406,-0.059570312,0.12695312,11.75,25.90625,5.09375,0.0,0.0,0.0
1695948965404,-0.98828125,0.03125,0.29296875,5.34375,28.34375,3.0625,0.0,0.0,0.0
1695948965465,-1.0019531,-0.0146484375,0.32714844,0.65625,16.75,11.5625,-39.75,6.25,6.5625
1695948965495,-1.0019531,-0.07910156,0.25195312,11.15625,-14.625,17.0625,0.0,0.0,0.0
1695948965524,-1.3203125,-0.064453125,0.12597656,51.65625,-60.65625,22.78125,0.0,0.0,0.0
1695948965584,-1.2773438,0.33789062,0.053710938,59.3125,-102.6875,21.5,0.0,0.0,0.0
1695948965615,-1.2568359,0.31640625,0.27441406,9.875,-159.21875,46.53125,0.0,0.0,0.0
1695948965644,-1.0175781,0.4091797,-0.28222656,-58.5625,-117.15625,30.15625,0.0,0.0,0.0
1695948965703,-1.203125,0.057617188,0.0234375,64.6875,-73.65625,12.96875,0.0,0.0,0.0
1695948965736,-0.9765625,-0.15820312,0.0703125,38.65625,-60.65625,-15.78125,0.0,0.0,0.0
1695948965764,-0.69628906,0.1796875,0.1015625,50.9375,-46.0,-2.59375,0.0,0.0,0.0
1695948965824,-0.68066406,0.23828125,0.12207031,16.09375,-13.53125,-10.40625,0.0,0.0,0.0
1695948965854,-0.63964844,0.24023438,0.15722656,-21.6875,19.6875,-24.8125,0.0,0.0,0.0
1695948965883,-0.625,0.30566406,0.2626953,-17.0,59.53125,-23.1875,0.0,0.0,0.0
1695948965944,-0.9746094,0.123046875,0.67578125,-22.84375,87.3125,-7.0,-28.0,12.25,19.1875
1695948965975,-1.1171875,0.017578125,0.8066406,9.0625,29.0,-17.3125,0.0,0.0,0.0
1695948966005,-1.0263672,0.27734375,0.0390625,2.40625,-5.40625,-14.375,0.0,0.0,0.0
1695948966064,-1.1289062,0.25878906,-0.20410156,-54.53125,42.6875,-17.0625,0.0,0.0,0.0
1695948966095,-0.80371094,0.24121094,0.40722656,-48.90625,34.5,-34.71875,0.0,0.0,0.0
1695948966127,-1.015625,-0.037109375,-0.16796875,-21.625,45.3125,24.0625,0.0,0.0,0.0
1695948966184,-1.1230469,-0.38378906,-0.09375,-33.03125,68.0,-16.46875,0.0,0.0,0.0
1695948966214,-1.0136719,0.0546875,0.0087890625,40.5,27.375,-5.40625,0.0,0.0,0.0
1695948966244,-0.88964844,0.24316406,0.064453125,-32.3125,46.46875,-9.8125,0.0,0.0,0.0
1695948966334,-0.984375,-0.05078125,-0.12890625,-38.90625,43.0625,4.71875,0.0,0.0,0.0
1695948966337,-1.0742188,-0.19042969,0.013671875,1.0625,35.78125,10.34375,0.0,0.0,0.0
1695948966364,-1.0917969,-0.11035156,0.24121094,-6.4375,32.0625,2.34375,0.0,0.0,0.0
1695948966425,-1.0048828,0.107421875,0.35839844,-1.4375,23.6875,-5.34375,0.0,0.0,0.0
1695948966485,-0.9609375,0.0107421875,0.38183594,6.9375,6.1875,8.3125,-39.5625,6.0625,6.6875
1695948966488,-1.0439453,-9.765625E-4,0.35058594,5.21875,-37.53125,27.125,0.0,0.0,0.0
1695948966544,-1.2158203,0.0087890625,-0.125,26.90625,-102.40625,21.9375,0.0,0.0,0.0
1695948966579,-1.3007812,0.5253906,0.10449219,34.34375,-121.625,37.75,0.0,0.0,0.0
1695948966604,-1.3095703,0.17089844,0.10253906,-17.90625,-137.5,39.5625,0.0,0.0,0.0
1695948966665,-1.0908203,0.14550781,-0.19628906,-94.3125,-59.5,1.0625,0.0,0.0,0.0
1695948966694,-0.85839844,-0.0078125,0.37597656,90.96875,-74.0,-2.78125,0.0,0.0,0.0
1695948966723,-0.71972656,0.036132812,0.111328125,54.53125,-48.25,-3.9375,0.0,0.0,0.0
1695948966784,-0.6152344,0.14160156,0.048828125,33.25,-15.90625,-14.1875,0.0,0.0,0.0
1695948966816,-0.7421875,0.20800781,0.1171875,9.8125,18.15625,-25.5625,0.0,0.0,0.0
1695948966844,-0.6904297,0.32128906,0.28515625,-1.5625,41.71875,-28.0,0.0,0.0,0.0
1695948966904,-0.97265625,0.07128906,0.6425781,-28.96875,61.3125,-21.53125,0.0,0.0,0.0
1695948966934,-0.89160156,0.20410156,0.5751953,18.03125,23.65625,-21.09375,-30.875,9.6875,18.25
1695948966963,-0.6904297,0.15722656,0.038085938,-32.8125,17.65625,-10.53125,0.0,0.0,0.0
1695948967025,-1.5917969,0.4169922,-0.18652344,-94.8125,106.53125,-4.3125,0.0,0.0,0.0
1695948967054,-1.3398438,-0.42089844,0.3046875,-48.4375,51.28125,-80.0625,0.0,0.0,0.0
1695948967083,-0.671875,0.6308594,-0.36914062,28.59375,9.53125,32.375,0.0,0.0,0.0
1695948967144,-1.2753906,-0.50097656,-0.032226562,-20.15625,75.8125,4.59375,0.0,0.0,0.0
1695948967176,-0.9970703,0.09472656,0.0546875,-19.9375,31.03125,-9.8125,0.0,0.0,0.0
1695948967203,-1.0458984,-0.125,-0.0087890625,-16.3125,24.125,6.25,0.0,0.0,0.0
1695948967264,-0.9453125,-0.10839844,-0.046875,4.78125,14.84375,3.9375,0.0,0.0,0.0
1695948967299,-0.98828125,-0.00390625,-0.01171875,14.25,21.9375,5.5625,0.0,0.0,0.0
1695948967325,-1.0488281,-0.072265625,0.1796875,16.75,28.53125,8.6875,0.0,0.0,0.0
1695948967385,-0.97753906,0.05859375,0.28710938,-4.0625,31.75,3.5,0.0,0.0,0.0
1695948967414,-1.0449219,0.00390625,0.23632812,5.34375,15.21875,12.21875,0.0,0.0,0.0
1695948967444,-1.0166016,-0.05859375,0.2998047,16.75,-13.84375,16.125,-39.875,7.4375,6.6875
1695948967505,-1.0019531,-0.06640625,0.028320312,22.8125,-68.46875,14.375,0.0,0.0,0.0
1695948967534,-1.2949219,0.16210938,0.034179688,55.09375,-107.9375,22.0,0.0,0.0,0.0
1695948967563,-1.2333984,0.41015625,0.18945312,29.46875,-130.78125,37.375,0.0,0.0,0.0
1695948967624,-1.1738281,0.34375,-0.17578125,-33.90625,-125.53125,23.28125,0.0,0.0,0.0
1695948967654,-1.1347656,0.12890625,-0.0859375,52.40625,-55.875,-1.25,0.0,0.0,0.0
1695948967685,-0.97265625,-0.052734375,0.15722656,59.65625,-59.125,-0.59375,0.0,0.0,0.0
1695948967745,-0.68652344,0.09375,0.08203125,40.125,-35.1875,-11.34375,0.0,0.0,0.0
1695948967775,-0.6738281,0.23144531,0.10644531,7.84375,-6.8125,-13.21875,0.0,0.0,0.0
1695948967804,-0.6953125,0.27148438,0.15234375,-24.8125,34.5,-26.65625,0.0,0.0,0.0
1695948967863,-0.63671875,0.296875,0.3935547,2.0625,60.625,-18.15625,0.0,0.0,0.0
1695948967894,-1.0205078,0.013671875,0.6464844,-24.5,74.96875,-6.75,0.0,0.0,0.0
1695948967924,-0.62890625,0.123046875,0.28515625,-14.3125,10.34375,-26.59375,-33.0,11.1875,19.625
1695948967983,-1.5517578,0.7392578,0.0859375,-107.5,103.28125,-18.96875,0.0,0.0,0.0
1695948968014,-1.1152344,-0.5253906,0.059570312,-91.21875,45.84375,-75.65625,0.0,0.0,0.0
1695948968045,-0.5859375,0.82421875,0.05078125,67.0625,-1.125,30.28125,0.0,0.0,0.0
1695948968105,-1.3076172,-0.6015625,-0.22070312,-45.125,94.125,3.1875,0.0,0.0,0.0
1695948968135,-1.03125,-0.0234375,0.056640625,19.5625,33.09375,-6.375,0.0,0.0,0.0
1695948968165,-1.0595703,0.0234375,-0.025390625,-29.8125,28.53125,-7.25,0.0,0.0,0.0
1695948968226,-0.96484375,-0.017578125,-0.08300781,-11.5,9.84375,-0.28125,0.0,0.0,0.0
1695948968254,-0.99902344,-0.053710938,-0.009765625,-14.6875,12.34375,1.78125,0.0,0.0,0.0
1695948968284,-0.9863281,-0.04296875,0.0146484375,4.3125,10.53125,7.65625,0.0,0.0,0.0
1695948968345,-0.9785156,-0.068359375,0.119140625,3.21875,19.625,6.5625,0.0,0.0,0.0
1695948968374,-0.96484375,0.00390625,0.24316406,4.75,27.65625,6.65625,0.0,0.0,0.0
1695948968404,-0.9951172,-0.09375,0.2919922,10.65625,14.25,12.53125,0.0,0.0,0.0
1695948968464,-0.98046875,-0.10839844,0.24023438,8.09375,-15.78125,11.8125,-39.5625,7.125,7.1875
1695948968494,-1.2421875,0.034179688,0.14160156,9.875,-56.125,7.84375,0.0,0.0,0.0
1695948968526,-1.3085938,0.33496094,0.1484375,47.28125,-84.875,17.28125,0.0,0.0,0.0
1695948968585,-1.2998047,0.13867188,0.015625,-26.21875,-138.15625,38.40625,0.0,0.0,0.0
1695948968618,-1.0244141,0.41503906,-0.1484375,-3.875,-117.15625,48.59375,0.0,0.0,0.0
1695948968646,-1.2138672,-0.0078125,0.09375,-25.53125,-52.59375,15.8125,0.0,0.0,0.0
1695948968704,-0.7988281,-0.038085938,-0.022460938,21.75,-37.9375,-17.0625,0.0,0.0,0.0
1695948968764,-0.6503906,0.20019531,0.06347656,34.875,-36.0,-1.8125,0.0,0.0,0.0
1695948968765,-0.74316406,0.27148438,0.052734375,13.34375,-5.46875,-10.53125,0.0,0.0,0.0
1695948968824,-0.75390625,0.25683594,0.10253906,5.84375,30.90625,-20.5,0.0,0.0,0.0
1695948968853,-0.6845703,0.16113281,0.3720703,38.5,52.5625,-11.9375,0.0,0.0,0.0
1695948968883,-1.1386719,-0.13183594,0.7841797,1.9375,51.71875,-19.5625,0.0,0.0,0.0
1695948968944,-0.86621094,0.123046875,0.28808594,-84.1875,7.71875,-44.53125,-32.375,9.8125,17.9375
1695948968974,-1.5800781,0.2734375,-0.25,-106.46875,59.28125,-21.71875,0.0,0.0,0.0
1695948969004,-0.9736328,0.09082031,0.39453125,-9.0625,27.375,-41.78125,0.0,0.0,0.0
1695948969065,-0.81640625,0.38476562,-0.39453125,-15.78125,30.28125,28.46875,0.0,0.0,0.0
1695948969094,-1.2900391,-0.59472656,-0.15332031,-26.21875,83.40625,-6.03125,0.0,0.0,0.0
1695948969124,-0.95996094,0.14160156,0.11230469,37.5625,36.34375,-15.3125,0.0,0.0,0.0
1695948969184,-1.0019531,0.14941406,-0.01171875,-38.0,44.5,-1.9375,0.0,0.0,0.0
1695948969215,-1.0361328,-0.125,-0.09667969,-25.59375,20.53125,6.25,0.0,0.0,0.0
1695948969243,-1.03125,-0.087890625,0.06347656,-14.4375,15.53125,-0.96875,0.0,0.0,0.0
1695948969304,-0.95703125,-0.09472656,0.0126953125,-2.21875,14.125,3.25,0.0,0.0,0.0
1695948969364,-0.9951172,-0.09277344,0.16113281,-0.09375,25.09375,6.1875,0.0,0.0,0.0
1695948969367,-1.0185547,0.0078125,0.25195312,2.90625,27.5625,8.25,0.0,0.0,0.0
1695948969423,-0.99902344,0.0078125,0.2109375,1.875,11.4375,12.71875,0.0,0.0,0.0
1695948969456,-1.0136719,-0.08105469,0.14160156,-10.28125,-1.0625,10.09375,-38.5,5.3125,8.0625
1695948969486,-1.0078125,-0.0390625,0.17871094,5.15625,-32.21875,8.625,0.0,0.0,0.0
1695948969544,-1.2548828,-0.13574219,-0.0029296875,14.9375,-72.1875,7.90625,0.0,0.0,0.0
1695948969576,-1.2861328,0.38964844,0.18359375,25.5,-110.03125,22.78125,0.0,0.0,0.0
1695948969603,-1.1464844,0.4013672,0.33984375,-16.875,-157.875,30.09375,0.0,0.0,0.0
1695948969665,-1.1123047,0.07421875,-0.44140625,-47.9375,-122.28125,31.40625,0.0,0.0,0.0
1695948969696,-1.1943359,-0.078125,0.1640625,95.25,-69.8125,14.71875,0.0,0.0,0.0
1695948969723,-0.78515625,0.041992188,0.0625,40.375,-43.9375,-37.59375,0.0,0.0,0.0
1695948969784,-0.59472656,0.23046875,0.10839844,27.5,-17.375,-8.71875,0.0,0.0,0.0
1695948969814,-0.61328125,0.23730469,0.20019531,9.6875,19.96875,-11.625,0.0,0.0,0.0
1695948969843,-0.6894531,0.25683594,0.2890625,-5.09375,63.5,-27.75,0.0,0.0,0.0
1695948969904,-0.7763672,0.23535156,0.5625,-13.75,80.65625,-14.5625,0.0,0.0,0.0
1695948969934,-1.0712891,-0.13085938,0.5488281,-8.6875,30.59375,-8.71875,-31.1875,7.25,17.8125
1695948969963,-0.8232422,0.53808594,-0.056640625,-158.09375,66.625,-7.25,0.0,0.0,0.0
1695948970024,-1.6542969,-0.7060547,0.33691406,-4.78125,55.5625,-12.96875,0.0,0.0,0.0
1695948970054,-0.56152344,0.5957031,-0.33007812,9.125,6.75,12.46875,0.0,0.0,0.0
1695948970083,-1.2597656,-0.46191406,-0.15722656,-43.65625,70.15625,3.375,0.0,0.0,0.0
1695948970144,-0.97265625,-0.061523438,0.15527344,20.71875,27.25,-6.09375,0.0,0.0,0.0
1695948970180,-0.9980469,0.01171875,-0.05078125,-26.09375,33.21875,-4.25,0.0,0.0,0.0
1695948970204,-0.9892578,-0.06640625,0.0087890625,15.0,20.96875,-0.71875,0.0,0.0,0.0
1695948970264,-0.9892578,-0.01171875,0.052734375,-11.1875,20.84375,0.9375,0.0,0.0,0.0
1695948970298,-1.0009766,-0.06738281,0.10449219,7.3125,17.40625,11.0,0.0,0.0,0.0
1695948970324,-1.0,-0.111328125,0.14941406,15.21875,21.5625,11.8125,0.0,0.0,0.0
1695948970384,-0.9765625,0.040039062,0.2783203,18.03125,21.25,12.28125,0.0,0.0,0.0
1695948970415,-0.9326172,0.03515625,0.28320312,23.71875,10.15625,21.6875,0.0,0.0,0.0
1695948970444,-1.0986328,-0.13867188,0.15429688,4.4375,-11.625,19.5,-38.375,6.25,8.375
1695948970504,-1.2285156,0.19335938,-0.0146484375,14.3125,-69.1875,1.4375,0.0,0.0,0.0
1695948970535,-1.2675781,0.45410156,0.234375,31.03125,-95.875,26.625,0.0,0.0,0.0
1695948970564,-1.3398438,0.29882812,0.06542969,-39.6875,-135.0625,35.65625,0.0,0.0,0.0
1695948970624,-1.1132812,0.23046875,0.043945312,-37.4375,-106.375,25.71875,0.0,0.0,0.0
1695948970660,-1.1513672,-0.095703125,0.044921875,-5.9375,-62.46875,3.8125,0.0,0.0,0.0
1695948970685,-0.8769531,-0.047851562,0.015625,39.15625,-50.21875,-17.5,0.0,0.0,0.0
1695948970744,-0.6386719,0.19140625,0.07910156,51.5,-31.71875,-20.3125,0.0,0.0,0.0
1695948970774,-0.65527344,0.15136719,0.091796875,42.6875,-1.1875,-25.625,0.0,0.0,0.0
1695948970804,-0.69628906,0.17382812,0.19824219,19.5,38.03125,-37.625,0.0,0.0,0.0
1695948970864,-0.6230469,0.32617188,0.4013672,-4.78125,64.53125,-23.90625,0.0,0.0,0.0
1695948970894,-1.0996094,-9.765625E-4,0.5439453,-57.8125,67.90625,-19.4375,0.0,0.0,0.0
1695948970925,-0.6826172,0.3232422,0.3095703,-19.4375,16.75,-17.8125,-31.0,7.125,18.4375
1695948970984,-1.9853516,0.22070312,-0.2919922,-94.375,86.3125,10.53125,0.0,0.0,0.0
1695948971046,-0.7324219,-0.23339844,0.13867188,-68.1875,33.71875,-72.3125,0.0,0.0,0.0
1695948971049,-0.94433594,0.15332031,-0.036132812,71.6875,9.53125,36.34375,0.0,0.0,0.0
1695948971103,-1.0878906,-0.15820312,-0.091796875,-2.96875,59.03125,1.3125,0.0,0.0,0.0
1695948971134,-0.9863281,0.14550781,0.1328125,6.25,35.3125,-5.0625,0.0,0.0,0.0
1695948971164,-0.95703125,0.07128906,-0.013671875,-10.09375,30.21875,0.25,0.0,0.0,0.0
1695948971224,-0.9707031,-0.07421875,0.016601562,-9.96875,24.8125,10.03125,0.0,0.0,0.0
1695948971254,-1.0351562,-0.17578125,0.09082031,4.125,22.84375,7.40625,0.0,0.0,0.0
1695948971284,-0.9863281,-0.111328125,0.19433594,9.0625,21.625,3.4375,0.0,0.0,0.0
1695948971344,-0.9472656,0.0078125,0.3984375,27.25,25.96875,8.5625,0.0,0.0,0.0
1695948971375,-1.0458984,-0.095703125,0.3701172,4.75,9.71875,12.15625,0.0,0.0,0.0
1695948971403,-1.0087891,0.0,0.18457031,18.34375,-38.84375,18.8125,0.0,0.0,0.0
1695948971464,-1.4404297,0.041992188,0.13183594,33.65625,-107.34375,23.875,-37.0,7.4375,10.1875
1695948971494,-1.1611328,0.6035156,0.2841797,55.09375,-154.28125,40.65625,0.0,0.0,0.0
1695948971525,-1.1445312,0.32128906,-0.14746094,-33.53125,-144.15625,50.5625,0.0,0.0,0.0
1695948971584,-1.2431641,0.046875,0.041992188,-40.6875,-65.03125,14.0625,0.0,0.0,0.0
1695948971617,-0.9892578,-0.09863281,-0.0126953125,-1.25,-28.0,-38.375,0.0,0.0,0.0
1695948971643,-0.7792969,0.08496094,-0.0078125,59.78125,-27.875,-31.21875,0.0,0.0,0.0
1695948971705,-0.48828125,0.29296875,0.13476562,52.90625,-4.375,-26.21875,0.0,0.0,0.0
1695948971734,-0.6064453,0.22070312,0.18652344,3.40625,40.5,-15.46875,0.0,0.0,0.0
1695948971764,-0.6142578,0.33007812,0.3046875,-14.78125,68.0,-5.84375,0.0,0.0,0.0
1695948971828,-1.1552734,-0.018554688,0.65234375,-7.90625,66.84375,-7.5,0.0,0.0,0.0
1695948971855,-0.9248047,0.06542969,0.37890625,15.125,0.5,-14.875,0.0,0.0,0.0
1695948971885,-1.5429688,0.23925781,-0.15234375,-100.625,51.0,-4.9375,0.0,0.0,0.0
1695948971945,-1.0576172,-0.25976562,0.29101562,-20.03125,47.09375,-42.78125,-31.9375,6.8125,17.8125
1695948971974,-0.9628906,0.12988281,-0.10644531,40.9375,23.40625,18.09375,0.0,0.0,0.0
1695948972005,-1.0673828,-0.03515625,0.041992188,15.28125,49.71875,1.125,0.0,0.0,0.0
1695948972065,-0.93652344,0.11328125,0.11621094,-19.0,32.4375,-13.28125,0.0,0.0,0.0
1695948972094,-0.9189453,0.07519531,-0.099609375,-56.71875,36.8125,-0.65625,0.0,0.0,0.0
1695948972124,-1.0400391,-0.23535156,-0.072265625,-33.03125,27.5,5.21875,0.0,0.0,0.0
1695948972184,-0.9814453,-0.0703125,0.047851562,-9.1875,22.96875,1.96875,0.0,0.0,0.0
1695948972215,-1.0283203,-0.028320312,0.21679688,-0.4375,17.71875,6.65625,0.0,0.0,0.0
1695948972244,-0.9785156,-0.033203125,0.3623047,2.28125,11.75,7.78125,0.0,0.0,0.0
1695948972304,-0.95410156,-0.037109375,0.22460938,15.0625,-0.21875,14.3125,0.0,0.0,0.0
1695948972335,-0.9814453,-0.060546875,0.16699219,-9.3125,-17.125,21.1875,0.0,0.0,0.0
1695948972364,-1.0732422,0.01171875,0.2998047,7.46875,-60.78125,25.96875,0.0,0.0,0.0
1695948972424,-1.4189453,0.35742188,0.27441406,46.78125,-119.25,40.0,0.0,0.0,0.0
1695948972454,-1.2509766,0.25878906,0.12890625,16.15625,-178.25,54.21875,-33.875,7.75,16.0
1695948972485,-1.234375,0.16503906,-0.17089844,-6.0,-131.8125,39.4375,0.0,0.0,0.0
1695948972545,-1.0878906,0.016601562,0.3388672,49.40625,-55.15625,-22.8125,0.0,0.0,0.0
1695948972575,-0.74121094,-0.01171875,0.0107421875,8.03125,-28.96875,-44.46875,0.0,0.0,0.0
1695948972603,-0.6582031,0.11328125,0.08691406,42.28125,-18.15625,-19.875,0.0,0.0,0.0
1695948972665,-0.57910156,0.3203125,0.16699219,26.09375,15.59375,-22.375,0.0,0.0,0.0
1695948972694,-0.66015625,0.30078125,0.15234375,-14.6875,62.53125,-30.75,0.0,0.0,0.0
1695948972725,-0.7167969,0.3544922,0.453125,-3.8125,91.09375,-14.6875,0.0,0.0,0.0
1695948972786,-1.2880859,-0.08203125,0.76171875,-1.90625,61.84375,-12.1875,0.0,0.0,0.0
1695948972814,-0.9423828,0.31347656,0.23925781,-43.375,9.84375,-9.6875,0.0,0.0,0.0
1695948972845,-1.5253906,-0.40820312,-0.09472656,-23.03125,55.75,-15.4375,0.0,0.0,0.0
1695948972905,-0.5263672,0.32226562,-0.13574219,-22.0,39.03125,-30.375,0.0,0.0,0.0
1695948972935,-1.3203125,-0.25683594,0.16113281,32.9375,58.5,17.28125,-32.0625,5.0,16.0
1695948972964,-0.9951172,-0.041015625,-0.02734375,-2.90625,42.4375,-5.71875,0.0,0.0,0.0
1695948973025,-0.9423828,0.20214844,0.1171875,-3.03125,28.53125,-6.4375,0.0,0.0,0.0
1695948973054,-0.98535156,-0.04296875,-0.022460938,-32.3125,30.28125,-1.03125,0.0,0.0,0.0
1695948973084,-1.015625,-0.111328125,-0.04296875,-17.46875,26.75,1.78125,0.0,0.0,0.0
1695948973144,-0.9814453,-0.038085938,0.059570312,-2.03125,24.5625,5.15625,0.0,0.0,0.0
1695948973174,-1.0175781,-0.06933594,0.15234375,9.75,23.75,7.34375,0.0,0.0,0.0
1695948973204,-1.0019531,0.017578125,0.26660156,-1.71875,26.5,4.46875,0.0,0.0,0.0
1695948973264,-0.9892578,-0.033203125,0.3154297,11.875,15.875,10.03125,0.0,0.0,0.0
1695948973327,-0.9316406,-0.0126953125,0.28125,9.125,-4.0,11.8125,0.0,0.0,0.0
1695948973329,-1.1796875,-0.08105469,0.08984375,27.125,-30.3125,17.34375,0.0,0.0,0.0
1695948973384,-1.2255859,0.1640625,0.103515625,38.0,-67.71875,12.96875,0.0,0.0,0.0
1695948973415,-1.2685547,0.42382812,0.28808594,23.96875,-106.53125,42.25,0.0,0.0,0.0
1695948973474,-1.1328125,0.22167969,-0.08203125,-6.125,-136.8125,40.90625,-34.1875,7.75,13.625
1695948973504,-1.0751953,0.21484375,-0.103515625,-28.84375,-85.71875,24.6875,0.0,0.0,0.0
1695948973534,-1.125,-0.115234375,0.125,60.78125,-51.8125,-25.3125,0.0,0.0,0.0
1695948973566,-0.765625,0.16015625,0.06542969,33.65625,-61.0625,-20.90625,0.0,0.0,0.0
1695948973624,-0.69140625,0.1953125,0.09863281,18.09375,-24.75,-18.28125,0.0,0.0,0.0
1695948973654,-0.73535156,0.17773438,0.103515625,3.8125,8.375,-24.46875,0.0,0.0,0.0
1695948973689,-0.5878906,0.2783203,0.15917969,23.28125,35.90625,-26.15625,0.0,0.0,0.0
1695948973745,-0.6484375,0.28320312,0.5546875,3.625,84.4375,-11.34375,0.0,0.0,0.0
1695948973774,-1.2373047,-0.15820312,0.87402344,4.1875,67.46875,-9.625,0.0,0.0,0.0
1695948973804,-1.2265625,0.3857422,0.18261719,-49.15625,13.15625,-15.3125,0.0,0.0,0.0
1695948973864,-1.0078125,0.015625,-0.2578125,11.5625,31.625,-40.5,0.0,0.0,0.0
1695948973895,-0.6044922,0.46484375,0.32617188,14.6875,9.59375,-14.6875,0.0,0.0,0.0
1695948973953,-1.2412109,-0.46484375,-0.2919922,-41.46875,71.625,9.0,-31.1875,6.8125,16.1875
1695948973984,-1.0234375,-0.15527344,-0.056640625,12.90625,20.96875,-2.78125,0.0,0.0,0.0
1695948974014,-0.93847656,0.103515625,-0.001953125,11.5625,31.9375,-9.25,0.0,0.0,0.0
1695948974044,-0.9482422,0.020507812,-0.091796875,-28.15625,47.625,-0.21875,0.0,0.0,0.0
1695948974107,-0.9736328,-0.041015625,-0.0146484375,-13.28125,39.28125,4.0,0.0,0.0,0.0
1695948974134,-1.0234375,-0.044921875,0.016601562,0.21875,32.6875,7.46875,0.0,0.0,0.0
1695948974163,-1.0351562,-0.047851562,0.22753906,2.1875,28.84375,6.84375,0.0,0.0,0.0
1695948974223,-0.9794922,0.05078125,0.31347656,-7.46875,23.53125,4.71875,0.0,0.0,0.0
1695948974255,-1.0009766,-0.12402344,0.31054688,5.84375,2.84375,11.25,0.0,0.0,0.0
1695948974284,-1.0097656,0.013671875,0.23925781,16.09375,-29.75,17.71875,0.0,0.0,0.0
1695948974344,-1.3574219,0.040039062,0.021484375,41.78125,-77.3125,19.90625,0.0,0.0,0.0
1695948974374,-1.2548828,0.43554688,0.30664062,50.6875,-119.84375,35.65625,0.0,0.0,0.0
1695948974405,-1.1933594,0.21972656,-0.076171875,-17.0,-135.21875,47.625,0.0,0.0,0.0
1695948974464,-1.1123047,0.2578125,-0.22167969,-34.03125,-89.46875,23.8125,-32.0625,9.8125,17.375
1695948974498,-0.9794922,0.0,0.23046875,68.15625,-50.6875,-18.96875,0.0,0.0,0.0
1695948974524,-0.79003906,-0.046875,0.115234375,46.59375,-43.9375,-18.65625,0.0,0.0,0.0
1695948974584,-0.69140625,0.18457031,0.091796875,33.84375,-19.8125,-20.5625,0.0,0.0,0.0
1695948974614,-0.76953125,0.26367188,0.11035156,11.75,4.59375,-26.28125,0.0,0.0,0.0
1695948974644,-0.67089844,0.25585938,0.16308594,-2.59375,35.40625,-34.71875,0.0,0.0,0.0
1695948974704,-0.75683594,0.22851562,0.42285156,6.3125,58.125,-17.25,0.0,0.0,0.0
1695948974735,-1.1015625,0.01171875,0.6845703,0.28125,37.875,-13.40625,0.0,0.0,0.0
1695948974764,-0.9199219,0.14257812,0.45214844,-1.3125,-3.21875,-16.875,0.0,0.0,0.0
1695948974824,-1.1474609,0.12207031,0.06347656,-14.1875,6.75,-13.40625,0.0,0.0,0.0
1695948974857,-0.95214844,0.16015625,-0.11035156,-56.71875,44.8125,-21.59375,0.0,0.0,0.0
1695948974884,-0.80078125,0.45117188,0.0048828125,-44.03125,41.65625,-11.34375,0.0,0.0,0.0
1695948974943,-1.1865234,-0.18554688,-0.047851562,-34.625,75.59375,13.8125,-33.75,7.5625,16.4375
1695948974974,-1.1494141,-0.3125,-0.12695312,-12.84375,47.09375,3.4375,0.0,0.0,0.0
1695948975005,-0.8964844,0.20703125,0.022460938,6.03125,40.125,-14.25,0.0,0.0,0.0
1695948975064,-0.97558594,0.03515625,-0.08984375,-54.09375,47.03125,5.03125,0.0,0.0,0.0
1695948975093,-1.0458984,-0.11035156,0.03515625,-20.21875,28.71875,12.65625,0.0,0.0,0.0
1695948975154,-1.0332031,-0.10839844,0.06933594,-15.78125,22.90625,4.21875,0.0,0.0,0.0
1695948975184,-1.0292969,-0.12402344,0.1875,-6.5625,24.3125,2.75,0.0,0.0,0.0
1695948975213,-0.96875,-0.020507812,0.29296875,-12.84375,28.28125,1.4375,0.0,0.0,0.0
1695948975245,-1.0654297,-0.09375,0.359375,2.65625,4.53125,13.625,0.0,0.0,0.0
1695948975305,-1.0820312,0.032226562,0.025390625,9.6875,-45.5,15.8125,0.0,0.0,0.0
1695948975334,-1.3876953,0.19140625,0.24804688,41.46875,-82.1875,19.6875,0.0,0.0,0.0
1695948975364,-1.2841797,0.3828125,0.28222656,-31.21875,-134.0,28.59375,0.0,0.0,0.0
1695948975425,-1.0820312,0.25878906,0.03125,12.96875,-158.3125,43.46875,0.0,0.0,0.0
1695948975455,-1.078125,0.009765625,-0.33496094,-0.03125,-70.46875,11.1875,-31.0,8.1875,21.125
1695948975486,-1.0058594,-0.041992188,0.25097656,66.375,-74.0625,4.65625,0.0,0.0,0.0
1695948975544,-0.7441406,0.18652344,0.07910156,43.6875,-59.1875,-0.65625,0.0,0.0,0.0
1695948975604,-0.70996094,0.20703125,0.12207031,18.53125,-18.15625,-13.84375,0.0,0.0,0.0
1695948975607,-0.7558594,0.18261719,0.10058594,-7.34375,14.125,-26.78125,0.0,0.0,0.0
1695948975663,-0.6123047,0.265625,0.19726562,4.1875,40.5,-31.53125,0.0,0.0,0.0
1695948975694,-0.80371094,0.068359375,0.5234375,3.09375,68.5625,-13.46875,0.0,0.0,0.0
1695948975724,-1.0488281,0.030273438,0.765625,33.78125,29.1875,-18.71875,0.0,0.0,0.0
1695948975784,-0.73339844,0.203125,0.13476562,-23.59375,-3.28125,-22.0,0.0,0.0,0.0
1695948975814,-1.4306641,0.55078125,-0.38085938,-133.625,93.96875,2.75,0.0,0.0,0.0
1695948975845,-1.3574219,-0.07714844,0.76464844,-20.46875,40.25,-35.75,0.0,0.0,0.0
1695948975905,-0.73535156,0.3310547,-0.37109375,-37.8125,30.1875,28.03125,0.0,0.0,0.0
1695948975934,-1.2783203,-0.58203125,-0.11230469,-33.40625,73.8125,-9.625,-33.5625,4.25,16.625
1695948975964,-0.9453125,0.16601562,0.15039062,6.125,35.71875,-23.125,0.0,0.0,0.0
1695948976055,-0.9472656,0.23242188,0.072265625,-28.84375,36.6875,-10.96875,0.0,0.0,0.0
1695948976058,-0.9785156,-0.05078125,-0.11621094,-65.9375,33.28125,4.0,0.0,0.0,0.0
1695948976085,-1.0214844,-0.07519531,0.01953125,-26.875,23.46875,3.625,0.0,0.0,0.0
1695948976143,-1.0048828,-0.08984375,0.09082031,-20.28125,23.53125,2.09375,0.0,0.0,0.0
1695948976174,-1.0410156,-0.12109375,0.16503906,-9.125,18.15625,6.71875,0.0,0.0,0.0
1695948976204,-0.99609375,-0.056640625,0.32714844,2.65625,20.96875,3.9375,0.0,0.0,0.0
1695948976264,-1.0644531,-0.05859375,0.21289062,1.6875,14.25,9.0,0.0,0.0,0.0
1695948976294,-1.0546875,0.0859375,0.20605469,14.625,-10.53125,19.5625,0.0,0.0,0.0
1695948976324,-0.9921875,0.12890625,0.10546875,10.09375,-32.28125,25.40625,0.0,0.0,0.0
1695948976391,-1.21875,0.16210938,0.421875,31.90625,-72.375,36.34375,0.0,0.0,0.0
1695948976414,-1.3525391,0.083984375,0.22363281,29.75,-158.4375,49.34375,0.0,0.0,0.0
1695948976475,-1.1611328,0.23144531,-0.3017578,-17.71875,-137.625,27.90625,-33.5625,5.625,16.0
1695948976506,-1.1044922,0.107421875,0.1015625,41.53125,-70.78125,-2.375,0.0,0.0,0.0
1695948976533,-1.0488281,-0.03125,0.16992188,51.0625,-54.46875,-34.15625,0.0,0.0,0.0
1695948976565,-0.765625,0.12988281,0.030273438,42.46875,-48.25,-32.4375,0.0,0.0,0.0
1695948976624,-0.8251953,0.26660156,0.09277344,42.46875,-31.71875,-27.375,0.0,0.0,0.0
1695948976655,-0.69628906,0.3935547,0.1640625,15.1875,-0.90625,-28.3125,0.0,0.0,0.0
1695948976684,-0.62597656,0.27539062,0.13867188,14.5625,33.53125,-23.46875,0.0,0.0,0.0
1695948976746,-0.56933594,0.34960938,0.4296875,2.0,69.46875,-8.40625,0.0,0.0,0.0
1695948976774,-1.0888672,-0.2109375,0.70214844,-17.34375,78.4375,-17.1875,0.0,0.0,0.0
1695948976804,-0.7578125,0.26367188,0.38378906,-53.25,22.40625,-16.28125,0.0,0.0,0.0
1695948976864,-1.8349609,-0.15332031,-0.033203125,-29.875,77.65625,11.1875,0.0,0.0,0.0
1695948976895,-0.70996094,0.028320312,-0.115234375,-67.53125,77.21875,-61.75,0.0,0.0,0.0
1695948976955,-1.0507812,-0.0087890625,-0.087890625,-2.34375,58.4375,17.09375,-33.75,3.375,14.375
1695948976984,-0.9433594,-0.0087890625,0.0859375,-4.40625,64.03125,-11.09375,0.0,0.0,0.0
1695948977014,-0.9453125,0.21191406,-0.020507812,-49.34375,51.34375,-2.78125,0.0,0.0,0.0
1695948977044,-1.0058594,-0.13378906,-0.09472656,-39.625,28.46875,-5.65625,0.0,0.0,0.0
1695948977135,-1.0205078,-0.057617188,0.17480469,-18.59375,18.6875,4.65625,0.0,0.0,0.0
1695948977139,-0.9892578,-0.11230469,0.009765625,-18.15625,12.78125,5.09375,0.0,0.0,0.0
1695948977163,-0.9980469,-0.13183594,0.09667969,8.9375,14.375,8.1875,0.0,0.0,0.0
1695948977224,-1.0175781,-0.059570312,0.23730469,13.28125,19.6875,7.40625,0.0,0.0,0.0
1695948977255,-0.9765625,-0.07714844,0.26757812,17.96875,15.03125,6.96875,0.0,0.0,0.0
1695948977284,-1.0019531,-0.026367188,0.32617188,26.90625,-3.53125,15.21875,0.0,0.0,0.0
1695948977345,-1.1474609,-0.018554688,0.20605469,34.15625,-33.1875,21.5,0.0,0.0,0.0
1695948977374,-1.3613281,0.19824219,0.16015625,37.09375,-110.5625,26.75,0.0,0.0,0.0
1695948977404,-1.2529297,0.44433594,0.125,28.1875,-155.3125,51.71875,0.0,0.0,0.0
1695948977465,-1.1416016,0.21875,-0.18457031,-42.4375,-141.21875,51.15625,-33.5625,6.6875,16.625
1695948977494,-1.3183594,0.0068359375,0.10644531,-21.4375,-74.8125,12.78125,0.0,0.0,0.0
1695948977524,-0.95214844,-0.18945312,0.10546875,43.375,-48.875,-39.09375,0.0,0.0,0.0
1695948977584,-0.7753906,0.11035156,0.0390625,71.1875,-69.875,-16.53125,0.0,0.0,0.0
1695948977614,-0.58496094,0.28808594,0.09667969,52.96875,-34.03125,-15.125,0.0,0.0,0.0
1695948977644,-0.7011719,0.28710938,0.11230469,-1.1875,6.1875,-18.46875,0.0,0.0,0.0
1695948977704,-0.65527344,0.32421875,0.19628906,-0.6875,42.3125,-24.875,0.0,0.0,0.0
1695948977734,-0.79296875,0.14550781,0.5361328,-9.0625,77.71875,-12.90625,0.0,0.0,0.0
1695948977765,-1.1962891,0.021484375,0.7451172,5.09375,51.84375,-14.3125,0.0,0.0,0.0
1695948977823,-0.7792969,0.20898438,0.35253906,-22.125,3.1875,-14.375,0.0,0.0,0.0
1695948977884,-1.7958984,-0.051757812,-0.36816406,-75.21875,67.65625,2.03125,0.0,0.0,0.0
1695948977887,-0.9394531,0.028320312,0.47851562,-114.28125,47.25,-72.90625,0.0,0.0,0.0
1695948977945,-0.6113281,0.42871094,-0.3330078,15.40625,9.40625,43.40625,-32.8125,2.5,16.625
1695948977974,-1.4638672,-0.74316406,0.09667969,3.6875,80.96875,-4.8125,0.0,0.0,0.0
1695948978003,-0.9423828,0.05859375,-0.020507812,-18.8125,28.78125,-17.8125,0.0,0.0,0.0
1695948978065,-0.9355469,0.10058594,0.047851562,7.96875,35.78125,-2.78125,0.0,0.0,0.0
1695948978094,-0.9609375,-0.053710938,-0.15039062,-41.65625,48.96875,8.4375,0.0,0.0,0.0
1695948978124,-1.0185547,-0.064453125,-0.0146484375,-13.5,43.21875,8.5,0.0,0.0,0.0
1695948978185,-1.0283203,-0.07714844,0.1328125,-1.5,38.90625,8.125,0.0,0.0,0.0
1695948978214,-0.96777344,-9.765625E-4,0.31347656,-12.65625,35.1875,1.53125,0.0,0.0,0.0
1695948978244,-1.0166016,-0.056640625,0.3701172,-5.9375,16.5625,8.1875,0.0,0.0,0.0
1695948978305,-0.98339844,0.0068359375,0.16113281,0.84375,-24.625,13.9375,0.0,0.0,0.0
1695948978334,-1.3193359,0.053710938,0.13769531,42.46875,-68.40625,26.875,0.0,0.0,0.0
1695948978365,-1.3017578,0.3466797,0.15722656,26.65625,-114.125,26.9375,0.0,0.0,0.0
1695948978425,-1.2324219,0.37109375,0.09472656,48.125,-172.78125,55.875,0.0,0.0,0.0
1695948978456,-1.1289062,0.14550781,-0.25683594,-78.40625,-102.03125,31.9375,-31.75,6.6875,17.375
1695948978483,-1.1582031,-0.05859375,0.16308594,22.625,-62.71875,-7.3125,0.0,0.0,0.0
1695948978544,-0.7763672,-0.033203125,0.056640625,56.0,-66.25,-9.5625,0.0,0.0,0.0
1695948978579,-0.65722656,0.13085938,0.12695312,25.84375,-34.21875,-16.03125,0.0,0.0,0.0
1695948978603,-0.6542969,0.21582031,0.11328125,15.90625,-3.15625,-25.1875,0.0,0.0,0.0
1695948978664,-0.67578125,0.22460938,0.15429688,5.21875,38.84375,-38.375,0.0,0.0,0.0
1695948978696,-0.6230469,0.27441406,0.46777344,14.5625,67.09375,-24.53125,0.0,0.0,0.0
1695948978725,-1.1865234,0.02734375,0.7841797,-0.09375,63.1875,-11.40625,0.0,0.0,0.0
1695948978786,-0.6230469,0.16796875,0.30859375,-5.09375,5.34375,-25.4375,0.0,0.0,0.0
1695948978814,-1.8681641,0.11230469,-0.47460938,-120.15625,100.1875,1.0,0.0,0.0,0.0
1695948978844,-0.6816406,0.171875,0.39648438,-46.78125,37.5,-57.21875,0.0,0.0,0.0
1695948978904,-1.0898438,0.0625,0.017578125,16.03125,45.3125,24.0,0.0,0.0,0.0
1695948978965,-1.0458984,-0.18554688,-0.15625,-9.65625,53.90625,-7.96875,-33.5625,2.5,14.9375
1695948978968,-0.9560547,0.10058594,0.0029296875,2.0625,30.0,-9.625,0.0,0.0,0.0
1695948979024,-0.9316406,0.11328125,0.029296875,-31.65625,45.5,-3.03125,0.0,0.0,0.0
1695948979058,-0.99121094,-0.1328125,-0.111328125,-38.65625,45.1875,3.0,0.0,0.0,0.0
1695948979114,-0.9921875,-0.041992188,0.0234375,-8.03125,33.78125,6.5625,0.0,0.0,0.0
1695948979144,-1.0078125,-0.06738281,0.14746094,8.40625,31.875,7.15625,0.0,0.0,0.0
1695948979174,-0.98046875,-0.01171875,0.27539062,-8.09375,29.0625,4.28125,0.0,0.0,0.0
1695948979258,-1.0419922,-0.07519531,0.39257812,-2.15625,12.78125,8.6875,0.0,0.0,0.0
1695948979268,-0.9453125,0.0048828125,0.2705078,11.625,-24.46875,13.6875,0.0,0.0,0.0
1695948979293,-1.4482422,-0.0107421875,0.33789062,73.78125,-77.90625,36.46875,0.0,0.0,0.0
1695948979324,-1.2841797,0.50097656,0.060546875,50.75,-127.78125,31.5625,0.0,0.0,0.0
1695948979385,-1.2451172,0.32226562,-0.0625,-16.8125,-154.40625,52.875,0.0,0.0,0.0
1695948979414,-1.2578125,0.20019531,-0.07714844,-14.96875,-109.90625,45.5,0.0,0.0,0.0
1695948979474,-1.1884766,-0.001953125,0.09863281,1.9375,-41.125,-16.71875,-28.9375,7.75,21.4375
1695948979504,-0.8955078,-0.078125,-0.0234375,28.53125,-50.5625,-25.4375,0.0,0.0,0.0
1695948979534,-0.59765625,0.16015625,0.08105469,48.625,-38.4375,-29.78125,0.0,0.0,0.0
1695948979564,-0.5996094,0.29589844,0.1484375,24.9375,-5.59375,-16.15625,0.0,0.0,0.0
1695948979624,-0.6660156,0.2919922,0.15234375,-18.59375,43.59375,-30.125,0.0,0.0,0.0
1695948979654,-0.7050781,0.23046875,0.45996094,-16.5,69.34375,-15.53125,0.0,0.0,0.0
1695948979683,-1.1621094,0.06347656,0.7529297,-5.28125,57.5625,-15.0,0.0,0.0,0.0
1695948979744,-0.8466797,0.22265625,0.22167969,-34.5,7.28125,-14.875,0.0,0.0,0.0
1695948979773,-1.640625,-0.1484375,-0.18945312,-91.8125,57.75,-14.9375,0.0,0.0,0.0
1695948979804,-0.78125,-0.03125,0.34472656,-41.65625,59.34375,-46.5625,0.0,0.0,0.0
1695948979864,-1.0449219,-0.053710938,0.11328125,45.3125,57.75,18.8125,0.0,0.0,0.0
1695948979894,-1.0263672,-0.07421875,0.04296875,21.59375,46.21875,-4.3125,0.0,0.0,0.0
1695948979955,-0.91308594,0.23144531,0.06542969,-28.78125,43.90625,-13.65625,-34.625,2.5,12.875
1695948979984,-0.99121094,-0.08886719,-0.15332031,-56.1875,47.1875,3.5,0.0,0.0,0.0
1695948980014,-0.9863281,-0.099609375,-0.02734375,-29.375,33.65625,2.34375,0.0,0.0,0.0
1695948980044,-1.0087891,-0.0068359375,0.07519531,-13.5625,36.53125,3.375,0.0,0.0,0.0
1695948980104,-1.0341797,-0.099609375,0.1953125,-10.15625,32.90625,10.6875,0.0,0.0,0.0
1695948980163,-1.0019531,-0.03125,0.3125,-7.21875,29.9375,6.3125,0.0,0.0,0.0
1695948980165,-1.0097656,-0.078125,0.2841797,2.84375,11.625,11.875,0.0,0.0,0.0
1695948980225,-0.984375,-0.09765625,0.19824219,6.3125,-22.1875,14.78125,0.0,0.0,0.0
1695948980255,-1.2753906,0.018554688,0.25976562,80.84375,-61.25,23.28125,0.0,0.0,0.0
1695948980284,-1.359375,0.25683594,0.038085938,23.59375,-113.8125,21.6875,0.0,0.0,0.0
1695948980345,-1.2617188,0.43066406,0.2607422,17.96875,-171.78125,61.0625,0.0,0.0,0.0
1695948980374,-1.1298828,0.3203125,-0.14355469,-81.4375,-137.75,44.6875,0.0,0.0,0.0
1695948980404,-1.2148438,-0.076171875,-0.041015625,-10.15625,-66.1875,-4.1875,0.0,0.0,0.0
1695948980465,-0.9189453,-0.23828125,0.041015625,66.9375,-65.53125,-35.0625,-27.75,5.1875,21.5625
1695948980494,-0.6142578,0.10839844,0.09863281,92.625,-59.375,-8.84375,0.0,0.0,0.0
1695948980524,-0.6279297,0.28222656,0.203125,65.28125,-24.21875,-9.8125,0.0,0.0,0.0
1695948980585,-0.73046875,0.3154297,0.18457031,5.71875,18.21875,-29.34375,0.0,0.0,0.0
1695948980613,-0.56933594,0.37402344,0.2421875,-23.15625,57.53125,-36.3125,0.0,0.0,0.0
1695948980643,-0.76953125,0.18261719,0.5908203,-38.96875,99.625,-12.25,0.0,0.0,0.0
1695948980705,-1.3486328,-0.14355469,0.7402344,-21.9375,62.46875,-21.53125,0.0,0.0,0.0
1695948980734,-0.84277344,0.29785156,0.29785156,-32.0,-1.625,-19.8125,0.0,0.0,0.0
1695948980764,-1.3945312,0.1484375,0.10644531,-23.09375,70.46875,-4.6875,0.0,0.0,0.0
1695948980824,-0.5732422,0.42578125,-0.11230469,-55.75,68.0625,-35.875,0.0,0.0,0.0
1695948980853,-1.2841797,-0.40820312,-0.0107421875,-6.625,96.625,15.09375,0.0,0.0,0.0
1695948980883,-1.0537109,-0.2685547,-0.19824219,26.84375,61.71875,-10.90625,0.0,0.0,0.0
1695948980944,-0.8925781,0.38476562,0.15722656,2.53125,47.03125,-10.125,-35.6875,3.25,10.4375
1695948980976,-1.0390625,-0.083984375,-0.091796875,-68.125,43.96875,5.6875,0.0,0.0,0.0
1695948981006,-1.0107422,-0.19921875,-0.0390625,-14.1875,16.25,7.90625,0.0,0.0,0.0
1695948981063,-0.99316406,-0.12597656,0.052734375,-9.0625,19.90625,0.1875,0.0,0.0,0.0
1695948981094,-1.0039062,-0.037109375,0.16894531,20.375,16.25,11.4375,0.0,0.0,0.0
1695948981124,-0.97265625,-0.080078125,0.26660156,6.6875,22.65625,7.09375,0.0,0.0,0.0
1695948981183,-1.0,-0.02734375,0.31835938,5.59375,12.09375,9.34375,0.0,0.0,0.0
1695948981214,-1.0703125,0.04296875,0.26953125,24.03125,-32.9375,24.25,0.0,0.0,0.0
1695948981244,-1.4824219,0.13671875,0.17578125,42.53125,-105.9375,33.21875,0.0,0.0,0.0
1695948981304,-1.203125,0.45996094,0.27246094,36.28125,-181.75,46.15625,0.0,0.0,0.0
1695948981335,-1.1308594,0.2548828,-0.3095703,-63.1875,-149.21875,47.3125,0.0,0.0,0.0
1695948981365,-1.3007812,-0.08496094,0.08984375,18.28125,-73.15625,22.84375,0.0,0.0,0.0
1695948981425,-0.9794922,-0.07519531,0.07714844,26.9375,-60.96875,-15.78125,0.0,0.0,0.0
1695948981453,-0.7421875,0.07324219,0.022460938,57.90625,-49.65625,-14.1875,-26.5,7.25,23.375
1695948981484,-0.6669922,0.1875,0.09667969,71.3125,-29.09375,-18.21875,0.0,0.0,0.0
1695948981544,-0.6660156,0.29003906,0.22265625,17.84375,16.0,-27.1875,0.0,0.0,0.0
1695948981574,-0.6845703,0.31835938,0.17578125,-21.8125,61.375,-36.65625,0.0,0.0,0.0
1695948981610,-0.68652344,0.21777344,0.4404297,-15.90625,85.65625,-12.3125,0.0,0.0,0.0
1695948981664,-1.2568359,0.043945312,0.7294922,-2.09375,58.90625,-13.53125,0.0,0.0,0.0
1695948981693,-0.8466797,0.1640625,0.45507812,1.0,18.15625,-20.5,0.0,0.0,0.0
1695948981724,-1.6552734,-0.091796875,0.048828125,-69.59375,49.40625,-17.9375,0.0,0.0,0.0
