,timestamp,accel_x,accel_y,accel_z,gyro_x,gyro_y,gyro_z
0,1697605965,0.05102539,-1.0422974,-0.085510254,5.828125,-52.53125,-6.921875
1,1697606005,0.12207031,-1.0042114,-0.021057129,5.171875,-56.984375,0.375
2,1697606045,0.1003418,-0.9678345,0.055847168,0.265625,-58.828125,-2.546875
3,1697606085,0.12670898,-0.9890747,0.13031006,2.625,-56.703125,-0.859375
4,1697606125,0.1508789,-0.92559814,0.05633545,-7.5625,-54.671875,1.625
5,1697606165,0.08520508,-0.86431885,0.03704834,-3.078125,-60.171875,-1.6875
6,1697606205,-0.038085938,-1.2119751,-0.17120361,-5.46875,-55.171875,-8.765625
7,1697606245,-0.26904297,-1.2310181,0.06439209,-0.09375,-42.5,-6.265625
8,1697606285,0.026611328,-1.1763306,0.14154053,-5.796875,-57.125,-9.625
9,1697606325,-0.047607422,-1.1170044,-0.004211426,-10.4375,-55.109375,-1.4375
10,1697606365,-0.1394043,-0.9434204,-0.039367676,-5.015625,-50.6875,-3.390625
11,1697606405,0.06567383,-0.87091064,-0.09429932,0.8125,-63.328125,-1.671875
12,1697606445,-0.08178711,-0.96221924,-0.08502197,1.578125,-71.5,0.34375
13,1697606485,-0.07836914,-0.9624634,-0.16778564,1.234375,-59.234375,4.203125
14,1697606525,-0.0014648438,-0.9944458,-0.20123291,1.84375,-67.8125,4.53125
15,1697606565,-0.055664062,-0.94976807,-0.057922363,-0.890625,-74.890625,5.921875
16,1697606605,-0.24511719,-0.9356079,0.042175293,-2.421875,-76.875,0.40625
17,1697606645,-0.15307617,-1.2407837,0.014587402,-2.859375,-73.375,-5.765625
18,1697606685,-0.056396484,-0.88531494,0.027770996,7.609375,-45.3125,1.28125
19,1697606725,0.052001953,-0.8374634,-0.11236572,-3.40625,-47.75,-5.171875
20,1697606765,0.0847168,-1.0645142,0.08856201,5.09375,-58.453125,-4.015625
21,1697606805,0.12939453,-1.0569458,0.018737793,-1.28125,-51.546875,-1.453125
22,1697606845,0.09692383,-1.0161743,0.038513184,0.8125,-52.765625,-1.5
23,1697606885,-0.033203125,-0.95684814,0.07635498,2.515625,-56.1875,-4.046875
24,1697606925,-0.2055664,-0.8833618,0.058532715,4.6875,-39.96875,-3.625
25,1697606965,-0.19018555,-0.88653564,-0.010803223,5.25,-13.140625,-5.390625
26,1697607005,-0.24023438,-1.1279907,-0.06036377,8.046875,-2.046875,-7.390625
27,1697607045,-0.030029297,-0.9663696,-0.22296143,8.421875,19.28125,-0.140625
28,1697607085,-0.20703125,-0.975647,0.04559326,9.90625,18.078125,10.703125
29,1697607125,-0.33691406,-1.0615845,-0.058654785,5.546875,33.375,7.03125
30,1697607165,-0.21972656,-1.1030884,-0.16290283,1.609375,46.78125,3.1875
31,1697607205,-0.16064453,-1.046936,-0.16949463,-2.359375,52.109375,2.671875
32,1697607245,-0.17626953,-0.942688,-0.1194458,-2.34375,53.046875,3.96875
33,1697607285,-0.21118164,-0.90948486,-0.14068604,0.421875,66.265625,3.65625
34,1697607325,-0.19946289,-0.8357544,-0.13433838,4.3125,68.859375,2.0625
35,1697607365,-0.23730469,-0.9873657,-0.1843872,-1.4375,71.578125,1.796875
36,1697607405,-0.21801758,-0.9849243,-0.15289307,-0.578125,67.71875,0.453125
37,1697607445,-0.040039062,-1.1531372,-0.117004395,-4.65625,45.15625,0.25
38,1697607485,0.10644531,-0.92144775,-0.15509033,-0.484375,50.671875,5.9375
39,1697607525,0.18530273,-0.8621216,-0.042053223,9.84375,56.390625,8.296875
40,1697607565,-0.06591797,-1.0427856,0.12371826,-5.703125,49.53125,1.40625
41,1697607605,-0.075683594,-1.1165161,-0.1453247,0.25,54.5,-0.359375
42,1697607645,0.07519531,-1.0740356,-0.011291504,-2.828125,52.921875,2.421875
43,1697607685,-0.043701172,-1.0032349,-0.03765869,-1.421875,52.140625,2.125
44,1697607725,0.0546875,-0.9146118,-0.1038208,4.421875,51.890625,4.15625
45,1697607765,0.088378906,-0.8809204,-0.11846924,6.34375,48.859375,2.703125
46,1697607805,0.05444336,-0.87701416,-0.07086182,7.125,51.921875,1.46875
47,1697607845,-0.12841797,-0.86505127,0.03387451,3.75,57.59375,-1.046875
48,1697607885,-0.2524414,-1.0252075,-0.14312744,6.296875,71.9375,-7.71875
49,1697607925,0.22460938,-1.0737915,-0.039123535,3.71875,14.265625,11.21875
50,1697607965,-0.15478516,-0.97540283,-0.04815674,-0.796875,56.984375,1.21875
51,1697608005,-0.22631836,-0.9812622,-0.10064697,-3.703125,60.640625,-0.71875
52,1697608045,-0.068847656,-0.942688,-0.082092285,-0.296875,51.890625,-0.640625
53,1697608085,-0.13012695,-0.9373169,-0.030578613,-0.90625,50.03125,1.59375
54,1697608125,-0.20629883,-0.99957275,-0.01739502,2.3125,48.8125,2.3125
55,1697608165,-0.14770508,-0.99298096,-0.042785645,2.9375,46.03125,2.015625
56,1697608205,-0.1887207,-0.9714966,-0.009338379,-0.984375,40.5,3.21875
57,1697608245,-0.20092773,-1.1585083,-0.17095947,0.28125,37.75,-4.609375
58,1697608285,0.19628906,-0.8189087,-0.20880127,10.34375,50.296875,3.921875
59,1697608325,-0.10913086,-1.1856079,0.21234131,-8.46875,25.859375,1.109375
60,1697608365,-0.014160156,-1.145813,-0.12579346,-4.171875,34.671875,-2.625
61,1697608405,0.119384766,-0.9397583,-0.027404785,-0.28125,33.375,-1.03125
62,1697608445,-0.01928711,-0.8921509,0.055358887,3.0,36.625,-1.640625
63,1697608485,-0.05053711,-0.8609009,0.022399902,6.328125,44.0625,-2.3125
64,1697608525,-0.20947266,-1.1084595,-0.117492676,9.015625,54.34375,-6.484375
65,1697608565,-0.17016602,-1.1245728,-0.2390747,11.421875,60.15625,-1.625
66,1697608605,-0.2241211,-0.9746704,-0.00079345703,0.359375,36.9375,5.640625
67,1697608645,-0.20141602,-1.0164185,-0.0022583008,2.625,43.0625,2.328125
68,1697608685,-0.23217773,-1.0188599,-0.039367676,1.984375,49.28125,4.703125
69,1697608725,-0.23901367,-0.9968872,-0.019592285,-4.46875,42.140625,1.546875
70,1697608765,-0.25268555,-0.95513916,-0.014709473,-3.203125,43.71875,-0.390625
71,1697608805,-0.2199707,-0.923645,-0.039123535,-3.203125,45.34375,-1.84375
72,1697608845,-0.20117188,-0.9524536,-0.0256958,-8.046875,42.75,-1.984375
73,1697608885,0.032470703,-1.0684204,-0.13922119,9.625,43.671875,2.4375
74,1697608925,-0.020996094,-0.8970337,0.05657959,2.453125,45.0,1.078125
75,1697608965,-0.118652344,-0.93048096,-0.008850098,1.0625,52.0625,5.921875
76,1697609005,0.048583984,-0.97369385,-0.09869385,3.921875,44.015625,4.140625
77,1697609045,0.053222656,-0.9067993,-0.043518066,3.984375,49.40625,1.84375
78,1697609085,-0.044433594,-1.0425415,0.051452637,6.671875,57.90625,-0.90625
79,1697609125,-0.1821289,-0.90631104,0.03363037,6.515625,69.59375,0.640625
80,1697609165,-0.14233398,-1.1714478,-0.1873169,8.0,67.34375,-2.15625
81,1697609205,0.061279297,-0.84332275,-0.1585083,9.234375,43.96875,11.34375
82,1697609245,-0.100097656,-1.0491333,-0.02960205,-1.546875,36.03125,7.4375
83,1697609285,-0.119140625,-1.0315552,-0.031066895,0.078125,38.421875,4.90625
84,1697609325,-0.22924805,-0.99053955,-0.04547119,2.453125,51.640625,4.8125
85,1697609365,-0.17553711,-0.975647,-0.066711426,-1.515625,55.078125,2.46875
86,1697609405,-0.21533203,-0.93585205,-0.04522705,3.03125,53.171875,-3.484375
87,1697609445,-0.18334961,-0.9944458,-0.07696533,1.0,50.59375,-4.578125
88,1697609485,-0.057617188,-0.94488525,-0.11016846,-6.984375,43.328125,-2.984375
89,1697609525,-0.014892578,-1.0772095,-0.18756104,-4.0625,22.890625,-5.953125
90,1697609565,0.111572266,-0.94659424,-0.059143066,3.296875,41.578125,2.453125
91,1697609605,0.08300781,-1.1629028,0.07733154,-5.09375,22.0625,3.65625
92,1697609645,-0.3100586,-1.0449829,0.18011475,-2.484375,38.1875,1.03125
93,1697609685,0.072753906,-1.0847778,-0.05230713,-2.890625,42.734375,0.84375
94,1697609725,-0.032714844,-0.927063,0.10394287,-2.578125,35.890625,4.53125
95,1697609765,-0.14697266,-0.9011841,0.027282715,-2.140625,48.90625,1.453125
96,1697609805,0.10131836,-0.9570923,-0.08502197,1.234375,48.109375,-0.203125
97,1697609845,-0.015625,-0.8989868,0.050720215,-0.5,56.3125,1.109375
98,1697609885,-0.21508789,-0.958313,0.12249756,1.125,73.96875,-3.609375
99,1697609925,-0.19116211,-1.0007935,-0.17388916,7.453125,80.984375,-5.75
100,1697609965,0.023925781,-1.0342407,-0.15826416,6.296875,59.890625,6.828125
101,1697610005,0.0029296875,-1.1099243,0.0138549805,-4.1875,31.3125,2.921875
102,1697610045,-0.20947266,-1.00177,-0.0037231445,1.015625,44.984375,4.9375
103,1697610085,-0.27856445,-0.9663696,0.0006713867,1.96875,59.671875,0.671875
104,1697610125,-0.19433594,-0.9319458,-0.01763916,-1.421875,52.34375,-3.234375
105,1697610165,-0.26831055,-0.93951416,0.008972168,0.140625,50.4375,-7.078125
106,1697610205,-0.19799805,-0.9846802,-0.07183838,-1.28125,49.75,-6.578125
107,1697610245,-0.13598633,-0.9636841,-0.015930176,-4.3125,39.5,-2.59375
108,1697610285,-0.1027832,-1.2478638,-0.1194458,-9.046875,22.59375,-4.453125
109,1697610325,0.015625,-0.87945557,-0.093811035,-0.046875,47.875,0.453125
110,1697610365,0.1274414,-0.9002075,0.0770874,4.15625,26.75,4.90625
111,1697610405,-0.09887695,-1.053772,0.22894287,-0.578125,30.890625,-2.296875
112,1697610445,-0.16625977,-1.1594849,0.028747559,6.53125,39.671875,-1.59375
113,1697610485,0.060058594,-1.0657349,0.04144287,2.109375,35.984375,0.5
114,1697610525,-0.08666992,-0.95758057,0.08001709,2.546875,41.078125,1.3125
115,1697610565,-0.044921875,-0.92193604,0.04046631,2.40625,43.671875,0.953125
116,1697610605,0.020996094,-0.92926025,-0.0032348633,3.828125,41.265625,-1.140625
117,1697610645,-0.0146484375,-0.9421997,-0.034973145,4.453125,42.53125,-2.578125
118,1697610685,0.0078125,-0.9273071,0.009216309,2.5625,45.03125,-2.921875
119,1697610725,-0.020996094,-1.0288696,0.051696777,-0.578125,41.15625,-8.15625
120,1697610765,-0.16186523,-1.0681763,-0.018615723,-5.859375,40.375,-10.5
121,1697610805,-0.024414062,-0.9048462,-0.12774658,6.375,34.578125,2.953125
122,1697610845,0.24291992,-1.0462036,-0.1326294,1.078125,-8.265625,9.03125
123,1697610885,-0.025146484,-1.112854,0.03753662,-9.75,-19.390625,4.21875
124,1697610925,-0.23852539,-1.1253052,0.09222412,0.375,-13.03125,7.96875
125,1697610965,-0.08911133,-0.9668579,0.008483887,1.40625,-5.953125,5.59375
126,1697611005,0.076416016,-0.928772,-0.089904785,6.015625,-31.625,2.515625
127,1697611045,0.0036621094,-0.9468384,-0.061584473,4.171875,-52.234375,1.515625
128,1697611085,-0.010009766,-0.9373169,-0.09454346,0.421875,-54.46875,3.9375
129,1697611125,-0.022705078,-0.96051025,-0.105529785,0.3125,-64.078125,4.015625
130,1697611165,-0.12036133,-0.99591064,-0.058898926,-1.140625,-76.9375,3.96875
131,1697611205,-0.047607422,-1.1887817,-0.07501221,0.71875,-88.015625,0.71875
132,1697611245,0.0087890625,-0.8406372,-0.00079345703,6.53125,-53.890625,0.921875
133,1697611285,0.017089844,-0.9805298,-0.09844971,9.890625,-73.90625,-3.8125
134,1697611325,0.0146484375,-1.0855103,-0.012023926,9.671875,-64.1875,-4.390625
135,1697611365,0.037841797,-1.0193481,-0.038635254,-0.25,-57.765625,-7.75
136,1697611405,-0.018554688,-1.0239868,0.06414795,5.390625,-56.453125,-8.375
137,1697611445,0.0690918,-1.0195923,0.085632324,-4.125,-56.546875,-9.140625
138,1697611485,0.17211914,-0.9483032,0.08734131,-3.078125,-58.3125,-4.78125
139,1697611525,0.10913086,-0.8880005,-0.034240723,-11.546875,-52.984375,-6.703125
140,1697611565,0.14111328,-1.1611938,0.023864746,-8.296875,-70.0625,-3.109375
141,1697611605,-0.34472656,-1.1680298,-0.04425049,-10.875,-42.578125,-0.21875
142,1697611645,-0.06567383,-0.9483032,-0.051086426,-4.65625,-40.8125,-2.671875
143,1697611685,-0.0107421875,-0.9158325,-0.033996582,0.703125,-64.546875,-2.484375
144,1697611725,-0.14624023,-0.97198486,-0.06378174,-0.234375,-57.625,1.0625
145,1697611765,-0.09741211,-0.9065552,-0.12554932,1.609375,-49.984375,2.765625
146,1697611805,-0.119384766,-0.94415283,-0.14312744,-0.1875,-52.28125,2.984375
147,1697611845,-0.18188477,-0.99542236,-0.07086182,1.0,-58.625,2.46875
148,1697611885,-0.22241211,-0.96417236,-0.03253174,-0.484375,-54.03125,2.28125
149,1697611925,0.01953125,-1.1192017,0.022155762,-8.265625,-66.265625,1.40625
150,1697611965,0.2565918,-1.0967407,-0.047912598,4.125,-79.40625,7.0625
151,1697612005,-0.18286133,-0.84454346,0.054626465,-0.015625,-38.453125,7.5625
152,1697612045,0.04638672,-1.0269165,-0.027893066,2.40625,-51.890625,-3.609375
153,1697612085,0.017822266,-1.0071411,0.007751465,2.765625,-47.4375,1.765625
154,1697612125,0.026611328,-0.94903564,0.027282715,-0.09375,-42.171875,-0.640625
155,1697612165,0.09057617,-1.0078735,0.07977295,0.796875,-46.5625,-0.75
156,1697612205,0.10424805,-0.99591064,0.0914917,-2.96875,-46.421875,1.40625
157,1697612245,0.125,-0.9421997,0.01727295,-2.765625,-46.984375,1.671875
158,1697612285,0.033447266,-0.9138794,0.016540527,-2.078125,-44.890625,-1.71875
159,1697612325,-0.05908203,-1.1519165,-0.01739502,-6.609375,-42.28125,-6.46875
160,1697612365,0.0048828125,-0.80255127,-0.19488525,1.8125,-27.109375,4.3125
161,1697612405,-0.21142578,-1.0049438,0.05999756,-0.609375,-29.5,-0.71875
162,1697612445,0.034179688,-1.0825806,-0.06719971,-4.015625,-36.6875,-2.109375
163,1697612485,0.026367188,-1.1467896,-0.012512207,-4.84375,-47.4375,2.859375
164,1697612525,-0.17089844,-1.0127563,0.02947998,0.953125,-40.046875,0.921875
165,1697612565,-0.028076172,-0.98931885,-0.028381348,-1.3125,-40.75,0.78125
166,1697612605,-0.03930664,-0.94854736,-0.06793213,1.28125,-53.40625,0.921875
167,1697612645,-0.083984375,-0.97052,-0.0869751,2.1875,-47.265625,1.375
168,1697612685,-0.064941406,-0.9607544,-0.07940674,-1.296875,-47.5625,1.65625
169,1697612725,-0.075683594,-0.95758057,-0.058898926,-2.625,-60.625,2.5625
170,1697612765,0.017822266,-1.1096802,0.03363037,-2.796875,-66.140625,-1.09375
171,1697612805,0.14013672,-1.0391235,-0.00982666,6.09375,-63.0625,8.25
172,1697612845,-0.06665039,-0.81622314,0.07244873,0.859375,-47.703125,5.890625
173,1697612885,0.12426758,-1.0037231,0.034851074,8.453125,-59.484375,-5.90625
174,1697612925,-0.02368164,-1.0752563,0.031433105,2.8125,-52.75,-2.09375
175,1697612965,0.017333984,-0.97247314,-0.0017700195,0.125,-44.890625,-4.21875
176,1697613005,0.03173828,-1.0117798,0.10345459,1.328125,-46.109375,-4.25
177,1697613045,0.08251953,-0.9717407,0.12567139,-2.28125,-47.90625,-2.125
178,1697613085,0.0859375,-0.94610596,0.07757568,-6.25,-48.453125,-2.453125
179,1697613125,0.025634766,-0.8858032,0.054626465,-6.265625,-44.359375,-4.84375
180,1697613165,-0.10546875,-1.161438,-0.0335083,-3.0625,-38.703125,-8.75
181,1697613205,0.0056152344,-0.8279419,-0.19830322,-5.3125,-24.609375,0.84375
182,1697613245,-0.13769531,-0.8128052,0.019714355,2.328125,-32.265625,5.09375
183,1697613285,0.009277344,-1.211731,0.009216309,-7.359375,-52.78125,-4.546875
184,1697613325,0.08129883,-1.2432251,-0.0115356445,-7.203125,-54.234375,4.609375
185,1697613365,-0.16845703,-1.0278931,0.01751709,-1.359375,-37.203125,5.484375
186,1697613405,0.013427734,-0.9649048,0.014343262,2.359375,-41.859375,4.578125
187,1697613445,0.0017089844,-0.9192505,-0.07183838,5.546875,-55.625,1.796875
188,1697613485,-0.068847656,-0.94903564,-0.101379395,4.203125,-55.09375,0.53125
189,1697613525,-0.052490234,-0.9368286,-0.09454346,3.921875,-55.328125,-0.484375
190,1697613565,-0.008300781,-0.99957275,-0.08477783,2.40625,-67.984375,-0.109375
191,1697613605,-0.072509766,-1.0740356,-0.015686035,-1.859375,-75.375,1.796875
192,1697613645,0.05493164,-1.1619263,-0.011047363,2.34375,-77.265625,1.96875
193,1697613685,0.060546875,-0.86968994,0.08856201,5.921875,-55.8125,11.078125
194,1697613725,-0.19311523,-0.7901001,0.011657715,-0.515625,-40.21875,-7.90625
195,1697613765,0.027832031,-1.09552,-0.03692627,9.84375,-48.703125,-9.34375
196,1697613805,-0.026123047,-0.9702759,0.034606934,3.203125,-47.21875,-4.546875
197,1697613845,0.060546875,-1.0562134,0.047546387,-1.75,-42.9375,-7.828125
198,1697613885,0.076660156,-1.0046997,0.09539795,-5.921875,-46.78125,-3.046875
199,1697613925,0.07104492,-0.9846802,0.1239624,-3.859375,-52.28125,-1.296875
200,1697613965,0.061035156,-0.8867798,0.062927246,-8.390625,-47.75,-1.9375
201,1697614005,-0.21972656,-1.0081177,0.12176514,-3.984375,-28.15625,0.703125
202,1697614045,0.08642578,-1.2168579,-0.027160645,-6.375,-60.90625,-5.015625
203,1697614085,0.034423828,-1.0628052,-0.12188721,-1.4375,-56.515625,10.59375
204,1697614125,-0.1315918,-0.96954346,-0.03765869,-2.15625,-44.515625,4.171875
205,1697614165,-0.035888672,-0.9199829,-0.038391113,6.9375,-54.5,2.75
206,1697614205,-0.06347656,-0.9937134,-0.1182251,6.8125,-60.21875,0.5625
207,1697614245,-0.14282227,-0.94537354,-0.073791504,5.015625,-53.3125,-0.40625
208,1697614285,-0.09350586,-0.9541626,-0.08892822,3.859375,-55.171875,-0.5
209,1697614325,-0.07104492,-1.0127563,-0.07159424,-3.78125,-67.796875,-0.46875
210,1697614365,0.021728516,-1.1121216,0.06536865,-7.640625,-77.390625,-0.46875
211,1697614405,0.12402344,-1.1541138,0.023620605,1.890625,-70.671875,8.015625
212,1697614445,-0.15258789,-0.7229614,-0.04425049,-4.28125,-38.421875,3.578125
213,1697614485,0.0847168,-0.96221924,0.028747559,11.9375,-58.484375,-5.796875
214,1697614525,0.017333984,-1.0342407,0.030944824,1.28125,-56.015625,-1.703125
215,1697614565,0.061767578,-0.97784424,-0.05645752,-1.90625,-45.765625,-3.328125
216,1697614605,0.087402344,-1.0352173,0.07220459,0.8125,-55.0625,-4.203125
217,1697614645,0.05078125,-0.9944458,0.14593506,-4.625,-52.25,-0.890625
218,1697614685,0.0769043,-0.86016846,0.07904053,-6.671875,-50.109375,-1.171875
219,1697614725,-0.056640625,-1.2366333,-0.019836426,-6.734375,-50.46875,-6.328125
220,1697614765,-0.03955078,-1.0252075,0.0368042,-0.71875,-35.96875,-0.125
221,1697614805,0.080078125,-1.2088013,0.007019043,-7.65625,-62.640625,-3.84375
222,1697614845,-0.09643555,-1.097229,-0.01763916,-1.90625,-45.4375,9.4375
223,1697614885,-0.11816406,-0.9678345,-0.037902832,0.6875,-38.734375,1.109375
224,1697614925,-0.016113281,-0.91485596,-0.0134887695,5.09375,-49.140625,0.265625
225,1697614965,-0.072021484,-0.9546509,-0.05621338,2.40625,-47.84375,1.265625
226,1697615005,-0.09326172,-0.9216919,-0.07110596,1.671875,-40.1875,2.28125
227,1697615045,0.014892578,-0.97125244,-0.08013916,-4.546875,-51.3125,1.875
228,1697615085,-0.03955078,-1.161438,-0.016418457,-4.265625,-67.375,1.84375
229,1697615125,0.080566406,-0.9627075,-0.037902832,0.015625,-49.84375,7.796875
230,1697615165,-0.048339844,-0.9104614,0.17767334,0.5,-33.40625,-1.203125
231,1697615205,-0.13867188,-1.071106,0.01751709,-1.546875,-25.390625,-5.53125
232,1697615245,-0.07006836,-1.0840454,0.029968262,-2.390625,-10.84375,-7.59375
233,1697615285,-0.0546875,-1.0479126,0.11566162,-4.140625,0.109375,-7.046875
234,1697615325,-0.028076172,-0.9636841,0.13763428,-4.890625,6.546875,-3.328125
235,1697615365,-0.010986328,-0.9331665,0.109558105,-3.578125,11.609375,-1.703125
236,1697615405,-0.037109375,-0.91070557,0.0692749,-0.765625,18.984375,-3.09375
237,1697615445,-0.030517578,-0.9002075,0.059509277,1.734375,31.59375,-3.421875
238,1697615485,-0.13378906,-1.0635376,0.055358887,2.4375,44.8125,-6.046875
239,1697615525,-0.0041503906,-1.0942993,-0.16680908,-2.015625,49.90625,-10.5
240,1697615565,-0.10229492,-0.97613525,0.012390137,9.375,44.640625,-0.609375
241,1697615605,-0.3088379,-0.97857666,0.019470215,1.875,52.78125,-6.4375
242,1697615645,-0.076660156,-1.0427856,-0.14361572,6.0,61.25,-3.03125
243,1697615685,0.076660156,-1.0037231,-0.11920166,-0.640625,40.609375,3.34375
244,1697615725,-0.16308594,-0.973938,-0.008361816,1.609375,42.375,2.109375
245,1697615765,-0.13476562,-0.9734497,-0.0635376,3.59375,55.859375,1.78125
246,1697615805,-0.12597656,-0.96417236,-0.07696533,2.640625,43.140625,0.0
247,1697615845,-0.23461914,-0.9680786,-0.011047363,3.40625,43.515625,-1.984375
248,1697615885,-0.17871094,-0.94610596,-0.034484863,1.15625,47.171875,-0.90625
249,1697615925,-0.11254883,-1.0374146,-0.02960205,-7.671875,38.28125,-1.34375
250,1697615965,0.064941406,-1.0545044,-0.1104126,-0.984375,21.9375,-5.515625
251,1697616005,0.07299805,-1.2305298,0.22650146,-9.390625,37.3125,-3.3125
252,1697616045,-0.2524414,-1.0650024,0.05731201,-9.125,52.5,-0.984375
253,1697616085,0.18188477,-1.0720825,-0.07232666,7.25,48.671875,-1.484375
254,1697616125,-0.014404297,-0.986145,0.17108154,-2.859375,48.3125,-4.1875
255,1697616165,0.045898438,-1.005188,0.018493652,-0.71875,52.984375,-0.109375
256,1697616205,0.104003906,-0.8887329,-0.034484863,2.21875,49.265625,-1.3125
257,1697616245,0.024414062,-0.8977661,0.08148193,6.765625,53.859375,-4.765625
258,1697616285,-0.08959961,-0.9397583,0.062927246,4.265625,61.34375,-6.0
259,1697616325,-0.23046875,-1.0986938,-0.11578369,3.640625,66.15625,-10.3125
260,1697616365,-0.07080078,-0.93536377,0.097351074,1.390625,48.1875,0.765625
261,1697616405,-0.19482422,-0.99176025,-0.026184082,2.515625,51.984375,-1.5625
262,1697616445,-0.20483398,-1.0093384,-0.06842041,2.875,55.390625,-0.40625
263,1697616485,-0.17236328,-0.9819946,-0.070373535,0.15625,52.703125,-1.875
264,1697616525,-0.14794922,-0.9505005,-0.016906738,0.0,45.109375,-0.578125
265,1697616565,-0.2055664,-0.9663696,-0.03741455,-0.546875,47.34375,-0.265625
266,1697616605,-0.17529297,-0.97491455,-0.057434082,0.625,44.625,-1.078125
267,1697616645,-0.17260742,-1.0010376,-0.047668457,-0.65625,43.125,-0.546875
268,1697616685,-0.14379883,-0.9524536,-0.027648926,-2.53125,40.359375,1.546875
269,1697616725,-0.23486328,-0.95880127,-0.024963379,-3.0625,44.125,-1.046875
270,1697616765,-0.20361328,-1.1484985,-0.1104126,-2.8125,36.78125,-6.21875
271,1697616805,0.014404297,-0.9338989,-0.020080566,0.921875,43.109375,-0.375
272,1697616845,0.10058594,-0.8657837,-0.0037231445,3.171875,29.984375,1.765625
273,1697616885,0.2043457,-0.90167236,0.066345215,12.09375,6.8125,4.5
274,1697616925,-0.12573242,-1.2324829,0.1630249,-1.578125,23.75,-4.125
275,1697616965,-0.025146484,-1.1536255,0.08123779,-2.21875,34.28125,-1.953125
276,1697617005,-0.083496094,-0.92510986,0.07977295,6.6875,34.453125,1.109375
277,1697617045,0.061767578,-1.036438,-0.0037231445,11.796875,46.0,-2.109375
278,1697617085,0.056640625,-1.006897,0.018737793,7.640625,47.234375,1.484375
279,1697617125,-0.26049805,-1.0630493,-0.13043213,2.78125,57.8125,-1.796875
280,1697617165,-0.104003906,-0.98443604,-0.21954346,11.546875,53.84375,0.4375
281,1697617205,-0.11767578,-0.94073486,-0.02960205,6.734375,45.046875,8.28125
282,1697617245,-0.18457031,-0.9763794,-0.108947754,1.234375,43.296875,5.484375
283,1697617285,-0.1394043,-1.0974731,-0.03302002,-5.328125,31.609375,5.1875
284,1697617325,-0.23266602,-1.0137329,0.0036010742,-3.90625,35.71875,7.203125
285,1697617365,-0.23803711,-0.98272705,0.002380371,-0.296875,42.453125,6.421875
286,1697617405,-0.26611328,-0.95196533,-0.047912598,-3.625,41.8125,3.59375
287,1697617445,-0.24389648,-0.92926025,-0.032043457,-1.046875,39.5625,0.609375
288,1697617485,-0.18334961,-0.96051025,-0.037902832,-1.1875,38.6875,0.765625
289,1697617525,-0.11450195,-1.0872192,-0.14923096,-8.515625,25.0625,-1.71875
290,1697617565,0.028076172,-0.8928833,-0.14996338,-1.046875,26.9375,-2.71875
291,1697617605,-0.015380859,-1.1983032,0.14984131,-3.8125,19.453125,-1.296875
292,1697617645,-0.22485352,-1.2124634,0.07733154,-0.015625,32.96875,3.4375
293,1697617685,0.03466797,-1.0776978,-0.020568848,-1.671875,37.859375,3.4375
294,1697617725,-0.075927734,-0.93707275,0.06951904,-2.46875,38.828125,4.640625
295,1697617765,-0.022460938,-0.90460205,0.012878418,0.484375,39.25,3.21875
296,1697617805,-0.024414062,-0.94317627,-0.04498291,0.984375,43.5,1.9375
297,1697617845,0.05517578,-0.94000244,-0.074523926,2.140625,47.078125,2.90625
298,1697617885,0.04345703,-0.93170166,-0.030334473,1.125,49.046875,1.640625
299,1697617925,-0.021240234,-0.9495239,0.08343506,1.328125,55.328125,-0.65625
300,1697617965,-0.14038086,-0.9121704,-0.011047363,-0.34375,61.171875,-5.203125
301,1697618005,0.064453125,-0.8933716,-0.109436035,7.78125,42.78125,5.6875
302,1697618045,-0.2536621,-0.89385986,0.0038452148,1.46875,57.265625,8.59375
303,1697618085,-0.07885742,-1.0352173,-0.1765747,0.75,52.328125,-0.53125
304,1697618125,-0.18115234,-1.0120239,-0.08331299,5.3125,52.71875,2.8125
305,1697618165,-0.09667969,-0.9890747,-0.11212158,0.15625,57.125,3.75
306,1697618205,-0.12548828,-0.9282837,-0.08331299,-0.1875,50.0625,2.21875
307,1697618245,-0.16113281,-0.940979,-0.07965088,0.46875,45.53125,0.390625
308,1697618285,-0.1730957,-0.87091064,-0.07281494,-0.578125,41.546875,1.1875
309,1697618325,-0.08642578,-1.1306763,-0.25152588,-3.765625,24.0,-2.96875
310,1697618365,-0.01928711,-0.9451294,-0.13287354,6.0,44.078125,-1.109375
311,1697618405,0.19042969,-1.1050415,-0.01763916,0.703125,44.96875,8.359375
312,1697618445,-0.17211914,-1.0903931,-0.004211426,-0.703125,51.8125,1.75
313,1697618485,0.11401367,-1.0630493,-0.014709473,0.09375,50.5,1.71875
314,1697618525,-0.014160156,-0.9619751,0.003112793,-1.953125,50.171875,5.71875
315,1697618565,-0.04663086,-0.9014282,-0.008117676,2.96875,53.34375,4.109375
316,1697618605,0.059326172,-0.89630127,-0.09185791,4.84375,57.8125,2.484375
317,1697618645,0.08520508,-0.9055786,-0.031555176,3.390625,57.28125,1.28125
318,1697618685,0.033203125,-0.96539307,0.042175293,1.046875,58.296875,-2.109375
319,1697618725,-0.083984375,-1.0171509,-0.019836426,-1.65625,59.4375,-4.671875
320,1697618765,-0.28100586,-1.1133423,-0.15875244,6.3125,64.515625,-8.890625
321,1697618805,0.080566406,-0.9507446,-0.20245361,8.8125,53.3125,4.21875
322,1697618845,-0.1616211,-0.95098877,0.0060424805,-7.75,52.953125,9.953125
323,1697618885,-0.05493164,-1.0471802,-0.16168213,0.234375,45.40625,3.828125
324,1697618925,-0.2006836,-0.99053955,-0.078430176,1.59375,52.296875,4.78125
325,1697618965,-0.08496094,-1.0130005,-0.0869751,-0.25,61.515625,3.4375
326,1697619005,-0.19262695,-0.93096924,-0.04888916,0.65625,54.453125,1.71875
327,1697619045,-0.2631836,-0.96710205,-0.09698486,0.046875,55.46875,-3.59375
328,1697619085,-0.16015625,-0.9229126,-0.09112549,2.9375,52.0625,-2.53125
329,1697619125,-0.060546875,-1.0515747,-0.2263794,-5.515625,35.640625,-1.890625
330,1697619165,0.084472656,-0.98272705,-0.18682861,3.484375,32.21875,-4.21875
331,1697619205,0.09790039,-0.96661377,-0.0049438477,8.96875,43.015625,4.625
332,1697619245,-0.1274414,-1.0674438,0.039001465,0.0,43.8125,0.375
333,1697619285,-0.044921875,-1.1646118,0.011413574,-4.53125,54.125,0.5
334,1697619325,0.08666992,-1.0962524,-0.018615723,-4.5625,50.140625,1.9375
335,1697619365,0.044677734,-0.9727173,0.047790527,-5.40625,46.484375,6.03125
336,1697619405,-0.012207031,-0.928772,0.016052246,-2.890625,43.0,2.78125
337,1697619445,-0.0026855469,-0.9187622,-0.034973145,-0.609375,40.875,-1.953125
338,1697619485,0.103271484,-0.90093994,-0.062805176,0.546875,36.296875,-2.484375
339,1697619525,0.14013672,-0.99298096,-0.0064086914,0.09375,26.890625,-3.984375
340,1697619565,-0.016357422,-1.0186157,-0.018859863,-0.8125,22.65625,-4.625
341,1697619605,-0.05883789,-1.0513306,-0.13677979,2.46875,15.390625,-4.640625
342,1697619645,0.15625,-0.87457275,-0.18511963,2.0,2.484375,10.65625
343,1697619685,-0.026123047,-1.0645142,-0.049865723,-4.6875,-35.140625,1.3125
344,1697619725,-0.095214844,-1.0999146,-0.05645752,-1.171875,-38.0625,-2.328125
345,1697619765,-0.15576172,-1.06427,-0.024230957,-4.90625,-31.875,2.671875
346,1697619805,-0.12060547,-0.9998169,-0.026672363,-0.703125,-29.546875,-0.71875
347,1697619845,-0.07543945,-0.9470825,-0.093811035,0.875,-38.890625,-1.671875
348,1697619885,0.005859375,-0.9102173,-0.13287354,3.984375,-52.515625,-3.734375
349,1697619925,-0.076660156,-0.95562744,-0.10821533,5.859375,-60.578125,-2.15625
350,1697619965,-0.0637207,-1.0007935,-0.13238525,4.140625,-63.421875,0.140625
351,1697620005,-0.07714844,-0.99420166,-0.15093994,2.046875,-68.78125,3.578125
352,1697620045,-0.12475586,-0.9800415,-0.0881958,-1.1875,-67.25,4.546875
353,1697620085,-0.045166016,-1.0164185,-0.1560669,-0.078125,-76.9375,5.28125
354,1697620125,0.11645508,-1.1121216,-0.09893799,1.703125,-85.59375,6.828125
355,1697620165,0.0078125,-0.85821533,0.024108887,8.40625,-45.03125,6.671875
356,1697620205,0.04345703,-1.0691528,-0.1807251,2.625,-55.421875,-8.484375
357,1697620245,0.060546875,-0.96295166,-0.06402588,10.9375,-61.359375,-2.6875
358,1697620285,0.08691406,-1.0056763,-0.04034424,1.328125,-58.078125,-6.84375
359,1697620325,0.100097656,-0.9468384,-0.018615723,3.875,-58.6875,-5.140625
360,1697620365,0.14746094,-0.9961548,-0.06573486,-1.4375,-57.734375,-6.265625
361,1697620405,0.12939453,-0.9470825,-0.02960205,-1.9375,-58.96875,-4.796875
362,1697620445,0.12939453,-0.9326782,-0.014465332,-3.296875,-49.828125,-7.234375
363,1697620485,0.03125,-1.2598267,-0.13873291,-8.4375,-52.203125,-12.265625
364,1697620525,-0.18383789,-0.7854614,-0.2576294,7.984375,-47.75,1.296875
365,1697620565,-0.37231445,-0.7774048,-0.054016113,10.0625,-14.921875,-0.015625
366,1697620605,0.19750977,-1.2561646,-0.06915283,-9.28125,-72.859375,-3.078125
367,1697620645,-0.19873047,-1.0420532,-0.10626221,-4.359375,-60.140625,1.640625
368,1697620685,-0.02709961,-0.9234009,-0.15142822,-5.03125,-48.96875,-3.671875
369,1697620725,-0.0087890625,-0.90411377,-0.11846924,0.828125,-64.015625,-3.875
370,1697620765,-0.17211914,-0.97442627,-0.12042236,2.390625,-63.875,-2.765625
371,1697620805,-0.107666016,-0.956604,-0.175354,2.390625,-58.078125,-0.0625
372,1697620845,-0.15698242,-0.9536743,-0.19854736,3.984375,-58.578125,-1.125
373,1697620885,-0.04736328,-0.9854126,-0.06402588,-1.828125,-62.0625,1.71875
374,1697620925,0.12475586,-1.1038208,-0.09185791,6.203125,-84.078125,2.46875
375,1697620965,0.21240234,-0.972229,-0.021057129,3.3125,-62.8125,9.65625
376,1697621005,-0.12084961,-0.9949341,-0.03253174,-2.78125,-41.53125,1.390625
377,1697621045,0.17895508,-1.0327759,-0.032043457,6.390625,-52.859375,-1.625
378,1697621085,0.11987305,-1.0459595,-0.014465332,0.8125,-55.71875,-3.359375
379,1697621125,0.05834961,-0.93096924,0.019470215,1.53125,-51.3125,-0.9375
380,1697621165,0.1237793,-0.9644165,0.030944824,0.21875,-46.265625,-1.5
381,1697621205,0.12011719,-0.9158325,0.024841309,-2.09375,-45.421875,-2.75
382,1697621245,0.1159668,-0.9067993,0.01776123,-2.359375,-43.625,-5.71875
383,1697621285,0.04711914,-0.97442627,0.046325684,-4.875,-38.8125,-10.546875
384,1697621325,0.060058594,-1.1990356,-0.17120361,-7.765625,-40.109375,-12.734375
385,1697621365,-0.015380859,-0.81817627,-0.0881958,2.78125,-33.46875,5.3125
386,1697621405,-0.15991211,-0.954895,0.038757324,-1.09375,-28.015625,-5.21875
387,1697621445,0.1015625,-1.1277466,-0.08087158,-1.515625,-40.828125,-3.71875
388,1697621485,-0.12109375,-1.1565552,-0.02911377,0.03125,-44.0,-0.796875
389,1697621525,-0.05029297,-0.99420166,-0.07330322,1.53125,-33.234375,-2.59375
390,1697621565,0.040283203,-0.9351196,-0.031799316,5.671875,-44.03125,-0.09375
391,1697621605,-0.064208984,-0.9182739,-0.10797119,5.265625,-47.25,1.46875
392,1697621645,-0.06274414,-0.96173096,-0.14996338,5.21875,-42.65625,1.75
393,1697621685,-0.052001953,-0.97125244,-0.11602783,1.546875,-45.953125,1.296875
394,1697621725,-0.038330078,-1.0298462,-0.04498291,-1.640625,-62.328125,1.921875
395,1697621765,0.15161133,-1.1109009,-0.08770752,2.5625,-64.328125,-0.75
396,1697621805,0.20214844,-0.8652954,0.032165527,4.3125,-49.359375,6.28125
397,1697621845,-0.075927734,-1.0352173,0.05999756,-1.671875,-50.96875,-6.796875
398,1697621885,0.056884766,-1.0808716,-0.044006348,2.4375,-44.03125,-6.296875
399,1697621925,0.1652832,-1.0044556,0.03778076,-3.734375,-47.765625,-5.15625
400,1697621965,0.057373047,-0.975647,0.06707764,-3.40625,-50.9375,-5.578125
401,1697622005,0.17114258,-0.9714966,0.09637451,-3.140625,-49.390625,-2.265625
402,1697622045,0.15942383,-0.9011841,0.04876709,-3.375,-50.015625,-1.34375
403,1697622085,0.060791016,-0.8748169,0.08709717,-5.421875,-52.109375,-4.859375
404,1697622125,-0.027832031,-0.94317627,-0.009338379,-7.46875,-48.90625,-10.5
405,1697622165,-0.095947266,-0.9819946,-0.26202393,-10.90625,-44.359375,-5.609375
406,1697622205,-0.15063477,-0.92022705,-0.002746582,6.078125,-34.921875,2.25
407,1697622245,0.05883789,-1.135315,0.0018920898,-10.578125,-63.25,4.703125
408,1697622285,-0.15209961,-1.0066528,0.07904053,-1.359375,-43.828125,3.953125
409,1697622325,-0.006591797,-0.9446411,-0.024230957,0.4375,-51.1875,1.34375
410,1697622365,-0.059814453,-0.92926025,-0.054992676,0.984375,-61.203125,1.1875
411,1697622405,-0.11694336,-0.9343872,-0.047912598,4.96875,-55.53125,2.296875
412,1697622445,-0.10205078,-0.94854736,-0.06427002,4.71875,-50.0,3.71875
413,1697622485,-0.06762695,-0.9824829,-0.026428223,2.640625,-56.265625,3.765625
414,1697622525,-0.07373047,-1.1167603,0.0036010742,-1.171875,-66.96875,3.96875
415,1697622565,0.1538086,-1.1084595,-0.038146973,3.546875,-69.296875,6.328125
416,1697622605,0.18896484,-0.7595825,0.031188965,11.40625,-53.890625,12.46875
417,1697622645,-0.16235352,-1.029602,0.09613037,-0.984375,-48.4375,-4.890625
418,1697622685,-0.03100586,-1.109436,0.004333496,1.984375,-44.125,-3.84375
419,1697622725,0.08862305,-0.98028564,0.034606934,2.734375,-38.71875,-1.234375
420,1697622765,0.1081543,-1.0164185,0.14105225,-1.09375,-45.765625,-4.109375
421,1697622805,0.122802734,-0.973938,0.14300537,-3.46875,-43.546875,0.953125
422,1697622845,0.14624023,-0.8689575,0.07562256,-3.09375,-40.921875,0.53125
423,1697622885,0.040771484,-0.8479614,0.014831543,-7.171875,-39.859375,-1.46875
424,1697622925,-0.0043945312,-1.1519165,-0.13409424,-3.40625,-40.03125,-6.390625
425,1697622965,-0.1262207,-0.8948364,-0.14239502,9.296875,-27.859375,2.96875
426,1697623005,-0.044677734,-1.1255493,0.07635498,-1.34375,-29.046875,-3.1875
427,1697623045,0.09472656,-1.1306763,0.024597168,-6.515625,-48.703125,3.375
428,1697623085,-0.095947266,-1.0674438,0.026062012,0.125,-46.1875,3.671875
429,1697623125,-0.06762695,-0.94976807,0.0006713867,3.296875,-39.40625,2.71875
430,1697623165,-0.02758789,-0.95391846,-0.04425049,2.5,-49.65625,1.203125
431,1697623205,-0.08544922,-0.954895,-0.058654785,4.578125,-52.875,2.453125
432,1697623245,-0.11328125,-0.9607544,-0.10601807,5.078125,-45.25,3.578125
433,1697623285,-0.025878906,-0.98760986,-0.093322754,1.859375,-47.65625,3.328125
434,1697623325,0.019042969,-1.0186157,0.007751465,-2.421875,-65.4375,4.328125
435,1697623365,0.16308594,-1.1514282,-0.006652832,4.09375,-79.875,1.0625
436,1697623405,0.052246094,-0.85650635,0.070007324,3.78125,-46.625,7.328125
437,1697623445,-0.21411133,-1.0740356,0.070495605,-5.328125,-40.484375,-7.046875
438,1697623485,0.1184082,-1.017395,-0.0064086914,5.4375,-38.03125,0.234375
439,1697623525,0.23852539,-0.9546509,0.03363037,0.375,-43.4375,0.453125
440,1697623565,0.17138672,-1.0059204,0.11907959,-2.765625,-52.21875,1.828125
441,1697623605,0.08276367,-0.95196533,0.11834717,-2.109375,-48.203125,2.671875
442,1697623645,0.09814453,-0.8858032,0.053649902,-4.015625,-42.0625,-0.171875
443,1697623685,-0.07885742,-0.8543091,0.10809326,-3.84375,-38.859375,-3.71875
444,1697623725,-0.060546875,-1.1477661,-0.03765869,-2.828125,-32.09375,-11.046875
445,1697623765,-0.1027832,-0.8621216,-0.090148926,1.25,-14.59375,-0.40625
446,1697623805,-0.027832031,-1.017395,0.109558105,0.078125,-20.703125,0.125
447,1697623845,-0.10620117,-1.2029419,-0.0064086914,-2.1875,-22.375,-4.34375
448,1697623885,-0.072021484,-1.0942993,0.031188965,3.578125,-4.96875,0.1875
449,1697623925,-0.12158203,-1.0315552,0.042419434,3.0,2.890625,-1.8125
450,1697623965,-0.13745117,-0.9356079,0.032409668,3.078125,9.71875,-0.921875
451,1697624005,-0.19360352,-0.9067993,-0.026428223,4.15625,19.03125,-2.328125
452,1697624045,-0.22729492,-0.9216919,-0.07672119,4.28125,27.75,-2.515625
453,1697624085,-0.1730957,-1.0718384,-0.074523926,-0.34375,37.140625,-6.125
454,1697624125,0.076660156,-1.0879517,-0.023010254,-6.71875,27.921875,-7.0625
455,1697624165,0.18115234,-0.86798096,0.10687256,-0.8125,24.640625,-2.15625
456,1697624205,-0.27294922,-1.1572876,-0.08770752,-4.5,60.234375,-9.234375
457,1697624245,0.09765625,-1.0598755,0.00018310547,1.765625,62.71875,-5.625
458,1697624285,0.03930664,-1.0286255,0.10809326,-1.984375,56.59375,-1.6875
459,1697624325,0.03881836,-0.93341064,0.003112793,2.28125,56.734375,3.984375
460,1697624365,0.028076172,-0.97247314,0.022155762,0.953125,57.1875,-0.25
461,1697624405,-0.052734375,-0.9336548,-0.010559082,3.578125,63.390625,-1.765625
462,1697624445,0.04638672,-0.8887329,-0.02178955,5.859375,61.78125,-2.953125
463,1697624485,-0.049560547,-0.9390259,0.046325684,7.078125,63.921875,-6.21875
464,1697624525,-0.18164062,-0.986145,-0.061828613,7.5625,69.953125,-4.609375
465,1697624565,0.10644531,-1.0054321,-0.11431885,10.203125,43.421875,10.5625
466,1697624605,-0.12451172,-0.989563,-0.08355713,3.375,41.4375,8.015625
467,1697624645,-0.14892578,-0.98516846,-0.04498291,7.171875,57.109375,6.546875
468,1697624685,-0.13623047,-0.9627075,-0.08673096,6.578125,55.65625,4.96875
469,1697624725,-0.1694336,-0.9590454,-0.05303955,0.5625,51.84375,4.484375
470,1697624765,-0.2253418,-0.96832275,-0.105773926,-0.515625,49.71875,-0.640625
471,1697624805,-0.20141602,-1.0042114,-0.097473145,-1.796875,53.96875,-0.65625
472,1697624845,-0.0087890625,-0.95806885,-0.15435791,-0.265625,37.375,-6.15625
473,1697624885,0.25854492,-1.0547485,-0.14239502,2.40625,55.421875,3.453125
474,1697624925,-0.04663086,-0.9216919,0.18133545,-10.34375,50.09375,-0.1875
475,1697624965,0.026367188,-0.9751587,-0.045715332,-2.421875,49.03125,4.078125
476,1697625005,0.13720703,-0.9155884,-0.06427002,-1.21875,45.203125,1.234375
477,1697625045,0.011474609,-0.973938,0.028015137,-1.703125,47.890625,-1.296875
478,1697625085,-0.009277344,-0.90704346,0.03338623,1.5625,52.015625,-2.125
479,1697625125,-0.16137695,-0.95098877,-0.03375244,5.828125,59.4375,-4.109375
480,1697625165,-0.034423828,-1.0974731,-0.25274658,11.359375,53.265625,-3.875
481,1697625205,0.14575195,-0.94317627,0.0368042,6.640625,35.71875,10.6875
482,1697625245,-0.2277832,-1.0171509,0.013366699,-1.28125,42.609375,7.8125
483,1697625285,-0.16821289,-1.1116333,-0.054748535,5.078125,51.296875,-2.453125
484,1697625325,-0.045410156,-1.0076294,-0.031799316,-1.859375,42.03125,-0.125
485,1697625365,-0.16821289,-0.9639282,-0.020324707,-3.484375,41.90625,-0.53125
486,1697625405,-0.23266602,-0.96343994,-0.029846191,-1.71875,50.59375,-4.0625
487,1697625445,-0.19628906,-0.92266846,-0.06915283,-1.078125,50.296875,-5.859375
488,1697625485,-0.18457031,-0.94122314,0.024353027,-7.0,46.453125,-4.328125
489,1697625525,0.27001953,-0.98272705,0.16571045,0.796875,23.796875,4.671875
490,1697625565,0.044921875,-1.1240845,-0.121398926,9.484375,53.546875,0.296875
491,1697625605,0.05883789,-0.9053345,0.06756592,-3.96875,46.8125,-0.75
492,1697625645,-0.05859375,-0.9951782,0.0211792,2.078125,50.03125,1.1875
493,1697625685,0.0949707,-0.94073486,-0.036193848,4.4375,46.578125,0.703125
494,1697625725,0.044433594,-0.9522095,-0.030334473,3.609375,48.078125,-1.375
495,1697625765,0.044921875,-0.90753174,0.035339355,5.484375,51.953125,-2.0625
496,1697625805,-0.11669922,-0.96051025,0.07904053,4.265625,59.0,-5.28125
497,1697625845,-0.27001953,-1.0437622,-0.0869751,6.1875,69.875,-10.65625
498,1697625885,0.048095703,-0.96710205,0.040222168,6.46875,32.609375,7.34375
499,1697625925,-0.1081543,-1.0496216,-0.024230957,-0.890625,41.734375,4.0
500,1697625965,-0.19946289,-1.0071411,-0.0071411133,5.625,51.234375,4.3125
501,1697626005,-0.19921875,-1.0071411,-0.036193848,4.109375,47.796875,1.015625
502,1697626045,-0.18798828,-0.9536743,-0.07598877,-0.015625,45.484375,0.375
503,1697626085,-0.2607422,-0.9590454,-0.062561035,0.53125,47.0625,-3.984375
504,1697626125,-0.19848633,-0.94317627,-0.07183838,-0.78125,47.171875,-3.046875
505,1697626165,-0.10253906,-0.9480591,-0.04522705,-6.140625,39.0625,-0.28125
506,1697626205,-0.04711914,-1.1709595,-0.2617798,-3.296875,24.984375,-3.09375
507,1697626245,0.13964844,-0.73687744,-0.09625244,3.71875,48.84375,11.984375
508,1697626285,0.24267578,-1.0137329,0.08441162,6.390625,26.53125,6.296875
509,1697626325,-0.06347656,-1.0774536,-0.15679932,9.09375,50.125,4.3125
510,1697626365,0.14111328,-0.9829712,0.06732178,-6.359375,34.34375,-0.015625
511,1697626405,-0.15917969,-0.97979736,0.08709717,-1.21875,45.09375,2.765625
512,1697626445,0.037597656,-0.923645,-0.090148926,-1.296875,46.984375,2.859375
513,1697626485,0.053955078,-0.90216064,-0.0076293945,3.484375,47.09375,1.46875
514,1697626525,0.021728516,-0.95928955,0.02947998,0.171875,54.6875,-0.21875
515,1697626565,-0.07861328,-0.95318604,0.035339355,0.125,60.78125,-3.140625
516,1697626605,-0.1081543,-1.2144165,-0.03765869,3.953125,59.640625,-6.421875
517,1697626645,0.044433594,-0.87506104,-0.18487549,7.65625,49.890625,7.5625
518,1697626685,-0.20043945,-0.927063,0.06756592,3.40625,54.671875,6.28125
519,1697626725,-0.068847656,-1.0735474,-0.062805176,1.4375,43.546875,1.0625
520,1697626765,-0.18115234,-1.065979,0.0021362305,-0.03125,39.015625,2.859375
521,1697626805,-0.19091797,-1.029602,0.0006713867,0.328125,49.515625,-0.03125
522,1697626845,-0.1628418,-0.9636841,-0.020324707,2.65625,45.4375,-1.09375
523,1697626885,-0.20092773,-0.89630127,-0.055236816,4.84375,43.125,-3.453125
524,1697626925,-0.12841797,-0.8513794,-0.026916504,2.390625,37.25,-1.921875
525,1697626965,0.016113281,-1.1834106,-0.23883057,2.1875,0.96875,-5.703125
526,1697627005,-0.17944336,-1.098938,-0.1272583,2.546875,46.21875,-1.171875
527,1697627045,0.115478516,-1.1099243,-0.03326416,0.46875,45.796875,0.828125
528,1697627085,0.017578125,-0.8831177,-0.05230713,-3.703125,44.296875,3.5
529,1697627125,0.05883789,-0.90802,-0.08868408,0.71875,43.625,2.78125
530,1697627165,0.080322266,-0.9194946,-0.113098145,2.671875,41.484375,0.875
531,1697627205,0.07788086,-0.99298096,-0.11798096,2.9375,41.171875,1.640625
532,1697627245,0.067871094,-0.90045166,-0.046203613,2.03125,46.0,0.5
533,1697627285,0.040039062,-0.97198486,0.0065307617,2.5,44.96875,0.25
534,1697627325,-0.14086914,-0.9673462,0.034606934,-0.53125,56.34375,-1.5
535,1697627365,0.050048828,-1.0962524,-0.09844971,7.5625,50.71875,1.109375
536,1697627405,-0.13256836,-0.97613525,-0.13018799,-7.34375,45.328125,5.296875
537,1697627445,-0.17895508,-0.9898071,-0.090148926,-0.921875,50.296875,3.046875
538,1697627485,-0.13061523,-0.94781494,-0.11627197,-2.953125,44.390625,1.421875
539,1697627525,-0.15307617,-0.9885864,-0.10064697,-3.4375,42.84375,1.71875
540,1697627565,-0.22387695,-0.9475708,-0.042541504,-2.890625,43.484375,1.515625
541,1697627605,-0.23022461,-0.97491455,-0.07476807,-3.765625,43.671875,-1.265625
542,1697627645,-0.24023438,-0.91778564,-0.032287598,-6.796875,38.765625,-2.171875
543,1697627685,-0.044433594,-1.0776978,-0.047424316,-4.609375,33.03125,-10.140625
544,1697627725,0.13378906,-0.82525635,0.10809326,9.140625,20.34375,3.03125
545,1697627765,-0.068603516,-1.1057739,0.0446167,3.40625,23.1875,1.203125
546,1697627805,-0.040527344,-1.1152954,-0.01373291,4.25,34.9375,0.1875
547,1697627845,-0.05517578,-1.0213013,0.0524292,4.96875,43.328125,0.03125
548,1697627885,-0.05493164,-0.96759033,0.029724121,2.078125,43.125,0.65625
549,1697627925,-0.0056152344,-0.8682251,-0.03277588,3.171875,48.09375,-0.3125
550,1697627965,-0.01586914,-0.8777466,-0.013244629,3.015625,52.5,-5.078125
551,1697628005,0.064697266,-1.0742798,-0.03717041,0.890625,48.578125,-8.671875
552,1697628045,-0.048339844,-1.081604,-0.09991455,-3.0,40.5625,-8.6875
553,1697628085,0.0073242188,-0.91851807,-0.17974854,10.0625,29.328125,7.140625
554,1697628125,-0.0036621094,-0.9915161,0.070495605,-2.59375,1.546875,7.828125
555,1697628165,-0.07128906,-1.1277466,-0.031066895,-4.265625,-5.203125,-0.90625
556,1697628205,-0.1965332,-1.0984497,0.0289917,-1.15625,-7.53125,3.9375
557,1697628245,-0.2109375,-1.0032349,0.0914917,1.09375,-4.265625,0.65625
558,1697628285,-0.08691406,-0.9104614,-0.062316895,-0.03125,-12.328125,-2.046875
559,1697628325,-0.08105469,-0.9216919,-0.08428955,4.28125,-30.421875,-3.59375
560,1697628365,-0.12597656,-0.96466064,-0.038146973,4.21875,-34.78125,-3.046875
561,1697628405,-0.09863281,-1.0081177,-0.051818848,-1.296875,-39.125,0.0625
562,1697628445,-0.13647461,-0.972229,-0.009338379,-4.203125,-48.71875,3.03125
563,1697628485,-0.06542969,-1.2095337,-0.128479,-4.046875,-69.0625,1.296875
564,1697628525,0.018554688,-0.79937744,-0.03375244,3.046875,-49.421875,10.390625
565,1697628565,-0.095947266,-1.0891724,-0.0017700195,2.359375,-67.0625,-4.953125
566,1697628605,0.016113281,-0.9902954,-0.013244629,5.421875,-55.453125,3.0
567,1697628645,-0.030273438,-1.0176392,-0.04547119,-1.203125,-48.09375,-6.140625
568,1697628685,0.023925781,-1.0125122,-0.013000488,0.6875,-56.828125,-3.515625
569,1697628725,0.050048828,-0.9714966,0.09857178,1.34375,-52.78125,-2.125
570,1697628765,0.07836914,-0.95928955,0.028503418,-8.265625,-45.96875,-2.59375
571,1697628805,0.06640625,-0.8933716,0.014831543,-2.5,-48.640625,-3.140625
572,1697628845,-0.014404297,-1.1155396,-0.046447754,-3.1875,-46.0625,-9.890625
573,1697628885,-0.071777344,-1.2463989,-0.015686035,-11.53125,-32.609375,-7.640625
574,1697628925,-0.25195312,-1.0337524,-0.113098145,-7.671875,-50.046875,6.140625
575,1697628965,-0.0871582,-0.8584595,-0.09039307,-0.1875,-41.265625,0.84375
576,1697629005,-0.07348633,-0.93927,-0.085998535,2.53125,-60.125,-1.5625
577,1697629045,-0.15673828,-0.973938,-0.1182251,0.84375,-54.078125,0.5625
578,1697629085,-0.07739258,-0.91900635,-0.13336182,0.625,-53.078125,2.5625
579,1697629125,-0.07373047,-0.94122314,-0.08746338,-5.0,-64.75,3.765625
580,1697629165,-0.06567383,-1.0852661,-0.024475098,-8.140625,-80.84375,2.765625
581,1697629205,0.19873047,-1.1738892,-0.026184082,6.53125,-78.296875,2.9375
582,1697629245,0.053222656,-0.88775635,-0.044006348,-2.546875,-46.671875,10.015625
583,1697629285,-0.03466797,-0.987854,0.06414795,1.78125,-61.015625,-6.109375
584,1697629325,-0.008056641,-1.0476685,0.0004272461,5.359375,-51.125,-3.375
585,1697629365,0.19091797,-0.9458618,-0.0076293945,-0.46875,-47.59375,-1.8125
586,1697629405,0.049316406,-1.0125122,0.07318115,-1.296875,-54.015625,-1.40625
587,1697629445,0.09692383,-0.9795532,0.09222412,-2.78125,-49.75,-0.203125
588,1697629485,0.1159668,-0.9109497,0.06317139,-3.59375,-49.6875,-1.421875
589,1697629525,0.11816406,-0.90509033,0.042175293,-3.515625,-52.8125,-3.453125
590,1697629565,0.020263672,-1.0772095,0.013122559,-3.953125,-51.703125,-7.5
591,1697629605,-0.03540039,-1.1257935,-0.08843994,-4.234375,-46.25,-9.453125
592,1697629645,0.11376953,-1.2505493,0.04046631,-5.15625,-60.59375,-0.890625
593,1697629685,-0.18530273,-1.0852661,-0.051818848,-1.265625,-51.09375,5.375
594,1697629725,-0.0546875,-0.9524536,-0.026916504,1.359375,-51.46875,-0.1875
595,1697629765,-0.026123047,-0.95098877,-0.028869629,4.640625,-58.21875,-2.03125
596,1697629805,-0.053466797,-0.97540283,-0.093322754,2.671875,-64.03125,0.59375
597,1697629845,-0.11743164,-0.96759033,-0.08795166,4.515625,-62.484375,0.65625
598,1697629885,-0.09472656,-0.97442627,-0.089660645,2.578125,-56.671875,0.453125
599,1697629925,-0.09277344,-1.015686,-0.029846191,0.078125,-58.640625,1.59375
600,1697629965,-0.013671875,-1.0962524,0.077819824,-4.453125,-65.328125,3.40625
601,1697630005,0.11694336,-0.99835205,0.002380371,4.40625,-61.796875,11.203125
602,1697630045,-0.12548828,-0.75494385,-0.07086182,3.65625,-28.171875,5.3125
603,1697630085,0.076660156,-1.0484009,0.0993042,10.15625,-41.234375,-2.109375
604,1697630125,-0.03100586,-1.0671997,0.047302246,-0.296875,-36.546875,0.875
605,1697630165,0.15844727,-0.97784424,-0.020324707,1.828125,-34.046875,0.40625
606,1697630205,0.08276367,-1.0325317,0.11395264,-1.59375,-40.71875,-4.96875
607,1697630245,0.14355469,-0.9636841,0.07562256,-3.390625,-37.953125,-2.046875
608,1697630285,0.12939453,-0.9053345,0.039489746,-6.484375,-42.984375,-3.328125
609,1697630325,-0.016601562,-0.9067993,0.050720215,-6.109375,-38.484375,-8.40625
610,1697630365,-0.05883789,-1.1465454,-0.105773926,-4.671875,-37.171875,-11.453125
611,1697630405,-0.0061035156,-0.79400635,-0.18658447,2.21875,-22.90625,0.765625
612,1697630445,-0.15942383,-0.95880127,-0.012268066,0.1875,-26.21875,0.046875
613,1697630485,0.03540039,-1.1846313,-0.0022583008,-1.015625,-43.125,-4.890625
614,1697630525,0.029785156,-1.1487427,-0.033996582,-2.09375,-44.78125,4.21875
615,1697630565,-0.072753906,-1.0588989,-0.016662598,0.140625,-39.90625,3.6875
616,1697630605,-0.024169922,-0.89849854,-0.0178833,3.90625,-45.34375,3.546875
617,1697630645,-0.075683594,-0.88775635,-0.14678955,7.8125,-50.8125,2.171875
618,1697630685,-0.059814453,-0.9385376,-0.22540283,11.515625,-50.9375,5.296875
619,1697630725,-0.056396484,-1.031311,-0.15631104,7.234375,-57.71875,5.703125
620,1697630765,-0.052001953,-0.9937134,-0.11114502,1.953125,-56.125,7.828125
621,1697630805,0.009765625,-1.2664185,-0.1572876,8.734375,-77.625,-1.78125
622,1697630845,0.20629883,-0.8711548,0.07977295,10.015625,-50.984375,9.921875
623,1697630885,0.056396484,-1.0264282,0.029724121,1.28125,-46.984375,-4.015625
624,1697630925,-0.048339844,-1.029602,0.053649902,1.015625,-48.484375,-11.09375
625,1697630965,0.1850586,-1.0977173,-0.023254395,7.28125,-45.6875,-6.03125
626,1697631005,0.1743164,-0.96832275,0.039733887,-7.53125,-49.984375,-9.21875
627,1697631045,0.07495117,-0.98394775,0.09051514,-7.046875,-51.578125,-5.234375
628,1697631085,0.140625,-0.8936157,0.054382324,-4.8125,-45.96875,-6.453125
629,1697631125,0.041748047,-0.84552,0.06439209,-6.9375,-42.953125,-10.953125
630,1697631165,-0.1381836,-1.0044556,-0.070373535,-1.875,-45.265625,7.375
631,1697631205,-0.091796875,-0.8882446,-0.010314941,1.3125,-43.90625,-0.84375
632,1697631245,-0.045898438,-0.9795532,-0.04864502,2.9375,-49.578125,-2.125
633,1697631285,-0.12963867,-0.9299927,-0.07501221,3.359375,-45.359375,0.984375
634,1697631325,-0.10253906,-0.9456177,-0.101623535,4.234375,-42.265625,0.734375
635,1697631365,-0.06323242,-0.991272,-0.05230713,-0.015625,-50.296875,0.328125
636,1697631405,-0.07348633,-1.0630493,0.043395996,-6.890625,-56.65625,1.734375
637,1697631445,0.09838867,-1.1143188,-0.078186035,-4.578125,-65.28125,-0.390625
638,1697631485,0.22143555,-0.8989868,0.00091552734,5.453125,-50.46875,9.984375
639,1697631525,-0.23022461,-0.9014282,0.086364746,-0.5625,-39.5,-2.640625
640,1697631565,-0.0024414062,-1.0979614,0.089782715,-0.609375,-37.375,-8.625
641,1697631605,0.1003418,-1.0088501,-0.0005493164,0.8125,-28.96875,-2.203125
642,1697631645,0.09863281,-0.9854126,0.051696777,-2.53125,-36.421875,-2.734375
643,1697631685,0.14941406,-1.0025024,0.14324951,-4.3125,-39.625,-0.9375
644,1697631725,0.14208984,-0.928772,0.1071167,-5.40625,-38.015625,0.828125
645,1697631765,0.13427734,-0.880188,0.07562256,-5.703125,-39.609375,-0.78125
646,1697631805,0.0041503906,-0.9104614,0.07952881,-6.078125,-39.59375,-6.546875
647,1697631845,-0.13476562,-1.2473755,-0.15118408,-9.203125,-32.890625,-11.9375
648,1697631885,-0.03173828,-0.74468994,-0.09039307,9.71875,-19.953125,3.34375
649,1697631925,-0.15527344,-1.0510864,0.06951904,-5.21875,-30.296875,-4.34375
650,1697631965,0.0048828125,-1.1626587,0.014587402,-6.9375,-40.078125,-2.484375
651,1697632005,-0.08081055,-1.0725708,-0.011047363,-3.15625,-40.046875,4.859375
652,1697632045,-0.06274414,-0.98638916,0.016784668,0.03125,-34.9375,3.015625
653,1697632085,-0.0146484375,-0.9138794,-0.03643799,-1.15625,-45.359375,4.65625
654,1697632125,-0.07324219,-0.9434204,-0.028869629,3.40625,-52.625,3.328125
655,1697632165,-0.11254883,-0.98443604,-0.078186035,1.5625,-48.640625,5.0
656,1697632205,-0.07006836,-0.9981079,-0.040100098,-1.875,-49.828125,5.375
657,1697632245,-0.09838867,-1.1123657,-0.0071411133,3.5625,-63.609375,2.890625
658,1697632285,0.0012207031,-1.1113892,-0.054016113,7.453125,-63.265625,2.375
659,1697632325,-0.041503906,-0.9793091,0.13006592,0.875,-51.25,2.765625
660,1697632365,0.014892578,-1.0579224,-0.004699707,2.640625,-48.921875,-0.453125
661,1697632405,0.06518555,-0.96954346,0.015563965,2.359375,-43.640625,-1.0625
662,1697632445,0.16918945,-1.0054321,0.08709717,-0.4375,-50.859375,-0.359375
663,1697632485,0.10913086,-0.9678345,0.113220215,-4.84375,-50.171875,1.09375
664,1697632525,0.08105469,-0.91192627,0.0993042,-5.890625,-47.25,-1.796875
665,1697632565,0.052490234,-0.84259033,0.10443115,-8.03125,-41.609375,-4.3125
666,1697632605,-0.037841797,-0.85943604,-0.25128174,-1.359375,-37.75,-1.875
667,1697632645,-0.1850586,-1.1177368,0.022399902,1.625,-40.484375,-0.046875
668,1697632685,-0.015625,-1.130188,0.062194824,-5.03125,-43.1875,-2.640625
669,1697632725,-0.00024414062,-1.0374146,-0.022033691,-0.96875,-40.671875,3.625
670,1697632765,-0.14990234,-0.9990845,0.028015137,2.21875,-37.109375,1.140625
671,1697632805,0.0048828125,-0.9368286,-0.04888916,5.984375,-44.296875,2.046875
672,1697632845,-0.016845703,-0.97662354,-0.050354004,6.109375,-55.375,3.375
673,1697632885,-0.12890625,-0.9927368,-0.08306885,3.9375,-49.859375,4.328125
674,1697632925,-0.06982422,-0.97442627,-0.13580322,3.90625,-49.109375,4.015625
675,1697632965,-0.10498047,-0.940979,0.0072631836,2.109375,-58.34375,3.40625
676,1697633005,0.012451172,-1.1194458,0.008239746,-2.984375,-76.109375,3.375
677,1697633045,0.27392578,-1.0689087,-0.039855957,4.828125,-68.921875,6.328125
678,1697633085,-0.13500977,-0.784729,0.023864746,3.953125,-50.75,6.5625
679,1697633125,0.016113281,-1.0662231,0.14202881,4.1875,-54.125,-7.859375
680,1697633165,-0.05444336,-1.0606079,0.014343262,1.109375,-46.796875,-3.546875
681,1697633205,0.09814453,-0.92193604,0.008972168,0.6875,-43.78125,-2.8125
682,1697633245,0.05078125,-1.0081177,0.11932373,-3.5,-46.96875,-3.46875
683,1697633285,0.09692383,-1.0081177,0.13861084,-5.53125,-48.4375,-0.015625
684,1697633325,0.08300781,-0.881897,0.105651855,-5.625,-40.578125,0.890625
685,1697633365,0.0043945312,-0.85479736,0.0914917,-6.921875,-36.265625,-1.90625
686,1697633405,-0.0036621094,-1.242981,-0.028137207,-7.359375,-38.40625,-6.234375
687,1697633445,-0.013427734,-0.8789673,-0.16534424,-1.4375,-28.53125,5.796875
688,1697633485,-0.21020508,-1.0271606,0.11932373,2.703125,-22.953125,2.203125
689,1697633525,-0.009277344,-1.1201782,0.027770996,-5.5625,-30.84375,-1.078125
690,1697633565,-0.008544922,-1.1404419,0.014099121,-2.546875,-40.796875,0.125
691,1697633605,-0.08886719,-0.9536743,0.018249512,0.53125,-34.53125,1.75
692,1697633645,-0.060302734,-0.9324341,0.008728027,2.109375,-35.140625,0.84375
693,1697633685,-0.0793457,-0.9590454,-0.015930176,4.453125,-39.15625,1.03125
694,1697633725,-0.075683594,-0.9631958,-0.039123535,3.1875,-38.109375,3.359375
695,1697633765,-0.16918945,-0.99786377,-0.024963379,-0.34375,-40.578125,4.671875
696,1697633805,-0.19018555,-0.99420166,0.078308105,-2.15625,-31.6875,7.625
697,1697633845,-0.059570312,-1.0872192,0.07269287,-5.90625,-23.515625,-1.765625
698,1697633885,0.104003906,-0.89434814,0.04559326,0.90625,-24.578125,2.640625
699,1697633925,-0.18261719,-0.9578247,0.13519287,-0.296875,2.640625,-2.640625
700,1697633965,-0.072021484,-1.1599731,0.109802246,-0.734375,20.046875,-10.296875
701,1697634005,0.068603516,-1.0332642,0.061706543,-1.359375,26.578125,-6.640625
702,1697634045,0.10180664,-1.0823364,0.12030029,-5.359375,23.171875,-4.203125
703,1697634085,-0.021240234,-0.958313,0.13128662,-3.75,32.84375,-0.25
704,1697634125,-0.044189453,-0.9351196,0.09564209,-2.484375,43.390625,-2.421875
705,1697634165,-0.06201172,-0.8870239,0.014099121,-0.234375,45.921875,-3.59375
706,1697634205,0.0063476562,-0.9155884,0.0033569336,5.0625,52.703125,-5.484375
707,1697634245,-0.09008789,-0.8621216,0.09466553,5.90625,63.953125,-6.25
708,1697634285,-0.19750977,-0.9702759,-0.013977051,8.328125,69.046875,-10.03125
709,1697634325,-0.030761719,-1.2332153,-0.24737549,9.15625,55.234375,-9.25
710,1697634365,0.053710938,-0.95758057,-0.07183838,9.609375,42.203125,8.671875
711,1697634405,-0.118896484,-0.973938,-0.07330322,2.03125,54.515625,8.09375
712,1697634445,-0.12109375,-1.0628052,-0.05670166,5.703125,62.59375,5.640625
713,1697634485,-0.13378906,-0.97125244,-0.057922363,5.046875,61.796875,3.6875
714,1697634525,-0.072021484,-0.9771118,-0.07208252,2.609375,53.03125,2.046875
715,1697634565,-0.19042969,-0.95391846,-0.057678223,-2.375,48.171875,1.046875
716,1697634605,-0.18896484,-0.97076416,-0.0178833,0.734375,48.328125,-3.015625
717,1697634645,0.013916016,-0.93048096,-0.16046143,-3.21875,38.921875,-11.171875
718,1697634685,-0.23071289,-1.0215454,-0.050109863,-3.53125,62.484375,-0.25
719,1697634725,0.119384766,-1.0603638,-0.043762207,-2.484375,59.34375,-4.828125
720,1697634765,-0.06591797,-0.9885864,0.093688965,-4.78125,59.03125,-3.734375
721,1697634805,0.095703125,-0.972229,-0.07086182,-0.78125,61.640625,0.609375
722,1697634845,0.07348633,-0.82525635,-0.066223145,2.546875,59.234375,-0.0625
723,1697634885,0.0012207031,-0.86260986,0.03704834,4.234375,62.984375,-3.078125
724,1697634925,-0.06201172,-0.8921509,0.031677246,2.78125,70.71875,-6.171875
725,1697634965,-0.107910156,-1.0911255,-0.08282471,7.125,71.703125,-2.28125
726,1697635005,0.010009766,-1.1514282,-0.14703369,2.796875,54.6875,-0.5
727,1697635045,0.2619629,-1.1235962,0.06707764,2.953125,12.71875,10.84375
728,1697635085,-0.29003906,-1.0532837,0.1708374,-11.84375,32.90625,8.921875
729,1697635125,-0.3605957,-0.95928955,0.050476074,6.109375,65.09375,0.59375
730,1697635165,-0.11425781,-0.92437744,-0.031066895,0.984375,53.65625,-2.609375
731,1697635205,-0.23291016,-0.9077759,0.00018310547,1.3125,49.15625,-7.859375
732,1697635245,-0.10473633,-0.9949341,0.027770996,-0.3125,55.03125,-6.359375
733,1697635285,-0.11230469,-0.9993286,-0.0010375977,-3.078125,48.078125,-5.109375
734,1697635325,-0.12695312,-0.9771118,-0.03277588,-3.5625,48.265625,-3.71875
735,1697635365,-0.06933594,-1.1470337,-0.20318604,0.078125,38.296875,-5.03125
736,1697635405,0.0068359375,-0.83843994,-0.06915283,2.140625,54.765625,-2.53125
737,1697635445,0.15795898,-0.92315674,0.08856201,11.59375,34.4375,-1.65625
738,1697635485,-0.23657227,-0.96710205,-0.047668457,0.8125,53.953125,1.390625
739,1697635525,0.05126953,-1.0134888,0.027526855,0.765625,49.46875,-3.8125
740,1697635565,-0.10644531,-0.9505005,0.11907959,1.734375,49.078125,-0.515625
741,1697635605,0.0390625,-0.9348755,-0.04034424,1.6875,54.65625,0.234375
742,1697635645,0.09301758,-0.91778564,-0.027404785,5.3125,53.453125,0.71875
743,1697635685,-0.025634766,-0.923645,0.07879639,2.03125,54.96875,-0.125
744,1697635725,-0.16064453,-1.0357056,0.047058105,8.453125,64.859375,-5.109375
745,1697635765,-0.23022461,-0.9636841,-0.15264893,7.53125,78.234375,-2.609375
746,1697635805,0.041015625,-1.0635376,-0.15924072,6.515625,61.421875,3.109375
747,1697635845,0.03564453,-1.0891724,0.06707764,-0.984375,35.203125,7.15625
748,1697635885,-0.17626953,-1.0388794,0.023864746,1.96875,43.453125,6.234375
749,1697635925,-0.24291992,-1.0054321,0.00970459,2.671875,58.421875,3.90625
750,1697635965,-0.1237793,-0.9663696,-0.01739502,-1.140625,56.3125,0.859375
751,1697636005,-0.23095703,-0.9024048,-0.016906738,0.078125,47.828125,-2.265625
752,1697636045,-0.1928711,-0.9434204,0.0119018555,-1.6875,49.9375,-4.25
753,1697636085,-0.08618164,-1.079895,-0.105285645,-10.421875,35.921875,-5.359375
754,1697636125,-0.020263672,-0.9561157,-0.11236572,2.984375,47.765625,-7.796875
755,1697636165,-0.029541016,-1.2522583,0.2230835,-8.3125,28.765625,-3.03125
756,1697636205,0.20336914,-1.1101685,0.03363037,-1.15625,53.171875,-2.296875
757,1697636245,-0.15283203,-0.9534302,0.08026123,-3.84375,45.78125,2.8125
758,1697636285,0.028320312,-0.9812622,-0.0010375977,-2.375,53.921875,1.75
759,1697636325,0.05908203,-0.9085083,-0.020812988,-1.25,45.171875,2.375
