,timestamp,accel_x,accel_y,accel_z,gyro_x,gyro_y,gyro_z
0,1697605965,-0.2890625,-0.9468384,0.22845459,0.65625,2.03125,0.15625
1,1697606005,-0.29296875,-0.94732666,0.22454834,0.0625,2.171875,0.109375
2,1697606045,-0.28955078,-0.9536743,0.22479248,0.109375,1.515625,-0.015625
3,1697606085,-0.29125977,-0.95391846,0.21258545,-0.203125,1.875,0.3125
4,1697606125,-0.2878418,-0.94659424,0.22406006,-0.390625,0.984375,0.296875
5,1697606165,-0.2890625,-0.9534302,0.22894287,-0.109375,0.640625,0.28125
6,1697606205,-0.28930664,-0.95684814,0.22357178,-0.53125,0.515625,0.15625
7,1697606245,-0.28442383,-0.9439087,0.23040771,-0.78125,0.578125,0.3125
8,1697606285,-0.28930664,-0.94610596,0.22259521,-0.828125,-0.015625,0.25
9,1697606325,-0.2915039,-0.94781494,0.22796631,-1.140625,-0.03125,0.15625
10,1697606365,-0.28564453,-0.93927,0.23480225,-1.0,0.03125,0.390625
11,1697606405,-0.2902832,-0.9429321,0.20916748,-0.328125,-1.125,0.703125
12,1697606445,-0.28637695,-0.9475708,0.23431396,-0.46875,-0.609375,0.53125
13,1697606485,-0.2915039,-0.94732666,0.21917725,-1.375,0.390625,0.671875
14,1697606525,-0.27661133,-0.9348755,0.23065186,-0.375,0.59375,0.359375
15,1697606565,-0.2998047,-0.9536743,0.22454834,-0.34375,-0.21875,0.484375
16,1697606605,-0.2861328,-0.94903564,0.23309326,-0.59375,0.453125,0.578125
17,1697606645,-0.28564453,-0.9429321,0.22528076,-0.890625,0.453125,0.65625
18,1697606685,-0.28759766,-0.9585571,0.23114014,-0.8125,0.25,0.484375
19,1697606725,-0.29077148,-0.94610596,0.21722412,-0.953125,1.0625,0.578125
20,1697606765,-0.28930664,-0.94415283,0.22406006,-0.984375,0.328125,0.65625
21,1697606805,-0.2927246,-0.9524536,0.22845459,-0.46875,-0.046875,0.53125
22,1697606845,-0.28198242,-0.9500122,0.23358154,-0.734375,0.328125,0.640625
23,1697606885,-0.28515625,-0.94537354,0.23016357,-0.984375,0.59375,0.625
24,1697606925,-0.28833008,-0.95635986,0.22796631,-1.15625,0.203125,0.4375
25,1697606965,-0.2854004,-0.9468384,0.23309326,-1.65625,0.28125,0.234375
26,1697607005,-0.2849121,-0.9463501,0.23260498,-1.5,0.65625,0.3125
27,1697607045,-0.2919922,-0.9495239,0.2086792,-1.5625,-0.5625,0.3125
28,1697607085,-0.28076172,-0.9417114,0.2411499,-1.609375,0.640625,-0.125
29,1697607125,-0.29248047,-0.9512329,0.23382568,-2.203125,0.984375,-0.21875
30,1697607165,-0.27612305,-0.9468384,0.22625732,-1.59375,2.140625,-0.359375
31,1697607205,-0.29077148,-0.9458618,0.23577881,-0.78125,1.125,0.125
32,1697607245,-0.28930664,-0.9458618,0.22869873,-0.734375,1.375,0.03125
33,1697607285,-0.28979492,-0.9434204,0.23602295,-1.03125,1.625,-0.09375
34,1697607325,-0.2915039,-0.9505005,0.24261475,-1.1875,1.75,-0.625
35,1697607365,-0.29638672,-0.94976807,0.23016357,-1.578125,1.609375,-0.390625
36,1697607405,-0.29174805,-0.944397,0.23846436,-1.03125,0.71875,-0.109375
37,1697607445,-0.29663086,-0.9456177,0.23651123,-0.6875,0.421875,-0.09375
38,1697607485,-0.2932129,-0.94659424,0.24139404,-0.59375,0.765625,0.03125
39,1697607525,-0.28637695,-0.94195557,0.2453003,-0.578125,0.84375,0.265625
40,1697607565,-0.2919922,-0.9451294,0.23626709,-0.640625,0.078125,0.234375
41,1697607605,-0.2919922,-0.94732666,0.23675537,-0.71875,-0.046875,0.015625
42,1697607645,-0.29370117,-0.94488525,0.2506714,-0.515625,0.03125,-0.015625
43,1697607685,-0.29248047,-0.9326782,0.24163818,0.09375,-0.578125,0.109375
44,1697607725,-0.30371094,-0.95269775,0.23724365,0.46875,0.125,0.359375
45,1697607765,-0.29589844,-0.9468384,0.21160889,-0.15625,0.875,0.828125
46,1697607805,-0.29052734,-0.9378052,0.24407959,1.015625,1.015625,0.6875
47,1697607845,-0.29858398,-0.9470825,0.23846436,1.03125,0.5625,0.859375
48,1697607885,-0.2915039,-0.9541626,0.24285889,1.015625,1.015625,0.78125
49,1697607925,-0.29907227,-0.9417114,0.23529053,0.578125,1.28125,0.9375
50,1697607965,-0.30078125,-0.9468384,0.23577881,0.546875,0.953125,0.796875
51,1697608005,-0.29174805,-0.93756104,0.22869873,0.71875,2.046875,0.4375
52,1697608045,-0.29296875,-0.9404907,0.23651123,0.65625,1.203125,0.625
53,1697608085,-0.2944336,-0.9561157,0.23406982,0.75,1.234375,0.59375
54,1697608125,-0.28857422,-0.94732666,0.2345581,0.671875,1.390625,0.59375
55,1697608165,-0.28881836,-0.942688,0.23504639,0.5,1.046875,0.640625
56,1697608205,-0.27661133,-0.9468384,0.22625732,0.28125,1.09375,0.53125
57,1697608245,-0.2890625,-0.9417114,0.23504639,0.78125,0.90625,0.828125
58,1697608285,-0.28271484,-0.95196533,0.20428467,1.578125,-0.546875,0.90625
59,1697608325,-0.27319336,-0.9500122,0.230896,2.0,0.078125,1.15625
60,1697608365,-0.3010254,-0.9495239,0.22503662,1.125,0.109375,1.390625
61,1697608405,-0.28344727,-0.9470825,0.22235107,1.015625,1.171875,0.5
62,1697608445,-0.296875,-0.9470825,0.21990967,1.0625,0.15625,0.953125
63,1697608485,-0.2800293,-0.9470825,0.21673584,1.203125,0.234375,0.875
64,1697608525,-0.28149414,-0.95635986,0.21014404,0.671875,0.546875,0.671875
65,1697608565,-0.2800293,-0.9651489,0.22332764,0.09375,0.390625,0.5625
66,1697608605,-0.2849121,-0.9524536,0.20257568,-0.875,1.0,0.46875
67,1697608645,-0.2849121,-0.9512329,0.20526123,-0.78125,0.09375,0.15625
68,1697608685,-0.28198242,-0.95147705,0.2164917,-0.390625,-0.34375,0.015625
69,1697608725,-0.28076172,-0.954895,0.20892334,-0.921875,-0.15625,0.15625
70,1697608765,-0.27978516,-0.9480591,0.20452881,-1.109375,-0.171875,-0.078125
71,1697608805,-0.2878418,-0.95269775,0.20819092,-1.203125,-0.28125,-0.1875
72,1697608845,-0.27954102,-0.95806885,0.22210693,-0.96875,-0.265625,-0.328125
73,1697608885,-0.2944336,-0.9468384,0.19891357,-0.296875,-0.703125,-0.09375
74,1697608925,-0.28759766,-0.9541626,0.22259521,-0.3125,-0.3125,0.0
75,1697608965,-0.2998047,-0.9627075,0.20111084,-1.46875,-0.046875,0.359375
76,1697609005,-0.28344727,-0.9439087,0.21234131,-0.453125,0.359375,0.28125
77,1697609045,-0.29833984,-0.9434204,0.20526123,-0.25,0.078125,0.484375
78,1697609085,-0.28955078,-0.9500122,0.20306396,-0.15625,0.53125,0.78125
79,1697609125,-0.29296875,-0.95513916,0.199646,-0.359375,0.8125,1.0
80,1697609165,-0.29345703,-0.9561157,0.2098999,-0.125,0.828125,1.140625
81,1697609205,-0.2902832,-0.9534302,0.19378662,-0.03125,1.53125,0.96875
82,1697609245,-0.28588867,-0.9512329,0.20574951,0.234375,0.6875,1.53125
83,1697609285,-0.2824707,-0.9561157,0.20916748,0.515625,0.46875,1.140625
84,1697609325,-0.28027344,-0.95880127,0.2008667,0.4375,0.46875,1.109375
85,1697609365,-0.28198242,-0.9495239,0.20379639,-0.046875,0.78125,1.328125
86,1697609405,-0.27392578,-0.95562744,0.19329834,-0.25,1.015625,1.0
87,1697609445,-0.2783203,-0.9619751,0.20355225,-0.546875,0.21875,0.765625
88,1697609485,-0.27783203,-0.9570923,0.21234131,-0.625,1.0,0.28125
89,1697609525,-0.2783203,-0.9673462,0.19989014,-0.703125,1.84375,0.234375
90,1697609565,-0.2800293,-0.956604,0.18011475,-1.65625,1.953125,0.4375
91,1697609605,-0.27392578,-0.9578247,0.21551514,-0.625,1.25,0.375
92,1697609645,-0.27807617,-0.9561157,0.20794678,-1.1875,1.359375,0.078125
93,1697609685,-0.2763672,-0.9573364,0.21258545,-1.5,1.578125,0.03125
94,1697609725,-0.2722168,-0.954895,0.22210693,-1.765625,1.890625,-0.1875
95,1697609765,-0.2763672,-0.9536743,0.2074585,-2.015625,1.265625,-0.03125
96,1697609805,-0.2626953,-0.94976807,0.20574951,-1.5,1.84375,-0.1875
97,1697609845,-0.28149414,-0.9487915,0.21331787,-1.34375,0.828125,0.0
98,1697609885,-0.28173828,-0.956604,0.21478271,-1.125,0.90625,0.28125
99,1697609925,-0.27001953,-0.9541626,0.215271,-0.5,0.953125,0.3125
100,1697609965,-0.27148438,-0.9483032,0.21624756,-0.421875,0.84375,0.421875
101,1697610005,-0.27514648,-0.95025635,0.21722412,-0.234375,0.46875,0.234375
102,1697610045,-0.2763672,-0.960022,0.18548584,0.53125,-0.28125,0.84375
103,1697610085,-0.27539062,-0.940979,0.21453857,1.484375,0.6875,0.53125
104,1697610125,-0.27612305,-0.95806885,0.20843506,1.78125,0.765625,0.828125
105,1697610165,-0.27172852,-0.9522095,0.1954956,1.515625,1.125,1.03125
106,1697610205,-0.28344727,-0.95684814,0.21820068,1.953125,0.03125,1.109375
107,1697610245,-0.28271484,-0.9678345,0.20355225,1.3125,0.65625,0.453125
108,1697610285,-0.27612305,-0.9612427,0.2020874,0.609375,1.015625,0.515625
109,1697610325,-0.26953125,-0.9602661,0.20404053,0.5,1.53125,-0.03125
110,1697610365,-0.28295898,-0.9612427,0.19158936,-0.296875,0.796875,0.46875
111,1697610405,-0.2680664,-0.9573364,0.2020874,-0.125,1.03125,0.59375
112,1697610445,-0.27539062,-0.95880127,0.20257568,-0.1875,0.390625,0.59375
113,1697610485,-0.28271484,-0.9573364,0.19720459,-0.828125,0.625,0.40625
114,1697610525,-0.27978516,-0.9612427,0.20159912,-0.9375,0.65625,0.390625
115,1697610565,-0.27539062,-0.9612427,0.20233154,-1.375,0.875,0.5
116,1697610605,-0.27490234,-0.9517212,0.20013428,-1.71875,0.828125,0.1875
117,1697610645,-0.28344727,-0.96173096,0.1696167,-1.8125,-0.28125,0.609375
118,1697610685,-0.27807617,-0.9561157,0.21673584,-1.703125,0.578125,-0.125
119,1697610725,-0.27661133,-0.95513916,0.21356201,-2.484375,1.359375,0.203125
120,1697610765,-0.27539062,-0.9380493,0.1906128,-2.375,2.046875,-0.0625
121,1697610805,-0.28149414,-0.9524536,0.21917725,-1.484375,0.609375,0.234375
122,1697610845,-0.27905273,-0.96417236,0.2164917,-1.453125,1.046875,0.140625
123,1697610885,-0.27905273,-0.95318604,0.21014404,-1.953125,1.546875,0.109375
124,1697610925,-0.27270508,-0.9492798,0.22381592,-1.46875,1.9375,-0.421875
125,1697610965,-0.29223633,-0.9578247,0.21063232,-1.765625,1.40625,-0.03125
126,1697611005,-0.27124023,-0.95196533,0.21917725,-1.515625,0.875,-0.203125
127,1697611045,-0.28295898,-0.95318604,0.21966553,-0.796875,0.65625,-0.328125
128,1697611085,-0.28320312,-0.94903564,0.22283936,-0.828125,0.6875,-0.0625
129,1697611125,-0.27661133,-0.9475708,0.21673584,-0.5,0.515625,-0.109375
130,1697611165,-0.27978516,-0.94976807,0.21795654,-0.25,0.78125,-0.0625
131,1697611205,-0.28149414,-0.95318604,0.2243042,-0.28125,0.90625,-0.09375
132,1697611245,-0.28564453,-0.95098877,0.1954956,-0.359375,0.09375,0.171875
133,1697611285,-0.27783203,-0.95513916,0.22576904,-0.28125,0.46875,-0.515625
134,1697611325,-0.28271484,-0.94781494,0.22235107,-0.640625,1.390625,-0.234375
135,1697611365,-0.27416992,-0.94195557,0.19989014,-0.78125,1.640625,-0.015625
136,1697611405,-0.28295898,-0.95513916,0.22894287,-0.203125,0.53125,0.0
137,1697611445,-0.28759766,-0.9507446,0.21575928,-0.59375,1.453125,-0.046875
138,1697611485,-0.28076172,-0.95147705,0.21575928,-0.9375,1.375,-0.046875
139,1697611525,-0.28173828,-0.9541626,0.2267456,-0.78125,2.046875,-0.40625
140,1697611565,-0.29101562,-0.96343994,0.21282959,-1.484375,1.421875,-0.125
141,1697611605,-0.27661133,-0.95318604,0.21844482,-1.0,1.109375,0.015625
142,1697611645,-0.28735352,-0.9480591,0.21380615,-0.59375,0.578125,-0.1875
143,1697611685,-0.28198242,-0.9558716,0.21234131,-0.25,0.6875,0.234375
144,1697611725,-0.27734375,-0.9458618,0.21624756,-0.125,0.515625,0.3125
145,1697611765,-0.28198242,-0.95098877,0.20892334,0.0,0.25,0.5
146,1697611805,-0.28710938,-0.958313,0.21746826,-0.171875,0.21875,0.796875
147,1697611845,-0.29003906,-0.9451294,0.20062256,0.0,-0.484375,1.03125
148,1697611885,-0.28051758,-0.958313,0.21502686,0.390625,0.1875,0.375
149,1697611925,-0.28100586,-0.9578247,0.22357178,0.28125,0.265625,1.109375
150,1697611965,-0.27539062,-0.94732666,0.19329834,0.015625,0.5625,1.265625
151,1697612005,-0.28173828,-0.9631958,0.21795654,0.78125,-0.4375,1.484375
152,1697612045,-0.2758789,-0.9536743,0.21673584,0.5625,-0.09375,1.65625
153,1697612085,-0.27539062,-0.95269775,0.20233154,0.390625,0.3125,1.3125
154,1697612125,-0.27392578,-0.96051025,0.2255249,0.515625,0.703125,0.90625
155,1697612165,-0.2783203,-0.95635986,0.20428467,-0.296875,0.421875,1.625
156,1697612205,-0.25634766,-0.9602661,0.21331787,0.109375,-0.078125,1.015625
157,1697612245,-0.2783203,-0.95269775,0.21722412,0.203125,-0.21875,1.609375
158,1697612285,-0.27319336,-0.95147705,0.20672607,-0.03125,0.1875,1.140625
159,1697612325,-0.2705078,-0.95928955,0.20672607,0.109375,-0.03125,0.890625
160,1697612365,-0.27905273,-0.94732666,0.21307373,-0.140625,-0.28125,1.171875
161,1697612405,-0.27197266,-0.95684814,0.20428467,-0.765625,-0.046875,0.578125
162,1697612445,-0.27441406,-0.9644165,0.21942139,-1.171875,-0.0625,0.03125
163,1697612485,-0.27661133,-0.9500122,0.21917725,-0.703125,-0.171875,0.109375
164,1697612525,-0.27856445,-0.9649048,0.21478271,-0.46875,0.125,-0.265625
165,1697612565,-0.27612305,-0.95513916,0.19134521,-1.59375,0.859375,0.21875
166,1697612605,-0.2692871,-0.95269775,0.22894287,-0.671875,1.046875,-0.125
167,1697612645,-0.27856445,-0.9573364,0.21942139,-1.5,1.671875,-0.328125
168,1697612685,-0.2788086,-0.9590454,0.21136475,-1.953125,2.078125,-0.140625
169,1697612725,-0.26635742,-0.9480591,0.21453857,-1.9375,2.4375,-0.015625
170,1697612765,-0.27563477,-0.95635986,0.21307373,-1.796875,2.015625,0.0625
171,1697612805,-0.26220703,-0.9468384,0.20770264,-1.390625,2.96875,-0.125
172,1697612845,-0.2770996,-0.9446411,0.2189331,-1.234375,1.546875,0.1875
173,1697612885,-0.2680664,-0.9468384,0.22698975,-1.1875,1.171875,0.140625
174,1697612925,-0.2709961,-0.95025635,0.22161865,-0.765625,0.953125,-0.15625
175,1697612965,-0.26635742,-0.9553833,0.2218628,-0.53125,0.734375,-0.171875
176,1697613005,-0.26879883,-0.9475708,0.22137451,-0.578125,0.46875,0.234375
177,1697613045,-0.26953125,-0.9495239,0.21917725,-0.53125,0.3125,-0.109375
178,1697613085,-0.26782227,-0.94976807,0.20379639,-0.578125,-0.5,0.46875
179,1697613125,-0.27734375,-0.9439087,0.22918701,0.0625,0.359375,0.15625
180,1697613165,-0.27490234,-0.9619751,0.2333374,0.265625,0.234375,0.203125
181,1697613205,-0.27514648,-0.9439087,0.20648193,-0.75,0.234375,0.21875
182,1697613245,-0.2836914,-0.9561157,0.22723389,-0.40625,-1.109375,0.015625
183,1697613285,-0.2775879,-0.95758057,0.22528076,-0.859375,-0.234375,-0.171875
184,1697613325,-0.2783203,-0.9492798,0.22796631,-1.015625,-0.015625,0.171875
185,1697613365,-0.27563477,-0.94195557,0.2255249,-0.53125,0.875,-0.34375
186,1697613405,-0.27954102,-0.9578247,0.21966553,-0.734375,0.34375,0.109375
187,1697613445,-0.27539062,-0.9570923,0.23504639,-0.625,0.828125,0.484375
188,1697613485,-0.27978516,-0.9553833,0.22088623,-0.6875,0.1875,0.25
189,1697613525,-0.28149414,-0.9546509,0.22088623,-0.90625,0.5,0.21875
190,1697613565,-0.2788086,-0.94195557,0.21356201,-0.875,1.109375,0.40625
191,1697613605,-0.27734375,-0.95758057,0.21478271,-0.671875,1.046875,0.0625
192,1697613645,-0.28100586,-0.9468384,0.21624756,-0.75,1.25,0.328125
193,1697613685,-0.27954102,-0.9475708,0.21942139,-0.421875,1.546875,0.125
194,1697613725,-0.28710938,-0.9585571,0.20135498,-0.453125,0.65625,0.71875
195,1697613765,-0.2763672,-0.9390259,0.22454834,-0.6875,1.5,0.3125
196,1697613805,-0.27905273,-0.95928955,0.22210693,-1.15625,1.875,0.21875
197,1697613845,-0.26953125,-0.9439087,0.21600342,-1.0,2.1875,0.140625
198,1697613885,-0.2854004,-0.9492798,0.2243042,-0.5625,0.640625,0.75
199,1697613925,-0.28515625,-0.9536743,0.2267456,-0.578125,0.96875,0.28125
200,1697613965,-0.27856445,-0.9500122,0.22772217,-1.015625,0.84375,0.28125
201,1697614005,-0.26586914,-0.9534302,0.22723389,-1.140625,0.890625,-0.171875
202,1697614045,-0.28320312,-0.9614868,0.21502686,-1.0,0.46875,0.0
203,1697614085,-0.27368164,-0.94903564,0.230896,-0.921875,-0.25,0.546875
204,1697614125,-0.28735352,-0.9507446,0.22406006,-0.578125,-0.609375,0.3125
205,1697614165,-0.28100586,-0.9612427,0.23699951,-0.59375,-0.359375,0.296875
206,1697614205,-0.2841797,-0.9522095,0.24090576,-0.703125,-0.03125,0.546875
207,1697614245,-0.2800293,-0.9529419,0.22625732,-1.125,-0.25,0.359375
208,1697614285,-0.28100586,-0.95391846,0.2333374,-1.28125,0.46875,0.453125
209,1697614325,-0.28686523,-0.9336548,0.23602295,-1.265625,0.5,0.40625
210,1697614365,-0.29052734,-0.944397,0.22918701,-0.109375,0.21875,0.234375
211,1697614405,-0.28320312,-0.9570923,0.23162842,0.046875,0.640625,1.125
212,1697614445,-0.27197266,-0.9348755,0.20721436,-0.46875,0.90625,1.375
213,1697614485,-0.25756836,-0.94854736,0.2399292,0.671875,0.65625,0.625
214,1697614525,-0.28125,-0.9483032,0.23187256,0.4375,-0.09375,0.78125
215,1697614565,-0.27246094,-0.956604,0.22113037,0.046875,0.0625,0.6875
216,1697614605,-0.26831055,-0.9439087,0.2243042,0.171875,-0.015625,0.46875
217,1697614645,-0.27807617,-0.94781494,0.2296753,0.140625,-1.015625,0.515625
218,1697614685,-0.26489258,-0.95196533,0.21697998,0.3125,0.03125,0.359375
219,1697614725,-0.28344727,-0.94488525,0.22332764,0.25,-1.015625,0.796875
220,1697614765,-0.27905273,-0.954895,0.23016357,0.8125,-0.984375,0.953125
221,1697614805,-0.27905273,-0.9553833,0.2267456,0.984375,-1.015625,0.875
222,1697614845,-0.2775879,-0.94903564,0.22210693,0.84375,-0.984375,0.875
223,1697614885,-0.27539062,-0.94488525,0.21478271,0.90625,-0.6875,1.09375
224,1697614925,-0.26635742,-0.940979,0.20257568,0.984375,-0.703125,1.03125
225,1697614965,-0.28027344,-0.94854736,0.17230225,1.90625,-1.359375,1.25
226,1697615005,-0.2705078,-0.9644165,0.2140503,2.171875,-0.75,0.65625
227,1697615045,-0.28833008,-0.9690552,0.21575928,0.46875,0.578125,0.5625
228,1697615085,-0.2685547,-0.9451294,0.19598389,0.359375,1.984375,-0.09375
229,1697615125,-0.28686523,-0.96051025,0.2074585,0.765625,1.078125,0.234375
230,1697615165,-0.27954102,-0.9673462,0.20892334,0.359375,2.375,0.125
231,1697615205,-0.28271484,-0.96051025,0.20037842,0.109375,2.59375,-0.078125
232,1697615245,-0.27270508,-0.9627075,0.20697021,-0.125,3.484375,-0.296875
233,1697615285,-0.27441406,-0.9573364,0.19281006,-0.3125,3.265625,0.078125
234,1697615325,-0.2770996,-0.9607544,0.20452881,-0.09375,3.1875,0.015625
235,1697615365,-0.2861328,-0.9578247,0.20404053,0.0625,2.953125,-0.1875
236,1697615405,-0.2775879,-0.95440674,0.20501709,-0.078125,3.46875,-0.03125
237,1697615445,-0.27954102,-0.96051025,0.20257568,-0.078125,3.34375,-0.15625
238,1697615485,-0.2722168,-0.95758057,0.19329834,-0.140625,3.265625,-0.015625
239,1697615525,-0.27685547,-0.954895,0.20184326,-0.15625,3.609375,0.046875
240,1697615565,-0.2734375,-0.95806885,0.22406006,0.109375,3.890625,0.21875
241,1697615605,-0.28173828,-0.9595337,0.20111084,0.453125,2.96875,0.546875
242,1697615645,-0.26708984,-0.96099854,0.2140503,0.34375,3.40625,0.3125
243,1697615685,-0.2705078,-0.9573364,0.19036865,-1.1875,3.28125,0.71875
244,1697615725,-0.2644043,-0.9505005,0.20062256,-0.203125,3.6875,0.28125
245,1697615765,-0.27124023,-0.9541626,0.20550537,-0.109375,3.125,0.0625
246,1697615805,-0.2644043,-0.9536743,0.20281982,-0.40625,3.03125,-0.375
247,1697615845,-0.27661133,-0.9475708,0.20135498,-0.40625,3.5,-0.734375
248,1697615885,-0.26904297,-0.960022,0.21063232,-0.109375,3.609375,-0.5625
249,1697615925,-0.28100586,-0.94537354,0.20159912,0.03125,4.828125,-0.34375
250,1697615965,-0.2878418,-0.9561157,0.20501709,0.234375,4.359375,0.5625
251,1697616005,-0.2788086,-0.97076416,0.21185303,0.296875,4.546875,0.3125
252,1697616045,-0.2783203,-0.954895,0.2062378,-0.015625,4.6875,-0.015625
253,1697616085,-0.2746582,-0.9536743,0.20257568,0.109375,4.875,-0.484375
254,1697616125,-0.2709961,-0.956604,0.20452881,0.03125,4.953125,-0.421875
255,1697616165,-0.26171875,-0.95928955,0.20526123,0.125,5.0,-0.765625
256,1697616205,-0.27246094,-0.9522095,0.21697998,-0.09375,4.953125,-0.6875
257,1697616245,-0.26245117,-0.9522095,0.2098999,0.5625,4.703125,-1.046875
258,1697616285,-0.26953125,-0.9639282,0.21356201,0.921875,4.65625,-0.828125
259,1697616325,-0.25927734,-0.958313,0.18743896,-0.359375,4.171875,-0.28125
260,1697616365,-0.2602539,-0.9570923,0.21795654,0.609375,3.640625,-0.703125
261,1697616405,-0.2692871,-0.9678345,0.20965576,0.34375,3.40625,-0.59375
262,1697616445,-0.26293945,-0.95635986,0.20355225,-0.03125,3.015625,-0.203125
263,1697616485,-0.25732422,-0.9534302,0.20037842,0.53125,2.5625,-0.484375
264,1697616525,-0.26367188,-0.9578247,0.20501709,0.609375,1.78125,0.359375
265,1697616565,-0.24438477,-0.95269775,0.19598389,0.453125,1.96875,0.265625
266,1697616605,-0.26123047,-0.9558716,0.20159912,0.078125,0.125,0.625
267,1697616645,-0.27148438,-0.9558716,0.20550537,-0.140625,-0.203125,0.453125
268,1697616685,-0.26245117,-0.9602661,0.19769287,-0.375,-0.671875,0.515625
269,1697616725,-0.27197266,-0.9590454,0.20233154,-0.5,-0.96875,0.390625
270,1697616765,-0.27270508,-0.9495239,0.20379639,-0.734375,-1.5625,0.5
271,1697616805,-0.26538086,-0.9627075,0.19793701,-1.34375,-1.671875,0.09375
272,1697616845,-0.2626953,-0.9590454,0.2140503,-1.46875,-2.125,0.5
273,1697616885,-0.26367188,-0.94976807,0.20672607,-0.4375,-2.265625,0.5625
274,1697616925,-0.2705078,-0.9612427,0.2062378,-0.03125,-1.984375,0.34375
275,1697616965,-0.27392578,-0.95977783,0.1828003,-0.9375,-1.796875,1.046875
276,1697617005,-0.26342773,-0.95391846,0.21380615,-0.375,-1.546875,0.484375
277,1697617045,-0.28393555,-0.9649048,0.20843506,-1.296875,-2.21875,0.4375
278,1697617085,-0.27392578,-0.9651489,0.20379639,-1.875,-1.78125,0.375
279,1697617125,-0.27001953,-0.9546509,0.20013428,-2.390625,-1.375,0.265625
280,1697617165,-0.27978516,-0.95758057,0.20819092,-2.28125,-1.8125,0.703125
281,1697617205,-0.26538086,-0.95391846,0.19598389,-1.796875,-0.84375,0.390625
282,1697617245,-0.27441406,-0.9468384,0.2140503,-2.078125,-1.84375,0.828125
283,1697617285,-0.28271484,-0.9529419,0.21331787,-2.0,-1.75,0.65625
284,1697617325,-0.2800293,-0.9602661,0.21160889,-1.6875,-1.8125,0.28125
285,1697617365,-0.2854004,-0.95684814,0.21942139,-1.703125,-1.21875,0.140625
286,1697617405,-0.27612305,-0.9500122,0.20697021,-1.71875,-1.359375,-0.078125
287,1697617445,-0.28076172,-0.9507446,0.2140503,-1.5,-0.875,-0.28125
288,1697617485,-0.28833008,-0.9534302,0.21966553,-1.734375,-0.96875,-0.15625
289,1697617525,-0.28637695,-0.94537354,0.22845459,-1.171875,-1.03125,-1.078125
290,1697617565,-0.28637695,-0.9656372,0.2177124,-1.28125,-0.0625,-0.59375
291,1697617605,-0.28881836,-0.94903564,0.20281982,-2.1875,0.546875,-0.296875
292,1697617645,-0.2788086,-0.9546509,0.22064209,-1.6875,0.71875,-0.390625
293,1697617685,-0.2836914,-0.9536743,0.21990967,-1.71875,0.6875,-0.1875
294,1697617725,-0.2770996,-0.9487915,0.22991943,-2.203125,1.265625,0.125
295,1697617765,-0.2763672,-0.93707275,0.22454834,-2.328125,1.71875,-0.03125
296,1697617805,-0.28588867,-0.9536743,0.2296753,-2.03125,0.84375,-0.046875
297,1697617845,-0.26611328,-0.94000244,0.2243042,-1.625,2.28125,0.125
298,1697617885,-0.27612305,-0.9402466,0.23138428,-1.21875,0.71875,0.421875
299,1697617925,-0.28686523,-0.9483032,0.23382568,-0.640625,0.265625,0.375
300,1697617965,-0.28344727,-0.9487915,0.22943115,-0.34375,-0.015625,0.15625
301,1697618005,-0.27685547,-0.94659424,0.21844482,0.265625,-0.09375,0.453125
302,1697618045,-0.27905273,-0.9483032,0.21307373,0.765625,-0.203125,0.578125
303,1697618085,-0.28173828,-0.94366455,0.23675537,0.515625,-0.171875,0.8125
304,1697618125,-0.27929688,-0.93927,0.20404053,1.53125,-1.046875,1.0625
305,1697618165,-0.28564453,-0.95806885,0.23309326,1.0625,-0.421875,0.375
306,1697618205,-0.29345703,-0.9536743,0.22747803,-0.15625,0.484375,0.5
307,1697618245,-0.28271484,-0.9529419,0.21258545,-0.140625,0.96875,-0.28125
308,1697618285,-0.28881836,-0.95684814,0.22406006,-0.375,0.421875,-0.296875
309,1697618325,-0.2824707,-0.95318604,0.2230835,-0.734375,0.9375,-0.5625
310,1697618365,-0.28857422,-0.9529419,0.21868896,-1.203125,0.90625,-0.59375
311,1697618405,-0.28100586,-0.9573364,0.22650146,-1.46875,1.5,-0.921875
312,1697618445,-0.29101562,-0.9475708,0.20721436,-1.640625,1.359375,-0.59375
313,1697618485,-0.2841797,-0.9507446,0.21038818,-0.84375,0.671875,-0.578125
314,1697618525,-0.2854004,-0.95269775,0.21429443,0.03125,0.25,-0.546875
315,1697618565,-0.2902832,-0.9458618,0.22210693,0.265625,-0.03125,0.234375
316,1697618605,-0.29467773,-0.94781494,0.21356201,0.609375,-0.515625,0.203125
317,1697618645,-0.28808594,-0.9524536,0.22210693,0.15625,-0.65625,0.28125
318,1697618685,-0.30639648,-0.94415283,0.22113037,-0.5625,-0.8125,0.171875
319,1697618725,-0.3034668,-0.94854736,0.1906128,-0.59375,-1.21875,0.375
320,1697618765,-0.29296875,-0.954895,0.22381592,-0.078125,-0.546875,-0.03125
321,1697618805,-0.3022461,-0.9468384,0.22357178,0.3125,-0.265625,0.734375
322,1697618845,-0.29077148,-0.944397,0.19451904,0.109375,0.4375,1.0625
323,1697618885,-0.29223633,-0.95928955,0.2230835,0.71875,-0.859375,1.265625
324,1697618925,-0.30029297,-0.9468384,0.21551514,0.46875,0.28125,1.40625
325,1697618965,-0.28686523,-0.9553833,0.20794678,0.171875,0.421875,1.109375
326,1697619005,-0.28979492,-0.94659424,0.21673584,0.40625,1.21875,1.28125
327,1697619045,-0.29077148,-0.95196533,0.20184326,0.15625,0.484375,1.359375
328,1697619085,-0.2770996,-0.95513916,0.20965576,0.65625,1.046875,1.515625
329,1697619125,-0.2890625,-0.9487915,0.20916748,0.609375,0.125,1.609375
330,1697619165,-0.28808594,-0.9573364,0.20526123,0.640625,0.515625,1.328125
331,1697619205,-0.28271484,-0.9558716,0.20428467,0.625,0.578125,1.609375
332,1697619245,-0.28637695,-0.9456177,0.20452881,0.640625,0.296875,1.3125
333,1697619285,-0.27905273,-0.9573364,0.19989014,0.53125,0.515625,1.0625
334,1697619325,-0.28222656,-0.9590454,0.18963623,0.890625,-0.078125,1.421875
335,1697619365,-0.2775879,-0.942688,0.19647217,1.015625,0.828125,0.5625
336,1697619405,-0.2746582,-0.9627075,0.20306396,0.953125,0.515625,0.75
337,1697619445,-0.2709961,-0.954895,0.18109131,0.703125,1.28125,1.046875
338,1697619485,-0.2836914,-0.96099854,0.2008667,1.1875,-0.0625,0.609375
339,1697619525,-0.27783203,-0.9717407,0.19793701,1.03125,0.734375,0.375
340,1697619565,-0.27954102,-0.9607544,0.20281982,0.125,0.53125,0.578125
341,1697619605,-0.27514648,-0.94488525,0.1906128,0.0625,1.125,0.046875
342,1697619645,-0.28149414,-0.9656372,0.18548584,-0.265625,0.6875,0.515625
343,1697619685,-0.26416016,-0.9475708,0.1852417,0.25,0.875,0.4375
344,1697619725,-0.27001953,-0.9624634,0.18914795,0.03125,0.09375,0.515625
345,1697619765,-0.27734375,-0.9800415,0.19696045,-0.203125,0.03125,0.46875
346,1697619805,-0.2836914,-0.9636841,0.1876831,-0.578125,0.34375,0.53125
347,1697619845,-0.27954102,-0.96051025,0.18304443,-0.71875,0.3125,0.203125
348,1697619885,-0.27197266,-0.95928955,0.18792725,-1.328125,0.234375,0.21875
349,1697619925,-0.27416992,-0.9417114,0.19476318,-1.59375,-0.078125,0.375
350,1697619965,-0.2607422,-0.95440674,0.1762085,-0.578125,-0.3125,-0.015625
351,1697620005,-0.26660156,-0.9668579,0.18719482,0.21875,-0.859375,0.359375
352,1697620045,-0.2758789,-0.9585571,0.16351318,-0.5,-0.28125,1.09375
353,1697620085,-0.26245117,-0.94195557,0.18914795,0.328125,-0.6875,0.578125
354,1697620125,-0.28442383,-0.9668579,0.18475342,0.375,-0.578125,0.453125
355,1697620165,-0.2788086,-0.95196533,0.17572021,0.109375,0.265625,0.703125
356,1697620205,-0.27148438,-0.94976807,0.1762085,0.15625,0.78125,0.484375
357,1697620245,-0.27270508,-0.9751587,0.18231201,0.171875,0.375,0.1875
358,1697620285,-0.27392578,-0.96539307,0.18231201,0.328125,1.96875,0.59375
359,1697620325,-0.28588867,-0.9570923,0.18426514,-0.078125,0.765625,0.78125
360,1697620365,-0.27856445,-0.9612427,0.1774292,-0.1875,1.109375,0.21875
361,1697620405,-0.2692871,-0.96417236,0.1798706,0.0625,1.34375,0.421875
362,1697620445,-0.27124023,-0.9751587,0.18670654,-0.4375,1.359375,0.390625
363,1697620485,-0.27856445,-0.97320557,0.19476318,-1.34375,1.046875,0.375
364,1697620525,-0.27246094,-0.95928955,0.18426514,-1.421875,1.609375,0.46875
365,1697620565,-0.28295898,-0.95928955,0.17694092,-1.640625,0.53125,0.59375
366,1697620605,-0.2705078,-0.9529419,0.1852417,-0.953125,0.859375,-0.03125
367,1697620645,-0.27441406,-0.9746704,0.18914795,-0.59375,0.203125,0.328125
368,1697620685,-0.265625,-0.9470825,0.1593628,-1.203125,0.09375,0.8125
369,1697620725,-0.2607422,-0.9612427,0.1852417,-0.640625,-0.8125,0.65625
370,1697620765,-0.2758789,-0.9546509,0.18060303,-0.625,-0.609375,0.546875
371,1697620805,-0.27148438,-0.95880127,0.17938232,-1.140625,0.0625,0.3125
372,1697620845,-0.27441406,-0.9529419,0.19036865,-0.984375,1.09375,-0.109375
373,1697620885,-0.27514648,-0.9561157,0.18450928,-1.453125,0.953125,0.21875
374,1697620925,-0.2578125,-0.95758057,0.18450928,-1.21875,1.28125,-0.171875
375,1697620965,-0.28271484,-0.9631958,0.19696045,-1.375,0.65625,-0.03125
376,1697621005,-0.2836914,-0.96221924,0.20428467,-1.703125,1.359375,-0.078125
377,1697621045,-0.28076172,-0.95391846,0.2020874,-1.78125,1.640625,-0.40625
378,1697621085,-0.27905273,-0.9507446,0.19744873,-1.828125,1.453125,-0.578125
379,1697621125,-0.27661133,-0.94781494,0.20452881,-1.953125,1.1875,-0.4375
380,1697621165,-0.2763672,-0.96051025,0.20184326,-1.890625,1.40625,-0.6875
381,1697621205,-0.27954102,-0.9446411,0.20599365,-1.734375,1.25,-0.21875
382,1697621245,-0.27612305,-0.9505005,0.21185303,-0.640625,1.46875,-0.46875
383,1697621285,-0.2849121,-0.9661255,0.20892334,-0.640625,1.484375,-0.1875
384,1697621325,-0.27001953,-0.95635986,0.18011475,-1.671875,1.671875,-0.09375
385,1697621365,-0.2734375,-0.9517212,0.215271,-0.84375,1.40625,-0.171875
386,1697621405,-0.28100586,-0.95562744,0.20965576,-0.84375,0.890625,-0.015625
387,1697621445,-0.27563477,-0.9492798,0.2074585,-0.78125,0.765625,0.125
388,1697621485,-0.27392578,-0.942688,0.2074585,-0.4375,1.1875,0.1875
389,1697621525,-0.28344727,-0.95098877,0.20159912,-0.203125,0.296875,0.296875
390,1697621565,-0.26635742,-0.9487915,0.20501709,-0.03125,1.09375,-0.0625
391,1697621605,-0.28320312,-0.9456177,0.20452881,-0.296875,-0.0625,0.546875
392,1697621645,-0.28271484,-0.95196533,0.19940186,-0.171875,0.046875,0.265625
393,1697621685,-0.28149414,-0.9512329,0.20697021,0.109375,-0.171875,0.46875
394,1697621725,-0.27416992,-0.9541626,0.19329834,0.671875,-0.15625,0.546875
395,1697621765,-0.28027344,-0.9585571,0.199646,0.546875,-0.4375,0.65625
396,1697621805,-0.28125,-0.95758057,0.20111084,0.015625,0.0,0.265625
397,1697621845,-0.28930664,-0.94659424,0.18206787,-0.265625,-0.40625,0.46875
398,1697621885,-0.27954102,-0.9507446,0.19451904,0.21875,-0.234375,-0.265625
399,1697621925,-0.27905273,-0.96343994,0.20501709,0.5,0.234375,0.3125
400,1697621965,-0.28735352,-0.9624634,0.18304443,-0.3125,0.625,0.21875
401,1697622005,-0.28027344,-0.9602661,0.20452881,0.140625,0.0625,0.3125
402,1697622045,-0.28881836,-0.9553833,0.20477295,-0.140625,0.5,0.140625
403,1697622085,-0.2849121,-0.954895,0.19329834,-0.296875,0.46875,0.3125
404,1697622125,-0.27734375,-0.9483032,0.20111084,0.0625,0.984375,0.453125
405,1697622165,-0.28857422,-0.95880127,0.19085693,-0.328125,0.421875,0.578125
406,1697622205,-0.27075195,-0.9558716,0.1954956,-0.09375,0.96875,0.265625
407,1697622245,-0.29101562,-0.9456177,0.19525146,-0.390625,-0.078125,0.328125
408,1697622285,-0.28955078,-0.95977783,0.19647217,-0.53125,0.40625,0.25
409,1697622325,-0.2919922,-0.9524536,0.19598389,-0.703125,0.578125,0.015625
410,1697622365,-0.27661133,-0.9590454,0.19647217,-0.546875,0.734375,0.109375
411,1697622405,-0.2788086,-0.9529419,0.18939209,-0.53125,0.484375,-0.078125
412,1697622445,-0.28149414,-0.9553833,0.19207764,-0.4375,0.671875,-0.09375
413,1697622485,-0.29077148,-0.94732666,0.16693115,-0.1875,-0.34375,0.265625
414,1697622525,-0.28588867,-0.95318604,0.19354248,0.15625,0.90625,-0.28125
415,1697622565,-0.28686523,-0.95977783,0.1984253,-0.578125,1.0,0.046875
416,1697622605,-0.28344727,-0.94610596,0.18719482,-0.890625,1.578125,-0.09375
417,1697622645,-0.29907227,-0.9570923,0.2008667,-0.84375,0.625,-0.125
418,1697622685,-0.2919922,-0.95562744,0.19500732,-0.703125,1.125,-0.28125
419,1697622725,-0.2866211,-0.95147705,0.19256592,-1.046875,1.3125,0.078125
420,1697622765,-0.28759766,-0.9512329,0.1930542,-0.625,1.6875,-0.34375
421,1697622805,-0.29541016,-0.9534302,0.18328857,-0.796875,1.1875,0.03125
422,1697622845,-0.27929688,-0.95269775,0.19671631,-0.546875,0.671875,0.1875
423,1697622885,-0.29370117,-0.9570923,0.2008667,-0.390625,0.4375,0.40625
424,1697622925,-0.29077148,-0.9590454,0.18743896,-0.328125,0.65625,0.5625
425,1697622965,-0.28442383,-0.9529419,0.19232178,0.0625,1.109375,0.734375
426,1697623005,-0.28222656,-0.9573364,0.18597412,0.125,1.03125,0.984375
427,1697623045,-0.27612305,-0.9578247,0.18963623,0.203125,0.8125,1.09375
428,1697623085,-0.2841797,-0.9558716,0.19793701,-0.140625,0.953125,0.828125
429,1697623125,-0.28173828,-0.9524536,0.1749878,0.078125,-0.375,0.953125
430,1697623165,-0.27172852,-0.95880127,0.18792725,0.046875,0.421875,0.6875
431,1697623205,-0.2836914,-0.95635986,0.18792725,-0.984375,0.4375,0.734375
432,1697623245,-0.27197266,-0.94488525,0.18109131,-0.21875,1.078125,0.21875
433,1697623285,-0.29003906,-0.9590454,0.1930542,-0.46875,0.25,0.46875
434,1697623325,-0.28393555,-0.9541626,0.1906128,-0.515625,0.671875,0.390625
435,1697623365,-0.28125,-0.9534302,0.1852417,-0.703125,0.984375,0.1875
436,1697623405,-0.27612305,-0.9639282,0.20037842,-0.71875,0.890625,0.0
437,1697623445,-0.29174805,-0.95391846,0.18353271,-0.984375,0.859375,0.4375
438,1697623485,-0.29101562,-0.9590454,0.19476318,-0.875,0.25,0.171875
439,1697623525,-0.2902832,-0.9612427,0.1984253,-0.3125,0.296875,0.28125
440,1697623565,-0.29101562,-0.9578247,0.19403076,-0.625,0.84375,0.28125
441,1697623605,-0.2770996,-0.9507446,0.18792725,-0.4375,1.109375,0.25
442,1697623645,-0.2800293,-0.96539307,0.19451904,-0.359375,1.3125,0.4375
443,1697623685,-0.28466797,-0.95513916,0.19036865,-0.46875,1.640625,0.453125
444,1697623725,-0.2746582,-0.95562744,0.2033081,-0.59375,1.625,0.328125
445,1697623765,-0.28027344,-0.95147705,0.17889404,0.0625,0.65625,0.875
446,1697623805,-0.2746582,-0.9505005,0.20574951,0.515625,1.640625,0.203125
447,1697623845,-0.28344727,-0.96173096,0.18792725,-0.828125,1.4375,0.578125
448,1697623885,-0.28222656,-0.94903564,0.19036865,-0.078125,2.234375,0.109375
449,1697623925,-0.28588867,-0.9558716,0.19573975,-0.1875,1.484375,0.40625
450,1697623965,-0.2841797,-0.96759033,0.20184326,-0.609375,1.9375,0.34375
451,1697624005,-0.28149414,-0.9507446,0.19720459,-1.15625,1.8125,0.234375
452,1697624045,-0.27368164,-0.95391846,0.20281982,-1.375,2.046875,-0.078125
453,1697624085,-0.28588867,-0.9668579,0.19500732,-2.6875,1.078125,-0.140625
454,1697624125,-0.27392578,-0.95269775,0.19476318,-2.21875,0.421875,0.234375
455,1697624165,-0.28295898,-0.9500122,0.19573975,-1.5,0.703125,-0.171875
456,1697624205,-0.27490234,-0.95684814,0.19940186,-1.03125,0.78125,-0.109375
457,1697624245,-0.2775879,-0.9480591,0.19866943,-0.921875,0.8125,0.078125
458,1697624285,-0.2775879,-0.95318604,0.19256592,-0.671875,0.515625,0.015625
459,1697624325,-0.2836914,-0.9607544,0.19671631,-0.5,0.640625,-0.078125
460,1697624365,-0.28588867,-0.9492798,0.20477295,-0.8125,0.703125,0.078125
461,1697624405,-0.28588867,-0.9529419,0.21014404,0.0,0.34375,-0.328125
462,1697624445,-0.28808594,-0.9644165,0.20135498,0.15625,0.5625,0.3125
463,1697624485,-0.28759766,-0.944397,0.1774292,-0.515625,1.078125,0.46875
464,1697624525,-0.27734375,-0.9500122,0.20599365,0.671875,1.375,0.109375
465,1697624565,-0.29492188,-0.9534302,0.19818115,0.59375,1.40625,0.4375
466,1697624605,-0.2836914,-0.95147705,0.20379639,0.234375,1.375,0.453125
467,1697624645,-0.2770996,-0.95025635,0.2008667,-0.15625,1.484375,0.40625
468,1697624685,-0.28930664,-0.9553833,0.19793701,-0.28125,0.890625,0.359375
469,1697624725,-0.27416992,-0.94781494,0.1984253,-0.265625,1.703125,0.140625
470,1697624765,-0.28979492,-0.9492798,0.2008667,-0.15625,0.671875,0.359375
471,1697624805,-0.28637695,-0.9553833,0.20452881,0.046875,0.765625,0.3125
472,1697624845,-0.28173828,-0.9507446,0.19744873,-0.203125,0.640625,0.328125
473,1697624885,-0.2878418,-0.9595337,0.20037842,-0.53125,0.421875,0.421875
474,1697624925,-0.29223633,-0.9614868,0.2062378,-0.703125,0.4375,0.234375
475,1697624965,-0.28173828,-0.95269775,0.2020874,-1.125,0.4375,0.28125
476,1697625005,-0.28564453,-0.9458618,0.20672607,0.03125,0.140625,0.03125
477,1697625045,-0.28637695,-0.96417236,0.199646,0.421875,0.703125,0.21875
478,1697625085,-0.28344727,-0.9492798,0.18426514,-0.515625,0.546875,0.640625
479,1697625125,-0.27978516,-0.95318604,0.2062378,0.5,0.765625,0.078125
480,1697625165,-0.29248047,-0.9639282,0.20404053,-0.21875,0.140625,0.234375
481,1697625205,-0.28515625,-0.9480591,0.20135498,-0.53125,0.515625,0.171875
482,1697625245,-0.27783203,-0.958313,0.1954956,-0.828125,0.90625,0.15625
483,1697625285,-0.2800293,-0.9602661,0.19036865,-0.625,0.90625,0.390625
484,1697625325,-0.27685547,-0.9463501,0.19329834,-0.296875,1.484375,0.171875
485,1697625365,-0.28100586,-0.94488525,0.19647217,0.265625,0.359375,0.546875
486,1697625405,-0.28173828,-0.958313,0.19696045,0.515625,0.34375,0.484375
487,1697625445,-0.28271484,-0.9541626,0.20501709,0.203125,0.265625,0.328125
488,1697625485,-0.2861328,-0.9595337,0.19012451,-0.484375,-0.046875,0.125
489,1697625525,-0.28759766,-0.9529419,0.18939209,-0.609375,0.015625,-0.078125
490,1697625565,-0.28979492,-0.95391846,0.17596436,0.0,-0.609375,0.625
491,1697625605,-0.27563477,-0.95758057,0.19720459,-0.09375,0.484375,-0.015625
492,1697625645,-0.2841797,-0.95684814,0.19891357,-0.59375,0.28125,0.359375
493,1697625685,-0.27490234,-0.96051025,0.16326904,-1.390625,0.9375,0.265625
494,1697625725,-0.28955078,-0.95635986,0.19720459,0.0,0.9375,-0.015625
495,1697625765,-0.28930664,-0.96832275,0.20550537,-0.9375,0.515625,0.125
496,1697625805,-0.28588867,-0.9570923,0.1918335,-1.28125,0.90625,0.125
497,1697625845,-0.2836914,-0.9512329,0.19500732,-1.25,1.640625,-0.328125
498,1697625885,-0.2836914,-0.9546509,0.19036865,-0.9375,1.25,0.140625
499,1697625925,-0.28442383,-0.9487915,0.20477295,-0.328125,0.5625,0.390625
500,1697625965,-0.2927246,-0.9595337,0.20111084,-0.375,0.03125,0.265625
501,1697626005,-0.29223633,-0.95196533,0.1906128,-0.8125,0.453125,0.21875
502,1697626045,-0.2902832,-0.9500122,0.20013428,-0.6875,0.359375,0.265625
503,1697626085,-0.28955078,-0.9468384,0.1954956,-0.65625,0.125,0.34375
504,1697626125,-0.29052734,-0.9522095,0.20404053,-0.71875,0.15625,0.375
505,1697626165,-0.2866211,-0.94854736,0.20379639,0.078125,-0.03125,0.1875
506,1697626205,-0.29760742,-0.956604,0.20281982,-0.1875,0.609375,0.375
507,1697626245,-0.29125977,-0.954895,0.18914795,-1.40625,0.546875,0.421875
508,1697626285,-0.28076172,-0.9546509,0.20404053,-0.515625,1.046875,0.234375
509,1697626325,-0.2890625,-0.9429321,0.20379639,-0.4375,0.84375,0.5625
510,1697626365,-0.29077148,-0.9585571,0.20550537,-1.03125,0.9375,0.015625
511,1697626405,-0.2854004,-0.9483032,0.20404053,-1.21875,1.578125,0.359375
512,1697626445,-0.28808594,-0.94659424,0.20257568,-1.375,1.28125,0.21875
513,1697626485,-0.2758789,-0.9439087,0.20062256,-1.171875,1.875,-0.203125
514,1697626525,-0.29663086,-0.9522095,0.2074585,-1.1875,1.015625,0.0
515,1697626565,-0.28833008,-0.9522095,0.2074585,-1.328125,1.234375,0.015625
516,1697626605,-0.29077148,-0.95806885,0.2098999,-1.515625,1.296875,-0.21875
517,1697626645,-0.28588867,-0.9505005,0.21429443,-1.59375,1.765625,-0.15625
518,1697626685,-0.28295898,-0.9492798,0.22796631,-2.0,1.578125,-0.5
519,1697626725,-0.28393555,-0.944397,0.20819092,-1.53125,0.921875,-0.4375
520,1697626765,-0.28710938,-0.95196533,0.21600342,-1.140625,1.71875,-0.46875
521,1697626805,-0.28955078,-0.94366455,0.21258545,-2.015625,1.8125,-0.390625
522,1697626845,-0.2770996,-0.9314575,0.21673584,-1.078125,2.671875,-0.390625
523,1697626885,-0.29174805,-0.9421997,0.2267456,-1.171875,2.03125,-0.21875
524,1697626925,-0.29125977,-0.95098877,0.23016357,-1.484375,2.65625,-0.578125
525,1697626965,-0.29663086,-0.9546509,0.2255249,-2.5,2.734375,-0.40625
526,1697627005,-0.2944336,-0.9480591,0.21844482,-2.28125,2.1875,-0.515625
527,1697627045,-0.29760742,-0.94854736,0.230896,-2.109375,2.75,-0.875
528,1697627085,-0.30151367,-0.9570923,0.23406982,-2.84375,1.921875,-0.96875
529,1697627125,-0.30004883,-0.9417114,0.23944092,-2.953125,1.78125,-0.890625
530,1697627165,-0.29003906,-0.93341064,0.22088623,-1.78125,1.890625,-0.671875
531,1697627205,-0.28808594,-0.93829346,0.23406982,-1.125,1.78125,-0.234375
532,1697627245,-0.29492188,-0.9404907,0.24749756,-0.75,1.65625,0.0
533,1697627285,-0.2993164,-0.94366455,0.22772217,-0.953125,0.328125,-0.09375
534,1697627325,-0.29711914,-0.94415283,0.23529053,-1.234375,1.109375,-0.171875
535,1697627365,-0.30126953,-0.9417114,0.22528076,-1.875,0.78125,-0.28125
536,1697627405,-0.28955078,-0.93756104,0.2267456,-0.515625,1.25,-0.375
537,1697627445,-0.3154297,-0.9536743,0.23968506,-0.40625,0.375,0.3125
538,1697627485,-0.3005371,-0.94854736,0.24383545,-0.609375,1.234375,-0.109375
539,1697627525,-0.30859375,-0.9390259,0.23406982,-0.859375,1.34375,-0.046875
540,1697627565,-0.2993164,-0.93829346,0.2321167,-0.203125,0.796875,0.140625
541,1697627605,-0.29956055,-0.9336548,0.22796631,0.0,1.40625,0.546875
542,1697627645,-0.2956543,-0.9458618,0.22918701,0.234375,0.546875,0.5
543,1697627685,-0.30810547,-0.93951416,0.22747803,0.65625,0.734375,0.84375
544,1697627725,-0.28564453,-0.94122314,0.2218628,1.359375,1.0625,0.671875
545,1697627765,-0.30200195,-0.9402466,0.22991943,1.40625,0.859375,0.984375
546,1697627805,-0.30541992,-0.94610596,0.22381592,1.015625,1.640625,1.046875
547,1697627845,-0.29516602,-0.96221924,0.21429443,1.21875,1.21875,0.890625
548,1697627885,-0.30664062,-0.9573364,0.25750732,0.84375,1.09375,0.625
549,1697627925,-0.29760742,-0.9590454,0.23382568,-0.03125,1.34375,0.984375
550,1697627965,-0.296875,-0.9446411,0.20257568,-0.078125,0.890625,0.75
551,1697628005,-0.2902832,-0.94122314,0.2423706,0.640625,0.0625,1.234375
552,1697628045,-0.28686523,-0.9529419,0.21551514,0.15625,0.890625,1.0625
553,1697628085,-0.29467773,-0.94537354,0.22235107,-0.265625,0.65625,1.03125
554,1697628125,-0.28393555,-0.9500122,0.22625732,0.078125,1.9375,0.765625
555,1697628165,-0.29223633,-0.95513916,0.21868896,-0.3125,0.65625,0.796875
556,1697628205,-0.28125,-0.93878174,0.2230835,-0.015625,1.0,0.609375
557,1697628245,-0.28027344,-0.9446411,0.23016357,-0.125,0.078125,0.4375
558,1697628285,-0.29833984,-0.944397,0.230896,-0.078125,-0.078125,0.828125
559,1697628325,-0.28833008,-0.9492798,0.2218628,-0.078125,-0.125,0.734375
560,1697628365,-0.29077148,-0.9536743,0.22503662,0.015625,0.015625,0.671875
561,1697628405,-0.2939453,-0.9468384,0.23724365,-0.453125,-0.578125,0.625
562,1697628445,-0.28710938,-0.9534302,0.24261475,0.375,-1.359375,0.0625
563,1697628485,-0.29663086,-0.9446411,0.2255249,-0.046875,-0.96875,0.609375
564,1697628525,-0.28686523,-0.93707275,0.19036865,-0.53125,-0.28125,0.65625
565,1697628565,-0.26635742,-0.94415283,0.22283936,1.546875,-0.078125,0.328125
566,1697628605,-0.29638672,-0.944397,0.22088623,1.421875,-0.140625,0.875
567,1697628645,-0.2861328,-0.9578247,0.21429443,1.5625,0.0625,0.625
568,1697628685,-0.2939453,-0.94415283,0.21185303,1.03125,0.5,1.046875
569,1697628725,-0.2927246,-0.954895,0.20159912,0.78125,-0.53125,0.8125
570,1697628765,-0.2841797,-0.95635986,0.20233154,1.203125,1.390625,0.328125
571,1697628805,-0.28735352,-0.9451294,0.20379639,0.5625,-0.046875,1.0
572,1697628845,-0.28564453,-0.95635986,0.19451904,1.328125,-0.265625,1.03125
573,1697628885,-0.2841797,-0.9595337,0.21551514,1.203125,-0.625,0.484375
574,1697628925,-0.29663086,-0.956604,0.2098999,-0.390625,0.359375,0.21875
575,1697628965,-0.2770996,-0.9607544,0.2033081,-0.953125,0.21875,0.03125
576,1697629005,-0.2788086,-0.944397,0.19110107,0.765625,-1.1875,0.40625
577,1697629045,-0.28637695,-0.9529419,0.19793701,0.609375,0.078125,0.234375
578,1697629085,-0.2902832,-0.96417236,0.1762085,-0.90625,0.265625,0.328125
579,1697629125,-0.2758789,-0.9553833,0.20257568,0.078125,0.21875,-0.015625
580,1697629165,-0.29663086,-0.94488525,0.19525146,-0.078125,0.046875,0.15625
581,1697629205,-0.2890625,-0.96539307,0.19110107,-0.78125,0.015625,-0.265625
582,1697629245,-0.28857422,-0.95635986,0.19329834,-0.9375,0.140625,-0.40625
583,1697629285,-0.29101562,-0.9570923,0.19403076,-1.3125,0.015625,-0.59375
584,1697629325,-0.27929688,-0.9595337,0.1930542,-1.15625,0.859375,-0.515625
585,1697629365,-0.2849121,-0.94195557,0.19671631,-1.609375,-0.890625,0.234375
586,1697629405,-0.2878418,-0.94366455,0.19647217,-0.609375,-0.703125,0.0625
587,1697629445,-0.29003906,-0.95440674,0.19354248,-0.59375,-0.9375,0.703125
588,1697629485,-0.29077148,-0.9636841,0.1828003,-0.53125,-0.5,0.90625
589,1697629525,-0.2927246,-0.96343994,0.20501709,-0.890625,-1.078125,0.390625
590,1697629565,-0.2980957,-0.94073486,0.19866943,-0.09375,-0.734375,0.359375
591,1697629605,-0.29833984,-0.94659424,0.1918335,-0.390625,-0.75,0.0625
592,1697629645,-0.3076172,-0.9661255,0.17254639,-1.65625,-1.34375,-0.53125
593,1697629685,-0.2939453,-0.9590454,0.1984253,-0.375,-1.140625,-0.0625
594,1697629725,-0.3005371,-0.9522095,0.19793701,0.78125,-0.1875,-0.0625
595,1697629765,-0.29248047,-0.944397,0.19012451,0.484375,0.875,0.578125
596,1697629805,-0.29418945,-0.9480591,0.18841553,0.5625,0.890625,0.40625
597,1697629845,-0.3010254,-0.9595337,0.1942749,0.46875,-0.140625,0.375
598,1697629885,-0.30395508,-0.9624634,0.19476318,0.109375,1.078125,0.421875
599,1697629925,-0.29785156,-0.9524536,0.18621826,0.0,0.546875,0.53125
600,1697629965,-0.30615234,-0.9529419,0.18695068,0.28125,0.6875,0.5625
601,1697630005,-0.30078125,-0.95147705,0.18572998,0.859375,0.953125,1.0
602,1697630045,-0.3034668,-0.9536743,0.17791748,0.796875,1.328125,0.875
603,1697630085,-0.30151367,-0.95196533,0.18157959,0.796875,1.46875,0.953125
604,1697630125,-0.29638672,-0.9602661,0.15545654,1.0,0.8125,1.484375
605,1697630165,-0.29077148,-0.94415283,0.17962646,1.28125,1.625,0.890625
606,1697630205,-0.2927246,-0.9614868,0.1642456,-0.03125,3.046875,0.8125
607,1697630245,-0.28515625,-0.9414673,0.17059326,0.609375,2.390625,0.75
608,1697630285,-0.29418945,-0.9649048,0.17718506,0.703125,1.859375,0.96875
609,1697630325,-0.296875,-0.956604,0.17767334,0.203125,2.1875,0.765625
610,1697630365,-0.2919922,-0.9570923,0.17279053,-0.46875,2.171875,0.484375
611,1697630405,-0.27978516,-0.9631958,0.18255615,-0.46875,2.390625,-0.015625
612,1697630445,-0.29052734,-0.9607544,0.1708374,-0.828125,1.640625,0.453125
613,1697630485,-0.28076172,-0.9573364,0.17669678,-0.84375,0.890625,0.21875
614,1697630525,-0.29638672,-0.9661255,0.18841553,-1.046875,0.5,-0.15625
615,1697630565,-0.28979492,-0.9614868,0.18939209,-1.828125,1.046875,-0.078125
616,1697630605,-0.29638672,-0.9517212,0.18841553,-1.734375,0.96875,-0.296875
617,1697630645,-0.28515625,-0.954895,0.18328857,-1.734375,0.59375,-0.140625
618,1697630685,-0.2836914,-0.9500122,0.18035889,-1.4375,0.890625,0.078125
619,1697630725,-0.28735352,-0.956604,0.20428467,-1.046875,0.328125,-0.078125
620,1697630765,-0.29223633,-0.9517212,0.18597412,-0.625,0.0625,0.375
621,1697630805,-0.2902832,-0.9463501,0.20135498,-0.328125,0.4375,0.125
622,1697630845,-0.2836914,-0.958313,0.16766357,-1.4375,1.0625,1.078125
623,1697630885,-0.27685547,-0.9517212,0.20379639,-0.546875,0.125,0.703125
624,1697630925,-0.2939453,-0.9644165,0.1942749,-0.53125,0.78125,0.734375
625,1697630965,-0.28564453,-0.95440674,0.1954956,-1.140625,0.859375,0.953125
626,1697631005,-0.29077148,-0.9487915,0.19354248,-1.015625,0.890625,0.796875
627,1697631045,-0.23706055,-0.97076416,0.18988037,-0.140625,-1.53125,-0.578125
628,1697631085,-0.2331543,-0.96221924,0.17889404,-0.03125,-1.109375,-0.453125
629,1697631125,-0.23754883,-0.9690552,0.15447998,0.421875,-2.203125,-0.09375
630,1697631165,-0.21899414,-0.95635986,0.18255615,0.671875,-0.3125,-0.03125
631,1697631205,-0.24389648,-0.9805298,0.18304443,-0.25,-0.84375,0.21875
632,1697631245,-0.22802734,-0.9636841,0.16400146,-0.203125,0.828125,0.09375
633,1697631285,-0.25830078,-0.97125244,0.17913818,0.234375,-0.046875,0.328125
634,1697631325,-0.24145508,-0.9763794,0.17376709,-0.015625,0.53125,0.046875
635,1697631365,-0.2409668,-0.9692993,0.1720581,-0.46875,0.71875,0.40625
636,1697631405,-0.23339844,-0.9656372,0.17572021,-0.203125,1.59375,0.1875
637,1697631445,-0.24731445,-0.97125244,0.15814209,-0.640625,0.921875,0.296875
638,1697631485,-0.22509766,-0.9690552,0.17279053,-0.265625,0.984375,0.484375
639,1697631525,-0.24121094,-0.96588135,0.17303467,-0.515625,0.546875,0.53125
640,1697631565,-0.24243164,-0.9734497,0.16741943,-0.640625,0.8125,0.484375
641,1697631605,-0.2331543,-0.97198486,0.17352295,-0.546875,0.890625,0.3125
642,1697631645,-0.23583984,-0.95880127,0.17059326,-0.234375,0.53125,0.4375
643,1697631685,-0.23120117,-0.96710205,0.16009521,0.109375,0.203125,0.375
644,1697631725,-0.22802734,-0.9771118,0.16326904,0.15625,0.140625,0.1875
645,1697631765,-0.2319336,-0.96539307,0.16888428,0.171875,0.125,0.125
646,1697631805,-0.23706055,-0.9734497,0.17230225,0.0,0.015625,0.0625
647,1697631845,-0.22924805,-0.9751587,0.16986084,-0.03125,-0.1875,0.421875
648,1697631885,-0.23657227,-0.9690552,0.16815186,0.265625,-0.46875,0.359375
649,1697631925,-0.23706055,-0.97662354,0.168396,0.03125,-0.09375,0.484375
650,1697631965,-0.23583984,-0.9729614,0.16864014,-0.109375,-0.828125,0.828125
651,1697632005,-0.23852539,-0.97735596,0.15716553,0.234375,0.828125,0.046875
652,1697632045,-0.24243164,-0.98931885,0.17669678,0.71875,-0.859375,0.34375
653,1697632085,-0.23168945,-0.97052,0.13787842,-0.640625,0.359375,1.015625
654,1697632125,-0.234375,-0.9727173,0.16668701,-0.140625,-1.15625,0.671875
655,1697632165,-0.24243164,-0.9776001,0.16741943,0.125,-0.328125,0.515625
656,1697632205,-0.23608398,-0.96661377,0.15814209,-0.515625,0.046875,0.84375
657,1697632245,-0.23364258,-0.97052,0.15667725,-0.25,0.15625,0.609375
658,1697632285,-0.23852539,-0.97369385,0.16253662,-0.484375,0.3125,0.515625
659,1697632325,-0.23486328,-0.9680786,0.14691162,-0.625,1.203125,0.546875
660,1697632365,-0.23413086,-0.97442627,0.15350342,-0.6875,0.140625,0.65625
661,1697632405,-0.2331543,-0.9800415,0.16497803,-0.671875,0.265625,0.453125
662,1697632445,-0.23535156,-0.97076416,0.15740967,-1.375,0.703125,0.28125
663,1697632485,-0.23071289,-0.9727173,0.15838623,-1.484375,0.859375,0.109375
664,1697632525,-0.23730469,-0.96759033,0.15423584,-1.484375,1.15625,0.1875
665,1697632565,-0.22949219,-0.9746704,0.15667725,-1.296875,0.6875,0.15625
666,1697632605,-0.2331543,-0.97613525,0.16448975,-1.203125,0.84375,0.25
667,1697632645,-0.23535156,-0.9678345,0.16864014,-1.515625,1.171875,0.140625
668,1697632685,-0.23291016,-0.9714966,0.168396,-1.1875,0.859375,0.28125
669,1697632725,-0.23388672,-0.9734497,0.16815186,-0.984375,1.171875,0.34375
670,1697632765,-0.23510742,-0.9631958,0.17474365,-0.734375,1.21875,0.421875
671,1697632805,-0.23095703,-0.97198486,0.1473999,-0.28125,-0.203125,0.921875
672,1697632845,-0.2121582,-0.9656372,0.17938232,-0.140625,1.53125,0.5625
673,1697632885,-0.23510742,-0.97442627,0.17547607,-0.921875,0.96875,0.859375
674,1697632925,-0.22192383,-0.9507446,0.1515503,-0.1875,1.5625,0.5625
675,1697632965,-0.234375,-0.9800415,0.1749878,0.34375,0.21875,0.828125
676,1697633005,-0.2253418,-0.9780884,0.1749878,-0.09375,0.953125,0.78125
677,1697633045,-0.22851562,-0.97613525,0.16888428,-0.703125,0.828125,0.765625
678,1697633085,-0.22070312,-0.9680786,0.16790771,-0.578125,0.8125,0.109375
679,1697633125,-0.234375,-0.9710083,0.16888428,-1.15625,0.578125,0.21875
680,1697633165,-0.21289062,-0.96539307,0.17572021,-1.109375,0.96875,-0.1875
681,1697633205,-0.23535156,-0.9714966,0.17645264,-1.578125,-0.171875,-0.140625
682,1697633245,-0.23242188,-0.9685669,0.17425537,-1.453125,-0.296875,-0.328125
683,1697633285,-0.23242188,-0.9639282,0.17401123,-1.484375,0.0,-0.265625
684,1697633325,-0.22583008,-0.98272705,0.17156982,-1.59375,-0.34375,-0.375
685,1697633365,-0.23730469,-0.97369385,0.17791748,-1.625,-0.390625,-0.390625
686,1697633405,-0.23461914,-0.96343994,0.17572021,-1.515625,-0.421875,-0.515625
687,1697633445,-0.23608398,-0.96051025,0.17889404,-1.0,-0.390625,-0.0625
688,1697633485,-0.2434082,-0.9639282,0.17718506,-0.6875,-0.328125,-0.078125
689,1697633525,-0.24707031,-0.97125244,0.17816162,-0.734375,0.375,-0.328125
690,1697633565,-0.23852539,-0.9668579,0.16815186,-0.484375,0.34375,0.03125
691,1697633605,-0.24072266,-0.9619751,0.17303467,-0.578125,1.875,-0.46875
692,1697633645,-0.24365234,-0.98516846,0.18963623,-0.421875,0.609375,-0.140625
693,1697633685,-0.24023438,-0.96417236,0.15667725,-1.328125,1.265625,0.140625
694,1697633725,-0.24145508,-0.9702759,0.18255615,-0.5625,0.625,0.03125
695,1697633765,-0.24291992,-0.9680786,0.17718506,-0.703125,1.328125,0.109375
696,1697633805,-0.2409668,-0.9690552,0.18109131,-0.796875,1.046875,0.4375
697,1697633845,-0.23095703,-0.9690552,0.17669678,-0.84375,1.65625,0.578125
698,1697633885,-0.23950195,-0.9741821,0.18182373,-0.875,1.078125,0.5625
699,1697633925,-0.2331543,-0.96466064,0.1708374,-0.625,1.9375,0.390625
700,1697633965,-0.24609375,-0.96710205,0.17474365,-0.171875,0.875,0.984375
701,1697634005,-0.2397461,-0.96710205,0.17938232,-0.140625,0.890625,0.875
702,1697634045,-0.23388672,-0.9746704,0.17474365,0.015625,0.90625,0.671875
703,1697634085,-0.2409668,-0.97125244,0.17645264,0.015625,0.90625,0.8125
704,1697634125,-0.23876953,-0.9680786,0.17327881,0.0625,0.515625,0.734375
705,1697634165,-0.23242188,-0.9734497,0.17230225,0.078125,0.1875,0.90625
706,1697634205,-0.22875977,-0.9607544,0.16571045,0.28125,0.515625,0.984375
707,1697634245,-0.22875977,-0.9793091,0.16253662,0.484375,0.453125,0.953125
708,1697634285,-0.23510742,-0.9602661,0.15863037,0.296875,0.203125,1.125
709,1697634325,-0.23022461,-0.9697876,0.17401123,0.625,0.765625,0.390625
710,1697634365,-0.24121094,-0.987854,0.17523193,0.78125,0.1875,0.71875
711,1697634405,-0.22265625,-0.97442627,0.14813232,-0.328125,0.734375,1.375
712,1697634445,-0.22167969,-0.9678345,0.16815186,0.453125,0.703125,0.828125
713,1697634485,-0.23461914,-0.97491455,0.17132568,0.03125,0.890625,0.578125
714,1697634525,-0.23120117,-0.98443604,0.16448975,-0.546875,0.796875,0.578125
715,1697634565,-0.23046875,-0.9697876,0.16156006,-1.140625,1.3125,0.40625
716,1697634605,-0.2265625,-0.9768677,0.16473389,-1.0,1.109375,0.46875
717,1697634645,-0.22875977,-0.96710205,0.15570068,-1.15625,1.875,0.21875
718,1697634685,-0.23071289,-0.9741821,0.16326904,-0.875,1.359375,0.453125
719,1697634725,-0.2265625,-0.97906494,0.1671753,-0.671875,1.75,0.515625
720,1697634765,-0.22924805,-0.97784424,0.16400146,-0.5625,1.28125,0.484375
721,1697634805,-0.23217773,-0.9776001,0.16790771,-1.109375,1.640625,0.421875
722,1697634845,-0.22314453,-0.9793091,0.17596436,-1.140625,1.296875,0.21875
723,1697634885,-0.22509766,-0.9656372,0.16375732,-1.34375,1.03125,0.625
724,1697634925,-0.22460938,-0.97369385,0.16595459,-1.171875,1.203125,0.3125
725,1697634965,-0.23168945,-0.9817505,0.16497803,-0.859375,0.71875,0.78125
726,1697635005,-0.22241211,-0.96759033,0.17669678,-0.890625,1.578125,-0.140625
727,1697635045,-0.2277832,-0.97613525,0.18011475,-0.953125,1.25,0.171875
728,1697635085,-0.22021484,-0.96832275,0.152771,-1.015625,1.78125,0.59375
729,1697635125,-0.2211914,-0.9685669,0.18865967,-0.125,1.171875,0.578125
730,1697635165,-0.22705078,-0.97613525,0.18157959,-0.453125,1.234375,0.3125
731,1697635205,-0.21972656,-0.96954346,0.17523193,-0.6875,1.03125,0.421875
732,1697635245,-0.2211914,-0.9690552,0.17840576,-0.765625,1.390625,0.484375
733,1697635285,-0.22192383,-0.9746704,0.18743896,-0.625,0.28125,0.34375
734,1697635325,-0.21069336,-0.9602661,0.16986084,-0.65625,1.625,-0.109375
735,1697635365,-0.22509766,-0.9714966,0.17816162,-0.609375,-0.0625,0.375
736,1697635405,-0.23242188,-0.96466064,0.18450928,0.0,0.3125,0.65625
737,1697635445,-0.22045898,-0.9741821,0.17352295,0.40625,0.515625,0.75
738,1697635485,-0.22314453,-0.97125244,0.18255615,0.5,0.546875,0.90625
739,1697635525,-0.22802734,-0.96759033,0.1786499,0.0625,0.4375,0.65625
740,1697635565,-0.21728516,-0.9768677,0.17156982,-0.328125,0.46875,0.34375
741,1697635605,-0.22705078,-0.97369385,0.17181396,-0.234375,0.078125,0.703125
742,1697635645,-0.22045898,-0.96539307,0.1852417,0.0,0.90625,0.0625
743,1697635685,-0.23022461,-0.98394775,0.18621826,-0.46875,0.625,-0.140625
744,1697635725,-0.21728516,-0.9702759,0.16375732,-0.953125,0.953125,0.3125
745,1697635765,-0.21948242,-0.9678345,0.19085693,0.203125,0.4375,0.40625
746,1697635805,-0.22705078,-0.9788208,0.1786499,0.03125,0.859375,0.0
747,1697635845,-0.22802734,-0.97247314,0.17938232,-0.40625,1.140625,0.453125
748,1697635885,-0.21777344,-0.9678345,0.17596436,-0.5625,1.5625,0.25
749,1697635925,-0.22167969,-0.9776001,0.17913818,-0.828125,0.890625,0.25
