,timestamp,accel_x,accel_y,accel_z,gyro_x,gyro_y,gyro_z
0,1697605965,-0.17236328,-0.98028564,0.15716553,0.078125,-0.75,-0.65625
1,1697606005,-0.18774414,-0.99005127,0.16033936,0.59375,-0.046875,-0.03125
2,1697606045,-0.18457031,-0.9963989,0.1552124,0.515625,-0.53125,0.5625
3,1697606085,-0.18261719,-0.99346924,0.15863037,0.484375,-0.4375,0.421875
4,1697606125,-0.18017578,-0.98760986,0.15667725,0.203125,-0.234375,-0.046875
5,1697606165,-0.18237305,-0.9961548,0.15081787,0.359375,-0.515625,-0.046875
6,1697606205,-0.18164062,-0.9920044,0.15740967,1.1875,-0.09375,0.28125
7,1697606245,-0.18041992,-0.9927368,0.1515503,0.359375,-0.421875,-0.015625
8,1697606285,-0.18579102,-0.9924927,0.15301514,0.390625,-1.125,-0.1875
9,1697606325,-0.17993164,-0.9956665,0.16351318,1.078125,-0.0625,-0.171875
10,1697606365,-0.17626953,-0.9915161,0.15057373,1.0,-0.640625,-0.109375
11,1697606405,-0.17675781,-0.98931885,0.15423584,-0.34375,-0.296875,0.046875
12,1697606445,-0.18139648,-0.991272,0.15374756,0.125,-1.09375,-0.28125
13,1697606485,-0.18334961,-1.0056763,0.17059326,1.5625,-0.53125,0.046875
14,1697606525,-0.17749023,-0.9883423,0.14959717,-0.0625,-0.140625,-0.359375
15,1697606565,-0.1772461,-0.9837036,0.15301514,0.4375,-1.359375,-0.484375
16,1697606605,-0.18920898,-0.9898071,0.16107178,0.71875,-0.59375,0.234375
17,1697606645,-0.18823242,-0.9902954,0.15789795,-0.375,-0.96875,-0.34375
18,1697606685,-0.18115234,-0.99298096,0.15203857,0.09375,-1.1875,-0.453125
19,1697606725,-0.18334961,-0.9854126,0.16522217,0.0,-1.015625,-0.53125
20,1697606765,-0.18945312,-0.9829712,0.15423584,-0.203125,-1.125,-0.359375
21,1697606805,-0.19067383,-0.9963989,0.16082764,0.71875,-1.328125,-0.09375
22,1697606845,-0.18701172,-0.99298096,0.15545654,0.40625,-1.0625,-0.375
23,1697606885,-0.18579102,-0.98687744,0.16278076,0.171875,-0.5625,-0.109375
24,1697606925,-0.19042969,-0.9768677,0.16644287,0.546875,-0.765625,0.15625
25,1697606965,-0.18237305,-0.99224854,0.16864014,0.640625,-0.5,-0.125
26,1697607005,-0.19458008,-0.986145,0.1564331,-0.953125,-0.34375,-0.140625
27,1697607045,-0.18896484,-0.989563,0.16668701,0.328125,-1.390625,-0.484375
28,1697607085,-0.19750977,-0.9932251,0.17669678,1.15625,-0.375,0.125
29,1697607125,-0.18847656,-0.98443604,0.1618042,0.203125,-0.484375,0.078125
30,1697607165,-0.18774414,-0.98883057,0.16229248,-0.40625,-0.890625,-0.296875
31,1697607205,-0.19506836,-0.9920044,0.17327881,0.90625,-0.125,0.34375
32,1697607245,-0.19482422,-0.99468994,0.15985107,-0.015625,-0.328125,0.03125
33,1697607285,-0.18725586,-0.98516846,0.17327881,0.625,-0.234375,0.1875
34,1697607325,-0.19091797,-0.9805298,0.1605835,0.703125,-0.1875,0.328125
35,1697607365,-0.19165039,-0.9915161,0.16815186,1.09375,-0.109375,0.234375
36,1697607405,-0.18603516,-0.9859009,0.16448975,0.953125,-0.140625,-0.078125
37,1697607445,-0.18530273,-0.99346924,0.16448975,0.328125,-0.171875,-0.046875
38,1697607485,-0.18383789,-0.98101807,0.16253662,0.84375,-0.59375,0.234375
39,1697607525,-0.1862793,-0.98809814,0.1696167,0.890625,-0.015625,0.171875
40,1697607565,-0.18530273,-0.99468994,0.16131592,1.0625,-0.421875,0.0625
41,1697607605,-0.18188477,-0.9927368,0.16351318,-0.03125,0.296875,0.5
42,1697607645,-0.17895508,-0.98638916,0.16009521,0.484375,-1.46875,-0.359375
43,1697607685,-0.17529297,-0.99542236,0.18328857,2.171875,0.0625,0.28125
44,1697607725,-0.18139648,-0.98760986,0.15472412,0.921875,0.234375,0.453125
45,1697607765,-0.18408203,-0.9817505,0.1593628,0.109375,-0.8125,-0.28125
46,1697607805,-0.1875,-0.98809814,0.16473389,0.375,-0.28125,0.15625
47,1697607845,-0.17749023,-0.98687744,0.16351318,0.203125,-0.765625,-0.28125
48,1697607885,-0.18041992,-0.98809814,0.17474365,0.828125,-0.484375,-0.078125
49,1697607925,-0.18334961,-0.9951782,0.16937256,0.453125,-0.578125,0.125
50,1697607965,-0.18603516,-0.9915161,0.16595459,-0.296875,-0.984375,-0.5625
51,1697608005,-0.18237305,-0.99298096,0.16912842,0.046875,-0.640625,-0.453125
52,1697608045,-0.18798828,-0.9924927,0.16668701,-0.78125,-0.8125,-0.421875
53,1697608085,-0.18383789,-0.98394775,0.16571045,-1.96875,-1.8125,-1.0
54,1697608125,-0.19335938,-0.98638916,0.1786499,-1.265625,-1.53125,-1.359375
55,1697608165,-0.19360352,-1.0012817,0.17230225,1.359375,-0.5,-1.203125
56,1697608205,-0.1850586,-1.0010376,0.184021,1.53125,0.984375,0.6875
57,1697608245,-0.19433594,-0.98321533,0.17230225,0.328125,0.328125,0.53125
58,1697608285,-0.20483398,-1.0046997,0.16815186,1.921875,0.1875,0.765625
59,1697608325,-0.18188477,-0.9685669,0.14837646,1.96875,0.09375,0.65625
60,1697608365,-0.1743164,-0.95928955,0.16864014,5.53125,-0.296875,0.375
61,1697608405,-0.18652344,-0.9795532,0.14105225,9.578125,1.671875,2.46875
62,1697608445,-0.14868164,-0.96710205,0.11468506,2.875,2.9375,2.046875
63,1697608485,-0.19262695,-0.97320557,0.1383667,2.375,-0.171875,-1.015625
64,1697608525,-0.19702148,-1.0234985,0.16815186,6.40625,0.046875,-0.5625
65,1697608565,-0.16967773,-0.9939575,0.13983154,2.375,1.625,0.953125
66,1697608605,-0.18017578,-1.0059204,0.14202881,1.46875,-0.28125,0.03125
67,1697608645,-0.19384766,-0.9973755,0.13446045,1.96875,-0.21875,0.640625
68,1697608685,-0.17211914,-0.97857666,0.13201904,1.046875,0.25,0.0625
69,1697608725,-0.18017578,-0.9834595,0.14251709,1.765625,-0.96875,-1.671875
70,1697608765,-0.17822266,-1.0244751,0.13397217,1.625,1.328125,-0.234375
71,1697608805,-0.18066406,-0.97613525,0.12835693,0.546875,0.140625,0.96875
72,1697608845,-0.19116211,-0.97613525,0.12347412,-0.328125,-1.296875,-0.421875
73,1697608885,-0.18579102,-1.0078735,0.1461792,1.65625,-1.328125,-1.3125
74,1697608925,-0.17578125,-0.9963989,0.1359253,-0.921875,-0.46875,-0.578125
75,1697608965,-0.18115234,-0.98321533,0.12835693,-2.25,-1.0625,-0.953125
76,1697609005,-0.18432617,-0.9968872,0.14007568,0.078125,-1.640625,-0.8125
77,1697609045,-0.17602539,-0.99298096,0.13372803,0.171875,-1.34375,-0.984375
78,1697609085,-0.18579102,-0.9902954,0.14202881,1.359375,-1.234375,-0.328125
79,1697609125,-0.19140625,-0.9956665,0.13665771,1.28125,-0.421875,0.875
80,1697609165,-0.1953125,-0.99298096,0.1293335,0.9375,-0.890625,0.75
81,1697609205,-0.20483398,-0.99591064,0.13665771,1.578125,-0.4375,0.3125
82,1697609245,-0.18652344,-0.987854,0.13641357,1.140625,-0.0625,0.1875
83,1697609285,-0.18041992,-0.9973755,0.12689209,0.265625,0.03125,0.390625
84,1697609325,-0.18188477,-0.9824829,0.13446045,1.53125,0.046875,0.765625
85,1697609365,-0.18676758,-1.0090942,0.13519287,0.921875,0.8125,0.421875
86,1697609405,-0.17333984,-0.9817505,0.1227417,-0.203125,-0.625,-1.15625
87,1697609445,-0.18823242,-0.9956665,0.14129639,0.953125,-0.59375,-0.78125
88,1697609485,-0.18334961,-0.9976196,0.13739014,0.65625,0.765625,0.625
89,1697609525,-0.18017578,-0.9961548,0.13519287,-0.234375,-0.171875,0.140625
90,1697609565,-0.1940918,-0.9976196,0.1317749,0.828125,0.09375,-0.0625
91,1697609605,-0.17529297,-0.9907837,0.13641357,1.0625,1.15625,-0.40625
92,1697609645,-0.17260742,-0.99102783,0.13397217,-0.125,-0.546875,-0.375
93,1697609685,-0.19165039,-0.98760986,0.13323975,0.75,0.25,-0.03125
94,1697609725,-0.18823242,-1.0027466,0.1317749,0.640625,0.078125,0.5625
95,1697609765,-0.1875,-0.9819946,0.1293335,0.3125,0.21875,-0.203125
96,1697609805,-0.1694336,-0.97198486,0.12322998,-1.09375,0.765625,-0.859375
97,1697609845,-0.16870117,-1.0020142,0.14837646,-0.859375,-1.234375,-0.5625
98,1697609885,-0.19116211,-1.0220337,0.14129639,-0.9375,-0.75,0.515625
99,1697609925,-0.19311523,-0.9907837,0.152771,0.109375,-1.046875,0.3125
100,1697609965,-0.1862793,-0.9976196,0.137146,0.765625,0.875,-0.171875
101,1697610005,-0.17529297,-0.9795532,0.12908936,0.546875,-0.890625,-0.3125
102,1697610045,-0.19213867,-0.98223877,0.14349365,1.125,0.296875,0.78125
103,1697610085,-0.17480469,-1.0090942,0.14398193,1.359375,-0.40625,0.640625
104,1697610125,-0.18774414,-1.006897,0.14691162,0.734375,-0.96875,0.09375
105,1697610165,-0.19311523,-0.9907837,0.13250732,0.359375,-0.546875,0.453125
106,1697610205,-0.18115234,-0.97125244,0.13031006,-0.40625,0.0,-0.015625
107,1697610245,-0.17529297,-0.9927368,0.14764404,0.46875,-0.921875,-0.46875
108,1697610285,-0.18554688,-0.9937134,0.14569092,-0.125,-0.953125,-0.3125
109,1697610325,-0.19458008,-0.9944458,0.14544678,-0.171875,-0.25,0.03125
110,1697610365,-0.19238281,-0.9834595,0.14447021,-0.125,-0.5,-0.328125
111,1697610405,-0.19262695,-0.9807739,0.1408081,0.421875,-0.359375,-0.859375
112,1697610445,-0.1875,-0.9973755,0.13812256,1.53125,-0.515625,-0.71875
113,1697610485,-0.20263672,-0.99713135,0.13983154,1.265625,-0.109375,0.703125
114,1697610525,-0.1899414,-0.9866333,0.1473999,1.390625,0.765625,1.109375
115,1697610565,-0.18359375,-0.987854,0.12445068,0.4375,-0.15625,0.40625
116,1697610605,-0.18164062,-0.98760986,0.137146,0.578125,-0.3125,-0.03125
117,1697610645,-0.2055664,-1.005188,0.1515503,0.640625,-0.046875,1.390625
118,1697610685,-0.18945312,-1.0025024,0.14837646,1.25,0.75,1.921875
119,1697610725,-0.16918945,-0.97784424,0.13519287,-0.4375,-0.171875,0.421875
120,1697610765,-0.1862793,-0.9883423,0.14544678,0.828125,-0.40625,0.078125
121,1697610805,-0.1706543,-0.9973755,0.14349365,0.828125,-0.265625,1.078125
122,1697610845,-0.17993164,-1.0020142,0.15057373,0.6875,-0.375,1.5625
123,1697610885,-0.18603516,-0.9932251,0.1408081,0.46875,-0.421875,1.609375
124,1697610925,-0.1652832,-0.99298096,0.137146,0.671875,-1.046875,0.8125
125,1697610965,-0.16796875,-0.9834595,0.14324951,1.015625,-1.359375,0.234375
126,1697611005,-0.17480469,-1.0039673,0.14105225,0.75,-0.484375,1.75
127,1697611045,-0.17602539,-0.986145,0.14544678,0.546875,-1.125,1.390625
128,1697611085,-0.16723633,-0.99420166,0.14398193,-0.015625,-1.203125,0.84375
129,1697611125,-0.17236328,-0.9849243,0.13812256,0.890625,-1.515625,0.625
130,1697611165,-0.17773438,-0.9924927,0.14935303,0.453125,-0.421875,1.09375
131,1697611205,-0.17285156,-0.9883423,0.14324951,-0.28125,-0.90625,1.5625
132,1697611245,-0.18359375,-0.99786377,0.15374756,0.5,-0.359375,1.40625
133,1697611285,-0.16479492,-1.0117798,0.14471436,0.375,0.359375,0.796875
134,1697611325,-0.1496582,-0.9783325,0.14227295,-0.15625,-0.578125,-0.78125
135,1697611365,-0.16455078,-1.008606,0.1461792,0.984375,-0.578125,-0.421875
136,1697611405,-0.17260742,-0.9985962,0.13275146,0.6875,-0.09375,-0.296875
137,1697611445,-0.16699219,-0.9885864,0.1383667,0.375,-0.828125,-1.109375
138,1697611485,-0.16577148,-1.0012817,0.14324951,0.59375,-0.015625,-1.59375
139,1697611525,-0.15185547,-0.9932251,0.13934326,1.0625,-0.140625,-1.46875
140,1697611565,-0.16601562,-1.0020142,0.15179443,0.640625,-0.046875,-0.203125
141,1697611605,-0.15722656,-0.99346924,0.1383667,0.46875,-0.765625,-0.75
142,1697611645,-0.18920898,-1.0100708,0.14715576,1.25,-0.296875,0.078125
143,1697611685,-0.16870117,-0.9837036,0.12615967,0.109375,-0.546875,-0.078125
144,1697611725,-0.1459961,-0.9846802,0.14105225,0.296875,-1.296875,-0.921875
145,1697611765,-0.17285156,-0.9976196,0.13494873,0.171875,-1.15625,0.59375
146,1697611805,-0.18139648,-0.9951782,0.1359253,1.546875,-0.578125,1.578125
147,1697611845,-0.16699219,-1.0056763,0.14813232,1.40625,-1.4375,1.921875
148,1697611885,-0.15283203,-0.9985962,0.13787842,1.34375,-0.96875,0.765625
149,1697611925,-0.15478516,-0.9890747,0.1305542,0.875,-0.921875,1.53125
150,1697611965,-0.1574707,-0.991272,0.13079834,2.0,-0.234375,3.1875
151,1697612005,-0.1496582,-1.0054321,0.13983154,2.59375,-1.859375,1.96875
152,1697612045,-0.15283203,-1.0010376,0.15081787,1.859375,-2.203125,1.8125
153,1697612085,-0.1586914,-1.0100708,0.13201904,1.96875,-1.921875,3.1875
154,1697612125,-0.1315918,-0.99420166,0.124694824,0.9375,-2.828125,3.109375
155,1697612165,-0.14379883,-1.0049438,0.13348389,1.15625,-2.96875,2.96875
156,1697612205,-0.13427734,-1.0015259,0.13323975,1.28125,-2.546875,3.625
157,1697612245,-0.11230469,-1.0005493,0.13153076,0.1875,-3.625,3.265625
158,1697612285,-0.11352539,-1.0108032,0.14398193,0.453125,-3.796875,3.34375
159,1697612325,-0.103759766,-1.008606,0.13348389,0.6875,-5.28125,1.921875
160,1697612365,-0.122558594,-1.0025024,0.15008545,-0.265625,-3.328125,1.71875
161,1697612405,-0.11621094,-1.0115356,0.16619873,0.28125,-4.796875,1.5
162,1697612445,-0.10644531,-0.9949341,0.16375732,0.359375,-3.578125,0.0625
163,1697612485,-0.08544922,-1.00177,0.17547607,-0.203125,-2.265625,-0.515625
164,1697612525,-0.079589844,-1.0122681,0.16766357,-2.1875,-2.59375,-0.75
165,1697612565,-0.104003906,-1.0130005,0.20379639,-0.796875,-0.9375,-1.3125
166,1697612605,-0.12597656,-1.0112915,0.20477295,-1.859375,0.359375,-1.984375
167,1697612645,-0.11450195,-0.9348755,0.18597412,-1.171875,0.234375,-3.890625
168,1697612685,-0.10546875,-0.958313,0.19256592,0.6875,2.03125,-2.921875
169,1697612725,-0.13623047,-1.0181274,0.16229248,-2.140625,4.203125,-0.21875
170,1697612765,-0.14160156,-1.0713501,0.15960693,-1.546875,2.390625,-1.5625
171,1697612805,-0.13378906,-1.041565,0.15716553,0.5,2.96875,-4.375
172,1697612845,-0.11376953,-0.98809814,0.14642334,2.078125,3.078125,-4.265625
173,1697612885,-0.109375,-0.9463501,0.13397217,-0.796875,3.46875,-2.09375
174,1697612925,-0.12646484,-0.9402466,0.14593506,-3.109375,1.078125,-0.265625
175,1697612965,-0.14819336,-1.0012817,0.14154053,-2.140625,-1.796875,-1.703125
176,1697613005,-0.18652344,-1.0222778,0.1552124,1.90625,-0.34375,-3.65625
177,1697613045,-0.19433594,-1.0325317,0.15740967,2.203125,1.71875,-4.4375
178,1697613085,-0.16259766,-0.97369385,0.13665771,0.5625,2.0,-4.359375
179,1697613125,-0.13916016,-0.9690552,0.1408081,2.578125,1.75,-1.890625
180,1697613165,-0.16455078,-0.97320557,0.15032959,1.53125,1.234375,0.296875
181,1697613205,-0.19262695,-1.0183716,0.1449585,0.546875,0.890625,-0.3125
182,1697613245,-0.19433594,-0.99005127,0.14691162,1.875,0.375,-3.1875
183,1697613285,-0.19067383,-0.9837036,0.13397217,2.53125,2.234375,-2.34375
184,1697613325,-0.17919922,-0.975647,0.13568115,2.3125,4.140625,-0.25
185,1697613365,-0.17285156,-0.9944458,0.13104248,1.78125,1.796875,0.015625
186,1697613405,-0.16674805,-0.9968872,0.12591553,1.546875,0.640625,0.109375
187,1697613445,-0.18432617,-1.0134888,0.14398193,3.421875,0.265625,0.875
188,1697613485,-0.18383789,-0.99713135,0.12200928,1.015625,0.75,-1.125
189,1697613525,-0.19433594,-0.9727173,0.12884521,2.671875,-0.28125,-0.171875
190,1697613565,-0.20117188,-0.98883057,0.12371826,4.046875,0.203125,-0.265625
191,1697613605,-0.17895508,-1.0186157,0.13079834,3.1875,-0.375,-0.125
192,1697613645,-0.18164062,-0.9758911,0.124694824,2.578125,0.25,-0.46875
193,1697613685,-0.20166016,-1.0005493,0.1251831,1.828125,1.40625,1.015625
194,1697613725,-0.18823242,-0.9920044,0.1281128,1.546875,0.40625,0.40625
195,1697613765,-0.17773438,-1.0007935,0.12371826,1.484375,0.140625,-1.375
196,1697613805,-0.19482422,-0.99835205,0.13787842,1.796875,0.140625,-0.765625
197,1697613845,-0.17895508,-0.97735596,0.11541748,0.703125,0.796875,-0.484375
198,1697613885,-0.17211914,-0.99468994,0.11444092,0.1875,-0.09375,-1.640625
199,1697613925,-0.19873047,-1.0078735,0.1383667,1.09375,-0.796875,-1.109375
200,1697613965,-0.19482422,-1.0112915,0.18084717,-2.125,-0.609375,-1.375
201,1697614005,-0.1887207,-0.9495239,0.08660889,-5.0,-3.125,-4.84375
202,1697614045,-0.26342773,-1.0591431,0.137146,3.0,-0.5625,-1.078125
203,1697614085,-0.22875977,-0.9793091,0.1593628,-4.453125,5.921875,6.015625
204,1697614125,-0.17285156,-0.9639282,0.15960693,-6.921875,4.5,4.578125
205,1697614165,-0.1640625,-1.0422974,0.14593506,4.734375,0.53125,0.25
206,1697614205,-0.1430664,-1.0007935,0.13885498,4.640625,1.296875,-0.28125
207,1697614245,-0.1586914,-0.9649048,0.12835693,5.046875,-0.21875,-0.59375
208,1697614285,-0.21972656,-0.97784424,0.1329956,2.890625,1.796875,2.734375
209,1697614325,-0.19604492,-0.90997314,0.10882568,3.921875,2.375,1.125
210,1697614365,-0.16503906,-0.9631958,0.117126465,2.046875,-2.875,-1.703125
211,1697614405,-0.20288086,-1.0437622,0.14544678,3.09375,-3.859375,-1.859375
212,1697614445,-0.15063477,-1.0286255,0.14031982,1.8125,-0.0625,-2.359375
213,1697614485,-0.18261719,-0.9729614,0.097839355,-0.296875,-0.8125,-1.1875
214,1697614525,-0.19433594,-0.98394775,0.117370605,2.890625,-1.359375,-0.5
215,1697614565,-0.17236328,-1.0015259,0.11981201,1.90625,-0.140625,-1.015625
216,1697614605,-0.16845703,-0.9956665,0.10638428,-1.015625,-1.796875,-1.109375
217,1697614645,-0.17651367,-0.9956665,0.11224365,-1.875,-3.828125,-1.890625
218,1697614685,-0.19091797,-0.99713135,0.13616943,1.71875,-2.28125,0.53125
219,1697614725,-0.19335938,-1.0003052,0.13153076,0.34375,-0.84375,1.453125
220,1697614765,-0.16870117,-0.9841919,0.11102295,-0.953125,-2.640625,0.125
221,1697614805,-0.19189453,-1.0003052,0.121032715,1.453125,-2.25,0.078125
222,1697614845,-0.17407227,-0.9927368,0.121520996,0.765625,-1.265625,0.390625
223,1697614885,-0.19677734,-0.9871216,0.12420654,0.015625,-1.1875,1.046875
224,1697614925,-0.1809082,-0.98931885,0.124694824,0.828125,-2.28125,0.53125
225,1697614965,-0.18920898,-0.99468994,0.11932373,-0.078125,-0.84375,0.515625
226,1697615005,-0.18603516,-0.9968872,0.11859131,1.984375,-0.515625,0.515625
227,1697615045,-0.16210938,-0.9981079,0.11810303,0.71875,0.25,0.6875
228,1697615085,-0.18798828,-1.0029907,0.11517334,1.234375,-1.1875,0.921875
229,1697615125,-0.18383789,-0.97979736,0.10491943,0.328125,-0.078125,0.1875
230,1697615165,-0.17773438,-0.98565674,0.121032715,0.734375,-1.5,-0.234375
231,1697615205,-0.17504883,-1.0108032,0.12591553,1.234375,0.234375,-0.078125
232,1697615245,-0.1796875,-0.9824829,0.12322998,-0.09375,-0.84375,-0.046875
233,1697615285,-0.17919922,-0.9924927,0.11883545,0.640625,-0.140625,0.078125
234,1697615325,-0.16894531,-0.9998169,0.1227417,0.28125,-0.03125,-0.015625
235,1697615365,-0.1821289,-0.99224854,0.13128662,0.515625,-1.59375,-0.765625
236,1697615405,-0.1694336,-0.99005127,0.11273193,-2.375,-2.0,-1.859375
237,1697615445,-0.19970703,-0.9578247,0.12640381,-3.3125,-1.046875,-2.640625
238,1697615485,-0.19604492,-1.0169067,0.13983154,0.671875,-3.03125,-1.640625
239,1697615525,-0.20141602,-1.015686,0.14202881,1.078125,-0.859375,0.53125
240,1697615565,-0.19970703,-0.9949341,0.15618896,1.546875,2.140625,1.4375
241,1697615605,-0.1640625,-1.0244751,0.13421631,1.1875,3.03125,2.078125
242,1697615645,-0.1965332,-0.958313,0.10882568,-1.265625,0.234375,3.53125
243,1697615685,-0.21582031,-0.99005127,0.124694824,3.296875,-3.4375,2.25
244,1697615725,-0.16186523,-0.9783325,0.12713623,1.984375,1.234375,1.1875
245,1697615765,-0.15454102,-0.9817505,0.09173584,0.4375,1.609375,-1.265625
246,1697615805,-0.16381836,-0.97052,0.11541748,2.671875,0.328125,-1.359375
247,1697615845,-0.18286133,-0.9990845,0.13128662,2.984375,0.015625,-0.640625
248,1697615885,-0.2043457,-1.0093384,0.12713623,-0.15625,-0.34375,0.46875
249,1697615925,-0.18066406,-0.9990845,0.13323975,0.515625,-0.796875,-0.25
250,1697615965,-0.17797852,-1.0049438,0.11810303,0.546875,-0.5,-0.640625
251,1697616005,-0.16552734,-0.96539307,0.11883545,1.53125,0.0625,-1.21875
252,1697616045,-0.19311523,-0.99542236,0.117370605,0.15625,-1.765625,-1.0
253,1697616085,-0.19384766,-0.9920044,0.1227417,1.15625,-1.078125,0.765625
254,1697616125,-0.16967773,-1.0137329,0.11956787,1.109375,-0.890625,0.765625
255,1697616165,-0.18237305,-0.98687744,0.11590576,0.46875,-1.328125,0.03125
256,1697616205,-0.18286133,-0.9956665,0.11541748,-0.09375,-1.90625,-1.234375
257,1697616245,-0.18676758,-0.9932251,0.12298584,1.203125,-0.328125,-0.203125
258,1697616285,-0.17529297,-1.003479,0.11639404,0.5625,-0.6875,-0.109375
259,1697616325,-0.18725586,-0.98321533,0.11468506,0.109375,-1.265625,-0.34375
260,1697616365,-0.18725586,-0.99835205,0.11541748,1.0625,-0.921875,0.578125
261,1697616405,-0.1784668,-0.99224854,0.11810303,0.125,-0.78125,-0.015625
262,1697616445,-0.18359375,-0.99176025,0.12371826,0.015625,-1.171875,-0.015625
263,1697616485,-0.18432617,-0.99346924,0.11151123,0.46875,-0.328125,0.390625
264,1697616525,-0.18725586,-0.9898071,0.11151123,-0.046875,-0.59375,0.3125
265,1697616565,-0.18310547,-0.9873657,0.12542725,1.1875,-0.796875,-0.34375
266,1697616605,-0.18041992,-0.99664307,0.12322998,0.09375,-0.875,0.34375
267,1697616645,-0.18237305,-0.99298096,0.12249756,1.109375,-1.0625,-0.34375
268,1697616685,-0.18530273,-1.0003052,0.117370605,1.078125,0.328125,0.65625
269,1697616725,-0.1850586,-0.98760986,0.11663818,0.109375,-1.609375,-0.6875
270,1697616765,-0.18408203,-0.9993286,0.1359253,1.78125,-0.53125,0.171875
271,1697616805,-0.18652344,-1.0010376,0.1161499,0.0625,-0.375,0.4375
272,1697616845,-0.18969727,-0.9890747,0.124938965,0.75,-0.875,-0.46875
273,1697616885,-0.18286133,-0.9961548,0.120788574,0.6875,0.015625,-0.09375
274,1697616925,-0.18115234,-0.9998169,0.12542725,0.546875,-1.03125,-0.125
275,1697616965,-0.1772461,-0.9968872,0.12615967,0.875,-0.625,-0.328125
276,1697617005,-0.19311523,-0.99102783,0.12689209,1.515625,-0.015625,0.734375
277,1697617045,-0.1953125,-0.9859009,0.11468506,-0.15625,0.40625,0.5625
278,1697617085,-0.18432617,-0.9885864,0.109069824,0.40625,-1.03125,-0.53125
279,1697617125,-0.17114258,-1.0039673,0.12689209,1.71875,0.28125,-0.078125
280,1697617165,-0.18481445,-0.97662354,0.1305542,1.21875,-0.203125,1.21875
281,1697617205,-0.19189453,-0.9956665,0.120788574,0.75,0.171875,0.921875
282,1697617245,-0.16796875,-0.96881104,0.11029053,-0.625,-0.859375,-0.96875
283,1697617285,-0.18725586,-1.010315,0.12542725,0.828125,-1.828125,-0.765625
284,1697617325,-0.19091797,-1.0007935,0.12567139,1.40625,1.09375,0.609375
285,1697617365,-0.16552734,-0.9902954,0.1239624,-0.25,-0.828125,-0.125
286,1697617405,-0.1665039,-0.9939575,0.11541748,0.265625,-0.40625,-1.15625
287,1697617445,-0.18823242,-0.9951782,0.1227417,1.484375,-0.171875,0.1875
288,1697617485,-0.18432617,-0.98394775,0.12786865,0.6875,-1.171875,0.484375
289,1697617525,-0.18798828,-1.0007935,0.11883545,1.140625,-0.75,0.453125
290,1697617565,-0.17675781,-0.9849243,0.11859131,1.0625,-0.125,0.25
291,1697617605,-0.1796875,-1.003479,0.11883545,0.3125,-0.4375,-0.1875
292,1697617645,-0.18041992,-0.9951782,0.11102295,-0.40625,-0.78125,-1.0
293,1697617685,-0.19018555,-0.9920044,0.124694824,-0.59375,-0.34375,-0.65625
294,1697617725,-0.20166016,-0.99468994,0.13153076,1.6875,-0.296875,1.078125
295,1697617765,-0.16601562,-0.9956665,0.12689209,-0.09375,-0.234375,-0.28125
296,1697617805,-0.1821289,-0.9678345,0.11981201,-1.234375,-0.765625,-1.234375
297,1697617845,-0.19433594,-0.99713135,0.12786865,1.0625,-1.375,-0.375
298,1697617885,-0.19506836,-1.0022583,0.137146,1.3125,0.5,0.984375
299,1697617925,-0.17822266,-1.0005493,0.113708496,-0.46875,-0.28125,0.03125
300,1697617965,-0.17871094,-0.97784424,0.121276855,0.421875,-0.78125,-0.546875
301,1697618005,-0.1850586,-0.99468994,0.12054443,1.03125,0.484375,0.390625
302,1697618045,-0.18481445,-0.98321533,0.13372803,-0.03125,-0.890625,-0.171875
303,1697618085,-0.18554688,-0.99664307,0.1317749,0.546875,-0.5625,-0.375
304,1697618125,-0.18530273,-1.0081177,0.13616943,0.8125,0.8125,0.96875
305,1697618165,-0.18896484,-0.986145,0.11785889,-1.421875,-1.34375,-0.9375
306,1697618205,-0.1784668,-0.9780884,0.12640381,0.0625,-1.5,-2.109375
307,1697618245,-0.19213867,-1.0005493,0.14031982,0.890625,-0.71875,0.71875
308,1697618285,-0.18579102,-0.98883057,0.13665771,0.75,-0.3125,1.140625
309,1697618325,-0.1796875,-0.98638916,0.12664795,0.71875,-0.71875,-0.109375
310,1697618365,-0.1743164,-0.9944458,0.1359253,1.078125,-1.21875,-1.1875
311,1697618405,-0.20654297,-0.99176025,0.124694824,0.1875,-1.140625,0.640625
312,1697618445,-0.19091797,-0.9951782,0.11981201,0.390625,-1.203125,0.5
313,1697618485,-0.18701172,-0.991272,0.14422607,1.40625,-0.1875,0.796875
314,1697618525,-0.18457031,-1.0083618,0.11956787,0.609375,0.203125,0.3125
315,1697618565,-0.1784668,-0.98565674,0.12640381,1.109375,0.0625,-0.65625
316,1697618605,-0.20141602,-0.99468994,0.12030029,0.296875,-0.671875,0.65625
317,1697618645,-0.17407227,-0.9920044,0.12322998,1.015625,0.078125,0.234375
318,1697618685,-0.18383789,-1.0112915,0.13128662,0.90625,0.390625,0.890625
319,1697618725,-0.17480469,-0.99053955,0.13153076,0.265625,0.328125,0.3125
320,1697618765,-0.17163086,-0.9944458,0.124694824,0.703125,-0.78125,-0.9375
321,1697618805,-0.18701172,-0.9873657,0.13128662,0.0,-0.875,0.015625
322,1697618845,-0.18603516,-0.9834595,0.124694824,0.46875,-0.46875,0.140625
323,1697618885,-0.17871094,-1.0132446,0.13641357,1.171875,-0.28125,0.328125
324,1697618925,-0.18286133,-0.99884033,0.13031006,0.0625,-0.203125,-0.59375
325,1697618965,-0.17480469,-0.9800415,0.13470459,0.921875,-0.875,-1.203125
326,1697619005,-0.19677734,-1.000061,0.13226318,0.5625,-0.71875,0.9375
327,1697619045,-0.18359375,-0.9920044,0.11663818,0.28125,-0.15625,-0.09375
328,1697619085,-0.18579102,-0.9885864,0.12982178,0.265625,-0.25,-0.5625
329,1697619125,-0.16381836,-1.0044556,0.11981201,0.71875,-0.265625,-0.640625
330,1697619165,-0.20019531,-1.0071411,0.13201904,1.109375,-0.328125,0.5625
331,1697619205,-0.1772461,-0.9751587,0.12762451,0.875,0.171875,0.734375
332,1697619245,-0.18457031,-1.0112915,0.12786865,0.578125,-1.28125,0.125
333,1697619285,-0.18164062,-0.9834595,0.12664795,1.84375,0.203125,0.53125
334,1697619325,-0.17480469,-0.98760986,0.11907959,0.59375,-0.125,0.828125
335,1697619365,-0.17602539,-0.97369385,0.12982178,0.578125,-0.828125,0.0625
336,1697619405,-0.1899414,-1.0044556,0.13250732,1.671875,-0.171875,0.0
337,1697619445,-0.18457031,-1.02594,0.13006592,1.8125,0.234375,0.859375
338,1697619485,-0.16552734,-0.96588135,0.12200928,0.734375,-0.734375,-0.90625
339,1697619525,-0.18310547,-0.987854,0.12225342,1.578125,-0.359375,0.59375
340,1697619565,-0.18652344,-0.99591064,0.11907959,1.328125,-0.25,0.71875
341,1697619605,-0.19360352,-0.99420166,0.12738037,1.0625,-0.140625,0.34375
342,1697619645,-0.17993164,-0.99298096,0.12225342,1.90625,0.28125,0.28125
343,1697619685,-0.18359375,-0.9924927,0.12445068,1.0625,0.578125,1.296875
344,1697619725,-0.16625977,-1.0064087,0.12030029,1.140625,0.109375,0.140625
345,1697619765,-0.17382812,-0.9973755,0.11590576,-0.4375,-0.40625,0.015625
346,1697619805,-0.17871094,-0.9819946,0.12445068,1.21875,-0.265625,0.5
347,1697619845,-0.17333984,-1.008606,0.11810303,0.265625,0.15625,0.421875
348,1697619885,-0.15893555,-0.9937134,0.1293335,0.46875,-0.390625,-0.796875
349,1697619925,-0.18334961,-0.9907837,0.117126465,-0.46875,-0.984375,-0.84375
350,1697619965,-0.18725586,-0.9859009,0.12884521,0.984375,0.078125,0.953125
351,1697620005,-0.1899414,-1.0261841,0.1696167,2.09375,2.921875,2.53125
352,1697620045,-0.13500977,-1.0462036,0.08441162,1.796875,1.1875,1.265625
353,1697620085,-0.2253418,-1.0261841,0.11541748,5.5625,-2.734375,5.0625
354,1697620125,-0.14575195,-0.897522,0.10296631,4.0,3.703125,0.75
355,1697620165,-0.1352539,-0.97857666,0.074645996,1.921875,-2.515625,0.109375
356,1697620205,-0.14672852,-0.9854126,0.10760498,3.53125,0.234375,-1.21875
357,1697620245,-0.15209961,-0.97198486,0.09637451,-0.9375,-1.734375,-1.703125
358,1697620285,-0.19628906,-1.022522,0.1083374,1.546875,-3.78125,0.46875
359,1697620325,-0.16796875,-1.0090942,0.11834717,1.0,-1.203125,0.03125
360,1697620365,-0.16137695,-1.0012817,0.097595215,-0.140625,-2.171875,-1.84375
361,1697620405,-0.16723633,-1.0071411,0.09173584,3.4375,-1.015625,-0.84375
362,1697620445,-0.1875,-1.0029907,0.11785889,4.328125,1.453125,2.046875
363,1697620485,-0.18383789,-0.9776001,0.078308105,2.375,1.6875,0.734375
364,1697620525,-0.15332031,-1.0022583,0.077819824,4.40625,0.1875,-1.0
365,1697620565,-0.15478516,-1.0396118,0.09246826,3.828125,1.234375,0.1875
366,1697620605,-0.16210938,-0.9751587,0.08123779,2.484375,2.28125,0.96875
367,1697620645,-0.17700195,-0.98931885,0.066345215,1.625,2.671875,-0.1875
368,1697620685,-0.15527344,-1.0032349,0.07244873,1.703125,2.5,-1.015625
369,1697620725,-0.16040039,-0.98394775,0.059020996,-1.3125,2.3125,-1.8125
370,1697620765,-0.1508789,-1.0095825,0.07244873,-1.0,0.609375,-2.171875
371,1697620805,-0.16674805,-1.0039673,0.07952881,-0.890625,0.84375,-1.078125
372,1697620845,-0.15771484,-0.9939575,0.09222412,0.65625,0.765625,-0.53125
373,1697620885,-0.16577148,-1.0046997,0.08026123,-0.75,0.21875,-0.125
374,1697620925,-0.17285156,-0.98101807,0.09832764,0.421875,-0.28125,0.375
375,1697620965,-0.16772461,-1.003479,0.07513428,0.5,-0.15625,-0.09375
376,1697621005,-0.19384766,-0.9920044,0.09246826,1.421875,0.078125,1.25
377,1697621045,-0.17602539,-0.9902954,0.09661865,2.1875,1.9375,0.6875
378,1697621085,-0.15942383,-0.99884033,0.07293701,1.125,1.140625,-0.4375
379,1697621125,-0.15649414,-0.98394775,0.07122803,0.65625,-0.234375,-0.9375
380,1697621165,-0.17114258,-0.9871216,0.08392334,1.75,-1.234375,-0.03125
381,1697621205,-0.18164062,-1.0003052,0.09100342,1.09375,-0.09375,1.375
382,1697621245,-0.17285156,-0.99005127,0.08123779,1.28125,-0.53125,0.28125
383,1697621285,-0.1899414,-0.99102783,0.07098389,-0.0625,-0.359375,0.046875
384,1697621325,-0.17553711,-0.972229,0.09686279,-0.546875,-2.5,-1.328125
385,1697621365,-0.17773438,-1.0178833,0.09100342,0.015625,-1.0,-1.234375
386,1697621405,-0.17700195,-1.0007935,0.08905029,-1.5,-1.328125,0.46875
387,1697621445,-0.17407227,-0.9807739,0.08734131,-1.625,-1.9375,-0.953125
388,1697621485,-0.1809082,-1.0049438,0.10101318,-0.171875,-2.703125,-1.0625
389,1697621525,-0.19189453,-1.00177,0.09637451,-1.625,-1.65625,-0.515625
390,1697621565,-0.18286133,-0.99957275,0.10418701,-0.625,-1.375,-0.78125
391,1697621605,-0.1743164,-0.99298096,0.10687256,-3.359375,1.75,-0.453125
392,1697621645,-0.16601562,-1.0186157,0.08758545,-2.390625,0.140625,-0.390625
393,1697621685,-0.19262695,-1.0142212,0.124938965,0.71875,-1.484375,1.421875
394,1697621725,-0.20483398,-0.9829712,0.11444092,-1.171875,-0.109375,1.6875
395,1697621765,-0.1628418,-0.9697876,0.121032715,0.328125,0.4375,-0.109375
396,1697621805,-0.1965332,-1.0305786,0.10101318,1.53125,0.34375,0.25
397,1697621845,-0.16992188,-0.97320557,0.09539795,1.34375,-1.90625,0.109375
398,1697621885,-0.1496582,-0.9710083,0.097839355,1.453125,-0.8125,-0.28125
399,1697621925,-0.15209961,-0.95684814,0.105163574,1.328125,0.96875,0.6875
400,1697621965,-0.17236328,-1.000061,0.078308105,1.15625,-1.296875,1.125
401,1697622005,-0.21118164,-1.0217896,0.121276855,1.59375,-3.09375,0.6875
402,1697622045,-0.17089844,-0.9976196,0.11004639,1.703125,-0.265625,-2.0
403,1697622085,-0.14501953,-1.0195923,0.09295654,-0.125,-2.109375,-0.5625
404,1697622125,-0.15917969,-0.9758911,0.08856201,-0.640625,-1.109375,0.015625
405,1697622165,-0.20263672,-0.9927368,0.10247803,0.75,-0.71875,0.3125
406,1697622205,-0.19335938,-1.0066528,0.10443115,0.328125,-0.921875,-1.125
407,1697622245,-0.15893555,-1.0098267,0.08465576,-1.71875,-1.5625,-2.078125
408,1697622285,-0.1652832,-0.9951782,0.112976074,0.0625,-1.5625,-1.28125
409,1697622325,-0.171875,-0.9907837,0.09539795,0.140625,-0.53125,0.78125
410,1697622365,-0.18164062,-0.9824829,0.097595215,0.453125,-0.671875,0.109375
411,1697622405,-0.1862793,-1.0039673,0.10736084,0.28125,-2.171875,-0.3125
412,1697622445,-0.17358398,-1.00177,0.105407715,0.703125,-0.6875,-0.703125
413,1697622485,-0.18554688,-0.9849243,0.0993042,-0.765625,-0.5,-0.21875
414,1697622525,-0.17504883,-0.99713135,0.11029053,0.921875,-1.078125,-0.3125
415,1697622565,-0.16821289,-0.99053955,0.10272217,-0.6875,-0.578125,0.09375
416,1697622605,-0.18383789,-0.9920044,0.109313965,1.4375,-1.125,0.234375
417,1697622645,-0.18188477,-0.9890747,0.10760498,1.375,-0.390625,0.625
418,1697622685,-0.171875,-0.99468994,0.1083374,0.96875,-0.765625,0.53125
419,1697622725,-0.18530273,-1.0003052,0.105651855,2.296875,-0.640625,0.5625
420,1697622765,-0.18188477,-1.0042114,0.10443115,2.640625,-0.078125,1.03125
421,1697622805,-0.17480469,-0.9824829,0.097351074,2.203125,0.484375,1.171875
422,1697622845,-0.17114258,-1.0005493,0.093933105,1.9375,-0.3125,0.53125
423,1697622885,-0.17553711,-0.98565674,0.09637451,0.078125,-0.53125,0.546875
424,1697622925,-0.18823242,-0.99224854,0.109069824,1.484375,-0.734375,-0.09375
425,1697622965,-0.171875,-1.000061,0.09466553,1.21875,0.078125,0.140625
426,1697623005,-0.16430664,-1.0076294,0.09222412,0.78125,-0.875,-0.015625
427,1697623045,-0.16601562,-1.0032349,0.09661865,1.171875,0.28125,0.40625
428,1697623085,-0.17456055,-0.98394775,0.08343506,0.9375,0.40625,0.28125
429,1697623125,-0.17626953,-1.0005493,0.09710693,1.765625,-1.078125,0.234375
430,1697623165,-0.15429688,-0.9834595,0.08514404,1.078125,-0.375,0.25
431,1697623205,-0.17163086,-0.99224854,0.09173584,1.46875,-0.8125,0.09375
432,1697623245,-0.17456055,-0.99664307,0.089538574,0.8125,-0.78125,0.171875
433,1697623285,-0.17797852,-1.0059204,0.089538574,1.625,-1.015625,-0.109375
434,1697623325,-0.15942383,-0.9993286,0.085632324,-0.3125,-0.984375,0.65625
435,1697623365,-0.16259766,-0.9902954,0.08685303,-0.5625,-1.703125,-0.78125
436,1697623405,-0.17895508,-0.9990845,0.08660889,-0.34375,-1.296875,0.109375
437,1697623445,-0.17749023,-0.987854,0.086120605,-0.65625,-2.09375,-0.875
438,1697623485,-0.18725586,-1.0166626,0.10687256,0.234375,-0.984375,-0.734375
439,1697623525,-0.16503906,-0.9854126,0.08782959,-0.5,-1.21875,0.15625
440,1697623565,-0.17993164,-0.99591064,0.093688965,0.0,-0.203125,-0.078125
441,1697623605,-0.1772461,-0.99346924,0.09246826,0.34375,-1.1875,0.1875
442,1697623645,-0.1875,-0.9963989,0.09295654,-0.15625,-0.65625,-0.46875
443,1697623685,-0.16894531,-0.98809814,0.101257324,0.25,-0.734375,-0.421875
444,1697623725,-0.1809082,-0.98883057,0.10028076,0.375,-0.328125,-0.703125
445,1697623765,-0.18554688,-0.99102783,0.09466553,-0.3125,0.515625,-0.5
446,1697623805,-0.1784668,-0.9937134,0.09881592,0.796875,-1.03125,-0.734375
447,1697623845,-0.16870117,-1.0076294,0.10614014,-0.375,-0.171875,-0.3125
448,1697623885,-0.18041992,-0.9956665,0.09881592,-0.046875,-0.828125,0.265625
449,1697623925,-0.17456055,-0.9898071,0.10321045,0.734375,0.03125,-0.59375
450,1697623965,-0.1772461,-0.99176025,0.09564209,-0.296875,-0.640625,-0.46875
451,1697624005,-0.18969727,-0.9981079,0.10760498,0.671875,-0.828125,-0.71875
452,1697624045,-0.17822266,-1.0044556,0.11419678,0.734375,0.421875,-0.09375
453,1697624085,-0.1796875,-0.9907837,0.098083496,-0.625,-0.21875,0.65625
454,1697624125,-0.16894531,-0.9824829,0.097839355,0.203125,-0.546875,-0.40625
455,1697624165,-0.17260742,-1.0020142,0.10028076,0.1875,-0.984375,-0.1875
456,1697624205,-0.17456055,-0.9998169,0.113464355,0.0,-1.078125,0.484375
457,1697624245,-0.18701172,-1.0012817,0.11053467,0.375,-0.90625,0.875
458,1697624285,-0.18310547,-0.97857666,0.10028076,-0.75,-0.46875,0.28125
459,1697624325,-0.18359375,-0.98809814,0.09979248,-0.21875,-1.25,-1.265625
460,1697624365,-0.18188477,-1.013977,0.11395264,1.0625,-0.421875,-0.5625
461,1697624405,-0.16992188,-0.9885864,0.109558105,-0.171875,-0.875,-0.21875
462,1697624445,-0.18408203,-0.99884033,0.10394287,0.015625,-0.515625,0.21875
463,1697624485,-0.1809082,-0.97491455,0.109802246,0.109375,-0.0625,0.140625
464,1697624525,-0.18383789,-0.99420166,0.112976074,-0.078125,-0.1875,-0.875
465,1697624565,-0.18530273,-1.0076294,0.098083496,-1.21875,-1.46875,-1.234375
466,1697624605,-0.19116211,-0.9976196,0.1281128,1.75,0.0,-0.046875
467,1697624645,-0.17675781,-1.0064087,0.10443115,-0.015625,0.578125,1.15625
468,1697624685,-0.17114258,-0.9595337,0.10858154,-0.3125,-0.46875,-1.0625
469,1697624725,-0.19335938,-1.0098267,0.10784912,1.8125,-0.484375,-0.578125
470,1697624765,-0.19189453,-0.98565674,0.112976074,1.015625,0.515625,0.625
471,1697624805,-0.17333984,-1.0037231,0.10784912,1.375,0.34375,0.015625
472,1697624845,-0.18139648,-1.005188,0.11468506,1.734375,-0.28125,0.296875
473,1697624885,-0.18676758,-0.9937134,0.11883545,1.609375,-0.28125,0.21875
474,1697624925,-0.1809082,-0.97906494,0.09857178,-0.046875,-0.265625,-0.09375
475,1697624965,-0.18115234,-1.0012817,0.10760498,0.8125,-1.203125,-0.53125
476,1697625005,-0.18432617,-1.0081177,0.10687256,0.890625,-0.234375,0.109375
477,1697625045,-0.17602539,-0.98687744,0.10809326,0.625,-1.09375,0.03125
478,1697625085,-0.18041992,-1.0003052,0.11224365,0.8125,-1.109375,-0.765625
479,1697625125,-0.19116211,-0.98809814,0.10369873,-0.203125,-0.203125,0.609375
480,1697625165,-0.18701172,-0.9871216,0.112976074,1.21875,-1.875,0.25
481,1697625205,-0.19360352,-1.0078735,0.117614746,0.8125,-0.140625,-0.109375
482,1697625245,-0.17358398,-1.0054321,0.10418701,0.90625,-0.28125,0.921875
483,1697625285,-0.17333984,-0.9783325,0.105163574,0.703125,-0.453125,-0.15625
484,1697625325,-0.19067383,-1.00177,0.10491943,0.625,-0.328125,0.453125
485,1697625365,-0.18725586,-0.99786377,0.116882324,0.53125,-0.6875,0.15625
486,1697625405,-0.16796875,-0.99346924,0.10418701,0.71875,0.140625,-0.421875
487,1697625445,-0.17773438,-1.0015259,0.11126709,0.671875,-0.828125,0.4375
488,1697625485,-0.16870117,-0.9866333,0.10491943,0.265625,-0.390625,0.015625
489,1697625525,-0.19873047,-0.9949341,0.1083374,1.046875,0.078125,-0.140625
490,1697625565,-0.18066406,-0.9998169,0.1161499,0.53125,-0.875,-0.15625
491,1697625605,-0.18652344,-0.9944458,0.101745605,0.046875,-0.5,0.6875
492,1697625645,-0.17773438,-0.98638916,0.11541748,1.25,0.140625,0.234375
493,1697625685,-0.18554688,-0.99176025,0.10101318,-0.828125,-0.421875,-0.296875
494,1697625725,-0.17358398,-0.9871216,0.10638428,-0.421875,-1.15625,-0.78125
495,1697625765,-0.19262695,-1.0061646,0.12786865,1.453125,-1.0,-0.171875
496,1697625805,-0.17675781,-1.0056763,0.105407715,0.203125,-0.09375,0.0625
497,1697625845,-0.17236328,-0.97247314,0.11126709,0.15625,-0.390625,-0.21875
498,1697625885,-0.19116211,-1.0003052,0.10418701,1.109375,-0.421875,-0.171875
499,1697625925,-0.17895508,-0.9981079,0.1149292,0.515625,-0.234375,0.28125
500,1697625965,-0.18676758,-0.9944458,0.109313965,-0.375,-1.15625,0.28125
501,1697626005,-0.18359375,-0.98883057,0.11077881,0.109375,-0.03125,0.15625
502,1697626045,-0.171875,-0.9985962,0.10028076,-1.328125,-1.484375,-0.09375
503,1697626085,-0.18554688,-0.9849243,0.11810303,0.671875,-0.953125,-0.921875
504,1697626125,-0.17944336,-1.0064087,0.12371826,0.796875,-1.40625,-0.984375
505,1697626165,-0.1977539,-0.9932251,0.11395264,0.5625,-0.28125,0.125
506,1697626205,-0.18359375,-0.9873657,0.12054443,0.015625,-0.421875,0.234375
507,1697626245,-0.18188477,-0.98565674,0.1161499,-0.234375,-0.25,-0.34375
508,1697626285,-0.18359375,-0.9834595,0.11834717,0.125,-0.609375,-0.25
509,1697626325,-0.18457031,-1.0090942,0.13031006,0.734375,-1.125,0.28125
510,1697626365,-0.18579102,-0.99591064,0.124938965,-0.203125,-0.25,-0.03125
511,1697626405,-0.18139648,-0.98028564,0.113708496,0.859375,-0.21875,0.1875
512,1697626445,-0.18286133,-0.9985962,0.12371826,0.828125,-0.34375,0.09375
513,1697626485,-0.19018555,-0.98809814,0.121520996,0.765625,-0.46875,0.296875
514,1697626525,-0.16918945,-1.003479,0.113708496,0.46875,-1.125,0.046875
515,1697626565,-0.1875,-1.00177,0.109558105,0.40625,0.0625,0.28125
516,1697626605,-0.18676758,-0.986145,0.11517334,0.84375,0.375,0.90625
517,1697626645,-0.17041016,-0.9924927,0.11444092,0.140625,-0.625,-0.328125
518,1697626685,-0.1772461,-0.9968872,0.12054443,-0.046875,-0.4375,-0.28125
519,1697626725,-0.18261719,-1.0046997,0.12420654,0.796875,-0.234375,0.328125
520,1697626765,-0.1772461,-0.99346924,0.11419678,-0.109375,-0.015625,-0.109375
521,1697626805,-0.18603516,-0.9885864,0.12371826,0.484375,-0.28125,0.25
522,1697626845,-0.18579102,-0.9951782,0.124694824,0.203125,-0.21875,-0.234375
523,1697626885,-0.16748047,-0.987854,0.117126465,0.703125,-1.375,-0.1875
524,1697626925,-0.19335938,-0.9866333,0.12615967,0.640625,0.0625,0.734375
525,1697626965,-0.17456055,-1.0037231,0.12420654,0.421875,-0.21875,0.203125
526,1697627005,-0.17871094,-0.99176025,0.11859131,0.578125,-1.0625,0.046875
527,1697627045,-0.18066406,-0.9793091,0.11663818,1.0625,-0.40625,-0.125
528,1697627085,-0.18603516,-1.0088501,0.12567139,0.515625,-0.734375,0.484375
529,1697627125,-0.17456055,-0.9949341,0.1227417,0.8125,-0.453125,-0.203125
530,1697627165,-0.18359375,-1.0039673,0.11639404,0.09375,0.015625,0.171875
531,1697627205,-0.17529297,-0.986145,0.12176514,0.078125,-0.453125,-0.125
532,1697627245,-0.18603516,-0.9902954,0.11566162,0.484375,-0.515625,-0.28125
533,1697627285,-0.17578125,-1.0130005,0.11956787,0.890625,-0.25,0.109375
534,1697627325,-0.17529297,-0.9907837,0.12225342,0.234375,-0.453125,-0.375
535,1697627365,-0.18798828,-0.973938,0.12030029,0.890625,-0.515625,0.015625
536,1697627405,-0.1772461,-1.0056763,0.12249756,0.65625,-0.09375,0.84375
537,1697627445,-0.1796875,-0.9885864,0.11639404,-0.984375,-0.859375,0.171875
538,1697627485,-0.18334961,-0.98931885,0.12298584,1.09375,-0.90625,-0.703125
539,1697627525,-0.1796875,-0.9990845,0.12835693,1.03125,0.78125,0.109375
540,1697627565,-0.1743164,-0.99884033,0.11566162,0.34375,-0.59375,-0.40625
541,1697627605,-0.17456055,-0.98150635,0.1329956,0.703125,-0.71875,-0.234375
542,1697627645,-0.17749023,-0.9883423,0.117370605,0.875,-0.890625,-0.046875
543,1697627685,-0.19018555,-1.0120239,0.12738037,1.1875,-0.671875,1.046875
544,1697627725,-0.18115234,-0.98687744,0.117126465,0.984375,0.0,0.46875
545,1697627765,-0.16625977,-0.99542236,0.117370605,0.140625,-0.546875,-0.84375
546,1697627805,-0.1821289,-0.9993286,0.121276855,0.328125,-0.578125,0.0
547,1697627845,-0.15698242,-0.9990845,0.116882324,0.5,0.15625,-0.40625
548,1697627885,-0.1953125,-0.9849243,0.121520996,-0.375,-0.546875,0.390625
549,1697627925,-0.16821289,-0.99786377,0.12786865,0.9375,-0.375,-0.03125
550,1697627965,-0.1784668,-0.9817505,0.12298584,-0.140625,-0.28125,0.40625
551,1697628005,-0.17358398,-0.9846802,0.12200928,0.796875,-0.390625,0.03125
552,1697628045,-0.18945312,-1.0032349,0.12860107,0.90625,-1.1875,0.59375
553,1697628085,-0.17822266,-0.9993286,0.1239624,1.578125,0.375,0.625
554,1697628125,-0.17700195,-0.98760986,0.12030029,0.25,-0.140625,0.15625
555,1697628165,-0.1743164,-0.9890747,0.12420654,0.53125,-1.40625,-0.84375
556,1697628205,-0.18164062,-1.0059204,0.12615967,0.46875,0.421875,0.140625
557,1697628245,-0.171875,-1.0012817,0.1239624,-0.25,-0.765625,0.03125
558,1697628285,-0.18676758,-0.99102783,0.11834717,0.171875,-0.265625,-0.375
559,1697628325,-0.1730957,-0.9949341,0.12445068,0.34375,0.671875,-0.515625
560,1697628365,-0.1809082,-0.97369385,0.124694824,-0.40625,-1.3125,-0.328125
561,1697628405,-0.1743164,-1.010315,0.12884521,0.46875,-0.265625,-0.9375
562,1697628445,-0.16748047,-0.9932251,0.13519287,0.890625,-1.109375,-1.25
563,1697628485,-0.19384766,-0.9837036,0.1359253,0.671875,-1.4375,-0.0625
564,1697628525,-0.1875,-0.973938,0.15252686,-0.171875,-0.25,0.359375
565,1697628565,-0.1809082,-1.0288696,0.11663818,-2.34375,-1.859375,0.6875
566,1697628605,-0.20288086,-0.95684814,0.08123779,0.890625,-6.65625,-1.15625
567,1697628645,-0.22192383,-1.0234985,0.15106201,7.359375,-3.90625,-0.4375
568,1697628685,-0.15478516,-1.0730591,0.18670654,0.609375,2.0625,6.171875
569,1697628725,-0.15795898,-1.0007935,0.12249756,-2.640625,-1.28125,3.0
570,1697628765,-0.14770508,-0.9290161,0.074157715,-0.0625,-0.65625,-3.03125
571,1697628805,-0.20825195,-0.9963989,0.11395264,4.015625,-2.515625,-3.375
572,1697628845,-0.1809082,-1.0166626,0.15594482,-1.046875,-1.140625,0.59375
573,1697628885,-0.17333984,-1.0232544,0.11590576,0.109375,0.640625,-0.234375
574,1697628925,-0.15454102,-0.98443604,0.12005615,2.53125,0.640625,1.59375
575,1697628965,-0.18432617,-0.95513916,0.10101318,-0.828125,-0.828125,-0.6875
576,1697629005,-0.19384766,-0.9697876,0.09857178,-1.46875,-1.078125,-1.109375
577,1697629045,-0.17700195,-0.94610596,0.12689209,2.28125,-2.8125,-1.4375
578,1697629085,-0.1977539,-1.0357056,0.14422607,3.125,-1.53125,-1.109375
579,1697629125,-0.1784668,-1.010315,0.14056396,1.4375,-0.671875,0.8125
580,1697629165,-0.17749023,-0.98028564,0.11224365,-1.203125,0.125,0.453125
581,1697629205,-0.1706543,-0.9866333,0.1149292,2.453125,-0.40625,-1.75
582,1697629245,-0.18798828,-0.9990845,0.11566162,0.9375,-1.640625,-0.734375
583,1697629285,-0.1665039,-0.9932251,0.13006592,0.71875,-0.578125,0.21875
584,1697629325,-0.18383789,-1.003479,0.116882324,0.796875,-0.703125,1.34375
585,1697629365,-0.17773438,-0.9834595,0.11541748,0.203125,-0.84375,-0.578125
586,1697629405,-0.17919922,-0.99713135,0.11956787,0.046875,-1.5625,-1.234375
587,1697629445,-0.19238281,-1.0134888,0.109558105,0.5,-1.09375,-0.578125
588,1697629485,-0.16796875,-0.9998169,0.11077881,0.75,-0.703125,0.359375
589,1697629525,-0.17919922,-0.98028564,0.11883545,-0.046875,-0.640625,0.453125
590,1697629565,-0.19458008,-0.9976196,0.11053467,-0.109375,-1.15625,0.4375
591,1697629605,-0.18237305,-0.99664307,0.12322998,0.46875,-1.328125,-1.125
592,1697629645,-0.17797852,-0.9944458,0.11785889,0.8125,-0.75,0.34375
593,1697629685,-0.17993164,-0.9807739,0.11468506,-0.5,-1.421875,-0.5
594,1697629725,-0.20458984,-0.99957275,0.13763428,1.96875,-1.28125,0.234375
595,1697629765,-0.18237305,-0.9924927,0.1239624,0.71875,0.0,0.109375
596,1697629805,-0.18261719,-0.99298096,0.117370605,-0.078125,-1.125,-0.25
597,1697629845,-0.19091797,-0.99298096,0.11590576,0.625,-0.25,0.046875
598,1697629885,-0.18457031,-0.9981079,0.12200928,0.203125,-0.8125,-0.46875
599,1697629925,-0.19262695,-0.9937134,0.121032715,0.34375,-0.453125,0.015625
600,1697629965,-0.1850586,-0.9841919,0.113708496,0.390625,0.15625,0.359375
601,1697630005,-0.19165039,-0.9937134,0.12054443,0.3125,-0.234375,-0.234375
602,1697630045,-0.17871094,-0.96954346,0.124938965,-0.0625,-0.375,-0.796875
603,1697630085,-0.17871094,-1.0066528,0.12298584,0.40625,-0.96875,-1.28125
604,1697630125,-0.18798828,-0.9993286,0.117370605,-0.421875,0.34375,0.1875
605,1697630165,-0.2019043,-0.9751587,0.13519287,0.9375,0.046875,0.65625
606,1697630205,-0.18066406,-1.0049438,0.11883545,-0.328125,-0.78125,-0.640625
607,1697630245,-0.18139648,-0.9885864,0.12347412,0.453125,-1.796875,-0.96875
608,1697630285,-0.19116211,-1.0010376,0.12567139,1.28125,0.875,-0.125
609,1697630325,-0.18457031,-0.9951782,0.12738037,1.015625,-0.140625,1.03125
610,1697630365,-0.19384766,-0.99005127,0.120788574,0.21875,-0.234375,0.15625
611,1697630405,-0.19311523,-1.0027466,0.12176514,1.125,-1.5,-0.546875
612,1697630445,-0.19018555,-0.9939575,0.13153076,1.0625,-0.09375,0.359375
613,1697630485,-0.17578125,-0.989563,0.120788574,1.875,-0.671875,0.390625
614,1697630525,-0.18603516,-0.97540283,0.1251831,0.671875,-0.4375,0.453125
615,1697630565,-0.19750977,-1.0093384,0.12322998,1.21875,-1.453125,-0.015625
616,1697630605,-0.17285156,-0.9837036,0.12347412,0.71875,-1.59375,-0.046875
617,1697630645,-0.17358398,-0.9866333,0.10809326,-0.03125,-0.96875,0.515625
618,1697630685,-0.18164062,-0.99298096,0.12738037,1.671875,-1.3125,0.171875
619,1697630725,-0.19189453,-0.99591064,0.12005615,0.46875,-0.171875,0.8125
620,1697630765,-0.18774414,-0.98760986,0.117126465,0.140625,-2.078125,-0.609375
621,1697630805,-0.17919922,-0.99468994,0.137146,0.9375,-0.625,-0.828125
622,1697630845,-0.1862793,-0.9993286,0.11883545,1.4375,-0.28125,1.03125
623,1697630885,-0.18701172,-0.98638916,0.12445068,0.59375,0.3125,0.46875
624,1697630925,-0.19824219,-1.0081177,0.1161499,2.15625,0.0625,0.125
625,1697630965,-0.18359375,-0.97906494,0.10858154,0.5,0.09375,-0.515625
626,1697631005,-0.18139648,-1.003479,0.117126465,1.671875,0.109375,-0.53125
627,1697631045,-0.18969727,-0.99713135,0.11053467,1.046875,1.59375,0.21875
628,1697631085,-0.17578125,-0.98443604,0.11175537,1.734375,0.046875,0.21875
629,1697631125,-0.1862793,-0.9949341,0.11444092,1.1875,-0.140625,-0.15625
630,1697631165,-0.18920898,-0.9898071,0.113220215,2.03125,-0.59375,-0.203125
631,1697631205,-0.1821289,-0.99957275,0.117126465,3.34375,0.5,0.203125
632,1697631245,-0.1772461,-0.99664307,0.09857178,2.5625,0.125,0.90625
633,1697631285,-0.18237305,-0.986145,0.10028076,4.421875,1.34375,1.578125
634,1697631325,-0.17944336,-1.0066528,0.10443115,4.34375,-0.1875,0.953125
635,1697631365,-0.17529297,-0.98638916,0.09588623,3.25,0.46875,1.734375
636,1697631405,-0.1821289,-0.9795532,0.08929443,2.578125,0.421875,0.71875
637,1697631445,-0.17211914,-1.0144653,0.09588623,3.9375,-0.4375,0.875
638,1697631485,-0.17822266,-1.0120239,0.08514404,3.09375,-0.078125,1.21875
639,1697631525,-0.15234375,-0.9866333,0.07147217,0.65625,-0.328125,0.4375
640,1697631565,-0.16430664,-0.98565674,0.066589355,2.03125,-1.6875,-0.140625
641,1697631605,-0.1821289,-0.97369385,0.09222412,1.03125,-0.828125,0.890625
642,1697631645,-0.18579102,-1.0115356,0.086364746,1.25,-2.03125,-0.03125
643,1697631685,-0.18017578,-1.0108032,0.09124756,1.15625,-1.09375,0.09375
644,1697631725,-0.15844727,-0.97979736,0.08270264,0.140625,0.03125,-1.140625
645,1697631765,-0.17797852,-1.0149536,0.07904053,1.71875,-0.34375,0.765625
646,1697631805,-0.17871094,-1.0032349,0.09490967,2.484375,1.4375,0.890625
647,1697631845,-0.16967773,-0.99224854,0.07293701,1.59375,1.375,1.1875
648,1697631885,-0.171875,-0.9807739,0.06585693,2.4375,-0.140625,-0.25
649,1697631925,-0.17529297,-0.99542236,0.08514404,3.09375,0.5,-0.203125
650,1697631965,-0.15454102,-1.0144653,0.081726074,2.578125,0.140625,-0.515625
651,1697632005,-0.16186523,-0.9993286,0.058532715,-0.71875,-1.046875,-0.921875
652,1697632045,-0.1665039,-0.9854126,0.06488037,1.1875,-0.78125,-0.890625
653,1697632085,-0.18164062,-0.9973755,0.078063965,-0.515625,-1.15625,-0.46875
654,1697632125,-0.17407227,-0.9795532,0.06365967,-1.015625,-1.1875,-0.96875
655,1697632165,-0.18969727,-1.0247192,0.07244873,-1.96875,-0.890625,-0.9375
656,1697632205,-0.16821289,-0.9915161,0.07147217,-1.65625,-0.828125,0.84375
657,1697632245,-0.1821289,-0.9849243,0.074157715,-2.171875,-0.109375,0.015625
658,1697632285,-0.17651367,-0.98809814,0.0680542,-0.390625,-1.296875,-0.46875
659,1697632325,-0.19238281,-0.972229,0.07611084,-0.6875,0.015625,-0.375
660,1697632365,-0.1887207,-1.015686,0.097351074,1.15625,-0.875,-0.265625
661,1697632405,-0.16552734,-0.9985962,0.07635498,-0.640625,-0.765625,0.140625
662,1697632445,-0.1862793,-0.98223877,0.07977295,0.421875,0.3125,0.765625
663,1697632485,-0.19555664,-0.9932251,0.09051514,-0.21875,-0.625,0.359375
664,1697632525,-0.19067383,-0.987854,0.09100342,-1.359375,0.0,-0.90625
665,1697632565,-0.17749023,-1.0159302,0.09246826,-0.78125,-0.46875,-1.078125
666,1697632605,-0.17089844,-1.0061646,0.09197998,-0.828125,-0.1875,-0.109375
667,1697632645,-0.17797852,-0.98516846,0.08734131,0.25,0.609375,-0.15625
668,1697632685,-0.20166016,-0.9702759,0.08807373,-0.8125,-0.046875,0.78125
669,1697632725,-0.1977539,-1.0088501,0.09564209,0.53125,-0.203125,0.90625
670,1697632765,-0.17822266,-0.9920044,0.085632324,-0.546875,-0.09375,0.6875
671,1697632805,-0.16064453,-0.973938,0.0993042,0.34375,0.140625,-0.234375
672,1697632845,-0.1730957,-1.0032349,0.097595215,0.375,-0.890625,0.578125
673,1697632885,-0.1875,-0.99884033,0.101745605,-0.765625,-0.71875,0.6875
674,1697632925,-0.19091797,-0.9990845,0.09906006,-1.0625,-1.609375,0.140625
675,1697632965,-0.1821289,-0.9883423,0.11419678,0.328125,-1.140625,-0.796875
676,1697633005,-0.18676758,-0.99053955,0.097351074,-1.640625,-1.171875,-0.140625
677,1697633045,-0.17260742,-0.9998169,0.1071167,-1.0,-2.1875,-1.125
678,1697633085,-0.17382812,-1.0044556,0.1227417,-0.53125,-1.703125,-0.3125
679,1697633125,-0.18969727,-1.0054321,0.12030029,-0.671875,-1.515625,0.828125
680,1697633165,-0.16821289,-0.9800415,0.10418701,-1.640625,-2.1875,-0.65625
681,1697633205,-0.17675781,-0.99835205,0.12054443,1.078125,-1.328125,-0.140625
682,1697633245,-0.18310547,-1.0061646,0.11907959,0.640625,-0.453125,1.9375
683,1697633285,-0.16699219,-0.98028564,0.11541748,-1.9375,-1.625,-0.21875
684,1697633325,-0.18408203,-0.9849243,0.11956787,-0.640625,-2.875,-0.96875
685,1697633365,-0.19213867,-0.9890747,0.12347412,1.4375,-1.015625,-0.515625
686,1697633405,-0.17456055,-0.9937134,0.11883545,0.765625,-0.9375,0.046875
687,1697633445,-0.18383789,-0.99835205,0.10321045,-0.234375,-1.25,0.125
688,1697633485,-0.17797852,-1.000061,0.11468506,-0.578125,-1.453125,-0.265625
689,1697633525,-0.1796875,-0.9771118,0.12567139,-0.546875,-1.21875,-0.484375
690,1697633565,-0.19360352,-1.0005493,0.11029053,-0.65625,-0.671875,0.421875
691,1697633605,-0.17944336,-0.99468994,0.12567139,0.671875,-0.6875,0.53125
692,1697633645,-0.171875,-1.0012817,0.1293335,-0.15625,-0.71875,0.578125
693,1697633685,-0.17163086,-0.9849243,0.117370605,0.734375,-0.140625,0.453125
694,1697633725,-0.16748047,-0.9973755,0.120788574,-0.5,-0.96875,-0.09375
695,1697633765,-0.18945312,-0.99591064,0.12957764,0.15625,-0.875,0.109375
696,1697633805,-0.19067383,-1.0059204,0.117370605,1.09375,-0.234375,0.515625
697,1697633845,-0.16625977,-0.9939575,0.12957764,0.0625,-0.140625,0.640625
698,1697633885,-0.1640625,-0.97784424,0.1083374,-0.21875,-0.765625,-0.390625
699,1697633925,-0.17016602,-0.986145,0.11932373,1.5625,-0.84375,-0.140625
700,1697633965,-0.16699219,-1.0100708,0.137146,1.734375,-0.265625,0.390625
701,1697634005,-0.17871094,-1.0093384,0.11663818,-2.25,0.171875,0.921875
702,1697634045,-0.16430664,-0.956604,0.13201904,-0.75,0.40625,-1.203125
703,1697634085,-0.17089844,-0.991272,0.12762451,-1.40625,-1.453125,-2.140625
704,1697634125,-0.20385742,-1.005188,0.1317749,1.1875,0.078125,-0.421875
705,1697634165,-0.1862793,-1.00177,0.1408081,0.9375,3.328125,1.265625
706,1697634205,-0.15112305,-1.008606,0.10394287,1.03125,-0.125,0.515625
707,1697634245,-0.18896484,-1.0098267,0.12298584,1.53125,0.078125,1.09375
708,1697634285,-0.20703125,-0.96661377,0.13812256,-0.03125,0.90625,0.515625
709,1697634325,-0.17749023,-0.9956665,0.1227417,0.34375,0.671875,-2.515625
710,1697634365,-0.15014648,-1.0125122,0.12835693,2.59375,1.546875,-0.484375
711,1697634405,-0.16015625,-1.0039673,0.13812256,3.90625,0.546875,2.046875
712,1697634445,-0.15771484,-1.0261841,0.11053467,2.140625,-0.234375,1.453125
713,1697634485,-0.17626953,-0.9644165,0.10321045,0.765625,-1.171875,1.859375
714,1697634525,-0.15527344,-0.94732666,0.11029053,1.046875,0.359375,-1.21875
715,1697634565,-0.18774414,-0.9763794,0.09173584,-1.984375,0.46875,-0.96875
716,1697634605,-0.18920898,-1.0288696,0.14129639,2.375,-2.40625,-0.578125
717,1697634645,-0.17773438,-1.0100708,0.13128662,1.21875,-1.265625,-0.34375
718,1697634685,-0.15209961,-0.9751587,0.10736084,1.046875,-1.21875,-1.203125
719,1697634725,-0.16430664,-0.9758911,0.10443115,0.3125,-0.703125,-0.328125
720,1697634765,-0.19702148,-0.9993286,0.113220215,0.296875,-0.96875,-0.25
721,1697634805,-0.19458008,-1.008606,0.12005615,1.21875,-1.125,-0.921875
722,1697634845,-0.1665039,-0.99957275,0.12640381,0.8125,0.15625,-0.953125
723,1697634885,-0.16821289,-0.9883423,0.10662842,0.265625,-0.53125,-0.359375
724,1697634925,-0.18017578,-0.9841919,0.10662842,1.3125,-0.625,0.203125
725,1697634965,-0.18359375,-1.0078735,0.12640381,1.40625,-0.359375,-0.171875
726,1697635005,-0.1796875,-1.000061,0.11590576,-0.609375,-0.859375,0.65625
727,1697635045,-0.17700195,-0.9902954,0.105407715,-0.765625,-1.0,-0.234375
728,1697635085,-0.17504883,-0.99346924,0.11834717,1.34375,-1.046875,0.140625
729,1697635125,-0.18237305,-0.9937134,0.117614746,-0.375,-0.96875,0.75
730,1697635165,-0.1821289,-1.0100708,0.113708496,0.390625,-1.75,0.5625
731,1697635205,-0.17260742,-0.9976196,0.12664795,0.234375,-0.953125,1.078125
732,1697635245,-0.18701172,-0.991272,0.1071167,0.296875,0.109375,1.171875
733,1697635285,-0.17285156,-0.9829712,0.12640381,0.671875,-1.25,-0.140625
734,1697635325,-0.17529297,-1.0073853,0.124938965,-0.046875,-1.21875,0.3125
735,1697635365,-0.17211914,-1.0046997,0.12322998,1.515625,-0.671875,1.03125
736,1697635405,-0.1730957,-0.972229,0.1149292,-1.09375,-0.484375,0.625
737,1697635445,-0.18164062,-0.9990845,0.12420654,0.828125,-1.21875,-0.203125
738,1697635485,-0.18017578,-1.019104,0.117614746,-0.578125,-0.34375,-0.328125
739,1697635525,-0.17260742,-0.99053955,0.1251831,0.359375,-0.890625,-0.203125
740,1697635565,-0.16748047,-0.98223877,0.12664795,0.90625,-0.171875,-0.140625
741,1697635605,-0.18725586,-0.99835205,0.12615967,1.59375,-0.3125,0.8125
742,1697635645,-0.17602539,-1.0090942,0.11859131,0.296875,-0.171875,0.234375
743,1697635685,-0.16845703,-0.9963989,0.12225342,0.125,-0.890625,-0.4375
744,1697635725,-0.17822266,-0.98687744,0.113220215,0.0625,-0.21875,-0.34375
745,1697635765,-0.15722656,-0.9981079,0.124694824,0.65625,-0.78125,-0.421875
746,1697635805,-0.17602539,-0.9937134,0.12176514,0.4375,0.34375,-0.15625
747,1697635845,-0.17456055,-0.9849243,0.12591553,0.765625,-0.96875,-0.703125
748,1697635885,-0.18334961,-1.0022583,0.13983154,0.40625,0.140625,-0.71875
749,1697635925,-0.16821289,-0.9956665,0.12030029,-0.484375,-0.71875,-1.203125
750,1697635965,-0.17041016,-0.99176025,0.1227417,-0.546875,-0.984375,-0.9375
751,1697636005,-0.1821289,-0.99005127,0.12298584,0.828125,-0.390625,0.109375
