,timestamp,accel_x,accel_y,accel_z,gyro_x,gyro_y,gyro_z
0,1697605965,-1.5957031,-0.18164062,0.23242188,-31.875,-62.625,-36.5625
1,1697606005,-1.71875,-0.29785156,0.2919922,-17.53125,-134.53125,-47.40625
2,1697606045,-1.546875,-0.12207031,-0.17382812,-148.15625,-85.09375,-115.40625
3,1697606085,-1.4609375,-0.23730469,-0.34277344,-225.84375,21.46875,-152.40625
4,1697606125,-1.7177734,-0.64746094,0.17675781,1.21875,-77.59375,-195.90625
5,1697606165,-1.0957031,0.24902344,0.08886719,245.28125,-122.03125,-198.1875
6,1697606205,-0.67089844,0.4033203,-0.1484375,36.78125,-56.90625,-157.40625
7,1697606245,-0.6591797,-0.24902344,0.33496094,98.75,-88.8125,-132.4375
8,1697606285,-0.5683594,-0.296875,0.016601562,163.1875,-121.46875,-80.375
9,1697606325,-0.3232422,-0.041015625,0.06933594,145.25,-79.1875,-11.65625
10,1697606365,-0.1328125,-0.017578125,0.016601562,85.375,2.6875,25.09375
11,1697606405,-0.36914062,0.028320312,0.099609375,5.1875,101.6875,37.84375
12,1697606445,-1.1894531,-0.8701172,2.0,-18.125,96.125,40.84375
13,1697606485,-0.7939453,0.8388672,1.4794922,-167.6875,141.46875,70.75
14,1697606525,-0.9033203,0.140625,-0.056640625,-56.65625,128.84375,70.0
15,1697606565,-1.2773438,-0.095703125,0.14453125,-40.46875,77.8125,80.8125
16,1697606605,-1.1347656,-0.10253906,0.0146484375,-45.4375,62.25,92.65625
17,1697606645,-1.0058594,-0.07519531,-0.0859375,-56.59375,74.5,77.59375
18,1697606685,-0.9873047,-0.28320312,-0.09472656,-46.21875,54.5,74.84375
19,1697606725,-1.0517578,-0.35839844,-0.030273438,18.40625,-2.15625,66.28125
20,1697606765,-0.7832031,-0.1875,-0.0390625,22.4375,14.46875,43.09375
21,1697606805,-0.90625,-0.33007812,-0.029296875,-6.25,28.0,16.90625
22,1697606845,-0.8671875,-0.14453125,-0.032226562,-7.53125,32.40625,19.71875
23,1697606885,-1.0537109,0.04296875,0.040039062,10.5,40.6875,32.21875
24,1697606925,-1.1982422,-0.15722656,0.072265625,22.8125,38.9375,50.0
25,1697606965,-1.3789062,-0.056640625,0.16015625,5.65625,20.96875,42.1875
26,1697607005,-1.5820312,-0.23828125,0.39160156,-42.6875,-19.96875,-5.125
27,1697607045,-1.4355469,-0.16796875,0.33691406,-49.75,-97.53125,-80.625
28,1697607085,-0.91015625,-0.39160156,-0.30078125,-258.125,-59.03125,-135.375
29,1697607125,-1.8144531,-0.67578125,0.4248047,-254.90625,35.09375,-167.09375
30,1697607165,-1.2666016,0.064453125,-0.31445312,252.4375,-112.125,-167.65625
31,1697607205,-0.7763672,-0.20605469,0.3251953,67.84375,-84.125,-133.46875
32,1697607245,-0.7158203,0.20214844,-0.19628906,129.5,-101.625,-105.28125
33,1697607285,-0.95996094,-0.3310547,0.19824219,134.15625,-107.1875,-103.875
34,1697607325,-0.43164062,-0.029296875,0.09667969,119.0,-96.4375,-64.75
35,1697607365,-0.18457031,0.2705078,0.05859375,84.03125,-50.78125,-11.84375
36,1697607405,-0.4033203,-0.29882812,0.22363281,4.4375,13.78125,9.40625
37,1697607445,-0.27246094,-0.30078125,0.31152344,8.28125,68.96875,31.5625
38,1697607485,-0.15136719,0.14941406,0.10644531,1.09375,145.5,88.875
39,1697607525,-2.0,-0.7402344,-2.0,-184.53125,137.125,75.875
40,1697607565,-0.28222656,-0.08886719,-0.4609375,35.8125,63.03125,39.625
41,1697607605,-1.2011719,0.17871094,0.13964844,-25.46875,87.8125,80.28125
42,1697607645,-1.4521484,-0.30273438,0.051757812,-51.34375,65.90625,86.625
43,1697607685,-0.9980469,-0.19042969,-0.087890625,-32.0625,51.625,87.84375
44,1697607725,-0.83984375,-0.030273438,-0.1328125,-27.46875,66.875,69.71875
45,1697607765,-0.9111328,-0.23339844,-0.043945312,-2.09375,49.625,71.59375
46,1697607805,-0.91503906,-0.20800781,-0.005859375,31.96875,33.4375,60.125
47,1697607845,-0.9560547,-0.24121094,-0.12890625,-28.09375,53.09375,43.34375
48,1697607885,-0.93652344,-0.032226562,-0.044921875,-33.15625,57.0625,24.59375
49,1697607925,-1.1259766,0.0048828125,0.06640625,-11.375,29.46875,27.46875
50,1697607965,-1.2382812,-0.16113281,0.043945312,-35.96875,17.8125,41.75
51,1697608005,-1.4091797,-0.36035156,-0.07421875,-71.25,0.0,24.53125
52,1697608045,-1.3945312,-0.25878906,0.42089844,-3.625,-18.1875,0.125
53,1697608085,-1.4804688,-0.49023438,0.21972656,21.28125,-121.09375,-48.46875
54,1697608125,-1.4941406,0.022460938,0.19628906,-92.84375,-74.78125,-106.4375
55,1697608165,-1.6533203,-0.296875,-0.8779297,-385.28125,19.40625,-179.9375
56,1697608205,-1.4980469,0.0126953125,0.045898438,115.53125,-41.03125,-195.96875
57,1697608245,-1.1767578,-0.4501953,-0.045898438,205.8125,-133.3125,-185.0
58,1697608285,-0.3955078,0.8496094,-0.578125,157.9375,-108.15625,-132.875
59,1697608325,-0.83984375,-0.24511719,0.37597656,129.8125,-119.59375,-129.875
60,1697608365,-0.37597656,-0.076171875,-0.055664062,146.34375,-128.625,-64.6875
61,1697608405,-0.23632812,-0.072265625,0.13671875,106.125,-65.875,-3.59375
62,1697608445,-0.08105469,0.07421875,0.037109375,58.40625,24.28125,28.5
63,1697608485,-0.3173828,-0.07128906,0.17089844,-48.34375,157.34375,51.75
64,1697608525,-0.22265625,0.37109375,2.0,-71.90625,222.59375,119.875
65,1697608565,-2.0,1.2705078,2.0,-209.53125,74.15625,33.03125
66,1697608605,0.29101562,-0.07519531,-0.095703125,-83.5625,150.125,32.53125
67,1697608645,-1.5019531,0.091796875,0.12011719,-26.375,76.40625,77.03125
68,1697608685,-1.203125,-0.390625,-0.016601562,-11.3125,45.09375,109.6875
69,1697608725,-0.80859375,0.05078125,-0.07128906,11.03125,54.1875,61.40625
70,1697608765,-0.7314453,-0.13769531,-0.026367188,3.46875,54.25,62.625
71,1697608805,-0.92089844,-0.46972656,0.04296875,4.3125,50.40625,55.71875
72,1697608845,-1.0039062,-0.3486328,0.051757812,18.96875,47.03125,34.90625
73,1697608885,-0.97558594,-0.060546875,0.10644531,5.65625,42.46875,23.3125
74,1697608925,-1.1367188,-0.064453125,0.06738281,-16.3125,38.375,36.25
75,1697608965,-1.2246094,-0.12695312,-0.05078125,-8.9375,29.34375,49.4375
76,1697609005,-1.6357422,-0.30566406,0.08496094,-23.09375,10.65625,42.25
77,1697609045,-1.4746094,-0.16308594,0.34765625,-47.5,-55.0625,-5.4375
78,1697609085,-1.9150391,-0.68359375,0.5957031,13.40625,-116.34375,-87.53125
79,1697609125,-1.1484375,0.22265625,-0.060546875,-157.59375,-90.28125,-138.96875
80,1697609165,-1.6914062,-0.61328125,-0.38671875,-381.71875,60.03125,-192.0625
81,1697609205,-1.1767578,-0.033203125,-0.4794922,247.59375,-62.875,-208.90625
82,1697609245,-0.9746094,-0.6777344,0.080078125,214.90625,-171.65625,-195.6875
83,1697609285,-0.05859375,0.93847656,-0.68066406,191.28125,-114.21875,-112.375
84,1697609325,-0.72265625,-0.5498047,0.40429688,92.625,-118.65625,-97.28125
85,1697609365,-0.46679688,-0.08984375,0.052734375,112.59375,-94.125,-47.40625
86,1697609405,-0.35253906,-0.06933594,0.29589844,96.0,-41.6875,-1.03125
87,1697609445,-0.29589844,0.06347656,0.08691406,36.78125,26.40625,32.65625
88,1697609485,-0.35253906,-0.20019531,0.33691406,-9.78125,102.78125,35.53125
89,1697609525,-0.3173828,0.08300781,0.3486328,-56.90625,189.625,99.90625
90,1697609565,-2.0,-1.1601562,-2.0,-172.875,221.5,91.5
91,1697609605,-0.24023438,-0.051757812,-0.96875,49.25,93.8125,41.15625
92,1697609645,-0.97753906,0.09472656,0.5332031,-67.53125,61.8125,89.71875
93,1697609685,-1.6269531,-0.46972656,0.0087890625,-15.625,23.0,92.34375
94,1697609725,-0.78808594,0.107421875,-0.025390625,-43.21875,61.28125,66.40625
95,1697609765,-0.85253906,-0.21386719,0.00390625,-37.1875,57.59375,68.3125
96,1697609805,-0.9765625,-0.40625,-0.026367188,-15.03125,40.03125,72.03125
97,1697609845,-0.94433594,-0.2939453,0.01953125,15.0625,48.75,51.09375
98,1697609885,-0.93359375,-0.0048828125,0.0625,10.65625,52.46875,29.90625
99,1697609925,-1.0664062,-0.056640625,0.03515625,-18.03125,39.59375,37.59375
100,1697609965,-1.0625,-0.14746094,-0.049804688,-23.6875,33.125,46.5
101,1697610005,-1.1845703,-0.19238281,-0.10644531,-17.15625,44.3125,49.125
102,1697610045,-1.5029297,-0.16796875,-0.046875,-19.90625,42.15625,58.46875
103,1697610085,-1.6230469,-0.017578125,0.55859375,-4.78125,-16.1875,14.34375
104,1697610125,-1.6865234,-0.6064453,0.39257812,-12.84375,-133.8125,-74.46875
105,1697610165,-1.4726562,0.038085938,0.024414062,-81.8125,-116.34375,-123.59375
106,1697610205,-1.3837891,-0.078125,-0.765625,-341.0,-1.84375,-163.4375
107,1697610245,-1.4726562,-0.32617188,0.33203125,52.84375,-39.25,-205.25
108,1697610285,-1.2011719,-0.44433594,0.045898438,274.9375,-148.8125,-197.8125
109,1697610325,-0.31933594,1.0615234,-0.4794922,148.1875,-89.3125,-131.90625
110,1697610365,-0.77734375,-0.32910156,0.3408203,89.59375,-112.4375,-110.96875
111,1697610405,-0.6767578,-0.16113281,-0.01171875,112.46875,-88.8125,-67.4375
112,1697610445,-0.46777344,-0.0390625,0.16992188,91.71875,-50.71875,-20.4375
113,1697610485,-0.037109375,0.13378906,0.0107421875,54.4375,12.5,28.9375
114,1697610525,-0.44140625,-0.28515625,0.16210938,-49.6875,109.59375,67.15625
115,1697610565,-0.54003906,0.0107421875,0.484375,-40.0625,147.9375,105.15625
116,1697610605,-2.0,0.01953125,-1.6982422,-129.28125,143.0,108.09375
117,1697610645,-0.2734375,-0.24023438,-0.41796875,-62.03125,136.15625,36.75
118,1697610685,-1.2587891,-0.09277344,0.29492188,20.875,61.625,62.5
119,1697610725,-1.3564453,-0.18554688,0.040039062,-26.375,46.75,110.46875
120,1697610765,-0.8535156,0.015625,-0.07519531,-28.5,52.46875,70.5625
121,1697610805,-0.9140625,-0.20996094,-0.059570312,-16.96875,62.0,71.34375
122,1697610845,-0.9296875,-0.4921875,-0.0107421875,-15.28125,55.46875,67.3125
123,1697610885,-0.9091797,-0.3564453,-0.0078125,9.9375,46.75,41.4375
124,1697610925,-1.0058594,-0.103515625,0.040039062,22.4375,41.90625,28.09375
125,1697610965,-1.0546875,-0.0859375,0.07910156,-10.28125,41.0625,34.375
126,1697611005,-1.3027344,-0.19433594,0.06738281,-6.59375,28.6875,48.40625
127,1697611045,-1.5175781,-0.32617188,0.048828125,-24.0625,1.34375,28.8125
128,1697611085,-1.3115234,-0.22753906,0.38671875,-28.75,-35.96875,-0.53125
129,1697611125,-1.4414062,-0.6816406,0.1171875,18.59375,-128.0,-69.5625
130,1697611165,-1.4472656,0.33203125,0.19335938,-55.4375,-91.9375,-131.09375
131,1697611205,-1.3173828,-0.1015625,-0.71777344,-364.28125,13.0625,-168.6875
132,1697611245,-1.3417969,-0.083984375,-0.11816406,58.34375,-30.65625,-188.84375
133,1697611285,-1.0195312,-0.6972656,0.43359375,253.03125,-140.03125,-171.5625
134,1697611325,-0.5097656,0.5126953,0.08984375,41.0,-67.75,-123.34375
135,1697611365,-0.7529297,-0.22265625,-0.029296875,123.03125,-98.65625,-107.59375
136,1697611405,-0.5566406,-0.072265625,0.16796875,119.25,-100.28125,-83.125
137,1697611445,-0.375,0.016601562,0.13378906,80.6875,-57.875,-35.59375
138,1697611485,-0.16308594,-0.123046875,0.076171875,68.28125,-17.65625,16.25
139,1697611525,-0.23339844,-0.21289062,0.046875,15.78125,64.1875,71.0
140,1697611565,-0.39746094,0.23046875,0.34375,-13.4375,185.78125,91.0
141,1697611605,-2.0,-2.0,-1.8564453,-190.375,89.71875,89.53125
142,1697611645,0.06347656,0.15039062,-0.46972656,16.71875,81.53125,27.40625
143,1697611685,-0.84472656,0.25390625,0.13085938,36.84375,58.875,66.09375
144,1697611725,-1.5419922,-0.14550781,0.06738281,-43.59375,55.28125,84.1875
145,1697611765,-1.015625,-0.28222656,-0.060546875,-13.0,37.71875,81.71875
146,1697611805,-0.8017578,0.0126953125,-0.099609375,-13.5625,56.9375,62.0625
147,1697611845,-0.9628906,-0.3798828,-0.036132812,-28.9375,58.40625,69.78125
148,1697611885,-1.0097656,-0.2919922,0.047851562,5.84375,30.4375,57.0625
149,1697611925,-1.0537109,-0.23730469,-0.009765625,-4.46875,37.28125,42.1875
150,1697611965,-0.9921875,-0.14453125,0.01953125,-15.9375,39.53125,36.0625
151,1697612005,-1.1279297,-0.15625,-0.01171875,-6.0,34.34375,42.0625
152,1697612045,-1.3535156,-0.30566406,-0.07714844,1.21875,20.5,49.6875
153,1697612085,-1.3017578,-0.15820312,0.16796875,-11.5,3.15625,24.84375
154,1697612125,-1.4482422,-0.26953125,0.07324219,-0.25,-61.21875,-21.53125
155,1697612165,-1.6123047,0.09277344,0.4501953,-18.5625,-72.34375,-101.5625
156,1697612205,-1.1943359,-0.08300781,-0.103515625,-248.3125,-52.875,-140.1875
157,1697612245,-1.6162109,-0.55371094,0.034179688,-251.40625,25.9375,-168.4375
158,1697612285,-0.98535156,-0.33203125,0.09375,244.5,-95.40625,-196.53125
159,1697612325,-0.82128906,-0.43847656,0.11816406,132.6875,-118.0625,-152.40625
160,1697612365,-0.59375,0.48632812,-0.26367188,123.15625,-103.59375,-113.15625
161,1697612405,-0.8466797,-0.34472656,0.25,112.40625,-100.53125,-104.3125
162,1697612445,-0.44335938,-0.0068359375,0.06738281,124.0,-88.5625,-62.5
163,1697612485,-0.37402344,-0.032226562,0.21972656,62.71875,-30.78125,-9.09375
164,1697612525,-0.23925781,0.018554688,0.05859375,3.65625,22.4375,39.4375
165,1697612565,-0.37890625,-0.109375,0.12792969,-45.25,112.90625,85.28125
166,1697612605,-0.9472656,-0.36914062,2.0,-78.125,110.09375,120.625
167,1697612645,-1.5478516,0.8457031,2.0,-123.125,124.375,49.1875
168,1697612685,-0.072265625,0.24316406,0.7285156,-40.40625,136.28125,56.65625
169,1697612725,-1.2861328,0.0048828125,0.2265625,-12.9375,56.6875,63.375
170,1697612765,-1.1923828,-0.3935547,-0.0009765625,-33.40625,40.875,99.96875
171,1697612805,-0.9169922,0.0048828125,-0.16601562,-15.46875,46.0625,60.5
172,1697612845,-0.890625,-0.328125,-0.061523438,-12.65625,50.03125,71.1875
173,1697612885,-0.95214844,-0.38378906,-0.029296875,32.28125,31.59375,61.15625
174,1697612925,-0.94921875,-0.1953125,0.030273438,26.0,44.59375,48.21875
175,1697612965,-0.85253906,-0.0859375,0.056640625,1.21875,56.25,39.5625
176,1697613005,-0.95703125,-0.07324219,0.013671875,-4.21875,40.625,37.1875
177,1697613045,-1.1386719,-0.20898438,0.0546875,-14.34375,33.3125,36.25
178,1697613085,-1.0683594,-0.13671875,0.0146484375,-26.4375,28.375,47.78125
179,1697613125,-1.3427734,-0.2626953,-0.09375,-22.0,16.46875,44.125
180,1697613165,-1.6201172,-0.31445312,-0.072265625,-22.09375,-17.59375,-3.90625
181,1697613205,-1.8027344,-0.3857422,0.33789062,51.8125,-99.375,-68.96875
182,1697613245,-1.4931641,0.4609375,0.17871094,-66.40625,-114.34375,-108.28125
183,1697613285,-1.3925781,-0.055664062,-0.4638672,-311.65625,-5.875,-136.59375
184,1697613325,-1.6865234,-0.328125,-0.26757812,-72.53125,-23.6875,-179.5
185,1697613365,-1.2148438,-0.36132812,0.053710938,247.3125,-126.84375,-182.0
186,1697613405,-0.52246094,0.06640625,-0.119140625,182.125,-91.1875,-131.40625
187,1697613445,-0.6748047,0.16308594,0.005859375,60.15625,-69.90625,-111.875
188,1697613485,-0.6777344,-0.15917969,0.10449219,85.6875,-85.03125,-103.4375
189,1697613525,-0.42773438,-0.265625,0.13183594,129.0625,-88.75,-73.0
190,1697613565,-0.265625,0.01953125,0.11621094,83.78125,-55.625,-26.0625
191,1697613605,-0.296875,-0.16992188,0.109375,37.15625,4.5625,12.46875
192,1697613645,-0.2998047,-0.23242188,0.19042969,1.03125,66.75,59.875
193,1697613685,-0.19335938,-0.015625,0.8701172,-40.1875,163.1875,116.75
194,1697613725,-2.0,0.24414062,-0.49609375,-76.0,109.59375,104.625
195,1697613765,-0.5449219,0.125,-0.328125,-23.09375,63.46875,48.65625
196,1697613805,-1.0205078,0.0546875,0.14355469,-8.375,98.5625,74.15625
197,1697613845,-1.5390625,-0.5019531,0.15136719,-42.625,63.59375,67.9375
198,1697613885,-0.92285156,-0.09472656,-0.041992188,-7.03125,34.84375,79.90625
199,1697613925,-0.8066406,0.02734375,-0.05078125,-26.25,55.21875,74.40625
200,1697613965,-1.0283203,-0.40722656,0.0087890625,-4.46875,43.75,75.1875
201,1697614005,-0.91308594,-0.3486328,0.05078125,8.90625,48.6875,63.65625
202,1697614045,-0.79785156,-0.14453125,0.017578125,6.09375,57.96875,51.59375
203,1697614085,-0.85253906,-0.16113281,0.024414062,-28.5625,62.96875,46.03125
204,1697614125,-1.0634766,-0.21679688,-0.0087890625,-12.84375,48.21875,45.28125
205,1697614165,-1.0820312,-0.20703125,0.0029296875,-9.78125,30.125,49.625
206,1697614205,-1.2402344,-0.3408203,-0.080078125,-32.71875,24.03125,54.21875
207,1697614245,-1.4267578,-0.107421875,0.16015625,-35.46875,-3.0625,17.40625
208,1697614285,-1.5751953,-0.6611328,0.051757812,-42.375,-82.21875,-40.9375
209,1697614325,-1.8291016,0.10546875,0.50390625,3.53125,-104.25,-129.34375
210,1697614365,-1.0800781,0.21679688,-0.17285156,-211.625,-70.8125,-135.4375
211,1697614405,-1.7080078,-0.6826172,-0.018554688,-299.03125,75.84375,-175.96875
212,1697614445,-1.2949219,-0.45214844,-0.22851562,183.9375,-87.96875,-197.25
213,1697614485,-0.61621094,-0.41503906,0.49804688,207.9375,-124.40625,-148.625
214,1697614525,-0.58984375,0.2607422,0.028320312,71.71875,-71.0625,-111.625
215,1697614565,-0.5722656,-0.0048828125,-0.033203125,91.0,-95.65625,-90.09375
216,1697614605,-0.4658203,-0.27929688,0.22558594,91.25,-84.25,-67.375
217,1697614645,-0.29785156,-0.051757812,0.171875,81.40625,-60.6875,-26.0625
218,1697614685,-0.31347656,-0.19335938,0.15039062,37.65625,0.0625,8.375
219,1697614725,-0.37597656,-0.34375,0.15722656,5.90625,58.59375,45.78125
220,1697614765,-0.31933594,-0.11425781,0.45117188,15.1875,147.09375,70.1875
221,1697614805,-2.0,-2.0,-1.5810547,-171.9375,47.09375,15.9375
222,1697614845,-0.2783203,-0.17675781,-0.044921875,109.5,68.15625,90.75
223,1697614885,-0.7792969,0.24902344,-0.0087890625,-28.8125,121.09375,96.25
224,1697614925,-1.5859375,-0.34570312,0.17480469,-47.0,77.9375,86.8125
225,1697614965,-1.0820312,-0.3251953,-0.17773438,-15.15625,20.625,92.78125
226,1697615005,-0.7675781,-0.09863281,-0.11425781,-29.375,56.1875,70.875
227,1697615045,-0.98046875,-0.4091797,-0.06640625,-11.84375,58.65625,81.125
228,1697615085,-0.9550781,-0.32714844,0.0234375,27.6875,40.15625,69.9375
229,1697615125,-0.85058594,-0.11035156,-0.044921875,5.0,50.65625,56.46875
230,1697615165,-0.9482422,-0.04296875,-0.02734375,-11.78125,48.09375,54.4375
231,1697615205,-0.9941406,-0.15039062,-0.0068359375,-18.875,39.0625,48.71875
232,1697615245,-1.0546875,-0.14746094,-0.09472656,-17.96875,37.40625,55.25
233,1697615285,-1.3349609,-0.2529297,-0.09082031,-10.4375,32.03125,58.40625
234,1697615325,-1.3769531,-0.20996094,0.11816406,-47.8125,-1.59375,21.96875
235,1697615365,-1.4140625,-0.640625,0.111328125,3.03125,-76.96875,-43.28125
236,1697615405,-1.7753906,0.1015625,0.5361328,52.0,-105.1875,-119.375
237,1697615445,-1.1308594,0.3173828,-0.044921875,-195.375,-69.46875,-135.0625
238,1697615485,-1.6699219,-0.3642578,-0.47851562,-275.34375,63.34375,-192.3125
239,1697615525,-1.3417969,-0.41992188,-0.32128906,157.59375,-96.21875,-216.5
240,1697615565,-0.82421875,-0.16601562,0.38964844,212.15625,-146.875,-172.71875
241,1697615605,-0.6875,0.26757812,0.20996094,56.625,-77.46875,-138.65625
242,1697615645,-0.48339844,0.07519531,-0.17382812,91.1875,-94.4375,-108.625
243,1697615685,-0.4560547,-0.39257812,0.1328125,99.09375,-102.0,-75.4375
244,1697615725,-0.296875,-0.0126953125,0.10839844,105.59375,-63.5,-13.4375
245,1697615765,-0.4560547,-0.07910156,0.25390625,75.71875,9.375,19.40625
246,1697615805,-0.12988281,-0.15820312,0.19921875,53.75,65.90625,57.5
247,1697615845,-0.64941406,-0.47558594,0.5410156,-34.375,169.0,76.96875
248,1697615885,-2.0,-1.1464844,1.8271484,-97.0,57.375,86.375
249,1697615925,-0.5703125,-0.22363281,0.28222656,-33.34375,109.0625,51.65625
250,1697615965,-0.10644531,0.65625,0.33398438,-78.25,194.09375,80.6875
251,1697616005,-1.5283203,-0.48632812,0.16992188,-11.375,72.125,70.9375
252,1697616045,-1.1767578,-0.41015625,-0.022460938,-34.3125,33.125,94.90625
253,1697616085,-0.7480469,0.015625,-0.12695312,-19.1875,54.0,59.28125
254,1697616125,-0.83984375,-0.09082031,-0.08300781,-35.34375,69.03125,65.75
255,1697616165,-1.0527344,-0.45996094,-0.021484375,-6.96875,51.5,64.75
256,1697616205,-1.0019531,-0.23925781,-0.0625,6.9375,48.5625,49.9375
257,1697616245,-0.9667969,-0.025390625,0.001953125,-8.0,44.65625,42.96875
258,1697616285,-0.9638672,-0.091796875,-0.028320312,-38.28125,41.8125,43.40625
259,1697616325,-1.1992188,-0.19921875,0.015625,-38.15625,34.96875,45.34375
260,1697616365,-1.3193359,-0.3203125,-0.078125,-57.75,12.75,38.8125
261,1697616405,-1.4833984,-0.37695312,0.203125,-34.8125,-14.125,11.84375
262,1697616445,-1.5234375,-0.41015625,0.12207031,-1.96875,-75.75,-59.9375
263,1697616485,-1.53125,0.4169922,0.20703125,0.78125,-87.15625,-105.15625
264,1697616525,-1.2763672,0.03515625,-0.32226562,-234.15625,-29.75,-128.21875
265,1697616565,-1.6298828,-0.5800781,-0.15429688,-275.03125,37.21875,-171.875
266,1697616605,-1.3046875,-0.40820312,-0.19433594,221.375,-95.28125,-192.0
267,1697616645,-0.4658203,0.09375,0.13964844,172.34375,-111.78125,-133.34375
268,1697616685,-0.72265625,0.033203125,0.059570312,40.5625,-63.0,-120.40625
269,1697616725,-0.6513672,-0.111328125,0.033203125,81.84375,-87.34375,-95.625
270,1697616765,-0.56933594,-0.3544922,0.0703125,112.96875,-81.4375,-73.40625
271,1697616805,-0.31640625,-0.06640625,0.076171875,85.875,-51.59375,-30.34375
272,1697616845,-0.3310547,-0.087890625,0.17382812,48.6875,7.1875,11.25
273,1697616885,-0.26171875,-0.2265625,0.12988281,10.5625,70.375,53.65625
274,1697616925,-0.3388672,-0.047851562,0.47558594,-40.1875,154.96875,109.6875
275,1697616965,-2.0,-0.87890625,-2.0,-95.28125,172.90625,101.5
276,1697617005,-0.50878906,0.036132812,-0.13183594,-10.15625,76.59375,48.96875
277,1697617045,-0.9970703,0.171875,0.28125,2.25,91.59375,71.90625
278,1697617085,-1.2851562,-0.2783203,0.11621094,-42.25,55.59375,81.1875
279,1697617125,-1.0078125,-0.13378906,-0.083984375,-35.78125,43.25,88.4375
280,1697617165,-0.8623047,-0.17871094,-0.16796875,-20.65625,52.46875,82.71875
281,1697617205,-0.9111328,-0.38476562,-0.0390625,5.65625,45.15625,72.5
282,1697617245,-0.87597656,-0.25,-0.033203125,17.4375,49.5625,55.5625
283,1697617285,-0.9765625,-0.11328125,0.038085938,5.1875,52.53125,45.96875
284,1697617325,-0.96777344,-0.08691406,0.0048828125,-30.84375,42.40625,37.34375
285,1697617365,-1.0234375,-0.0859375,-0.0703125,-14.65625,24.71875,37.90625
286,1697617405,-1.1455078,-0.14550781,-0.099609375,-23.75,23.65625,48.71875
287,1697617445,-1.3974609,-0.24023438,-0.0859375,-13.0625,19.40625,49.5
288,1697617485,-1.4453125,-0.12890625,0.095703125,-11.5625,-7.59375,9.59375
289,1697617525,-1.7216797,-0.20507812,0.29296875,36.375,-80.9375,-54.4375
290,1697617565,-1.1953125,0.20507812,-0.022460938,-75.15625,-88.625,-103.4375
291,1697617605,-1.2275391,-0.14257812,-0.33496094,-212.78125,-18.5625,-137.875
292,1697617645,-1.5625,-0.43847656,0.123046875,-208.375,31.59375,-159.71875
293,1697617685,-1.1845703,-0.32714844,-0.119140625,148.125,-72.21875,-169.96875
294,1697617725,-0.73828125,-0.29101562,-0.018554688,156.65625,-110.78125,-145.625
295,1697617765,-0.6425781,0.40234375,0.06640625,73.15625,-69.09375,-117.125
296,1697617805,-0.7988281,-0.27246094,0.009765625,80.3125,-70.5625,-112.0
297,1697617845,-0.53808594,-0.2626953,0.091796875,122.90625,-77.59375,-87.15625
298,1697617885,-0.5,-0.13769531,0.15332031,59.25,-48.71875,-39.84375
299,1697617925,-0.375,-0.1328125,0.053710938,40.875,-8.75,2.3125
300,1697617965,-0.10253906,-0.16699219,0.19335938,45.15625,48.375,52.1875
301,1697618005,-0.06933594,-0.28125,1.03125,-65.6875,149.9375,112.25
302,1697618045,-2.0,0.3076172,0.26367188,-83.6875,64.5,87.90625
303,1697618085,-0.97558594,-0.10839844,0.21777344,-64.34375,56.3125,85.5625
304,1697618125,-1.1679688,0.07128906,0.10839844,0.65625,92.59375,74.28125
305,1697618165,-1.3193359,-0.49121094,0.23144531,-6.84375,63.28125,73.75
306,1697618205,-0.81933594,0.13867188,0.0234375,-25.34375,43.3125,80.375
307,1697618245,-0.8769531,-0.1171875,-0.0029296875,-48.28125,54.4375,84.46875
308,1697618285,-1.0634766,-0.31347656,-0.12988281,-21.6875,37.21875,85.28125
309,1697618325,-1.0068359,-0.39257812,0.00390625,32.875,17.6875,75.375
310,1697618365,-0.83984375,-0.1328125,0.087890625,-16.84375,40.09375,54.25
311,1697618405,-1.0253906,-0.12890625,-0.0068359375,-18.8125,35.5625,48.90625
312,1697618445,-0.98339844,-0.09863281,-0.034179688,-25.59375,37.34375,37.78125
313,1697618485,-1.1757812,-0.19042969,-0.03515625,-23.8125,29.59375,54.15625
314,1697618525,-1.4091797,-0.44140625,0.0,-9.84375,10.65625,46.40625
315,1697618565,-1.5146484,-0.48339844,0.0048828125,22.875,-22.34375,8.125
316,1697618605,-1.578125,0.01953125,0.3876953,31.375,-67.875,-57.3125
317,1697618645,-1.3447266,0.171875,-0.041015625,-59.8125,-74.65625,-92.28125
318,1697618685,-1.1328125,0.0029296875,-0.35839844,-261.1875,-19.53125,-139.59375
319,1697618725,-1.5839844,-0.19726562,-0.17871094,-218.28125,26.84375,-164.25
320,1697618765,-1.4150391,-0.6660156,-0.3720703,204.21875,-112.0,-203.1875
321,1697618805,-0.7441406,0.27539062,0.24902344,125.125,-115.625,-152.21875
322,1697618845,-0.8076172,0.11425781,0.119140625,52.1875,-80.59375,-145.75
323,1697618885,-0.6640625,-0.034179688,-0.11425781,75.71875,-82.03125,-113.46875
324,1697618925,-0.39648438,-0.21875,-0.037109375,122.96875,-93.34375,-63.53125
325,1697618965,-0.2783203,-0.14648438,0.01953125,81.09375,-57.6875,-12.03125
326,1697619005,-0.234375,0.0078125,0.13671875,78.40625,1.75,29.5
327,1697619045,-0.22558594,-0.13085938,0.028320312,-13.875,104.59375,83.875
328,1697619085,-0.5136719,-0.107421875,1.9169922,2.25,193.90625,112.0
329,1697619125,-2.0,0.7246094,1.4794922,-166.34375,76.40625,92.96875
330,1697619165,-0.23339844,0.2265625,0.27441406,2.3125,108.21875,50.90625
331,1697619205,-1.3496094,-0.16210938,0.16113281,-20.6875,96.0,86.6875
332,1697619245,-1.3359375,-0.39746094,-0.00390625,-22.90625,60.53125,90.46875
333,1697619285,-0.8466797,0.056640625,-0.052734375,7.375,32.9375,73.375
334,1697619325,-0.8642578,-0.068359375,-0.12695312,-40.96875,62.84375,68.3125
335,1697619365,-0.94921875,-0.34472656,-0.015625,-16.96875,43.875,74.71875
336,1697619405,-0.99609375,-0.2998047,0.07324219,-18.9375,45.9375,53.34375
337,1697619445,-0.9433594,-0.14355469,0.047851562,-17.78125,42.71875,41.4375
338,1697619485,-0.9589844,-0.123046875,0.0029296875,-32.40625,35.28125,38.875
339,1697619525,-1.0703125,-0.16308594,-0.017578125,-12.34375,27.28125,41.4375
340,1697619565,-1.2148438,-0.19628906,-0.10058594,-24.125,25.9375,51.34375
341,1697619605,-1.4599609,-0.21289062,-0.005859375,-19.59375,13.28125,43.46875
342,1697619645,-1.5800781,-0.40625,0.13476562,-10.8125,-37.0625,-2.5625
343,1697619685,-1.6396484,-0.26757812,0.5029297,14.40625,-116.53125,-90.4375
344,1697619725,-1.3125,0.3779297,0.00390625,-92.71875,-101.03125,-121.46875
345,1697619765,-1.2958984,-0.16308594,-0.6611328,-292.1875,23.4375,-160.34375
346,1697619805,-1.6044922,-0.5410156,-0.10644531,-66.1875,-16.6875,-183.53125
347,1697619845,-1.2285156,-0.21875,0.31445312,264.6875,-136.96875,-192.4375
348,1697619885,-0.6972656,0.19433594,-0.01171875,129.0625,-90.59375,-146.96875
349,1697619925,-0.6064453,0.41015625,-0.18457031,65.28125,-64.71875,-112.59375
350,1697619965,-0.796875,-0.40527344,0.10546875,79.28125,-73.5625,-107.40625
351,1697620005,-0.328125,-0.11816406,0.18066406,89.09375,-61.09375,-62.0625
352,1697620045,-0.30859375,-0.0703125,0.078125,56.9375,-27.40625,-9.46875
353,1697620085,-0.049804688,0.07128906,0.08691406,57.53125,23.78125,45.125
354,1697620125,-0.33789062,-0.053710938,0.15429688,-25.15625,148.84375,86.90625
355,1697620165,-2.0,-2.0,2.0,-197.9375,32.75,79.0
356,1697620205,-0.6220703,-0.41601562,-0.23242188,173.5,6.65625,47.3125
357,1697620245,-0.5214844,0.55078125,0.06347656,25.75,86.53125,89.78125
358,1697620285,-1.3847656,-0.109375,0.10058594,-13.25,66.09375,89.53125
359,1697620325,-1.0166016,-0.3095703,0.034179688,-50.375,61.4375,94.96875
360,1697620365,-0.81347656,0.02734375,-0.15429688,-62.875,57.375,82.59375
361,1697620405,-0.92285156,-0.18066406,-0.03125,-19.59375,43.8125,73.375
362,1697620445,-1.0322266,-0.30664062,-0.072265625,0.59375,39.0,74.96875
363,1697620485,-0.9375,-0.2529297,-0.060546875,9.09375,31.96875,60.0
364,1697620525,-0.9091797,-0.13769531,-0.0078125,-12.28125,43.75,50.0625
365,1697620565,-0.9609375,-0.18554688,-0.06640625,-32.1875,40.6875,38.03125
366,1697620605,-1.0410156,-0.17675781,-0.060546875,-15.8125,33.8125,38.9375
367,1697620645,-1.1416016,-0.1328125,-0.015625,-4.59375,32.65625,55.65625
368,1697620685,-1.4208984,-0.24023438,-0.08105469,-15.28125,21.96875,50.65625
369,1697620725,-1.6132812,-0.4326172,0.044921875,-2.5625,-15.28125,1.53125
370,1697620765,-1.6171875,-0.16894531,0.6455078,24.15625,-114.09375,-73.84375
371,1697620805,-1.4667969,0.36035156,-0.055664062,-90.09375,-116.84375,-131.71875
372,1697620845,-1.4140625,-0.015625,-0.8183594,-284.5,5.46875,-167.09375
373,1697620885,-1.8105469,-0.73339844,0.8496094,-23.5625,-56.46875,-206.78125
374,1697620925,-1.3339844,-0.23632812,0.5107422,218.0,-155.28125,-220.8125
375,1697620965,-0.5859375,0.3232422,0.3671875,-4.65625,-82.21875,-149.40625
376,1697621005,-0.6904297,-0.09082031,-0.10449219,120.59375,-96.75,-130.25
377,1697621045,-0.45898438,-0.20996094,0.026367188,103.1875,-98.78125,-84.71875
378,1697621085,-0.3779297,-0.048828125,0.07324219,110.46875,-84.65625,-36.5
379,1697621125,-0.21191406,-0.0068359375,0.0234375,59.0625,-21.375,7.625
380,1697621165,-0.12792969,-0.2265625,0.12109375,21.03125,33.5625,38.875
381,1697621205,-0.33984375,-0.16308594,0.39257812,2.5625,132.96875,63.0625
382,1697621245,-1.9765625,-2.0,2.0,-183.375,105.6875,85.15625
383,1697621285,-1.078125,-0.70996094,-0.4345703,109.90625,32.59375,40.09375
384,1697621325,-0.44433594,0.48339844,0.10253906,29.40625,102.78125,73.375
385,1697621365,-1.2021484,-0.19921875,0.17773438,-40.34375,80.625,77.09375
386,1697621405,-1.1191406,-0.42871094,-0.01953125,-38.9375,43.8125,97.59375
387,1697621445,-0.91308594,-0.17285156,-0.041015625,-36.03125,45.59375,80.3125
388,1697621485,-0.93066406,-0.32226562,-0.09765625,-4.59375,32.46875,85.9375
389,1697621525,-0.9550781,-0.29589844,-0.026367188,-9.53125,54.25,87.71875
390,1697621565,-0.9667969,-0.18847656,-0.048828125,0.59375,56.1875,62.3125
391,1697621605,-0.85253906,0.034179688,-0.0107421875,-4.84375,50.28125,51.75
392,1697621645,-0.90722656,0.052734375,-0.083984375,-27.90625,38.0625,50.25
393,1697621685,-1.0722656,-0.24511719,-0.18261719,-40.78125,31.40625,53.59375
394,1697621725,-1.3095703,-0.36132812,-0.42871094,-118.1875,7.0625,52.375
395,1697621765,-1.5498047,-0.19042969,0.44726562,4.9375,-6.59375,35.90625
396,1697621805,-1.6357422,0.013671875,0.26757812,-34.75,-27.0625,31.5
397,1697621845,-1.3417969,0.00390625,0.38476562,-18.8125,-92.40625,-47.1875
398,1697621885,-0.84472656,-0.85839844,-0.5966797,-167.3125,-53.1875,-89.34375
399,1697621925,-1.2910156,-0.3984375,-0.40625,-1.96875,-14.40625,-195.5
400,1697621965,-1.6962891,0.05078125,0.25097656,-75.5625,26.0625,-175.34375
401,1697622005,-1.5195312,-0.4345703,0.15136719,120.21875,-74.15625,-225.15625
402,1697622045,-0.7890625,0.23339844,0.34375,58.34375,-62.5,-193.46875
403,1697622085,-0.81347656,-0.14648438,-0.051757812,130.25,-59.9375,-166.5
404,1697622125,-0.6230469,-0.234375,-0.041992188,121.875,-91.1875,-121.53125
405,1697622165,-0.3701172,0.11230469,-0.036132812,138.28125,-101.75,-68.15625
406,1697622205,-0.20507812,0.0703125,0.09375,57.90625,-39.625,-19.84375
407,1697622245,-0.3359375,0.10058594,0.18359375,5.34375,25.125,22.53125
408,1697622285,-0.40039062,-0.14355469,0.07714844,2.1875,57.25,52.625
409,1697622325,-0.6767578,-0.26367188,0.17285156,7.75,90.5,79.90625
410,1697622365,-0.5761719,-0.52441406,0.3623047,13.46875,90.0625,104.75
411,1697622405,-0.9628906,-0.7265625,0.8652344,95.875,140.5,90.875
412,1697622445,-1.4042969,-0.6689453,0.7734375,17.4375,114.125,80.03125
413,1697622485,-2.0,-0.6035156,0.26171875,-243.84375,96.59375,-2.75
414,1697622525,-0.12402344,0.36035156,0.20800781,-5.375,4.1875,41.09375
415,1697622565,-0.9042969,0.2685547,-0.37402344,-1.78125,49.78125,87.09375
416,1697622605,-1.5048828,-0.3310547,-0.14453125,-3.375,47.84375,52.0625
417,1697622645,-0.9013672,-0.083984375,0.04296875,-6.375,36.59375,57.4375
418,1697622685,-0.8339844,0.22949219,-0.059570312,-18.4375,35.6875,69.78125
419,1697622725,-1.0898438,-0.20507812,-0.08691406,-8.0625,20.8125,69.46875
420,1697622765,-0.98339844,-0.09472656,-0.11425781,-21.75,33.25,50.0
421,1697622805,-0.9746094,0.044921875,-0.11621094,-45.1875,55.34375,54.15625
422,1697622845,-0.8691406,0.053710938,-0.18261719,-21.1875,54.4375,41.8125
423,1697622885,-1.0429688,0.030273438,-0.22265625,-12.09375,52.84375,53.21875
424,1697622925,-1.203125,-0.055664062,-0.24707031,-15.5,40.5,64.21875
425,1697622965,-1.2333984,-0.13378906,-0.09667969,-31.3125,35.6875,68.59375
426,1697623005,-1.515625,-0.14941406,0.18847656,0.0625,8.96875,45.90625
427,1697623045,-1.4970703,-0.32714844,0.005859375,-41.46875,-30.28125,1.65625
428,1697623085,-1.2167969,-0.3720703,0.25195312,-43.71875,-117.03125,-96.75
429,1697623125,-1.5498047,-0.0048828125,0.15625,-37.0,-90.28125,-162.71875
430,1697623165,-1.4921875,0.9160156,-0.48339844,-30.78125,-93.28125,-169.71875
431,1697623205,-1.5830078,0.29785156,-0.30273438,-179.8125,-8.875,-186.34375
432,1697623245,-1.6035156,-0.7265625,-0.072265625,113.625,-92.40625,-245.1875
433,1697623285,-0.83203125,0.30371094,-0.022460938,72.375,-93.8125,-194.625
434,1697623325,-0.74121094,-0.053710938,-0.1171875,72.1875,-76.0,-164.25
435,1697623365,-0.5205078,-0.16601562,-0.087890625,122.0625,-94.5,-112.3125
436,1697623405,-0.28027344,-0.09082031,0.14257812,85.0,-69.03125,-61.40625
437,1697623445,-0.33398438,0.12402344,0.017578125,61.09375,-3.5,-18.0
438,1697623485,-0.1875,-0.2919922,0.23535156,33.3125,36.375,14.15625
439,1697623525,-0.47851562,-0.4638672,0.13867188,-23.5,85.4375,48.34375
440,1697623565,-0.5517578,-0.140625,0.12890625,20.9375,137.3125,99.0625
441,1697623605,-2.0,-0.3642578,-0.13378906,-69.15625,136.40625,79.84375
442,1697623645,-0.6767578,0.27246094,0.23144531,73.21875,70.3125,73.25
443,1697623685,-1.1464844,0.033203125,0.29882812,-4.40625,108.3125,79.90625
444,1697623725,-1.2705078,-0.22949219,0.22460938,-20.59375,47.84375,80.4375
445,1697623765,-0.86816406,-0.036132812,-0.060546875,-82.78125,36.84375,95.84375
446,1697623805,-0.82421875,-0.11230469,-0.19140625,-43.78125,32.8125,105.53125
447,1697623845,-1.0703125,-0.5800781,-0.111328125,5.78125,14.5,95.46875
448,1697623885,-0.91308594,-0.33984375,-0.068359375,46.5,26.34375,66.96875
449,1697623925,-0.8457031,-0.09863281,0.046875,-0.625,56.75,56.53125
450,1697623965,-0.9658203,-0.0859375,0.015625,-29.125,49.1875,55.0625
451,1697624005,-0.9824219,-0.17480469,-0.03515625,-25.21875,32.34375,50.34375
452,1697624045,-1.1308594,-0.29589844,-0.1171875,-28.09375,25.3125,51.40625
453,1697624085,-1.2138672,-0.091796875,-0.10058594,-26.4375,21.34375,56.15625
454,1697624125,-1.625,-0.059570312,0.265625,-9.84375,0.65625,27.28125
455,1697624165,-1.6308594,-0.58691406,0.16113281,-19.84375,-68.5,-42.90625
456,1697624205,-1.4072266,0.08105469,0.40234375,-11.5625,-112.375,-110.96875
457,1697624245,-0.94628906,0.23339844,-0.5996094,-253.75,-60.125,-152.53125
458,1697624285,-1.6591797,-0.671875,-0.06542969,-208.625,25.5625,-182.5625
459,1697624325,-1.2998047,-0.037109375,-0.29003906,157.28125,-68.96875,-198.71875
460,1697624365,-0.70214844,-0.11425781,0.16503906,181.3125,-126.34375,-158.1875
461,1697624405,-0.65527344,0.24316406,0.15332031,51.125,-47.1875,-122.0
462,1697624445,-0.61328125,-0.048828125,-0.06933594,71.9375,-60.4375,-93.125
463,1697624485,-0.5576172,-0.28125,0.0859375,92.40625,-61.90625,-72.0625
464,1697624525,-0.29296875,0.020507812,0.27246094,85.25,-50.25,-34.46875
465,1697624565,-0.2685547,-0.095703125,0.12597656,40.15625,-8.96875,6.84375
466,1697624605,-0.35742188,-0.37695312,0.2626953,1.4375,42.40625,42.59375
467,1697624645,-0.4296875,-0.2998047,0.19238281,-20.875,115.15625,74.96875
468,1697624685,-0.71777344,-0.30664062,2.0,-31.25,126.8125,120.84375
469,1697624725,-2.0,-0.2265625,1.9169922,2.25,127.0,87.21875
470,1697624765,0.2685547,0.22753906,0.4013672,25.8125,147.5625,47.78125
471,1697624805,-1.5371094,-0.1171875,0.29101562,26.21875,79.875,67.4375
472,1697624845,-1.0517578,-0.025390625,0.17773438,-20.34375,50.34375,96.6875
473,1697624885,-0.93359375,0.091796875,-0.056640625,-35.15625,40.5625,89.25
474,1697624925,-0.9511719,-0.09667969,-0.20996094,-59.21875,53.75,86.6875
475,1697624965,-0.9404297,-0.41992188,-0.0859375,4.5,28.84375,82.65625
476,1697625005,-0.8388672,-0.27539062,-0.15917969,23.125,40.75,59.8125
477,1697625045,-0.9453125,-0.09277344,-0.0029296875,-6.125,49.5625,46.09375
478,1697625085,-1.0517578,-0.17285156,0.07519531,-34.375,30.625,38.09375
479,1697625125,-1.0517578,-0.20507812,-0.052734375,-12.65625,13.90625,32.96875
480,1697625165,-1.1914062,-0.109375,-0.07519531,-22.90625,11.46875,53.71875
481,1697625205,-1.2734375,-0.18945312,-0.15136719,-24.78125,22.4375,60.84375
482,1697625245,-1.6787109,-0.24511719,-0.01953125,24.34375,-1.78125,26.625
483,1697625285,-1.6650391,-0.12695312,0.4296875,42.90625,-70.1875,-37.84375
484,1697625325,-1.25,0.01171875,0.18164062,-36.5625,-126.59375,-88.375
485,1697625365,-1.2324219,0.0048828125,-0.37402344,-170.90625,-54.875,-151.53125
486,1697625405,-1.3916016,-0.13671875,-0.5878906,-214.84375,22.5,-160.28125
487,1697625445,-1.3300781,-0.3359375,0.0087890625,138.96875,-60.0,-203.0
488,1697625485,-0.88183594,-0.06640625,-0.025390625,159.34375,-125.9375,-177.78125
489,1697625525,-0.74902344,0.359375,0.09863281,51.625,-67.6875,-137.875
490,1697625565,-0.75,-0.2109375,0.091796875,80.625,-74.0625,-115.59375
491,1697625605,-0.42578125,-0.23339844,0.03125,97.59375,-78.875,-76.28125
492,1697625645,-0.3935547,-0.09472656,0.15527344,72.25,-50.96875,-25.03125
493,1697625685,-0.20800781,-0.041992188,0.09667969,59.0625,-1.84375,14.71875
494,1697625725,-0.4765625,-0.35351562,0.19140625,-1.125,75.71875,54.21875
495,1697625765,-0.3984375,0.17480469,0.1484375,-7.8125,125.125,121.34375
496,1697625805,-2.0,-0.5966797,-1.8896484,-77.78125,101.5,117.8125
497,1697625845,-0.34765625,0.021484375,0.42773438,-45.4375,81.40625,61.53125
498,1697625885,-1.1503906,0.0390625,0.30566406,0.59375,76.09375,64.75
499,1697625925,-1.2822266,-0.3623047,0.040039062,-41.8125,62.0625,75.03125
500,1697625965,-0.9042969,-0.16699219,-0.022460938,-6.59375,41.84375,82.78125
501,1697626005,-0.86328125,-0.10839844,-0.017578125,-27.125,56.1875,71.96875
502,1697626045,-1.0175781,-0.19238281,-0.076171875,-18.875,51.9375,76.59375
503,1697626085,-0.88183594,-0.20019531,-0.037109375,36.0625,26.21875,63.25
504,1697626125,-0.90722656,-0.09765625,-0.022460938,2.75,48.5625,45.84375
505,1697626165,-0.9423828,-0.09472656,-0.0146484375,-30.90625,47.53125,38.8125
506,1697626205,-1.0029297,-0.14453125,-0.017578125,-25.34375,30.03125,30.65625
507,1697626245,-1.03125,-0.22265625,-0.06738281,-3.6875,9.625,28.625
508,1697626285,-0.94628906,-0.0703125,-0.16015625,-27.1875,25.1875,44.625
509,1697626325,-1.2949219,-0.057617188,-0.123046875,-27.1875,26.34375,49.75
510,1697626365,-1.9677734,0.13476562,0.24511719,-11.96875,8.65625,31.625
511,1697626405,-1.5742188,-0.5595703,0.2626953,38.0625,-91.1875,-41.4375
512,1697626445,-1.3544922,0.111328125,0.29785156,-61.65625,-154.0,-91.375
513,1697626485,-0.9433594,-0.2841797,-0.23925781,-248.59375,-50.90625,-165.59375
514,1697626525,-1.7177734,-0.49023438,-0.46484375,-240.25,55.90625,-191.9375
515,1697626565,-1.4238281,-0.037109375,-0.2734375,284.90625,-104.5,-210.75
516,1697626605,-0.8154297,-0.015625,0.1640625,81.59375,-81.75,-161.0625
517,1697626645,-0.5185547,0.22363281,-0.39941406,134.4375,-84.59375,-125.78125
518,1697626685,-0.83984375,-0.37304688,0.3251953,66.75,-61.46875,-109.5625
519,1697626725,-0.35839844,-0.12207031,0.060546875,104.90625,-75.09375,-70.78125
520,1697626765,-0.30566406,0.17675781,0.15332031,94.21875,-41.625,-34.28125
521,1697626805,-0.2841797,-0.16015625,0.07714844,39.65625,3.96875,-18.78125
522,1697626845,-0.18847656,-0.4111328,0.3984375,21.34375,62.25,4.875
523,1697626885,-0.4716797,-0.5527344,0.20019531,-35.53125,139.6875,61.21875
524,1697626925,-0.3017578,-0.23339844,1.0839844,-40.53125,113.8125,148.875
525,1697626965,-2.0,0.2783203,1.6953125,111.0625,37.09375,52.125
526,1697627005,0.13085938,0.5878906,0.38671875,-19.25,112.65625,67.5625
527,1697627045,-1.5107422,-0.15625,0.03515625,-58.3125,88.25,72.46875
528,1697627085,-1.1074219,-0.3984375,0.07714844,-32.90625,46.9375,69.28125
529,1697627125,-0.765625,-0.0859375,-0.0859375,-53.125,53.625,77.59375
530,1697627165,-0.8623047,-0.2705078,-0.041015625,-37.96875,41.4375,74.71875
531,1697627205,-0.9550781,-0.1953125,-0.033203125,-18.09375,43.03125,72.75
532,1697627245,-0.86328125,-0.33398438,-0.015625,-2.09375,38.0625,65.875
533,1697627285,-0.8232422,-0.0625,-0.0234375,-14.84375,44.40625,57.0
534,1697627325,-0.9345703,-0.044921875,-0.0048828125,-29.625,37.53125,47.78125
535,1697627365,-1.0576172,-0.28808594,-0.10546875,-30.46875,33.5625,38.03125
536,1697627405,-1.0263672,-0.265625,-0.00390625,-16.125,34.15625,32.0
537,1697627445,-1.1542969,-0.09472656,-0.08105469,-20.75,24.40625,41.4375
538,1697627485,-1.3310547,0.055664062,-0.072265625,-40.125,19.28125,48.53125
539,1697627525,-1.5947266,-0.2763672,0.0048828125,-30.65625,-9.09375,1.15625
540,1697627565,-1.7089844,-0.25683594,0.44433594,-24.65625,-69.59375,-51.5625
541,1697627605,-1.2617188,-0.029296875,-0.13183594,-71.3125,-103.28125,-118.59375
542,1697627645,-1.2871094,0.16894531,-0.35839844,-155.78125,-24.5,-155.21875
543,1697627685,-1.7597656,-0.6816406,0.2998047,-108.78125,11.78125,-191.21875
544,1697627725,-1.1552734,0.038085938,-0.25195312,180.96875,-90.15625,-183.40625
545,1697627765,-0.56640625,-0.2705078,-0.16894531,140.25,-98.875,-134.875
546,1697627805,-0.5546875,0.3017578,0.020507812,47.09375,-57.9375,-101.75
547,1697627845,-0.7890625,-0.18457031,0.02734375,96.0,-74.34375,-94.71875
548,1697627885,-0.59765625,-0.2548828,0.0859375,81.53125,-64.59375,-71.28125
549,1697627925,-0.41503906,-0.017578125,0.23535156,70.1875,-40.71875,-38.75
550,1697627965,-0.3544922,-0.22949219,0.09667969,13.84375,12.8125,-6.21875
551,1697628005,-0.23828125,-0.375,0.21875,12.1875,61.09375,30.875
552,1697628045,-0.36035156,-0.51464844,0.4189453,-16.6875,122.25,114.09375
553,1697628085,-2.0,-1.3271484,-2.0,-1.84375,130.59375,49.4375
554,1697628125,-0.55078125,0.0,-0.18457031,-16.375,80.5625,83.8125
555,1697628165,-1.3564453,0.3408203,0.2109375,3.40625,107.28125,69.65625
556,1697628205,-1.4394531,-0.37304688,0.28515625,-45.0625,91.90625,74.96875
557,1697628245,-0.9716797,0.10058594,0.05859375,-26.8125,36.375,89.46875
558,1697628285,-0.9238281,-0.033203125,-0.064453125,-32.0625,35.3125,94.5
559,1697628325,-1.0029297,-0.15234375,-0.20410156,-38.59375,49.90625,87.03125
560,1697628365,-0.96777344,-0.29882812,-0.103515625,52.34375,14.15625,79.0
561,1697628405,-0.8496094,-0.07910156,0.040039062,-16.0,49.0,72.46875
562,1697628445,-0.92871094,-0.07128906,0.0087890625,-18.5625,49.84375,60.6875
563,1697628485,-1.1044922,-0.16308594,0.026367188,-11.0,44.65625,48.96875
564,1697628525,-1.1552734,-0.07910156,-0.16503906,-32.59375,28.3125,41.75
565,1697628565,-1.3271484,-0.36132812,-0.020507812,-17.71875,19.65625,46.34375
566,1697628605,-1.3837891,-0.21289062,0.17285156,-23.5,-15.40625,-3.46875
567,1697628645,-1.6220703,-0.1484375,0.3330078,48.21875,-77.71875,-48.6875
568,1697628685,-1.2568359,0.32226562,0.17578125,-47.0625,-85.53125,-80.9375
569,1697628725,-1.015625,-0.21191406,-0.19433594,-228.40625,13.46875,-129.375
570,1697628765,-1.7783203,-0.61816406,0.3388672,-188.5625,13.71875,-170.28125
571,1697628805,-1.1552734,-0.055664062,-0.1171875,219.34375,-103.34375,-188.03125
572,1697628845,-0.7871094,0.051757812,-0.13574219,115.71875,-110.53125,-146.96875
573,1697628885,-0.8076172,0.2998047,0.12597656,19.6875,-68.75,-136.46875
574,1697628925,-0.8232422,-0.17578125,0.09667969,79.8125,-78.875,-119.1875
575,1697628965,-0.53515625,-0.2548828,-0.0078125,104.40625,-83.4375,-87.6875
576,1697629005,-0.3876953,-0.11621094,0.06542969,74.34375,-48.0,-38.375
577,1697629045,-0.14453125,0.068359375,0.07128906,69.875,-3.90625,19.84375
578,1697629085,-0.16796875,0.021484375,0.29296875,-17.09375,121.625,88.03125
579,1697629125,-0.8300781,-0.6191406,2.0,-165.71875,151.71875,134.96875
580,1697629165,-1.5107422,-0.6904297,-0.32910156,99.96875,26.0,55.4375
581,1697629205,0.013671875,0.5703125,0.016601562,1.4375,101.0625,60.25
582,1697629245,-1.3994141,-0.12890625,0.16992188,-55.4375,80.6875,70.1875
583,1697629285,-1.1279297,-0.30371094,0.0390625,-15.03125,33.625,95.21875
584,1697629325,-0.8105469,0.040039062,-0.107421875,-27.78125,44.71875,76.90625
585,1697629365,-0.9423828,-0.26953125,-0.0546875,-21.0625,50.21875,76.375
586,1697629405,-1.0146484,-0.35839844,-0.055664062,28.4375,24.84375,69.9375
587,1697629445,-0.8886719,-0.09277344,0.013671875,-5.0625,52.71875,52.6875
588,1697629485,-0.90625,-0.07324219,0.026367188,-11.65625,56.5,47.625
589,1697629525,-0.9746094,-0.14453125,0.037109375,-18.375,42.90625,45.0
590,1697629565,-1.0585938,-0.20019531,0.0107421875,-19.46875,34.21875,47.25
591,1697629605,-1.2119141,-0.28027344,-0.07910156,-18.375,28.6875,52.0
592,1697629645,-1.4697266,-0.103515625,-0.047851562,-18.3125,22.21875,39.125
593,1697629685,-1.6962891,-0.21875,0.041015625,-6.84375,-17.53125,-8.59375
594,1697629725,-1.5576172,0.091796875,0.34375,-0.75,-99.4375,-75.25
595,1697629765,-1.3466797,0.013671875,-0.00390625,-131.3125,-81.375,-143.625
596,1697629805,-1.171875,-0.060546875,-0.640625,-263.5625,28.1875,-153.75
597,1697629845,-1.5341797,-0.5136719,0.33203125,39.46875,-42.1875,-195.84375
598,1697629885,-0.9589844,-0.14160156,0.12792969,182.4375,-132.03125,-182.84375
599,1697629925,-0.7636719,-0.0126953125,0.22265625,14.21875,-79.28125,-132.5625
600,1697629965,-0.5732422,0.22070312,-0.14550781,112.34375,-88.03125,-117.96875
601,1697630005,-0.66796875,-0.47070312,0.11328125,70.375,-77.65625,-91.125
602,1697630045,-0.4111328,-0.1328125,0.033203125,77.9375,-71.0625,-42.46875
603,1697630085,-0.30859375,0.009765625,0.05078125,79.28125,-27.21875,2.25
604,1697630125,-0.083984375,-0.09765625,0.09472656,63.28125,31.53125,40.34375
605,1697630165,-0.23144531,-0.484375,0.7314453,-40.71875,147.5,105.84375
606,1697630205,-2.0,0.43847656,0.984375,29.78125,93.5,78.5
607,1697630245,-0.9042969,0.06933594,0.4814453,-34.125,81.03125,102.0
608,1697630285,-1.2568359,-0.009765625,0.16894531,-7.28125,98.875,73.25
609,1697630325,-1.3203125,-0.28320312,0.13769531,-26.25,62.5625,86.96875
610,1697630365,-0.95703125,-0.09863281,-0.005859375,-14.53125,33.0,69.40625
611,1697630405,-0.90234375,-0.10839844,-0.076171875,-55.375,65.53125,79.59375
612,1697630445,-1.0703125,-0.37597656,-0.13867188,-36.4375,62.125,85.6875
613,1697630485,-0.890625,-0.33398438,-0.018554688,47.28125,24.03125,75.8125
614,1697630525,-0.9140625,-0.09375,0.0009765625,31.65625,32.28125,59.75
615,1697630565,-0.9111328,-0.0390625,0.07714844,2.90625,42.53125,51.6875
616,1697630605,-0.97753906,-0.1328125,-0.036132812,-30.34375,42.21875,46.5
617,1697630645,-1.1503906,-0.22363281,0.059570312,-24.84375,26.53125,46.28125
618,1697630685,-1.2617188,-0.40429688,-0.15917969,-56.28125,8.46875,35.71875
619,1697630725,-1.46875,-0.14550781,0.09765625,0.125,-6.3125,23.0
620,1697630765,-1.5263672,-0.091796875,0.22167969,27.46875,-53.65625,-49.0625
621,1697630805,-1.2255859,0.2783203,0.203125,-29.1875,-67.75,-88.625
622,1697630845,-1.0126953,-0.009765625,-0.28320312,-208.15625,-23.9375,-146.0625
623,1697630885,-1.7363281,-0.21191406,-0.34765625,-266.25,46.6875,-164.53125
624,1697630925,-1.2822266,-0.23242188,0.171875,196.28125,-94.3125,-190.71875
625,1697630965,-0.890625,-0.18066406,-0.22851562,99.84375,-88.875,-151.125
626,1697631005,-0.7529297,0.21484375,0.07519531,58.15625,-77.46875,-130.625
627,1697631045,-0.71777344,-0.24023438,0.09375,118.59375,-96.3125,-111.75
628,1697631085,-0.46972656,-0.22167969,0.037109375,108.5625,-86.625,-67.4375
629,1697631125,-0.2890625,-0.0126953125,0.09082031,105.8125,-52.5,-15.75
630,1697631165,-0.11816406,0.0009765625,0.0703125,94.40625,13.21875,31.8125
631,1697631205,-0.103515625,-0.07324219,0.11425781,-0.875,137.6875,90.15625
632,1697631245,-2.0,-2.0,-2.0,-110.3125,191.34375,35.09375
633,1697631285,-0.82910156,-0.15527344,0.32128906,49.71875,68.78125,57.9375
634,1697631325,-0.9951172,0.26660156,0.33691406,3.78125,102.59375,50.84375
635,1697631365,-1.4501953,-0.20996094,0.34375,-61.0,79.875,72.09375
636,1697631405,-1.1074219,-0.06933594,-0.030273438,-16.84375,17.125,82.71875
637,1697631445,-0.79589844,-0.0078125,-0.09667969,-39.3125,42.28125,80.6875
638,1697631485,-1.0283203,-0.3408203,-0.14648438,-20.8125,34.96875,75.25
639,1697631525,-0.94628906,-0.4111328,-0.038085938,10.25,34.65625,66.53125
640,1697631565,-0.88671875,-0.24511719,0.0146484375,-5.3125,50.90625,47.90625
641,1697631605,-0.8623047,-0.15820312,-0.038085938,6.6875,46.4375,40.59375
642,1697631645,-1.0322266,-0.07714844,0.0087890625,-6.46875,50.15625,38.9375
643,1697631685,-1.0898438,-0.016601562,0.0546875,-7.15625,37.90625,53.84375
644,1697631725,-1.2832031,-0.20605469,0.020507812,-23.03125,26.65625,56.65625
645,1697631765,-1.5507812,-0.3330078,-0.15820312,-24.71875,6.09375,22.53125
646,1697631805,-1.6396484,-0.08105469,0.34960938,-1.28125,-40.71875,-39.25
647,1697631845,-1.2851562,0.111328125,0.11816406,-61.71875,-91.1875,-90.09375
648,1697631885,-1.0996094,-0.06347656,-0.16894531,-185.9375,-26.4375,-133.34375
649,1697631925,-1.6347656,-0.4716797,0.1484375,-278.625,70.4375,-155.34375
650,1697631965,-1.2548828,0.020507812,-0.1484375,159.46875,-61.84375,-184.75
651,1697632005,-0.7607422,-0.37109375,0.125,132.25,-101.03125,-159.53125
652,1697632045,-0.68066406,0.13574219,0.12988281,5.34375,-50.125,-128.0
653,1697632085,-0.765625,-0.2626953,0.045898438,102.46875,-78.4375,-107.84375
654,1697632125,-0.49414062,-0.2783203,0.07910156,124.375,-72.8125,-85.3125
655,1697632165,-0.21191406,0.0703125,0.09765625,92.40625,-56.34375,-33.6875
656,1697632205,-0.2783203,-0.16113281,0.064453125,46.1875,-2.875,13.0625
657,1697632245,-0.2421875,-0.10449219,0.13085938,21.84375,56.125,69.71875
658,1697632285,-0.6035156,-0.62109375,2.0,-40.84375,104.96875,90.21875
659,1697632325,-0.94628906,0.6298828,1.1328125,20.5625,118.625,58.96875
660,1697632365,-0.76660156,0.18945312,0.016601562,0.46875,115.84375,69.40625
661,1697632405,-1.2255859,0.06933594,-0.01953125,-46.71875,113.28125,73.78125
662,1697632445,-1.3994141,-0.3828125,0.10644531,-40.0625,58.71875,72.9375
663,1697632485,-0.85546875,0.034179688,-0.099609375,-55.8125,46.625,84.46875
664,1697632525,-0.85546875,-0.16015625,-0.13867188,-40.65625,47.15625,84.90625
665,1697632565,-1.1054688,-0.46777344,0.0048828125,-4.65625,32.8125,74.84375
666,1697632605,-0.9814453,-0.28515625,0.05078125,-36.375,44.375,63.1875
667,1697632645,-0.85839844,-0.13769531,-0.043945312,-7.03125,29.09375,57.25
668,1697632685,-0.8515625,-0.009765625,-0.0048828125,-31.8125,34.21875,42.84375
669,1697632725,-1.0449219,-0.0625,-0.076171875,-20.28125,29.71875,55.25
670,1697632765,-1.2744141,-0.21386719,-0.045898438,-20.75,28.5625,60.5
671,1697632805,-1.375,-0.42578125,-0.020507812,-57.625,0.0,42.5
672,1697632845,-1.4814453,-0.71777344,-0.009765625,-27.46875,-53.65625,-26.84375
673,1697632885,-1.5761719,0.14941406,0.47558594,72.6875,-87.28125,-96.5
674,1697632925,-1.0488281,0.2705078,-0.15332031,-169.375,-69.53125,-135.1875
675,1697632965,-1.3857422,-0.3154297,-0.70410156,-271.75,67.75,-158.875
676,1697633005,-1.3232422,-0.0029296875,-0.22753906,165.6875,-45.3125,-195.0625
677,1697633045,-0.86035156,-0.25585938,0.3515625,177.59375,-129.09375,-170.03125
678,1697633085,-0.7060547,0.23339844,0.12402344,45.40625,-80.09375,-130.3125
679,1697633125,-0.6542969,0.12011719,-0.013671875,85.125,-66.59375,-103.03125
680,1697633165,-0.6269531,-0.2265625,0.0009765625,95.75,-70.15625,-75.8125
681,1697633205,-0.5107422,-0.09472656,0.041015625,98.75,-53.53125,-26.375
682,1697633245,-0.15332031,0.14160156,0.111328125,98.5625,-6.96875,26.0625
683,1697633285,-0.046875,0.16015625,0.036132812,9.5,89.84375,96.4375
684,1697633325,-2.0,-2.0,-1.6708984,-347.59375,82.3125,58.78125
685,1697633365,-0.9970703,-0.5234375,-0.9501953,103.8125,22.5,34.71875
686,1697633405,-0.5332031,0.08984375,0.1953125,-3.25,73.34375,48.59375
687,1697633445,-1.2871094,-0.083984375,0.083984375,-54.40625,72.25,71.84375
688,1697633485,-1.1982422,-0.3642578,-0.0107421875,15.84375,23.1875,87.09375
689,1697633525,-0.7392578,0.07324219,-0.038085938,-4.65625,49.5625,69.21875
690,1697633565,-0.9609375,-0.29101562,0.056640625,3.53125,39.96875,69.53125
691,1697633605,-0.9892578,-0.39941406,0.049804688,15.625,36.5625,68.25
692,1697633645,-0.8378906,-0.09863281,0.033203125,6.15625,44.59375,52.0625
693,1697633685,-0.90625,-0.033203125,0.028320312,-14.65625,52.0,49.125
694,1697633725,-0.9736328,-0.18847656,0.0068359375,-28.28125,41.75,50.40625
695,1697633765,-1.0800781,-0.234375,-0.06933594,-17.53125,36.65625,60.0
696,1697633805,-1.2890625,-0.25683594,-0.028320312,-11.375,23.78125,57.5625
697,1697633845,-1.6943359,-0.22070312,0.12597656,-1.96875,3.03125,21.96875
698,1697633885,-1.7421875,-0.25,0.3017578,17.375,-68.5625,-56.875
699,1697633925,-1.5136719,0.29003906,0.328125,-43.21875,-115.84375,-119.75
700,1697633965,-1.0996094,0.0048828125,-0.36132812,-253.90625,-38.46875,-145.625
701,1697634005,-1.5205078,0.0009765625,0.12109375,-206.1875,34.0,-170.09375
702,1697634045,-1.2636719,-0.3232422,-0.28222656,146.53125,-76.0,-200.25
703,1697634085,-0.65625,-0.13769531,0.061523438,161.5,-121.65625,-145.0625
704,1697634125,-0.66796875,0.30859375,-0.02734375,59.625,-67.21875,-122.5625
705,1697634165,-0.60546875,-0.15820312,0.043945312,67.625,-83.1875,-101.125
706,1697634205,-0.5410156,-0.3798828,0.09375,76.15625,-62.8125,-70.0
707,1697634245,-0.30664062,0.0107421875,0.14453125,95.1875,-48.78125,-26.90625
708,1697634285,-0.25097656,-0.15820312,0.11230469,49.84375,16.90625,12.53125
709,1697634325,-0.107421875,-0.26171875,0.083984375,-3.0,88.4375,63.3125
710,1697634365,-0.4326172,-0.053710938,0.68652344,2.78125,170.8125,111.75
711,1697634405,-2.0,-0.03125,0.41015625,-60.6875,128.90625,92.84375
712,1697634445,-0.54296875,0.2939453,-0.0029296875,-2.75,99.21875,52.9375
713,1697634485,-1.3632812,-0.13476562,0.16894531,-1.90625,106.4375,83.125
714,1697634525,-1.3320312,-0.16308594,0.20214844,-14.0625,58.59375,77.8125
715,1697634565,-0.9433594,0.05078125,-0.07519531,-41.28125,48.15625,95.71875
716,1697634605,-0.85253906,-0.052734375,-0.13671875,-66.53125,57.78125,89.0625
717,1697634645,-1.0224609,-0.5498047,-0.1484375,-28.9375,51.1875,85.6875
718,1697634685,-0.92285156,-0.2783203,-0.061523438,19.875,33.125,55.125
719,1697634725,-0.88964844,-0.021484375,0.013671875,-0.75,45.09375,52.8125
720,1697634765,-0.97265625,-0.01953125,-0.015625,-23.9375,32.03125,46.5
721,1697634805,-1.0683594,-0.041992188,-0.044921875,-20.65625,23.59375,41.21875
722,1697634845,-1.3037109,-0.13867188,-0.05859375,-34.625,20.5,46.15625
723,1697634885,-1.3896484,-0.3359375,-0.03125,-3.1875,-3.75,39.625
724,1697634925,-1.4511719,-0.49316406,0.060546875,26.1875,-41.6875,-3.78125
725,1697634965,-1.4394531,-0.12597656,0.32714844,33.9375,-105.46875,-74.65625
726,1697635005,-1.1337891,0.26464844,-0.087890625,-124.84375,-89.375,-133.0
727,1697635045,-1.1796875,-0.12988281,-0.4736328,-228.90625,32.03125,-153.375
728,1697635085,-1.4345703,0.016601562,-0.16992188,-61.28125,2.0625,-174.0
729,1697635125,-1.2978516,-0.42871094,-0.20800781,165.28125,-95.90625,-187.1875
730,1697635165,-0.6972656,0.14648438,-0.009765625,90.3125,-80.8125,-130.625
731,1697635205,-0.87402344,0.19433594,0.15039062,57.0625,-59.59375,-121.9375
732,1697635245,-0.74121094,-0.29785156,0.17675781,78.40625,-64.71875,-96.0625
733,1697635285,-0.5175781,-0.31347656,0.047851562,72.5625,-53.59375,-63.28125
734,1697635325,-0.43652344,-0.060546875,0.056640625,69.25,-38.84375,-18.5
735,1697635365,-0.32421875,-0.018554688,0.13574219,65.0,-0.9375,31.1875
736,1697635405,-0.37402344,-0.12402344,0.22851562,31.78125,80.5625,86.0
737,1697635445,-2.0,-2.0,-0.49316406,-177.75,58.75,60.96875
738,1697635485,-0.8330078,-0.53515625,-0.40722656,112.71875,30.375,72.5625
739,1697635525,-0.7314453,0.033203125,0.12011719,19.65625,80.625,65.8125
740,1697635565,-1.3037109,-0.26171875,0.08691406,-26.5625,105.46875,76.0625
741,1697635605,-1.1376953,-0.31054688,0.08984375,7.5,58.15625,78.5625
742,1697635645,-0.8613281,0.16210938,0.08691406,-21.8125,53.625,76.96875
743,1697635685,-0.8388672,-0.09765625,-0.051757812,-30.34375,44.40625,76.25
744,1697635725,-0.9951172,-0.3076172,-0.080078125,-27.53125,40.6875,77.75
745,1697635765,-0.9121094,-0.31640625,-0.064453125,8.40625,29.59375,56.46875
746,1697635805,-0.94921875,-0.15527344,-0.051757812,-1.65625,37.09375,49.8125
747,1697635845,-0.99121094,-0.083984375,0.021484375,-3.78125,33.8125,41.4375
748,1697635885,-1.0429688,-0.14160156,-0.072265625,-19.0625,28.84375,37.0
749,1697635925,-1.0625,-0.057617188,-0.046875,-13.4375,23.4375,47.625
750,1697635965,-1.2080078,-0.15527344,-0.103515625,-32.96875,22.09375,59.6875
751,1697636005,-1.6015625,-0.15136719,0.17382812,-7.9375,-1.21875,40.21875
752,1697636045,-1.5556641,-0.46972656,0.013671875,-42.8125,-68.3125,-24.90625
753,1697636085,-1.4873047,-0.03515625,0.5136719,-20.75,-114.09375,-109.75
754,1697636125,-0.9941406,0.053710938,-0.21582031,-163.34375,-63.90625,-155.625
755,1697636165,-1.4355469,-0.1328125,-0.3466797,-296.40625,71.28125,-169.3125
756,1697636205,-1.5009766,-0.328125,-0.46289062,136.71875,-48.96875,-189.75
757,1697636245,-0.84472656,-0.20410156,0.29296875,216.125,-134.78125,-177.84375
758,1697636285,-0.765625,0.21582031,0.23730469,42.59375,-69.96875,-127.5
759,1697636325,-0.61816406,0.17773438,-0.0048828125,69.75,-64.84375,-106.0
