# Sensor type: Respeck
# Activity type: Sitting
# Activity subtype: Eating
# Subject id: s2020072
# Notes: 
timestamp,accel_x,accel_y,accel_z,gyro_x,gyro_y,gyro_z
1695821897719,0.005859375,-0.9812622,0.22137451,-1.390625,0.5625,-1.6875
1695821897764,-0.020996094,-1.0044556,0.22796631,-0.625,-0.03125,-0.296875
1695821897809,-0.011962891,-0.9920044,0.22357178,-2.453125,1.609375,-1.328125
1695821897839,-0.018554688,-0.9956665,0.23187256,-0.75,1.59375,-0.125
1695821897868,-0.022949219,-0.9866333,0.23138428,-1.03125,2.5,-0.171875
1695821897928,-0.012939453,-0.9800415,0.2333374,-0.078125,3.203125,0.21875
1695821897958,-0.0068359375,-0.99786377,0.22479248,-0.734375,3.015625,0.0625
1695821897989,-0.012207031,-0.9939575,0.2321167,-0.8125,3.125,0.15625
1695821898048,-0.0034179688,-1.0032349,0.24676514,0.171875,4.125,0.046875
1695821898079,0.032226562,-0.9846802,0.23773193,-0.3125,4.59375,-1.109375
1695821898109,0.024902344,-0.9702759,0.25701904,-1.421875,0.703125,-1.390625
1695821898168,-0.0126953125,-1.0027466,0.2453003,-2.359375,-1.0625,-1.453125
1695821898199,-0.023925781,-1.0007935,0.24920654,-1.875,-2.828125,-3.015625
1695821898228,-0.028320312,-0.9661255,0.23822021,-1.28125,-1.703125,-2.828125
1695821898289,-0.04663086,-1.0073853,0.2423706,-0.90625,-1.609375,-2.296875
1695821898321,-0.040283203,-0.9951782,0.25457764,0.359375,-0.359375,-2.046875
1695821898350,-0.048828125,-0.9678345,0.23651123,-0.078125,0.0625,-2.546875
1695821898425,-0.04321289,-0.9976196,0.26019287,-0.90625,2.453125,-2.046875
1695821898441,-0.04638672,-1.00177,0.26654053,0.34375,2.109375,-1.265625
1695821898471,-0.03564453,-0.97979736,0.23431396,-0.34375,2.53125,-1.5625
1695821898531,-0.027832031,-0.9890747,0.23675537,-0.515625,2.34375,-0.8125
1695821898592,-0.03930664,-0.99053955,0.246521,-0.078125,1.375,-0.578125
1695821898595,-0.049560547,-0.97320557,0.23846436,0.484375,1.125,-0.3125
1695821898650,-0.033203125,-0.9841919,0.24822998,0.71875,1.015625,0.5625
1695821898665,-0.04296875,-0.9924927,0.26483154,0.9375,-0.296875,-0.390625
1695821898710,-0.047607422,-0.989563,0.24456787,1.28125,-1.359375,-0.78125
1695821898771,-0.05102539,-0.99542236,0.24578857,0.984375,-0.53125,-1.375
1695821898785,-0.04736328,-0.99542236,0.23284912,2.1875,-0.375,-1.546875
1695821898845,-0.04345703,-0.98931885,0.22845459,2.28125,-0.6875,-2.125
1695821898890,-0.056396484,-1.0012817,0.22821045,2.0625,0.796875,-1.609375
1695821898921,-0.04638672,-0.9746704,0.21258545,0.96875,1.234375,-1.234375
1695821898951,-0.06616211,-0.99298096,0.20697021,-0.53125,-0.78125,-2.921875
1695821899010,-0.08203125,-0.9949341,0.23480225,0.171875,0.765625,-1.265625
1695821899025,-0.07446289,-0.98760986,0.22406006,1.53125,0.703125,0.203125
1695821899070,-0.07104492,-0.97784424,0.22894287,0.359375,1.15625,0.375
1695821899131,-0.06567383,-0.9949341,0.23406982,0.828125,1.71875,0.390625
1695821899176,-0.057617188,-0.991272,0.22821045,1.484375,0.609375,1.078125
1695821899190,-0.06762695,-0.99176025,0.22576904,1.921875,0.78125,1.21875
1695821899251,-0.05493164,-0.98516846,0.21356201,1.96875,1.40625,1.40625
1695821899266,-0.048828125,-0.9976196,0.21258545,1.625,1.046875,0.546875
1695821899309,-0.057861328,-1.000061,0.21356201,2.0,0.9375,0.734375
1695821899371,-0.056884766,-0.99176025,0.20941162,2.109375,1.359375,0.96875
1695821899385,-0.053466797,-0.9990845,0.20404053,1.375,1.53125,0.4375
1695821899430,-0.0546875,-0.9920044,0.20697021,1.28125,1.578125,0.625
1695821899461,-0.052246094,-1.0061646,0.19915771,1.71875,1.546875,1.078125
1695821899505,-0.056396484,-1.0032349,0.20281982,1.234375,1.953125,0.84375
1695821899550,-0.050048828,-1.0003052,0.19281006,-0.859375,1.359375,0.484375
1695821899580,-0.05419922,-1.0071411,0.20379639,1.1875,1.390625,1.1875
1695821899625,-0.041748047,-0.97784424,0.19378662,0.15625,1.46875,0.484375
1695821899670,-0.052001953,-0.991272,0.18719482,-0.40625,0.90625,0.578125
1695821899700,-0.041748047,-1.0020142,0.1984253,0.109375,0.640625,1.34375
1695821899746,-0.047607422,-0.9990845,0.20037842,-0.15625,1.0,0.484375
1695821899790,-0.04736328,-0.9902954,0.19769287,-0.28125,0.5,0.453125
1695821899821,-0.04345703,-0.9937134,0.20184326,-0.296875,0.453125,0.21875
1695821899865,-0.040283203,-0.9795532,0.19720459,0.171875,0.234375,-0.046875
1695821899910,-0.052001953,-0.99346924,0.19525146,-0.515625,0.75,0.890625
1695821899941,-0.052246094,-1.0015259,0.2033081,-0.171875,1.125,0.9375
1695821899985,-0.04736328,-0.9883423,0.20233154,-1.046875,1.03125,0.453125
1695821900030,-0.04638672,-1.0059204,0.20452881,-0.234375,1.375,0.34375
1695821900061,-0.05053711,-0.991272,0.19696045,-0.578125,1.0,-0.09375
1695821900107,-0.03515625,-0.9956665,0.18988037,-1.03125,0.671875,-0.296875
1695821900150,-0.040039062,-0.9939575,0.21331787,-0.078125,1.4375,0.03125
1695821900180,-0.040283203,-0.99298096,0.20355225,-1.109375,0.328125,0.359375
1695821900226,-0.05102539,-0.9944458,0.19647217,-0.984375,0.46875,0.125
1695821900285,-0.040771484,-1.005188,0.20770264,-0.609375,0.484375,0.25
1695821900300,-0.047607422,-0.98760986,0.20550537,0.203125,0.75,0.3125
1695821900345,-0.052734375,-0.9890747,0.20672607,-1.046875,0.796875,0.25
1695821900390,-0.052001953,-1.0066528,0.2111206,-0.578125,0.546875,1.078125
1695821900420,-0.033447266,-0.9968872,0.20355225,-0.65625,0.359375,-0.15625
1695821900465,-0.045654297,-0.98638916,0.21478271,-0.9375,0.71875,0.09375
1695821900510,-0.049316406,-0.99420166,0.20721436,-0.171875,0.96875,1.28125
1695821900539,-0.0390625,-0.9951782,0.21258545,-1.53125,1.609375,0.578125
1695821900585,-0.041992188,-1.0056763,0.21063232,-1.125,1.578125,1.5625
1695821900630,-0.036621094,-0.9837036,0.20794678,-0.84375,0.796875,0.484375
1695821900660,-0.041015625,-1.00177,0.21697998,-0.09375,0.9375,1.15625
1695821900706,-0.03564453,-0.986145,0.2074585,-3.25,2.015625,0.25
1695821900751,-0.03955078,-0.9963989,0.22869873,-0.6875,1.703125,1.359375
1695821900780,-0.033447266,-0.98638916,0.22332764,-0.703125,1.109375,0.90625
1695821900826,-0.03100586,-0.9924927,0.22796631,-0.96875,0.765625,-0.234375
1695821900870,-0.028564453,-0.98687744,0.23065186,-0.734375,1.109375,0.0625
1695821900900,-0.033203125,-0.99224854,0.21722412,0.171875,1.015625,0.078125
1695821900945,-0.031982422,-0.98150635,0.22747803,-0.140625,0.953125,0.078125
1695821900990,-0.036376953,-0.9927368,0.2255249,-1.28125,0.984375,0.078125
1695821901020,-0.02709961,-1.000061,0.22576904,-0.59375,0.5625,-0.046875
1695821901065,-0.03540039,-0.99713135,0.22625732,-0.4375,0.140625,-0.109375
1695821901111,-0.038085938,-0.9939575,0.23382568,-0.5,0.765625,-0.53125
1695821901140,-0.033691406,-0.98565674,0.22918701,-0.984375,1.34375,-0.984375
1695821901169,-0.043945312,-0.9981079,0.22064209,0.828125,0.46875,-0.265625
1695821901230,-0.032470703,-0.9873657,0.22283936,-0.453125,1.0,-0.421875
1695821901261,-0.036376953,-0.9956665,0.22137451,0.578125,0.53125,-0.328125
1695821901291,-0.049072266,-0.99420166,0.22454834,-2.703125,1.90625,-0.703125
1695821901335,-0.048339844,-1.0046997,0.23187256,-0.328125,1.578125,0.28125
1695821901381,-0.038085938,-0.9780884,0.22503662,-0.4375,0.765625,-1.0625
1695821901411,-0.045410156,-0.9902954,0.23504639,-2.078125,0.921875,-0.75
1695821901469,-0.04711914,-0.9932251,0.22991943,-1.328125,1.4375,-0.390625
1695821901501,-0.037841797,-0.98272705,0.23260498,-0.703125,1.40625,-0.234375
1695821901531,-0.055664062,-0.98321533,0.23480225,-1.9375,1.296875,-0.703125
1695821901591,-0.047607422,-0.98931885,0.2345581,-1.40625,1.890625,-0.171875
1695821901621,-0.04296875,-0.98150635,0.24456787,-1.171875,0.765625,-0.34375
1695821901651,-0.05834961,-0.9924927,0.24163818,-0.59375,0.71875,-0.4375
1695821901710,-0.05102539,-0.9920044,0.25164795,0.125,1.109375,-0.125
1695821901741,-0.056640625,-0.97979736,0.24212646,0.140625,1.265625,-0.171875
1695821901770,-0.05883789,-0.9837036,0.23797607,-0.3125,1.265625,0.90625
1695821901830,-0.024902344,-0.98223877,0.25042725,1.65625,1.109375,-0.265625
1695821901861,-0.053955078,-1.0020142,0.24725342,1.65625,0.53125,0.546875
1695821901890,-0.046142578,-0.98321533,0.24017334,-0.171875,1.109375,-0.703125
1695821901951,-0.057861328,-0.99884033,0.24700928,2.921875,1.265625,0.328125
1695821901965,-0.056640625,-0.99053955,0.23724365,2.484375,1.265625,-0.09375
1695821902011,-0.05102539,-0.98443604,0.22332764,1.078125,0.921875,-0.390625
1695821902070,-0.049560547,-1.0022583,0.22601318,1.171875,1.21875,0.015625
1695821902085,-0.04296875,-0.9859009,0.230896,2.359375,1.96875,0.109375
1695821902131,-0.056152344,-0.9673462,0.22088623,2.0625,0.421875,0.765625
1695821902190,-0.04663086,-0.99420166,0.21575928,-0.171875,0.640625,0.515625
1695821902206,-0.05517578,-0.99713135,0.23187256,1.265625,1.140625,0.859375
1695821902250,-0.06640625,-0.99468994,0.21820068,0.453125,1.109375,0.625
1695821902310,-0.041748047,-0.9866333,0.22259521,0.796875,1.71875,0.234375
1695821902326,-0.04638672,-0.9998169,0.2243042,2.0625,1.75,0.53125
1695821902371,-0.05102539,-0.9837036,0.21014404,1.28125,1.828125,0.53125
1695821902430,-0.030761719,-0.9976196,0.20550537,2.3125,1.90625,0.9375
1695821902446,-0.03955078,-0.97979736,0.2020874,0.140625,1.03125,0.40625
1695821902490,-0.0390625,-0.9981079,0.20306396,1.015625,1.5,0.03125
1695821902536,-0.056152344,-1.00177,0.21234131,0.890625,1.90625,0.484375
1695821902565,-0.044433594,-0.9866333,0.2062378,1.703125,1.984375,0.671875
1695821902610,-0.045898438,-0.9944458,0.19329834,0.234375,1.390625,-0.15625
1695821902670,-0.029541016,-0.9990845,0.18377686,-0.53125,0.765625,-0.015625
1695821902685,-0.037841797,-0.98565674,0.1984253,0.578125,0.484375,0.390625
1695821902729,-0.043945312,-0.97662354,0.19403076,-0.171875,0.890625,0.171875
1695821902761,-0.03564453,-0.99957275,0.20428467,-0.671875,0.9375,0.140625
1695821902806,-0.040283203,-0.99786377,0.2098999,-0.546875,0.765625,0.4375
1695821902850,-0.05053711,-1.0007935,0.21014404,-0.328125,0.515625,-0.015625
1695821902881,-0.049316406,-0.9981079,0.20770264,-0.25,0.390625,-0.265625
1695821902926,-0.041992188,-0.9924927,0.2074585,-0.46875,0.9375,-0.234375
1695821902971,-0.04321289,-0.99224854,0.20819092,-0.578125,0.828125,0.15625
1695821903000,-0.03881836,-1.0032349,0.20184326,-0.09375,0.8125,0.328125
1695821903045,-0.05053711,-0.99713135,0.20648193,-1.421875,1.125,0.1875
1695821903090,-0.04296875,-0.98931885,0.18963623,-1.421875,0.875,0.078125
1695821903121,-0.046142578,-1.0015259,0.2140503,-1.5625,1.3125,-0.140625
1695821903165,-0.046142578,-1.0029907,0.20648193,-1.703125,1.46875,0.71875
1695821903210,-0.034179688,-0.99005127,0.20379639,-0.890625,0.734375,0.03125
1695821903240,-0.04345703,-0.99713135,0.21136475,-1.78125,0.78125,-0.21875
1695821903285,-0.041992188,-0.99957275,0.21746826,-0.046875,1.078125,0.46875
1695821903331,-0.03491211,-0.9871216,0.21502686,-0.65625,1.1875,0.25
1695821903360,-0.040039062,-0.9824829,0.2218628,-1.09375,1.4375,0.0625
1695821903405,-0.036376953,-1.005188,0.22503662,-0.84375,1.125,0.34375
1695821903480,-0.028808594,-0.9961548,0.21697998,-2.234375,-1.78125,-0.921875
1695821903483,-0.047607422,-0.987854,0.22283936,-2.578125,-2.453125,-1.515625
1695821903525,-0.049072266,-0.99298096,0.22454834,-1.765625,0.484375,-0.3125
1695821903585,-0.05029297,-0.97003174,0.22332764,-1.453125,0.203125,-0.296875
1695821903600,-0.059814453,-1.003479,0.22625732,-0.921875,2.125,0.796875
1695821903645,-0.03540039,-0.99224854,0.24969482,-0.59375,0.953125,0.34375
1695821903690,-0.049316406,-0.9837036,0.22650146,0.078125,0.671875,-0.1875
1695821903721,-0.05053711,-0.9890747,0.23187256,-2.78125,2.703125,-0.984375
1695821903765,-0.053466797,-0.9961548,0.230896,-0.78125,1.46875,0.125
1695821903811,-0.033935547,-0.9920044,0.23162842,-0.296875,1.0625,-0.640625
1695821903841,-0.041259766,-0.9729614,0.2411499,-1.078125,0.453125,-0.78125
1695821903886,-0.060058594,-0.99224854,0.23382568,-1.0,1.203125,-0.28125
1695821903930,-0.04321289,-0.9932251,0.23968506,-1.625,1.203125,0.03125
1695821903976,-0.048095703,-0.98809814,0.25164795,-1.0,0.46875,-0.71875
1695821904006,-0.0625,-0.9907837,0.23626709,-0.25,0.890625,-0.15625
1695821904050,-0.056152344,-0.9849243,0.24700928,-0.703125,1.25,-0.234375
1695821904080,-0.053955078,-0.9915161,0.24945068,-0.21875,1.1875,-0.09375
1695821904125,-0.051513672,-0.9944458,0.2399292,-0.359375,1.4375,-0.03125
1695821904170,-0.039794922,-0.9780884,0.24627686,0.1875,1.234375,-0.171875
1695821904201,-0.080078125,-0.98150635,0.22991943,-0.25,0.53125,1.296875
1695821904245,-0.03881836,-0.97906494,0.2489624,-0.171875,0.8125,-0.53125
1695821904290,-0.05493164,-1.0005493,0.23602295,-0.484375,1.03125,0.125
1695821904320,-0.068115234,-1.0083618,0.25091553,-2.234375,3.421875,0.0625
1695821904352,-0.041992188,-0.98223877,0.2645874,2.28125,0.921875,0.34375
1695821904410,-0.05859375,-0.96466064,0.23651123,0.640625,0.046875,-0.125
1695821904441,-0.0546875,-0.9956665,0.25286865,0.90625,0.703125,1.03125
1695821904470,-0.04711914,-1.0049438,0.2506714,1.671875,0.34375,0.671875
1695821904530,-0.046142578,-0.99005127,0.24798584,1.203125,0.296875,-0.5625
1695821904561,-0.05053711,-0.98883057,0.23944092,0.125,1.609375,-0.484375
1695821904590,-0.044677734,-0.986145,0.2374878,1.484375,0.921875,-0.125
1695821904651,-0.06323242,-0.9763794,0.23602295,1.71875,0.453125,0.28125
1695821904682,-0.051513672,-1.0025024,0.22332764,1.53125,0.5625,-0.625
1695821904711,-0.04638672,-0.99346924,0.23382568,0.59375,0.96875,0.0
1695821904770,-0.063964844,-0.991272,0.23309326,1.625,2.015625,0.09375
1695821904801,-0.0625,-0.991272,0.22503662,0.421875,1.53125,0.109375
1695821904830,-0.05883789,-0.98516846,0.2255249,0.140625,1.40625,0.15625
1695821904892,-0.041992188,-0.9680786,0.22601318,1.53125,1.21875,0.0
1695821904921,-0.056152344,-0.9915161,0.22528076,0.21875,1.640625,-0.15625
1695821904950,-0.038330078,-1.0049438,0.2255249,-1.3125,1.96875,-0.171875
1695821905010,-0.064208984,-0.99053955,0.23138428,1.890625,1.640625,0.546875
1695821905071,-0.059570312,-0.986145,0.22064209,0.0625,1.921875,-0.5
1695821905073,-0.043701172,-0.9993286,0.22235107,0.328125,1.28125,-0.265625
1695821905130,-0.0546875,-0.99542236,0.2296753,1.0625,0.84375,0.265625
1695821905145,-0.056152344,-0.97540283,0.22479248,0.421875,1.03125,-0.25
1695821905190,-0.05419922,-0.99176025,0.21917725,-0.140625,1.0625,0.171875
1695821905250,-0.047851562,-1.000061,0.21868896,-0.171875,0.921875,0.359375
1695821905281,-0.05810547,-0.99176025,0.22088623,0.4375,0.953125,0.265625
1695821905310,-0.057861328,-0.9981079,0.21453857,-0.421875,0.59375,0.078125
1695821905371,-0.05444336,-0.9973755,0.21990967,-0.296875,0.640625,0.15625
1695821905385,-0.057861328,-0.9924927,0.21917725,-0.578125,0.859375,0.171875
1695821905430,-0.057373047,-0.9937134,0.22088623,-0.109375,0.5,0.5
1695821905489,-0.051757812,-0.9788208,0.21624756,-0.359375,0.875,0.015625
1695821905505,-0.060791016,-0.9993286,0.23114014,0.171875,0.890625,0.375
1695821905551,-0.048095703,-0.99468994,0.21722412,-3.15625,0.984375,-0.734375
1695821905610,-0.0625,-0.98443604,0.23626709,0.34375,1.375,0.53125
1695821905625,-0.06323242,-0.9937134,0.2243042,-0.875,0.78125,0.53125
1695821905670,-0.045898438,-0.9846802,0.230896,-0.4375,0.640625,-0.34375
1695821905730,-0.05419922,-0.98760986,0.23529053,-0.125,0.8125,0.4375
1695821905745,-0.056640625,-0.9981079,0.23162842,-0.0625,1.09375,0.40625
1695821905790,-0.05517578,-0.99468994,0.22015381,-0.453125,1.0,0.265625
1695821905850,-0.05078125,-0.9985962,0.22991943,-0.1875,1.1875,0.421875
1695821905865,-0.053955078,-0.9883423,0.22723389,0.015625,0.734375,0.28125
1695821905910,-0.057617188,-0.98223877,0.23577881,0.015625,0.375,0.453125
1695821905939,-0.068359375,-0.9956665,0.22991943,-0.3125,0.796875,0.515625
1695821905986,-0.045654297,-0.9944458,0.23065186,-0.109375,1.9375,-0.09375
1695821906031,-0.048339844,-0.9885864,0.23138428,-0.359375,1.21875,0.375
1695821906060,-0.044433594,-0.98931885,0.23040771,0.984375,1.484375,0.203125
1695821906105,-0.057128906,-0.9985962,0.23431396,0.546875,0.953125,0.859375
1695821906150,-0.044433594,-0.9963989,0.21258545,-1.75,1.484375,-0.40625
1695821906180,-0.048339844,-0.99176025,0.24578857,-0.796875,2.109375,-0.0625
1695821906225,-0.0625,-0.9883423,0.23284912,-0.09375,0.890625,0.546875
1695821906270,-0.03930664,-0.97906494,0.22137451,-1.265625,0.6875,-0.5
1695821906300,-0.041748047,-0.991272,0.22918701,-1.140625,0.390625,-0.15625
1695821906345,-0.057861328,-0.99420166,0.2374878,-0.15625,0.640625,0.140625
1695821906390,-0.05883789,-0.9841919,0.23236084,-1.25,0.734375,-0.125
1695821906420,-0.055908203,-0.9968872,0.23968506,-0.484375,1.171875,-0.21875
1695821906465,-0.048583984,-0.991272,0.23529053,-0.59375,0.3125,-0.234375
1695821906510,-0.059570312,-0.9968872,0.23577881,-0.984375,0.640625,-0.65625
1695821906541,-0.0546875,-0.99005127,0.24041748,-0.90625,0.53125,-0.296875
1695821906585,-0.061279297,-0.9837036,0.23553467,-0.8125,1.390625,-0.25
1695821906630,-0.06567383,-0.99224854,0.2321167,-1.4375,1.375,-0.3125
1695821906660,-0.053710938,-0.99224854,0.23651123,-1.140625,1.484375,0.109375
1695821906706,-0.048583984,-0.9824829,0.23675537,-0.78125,0.671875,-0.59375
1695821906751,-0.068603516,-0.99420166,0.24725342,-0.03125,1.109375,-0.359375
1695821906780,-0.05029297,-0.9812622,0.24920654,-2.296875,2.296875,-1.09375
1695821906825,-0.080078125,-0.9898071,0.23480225,-0.390625,1.96875,0.71875
1695821906871,-0.045410156,-0.96343994,0.25653076,-0.390625,0.90625,-0.46875
1695821906901,-0.060791016,-0.9927368,0.24310303,-0.640625,0.46875,0.703125
1695821906946,-0.06665039,-1.0122681,0.26068115,0.4375,1.34375,0.296875
1695821907020,-0.045898438,-0.9614868,0.2506714,1.453125,1.0,-0.0625
1695821907022,-0.06738281,-0.9795532,0.2374878,-0.46875,1.25,-0.796875
1695821907065,-0.044677734,-1.0095825,0.24627686,0.765625,1.078125,0.6875
1695821907110,-0.056152344,-0.986145,0.24822998,1.875,0.734375,0.171875
1695821907141,-0.072265625,-0.9763794,0.24627686,0.796875,0.390625,-0.109375
1695821907185,-0.07324219,-0.9951782,0.2423706,1.03125,0.546875,0.09375
1695821907230,-0.055419922,-1.003479,0.23773193,1.78125,0.78125,0.15625
1695821907261,-0.051757812,-0.98760986,0.23651123,1.71875,1.3125,-0.125
1695821907306,-0.06542969,-0.98028564,0.23529053,0.578125,0.734375,0.203125
1695821907350,-0.049560547,-0.98394775,0.23138428,1.796875,1.265625,-0.15625
1695821907380,-0.059326172,-0.9915161,0.2243042,1.203125,1.171875,0.21875
1695821907426,-0.04272461,-1.0037231,0.22576904,-1.21875,1.015625,0.03125
1695821907470,-0.06225586,-1.0130005,0.23724365,2.3125,1.125,1.953125
1695821907500,-0.061279297,-0.975647,0.22943115,1.375,0.90625,0.34375
1695821907545,-0.08959961,-0.98760986,0.2177124,0.125,0.96875,-0.140625
1695821907590,-0.059570312,-1.0010376,0.2255249,0.59375,0.8125,0.609375
1695821907620,-0.03857422,-0.9885864,0.23236084,1.734375,0.84375,0.546875
1695821907651,-0.06689453,-0.9841919,0.22918701,-0.40625,1.609375,-0.109375
1695821907711,-0.052978516,-0.98883057,0.22503662,0.140625,1.125,-0.078125
1695821907741,-0.047851562,-0.98931885,0.22601318,0.3125,1.0,0.625
1695821907771,-0.055419922,-0.98321533,0.21795654,0.234375,1.21875,0.328125
1695821907830,-0.04663086,-0.99713135,0.22039795,0.484375,0.625,-0.34375
1695821907860,-0.052001953,-0.9920044,0.21844482,0.875,1.09375,-0.796875
1695821907891,-0.06567383,-0.9859009,0.21722412,-0.359375,0.9375,-0.359375
1695821907951,-0.04711914,-0.9780884,0.2255249,1.53125,1.625,0.203125
1695821907983,-0.07446289,-0.9963989,0.21234131,-0.796875,1.171875,0.5
1695821908011,-0.04248047,-1.0010376,0.2020874,-2.109375,0.953125,-0.5625
1695821908071,-0.076660156,-1.00177,0.21966553,0.078125,0.21875,-0.03125
1695821908101,-0.056640625,-0.9920044,0.22137451,-0.625,0.375,-0.671875
1695821908131,-0.064208984,-0.97735596,0.21136475,-1.765625,0.859375,-0.875
1695821908192,-0.064941406,-0.99591064,0.22259521,-0.53125,0.8125,-0.375
1695821908221,-0.048095703,-1.0025024,0.2243042,0.125,1.15625,0.703125
1695821908250,-0.052734375,-0.98272705,0.22283936,-1.890625,0.828125,0.265625
1695821908310,-0.067871094,-0.9849243,0.23480225,-0.921875,1.53125,0.421875
1695821908341,-0.072509766,-0.9993286,0.22796631,-0.890625,0.703125,0.65625
1695821908370,-0.059814453,-0.9898071,0.23406982,0.203125,0.453125,0.0625
1695821908431,-0.064697266,-0.989563,0.23773193,-0.78125,1.15625,-0.25
1695821908445,-0.0690918,-0.989563,0.23138428,0.34375,1.453125,0.625
1695821908490,-0.05078125,-0.9812622,0.21966553,-0.3125,0.515625,0.4375
1695821908551,-0.056884766,-0.9981079,0.22991943,0.125,1.625,1.0625
1695821908565,-0.05493164,-0.99176025,0.23260498,-0.859375,0.046875,1.03125
1695821908611,-0.052001953,-0.9854126,0.22772217,0.78125,0.328125,0.921875
1695821908671,-0.057128906,-0.99591064,0.23138428,-3.25,1.234375,-0.8125
1695821908686,-0.056884766,-1.0007935,0.23602295,-0.4375,1.125,0.140625
1695821908730,-0.05444336,-0.9805298,0.22332764,0.046875,0.75,-0.25
1695821908790,-0.061279297,-0.97979736,0.23822021,-1.25,0.640625,0.40625
1695821908805,-0.06567383,-0.9871216,0.23358154,-0.546875,0.609375,0.375
1695821908850,-0.052734375,-0.9985962,0.23382568,-1.0,0.875,0.03125
1695821908911,-0.056884766,-0.99420166,0.2423706,-1.296875,0.84375,-0.171875
1695821908925,-0.063964844,-0.99346924,0.23431396,-0.34375,0.8125,-0.015625
1695821908970,-0.05029297,-0.98443604,0.24407959,-0.140625,0.671875,-0.34375
1695821909031,-0.06616211,-0.97784424,0.2296753,-0.3125,0.5625,0.453125
1695821909044,-0.056152344,-0.99713135,0.24090576,-0.71875,1.0,-0.078125
1695821909090,-0.05078125,-0.9968872,0.2411499,-1.15625,1.015625,0.046875
1695821909165,-0.06933594,-0.9902954,0.24798584,0.421875,0.59375,0.09375
1695821909168,-0.051513672,-0.9714966,0.2501831,0.234375,0.671875,-0.828125
1695821909210,-0.06982422,-0.9990845,0.24090576,-0.25,0.5,0.265625
1695821909241,-0.056640625,-0.9990845,0.23699951,-2.890625,1.765625,-0.671875
1695821909285,-0.06201172,-0.99664307,0.25286865,0.265625,1.640625,-0.078125
1695821909330,-0.06665039,-0.97198486,0.24749756,0.015625,0.90625,-0.46875
1695821909361,-0.0637207,-0.9873657,0.2411499,-0.84375,1.046875,0.046875
1695821909406,-0.056640625,-0.9985962,0.24578857,-0.25,1.0,-0.03125
1695821909451,-0.06298828,-0.9920044,0.2518921,-0.15625,1.015625,0.03125
1695821909481,-0.064208984,-0.9890747,0.24993896,0.65625,1.34375,-0.578125
1695821909525,-0.075683594,-0.9920044,0.2423706,1.125,0.65625,0.453125
1695821909570,-0.061523438,-0.9859009,0.24676514,1.734375,0.484375,-0.359375
1695821909600,-0.064453125,-0.97906494,0.24798584,1.078125,0.609375,-0.28125
1695821909645,-0.075683594,-0.9951782,0.24383545,0.8125,0.5625,-0.234375
1695821909691,-0.0690918,-0.99664307,0.22918701,1.015625,1.140625,-0.03125
1695821909721,-0.0690918,-0.986145,0.24383545,0.90625,0.875,0.734375
1695821909765,-0.07324219,-0.9998169,0.23822021,2.15625,1.6875,0.125
1695821909810,-0.072021484,-0.99346924,0.23480225,0.875,1.84375,0.015625
1695821909840,-0.06591797,-0.9902954,0.215271,-1.265625,1.8125,-0.234375
1695821909885,-0.068115234,-0.9949341,0.23675537,1.578125,1.765625,0.78125
1695821909961,-0.063964844,-0.9783325,0.22235107,0.890625,1.578125,0.671875
1695821909967,-0.061767578,-0.9805298,0.2218628,-0.09375,1.25,-0.03125
1695821910006,-0.061279297,-1.008606,0.22869873,0.25,1.140625,0.546875
1695821910066,-0.057128906,-0.98760986,0.2296753,1.65625,1.375,0.5625
1695821910080,-0.0690918,-0.98443604,0.22698975,0.859375,1.578125,0.484375
1695821910124,-0.06567383,-0.9981079,0.23358154,0.734375,1.0,0.3125
1695821910170,-0.05517578,-0.9849243,0.2218628,0.59375,1.03125,0.21875
1695821910200,-0.061767578,-0.9873657,0.21356201,0.40625,0.34375,0.15625
1695821910245,-0.06616211,-1.0029907,0.22332764,0.796875,0.625,0.875
1695821910290,-0.061035156,-0.9829712,0.21380615,0.015625,0.96875,0.5
1695821910320,-0.0625,-1.0037231,0.21868896,0.328125,0.703125,0.734375
1695821910365,-0.052978516,-0.99224854,0.21258545,-0.5625,0.484375,-0.25
1695821910410,-0.055664062,-0.9846802,0.21575928,-0.203125,1.0625,-0.046875
1695821910441,-0.0625,-0.99542236,0.21722412,-1.375,1.265625,0.203125
1695821910485,-0.055664062,-0.98150635,0.22137451,-1.046875,0.953125,0.765625
1695821910531,-0.055908203,-0.9854126,0.21356201,-0.71875,0.796875,0.171875
1695821910561,-0.055664062,-0.9939575,0.22625732,-1.3125,0.53125,-0.109375
1695821910605,-0.060791016,-0.99713135,0.23846436,-0.203125,0.90625,0.28125
1695821910651,-0.064208984,-0.98028564,0.22210693,-0.75,0.59375,0.359375
1695821910681,-0.05859375,-0.9990845,0.23480225,-1.5,1.0625,-0.265625
1695821910756,-0.059326172,-0.9890747,0.23065186,-0.90625,0.921875,0.0
1695821910758,-0.06225586,-0.9939575,0.22991943,-0.84375,1.46875,0.0
1695821910801,-0.06274414,-0.98394775,0.22723389,-1.046875,1.0,0.09375
1695821910830,-0.07104492,-0.9976196,0.23431396,-1.390625,1.828125,0.15625
1695821910890,-0.060058594,-0.97979736,0.23236084,-0.953125,0.671875,0.203125
1695821910920,-0.047607422,-0.9819946,0.24310303,-0.421875,0.96875,-0.671875
1695821910950,-0.0690918,-0.9937134,0.24334717,-1.125,1.09375,0.671875
1695821911010,-0.05102539,-0.9915161,0.22625732,-3.4375,1.796875,-0.734375
1695821911041,-0.059570312,-0.99884033,0.2538452,-1.546875,1.78125,0.171875
1695821911070,-0.06591797,-0.9871216,0.25408936,-0.90625,1.140625,-0.328125
1695821911130,-0.057861328,-0.9678345,0.23919678,-0.6875,0.96875,-0.4375
1695821911161,-0.056640625,-0.9963989,0.2423706,-3.046875,1.390625,-0.171875
1695821911190,-0.045654297,-0.9883423,0.26190186,-0.734375,0.703125,-0.25
1695821911251,-0.079589844,-0.97662354,0.24383545,-1.265625,1.09375,-0.625
1695821911280,-0.07885742,-0.99053955,0.25286865,-0.453125,1.015625,0.171875
1695821911310,-0.06298828,-0.9834595,0.25726318,-0.34375,0.34375,0.328125
1695821911371,-0.05493164,-0.9890747,0.25701904,-1.140625,1.234375,-0.765625
1695821911400,-0.061035156,-0.99053955,0.2579956,-0.265625,1.453125,-0.671875
1695821911430,-0.07299805,-0.9924927,0.24383545,-1.21875,2.109375,-0.296875
1695821911490,-0.060058594,-0.9944458,0.2567749,-0.125,1.640625,0.15625
1695821911550,-0.064453125,-0.97540283,0.2699585,-0.140625,0.328125,-0.578125
1695821911553,-0.07763672,-0.99420166,0.2489624,-0.125,1.484375,-0.328125
1695821911610,-0.06323242,-0.99053955,0.25653076,-2.3125,2.171875,-0.96875
1695821911625,-0.07495117,-0.98443604,0.26898193,0.65625,1.140625,0.296875
1695821911671,-0.07006836,-0.98565674,0.2453003,-1.09375,0.90625,-0.203125
1695821911730,-0.046142578,-0.98028564,0.26116943,-0.5,0.71875,-0.328125
1695821911745,-0.07373047,-0.9837036,0.26654053,-0.78125,0.015625,0.0
1695821911791,-0.0690918,-0.98223877,0.26409912,-0.15625,0.5,-0.375
1695821911850,-0.0690918,-0.9788208,0.26239014,-1.265625,1.15625,-0.09375
1695821911865,-0.080078125,-0.9898071,0.2682495,-0.453125,0.734375,-0.171875
1695821911910,-0.06713867,-0.98760986,0.25701904,-0.4375,1.265625,-0.53125
1695821911971,-0.07519531,-0.9915161,0.27191162,-0.03125,1.15625,-0.125
1695821911986,-0.075683594,-0.98809814,0.26116943,0.609375,0.859375,0.125
1695821912030,-0.06542969,-0.9697876,0.25946045,-0.109375,0.453125,-0.046875
1695821912090,-0.068847656,-0.9920044,0.26312256,0.203125,0.75,0.59375
1695821912105,-0.072265625,-0.987854,0.27313232,0.59375,-0.03125,0.59375
1695821912151,-0.1003418,-0.98321533,0.24139404,-0.640625,0.4375,0.71875
1695821912210,-0.04321289,-0.9859009,0.27996826,0.0625,2.90625,-0.90625
1695821912226,-0.07421875,-0.97857666,0.2597046,1.796875,-0.859375,0.71875
1695821912270,-0.091796875,-0.97735596,0.24700928,3.640625,0.375,0.53125
1695821912331,-0.071777344,-0.9841919,0.26385498,0.796875,0.0,2.328125
1695821912345,-0.0637207,-1.0032349,0.2538452,0.609375,0.15625,0.703125
1695821912390,-0.0546875,-0.9907837,0.25506592,0.59375,0.421875,-1.25
1695821912419,-0.06982422,-0.98565674,0.24993896,1.265625,0.8125,-0.25
1695821912466,-0.06762695,-0.9829712,0.25286865,2.328125,1.125,-0.0625
1695821912510,-0.079589844,-1.0007935,0.23895264,1.4375,0.921875,0.546875
1695821912540,-0.048339844,-0.97247314,0.2423706,2.171875,-0.15625,-0.640625
1695821912585,-0.09057617,-0.98687744,0.23309326,0.8125,1.453125,-0.140625
1695821912631,-0.07543945,-0.98223877,0.23919678,1.21875,1.03125,0.265625
1695821912661,-0.07788086,-0.9841919,0.2423706,2.328125,2.078125,1.0
1695821912704,-0.08105469,-0.987854,0.23822021,0.796875,1.671875,1.3125
1695821912751,-0.06982422,-0.991272,0.22723389,1.96875,1.78125,1.21875
1695821912780,-0.07519531,-1.0071411,0.23358154,0.96875,1.5625,0.9375
1695821912825,-0.06738281,-0.9949341,0.22943115,2.78125,1.359375,1.140625
1695821912884,-0.064697266,-0.98638916,0.21868896,1.53125,1.078125,0.484375
1695821912900,-0.07104492,-0.9898071,0.21673584,2.078125,1.796875,1.265625
1695821912945,-0.10449219,-0.9871216,0.2345581,3.546875,5.25,2.828125
1695821912990,-0.07861328,-1.0278931,0.18426514,-0.921875,7.96875,2.90625
1695821913021,0.013427734,-0.98565674,0.1708374,-0.984375,1.484375,2.125
1695821913064,-0.0061035156,-0.9920044,0.21160889,-0.046875,-1.40625,-0.515625
1695821913110,-0.07324219,-1.0073853,0.25164795,0.609375,1.453125,-3.0
1695821913141,-0.05493164,-0.99298096,0.2267456,-1.453125,0.046875,-1.4375
1695821913185,-0.029785156,-1.0100708,0.22845459,-0.828125,3.09375,-2.359375
1695821913231,-0.07324219,-0.99835205,0.2267456,-0.96875,1.90625,-1.4375
1695821913261,-0.055908203,-0.99468994,0.21087646,0.546875,3.6875,-1.15625
1695821913306,-0.06982422,-0.99224854,0.21234131,0.21875,3.71875,0.125
1695821913350,-0.05834961,-0.9915161,0.22357178,-0.0625,-0.203125,-2.03125
1695821913380,-0.06591797,-1.0015259,0.2296753,-3.390625,-0.953125,-1.078125
1695821913425,-0.08129883,-0.9780884,0.21282959,-0.359375,-0.28125,-1.21875
1695821913470,-0.06640625,-0.97052,0.20599365,-1.78125,-0.5625,-1.65625
1695821913501,-0.08203125,-0.98565674,0.22406006,-3.953125,-0.46875,-1.015625
1695821913545,-0.08666992,-0.9920044,0.24749756,0.03125,0.046875,0.59375
1695821913590,-0.0847168,-0.9795532,0.2267456,-1.84375,0.546875,0.390625
1695821913621,-0.06347656,-0.99053955,0.23968506,-0.65625,1.375,0.390625
1695821913681,-0.0703125,-0.98101807,0.2423706,-0.453125,0.703125,0.015625
1695821913711,-0.075683594,-0.9841919,0.25579834,0.578125,0.78125,-0.390625
1695821913740,-0.06982422,-1.0054321,0.2514038,0.625,1.203125,0.4375
1695821913785,-0.08666992,-0.9944458,0.23187256,0.640625,0.78125,-0.078125
1695821913830,-0.078125,-0.972229,0.23382568,0.328125,0.609375,0.0625
1695821913860,-0.08105469,-1.005188,0.22796631,0.296875,0.484375,0.59375
1695821913904,-0.07348633,-0.99298096,0.2399292,1.234375,0.734375,0.84375
1695821913949,-0.0690918,-0.9824829,0.21624756,-2.28125,1.578125,-0.109375
1695821913980,-0.080566406,-0.9800415,0.2374878,0.046875,1.765625,0.609375
1695821914026,-0.075683594,-0.98394775,0.23406982,-0.9375,1.25,1.03125
1695821914070,-0.07348633,-0.9841919,0.23944092,-0.6875,1.21875,0.359375
1695821914100,-0.07714844,-0.99786377,0.23602295,-0.984375,0.984375,0.9375
1695821914130,-0.072021484,-0.9837036,0.2387085,0.109375,0.796875,0.984375
1695821914205,-0.06347656,-0.9873657,0.23406982,-1.03125,0.796875,0.28125
1695821914221,-0.07128906,-0.9949341,0.24407959,-0.21875,0.546875,0.59375
1695821914251,-0.060302734,-0.9915161,0.24383545,0.453125,0.578125,0.265625
1695821914310,-0.07373047,-0.986145,0.24554443,0.234375,0.734375,0.125
1695821914341,-0.061523438,-0.9890747,0.2345581,0.09375,0.828125,0.390625
1695821914370,-0.053955078,-0.98272705,0.23626709,0.421875,0.5625,0.421875
1695821914431,-0.07373047,-0.9898071,0.23162842,-0.59375,0.890625,0.078125
1695821914461,-0.053222656,-0.9963989,0.23773193,0.234375,0.9375,0.328125
1695821914490,-0.06616211,-0.9812622,0.23504639,-0.171875,0.328125,0.0
1695821914550,-0.076416016,-0.9961548,0.23284912,0.421875,1.0,-0.140625
1695821914581,-0.060791016,-0.9924927,0.24334717,-1.515625,1.34375,-0.734375
1695821914610,-0.08569336,-0.9866333,0.24383545,0.28125,0.734375,-0.265625
1695821914670,-0.06201172,-0.9819946,0.230896,-0.421875,0.96875,-0.390625
1695821914701,-0.071777344,-0.9927368,0.2399292,-0.34375,0.828125,-0.046875
1695821914730,-0.07373047,-0.989563,0.23699951,-0.03125,0.671875,0.1875
1695821914791,-0.072265625,-0.9771118,0.23724365,0.015625,0.78125,-0.0625
1695821914820,-0.06958008,-0.98809814,0.24017334,-0.4375,1.0,0.03125
1695821914850,-0.07373047,-0.987854,0.23846436,0.546875,0.75,0.609375
1695821914910,-0.07006836,-0.9873657,0.23699951,0.796875,0.921875,-0.09375
1695821914925,-0.07519531,-0.98883057,0.230896,1.59375,0.890625,0.3125
1695821914970,-0.06762695,-0.98443604,0.23504639,1.96875,1.3125,0.859375
1695821915031,-0.072265625,-0.9956665,0.23309326,1.65625,1.578125,0.921875
1695821915044,-0.07543945,-0.9883423,0.22845459,1.390625,1.359375,0.390625
1695821915090,-0.057373047,-0.99664307,0.22698975,1.703125,1.5,0.25
1695821915150,-0.07373047,-0.9819946,0.22723389,1.25,0.328125,0.34375
1695821915166,-0.067871094,-0.9824829,0.21331787,1.03125,1.328125,0.140625
1695821915210,-0.072021484,-0.99420166,0.22381592,-0.5,1.671875,0.203125
1695821915270,-0.0793457,-1.0025024,0.22943115,2.359375,1.1875,1.234375
1695821915285,-0.07543945,-0.98028564,0.21575928,0.234375,1.359375,0.765625
1695821915330,-0.06323242,-0.9968872,0.22576904,0.359375,0.296875,0.71875
1695821915390,-0.05444336,-0.98565674,0.21600342,0.703125,-0.234375,0.46875
1695821915406,-0.068115234,-0.99102783,0.22381592,0.875,-0.078125,0.078125
1695821915451,-0.08251953,-1.0010376,0.21575928,-0.40625,0.140625,0.40625
1695821915511,-0.057861328,-0.98638916,0.21356201,0.34375,0.25,0.171875
1695821915525,-0.06958008,-0.98101807,0.21038818,0.53125,0.546875,0.4375
1695821915570,-0.06665039,-1.000061,0.21258545,-0.09375,1.015625,0.5
1695821915631,-0.049072266,-0.9920044,0.21160889,-0.609375,1.53125,0.0625
1695821915645,-0.07739258,-0.9924927,0.20697021,-1.40625,1.390625,0.34375
1695821915690,-0.05517578,-0.9968872,0.21820068,0.5625,1.28125,0.609375
1695821915720,-0.056884766,-0.9807739,0.21063232,-2.03125,0.71875,0.125
1695821915765,-0.06298828,-0.98565674,0.21673584,-0.671875,1.390625,-0.15625
1695821915811,-0.060058594,-0.9956665,0.2218628,-2.828125,1.984375,-0.359375
1695821915840,-0.0690918,-0.9976196,0.2255249,-0.484375,1.4375,0.171875
1695821915885,-0.05859375,-0.9788208,0.22869873,-0.5,0.59375,0.15625
1695821915930,-0.072753906,-0.99542236,0.22088623,-2.734375,1.578125,-0.59375
1695821915976,-0.049804688,-0.9993286,0.230896,-0.234375,1.125,0.078125
1695821916006,-0.061767578,-0.9795532,0.2333374,-0.078125,1.265625,0.171875
1695821916050,-0.05883789,-0.98638916,0.24261475,-0.984375,2.640625,-0.640625
1695821916079,-0.06713867,-0.99591064,0.2321167,-0.96875,2.109375,-0.109375
1695821916125,-0.061035156,-0.9907837,0.24041748,0.421875,0.984375,-0.296875
1695821916170,-0.084228516,-0.98760986,0.22088623,-0.59375,1.859375,-0.25
1695821916201,-0.068359375,-0.99542236,0.24017334,0.28125,1.90625,0.140625
1695821916246,-0.0703125,-0.9985962,0.23553467,-1.4375,0.703125,-1.0
1695821916290,-0.083740234,-0.9841919,0.2321167,-0.671875,1.0,-0.140625
1695821916321,-0.059814453,-0.9866333,0.23529053,-1.21875,0.390625,0.015625
1695821916365,-0.087402344,-0.98565674,0.24554443,0.09375,0.4375,0.40625
1695821916442,-0.06958008,-0.9834595,0.2243042,-4.25,0.96875,0.421875
1695821916444,-0.0637207,-0.9746704,0.24432373,-2.09375,1.015625,2.015625
1695821916485,-0.068115234,-0.9902954,0.25604248,-1.125,0.890625,0.625
1695821916530,-0.06958008,-0.98883057,0.24700928,-1.84375,1.234375,0.5
1695821916561,-0.064697266,-0.9924927,0.25115967,-0.53125,0.71875,0.375
1695821916606,-0.051757812,-0.99005127,0.25750732,0.890625,1.265625,0.484375
1695821916650,-0.061767578,-0.9741821,0.25042725,0.453125,2.140625,-0.015625
1695821916681,-0.050048828,-1.0046997,0.2501831,-0.3125,1.1875,0.890625
1695821916725,-0.063964844,-0.9937134,0.24847412,1.359375,-0.765625,-0.421875
1695821916770,-0.07397461,-0.98101807,0.2489624,-1.421875,0.359375,-1.359375
1695821916800,-0.091308594,-0.9837036,0.24407959,0.8125,0.375,0.609375
1695821916845,-0.07299805,-0.9920044,0.25775146,-1.375,1.359375,0.4375
1695821916890,-0.07324219,-0.97979736,0.24749756,-1.328125,0.859375,2.828125
1695821916920,-0.037353516,-0.9834595,0.24432373,-0.125,1.171875,1.046875
1695821916966,-0.07128906,-0.99786377,0.25042725,-0.265625,2.15625,2.453125
1695821917010,-0.051513672,-0.9819946,0.26190186,0.953125,1.8125,0.9375
1695821917040,-0.059570312,-1.0125122,0.24212646,-0.390625,2.421875,1.3125
1695821917085,-0.052490234,-0.98760986,0.25823975,3.265625,1.109375,1.0625
1695821917131,-0.056640625,-0.9805298,0.24017334,1.84375,1.890625,1.0
1695821917161,-0.05078125,-0.9963989,0.23236084,1.84375,1.828125,0.828125
1695821917250,-0.055908203,-1.0132446,0.24627686,3.796875,2.96875,2.0
1695821917253,-0.031982422,-0.97198486,0.22039795,2.03125,1.375,1.609375
1695821917282,-0.036132812,-0.97076416,0.2098999,-0.390625,1.203125,0.40625
1695821917311,-0.05517578,-1.0164185,0.24163818,-0.625,2.234375,1.53125
1695821917370,-0.036376953,-0.98931885,0.23065186,1.5625,0.625,0.953125
1695821917401,-0.048583984,-0.989563,0.23968506,1.484375,0.40625,-0.3125
1695821917430,-0.041259766,-0.99346924,0.22943115,1.0,0.96875,-0.21875
1695821917490,-0.029296875,-0.9824829,0.22723389,1.734375,0.5625,0.515625
1695821917537,-0.029296875,-0.9990845,0.24041748,2.171875,1.609375,0.0
1695821917550,-0.04345703,-0.99224854,0.21942139,1.0625,0.8125,0.171875
1695821917610,-0.040527344,-0.99591064,0.1984253,-1.125,0.1875,-1.03125
1695821917640,-0.046875,-0.99957275,0.21820068,1.71875,0.0625,-0.796875
1695821917670,-0.06347656,-0.9924927,0.2255249,1.515625,0.4375,-0.40625
1695821917730,-0.04711914,-0.9920044,0.21087646,0.03125,-0.828125,-1.640625
1695821917760,-0.045410156,-0.9939575,0.19329834,0.484375,-0.328125,-0.59375
1695821917790,-0.053466797,-0.99664307,0.2164917,1.046875,0.53125,0.1875
1695821917850,-0.048095703,-0.98931885,0.2218628,0.03125,0.578125,-0.5625
1695821917880,-0.053710938,-0.99102783,0.2140503,0.46875,0.09375,0.34375
1695821917909,-0.04638672,-0.98687744,0.21746826,-0.34375,-0.59375,-0.28125
1695821917971,-0.055664062,-0.9907837,0.2008667,0.046875,0.078125,0.46875
1695821918000,-0.050048828,-0.9998169,0.20599365,-0.640625,0.9375,0.28125
1695821918031,-0.051513672,-0.99884033,0.215271,-0.578125,0.890625,0.109375
1695821918090,-0.061523438,-0.9963989,0.2177124,-0.1875,0.90625,0.390625
1695821918106,-0.052001953,-0.98883057,0.20550537,-1.859375,0.359375,0.1875
1695821918151,-0.028564453,-0.99298096,0.215271,-0.390625,0.0625,-0.71875
1695821918211,-0.05859375,-0.9932251,0.21160889,-2.625,0.734375,-0.53125
1695821918225,-0.05883789,-1.0027466,0.21966553,-0.796875,1.109375,0.671875
1695821918270,-0.040527344,-0.9824829,0.22113037,-0.53125,0.65625,-0.328125
1695821918331,-0.06201172,-1.005188,0.22015381,-2.265625,1.046875,-0.46875
1695821918346,-0.055664062,-0.99664307,0.23040771,0.03125,0.625,-0.140625
1695821918390,-0.050048828,-0.9963989,0.2321167,1.671875,1.265625,-0.921875
1695821918451,-0.06640625,-0.98516846,0.22015381,-0.140625,1.421875,0.125
1695821918466,-0.05834961,-0.9902954,0.22332764,-0.921875,1.90625,0.421875
1695821918509,-0.04663086,-0.9907837,0.22381592,-0.109375,1.03125,0.375
1695821918571,-0.06665039,-0.9985962,0.22869873,-0.015625,1.0,0.234375
1695821918586,-0.06225586,-0.99005127,0.215271,-0.140625,1.484375,-0.34375
1695821918631,-0.068115234,-0.9885864,0.21502686,-0.6875,1.765625,1.0
1695821918690,-0.033447266,-0.9788208,0.22869873,0.734375,1.390625,-0.21875
1695821918705,-0.064208984,-1.00177,0.23284912,0.328125,0.59375,1.03125
1695821918750,-0.05029297,-0.9890747,0.21136475,-2.84375,1.859375,-0.8125
1695821918825,-0.05444336,-1.00177,0.23114014,-0.5,1.890625,0.953125
1695821918828,-0.059570312,-0.99835205,0.23358154,-0.828125,1.03125,0.15625
1695821918871,-0.05419922,-0.9780884,0.22406006,-1.109375,1.765625,-0.5
1695821918930,-0.055908203,-0.98809814,0.22625732,-2.0,1.25,0.421875
1695821918945,-0.049560547,-0.98809814,0.2423706,0.75,0.734375,-0.15625
1695821918990,-0.05834961,-0.98321533,0.22235107,-1.40625,0.515625,-0.109375
1695821919021,-0.0546875,-0.9998169,0.23529053,-1.328125,1.25,0.609375
1695821919065,-0.05126953,-0.9993286,0.23406982,-0.515625,0.171875,0.5625
1695821919110,-0.064453125,-0.9819946,0.24432373,-0.171875,0.234375,-0.3125
1695821919141,-0.06298828,-1.003479,0.22479248,-1.8125,1.546875,0.203125
1695821919185,-0.035888672,-0.9834595,0.23553467,-1.296875,0.609375,0.609375
1695821919230,-0.04638672,-0.99102783,0.24285889,-0.828125,1.015625,0.203125
1695821919260,-0.059814453,-0.9915161,0.24066162,-0.28125,0.515625,0.578125
1695821919306,-0.04321289,-0.98028564,0.23162842,-2.28125,1.0,-1.28125
1695821919350,-0.06347656,-0.99346924,0.24285889,-1.703125,0.921875,-0.859375
1695821919380,-0.07495117,-0.9920044,0.23602295,-1.171875,1.34375,-0.21875
1695821919428,-0.041015625,-0.97662354,0.2477417,-0.921875,0.984375,-0.546875
1695821919470,-0.07446289,-0.9924927,0.25091553,-1.796875,0.546875,-0.09375
1695821919501,-0.06518555,-0.9915161,0.25897217,-0.078125,1.140625,-0.359375
1695821919546,-0.056396484,-0.97540283,0.2399292,-1.65625,0.5625,-0.609375
1695821919591,-0.047851562,-0.99346924,0.2597046,-0.140625,1.28125,0.15625
1695821919620,-0.05810547,-0.98565674,0.2526245,-0.375,0.859375,-0.328125
1695821919680,-0.060302734,-0.9717407,0.24822998,0.4375,0.609375,0.046875
1695821919711,-0.07739258,-0.9788208,0.25115967,-0.53125,0.984375,0.328125
1695821919741,-0.051513672,-0.99468994,0.26019287,0.015625,1.609375,-0.234375
1695821919785,-0.056396484,-0.989563,0.2538452,0.625,0.53125,-0.078125
1695821919831,-0.06689453,-0.98565674,0.25408936,0.125,0.5,-0.0625
1695821919860,-0.06616211,-0.98321533,0.2399292,-0.125,1.65625,-0.109375
1695821919906,-0.055908203,-0.9849243,0.260437,-1.5625,2.109375,-0.765625
1695821919950,-0.06640625,-0.9915161,0.24847412,-0.609375,0.984375,0.15625
1695821919980,-0.05078125,-0.97125244,0.2555542,0.359375,0.828125,-1.015625
1695821920026,-0.075683594,-0.9949341,0.24188232,-1.484375,1.125,0.34375
1695821920071,-0.044921875,-0.9841919,0.2597046,-0.03125,0.796875,0.21875
1695821920100,-0.072753906,-0.9807739,0.25482178,-0.84375,0.3125,-0.15625
1695821920146,-0.061035156,-0.9898071,0.25994873,-0.328125,0.921875,0.265625
1695821920191,-0.0625,-0.98394775,0.26239014,0.171875,0.328125,0.171875
1695821920220,-0.07373047,-0.98223877,0.2584839,0.203125,0.921875,-0.046875
1695821920265,-0.06689453,-0.98809814,0.2592163,0.15625,0.796875,0.171875
1695821920310,-0.07324219,-0.99468994,0.25213623,0.1875,1.265625,-0.078125
1695821920340,-0.07348633,-0.98687744,0.25213623,0.171875,0.921875,0.9375
1695821920385,-0.044921875,-0.9763794,0.25872803,0.3125,1.1875,-0.5
1695821920430,-0.07543945,-0.9985962,0.24920654,-0.859375,0.9375,1.140625
1695821920461,-0.051513672,-0.9866333,0.24725342,-1.453125,1.90625,-0.71875
1695821920506,-0.06225586,-0.97906494,0.26654053,0.390625,0.96875,0.90625
1695821920551,-0.07006836,-0.9829712,0.24920654,-1.21875,0.6875,0.625
1695821920581,-0.05493164,-0.98321533,0.26141357,-0.046875,1.109375,0.484375
1695821920610,-0.059570312,-0.9968872,0.25750732,-0.109375,0.1875,0.40625
1695821920671,-0.06738281,-0.99053955,0.2567749,0.140625,0.78125,-0.015625
1695821920700,-0.055908203,-0.97662354,0.2616577,-1.140625,0.84375,-0.265625
1695821920731,-0.072509766,-0.98760986,0.25213623,-0.234375,0.453125,0.734375
1695821920791,-0.05053711,-0.9873657,0.2597046,0.09375,0.75,0.203125
1695821920820,-0.061035156,-0.9907837,0.25360107,0.1875,0.609375,-0.28125
1695821920851,-0.064453125,-0.98321533,0.26361084,1.5625,0.5625,-0.3125
1695821920911,-0.061767578,-0.9800415,0.26263428,1.921875,0.671875,0.21875
1695821920941,-0.05859375,-0.9873657,0.2543335,2.203125,0.125,0.0625
1695821920970,-0.07006836,-0.9859009,0.25335693,1.484375,-0.734375,0.203125
1695821921031,-0.0625,-0.97979736,0.24627686,0.9375,0.859375,-0.9375
1695821921060,-0.06298828,-0.99664307,0.25335693,-0.828125,1.78125,-0.21875
1695821921091,-0.067871094,-0.9854126,0.25506592,2.140625,0.5,0.03125
1695821921150,-0.056152344,-0.9714966,0.24090576,2.234375,-0.21875,-1.078125
1695821921181,-0.0793457,-0.9976196,0.24603271,0.40625,0.1875,0.015625
1695821921210,-0.06665039,-1.005188,0.24066162,1.765625,0.4375,-0.59375
1695821921271,-0.072265625,-0.99005127,0.23040771,1.421875,1.65625,-0.125
1695821921301,-0.06518555,-0.98516846,0.22503662,1.4375,1.3125,-0.03125
1695821921331,-0.06323242,-0.9788208,0.23431396,2.09375,0.6875,0.3125
1695821921406,-0.07495117,-0.98028564,0.22869873,1.796875,0.40625,0.46875
1695821921409,-0.08325195,-1.0012817,0.22943115,-0.03125,1.375,0.453125
1695821921450,-0.06616211,-0.9902954,0.23675537,0.84375,0.984375,0.96875
1695821921509,-0.057861328,-0.9805298,0.23431396,0.46875,1.203125,-0.046875
1695821921525,-0.07128906,-0.99542236,0.230896,0.8125,0.71875,0.359375
1695821921570,-0.059814453,-0.9885864,0.21551514,-1.140625,0.4375,-0.359375
1695821921616,-0.07788086,-1.00177,0.23822021,0.5625,1.03125,0.15625
1695821921646,-0.061035156,-0.97979736,0.2267456,0.171875,1.0625,-0.171875
1695821921691,-0.06347656,-0.9859009,0.2267456,-0.1875,0.6875,-0.578125
1695821921750,-0.06640625,-0.9932251,0.22991943,0.03125,0.59375,-0.140625
1695821921765,-0.068603516,-0.98687744,0.2243042,0.4375,0.796875,-0.015625
1695821921810,-0.076416016,-0.9824829,0.22283936,-0.25,0.875,-0.265625
1695821921872,-0.07080078,-0.99346924,0.2267456,0.265625,0.671875,0.109375
1695821921885,-0.0769043,-0.991272,0.22821045,0.09375,0.828125,-0.078125
1695821921930,-0.07080078,-0.99224854,0.22894287,0.0,1.03125,0.109375
1695821921990,-0.07128906,-0.9873657,0.22161865,-0.171875,1.203125,0.28125
1695821922005,-0.07519531,-0.9927368,0.22332764,-0.03125,1.046875,0.671875
1695821922050,-0.061523438,-0.9807739,0.21990967,-0.03125,1.15625,0.421875
1695821922111,-0.071777344,-0.9944458,0.22821045,0.5,0.96875,0.90625
1695821922141,-0.06713867,-0.9981079,0.22991943,-1.109375,1.421875,0.765625
1695821922171,-0.076660156,-0.9973755,0.2345581,0.015625,0.890625,1.203125
1695821922201,-0.07080078,-0.98687744,0.22259521,0.21875,1.109375,0.390625
1695821922246,-0.055908203,-0.98760986,0.22357178,0.140625,0.875,0.53125
1695821922291,-0.057373047,-0.98565674,0.22113037,0.984375,0.703125,1.28125
1695821922320,-0.05493164,-0.98101807,0.22015381,0.421875,0.71875,0.609375
1695821922365,-0.06567383,-0.9944458,0.2189331,0.90625,0.6875,0.703125
1695821922410,-0.06298828,-0.99957275,0.21453857,-0.09375,1.140625,0.234375
1695821922441,-0.06518555,-0.99884033,0.22210693,0.140625,1.015625,0.046875
1695821922486,-0.06298828,-0.9939575,0.21868896,0.296875,0.578125,0.171875
1695821922530,-0.060791016,-0.9890747,0.2230835,-0.59375,1.421875,-0.09375
1695821922561,-0.071777344,-0.99053955,0.22406006,-0.5,1.46875,0.3125
1695821922605,-0.050048828,-0.9776001,0.22845459,1.25,0.875,0.40625
1695821922651,-0.06958008,-1.0012817,0.22357178,0.546875,1.375,0.28125
1695821922680,-0.06225586,-0.99591064,0.22235107,-1.640625,1.484375,0.0625
1695821922725,-0.07348633,-1.0020142,0.22943115,1.578125,0.9375,0.65625
1695821922771,-0.068847656,-0.9702759,0.22332764,-0.21875,1.25,-0.375
1695821922801,-0.057617188,-0.99298096,0.21942139,-0.234375,0.671875,-0.15625
1695821922844,-0.05834961,-1.0010376,0.21478271,-0.03125,0.71875,0.65625
1695821922890,-0.052734375,-0.9898071,0.22113037,0.390625,1.203125,0.28125
1695821922921,-0.059814453,-0.98883057,0.21722412,-0.484375,1.234375,0.0
1695821922965,-0.060791016,-0.99176025,0.21966553,-0.0625,0.75,0.46875
1695821923010,-0.0625,-0.99664307,0.22137451,0.0625,0.875,0.21875
1695821923040,-0.06689453,-1.0005493,0.22406006,-0.34375,1.0625,0.140625
1695821923084,-0.060302734,-0.9902954,0.21795654,0.109375,1.0625,0.0
1695821923129,-0.0625,-0.98516846,0.2140503,-0.546875,0.640625,-0.046875
1695821923160,-0.06225586,-0.9985962,0.22113037,0.078125,1.234375,0.0
1695821923205,-0.05126953,-0.9717407,0.21746826,-0.53125,0.890625,-0.34375
1695821923250,-0.05859375,-0.99884033,0.21453857,-0.046875,1.03125,0.015625
1695821923281,-0.06713867,-0.99102783,0.22625732,-1.125,1.5,-0.390625
1695821923325,-0.059814453,-0.98638916,0.22991943,0.4375,1.1875,-0.40625
1695821923370,-0.06665039,-0.9829712,0.21356201,-0.859375,1.109375,-0.640625
1695821923401,-0.057861328,-0.9871216,0.22332764,-0.328125,0.84375,0.015625
1695821923446,-0.06982422,-0.9902954,0.22796631,0.15625,0.96875,0.53125
1695821923491,-0.056396484,-0.9883423,0.22650146,-0.421875,0.984375,0.0
1695821923520,-0.06958008,-0.9915161,0.22869873,-0.140625,0.984375,0.078125
1695821923565,-0.057861328,-0.9924927,0.22137451,-0.3125,0.828125,0.09375
1695821923610,-0.06713867,-0.9932251,0.22259521,-0.21875,0.859375,0.078125
1695821923641,-0.06591797,-0.9920044,0.22088623,-0.328125,0.96875,0.015625
1695821923685,-0.06347656,-0.98394775,0.21673584,-0.078125,1.046875,0.328125
1695821923730,-0.064697266,-0.9829712,0.22332764,-0.921875,1.4375,0.296875
1695821923775,-0.067871094,-0.9968872,0.22869873,-0.1875,0.90625,0.703125
1695821923791,-0.053955078,-0.9841919,0.21722412,-0.765625,0.828125,-0.28125
1695821923851,-0.06738281,-0.99468994,0.23382568,0.1875,1.09375,0.09375
1695821923880,-0.06201172,-0.9990845,0.22845459,-2.703125,0.890625,-0.359375
1695821923910,-0.06933594,-0.9939575,0.23382568,-0.203125,0.9375,0.53125
1695821923970,-0.060058594,-0.99005127,0.2230835,-1.53125,1.046875,-0.390625
1695821924000,-0.06323242,-0.9837036,0.22796631,-0.890625,1.15625,0.265625
1695821924032,-0.064208984,-0.98931885,0.23699951,-0.390625,1.1875,0.484375
1695821924090,-0.07324219,-0.9944458,0.22698975,-0.6875,1.25,0.859375
1695821924120,-0.055908203,-0.9834595,0.23553467,-1.78125,1.671875,0.203125
1695821924150,-0.064941406,-0.9998169,0.23577881,-1.875,1.4375,-0.109375
1695821924211,-0.056396484,-0.9898071,0.22723389,-0.703125,0.78125,0.40625
1695821924241,-0.05493164,-0.97442627,0.23846436,-0.484375,1.265625,-0.390625
1695821924271,-0.076660156,-0.9734497,0.24261475,-1.125,1.375,0.625
1695821924331,-0.06298828,-0.99468994,0.2477417,-1.140625,1.28125,0.25
1695821924360,-0.059814453,-0.9939575,0.25091553,-0.59375,1.609375,-0.65625
1695821924390,-0.06982422,-0.97735596,0.24993896,-0.546875,1.515625,-0.140625
1695821924451,-0.059570312,-0.99468994,0.23944092,0.265625,1.46875,-0.671875
1695821924481,-0.0703125,-0.9949341,0.25531006,0.234375,1.03125,0.3125
1695821924511,-0.061767578,-0.9783325,0.23382568,-1.546875,1.125,-0.734375
1695821924570,-0.0690918,-0.9873657,0.24700928,-0.21875,1.484375,0.21875
1695821924585,-0.076660156,-0.99176025,0.24700928,-0.75,1.421875,-0.359375
1695821924630,-0.059570312,-0.99005127,0.23895264,-0.125,1.03125,-0.359375
1695821924690,-0.06274414,-0.9927368,0.2411499,-0.375,1.296875,-0.296875
1695821924709,-0.06542969,-0.98760986,0.24432373,-0.140625,0.671875,-0.25
1695821924750,-0.06347656,-0.98150635,0.24798584,-0.453125,0.8125,-0.09375
1695821924810,-0.068359375,-0.98565674,0.2538452,0.0,0.890625,0.1875
1695821924826,-0.07543945,-0.986145,0.25653076,0.28125,0.765625,0.4375
1695821924870,-0.06665039,-0.9854126,0.24432373,-0.84375,0.78125,-0.046875
1695821924930,-0.064941406,-0.99591064,0.24847412,0.375,0.34375,0.234375
1695821924945,-0.06567383,-0.98321533,0.2518921,1.28125,0.453125,-0.265625
1695821924990,-0.07299805,-0.987854,0.2453003,1.71875,0.78125,0.109375
1695821925051,-0.068603516,-0.9780884,0.24163818,0.578125,0.890625,0.0625
1695821925065,-0.06982422,-1.0039673,0.24603271,1.96875,1.328125,0.65625
1695821925110,-0.06298828,-0.986145,0.24481201,1.03125,0.890625,0.515625
1695821925170,-0.06518555,-0.9829712,0.22821045,0.171875,1.21875,-0.640625
1695821925185,-0.0769043,-1.0022583,0.23797607,0.171875,1.5,0.53125
1695821925230,-0.06665039,-0.97979736,0.23577881,0.71875,1.28125,0.3125
1695821925306,-0.07006836,-0.9819946,0.23162842,-0.234375,1.375,-0.046875
1695821925309,-0.06591797,-0.9951782,0.22796631,0.125,0.859375,0.359375
1695821925350,-0.059326172,-0.9963989,0.23382568,0.578125,1.1875,0.390625
1695821925380,-0.06640625,-0.97857666,0.23602295,1.046875,0.75,0.0625
1695821925425,-0.07299805,-0.99224854,0.22650146,0.359375,1.03125,0.375
1695821925470,-0.05029297,-0.98565674,0.2333374,0.828125,1.078125,-0.09375
1695821925500,-0.07128906,-0.991272,0.22796631,0.328125,0.71875,0.34375
1695821925545,-0.072021484,-1.0015259,0.23382568,0.546875,0.9375,0.640625
1695821925590,-0.060546875,-0.9859009,0.23162842,0.703125,0.984375,-0.09375
1695821925622,-0.068847656,-0.98883057,0.22576904,-0.296875,1.09375,-0.109375
1695821925666,-0.064453125,-1.0078735,0.22259521,0.21875,1.09375,0.78125
1695821925711,-0.056152344,-0.972229,0.22235107,0.578125,0.609375,0.265625
1695821925741,-0.07006836,-0.99468994,0.21795654,-0.46875,1.53125,0.328125
1695821925785,-0.05810547,-0.99786377,0.22943115,-0.8125,1.375,0.25
1695821925831,-0.06225586,-0.99298096,0.22503662,-0.59375,0.8125,-0.125
1695821925861,-0.068603516,-0.99102783,0.22869873,-0.53125,0.75,-0.046875
1695821925905,-0.05883789,-0.986145,0.22332764,-0.34375,0.546875,-0.03125
1695821925951,-0.06616211,-0.99053955,0.23016357,0.265625,0.9375,0.28125
1695821925980,-0.06274414,-0.9873657,0.2333374,-0.734375,1.203125,0.125
1695821926025,-0.068359375,-0.98638916,0.23529053,-0.015625,0.921875,0.640625
1695821926070,-0.06298828,-0.97442627,0.23773193,0.859375,1.03125,0.734375
1695821926100,-0.079589844,-0.9902954,0.22650146,-1.28125,0.421875,0.390625
1695821926146,-0.05053711,-1.0029907,0.2267456,-0.125,0.390625,-0.046875
1695821926190,-0.057617188,-0.9937134,0.23040771,0.375,0.984375,-0.4375
1695821926221,-0.07128906,-0.98516846,0.22235107,-0.671875,1.40625,-0.015625
1695821926265,-0.068847656,-0.98931885,0.22869873,0.078125,0.65625,0.90625
1695821926311,-0.05126953,-0.9824829,0.2267456,-0.203125,0.65625,-0.375
1695821926340,-0.068115234,-0.9746704,0.230896,1.015625,1.28125,0.09375
1695821926385,-0.06738281,-1.0100708,0.22845459,-2.96875,1.390625,-0.5625
1695821926429,-0.057373047,-0.99884033,0.24285889,-0.09375,0.84375,0.40625
1695821926461,-0.0715332,-0.97003174,0.23187256,-1.296875,1.0,-0.625
1695821926506,-0.072021484,-0.99102783,0.23358154,-1.328125,0.921875,-0.171875
1695821926550,-0.05908203,-0.9924927,0.23406982,-0.890625,0.765625,0.625
1695821926581,-0.060058594,-0.9968872,0.24017334,-0.78125,0.953125,0.25
1695821926626,-0.06567383,-0.986145,0.24871826,-1.078125,1.171875,-0.46875
1695821926670,-0.079589844,-0.99005127,0.23944092,-0.25,0.96875,0.6875
1695821926701,-0.045898438,-0.98638916,0.23773193,-0.40625,0.875,-0.265625
1695821926746,-0.064941406,-0.98565674,0.2423706,-0.0625,0.515625,0.0
1695821926790,-0.07324219,-0.98931885,0.246521,-0.078125,1.0625,-0.078125
1695821926820,-0.061767578,-0.9824829,0.23675537,-0.09375,1.15625,-0.09375
1695821926865,-0.07421875,-0.97857666,0.24212646,-0.125,1.046875,0.171875
1695821926910,-0.05908203,-0.9824829,0.24603271,0.375,1.109375,-0.625
1695821926940,-0.080078125,-0.99591064,0.24798584,0.765625,1.046875,0.8125
1695821926985,-0.064453125,-0.99224854,0.21795654,-2.125,1.5625,-0.734375
1695821927031,-0.0703125,-0.99298096,0.25238037,-0.046875,2.265625,0.375
1695821927060,-0.06762695,-0.9807739,0.2514038,0.265625,1.546875,-0.015625
1695821927090,-0.071777344,-0.9776001,0.2345581,-0.15625,1.015625,-0.0625
1695821927150,-0.053466797,-0.9976196,0.24163818,-0.21875,1.5625,0.25
1695821927181,-0.06201172,-0.9890747,0.24847412,-0.015625,0.96875,-0.015625
1695821927211,-0.079833984,-0.98760986,0.24163818,-0.34375,1.421875,-0.171875
1695821927271,-0.05419922,-0.9998169,0.24603271,-0.625,1.296875,0.109375
1695821927301,-0.05102539,-0.98565674,0.24188232,0.140625,1.453125,0.15625
1695821927330,-0.07543945,-0.9976196,0.24066162,-1.046875,2.09375,-0.96875
1695821927405,-0.08618164,-0.9944458,0.24188232,0.234375,1.625,-0.109375
1695821927421,-0.07373047,-0.9824829,0.24603271,0.421875,1.578125,-0.1875
1695821927450,-0.064453125,-0.9776001,0.24481201,-0.1875,1.296875,-0.171875
1695821927510,-0.07470703,-0.9932251,0.24676514,0.09375,1.109375,-0.125
1695821927543,-0.075927734,-1.0012817,0.24871826,0.65625,1.765625,0.796875
1695821927571,-0.056152344,-0.973938,0.23065186,-1.46875,1.640625,-0.78125
1695821927631,-0.078125,-1.0027466,0.2477417,-0.515625,3.234375,-0.09375
1695821927661,-0.048339844,-0.9963989,0.2321167,0.765625,3.25,-0.984375
1695821927691,-0.064453125,-0.9951782,0.23944092,1.265625,2.203125,-0.84375
1695821927751,-0.072509766,-0.97076416,0.2526245,2.234375,0.296875,0.125
1695821927781,-0.08886719,-0.96343994,0.23114014,0.734375,0.5,0.203125
1695821927811,-0.06713867,-0.9817505,0.2411499,-0.5,1.171875,0.046875
1695821927871,-0.07006836,-1.0127563,0.24212646,1.140625,0.5,0.84375
1695821927886,-0.07788086,-0.9932251,0.24578857,1.375,0.40625,-0.453125
1695821927930,-0.07543945,-0.9829712,0.23187256,1.65625,1.171875,0.046875
1695821927990,-0.0715332,-0.987854,0.23236084,1.328125,0.21875,0.125
1695821928005,-0.07348633,-0.98931885,0.22650146,1.0625,0.734375,0.734375
1695821928050,-0.064941406,-0.9834595,0.22259521,1.171875,0.921875,0.671875
1695821928110,-0.06323242,-0.99835205,0.23504639,2.03125,1.59375,0.515625
1695821928125,-0.08520508,-0.9932251,0.22210693,0.9375,1.359375,0.140625
1695821928171,-0.07397461,-0.9907837,0.21478271,-1.265625,1.515625,-0.203125
1695821928230,-0.07421875,-1.0027466,0.22796631,1.359375,1.296875,0.921875
1695821928245,-0.064208984,-0.9846802,0.22113037,0.5,1.15625,0.375
1695821928290,-0.07348633,-0.9907837,0.21722412,0.125,0.921875,0.3125
1695821928350,-0.059570312,-0.9951782,0.22332764,0.359375,0.90625,0.484375
1695821928365,-0.056396484,-0.98321533,0.22235107,1.15625,0.609375,0.296875
1695821928410,-0.075927734,-0.986145,0.21697998,-0.421875,0.796875,0.5625
1695821928485,-0.06542969,-0.99224854,0.21600342,-0.046875,0.484375,0.15625
1695821928488,-0.068115234,-0.987854,0.2098999,0.3125,0.5625,-0.046875
1695821928531,-0.07763672,-1.0010376,0.2189331,-2.203125,0.09375,0.125
1695821928590,-0.06616211,-0.9812622,0.19500732,-7.375,-3.109375,-1.265625
1695821928605,-0.06762695,-0.98883057,0.2531128,-2.109375,-1.359375,-0.515625
1695821928650,-0.0637207,-0.99468994,0.23480225,-1.953125,0.421875,-0.34375
1695821928681,-0.06225586,-0.991272,0.23431396,-1.890625,-0.0625,-0.578125
1695821928725,-0.06762695,-0.9937134,0.24945068,0.296875,0.59375,0.109375
1695821928770,-0.080078125,-0.98443604,0.24676514,-2.421875,1.875,-0.546875
1695821928801,-0.09033203,-0.9993286,0.2453003,0.34375,1.703125,0.53125
1695821928845,-0.07495117,-0.99298096,0.23919678,0.875,1.0,0.15625
1695821928890,-0.06738281,-0.9783325,0.24383545,0.390625,1.15625,-0.34375
1695821928920,-0.087402344,-0.9927368,0.2387085,-0.125,1.4375,0.375
1695821928966,-0.060791016,-0.97320557,0.23504639,0.234375,1.28125,0.109375
1695821929010,-0.07080078,-0.9890747,0.23382568,-1.09375,1.6875,0.109375
1695821929041,-0.072021484,-0.9937134,0.2387085,-0.484375,1.46875,0.421875
1695821929085,-0.07739258,-0.9898071,0.2423706,-0.21875,1.15625,-0.078125
1695821929130,-0.08154297,-0.98028564,0.24432373,-0.46875,0.859375,-0.0625
1695821929161,-0.083496094,-0.98760986,0.24554443,-0.75,1.3125,-0.15625
1695821929205,-0.072265625,-0.9817505,0.23529053,-0.875,0.8125,-0.09375
1695821929251,-0.06225586,-0.99005127,0.25604248,1.046875,2.03125,-0.765625
1695821929280,-0.08618164,-0.98101807,0.25091553,0.21875,1.03125,0.484375
1695821929325,-0.063964844,-0.9793091,0.22821045,-1.0,1.171875,-0.703125
1695821929370,-0.07543945,-0.99664307,0.24871826,-1.0625,1.578125,0.3125
1695821929400,-0.075683594,-0.9859009,0.24505615,-0.015625,1.34375,-0.15625
1695821929446,-0.08154297,-0.9758911,0.23602295,-0.609375,1.25,0.234375
1695821929490,-0.064697266,-0.9907837,0.24090576,-0.953125,1.078125,-0.328125
1695821929520,-0.06665039,-0.9819946,0.2526245,-0.421875,0.390625,-0.46875
1695821929565,-0.08178711,-0.9780884,0.2518921,-1.25,0.65625,-0.609375
1695821929610,-0.08251953,-0.9920044,0.25213623,-1.75,1.484375,0.046875
1695821929640,-0.08154297,-0.99005127,0.24212646,-1.171875,1.46875,-0.234375
1695821929686,-0.083740234,-0.97491455,0.25091553,-0.859375,1.09375,-0.09375
1695821929731,-0.09667969,-0.98931885,0.2531128,-0.609375,1.1875,0.15625
1695821929761,-0.07861328,-0.9846802,0.24969482,-0.984375,1.984375,0.0
1695821929806,-0.07324219,-0.9714966,0.2584839,-1.125,1.390625,0.171875
1695821929850,-0.07324219,-0.98101807,0.26287842,-1.203125,2.296875,0.25
1695821929880,-0.064697266,-0.9771118,0.26922607,-0.140625,1.046875,0.8125
1695821929924,-0.06591797,-0.97662354,0.24969482,-2.015625,0.90625,-0.375
1695821929971,-0.0847168,-0.99176025,0.27801514,-0.53125,1.9375,0.171875
1695821930000,-0.092285156,-0.97662354,0.25115967,-0.46875,1.171875,0.34375
1695821930046,-0.06274414,-0.9780884,0.26556396,0.046875,1.21875,-0.46875
1695821930091,-0.0715332,-0.97735596,0.26019287,-0.15625,0.21875,0.125
1695821930121,-0.08569336,-0.9849243,0.26116943,0.765625,0.859375,0.25
1695821930166,-0.06689453,-0.975647,0.25701904,0.203125,0.921875,0.40625
1695821930210,-0.075927734,-0.9890747,0.26287842,1.25,0.671875,0.15625
1695821930240,-0.08251953,-0.9907837,0.25897217,1.125,-0.140625,0.265625
1695821930270,-0.083984375,-0.98394775,0.25628662,1.03125,0.0625,0.328125
1695821930331,-0.07885742,-0.99468994,0.25872803,1.359375,-0.03125,0.0
1695821930360,-0.07495117,-0.9841919,0.2543335,1.6875,0.953125,-0.359375
1695821930391,-0.07348633,-0.9800415,0.24578857,1.03125,0.8125,-0.078125
1695821930450,-0.07714844,-0.99542236,0.24554443,2.140625,0.796875,0.5625
1695821930481,-0.07543945,-0.98101807,0.25335693,1.109375,0.59375,-0.125
1695821930526,-0.08300781,-0.98809814,0.2374878,1.234375,1.171875,-0.1875
1695821930570,-0.084472656,-0.99298096,0.2506714,-0.734375,1.640625,-0.609375
1695821930600,-0.08666992,-0.9841919,0.24554443,1.75,1.046875,0.28125
1695821930630,-0.08154297,-0.9783325,0.23577881,0.1875,0.84375,-0.1875
1695821930690,-0.0793457,-0.9837036,0.2399292,0.421875,0.6875,-0.015625
1695821930720,-0.08276367,-0.99298096,0.24041748,1.0,0.71875,0.71875
1695821930751,-0.078125,-0.9849243,0.2399292,-0.046875,1.140625,0.6875
1695821930810,-0.07885742,-0.9907837,0.24090576,0.796875,1.140625,0.734375
1695821930841,-0.079589844,-0.98883057,0.2374878,0.65625,1.015625,0.671875
1695821930870,-0.08105469,-0.98150635,0.2333374,0.90625,1.140625,0.5
1695821930930,-0.083496094,-0.9907837,0.23651123,0.703125,1.0625,0.953125
1695821930961,-0.075683594,-0.9898071,0.23797607,0.96875,1.421875,0.78125
1695821930990,-0.068359375,-0.97857666,0.23284912,0.046875,1.09375,0.734375
1695821931050,-0.0703125,-0.9885864,0.23382568,1.15625,1.40625,1.03125
1695821931065,-0.0690918,-0.9920044,0.22625732,0.5625,0.96875,0.625
1695821931110,-0.06762695,-0.99224854,0.2243042,0.203125,1.359375,0.46875
1695821931170,-0.07714844,-0.99664307,0.24188232,0.828125,1.53125,0.609375
1695821931185,-0.06958008,-0.9883423,0.22161865,0.203125,1.125,0.734375
1695821931229,-0.07324219,-0.9898071,0.2189331,-0.078125,0.8125,0.359375
1695821931290,-0.05908203,-0.9915161,0.21697998,0.109375,0.84375,0.53125
1695821931305,-0.06713867,-0.991272,0.22650146,0.765625,1.140625,0.921875
1695821931350,-0.06713867,-0.99005127,0.22625732,-0.125,1.25,0.59375
1695821931411,-0.0637207,-0.9961548,0.2296753,0.015625,0.84375,0.8125
1695821931425,-0.060791016,-0.9873657,0.22625732,0.546875,0.484375,0.40625
1695821931469,-0.060546875,-0.991272,0.2296753,0.265625,0.125,0.203125
1695821931531,-0.06713867,-0.9932251,0.2321167,-0.015625,0.40625,0.484375
1695821931546,-0.07324219,-0.98516846,0.22821045,0.28125,0.625,0.265625
1695821931589,-0.07543945,-0.98443604,0.2177124,-0.140625,0.703125,0.25
1695821931651,-0.056396484,-1.0046997,0.22210693,0.0625,0.6875,0.125
1695821931666,-0.06640625,-0.9968872,0.22381592,-0.6875,1.28125,-0.1875
1695821931710,-0.057373047,-0.98516846,0.21038818,-1.125,1.09375,-0.140625
1695821931785,-0.07324219,-1.0025024,0.23236084,-0.578125,1.796875,0.203125
1695821931788,-0.06274414,-0.99005127,0.22772217,-0.84375,1.375,0.09375
1695821931830,-0.07543945,-0.97198486,0.2189331,-1.09375,1.59375,0.203125
1695821931860,-0.05859375,-1.00177,0.22845459,-1.078125,0.75,-0.0625
1695821931905,-0.0637207,-0.989563,0.23431396,-0.09375,0.4375,0.328125
1695821931950,-0.07324219,-0.99176025,0.23919678,-0.9375,0.703125,-0.640625
1695821931981,-0.068115234,-0.98272705,0.2321167,-0.90625,0.5,-0.3125
1695821932025,-0.07446289,-0.9898071,0.23040771,-0.71875,0.484375,0.046875
1695821932070,-0.06933594,-0.98443604,0.23968506,-0.546875,0.609375,-0.171875
1695821932101,-0.0703125,-0.9873657,0.2374878,-0.90625,0.34375,-0.015625
1695821932145,-0.0715332,-0.9985962,0.2374878,-0.5625,0.78125,-0.125
1695821932206,-0.06567383,-0.9800415,0.24334717,-0.75,0.59375,-0.234375
1695821932236,-0.08129883,-0.9927368,0.2321167,-0.03125,1.5,0.640625
1695821932266,-0.061767578,-0.9927368,0.2423706,-0.421875,0.953125,0.078125
1695821932311,-0.06616211,-0.97857666,0.22454834,-1.359375,0.921875,-0.28125
1695821932340,-0.08959961,-0.9961548,0.24554443,-1.609375,2.078125,0.140625
1695821932385,-0.064208984,-0.9859009,0.2423706,-0.25,1.46875,0.359375
1695821932430,-0.0715332,-0.98101807,0.23968506,-0.765625,0.625,-0.53125
1695821932460,-0.06958008,-0.98883057,0.24212646,-0.5625,0.546875,-0.25
1695821932505,-0.050048828,-0.987854,0.22772217,-2.609375,-1.765625,-0.15625
1695821932550,-0.06591797,-0.98565674,0.2543335,-0.265625,-1.5625,-0.84375
1695821932580,-0.09790039,-0.9807739,0.25213623,-1.625,0.171875,0.125
1695821932625,-0.06933594,-0.989563,0.24383545,0.359375,0.703125,0.21875
1695821932670,-0.05908203,-0.9849243,0.2477417,-0.203125,0.734375,0.125
1695821932701,-0.08666992,-0.99176025,0.25213623,-0.140625,1.21875,-0.125
1695821932745,-0.07373047,-0.99468994,0.246521,0.1875,1.640625,0.28125
1695821932790,-0.07348633,-0.9746704,0.24847412,-0.765625,1.15625,-0.125
1695821932820,-0.07910156,-0.99835205,0.24285889,0.375,1.578125,0.671875
1695821932865,-0.060058594,-0.9788208,0.25213623,-0.59375,0.953125,-0.3125
1695821932910,-0.06665039,-0.98760986,0.2518921,-0.0625,0.921875,-0.25
1695821932940,-0.07714844,-0.9885864,0.24847412,-2.296875,1.6875,-0.640625
1695821932986,-0.08691406,-0.991272,0.2592163,-0.125,1.3125,0.765625
1695821933030,-0.080566406,-0.9780884,0.2489624,-0.875,1.171875,0.0625
1695821933060,-0.061279297,-0.9898071,0.25726318,-0.796875,0.859375,-0.25
1695821933121,-0.076171875,-0.9939575,0.25482178,-0.53125,0.75,-0.25
1695821933151,-0.08520508,-0.9788208,0.25579834,-0.171875,0.8125,0.0625
1695821933181,-0.06298828,-0.97662354,0.2597046,-1.75,1.9375,0.046875
1695821933225,-0.07421875,-0.9854126,0.2584839,-0.375,0.609375,0.1875
1695821933270,-0.075927734,-0.9883423,0.25604248,-0.40625,0.671875,-0.046875
1695821933300,-0.07421875,-0.9837036,0.25897217,0.375,0.71875,-0.09375
1695821933345,-0.0769043,-0.989563,0.25628662,-0.1875,0.78125,0.15625
1695821933390,-0.07373047,-0.9924927,0.262146,0.3125,1.15625,0.0625
1695821933421,-0.076171875,-0.98443604,0.25701904,-0.109375,1.328125,0.109375
1695821933466,-0.07763672,-0.9902954,0.26141357,0.921875,0.96875,0.5625
1695821933510,-0.071777344,-0.97784424,0.25946045,0.890625,0.140625,0.015625
1695821933541,-0.08520508,-0.98883057,0.24969482,1.078125,0.75,-0.171875
1695821933571,-0.088378906,-0.9937134,0.25408936,-1.15625,1.125,-0.015625
1695821933630,-0.072753906,-0.9956665,0.2616577,2.0,1.03125,0.421875
1695821933661,-0.076416016,-0.97052,0.24993896,0.40625,0.59375,-0.140625
1695821933751,-0.07446289,-0.9871216,0.2453003,0.46875,0.953125,0.34375
1695821933753,-0.06616211,-0.99346924,0.24554443,0.75,0.9375,0.6875
1695821933781,-0.07373047,-0.9812622,0.24432373,1.46875,0.828125,0.859375
1695821933810,-0.083496094,-0.98150635,0.24945068,-0.140625,1.75,1.046875
1695821933870,-0.0769043,-0.9949341,0.2531128,0.765625,1.359375,1.171875
1695821933900,-0.0637207,-0.9846802,0.24432373,1.34375,1.125,0.40625
1695821933930,-0.07299805,-0.9817505,0.25042725,0.21875,1.09375,0.21875
1695821933990,-0.06762695,-0.9907837,0.24383545,0.578125,1.125,0.40625
1695821934021,-0.05883789,-0.98760986,0.23822021,0.34375,1.046875,0.265625
1695821934050,-0.078125,-0.99005127,0.23895264,-0.046875,1.09375,0.109375
1695821934110,-0.06738281,-0.9885864,0.2506714,1.71875,1.421875,0.21875
1695821934140,-0.083984375,-0.9990845,0.23822021,0.75,1.21875,0.65625
1695821934171,-0.067871094,-0.9883423,0.22625732,-1.328125,0.9375,0.1875
1695821934230,-0.07421875,-0.99957275,0.24798584,1.109375,1.4375,0.421875
1695821934261,-0.06713867,-0.9783325,0.23382568,-1.03125,1.40625,0.125
1695821934289,-0.06933594,-0.9890747,0.23065186,-0.203125,1.078125,0.0
1695821934350,-0.060058594,-0.98516846,0.23895264,-0.15625,0.5625,0.09375
1695821934365,-0.06689453,-0.97613525,0.24798584,0.4375,1.015625,0.03125
1695821934410,-0.072753906,-0.9793091,0.24017334,-0.8125,0.875,0.4375
1695821934471,-0.06225586,-0.98687744,0.24432373,0.359375,0.484375,0.09375
1695821934485,-0.0690918,-0.98883057,0.23577881,-0.28125,0.796875,0.015625
1695821934530,-0.0715332,-0.9973755,0.24383545,-0.203125,0.921875,-0.09375
1695821934590,-0.0715332,-0.987854,0.24261475,0.15625,0.90625,0.171875
1695821934606,-0.07714844,-0.98272705,0.2374878,-0.703125,1.234375,0.15625
1695821934651,-0.06982422,-0.9956665,0.2423706,-0.640625,0.546875,0.25
1695821934711,-0.05517578,-0.989563,0.24334717,0.5625,1.015625,-0.328125
1695821934725,-0.084472656,-0.98883057,0.2399292,-0.265625,0.765625,0.296875
1695821934770,-0.05517578,-0.9824829,0.23382568,-2.171875,1.09375,-0.34375
1695821934830,-0.080078125,-1.0061646,0.25726318,-0.828125,1.125,0.34375
1695821934846,-0.072265625,-0.98028564,0.24871826,-0.75,0.984375,-0.203125
1695821934890,-0.068847656,-0.99005127,0.24456787,-0.96875,1.15625,-0.078125
1695821934951,-0.07104492,-0.99176025,0.24725342,-0.578125,0.59375,0.015625
1695821934965,-0.075683594,-0.9866333,0.24969482,0.015625,1.109375,0.53125
1695821935010,-0.0703125,-0.97857666,0.24749756,-1.296875,1.140625,0.203125
1695821935071,-0.06713867,-0.9932251,0.24969482,-0.4375,0.84375,1.015625
1695821935085,-0.060058594,-0.9885864,0.24920654,-0.515625,0.96875,-0.046875
1695821935130,-0.07470703,-0.98565674,0.2597046,-0.375,1.03125,-0.421875
1695821935161,-0.07885742,-0.9961548,0.25286865,-0.359375,0.953125,0.1875
1695821935206,-0.060302734,-0.9800415,0.24798584,0.109375,1.375,0.1875
1695821935250,-0.07373047,-0.97613525,0.24407959,-1.265625,0.96875,0.015625
1695821935281,-0.06274414,-0.9890747,0.25653076,0.046875,1.234375,0.15625
1695821935325,-0.076171875,-0.9854126,0.26312256,-0.140625,0.25,0.0
1695821935370,-0.06713867,-0.9768677,0.2399292,-0.9375,1.28125,-0.578125
1695821935400,-0.076416016,-0.9915161,0.2592163,-1.421875,2.171875,0.25
1695821935446,-0.07714844,-0.9854126,0.2609253,-0.03125,1.40625,0.0
1695821935491,-0.06982422,-0.9678345,0.2453003,-0.078125,0.875,-0.390625
1695821935521,-0.0703125,-0.98809814,0.25604248,-0.796875,0.765625,0.09375
1695821935565,-0.06225586,-0.99005127,0.25506592,0.28125,0.765625,0.171875
1695821935610,-0.07885742,-0.97662354,0.2543335,-0.734375,0.734375,0.1875
1695821935641,-0.0769043,-0.9849243,0.25994873,-0.890625,1.046875,0.1875
1695821935685,-0.07421875,-0.9883423,0.26605225,0.15625,0.5625,-0.015625
1695821935731,-0.072509766,-0.9841919,0.25579834,-0.21875,0.828125,-0.8125
1695821935761,-0.08081055,-0.9849243,0.260437,-0.359375,1.03125,0.078125
1695821935806,-0.06640625,-0.9734497,0.26068115,0.796875,1.0625,0.375
1695821935851,-0.08496094,-0.98321533,0.2538452,-1.0625,1.28125,0.296875
1695821935881,-0.0625,-0.987854,0.26116943,0.171875,1.359375,0.65625
1695821935926,-0.06713867,-0.97857666,0.24749756,-0.15625,0.65625,-0.078125
1695821935971,-0.07421875,-0.9956665,0.25701904,0.78125,1.234375,0.4375
1695821936000,-0.067871094,-0.9800415,0.260437,-1.734375,1.734375,-0.375
1695821936045,-0.083496094,-0.9961548,0.26849365,0.5625,1.21875,0.671875
1695821936091,-0.061523438,-0.986145,0.25872803,0.21875,1.484375,-0.1875
1695821936121,-0.064697266,-0.9795532,0.2477417,0.0625,1.015625,-0.15625
1695821936165,-0.064697266,-0.98223877,0.2501831,0.5,1.046875,0.53125
1695821936211,-0.068603516,-0.98883057,0.25946045,0.953125,0.6875,0.59375
1695821936241,-0.08154297,-0.9812622,0.2597046,-0.21875,0.953125,0.203125
1695821936286,-0.06201172,-0.9890747,0.2592163,1.03125,0.953125,0.203125
1695821936331,-0.07543945,-0.98272705,0.25531006,0.9375,0.765625,0.046875
1695821936361,-0.07055664,-0.97857666,0.25360107,1.125,0.6875,-0.1875
1695821936406,-0.064941406,-0.98028564,0.24188232,0.65625,0.90625,0.421875
1695821936451,-0.072265625,-0.98809814,0.246521,0.515625,1.25,-0.203125
1695821936480,-0.06958008,-0.9800415,0.24920654,0.546875,0.890625,0.625
1695821936525,-0.06982422,-0.9924927,0.25531006,1.515625,1.59375,0.046875
1695821936570,-0.07910156,-0.9949341,0.24871826,0.671875,1.234375,0.203125
1695821936601,-0.060791016,-0.98150635,0.23406982,-0.484375,1.078125,-0.25
1695821936645,-0.08227539,-1.0049438,0.25213623,0.578125,1.296875,0.578125
1695821936690,-0.0703125,-0.97906494,0.24871826,0.546875,1.53125,0.03125
1695821936721,-0.07714844,-0.9793091,0.23431396,0.0625,1.046875,-0.09375
1695821936751,-0.067871094,-0.9976196,0.24017334,-0.328125,0.875,0.28125
1695821936810,-0.068359375,-0.98394775,0.25091553,1.140625,1.140625,0.46875
1695821936841,-0.07299805,-0.9834595,0.24285889,0.25,1.125,0.171875
1695821936869,-0.07714844,-0.9927368,0.24676514,0.515625,0.765625,0.796875
1695821936930,-0.059570312,-0.98565674,0.24285889,0.90625,0.734375,0.265625
1695821936961,-0.07128906,-0.9846802,0.23724365,0.796875,0.796875,0.234375
1695821936990,-0.075927734,-0.9963989,0.23675537,0.40625,0.90625,0.484375
1695821937051,-0.06518555,-0.9854126,0.2387085,0.46875,1.078125,0.3125
1695821937080,-0.07397461,-0.9854126,0.23968506,0.171875,0.953125,0.234375
1695821937111,-0.06347656,-0.99224854,0.2321167,0.609375,1.265625,0.28125
1695821937170,-0.068603516,-0.9956665,0.23236084,-0.453125,0.96875,0.15625
1695821937200,-0.057128906,-0.9800415,0.2267456,-1.21875,1.078125,-0.359375
1695821937230,-0.07861328,-1.0003052,0.24481201,-0.640625,1.234375,0.15625
1695821937290,-0.06323242,-0.98687744,0.2374878,-0.484375,0.8125,-0.046875
1695821937321,-0.072021484,-0.97784424,0.23797607,-1.109375,0.828125,-0.5
1695821937366,-0.07055664,-0.987854,0.23284912,-0.921875,0.75,0.03125
1695821937410,-0.068603516,-0.9898071,0.24041748,-0.3125,0.671875,0.375
1695821937441,-0.064208984,-0.9846802,0.24359131,-0.921875,0.671875,-0.265625
1695821937470,-0.07519531,-0.99298096,0.24969482,-1.1875,0.78125,-0.0625
1695821937531,-0.068115234,-0.9915161,0.23944092,-1.140625,0.53125,0.125
1695821937545,-0.06958008,-0.9890747,0.24359131,-0.515625,0.828125,-0.140625
1695821937590,-0.07495117,-0.9819946,0.25286865,-0.875,0.921875,0.015625
1695821937650,-0.07080078,-0.9924927,0.24603271,-0.890625,1.375,0.078125
1695821937666,-0.06713867,-0.98883057,0.2506714,-1.171875,1.171875,-0.3125
1695821937710,-0.08081055,-0.9932251,0.23822021,-0.875,1.71875,0.875
1695821937770,-0.05859375,-0.9793091,0.2567749,-1.484375,0.859375,0.125
1695821937785,-0.0715332,-0.98760986,0.24847412,0.28125,0.984375,0.21875
1695821937830,-0.07055664,-0.99884033,0.25408936,-2.796875,1.90625,-0.421875
1695821937891,-0.076416016,-0.9866333,0.25994873,-1.4375,1.53125,0.9375
1695821937905,-0.07397461,-0.9639282,0.24407959,-2.90625,1.984375,0.765625
1695821937950,-0.0546875,-0.9866333,0.27093506,-1.125,2.625,0.78125
1695821938011,-0.049560547,-0.9915161,0.2826538,-0.359375,2.71875,0.140625
1695821938025,-0.064208984,-0.989563,0.2723999,1.546875,0.375,-0.71875
1695821938070,-0.06640625,-0.9673462,0.25164795,-0.96875,-0.328125,-1.34375
1695821938130,-0.07397461,-0.989563,0.25286865,-0.84375,-0.234375,-0.140625
1695821938146,-0.08984375,-0.9890747,0.24456787,0.171875,0.234375,0.625
1695821938190,-0.07373047,-0.97906494,0.26312256,0.03125,0.40625,0.40625
1695821938265,-0.0793457,-0.9854126,0.26605225,0.4375,1.109375,0.1875
1695821938269,-0.080078125,-0.987854,0.25579834,0.0625,1.828125,0.6875
1695821938310,-0.057617188,-0.9793091,0.25653076,-0.75,2.359375,0.78125
1695821938339,-0.05102539,-0.99542236,0.2555542,-0.234375,1.953125,1.15625
1695821938385,-0.048339844,-0.97442627,0.2592163,-0.390625,0.328125,0.4375
1695821938431,-0.07080078,-0.97784424,0.2567749,-0.390625,0.4375,0.03125
1695821938459,-0.0703125,-0.99591064,0.26898193,-2.15625,2.484375,-0.234375
