# Sensor type: Respeck
# Activity type: Ascending stairs
# Activity subtype: Normal
# Subject id: s2020072
# Notes: 
timestamp,accel_x,accel_y,accel_z,gyro_x,gyro_y,gyro_z
1695827561583,-0.10620117,-0.9819946,0.33099365,5.484375,2.390625,3.671875
1695827561642,-0.0859375,-0.9636841,0.30950928,5.234375,1.8125,3.328125
1695827561657,-0.106933594,-0.9463501,0.32904053,2.234375,3.828125,1.625
1695827561703,-0.095947266,-0.9299927,0.31781006,5.71875,3.796875,2.546875
1695827561763,-0.07373047,-0.93878174,0.32244873,6.890625,2.90625,3.15625
1695827561777,-0.083496094,-0.9697876,0.32513428,8.015625,1.953125,5.546875
1695827561822,-0.072021484,-0.94122314,0.30340576,12.328125,0.015625,6.859375
1695827561883,-0.076416016,-0.94781494,0.3283081,11.15625,0.703125,8.265625
1695827561897,-0.09863281,-0.98394775,0.26727295,10.953125,-0.84375,9.8125
1695827561942,0.0107421875,-1.1731567,0.2579956,13.015625,-6.125,16.890625
1695827562003,0.013183594,-1.2774048,0.26898193,8.515625,-7.359375,15.984375
1695827562018,0.009521484,-1.1221313,0.109069824,19.546875,-3.046875,11.5625
1695827562063,0.15625,-1.3308716,0.17254639,3.359375,2.71875,8.53125
1695827562123,0.07104492,-1.1987915,0.13006592,14.421875,3.875,-2.140625
1695827562138,0.023925781,-1.0474243,-0.01739502,5.90625,6.59375,-6.546875
1695827562184,0.040283203,-1.0361938,-0.06744385,5.65625,6.71875,-11.0
1695827562245,0.06665039,-1.0342407,0.010437012,1.96875,10.640625,-12.140625
1695827562260,0.033935547,-1.0088501,0.008728027,-1.359375,6.875,-11.734375
1695827562304,0.028808594,-0.909729,0.02947998,-3.015625,3.6875,-13.546875
1695827562364,0.016601562,-0.8440552,0.04486084,-3.671875,6.90625,-12.390625
1695827562379,-0.095214844,-0.85821533,0.030944824,-3.078125,11.859375,-11.078125
1695827562424,-0.10253906,-0.88360596,-0.0049438477,1.359375,11.578125,-11.75
1695827562455,0.009765625,-0.9717407,0.028015137,-2.1875,11.03125,-7.796875
1695827562499,0.010009766,-1.0159302,0.09075928,-7.578125,3.828125,-7.40625
1695827562544,-0.15454102,-0.9299927,0.061706543,-7.90625,1.34375,-6.34375
1695827562574,-0.11035156,-0.8731079,0.055358887,5.125,1.21875,1.78125
1695827562619,-0.080322266,-0.86846924,0.089538574,1.75,-1.25,4.1875
1695827562664,-0.111328125,-0.9627075,0.12176514,-1.078125,-1.46875,-0.140625
1695827562694,-0.14575195,-1.0066528,0.05291748,3.65625,-6.765625,5.265625
1695827562739,-0.041503906,-0.94122314,0.070251465,3.65625,-5.46875,4.578125
1695827562784,-0.11669922,-1.0010376,0.11224365,-0.578125,-6.453125,2.90625
1695827562814,-0.11352539,-1.0066528,0.11419678,-0.09375,-7.921875,2.8125
1695827562859,-0.1821289,-0.9368286,0.12713623,0.515625,-3.75,1.609375
1695827562904,-0.18432617,-0.9651489,0.08319092,1.4375,-2.359375,5.28125
1695827562933,-0.049072266,-0.9573364,0.090026855,2.59375,-3.984375,7.046875
1695827562979,-0.15600586,-0.96417236,0.13031006,-2.75,-2.203125,4.859375
1695827563024,-0.13769531,-1.024231,0.08538818,-3.75,-3.5,6.625
1695827563054,-0.10961914,-1.1091919,0.09588623,-7.09375,1.71875,6.796875
1695827563099,-0.048339844,-1.1868286,0.15496826,-6.109375,5.125,9.8125
1695827563144,-0.03540039,-1.1570435,0.1749878,-3.84375,3.390625,4.671875
1695827563174,-0.099121094,-1.239563,0.1942749,-5.0625,6.15625,7.75
1695827563219,-0.005859375,-1.4387817,0.1486206,-8.265625,2.8125,5.03125
1695827563264,0.11791992,-1.2852173,0.078552246,-6.890625,-2.046875,0.734375
1695827563294,0.08203125,-0.9529419,0.066345215,-1.921875,-1.28125,-4.078125
1695827563339,0.040771484,-0.9487915,0.17034912,-8.296875,7.65625,1.78125
1695827563385,0.17749023,-0.9661255,0.14666748,-5.65625,-1.453125,6.921875
1695827563414,0.040283203,-0.81573486,0.1605835,-8.921875,2.421875,-3.171875
1695827563459,-0.055664062,-0.89971924,0.18450928,-9.40625,3.234375,-3.21875
1695827563504,0.011474609,-0.8921509,0.21795654,-9.28125,2.125,-6.046875
1695827563534,0.0043945312,-0.8545532,0.19329834,-9.8125,7.765625,-6.453125
1695827563579,0.043701172,-0.9038696,0.21868896,-5.203125,4.171875,-2.59375
1695827563624,0.041503906,-0.90582275,0.23040771,-6.078125,2.40625,-0.625
1695827563654,-0.0061035156,-0.89556885,0.27166748,-3.609375,3.484375,-2.5625
1695827563699,-0.041259766,-0.8279419,0.27264404,1.25,2.5625,-3.59375
1695827563745,-0.06542969,-0.815979,0.24822998,3.546875,1.4375,0.359375
1695827563775,-0.059814453,-0.8440552,0.23699951,3.828125,4.921875,-0.3125
1695827563822,-0.032470703,-0.9348755,0.2584839,2.0625,7.15625,-0.0625
1695827563864,0.028076172,-0.9558716,0.2682495,12.34375,4.890625,2.5625
1695827563893,-0.0056152344,-0.99224854,0.2723999,11.84375,-2.796875,3.53125
1695827563939,-0.13061523,-1.0349731,0.27215576,7.078125,-2.09375,1.28125
1695827563984,-0.10522461,-0.9639282,0.22503662,13.890625,4.75,0.03125
1695827564014,-0.036621094,-1.0410767,0.23651123,5.90625,7.40625,1.328125
1695827564044,-0.010498047,-1.1375122,0.25775146,4.21875,4.765625,3.265625
1695827564104,0.0,-1.3323364,0.3024292,3.890625,-1.703125,6.296875
1695827564133,-0.08911133,-1.312561,0.27215576,22.203125,2.9375,1.671875
1695827564164,-0.04296875,-1.1655884,0.15423584,35.09375,8.671875,5.171875
1695827564224,0.09765625,-1.1829224,-0.08282471,4.046875,-7.671875,1.78125
1695827564254,0.07495117,-1.1692505,0.051696777,10.234375,7.65625,-1.03125
1695827564283,0.08642578,-0.9500122,-3.0517578E-4,-3.6875,15.125,-7.875
1695827564345,0.015136719,-0.87091064,-0.12701416,-2.90625,6.703125,-7.8125
1695827564374,0.033447266,-1.0142212,-0.0569458,6.5,-3.078125,-4.75
1695827564404,0.032958984,-0.9258423,0.0026245117,3.625,5.765625,-2.234375
1695827564467,0.055419922,-0.82110596,-0.06695557,1.796875,9.578125,-1.828125
1695827564494,-0.0034179688,-0.86505127,0.022155762,-2.453125,5.359375,-5.421875
1695827564523,-0.09350586,-0.8616333,0.0053100586,-4.265625,8.09375,-4.40625
1695827564584,-0.06982422,-0.895813,-0.043029785,-4.84375,9.765625,-3.765625
1695827564614,-0.030029297,-0.8550415,0.014099121,0.6875,9.703125,-4.59375
1695827564644,-0.08520508,-0.93341064,0.06097412,-8.03125,11.1875,-1.765625
1695827564703,-0.12573242,-0.9702759,0.038513184,-4.640625,7.421875,-1.328125
1695827564765,-0.056640625,-0.9470825,0.050476074,-1.3125,7.546875,1.65625
1695827564768,-0.0625,-0.9319458,0.07244873,-1.703125,6.5,2.078125
1695827564824,-0.088378906,-0.9336548,0.066101074,-3.546875,3.34375,2.65625
1695827564839,-0.079589844,-0.95928955,0.097595215,-1.890625,-0.4375,3.203125
1695827564884,-0.07348633,-0.9338989,0.08905029,-2.65625,-1.59375,4.75
1695827564944,-0.095703125,-0.9783325,0.09173584,-2.953125,-3.578125,6.046875
1695827564959,-0.041015625,-1.0386353,0.14056396,-2.640625,-6.921875,8.765625
1695827565005,-0.111572266,-1.0137329,0.12762451,-1.46875,-9.28125,7.609375
1695827565063,-0.118896484,-1.1270142,0.08734131,-2.796875,-7.3125,13.359375
1695827565078,-0.06274414,-1.4959106,0.15203857,-24.859375,-5.828125,11.203125
1695827565124,-0.0068359375,-1.472229,0.19525146,-18.59375,-4.75,0.125
1695827565184,-0.021240234,-1.3787231,0.07879639,-6.90625,2.890625,6.359375
1695827565199,0.17749023,-1.0264282,0.09637451,1.703125,-3.078125,13.78125
1695827565245,0.19165039,-0.8674927,0.18670654,-0.421875,4.78125,4.78125
1695827565319,0.22167969,-1.0344849,0.16766357,1.046875,-1.1875,8.96875
1695827565322,0.18896484,-0.83551025,0.12567139,-1.015625,-7.0,5.734375
1695827565365,0.02709961,-0.79522705,0.13983154,-5.578125,-6.734375,-0.75
1695827565424,0.042236328,-0.92193604,0.18450928,-1.296875,-5.453125,-2.265625
1695827565439,0.115234375,-0.9194946,0.23260498,-5.046875,-9.34375,-3.90625
1695827565484,0.02709961,-0.8267212,0.15814209,-5.515625,-5.3125,-6.28125
1695827565544,0.060302734,-0.8345337,0.16107178,-3.015625,-4.46875,-3.84375
1695827565559,0.09326172,-0.8418579,0.23773193,-0.0625,-6.546875,0.4375
1695827565604,0.018066406,-0.8845825,0.18353271,1.171875,-1.890625,-0.671875
1695827565633,-0.028076172,-0.927063,0.23187256,4.34375,-2.3125,-2.328125
1695827565679,-0.0036621094,-0.9614868,0.2489624,6.234375,0.875,-2.640625
1695827565725,0.037841797,-0.9260864,0.20550537,6.03125,0.8125,-0.828125
1695827565755,0.080322266,-0.9006958,0.21795654,1.5,-1.25,-0.9375
1695827565800,0.0041503906,-0.96954346,0.23895264,-0.5,-1.453125,2.171875
1695827565844,0.012939453,-0.9290161,0.21136475,8.0625,-1.375,3.234375
1695827565920,-0.022949219,-0.9421997,0.24017334,4.765625,0.625,3.671875
1695827565923,-0.028808594,-0.97979736,0.21917725,6.71875,2.046875,4.0
1695827565965,-0.0073242188,-0.9937134,0.17352295,14.703125,4.125,5.40625
1695827565994,0.11791992,-1.295227,0.15985107,17.546875,-6.296875,15.390625
1695827566039,0.052001953,-1.6079712,0.2411499,8.96875,-5.859375,13.546875
1695827566085,0.18334961,-1.4920044,0.054138184,23.9375,-5.328125,10.78125
1695827566114,0.09008789,-1.2764282,0.07220459,14.40625,0.0625,-8.453125
1695827566159,0.035888672,-0.9961548,-0.050842285,6.96875,15.71875,-16.375
1695827566205,0.09863281,-0.93756104,-0.16583252,-6.703125,14.484375,-15.875
1695827566234,0.08203125,-0.9812622,-0.023742676,-3.34375,13.0625,-15.703125
1695827566279,0.057617188,-0.8599243,0.012390137,-9.40625,14.5625,-14.734375
1695827566325,0.016601562,-0.7293091,-0.0049438477,-12.390625,17.671875,-13.125
1695827566355,-0.016113281,-0.72052,0.013122559,-6.8125,14.328125,-10.65625
1695827566399,-0.022705078,-0.7678833,0.020690918,-10.546875,11.9375,-7.875
1695827566445,-0.03881836,-0.8106079,0.0045776367,-1.140625,9.8125,-8.390625
1695827566474,0.0075683594,-0.8743286,0.04144287,5.234375,3.453125,-4.296875
1695827566519,-0.068359375,-0.9277954,0.09124756,2.265625,2.515625,-2.828125
1695827566565,-0.12475586,-0.9702759,0.07489014,2.015625,2.28125,-0.484375
1695827566594,-0.1394043,-0.95196533,0.05316162,1.71875,2.109375,1.46875
1695827566639,-0.16333008,-0.9463501,0.08831787,1.453125,4.34375,2.9375
1695827566684,-0.123535156,-0.9829712,0.093933105,1.125,2.671875,6.03125
1695827566714,-0.09667969,-0.96539307,0.04559326,-5.59375,1.078125,5.921875
1695827566759,-0.088378906,-0.9915161,0.08148193,0.0,1.828125,7.421875
1695827566803,-0.018066406,-1.0132446,0.07562256,1.03125,-4.65625,10.796875
1695827566834,-0.14160156,-1.2161255,0.07122803,-9.390625,-5.78125,10.953125
1695827566879,-0.1171875,-1.6165161,0.12615967,-4.03125,1.765625,14.25
1695827566925,0.14526367,-1.5286255,0.13665771,6.125,-6.03125,14.859375
1695827566954,0.06958008,-1.1279907,-0.0051879883,3.109375,-1.875,8.34375
1695827566999,0.0014648438,-0.9924927,0.045837402,-1.46875,-1.234375,5.546875
1695827567044,0.22753906,-1.0532837,0.09466553,-5.0,2.484375,7.4375
1695827567074,0.2939453,-0.98443604,0.041931152,-6.609375,-5.4375,6.421875
1695827567120,0.07788086,-0.83673096,0.105895996,-10.78125,-1.78125,-4.359375
1695827567165,-0.08911133,-0.8557739,0.038757324,-7.671875,2.375,-4.0
1695827567194,0.08520508,-0.8242798,0.13616943,-11.25,2.71875,-7.578125
1695827567240,0.02319336,-0.770813,0.16497803,-12.484375,10.796875,-9.984375
1695827567285,-0.036132812,-0.77960205,0.12445068,-14.5,16.828125,-7.578125
1695827567314,0.03564453,-0.85650635,0.18304443,-8.296875,15.421875,-4.53125
1695827567346,0.041015625,-0.8584595,0.18841553,-6.40625,20.59375,-2.703125
1695827567405,0.018554688,-0.85821533,0.21258545,-9.125,23.265625,-3.78125
1695827567434,-0.008544922,-0.92559814,0.2662964,-8.828125,21.109375,-3.484375
1695827567464,-0.026123047,-0.87213135,0.22381592,-1.265625,24.65625,-3.484375
1695827567525,0.059570312,-0.9312134,0.2321167,-0.34375,21.421875,0.921875
1695827567555,0.009521484,-0.958313,0.30828857,-4.9375,17.765625,-0.1875
1695827567584,-0.009277344,-0.9697876,0.28460693,-2.53125,16.859375,0.890625
1695827567645,-9.765625E-4,-0.9846802,0.33050537,-0.375,12.140625,1.640625
1695827567673,-0.114746094,-1.0310669,0.32366943,0.375,13.828125,4.5625
1695827567704,-0.17773438,-1.0889282,0.35321045,3.0,21.390625,5.765625
1695827567765,-0.23852539,-1.190979,0.3756714,5.34375,29.09375,5.234375
1695827567794,-0.27392578,-1.2661743,0.1395874,7.234375,34.765625,-1.796875
1695827567823,0.17700195,-1.529602,0.14691162,6.71875,30.515625,11.984375
1695827567884,0.25463867,-1.3635864,-0.13092041,24.640625,25.09375,5.375
1695827567914,0.22973633,-0.9932251,0.028259277,16.3125,30.390625,-9.5
1695827567947,0.06958008,-0.9714966,0.008483887,-11.46875,34.84375,-8.5
1695827568005,0.05029297,-1.0618286,-0.077697754,3.25,27.484375,-9.609375
1695827568064,0.107421875,-0.9639282,-0.049621582,7.328125,31.515625,-15.859375
1695827568066,0.088378906,-0.8452759,-0.009094238,-2.859375,32.546875,-16.125
1695827568124,0.026855469,-0.80596924,0.05340576,-8.5,30.3125,-14.609375
1695827568138,-0.08154297,-0.7937622,0.005065918,-5.984375,36.3125,-15.609375
1695827568184,-0.016845703,-0.78570557,-0.030334473,0.890625,44.171875,-15.78125
1695827568245,0.052490234,-0.82647705,-0.028137207,1.53125,45.984375,-10.28125
1695827568259,-0.015625,-0.895813,-0.008850098,3.359375,42.15625,-8.453125
1695827568304,-0.08959961,-0.9690552,0.039001465,3.578125,33.75,-4.90625
1695827568364,-0.09375,-0.98223877,0.023132324,-0.8125,32.84375,-4.640625
1695827568380,-0.17651367,-0.9126587,0.06976318,-0.921875,37.046875,-3.15625
1695827568424,-0.20507812,-0.93096924,0.058532715,2.625,34.875,-0.640625
1695827568485,-0.14233398,-0.91192627,0.06756592,-1.296875,29.625,0.515625
1695827568500,-0.11010742,-0.93096924,0.0927124,-4.96875,21.171875,3.484375
1695827568544,-0.083496094,-0.9590454,0.093444824,-9.890625,10.109375,4.9375
1695827568605,-0.19482422,-0.99591064,0.1359253,-15.421875,11.046875,3.296875
1695827568619,-0.33203125,-1.192688,0.06072998,-16.46875,9.984375,-0.28125
1695827568663,-0.24169922,-1.3762817,0.116882324,-8.203125,15.015625,4.671875
1695827568725,0.017089844,-1.0464478,-0.06085205,3.328125,37.984375,-15.96875
1695827568739,0.20092773,-0.91973877,-0.074279785,10.9375,34.390625,-8.203125
1695827568784,-0.10498047,-0.9590454,0.09954834,-13.234375,37.71875,-4.078125
1695827568860,-0.27368164,-1.1182251,0.101989746,-7.578125,57.765625,-16.390625
1695827568863,0.013916016,-1.0896606,-0.004699707,-6.09375,71.09375,-9.78125
1695827568904,0.12133789,-0.95318604,0.003112793,-5.25,67.265625,-10.078125
1695827568935,0.08251953,-0.9234009,0.11151123,-7.828125,66.5625,-3.390625
1695827568979,0.0024414062,-1.006897,0.12640381,-11.78125,72.84375,-3.828125
1695827569024,0.048583984,-1.041565,0.16448975,-5.46875,64.015625,-3.859375
1695827569056,0.071777344,-0.9697876,0.22625732,-7.359375,59.734375,-4.640625
1695827569100,0.03173828,-0.92193604,0.22845459,-2.59375,49.34375,-3.28125
1695827569145,-0.015625,-0.90997314,0.22503662,-2.375,42.078125,-2.984375
1695827569173,-0.053222656,-0.9573364,0.28338623,-3.515625,38.203125,-4.109375
1695827569219,-0.10986328,-0.958313,0.2645874,-2.265625,34.84375,-7.15625
1695827569264,-0.026855469,-0.88726807,0.3143921,4.328125,38.296875,-7.78125
1695827569294,-0.05908203,-0.9138794,0.27142334,4.625,31.21875,-4.234375
1695827569339,-0.04296875,-0.94854736,0.3114624,4.25,29.03125,-4.765625
1695827569384,-0.13183594,-0.9517212,0.3493042,6.734375,31.703125,-7.28125
1695827569414,-0.09667969,-0.9812622,0.1383667,13.671875,29.84375,-2.484375
1695827569459,0.1015625,-1.1963501,0.32513428,1.78125,33.59375,6.96875
1695827569504,-0.0078125,-1.4089966,0.2929077,-3.96875,22.671875,10.609375
1695827569534,0.11328125,-1.7390747,0.3546753,-9.015625,13.234375,14.59375
1695827569580,0.0925293,-1.2859497,0.14837646,29.4375,8.109375,-5.59375
1695827569625,-0.072265625,-0.92559814,-0.06036377,24.515625,20.953125,-8.828125
1695827569653,0.087890625,-0.88287354,-0.2107544,12.0,27.234375,-8.046875
1695827569699,0.18798828,-0.9451294,-3.0517578E-4,-5.828125,20.953125,-6.265625
1695827569744,0.041259766,-0.9776001,0.05999756,-4.90625,17.65625,-16.203125
1695827569773,-0.2006836,-0.87213135,0.03778076,-4.640625,25.171875,-17.09375
1695827569820,-0.21704102,-0.8442993,-0.035949707,0.640625,22.046875,-8.25
1695827569865,-0.0017089844,-0.815979,0.042907715,-10.921875,27.078125,-5.453125
1695827569893,-0.1237793,-0.8623657,0.0014038086,-9.78125,38.171875,-5.5625
1695827569939,-0.010253906,-0.94659424,0.002380371,9.078125,39.0625,-6.5625
1695827569984,0.072265625,-0.878479,0.008972168,0.40625,34.890625,2.484375
1695827570014,-0.021484375,-0.96881104,0.09222412,4.078125,31.03125,2.28125
1695827570059,-0.009765625,-0.9915161,0.11834717,8.953125,21.421875,5.609375
1695827570104,-0.01977539,-0.8867798,0.06854248,10.71875,13.140625,8.640625
1695827570135,-0.04345703,-0.96173096,0.07489014,6.125,7.8125,7.828125
1695827570179,-0.1027832,-0.9834595,0.094177246,5.453125,5.0625,4.765625
1695827570224,-0.18261719,-1.024231,0.07147217,3.78125,8.953125,5.34375
1695827570254,-0.10888672,-1.0681763,0.089782715,2.75,4.40625,5.09375
1695827570300,-0.061767578,-1.1116333,0.06048584,-2.734375,4.546875,2.9375
1695827570345,-0.14672852,-1.3430786,0.047546387,-8.46875,3.171875,11.140625
1695827570374,0.14038086,-1.5591431,0.14178467,-10.234375,-1.078125,10.65625
1695827570419,0.1159668,-1.347229,0.07684326,-5.953125,10.265625,3.921875
1695827570464,0.26611328,-1.138977,0.011169434,14.59375,-0.09375,6.6875
1695827570494,0.3894043,-0.9224243,0.13201904,3.578125,2.203125,0.078125
1695827570539,0.13330078,-0.9644165,0.08831787,2.09375,3.390625,1.46875
1695827570585,0.15234375,-0.89312744,0.04534912,9.171875,-3.875,5.84375
1695827570614,0.14111328,-0.8308716,0.13739014,2.015625,1.953125,0.578125
1695827570644,0.099853516,-0.8623657,0.12225342,0.640625,3.1875,-1.765625
1695827570704,0.1953125,-0.87286377,0.113708496,-3.921875,-6.265625,1.328125
1695827570733,0.14550781,-0.7966919,0.13568115,-5.5625,-3.546875,-1.6875
1695827570764,0.06713867,-0.78204346,0.08856201,-0.6875,-2.171875,0.1875
1695827570824,0.07543945,-0.8242798,0.13153076,-1.046875,-2.234375,1.0
1695827570853,0.04663086,-0.8484497,0.14422607,-2.9375,0.078125,0.03125
1695827570884,0.06933594,-0.8726196,0.13690186,-3.0625,1.21875,-0.671875
1695827570944,0.10205078,-0.9246216,0.15716553,-2.140625,1.125,-0.71875
1695827570974,0.10620117,-0.9380493,0.17840576,0.078125,-0.546875,1.15625
1695827571004,0.095703125,-0.9729614,0.21356201,-4.78125,-2.484375,-0.265625
1695827571064,-0.012207031,-1.0535278,0.2423706,-2.078125,-1.5625,0.8125
1695827571093,0.0043945312,-1.0772095,0.23529053,1.609375,0.328125,-0.5625
1695827571124,0.053710938,-1.1907349,0.22235107,-0.609375,0.359375,-1.703125
1695827571184,0.16064453,-1.406311,0.28900146,-3.359375,3.4375,0.15625
1695827571214,0.13964844,-1.3718872,0.18988037,2.984375,2.0625,-1.375
1695827571244,0.0949707,-1.0874634,0.032165527,12.75,10.28125,-7.9375
1695827571304,0.111328125,-0.9324341,-0.015686035,7.5,11.90625,-6.203125
1695827571365,0.15014648,-1.0664673,-0.081604004,-4.0625,9.296875,-3.125
1695827571368,0.08618164,-1.0281372,0.001159668,0.703125,11.796875,-10.078125
1695827571424,0.06616211,-0.9155884,-0.023010254,8.625,10.625,-8.03125
1695827571439,0.010009766,-0.8777466,-6.1035156E-5,-6.453125,15.078125,-3.609375
1695827571484,9.765625E-4,-0.97076416,0.0079956055,-4.671875,13.59375,-3.0625
1695827571547,0.07910156,-0.8911743,0.0033569336,-0.390625,13.203125,-7.75
1695827571559,0.023925781,-0.7925415,0.08026123,0.09375,12.9375,-4.96875
1695827571605,-0.06298828,-0.8345337,0.04901123,-3.796875,14.125,-1.578125
1695827571664,-0.022216797,-0.87628174,0.02947998,0.046875,11.53125,-1.34375
1695827571679,0.038330078,-0.87701416,0.058044434,1.640625,9.1875,2.421875
1695827571724,0.029785156,-0.9348755,0.10491943,1.890625,4.5625,3.875
1695827571784,-0.052978516,-0.93463135,0.08782959,3.125,0.578125,2.078125
1695827571799,-0.08886719,-0.97247314,0.1083374,4.265625,-0.078125,0.390625
1695827571845,-0.08251953,-1.0147095,0.09320068,5.359375,-2.25,0.421875
1695827571904,-0.103271484,-1.0308228,0.08538818,4.34375,-0.5,1.265625
1695827571919,-0.10180664,-1.0840454,0.09613037,6.734375,2.109375,5.703125
1695827571964,0.00390625,-1.3040161,0.07293701,0.78125,-3.390625,8.84375
1695827572024,0.0715332,-1.4680786,0.08514404,0.625,-9.53125,11.34375
1695827572039,-0.01953125,-1.4280396,0.019714355,0.71875,-2.4375,9.21875
1695827572084,0.22729492,-1.2097778,0.08026123,-8.203125,-11.484375,3.109375
1695827572144,0.18359375,-0.94610596,-0.06695557,-2.109375,1.453125,5.171875
1695827572159,0.28564453,-0.97442627,0.016052246,-10.890625,-8.640625,11.46875
1695827572204,0.21826172,-0.9116821,0.15032959,-3.96875,-15.4375,-6.875
1695827572233,-0.08129883,-0.8948364,0.15618896,-1.890625,3.9375,-7.015625
1695827572279,0.05126953,-0.8748169,-3.0517578E-4,-3.140625,0.34375,-7.140625
1695827572325,0.17407227,-0.8088989,0.07342529,-3.375,1.515625,-6.609375
1695827572354,0.10839844,-0.82769775,0.13812256,-0.640625,-1.15625,-3.203125
1695827572400,0.072509766,-0.8147583,0.105651855,-1.90625,-6.390625,-0.203125
1695827572444,0.087646484,-0.77130127,0.14202881,-0.984375,-7.59375,2.171875
1695827572474,0.060791016,-0.83184814,0.1473999,-1.875,-5.734375,1.3125
1695827572519,-0.0073242188,-0.8621216,0.14398193,-4.296875,-3.265625,1.125
1695827572564,-4.8828125E-4,-0.95635986,0.19622803,-2.5625,-1.34375,1.125
1695827572594,0.009765625,-0.93634033,0.17840576,3.5625,1.296875,2.171875
1695827572639,0.08642578,-0.9871216,0.2296753,3.421875,-0.4375,2.640625
1695827572684,0.049316406,-1.0479126,0.2543335,0.984375,-4.828125,3.6875
1695827572713,-0.06665039,-1.1314087,0.23626709,1.3125,-5.46875,-0.1875
1695827572774,0.0053710938,-1.2224731,0.20037842,9.84375,4.03125,-1.578125
1695827572804,0.0793457,-1.2366333,0.046569824,13.03125,8.203125,2.1875
1695827572834,0.26782227,-1.4837036,-0.014465332,17.546875,3.453125,2.8125
1695827572880,0.15112305,-1.1260376,-0.026428223,10.875,17.484375,-4.0625
1695827572924,0.03491211,-0.9439087,-0.16461182,8.140625,12.296875,-4.765625
1695827572954,0.025634766,-1.0567017,-0.16046143,10.546875,-0.296875,-6.71875
1695827572999,0.00390625,-0.9963989,-0.031066895,4.984375,15.140625,-7.078125
1695827573045,-0.024902344,-0.99346924,-0.07940674,-3.90625,21.6875,-3.484375
1695827573074,-0.015136719,-0.95318604,-0.03643799,-3.578125,22.265625,-6.328125
1695827573118,0.009277344,-0.79766846,-0.049621582,-0.640625,22.703125,-2.453125
1695827573164,0.072753906,-0.756897,0.038757324,-4.21875,18.296875,0.3125
1695827573195,-0.09692383,-0.74102783,0.0079956055,-2.59375,15.515625,-5.953125
1695827573239,-0.03491211,-0.78131104,-0.022277832,2.34375,14.0,0.59375
1695827573284,0.07470703,-0.8557739,0.0138549805,6.140625,7.140625,4.109375
1695827573315,0.030761719,-0.90045166,-0.024719238,2.828125,1.125,6.9375
1695827573359,-0.053710938,-0.91070557,0.005065918,0.4375,-1.125,5.6875
1695827573405,-0.1328125,-0.9619751,-0.043518066,-4.3125,2.3125,7.640625
1695827573434,-0.016601562,-1.0691528,0.046325684,-1.5625,1.546875,11.78125
1695827573480,-0.026367188,-1.112854,0.046081543,-1.625,1.8125,8.15625
1695827573525,-0.055419922,-1.2119751,0.049987793,-7.0625,3.375,10.109375
1695827573554,0.014404297,-1.5789185,-0.022033691,-21.296875,2.546875,17.96875
1695827573599,0.16088867,-1.6082153,0.07293701,-1.3125,-1.28125,16.703125
1695827573644,0.0847168,-1.1707153,-0.039367676,-0.09375,5.828125,3.765625
1695827573675,0.05810547,-0.9265747,-0.078186035,8.65625,6.171875,2.109375
1695827573719,0.22314453,-0.99468994,-0.02154541,-9.15625,13.421875,6.78125
1695827573764,0.3005371,-1.0181274,0.04168701,-2.859375,0.453125,4.46875
1695827573794,0.06591797,-0.8115845,0.03704834,-1.21875,5.796875,-8.15625
1695827573838,0.0021972656,-0.7756958,0.08050537,-7.640625,10.0,-6.859375
1695827573884,0.10522461,-0.8501587,0.08709717,-3.984375,5.890625,-7.28125
1695827573914,0.03881836,-0.7786255,0.08465576,0.703125,5.546875,-8.5625
1695827573944,0.0048828125,-0.75323486,0.054382324,-2.796875,8.78125,-11.0
1695827574005,0.1027832,-0.82354736,0.06536865,-4.375,4.140625,-4.4375
1695827574035,0.076660156,-0.8723755,0.109069824,-10.265625,14.03125,-2.796875
1695827574064,-0.005859375,-0.9290161,0.109558105,-13.59375,22.5,-3.078125
1695827574125,0.015380859,-0.9541626,0.14764404,-21.328125,24.671875,-4.0625
1695827574154,0.043701172,-0.9404907,0.13934326,-18.625,22.671875,-0.765625
1695827574184,0.07861328,-0.93096924,0.17889404,1.234375,18.875,6.46875
1695827574244,0.09033203,-0.9338989,0.27191162,1.421875,8.140625,11.15625
1695827574274,0.0043945312,-0.9932251,0.25604248,-1.40625,7.828125,10.34375
1695827574307,-0.084228516,-1.0422974,0.23553467,-1.140625,16.625,5.734375
1695827574365,-0.095458984,-1.1917114,0.22991943,0.15625,24.5,2.359375
1695827574394,-0.055908203,-1.4126587,0.2584839,-4.0,31.453125,-2.4375
1695827574424,0.19116211,-1.427063,0.21038818,-1.140625,28.046875,-0.921875
1695827574485,0.28808594,-1.5027466,0.04486084,-7.640625,18.640625,3.359375
1695827574515,0.04638672,-1.0339966,0.028259277,-4.796875,20.96875,-24.515625
1695827574544,-0.1328125,-0.8977661,-0.121154785,-13.28125,42.96875,-24.234375
1695827574605,0.06762695,-1.039856,-0.14093018,0.765625,29.609375,-16.53125
1695827574634,0.099121094,-0.9656372,-0.062072754,5.78125,36.640625,-19.421875
1695827574663,0.079833984,-0.9246216,-0.054260254,-1.140625,34.984375,-13.75
1695827574724,0.05859375,-0.7966919,0.10028076,-3.078125,38.34375,-13.0
1695827574739,-0.03955078,-0.6577759,0.050720215,2.5625,37.28125,-9.96875
1695827574784,-0.033691406,-0.7161255,-0.058654785,5.90625,40.75,-7.375
1695827574845,-0.026855469,-0.80181885,-0.02911377,3.078125,42.34375,-5.78125
1695827574860,-0.009033203,-0.9295044,0.050964355,1.734375,36.15625,-3.125
1695827574905,-0.022949219,-0.9170532,0.07122803,0.21875,27.46875,-2.28125
1695827574964,-0.13134766,-0.89849854,0.070495605,2.4375,27.359375,-2.265625
1695827574979,-0.22729492,-0.92974854,0.08099365,3.453125,27.015625,5.015625
1695827575024,-0.10498047,-0.9380493,0.081726074,-2.375,22.609375,2.484375
1695827575085,-0.16601562,-0.9680786,0.11102295,-0.875,20.21875,1.625
1695827575099,-0.21582031,-0.9463501,0.12371826,-3.078125,20.5625,1.546875
1695827575145,-0.20019531,-0.99468994,0.14691162,-7.109375,16.875,2.6875
1695827575205,-0.18530273,-1.1140747,0.21258545,-11.875,20.09375,8.296875
1695827575219,-0.23413086,-1.2351685,0.1762085,-20.046875,12.625,5.859375
1695827575264,-0.21118164,-1.3396606,0.15618896,-9.921875,21.671875,-0.015625
1695827575325,-0.1550293,-1.0671997,-0.07598877,-6.5625,27.609375,-11.8125
1695827575340,0.19067383,-1.003479,-0.085510254,5.515625,36.15625,-11.9375
1695827575385,0.28979492,-0.8491821,0.07904053,-3.59375,32.328125,5.171875
1695827575444,-0.2121582,-0.9924927,0.15863037,-20.953125,40.640625,-15.578125
1695827575459,-0.17651367,-1.2007446,0.01751709,-4.0,52.890625,-12.859375
1695827575504,0.12231445,-0.93951416,0.030700684,-3.328125,62.625,-11.78125
1695827575534,0.12011719,-0.8609009,0.07928467,-3.34375,61.859375,-11.296875
1695827575580,-0.036132812,-0.9973755,0.11663818,-12.484375,68.9375,-5.5
1695827575624,-0.061035156,-1.0855103,0.1449585,3.953125,69.484375,-8.96875
1695827575654,0.041992188,-1.0215454,0.15545654,20.109375,58.28125,-6.796875
1695827575698,0.11450195,-0.88653564,0.14569092,5.34375,53.640625,0.96875
1695827575744,0.034179688,-0.9067993,0.12762451,-2.296875,42.28125,4.859375
1695827575774,0.021728516,-0.9668579,0.17547607,5.0,35.859375,8.421875
1695827575819,0.08276367,-0.8921509,0.17547607,9.921875,25.40625,9.78125
1695827575865,-0.01928711,-0.8640747,0.19012451,5.46875,25.796875,9.109375
1695827575895,-0.16040039,-0.9241333,0.24041748,-2.90625,32.359375,7.609375
1695827575939,-0.24121094,-1.1050415,0.16571045,-2.265625,39.765625,-0.015625
1695827575985,-0.051757812,-1.3508911,0.18817139,5.5,41.34375,3.5625
1695827576014,0.25439453,-1.5933228,0.22161865,-0.984375,33.078125,9.203125
1695827576059,0.12524414,-1.4077759,0.077819824,13.265625,22.765625,9.125
1695827576105,-0.037109375,-1.0899048,-0.10821533,17.75,33.9375,0.203125
1695827576134,0.1381836,-0.911438,-0.2276001,3.640625,53.453125,0.15625
1695827576179,0.47338867,-0.96173096,-0.24957275,-0.96875,39.65625,2.171875
1695827576224,0.27685547,-0.95391846,-0.066223145,7.09375,33.890625,-2.03125
1695827576254,0.08276367,-0.95318604,-0.018615723,2.171875,27.84375,-1.875
1695827576299,0.06591797,-0.9102173,-0.113342285,0.546875,27.359375,-6.59375
1695827576344,0.057373047,-0.8335571,-0.13116455,0.859375,37.84375,-7.171875
1695827576374,0.06640625,-0.78082275,-0.12701416,-1.296875,37.0,-6.0625
1695827576420,0.041259766,-0.81988525,-0.11602783,-2.34375,40.609375,-5.796875
1695827576464,0.12988281,-0.9170532,-0.036193848,0.4375,38.09375,2.109375
1695827576495,0.16748047,-0.90338135,-0.04840088,-3.078125,24.828125,1.875
1695827576542,0.09716797,-0.878479,-0.036193848,-0.875,16.921875,0.078125
1695827576585,0.055664062,-0.9204712,-0.021057129,-2.125,6.5,1.140625
1695827576614,-0.038085938,-0.9595337,-0.0076293945,-4.84375,2.53125,5.46875
1695827576660,-0.15844727,-1.0120239,-0.028625488,0.015625,10.140625,11.953125
1695827576705,-0.031982422,-1.1240845,0.002380371,-4.546875,12.25,8.078125
1695827576734,0.01953125,-1.2310181,0.07562256,-11.484375,8.78125,1.96875
1695827576779,0.056396484,-1.2573853,0.0021362305,-11.828125,12.0625,1.96875
1695827576823,0.11035156,-1.3118286,-0.032287598,-10.171875,12.4375,3.34375
1695827576853,0.31030273,-1.1729126,-0.07354736,-10.109375,3.53125,-1.25
1695827576898,0.2902832,-0.9956665,-0.013977051,-3.09375,7.53125,-8.765625
1695827576944,0.24291992,-1.0254517,-0.011779785,-3.9375,5.75,-3.65625
1695827576974,0.33813477,-0.9702759,-0.0017700195,-3.875,-2.59375,0.828125
1695827577019,0.18847656,-0.9116821,0.07122803,-7.578125,-1.5,-2.6875
1695827577064,0.075683594,-0.9378052,0.10882568,-8.078125,1.28125,-0.75
1695827577094,0.12451172,-0.8855591,0.09637451,-5.21875,-1.796875,-4.21875
1695827577124,0.08300781,-0.80914307,0.1149292,-3.078125,-0.234375,-3.21875
1695827577184,0.05908203,-0.784729,0.13641357,-5.046875,0.875,-4.0625
1695827577213,0.08959961,-0.7695923,0.098083496,0.078125,-0.96875,0.703125
1695827577244,0.10473633,-0.82037354,0.17327881,-3.515625,-5.625,1.890625
1695827577305,0.021240234,-0.8621216,0.16448975,-1.640625,-1.75,0.265625
1695827577334,0.009277344,-0.88848877,0.18572998,3.671875,0.6875,-0.515625
1695827577364,0.06274414,-0.923645,0.14959717,11.875,-1.703125,2.3125
1695827577425,0.09790039,-1.0545044,0.23773193,6.71875,-5.75,3.09375
1695827577454,-4.8828125E-4,-1.1716919,0.21917725,-0.125,-7.125,1.078125
1695827577484,0.045898438,-1.227356,0.15960693,-2.640625,-6.875,-2.296875
1695827577544,0.07910156,-1.3452759,0.2140503,3.046875,7.3125,-8.46875
1695827577574,0.14526367,-1.6321411,0.14569092,4.328125,1.390625,-0.640625
1695827577604,0.20629883,-1.203186,-0.02130127,29.390625,2.828125,-14.03125
1695827577664,0.030517578,-0.90338135,-0.06573486,9.078125,21.640625,-19.34375
1695827577694,0.021484375,-0.850647,-0.11065674,-14.09375,9.515625,-12.921875
1695827577724,0.013671875,-0.9512329,-0.1026001,-14.0,5.546875,-9.65625
1695827577785,0.061523438,-0.9397583,-0.050109863,-0.671875,8.890625,-5.703125
1695827577814,0.0847168,-0.76348877,-0.034484863,-2.84375,17.125,-4.984375
1695827577844,-0.052734375,-0.802063,0.028503418,-2.046875,12.59375,-6.640625
1695827577904,-0.09716797,-0.8670044,0.051452637,4.28125,6.59375,-3.046875
1695827577934,-0.041503906,-0.7737427,-7.9345703E-4,3.6875,8.21875,0.21875
1695827577963,0.013671875,-0.7896118,-0.02178955,6.359375,8.15625,-0.796875
1695827578024,-0.038085938,-0.9043579,0.0045776367,7.265625,1.734375,3.03125
1695827578039,-0.0061035156,-0.9085083,0.018981934,7.015625,-2.984375,5.515625
1695827578084,-0.072265625,-0.9475708,0.04486084,1.53125,-5.4375,5.96875
1695827578144,-0.16601562,-0.95758057,0.05706787,-0.765625,-3.078125,4.015625
1695827578159,-0.16748047,-1.067688,0.062683105,-0.375,0.265625,4.375
1695827578204,-0.15454102,-1.1294556,0.074401855,-2.609375,1.921875,3.0625
1695827578264,-0.1496582,-1.1836548,0.061462402,-6.40625,2.46875,4.578125
1695827578279,-0.01586914,-1.3279419,-0.054992676,-8.1875,-6.78125,11.28125
1695827578324,0.18164062,-1.5523071,0.008483887,-3.28125,-3.78125,14.734375
1695827578384,0.20654297,-1.4190063,0.07928467,4.6875,-8.46875,10.921875
1695827578399,0.1665039,-0.9368286,-0.054992676,2.53125,-9.734375,2.21875
1695827578445,0.18310547,-0.96417236,-0.02545166,4.109375,-4.875,5.78125
1695827578504,0.2680664,-1.0232544,0.055847168,-4.15625,-6.90625,7.75
1695827578519,0.1928711,-0.8814087,0.0524292,-3.078125,-8.75,2.40625
1695827578564,0.040283203,-0.817688,0.05682373,-8.109375,-2.109375,0.296875
1695827578628,0.04638672,-0.81451416,0.041931152,-9.765625,-3.171875,0.625
1695827578639,0.09741211,-0.79351807,0.10882568,-5.96875,0.765625,-2.3125
1695827578683,0.068359375,-0.7942505,0.113708496,-9.390625,2.75,-1.546875
1695827578744,0.041503906,-0.83843994,0.11810303,-9.6875,-2.484375,-0.640625
1695827578758,0.07495117,-0.8772583,0.13690186,-4.578125,-0.859375,1.625
1695827578804,0.052490234,-0.91192627,0.17547607,-3.796875,-0.203125,2.796875
1695827578864,0.015625,-0.8887329,0.1786499,-3.84375,3.46875,0.453125
1695827578879,0.0625,-0.9092407,0.17840576,-2.15625,4.8125,-0.328125
1695827578925,0.08691406,-0.9324341,0.16351318,-1.3125,4.25,-0.578125
1695827578954,0.036132812,-0.95318604,0.21502686,1.484375,5.734375,0.796875
1695827578999,0.020507812,-1.0198364,0.23138428,-0.09375,3.0,2.0
1695827579045,0.018798828,-1.0674438,0.2633667,0.0625,5.3125,-1.140625
1695827579075,-0.027832031,-1.1997681,0.23138428,2.875,2.96875,-2.828125
1695827579119,0.12231445,-1.5286255,0.17791748,6.0,-3.3125,2.46875
1695827579165,0.25219727,-1.7539673,0.184021,7.28125,-4.75,2.9375
1695827579194,0.07495117,-1.1255493,0.022155762,42.875,13.3125,-17.453125
1695827579239,0.12084961,-0.9143677,0.013122559,8.328125,15.34375,-10.578125
1695827579285,0.068847656,-0.87750244,-0.07720947,-10.78125,13.359375,-8.59375
1695827579314,-0.0126953125,-0.9536743,-0.07086182,2.96875,17.0,-11.28125
1695827579359,0.08544922,-0.8550415,0.0018920898,2.71875,17.6875,-10.375
1695827579404,0.07348633,-0.7852173,0.020935059,-6.859375,21.171875,-3.3125
1695827579434,-0.036376953,-0.8184204,0.02923584,-10.125,13.671875,-6.921875
1695827579478,-0.017333984,-0.86431885,-0.0049438477,2.4375,9.40625,-4.71875
1695827579525,0.0087890625,-0.8218384,-0.031799316,3.140625,8.234375,-2.359375
1695827579554,-0.029541016,-0.8208618,0.01727295,7.234375,11.390625,-1.734375
1695827579599,-0.06323242,-0.86846924,0.020935059,4.609375,7.125,1.40625
1695827579645,-0.01171875,-0.87945557,-0.008117676,7.0625,4.203125,4.609375
1695827579674,-0.068115234,-0.92022705,0.0053100586,2.125,0.78125,5.171875
1695827579719,-0.076660156,-0.9751587,0.04559326,4.578125,2.09375,4.046875
1695827579764,-0.14208984,-1.0442505,0.055114746,4.4375,3.8125,5.109375
1695827579795,-0.12939453,-1.2095337,0.022155762,-5.25,0.21875,4.359375
1695827579839,-0.11694336,-1.3618774,0.11981201,-5.3125,1.53125,1.09375
1695827579884,-0.05859375,-1.2627563,-0.039367676,-4.90625,-1.15625,4.140625
1695827579914,-0.049804688,-1.4075317,-0.07476807,-7.34375,-8.171875,10.390625
1695827579959,0.34350586,-1.2861938,0.10736084,-2.5,-9.90625,7.265625
1695827580004,0.083496094,-0.95440674,-0.09429932,4.109375,10.53125,6.046875
1695827580033,0.20776367,-1.060852,-0.11138916,-6.46875,-11.46875,6.03125
1695827580079,0.17089844,-1.0337524,0.024841309,-4.703125,-4.5,1.59375
1695827580124,0.079589844,-0.8777466,0.053649902,-2.265625,1.671875,-1.09375
1695827580154,0.025390625,-0.8652954,0.02557373,-6.53125,0.328125,-2.328125
1695827580199,0.041992188,-0.8049927,0.08441162,-7.5625,4.171875,-4.0625
1695827580245,0.02758789,-0.7859497,0.094177246,-5.546875,6.28125,-2.59375
1695827580274,-0.010986328,-0.7749634,0.08392334,-4.703125,10.03125,-3.234375
1695827580365,0.032470703,-0.81500244,0.086364746,-5.53125,6.390625,-0.015625
1695827580370,0.044433594,-0.8538208,0.10394287,-11.921875,9.0625,-1.328125
1695827580394,-0.053466797,-0.9031372,0.15496826,-10.0,16.390625,-3.890625
1695827580424,-0.053710938,-0.9859009,0.121520996,-10.6875,32.265625,-7.59375
1695827580484,-0.064697266,-0.89141846,0.13494873,6.625,20.296875,-1.90625
1695827580514,0.034179688,-0.9014282,0.2164917,5.375,5.78125,4.265625
1695827580545,0.0073242188,-0.9143677,0.2584839,-1.0625,9.328125,4.921875
1695827580604,-0.046875,-1.0481567,0.25531006,-2.171875,5.71875,7.28125
1695827580634,-0.08325195,-1.1116333,0.30999756,-14.53125,7.296875,4.6875
1695827580664,-0.07739258,-1.2507935,0.23260498,-11.609375,18.125,5.921875
1695827580724,-0.22509766,-1.5567017,0.30047607,-18.28125,39.90625,-10.734375
1695827580754,0.004638672,-1.7012329,0.4069214,-12.4375,48.96875,-22.90625
1695827580783,0.037841797,-1.2935181,0.058776855,25.828125,42.5625,-26.890625
1695827580845,-0.024658203,-0.8364868,-0.12945557,30.71875,36.03125,-21.6875
1695827580874,-0.049316406,-0.69732666,-0.14117432,-2.0625,40.625,-4.53125
1695827580904,0.078125,-0.90875244,-0.12530518,-9.96875,45.546875,3.953125
1695827580965,-0.02368164,-0.8657837,-0.010559082,12.03125,40.8125,-15.1875
1695827580994,-0.016601562,-0.70440674,-0.08111572,1.890625,42.3125,-7.921875
1695827581024,-0.0036621094,-0.7305298,0.032409668,-6.84375,37.765625,1.765625
1695827581085,-0.0769043,-0.88287354,0.020446777,-10.765625,33.40625,-2.859375
1695827581114,-0.03100586,-0.892395,0.057556152,2.875,34.859375,-6.8125
1695827581143,-0.05493164,-0.8550415,0.07659912,-1.609375,28.03125,-2.03125
1695827581204,-0.12426758,-0.94732666,0.04437256,-2.4375,27.828125,-3.0
1695827581234,-0.083740234,-0.95440674,0.0758667,-1.234375,27.078125,-2.6875
1695827581264,-0.10107422,-0.98150635,0.07366943,-1.546875,24.359375,-3.515625
1695827581325,-0.16723633,-0.9871216,0.11248779,-2.59375,26.328125,-2.359375
1695827581339,-0.171875,-0.95391846,0.1473999,5.125,21.296875,1.21875
1695827581384,-0.20361328,-0.911438,0.14056396,1.609375,17.015625,1.046875
1695827581445,-0.27124023,-0.9404907,0.11395264,-4.421875,16.6875,0.328125
1695827581459,-0.1953125,-0.9483032,0.13812256,-1.5,12.296875,1.71875
1695827581504,-0.21850586,-0.97979736,0.14129639,-7.3125,10.609375,2.46875
1695827581564,-0.31030273,-1.0825806,0.21307373,-14.5625,13.140625,2.0625
1695827581579,-0.41333008,-1.1921997,0.17645264,-16.375,-0.65625,-1.765625
1695827581624,-0.1928711,-1.3787231,0.03363037,2.265625,-0.921875,-0.21875
1695827581685,0.15136719,-1.005188,-0.020568848,8.265625,19.96875,-1.671875
1695827581700,0.29125977,-0.97613525,-0.031799316,9.203125,19.15625,-13.4375
1695827581744,0.10058594,-0.91363525,0.027038574,3.65625,11.6875,4.859375
1695827581804,-0.2775879,-0.9866333,0.18328857,-13.921875,32.53125,-11.171875
1695827581819,-0.12792969,-1.1311646,0.07879639,3.640625,45.171875,-10.46875
1695827581864,-0.046142578,-0.97320557,0.042907715,2.3125,53.015625,-12.375
1695827581925,-0.0146484375,-0.9194946,0.03656006,3.6875,54.5625,-8.875
1695827581939,-0.07495117,-0.9968872,0.10784912,-2.9375,65.515625,-4.71875
1695827581984,-0.022949219,-1.0291138,0.046569824,-0.59375,71.734375,-4.90625
1695827582045,0.07324219,-1.0059204,0.04534912,-3.96875,66.1875,-5.046875
1695827582059,0.09716797,-1.031311,0.1437378,-8.453125,61.984375,-2.234375
1695827582104,0.028076172,-1.0044556,0.18719482,-9.40625,57.578125,0.703125
1695827582135,-0.037841797,-0.9360962,0.26312256,-8.046875,52.859375,-0.265625
1695827582179,-0.13085938,-0.90045166,0.24700928,-14.3125,50.703125,-3.4375
1695827582224,-0.107666016,-0.91778564,0.2411499,-9.625,50.109375,-3.640625
1695827582253,-0.011962891,-0.9475708,0.24700928,-5.625,46.9375,-2.296875
1695827582300,0.045166016,-0.88165283,0.2819214,-3.375,41.640625,-2.53125
1695827582345,-0.060302734,-0.91778564,0.32196045,0.921875,34.859375,1.140625
1695827582373,-0.12988281,-0.9734497,0.3649292,3.4375,35.765625,-2.1875
1695827582419,-0.1003418,-1.1235962,0.29437256,2.375,34.421875,-5.9375
1695827582464,0.0847168,-1.4380493,0.44940186,-1.5625,27.84375,2.234375
1695827582493,-0.03540039,-1.5134888,0.30047607,14.90625,14.984375,-3.40625
1695827582539,-0.095458984,-1.2234497,0.20184326,20.4375,24.3125,-13.84375
1695827582584,-0.06298828,-0.9927368,0.014587402,19.890625,26.390625,-13.71875
1695827582614,0.23779297,-0.8904419,-0.15655518,5.59375,27.140625,-3.984375
1695827582659,0.27685547,-0.9883423,0.011657715,-6.671875,28.9375,-4.609375
1695827582704,0.04736328,-1.0767212,0.03704834,2.734375,16.953125,-14.5
1695827582734,-0.0078125,-0.9956665,0.14691162,1.796875,22.53125,-17.0625
1695827582779,-0.07763672,-0.91290283,0.039978027,7.375,19.03125,-10.140625
1695827582857,-0.008056641,-0.83599854,-0.02520752,9.4375,21.03125,-6.359375
1695827582865,0.011230469,-0.8479614,0.06121826,5.703125,21.625,-9.671875
1695827582899,-0.05053711,-0.92193604,0.07122803,3.75,25.125,-3.09375
1695827582944,-0.011962891,-0.97003174,0.029968262,9.625,16.671875,5.265625
1695827582973,0.029052734,-0.8945923,0.0770874,11.84375,12.25,4.34375
1695827583019,-0.032470703,-0.9204712,0.09954834,7.578125,7.21875,6.953125
1695827583064,-0.06274414,-0.9194946,0.11004639,11.921875,-0.09375,7.84375
1695827583093,-0.014892578,-0.86505127,0.028259277,10.640625,-0.515625,10.453125
1695827583139,-0.0021972656,-0.8682251,0.02923584,12.046875,-2.046875,11.34375
1695827583184,-0.13745117,-0.9475708,0.06488037,4.296875,0.515625,8.34375
1695827583214,-0.09033203,-1.055481,0.14031982,6.296875,0.625,7.1875
1695827583259,-0.09277344,-1.1433716,0.14813232,3.046875,4.828125,6.28125
1695827583304,-0.08129883,-1.2888794,0.121520996,-1.421875,8.640625,7.015625
1695827583334,-0.044433594,-1.491272,-0.046203613,-12.171875,7.234375,19.109375
1695827583379,0.18359375,-1.6226196,0.06951904,11.3125,1.859375,10.03125
1695827583424,0.13891602,-0.94903564,-0.15484619,7.734375,15.875,6.015625
1695827583454,0.038085938,-0.9631958,-0.15289307,-1.3125,20.0625,2.375
1695827583500,0.12573242,-1.0598755,-0.13580322,-4.71875,15.28125,-3.625
1695827583545,0.15429688,-0.93927,-0.08843994,2.953125,18.015625,-3.828125
1695827583574,0.15332031,-0.829895,-0.019348145,-6.375,16.953125,-7.453125
1695827583619,0.08911133,-0.83966064,0.01727295,-5.140625,15.0,-4.859375
1695827583664,0.05908203,-0.7647095,-0.002746582,-7.421875,13.25,-3.25
1695827583694,0.052734375,-0.76568604,0.022644043,-6.34375,16.421875,-2.625
1695827583724,0.056884766,-0.86138916,0.011413574,-9.265625,13.46875,-0.015625
1695827583784,0.044433594,-0.8833618,0.05682373,-6.078125,12.125,2.71875
1695827583814,0.045898438,-0.89630127,0.05682373,-5.375,11.65625,3.328125
1695827583844,0.045166016,-0.92755127,0.057556152,-5.0625,11.234375,2.59375
1695827583904,0.03540039,-0.9517212,0.09320068,-5.140625,10.109375,1.3125
1695827583934,-0.0017089844,-0.925354,0.06561279,-1.6875,11.625,1.03125
1695827583964,0.05493164,-0.92315674,0.10662842,0.328125,7.1875,1.28125
1695827584024,-0.00390625,-0.8845825,0.11981201,2.484375,8.34375,2.59375
1695827584054,-0.009277344,-0.9212036,0.1251831,1.953125,5.625,4.0625
1695827584085,-0.041748047,-1.0652466,0.16082764,-5.4375,5.234375,3.171875
1695827584144,-0.07080078,-1.2612915,0.15179443,-13.375,8.4375,0.578125
1695827584174,0.10229492,-1.5820923,0.3060913,-15.671875,8.15625,0.546875
1695827584204,0.095214844,-1.4910278,0.21453857,-0.875,13.28125,-3.96875
1695827584265,0.15942383,-1.4570923,-0.028625488,-5.09375,14.859375,-3.5625
1695827584294,0.15722656,-1.163147,0.082214355,7.5625,16.609375,-11.890625
1695827584324,0.10888672,-0.8833618,-0.0869751,-0.34375,19.5,-16.828125
1695827584384,0.06298828,-0.8377075,-0.16827393,7.359375,13.34375,-6.859375
1695827584415,-0.009521484,-0.87579346,0.02532959,0.84375,22.296875,-2.890625
1695827584444,0.11376953,-0.82037354,0.014343262,1.546875,17.796875,-4.15625
1695827584506,0.040771484,-0.70928955,0.024353027,-6.484375,17.765625,-0.78125
1695827584518,-0.052978516,-0.7398071,0.017028809,-0.34375,13.34375,-1.546875
1695827584564,-0.032958984,-0.8242798,0.03656006,-2.0625,11.796875,-1.4375
1695827584624,-0.030273438,-0.88604736,0.038757324,0.515625,9.390625,-0.53125
1695827584639,0.0073242188,-0.91192627,0.07977295,4.0,9.125,3.015625
1695827584684,-0.0053710938,-0.9277954,0.05316162,1.21875,6.0,4.546875
1695827584744,-0.009521484,-0.92974854,0.08392334,4.1875,1.9375,7.078125
1695827584759,-0.021972656,-0.9512329,0.11590576,3.25,0.296875,6.921875
1695827584805,-0.099121094,-0.95977783,0.066833496,2.765625,0.953125,6.234375
1695827584864,-0.06591797,-1.013977,0.109802246,5.15625,-1.140625,4.171875
1695827584879,-0.18945312,-1.0720825,0.10491943,-0.875,4.4375,3.40625
1695827584925,-0.16113281,-1.1716919,0.10223389,3.453125,8.40625,9.515625
1695827584984,-0.008056641,-1.3682251,0.040222168,-3.28125,5.46875,12.734375
1695827584999,0.04638672,-1.4580688,0.02923584,11.609375,14.90625,13.625
1695827585044,0.17944336,-1.4793091,-0.0491333,6.078125,9.546875,9.78125
1695827585104,0.40454102,-1.1487427,-0.10821533,10.625,-3.765625,6.515625
1695827585118,0.2590332,-0.9570923,0.018737793,5.328125,-8.21875,-5.890625
1695827585164,0.16186523,-0.98883057,-0.046691895,-10.390625,-5.9375,-4.46875
1695827585225,0.23925781,-0.9673462,0.050964355,-3.125,-10.34375,-1.625
1695827585239,0.125,-0.7752075,0.019226074,0.9375,-2.203125,-7.671875
1695827585285,0.14868164,-0.72442627,0.007751465,0.40625,-2.4375,-4.328125
1695827585345,0.17626953,-0.737854,0.054382324,-4.390625,-7.609375,-2.34375
1695827585359,0.1459961,-0.7852173,0.038513184,-2.515625,-6.890625,0.34375
1695827585404,0.14013672,-0.8115845,0.04168701,-2.046875,-5.359375,2.6875
1695827585434,0.14648438,-0.8179321,0.04046631,2.078125,-4.46875,4.890625
1695827585480,0.13354492,-0.88116455,0.008483887,-1.84375,-8.609375,5.921875
1695827585525,0.09277344,-0.85406494,0.07220459,-1.25,-3.546875,4.96875
1695827585554,0.1015625,-0.9224243,0.12762451,1.921875,-0.890625,7.375
1695827585599,0.10961914,-0.95440674,0.117614746,-0.78125,-3.0,6.03125
1695827585644,0.12451172,-1.0369263,0.14886475,0.765625,-5.21875,6.125
1695827585674,0.083496094,-1.1780396,0.16815186,1.953125,-9.296875,1.65625
1695827585719,0.019042969,-1.2546997,0.1564331,5.03125,-6.015625,-7.421875
1695827585765,0.1628418,-1.4348755,0.07733154,7.34375,-3.125,-4.359375
1695827585793,0.4165039,-1.6460571,0.016784668,3.34375,-13.890625,-1.015625
1695827585839,-0.013183594,-1.112854,-0.08258057,6.390625,6.46875,-21.5625
1695827585884,0.07080078,-0.923645,-0.10821533,-1.046875,15.5625,-12.875
1695827585913,0.2043457,-0.87579346,-0.14556885,-0.25,2.125,-8.765625
1695827585959,0.13671875,-0.9805298,-0.034240723,-0.328125,5.90625,-9.609375
1695827586005,0.08886719,-0.85040283,0.034851074,-1.84375,9.375,-10.21875
1695827586034,-0.064941406,-0.7546997,0.008239746,-5.453125,10.875,-13.703125
1695827586080,-0.07714844,-0.77667236,-0.010070801,-3.90625,13.609375,-11.546875
1695827586125,0.048828125,-0.74298096,-0.0032348633,5.546875,11.4375,-5.90625
1695827586154,0.03881836,-0.7893677,0.022644043,1.171875,6.03125,-3.703125
1695827586199,-0.048095703,-0.85723877,-0.059143066,4.171875,1.46875,-0.28125
1695827586244,0.005859375,-0.9456177,-0.059143066,4.328125,-1.5625,3.8125
1695827586274,0.0029296875,-0.9429321,-0.0029907227,5.0625,-1.578125,4.375
1695827586320,-0.05908203,-0.93707275,0.048034668,4.328125,1.15625,2.625
1695827586365,-0.1262207,-0.91973877,0.03289795,5.125,4.3125,4.1875
1695827586394,-0.083740234,-0.9690552,-0.0029907227,3.9375,3.296875,6.375
1695827586439,-0.063964844,-1.0488892,0.038757324,3.0,1.15625,7.21875
1695827586485,-0.04321289,-1.0913696,0.062683105,2.25,-1.703125,7.5
1695827586514,-0.015625,-1.1826782,0.08441162,0.71875,-4.078125,7.453125
1695827586559,0.052246094,-1.3770142,-0.0051879883,-7.859375,-11.578125,9.296875
1695827586605,0.011230469,-1.2776489,-0.05987549,-1.203125,-4.75,21.296875
1695827586634,0.11791992,-1.4636841,-0.04840088,5.234375,0.96875,26.796875
1695827586679,0.22290039,-1.0401001,-0.03277588,-1.953125,-2.1875,20.4375
1695827586724,0.07495117,-0.8809204,-0.09088135,0.875,7.21875,1.5625
1695827586753,0.41333008,-1.1841431,0.0033569336,-7.625,-0.59375,12.0
1695827586799,0.34521484,-0.9133911,-0.030578613,-2.1875,-7.40625,3.671875
1695827586845,0.095947266,-0.819397,-0.07891846,-5.0,1.421875,-3.703125
1695827586875,0.19238281,-0.9351196,-0.02520752,-9.96875,-2.578125,-0.578125
1695827586919,0.2644043,-0.85894775,0.09613037,-7.578125,-0.953125,-2.515625
1695827586964,0.087646484,-0.7461548,0.048034668,-11.4375,1.546875,-5.03125
1695827586994,0.103515625,-0.7859497,0.038757324,-9.625,0.5,-5.90625
1695827587024,0.19384766,-0.84869385,0.07635498,-7.09375,-3.640625,-1.578125
1695827587085,0.1665039,-0.87335205,0.11859131,-10.90625,-3.953125,-0.171875
1695827587114,0.115234375,-0.86920166,0.12835693,-5.78125,-0.28125,-3.5
1695827587144,0.0690918,-0.85821533,0.12445068,-4.90625,3.390625,-4.078125
1695827587204,0.10546875,-0.8731079,0.13348389,-3.625,5.75,-1.390625
1695827587234,0.09375,-0.91534424,0.16448975,-3.234375,7.328125,0.609375
1695827587264,0.09277344,-0.94366455,0.2243042,-5.375,6.28125,-0.109375
1695827587325,0.041259766,-1.0269165,0.25408936,-9.828125,5.0,3.328125
1695827587354,0.0107421875,-1.0825806,0.27215576,-3.921875,7.203125,-0.03125
1695827587384,-0.029541016,-1.2774048,0.35858154,-4.28125,15.75,-2.34375
1695827587444,0.13647461,-1.3660278,0.25897217,-0.71875,18.8125,0.03125
1695827587474,0.32910156,-1.5066528,0.22357178,-3.625,15.953125,2.5625
1695827587504,0.12817383,-1.3301392,0.06976318,13.890625,18.40625,-8.8125
1695827587565,0.022705078,-1.0588989,-0.038146973,15.328125,26.5625,-15.59375
1695827587594,0.10131836,-0.9092407,-0.2107544,-5.796875,23.4375,-11.703125
1695827587624,0.08325195,-0.8982544,-0.081604004,-7.953125,24.265625,-12.890625
1695827587684,-0.009277344,-0.83551025,-0.043762207,2.484375,26.265625,-17.703125
1695827587744,-0.044677734,-0.78326416,-0.024475098,1.109375,31.5625,-18.953125
1695827587747,-0.04345703,-0.75909424,-0.02178955,-4.90625,35.53125,-18.734375
1695827587804,0.0026855469,-0.7793579,0.009460449,-9.140625,35.828125,-15.515625
1695827587819,-0.10498047,-0.8381958,0.059265137,-10.875,39.359375,-15.546875
1695827587864,-0.11425781,-0.8899536,0.018249512,-1.65625,43.75,-11.390625
1695827587925,-0.029052734,-0.8948364,0.043640137,-0.890625,36.640625,-6.65625
1695827587940,-0.060302734,-0.93048096,0.06365967,-1.1875,34.15625,-5.671875
1695827587984,-0.13354492,-0.96417236,0.061706543,3.3125,35.71875,-6.6875
1695827588044,-0.1652832,-0.9668579,0.06048584,2.453125,32.25,-3.9375
1695827588060,-0.14208984,-0.95025635,0.07171631,3.046875,26.578125,-0.859375
1695827588103,-0.15063477,-0.91070557,0.08831787,1.140625,20.6875,0.078125
1695827588164,-0.21264648,-0.9758911,0.13885498,-1.71875,19.984375,1.6875
1695827588179,-0.2548828,-0.98883057,0.10882568,-3.203125,17.234375,3.84375
1695827588224,-0.3005371,-0.98760986,0.097595215,-5.703125,14.046875,4.59375
1695827588287,-0.3190918,-1.0354614,0.12884521,-2.703125,16.0625,6.375
1695827588302,-0.25585938,-1.0791626,0.08294678,-5.28125,17.578125,7.375
1695827588343,-0.31640625,-1.3262329,-0.0491333,-6.140625,13.78125,6.6875
1695827588405,-0.0036621094,-1.1467896,-0.014953613,15.859375,34.328125,-0.15625
1695827588419,0.3334961,-1.076477,-0.12286377,7.09375,35.109375,2.65625
1695827588464,0.21826172,-0.94073486,-0.04034424,-2.34375,35.21875,9.171875
1695827588524,-0.26293945,-0.9151001,0.12567139,-6.828125,54.296875,-13.234375
1695827588539,-0.115478516,-0.97369385,-0.08306885,-3.75,61.21875,-11.734375
1695827588584,0.0871582,-1.0713501,-0.08892822,-2.25,72.390625,-13.515625
1695827588614,0.12792969,-0.95684814,0.010192871,-5.234375,66.640625,-15.890625
1695827588659,0.08862305,-0.9939575,-0.017150879,-5.34375,70.640625,-11.65625
1695827588705,0.016601562,-1.0518188,0.036315918,-8.125,65.84375,-12.5625
1695827588735,-0.011962891,-1.0606079,0.0848999,-6.578125,67.9375,-11.203125
1695827588780,0.018798828,-1.0454712,0.11956787,-9.546875,61.5,-8.015625
1695827588826,-0.008544922,-0.98321533,0.14544678,-10.640625,57.109375,-5.65625
1695827588853,-0.029296875,-0.9915161,0.20526123,-10.359375,50.96875,-3.125
1695827588899,-0.0146484375,-0.9915161,0.22235107,-13.171875,39.734375,-2.734375
1695827588944,-0.05883789,-0.9109497,0.27435303,-11.671875,39.84375,-3.390625
1695827588973,-0.12109375,-0.8870239,0.26019287,-8.6875,40.984375,-4.375
1695827589019,-0.08569336,-0.8858032,0.25506592,-8.15625,44.015625,-4.828125
1695827589064,-0.140625,-0.8711548,0.3053589,1.875,38.4375,-2.46875
1695827589094,-0.17553711,-0.91241455,0.32928467,0.625,34.546875,-2.578125
1695827589139,-0.14526367,-0.864563,0.27264404,-0.203125,38.265625,-6.453125
1695827589184,-0.08300781,-0.8677368,0.23968506,11.0625,39.84375,-3.8125
1695827589214,0.16455078,-1.0733032,0.2694702,20.046875,13.53125,9.390625
1695827589259,0.17236328,-1.2713013,0.42059326,-1.984375,-1.6875,19.140625
1695827589305,-0.3071289,-1.2463989,0.40350342,3.40625,9.0625,13.1875
1695827589333,-0.42944336,-1.4614868,0.32318115,4.828125,39.75,-6.734375
1695827589379,0.1550293,-1.437561,0.26605225,27.890625,34.75,-3.59375
1695827589424,0.15136719,-1.1172485,0.1642456,35.734375,15.890625,-6.453125
1695827589454,0.057373047,-0.8093872,-0.12310791,14.59375,-8.84375,-8.125
1695827589499,0.07128906,-1.0449829,-0.0947876,-26.328125,10.15625,-8.71875
1695827589544,-0.0014648438,-1.1409302,-0.12921143,-4.390625,4.125,-13.375
1695827589575,-0.026123047,-1.0982056,-0.10089111,2.640625,25.28125,-25.84375
1695827589620,-0.044921875,-0.98394775,-0.02911377,0.140625,35.09375,-18.171875
1695827589663,-0.068115234,-0.9944458,-0.06793213,7.109375,30.046875,-10.5
1695827589693,0.04736328,-0.8362427,-0.050354004,18.921875,39.5625,-5.4375
1695827589740,0.0690918,-0.831604,-0.061828613,12.546875,31.40625,1.640625
1695827589784,0.08203125,-0.8574829,0.004333496,3.984375,25.53125,8.5625
1695827589814,-0.014404297,-0.87286377,0.07318115,10.9375,16.265625,8.890625
1695827589859,-0.030273438,-0.8587036,0.012390137,6.46875,8.46875,10.125
1695827589904,-0.037597656,-0.8274536,-0.006652832,6.890625,5.625,10.015625
1695827589934,-0.04638672,-0.86016846,0.039489746,8.390625,10.46875,5.875
1695827589979,-0.06713867,-0.92926025,0.043151855,5.0625,8.203125,7.484375
1695827590024,-0.05078125,-0.93414307,0.018737793,2.8125,2.28125,5.734375
1695827590055,-0.09765625,-1.0274048,0.029724121,2.78125,0.890625,2.296875
1695827590099,-0.106933594,-1.0501099,0.062194824,1.96875,4.9375,4.765625
1695827590145,-0.029785156,-1.1091919,0.08880615,-0.140625,3.0,7.515625
1695827590174,0.0041503906,-1.2217407,0.023620605,-3.6875,-2.078125,13.40625
1695827590219,0.018066406,-1.5584106,-0.0056762695,-15.703125,-4.34375,17.25
1695827590265,-0.03100586,-1.612854,0.13739014,18.203125,13.5,9.375
1695827590294,0.015625,-1.1358032,-0.15704346,25.09375,23.640625,11.96875
1695827590325,0.2397461,-0.93707275,-0.19927979,15.0,13.140625,7.390625
1695827590384,0.29663086,-0.92803955,-0.023498535,0.15625,12.71875,1.484375
1695827590414,0.17285156,-0.98883057,-0.1506958,-6.828125,0.8125,0.453125
1695827590444,0.1381836,-0.7493286,-0.042297363,-1.390625,0.609375,-4.0
1695827590504,0.07324219,-0.7588501,9.1552734E-4,-12.140625,3.78125,-6.234375
1695827590534,0.110839844,-0.7954712,-0.005432129,-13.421875,0.875,-4.859375
1695827590564,0.13867188,-0.76934814,0.034851074,-10.40625,1.09375,-3.984375
1695827590624,0.10058594,-0.80059814,0.02166748,-12.609375,1.578125,-1.796875
1695827590654,0.075927734,-0.89727783,0.07879639,-14.890625,2.734375,-0.015625
1695827590684,0.08862305,-0.954895,0.101989746,-14.125,2.25,0.71875
1695827590745,0.037109375,-0.9439087,0.11248779,-12.921875,5.640625,-0.5625
1695827590774,0.010498047,-0.93707275,0.09295654,-10.15625,8.375,-1.90625
1695827590804,0.07299805,-0.97540283,0.15008545,-6.53125,7.328125,0.609375
1695827590864,0.06738281,-0.92266846,0.1852417,-3.828125,5.40625,-0.75
1695827590894,0.03491211,-0.9487915,0.16912842,-6.25,3.28125,-0.34375
1695827590925,0.016357422,-0.93048096,0.22869873,-4.109375,1.5,-1.5625
1695827590984,-0.061767578,-1.0100708,0.27508545,-7.5625,6.234375,-2.40625
1695827591044,-0.09399414,-1.1487427,0.24456787,-4.453125,8.5625,-3.765625
1695827591047,0.045898438,-1.3604126,0.23797607,-14.203125,11.828125,-2.484375
1695827591105,0.20141602,-1.4468384,0.27459717,-4.890625,9.421875,-0.71875
1695827591119,0.02709961,-1.5745239,0.11590576,-6.4375,14.171875,-2.546875
1695827591164,0.13256836,-1.2085571,0.13079834,22.3125,19.578125,-13.8125
1695827591224,0.095947266,-0.878479,-0.05718994,6.71875,24.953125,-12.84375
1695827591239,0.03930664,-0.8255005,-0.1182251,-2.59375,19.59375,-5.609375
1695827591284,0.06616211,-0.9414673,0.053649902,-1.21875,12.15625,-7.21875
1695827591344,0.030273438,-0.9143677,0.11126709,0.046875,7.6875,-11.9375
1695827591359,-0.0625,-0.7305298,0.06561279,7.375,5.75,-7.296875
1695827591405,-0.09277344,-0.72979736,0.011657715,0.0625,13.625,-1.625
1695827591464,-0.036376953,-0.8225708,0.041931152,4.25,18.6875,-2.40625
1695827591479,-0.03857422,-0.8452759,0.081970215,4.5625,17.890625,-5.5625
1695827591524,-0.03466797,-0.8760376,0.07659912,5.4375,12.5,-2.609375
1695827591584,-4.8828125E-4,-0.9221802,0.049743652,7.203125,3.53125,2.828125
1695827591599,-0.029296875,-0.94073486,0.077819824,5.203125,1.5,4.90625
1695827591645,-0.021728516,-0.9573364,0.07611084,3.34375,-0.828125,3.109375
1695827591703,-0.031982422,-0.9649048,0.061706543,0.0625,-5.109375,0.875
1695827591719,-0.13598633,-0.99420166,0.0680542,4.546875,-4.90625,3.421875
1695827591764,-0.23266602,-1.022522,0.13372803,5.5,-1.296875,8.671875
1695827591839,-0.25439453,-1.144104,0.06317139,1.296875,-1.90625,11.5625
1695827591842,-0.15478516,-1.3860474,-0.055725098,-8.671875,-1.40625,14.46875
1695827591884,0.016357422,-1.3418579,0.032409668,8.703125,11.515625,17.09375
1695827591914,0.107177734,-1.2266235,0.08319092,13.1875,24.140625,19.015625
1695827591959,0.2956543,-1.1907349,-0.09527588,14.53125,15.828125,13.5625
1695827592004,0.4128418,-1.0186157,-0.09259033,9.859375,3.0625,5.546875
1695827592034,0.29760742,-1.05719,0.031433105,-1.8125,3.484375,2.515625
1695827592079,0.31884766,-0.9937134,0.08660889,0.390625,-5.140625,7.0
1695827592124,0.15405273,-0.8435669,0.074401855,-8.078125,-1.359375,-0.78125
1695827592155,0.123046875,-0.8027954,0.05609131,-7.171875,-4.171875,-5.625
1695827592199,0.11328125,-0.8128052,0.06561279,-9.609375,-10.25,-7.953125
1695827592245,0.16918945,-0.835022,0.074645996,-9.578125,-12.1875,-8.8125
1695827592275,0.13867188,-0.8208618,0.08856201,-12.546875,-9.75,-9.921875
1695827592320,0.10131836,-0.8909302,0.09906006,-12.46875,-11.21875,-5.953125
1695827592365,0.11987305,-0.92974854,0.12054443,-6.84375,-10.9375,-2.703125
1695827592394,0.09277344,-0.89141846,0.11883545,-4.65625,-9.296875,-3.890625
1695827592440,0.025390625,-0.897522,0.14300537,-7.453125,-3.328125,-4.828125
1695827592485,0.047851562,-0.91778564,0.14227295,-1.734375,-5.953125,-0.15625
1695827592514,0.096191406,-0.8674927,0.13763428,-0.296875,-6.84375,1.125
1695827592559,0.10424805,-0.880188,0.16448975,-8.140625,-9.5625,1.71875
1695827592604,0.014404297,-0.94244385,0.24603271,-15.921875,-11.0625,2.234375
1695827592634,-0.11816406,-1.0718384,0.30145264,-3.578125,-3.921875,0.75
1695827592679,-0.12915039,-1.1345825,0.28826904,4.0625,1.96875,-0.03125
1695827592725,0.063964844,-1.2214966,0.23138428,8.046875,0.140625,-0.984375
1695827592753,0.20458984,-1.4963989,0.36761475,-10.46875,-5.078125,5.5625
1695827592799,0.0061035156,-1.3442993,0.25164795,11.71875,-4.125,-0.328125
1695827592845,0.055664062,-1.3154907,0.1305542,2.40625,-2.421875,0.234375
1695827592873,0.07836914,-1.1043091,0.13665771,8.359375,6.953125,-9.875
1695827592919,0.04663086,-0.9180298,0.0016479492,6.5,17.71875,-12.28125
1695827592994,0.017333984,-0.84869385,-0.08258057,-3.796875,17.765625,-8.0
1695827592996,-0.013183594,-0.87677,0.08050537,-3.953125,20.734375,-10.125
1695827593039,-0.014160156,-0.87677,0.02508545,-3.890625,24.9375,-10.671875
1695827593085,-0.04711914,-0.8406372,0.061950684,-6.921875,24.546875,-6.703125
1695827593114,-0.021972656,-0.80352783,0.07977295,-2.890625,23.859375,-9.296875
1695827593175,0.011962891,-0.8701782,0.1227417,-7.578125,23.1875,-4.390625
1695827593204,-0.01586914,-0.8609009,0.10418701,2.796875,14.625,-6.109375
1695827593234,-0.03930664,-0.8225708,0.082214355,4.546875,15.71875,-3.9375
1695827593279,-0.071777344,-0.892395,0.10662842,4.1875,10.9375,3.46875
1695827593324,-0.05834961,-0.98272705,0.12689209,8.125,8.15625,6.484375
1695827593353,-0.049072266,-0.9678345,0.081970215,10.515625,-1.859375,7.328125
1695827593399,-0.12158203,-0.98272705,0.097351074,4.3125,-0.6875,8.328125
1695827593446,-0.10229492,-0.9846802,0.11859131,7.109375,-1.78125,8.078125
1695827593473,-0.10961914,-1.045227,0.10394287,3.46875,0.84375,8.0625
1695827593520,-0.12158203,-1.2078247,0.13494873,-2.3125,-1.953125,8.21875
1695827593565,-0.14086914,-1.4136353,0.09320068,-1.59375,-6.53125,9.5625
1695827593595,0.10180664,-1.3240356,-0.028381348,10.125,-2.34375,14.078125
1695827593624,0.39526367,-1.55719,0.20574951,-14.609375,-12.671875,10.765625
1695827593685,0.2841797,-1.0457153,0.044128418,27.53125,-11.40625,1.328125
1695827593714,0.1821289,-0.92193604,-0.047668457,7.28125,-4.859375,16.796875
1695827593745,0.4169922,-0.9697876,0.09539795,-5.328125,-13.578125,5.546875
1695827593805,0.17260742,-0.8530884,0.1539917,-8.671875,-9.8125,-1.96875
1695827593834,-0.013671875,-0.7918091,0.13812256,-4.75,-4.84375,-1.765625
1695827593864,0.13989258,-0.79888916,0.07366943,5.9375,-14.65625,-2.15625
1695827593924,0.14550781,-0.7424927,0.097839355,-1.59375,-10.234375,-4.640625
1695827593954,0.1015625,-0.7554321,0.12347412,-4.734375,-5.015625,-1.015625
1695827593985,0.1027832,-0.84210205,0.13641357,-3.1875,-7.859375,-0.59375
1695827594045,0.07324219,-0.8897095,0.12786865,-1.984375,-10.078125,-1.859375
1695827594075,0.057617188,-0.91851807,0.11907959,-0.65625,-9.9375,0.46875
1695827594104,0.08935547,-0.9299927,0.097595215,-2.734375,-10.421875,1.109375
1695827594165,0.06640625,-0.927063,0.18084717,0.953125,2.078125,0.578125
1695827594195,0.075927734,-0.8909302,0.17889404,-0.5625,1.21875,1.828125
1695827594223,0.014892578,-0.8640747,0.16693115,0.3125,2.515625,2.765625
1695827594284,0.0126953125,-0.90167236,0.16619873,4.0625,6.734375,4.953125
1695827594344,0.09472656,-0.9248657,0.24456787,0.234375,8.4375,3.828125
1695827594347,0.037109375,-0.90948486,0.2736206,2.671875,8.109375,1.65625
1695827594404,-0.01928711,-1.0591431,0.24554443,-5.0,2.890625,5.03125
1695827594419,-0.095947266,-1.3555298,0.24285889,-1.453125,1.71875,3.046875
1695827594465,0.06640625,-1.6765747,0.33538818,-16.515625,14.96875,5.9375
1695827594525,0.17114258,-1.5862427,0.08026123,2.109375,20.21875,6.828125
1695827594539,0.2241211,-1.3638306,0.07635498,3.03125,16.1875,-4.53125
1695827594584,0.095947266,-0.97906494,0.039001465,12.015625,27.5,-13.171875
1695827594645,0.047851562,-0.86553955,-0.21417236,7.125,21.3125,-7.984375
1695827594659,0.0793457,-0.9505005,-0.14727783,-0.671875,33.25,-18.484375
1695827594703,-0.06665039,-0.9006958,-0.10064697,-1.140625,45.15625,-22.09375
1695827594764,-0.107421875,-0.847229,-0.093811035,-0.78125,49.078125,-18.03125
1695827594780,-0.030029297,-0.7439575,-0.02520752,-1.6875,53.234375,-14.296875
1695827594824,-0.053955078,-0.8088989,-0.051818848,-0.5625,55.40625,-8.328125
1695827594902,0.048339844,-0.8274536,-0.054992676,-1.390625,57.28125,-6.21875
1695827594904,0.079589844,-0.7642212,-0.0056762695,0.765625,50.921875,-4.328125
1695827594945,-0.024658203,-0.81036377,0.0018920898,-6.40625,48.390625,-3.015625
1695827595004,-0.18530273,-0.9463501,-0.05255127,-5.96875,46.234375,-5.84375
1695827595019,-0.099365234,-1.0029907,-0.0044555664,-8.5625,40.3125,-1.921875
1695827595064,-0.080566406,-1.0037231,0.024841309,-4.171875,31.84375,0.328125
1695827595124,-0.18359375,-0.9373169,0.061950684,-2.359375,30.203125,2.359375
1695827595139,-0.2097168,-0.8858032,0.078063965,-3.09375,29.296875,2.265625
1695827595184,-0.25219727,-0.93927,0.14886475,-11.53125,29.90625,3.21875
1695827595214,-0.24584961,-1.0286255,0.17010498,-14.34375,26.171875,5.125
1695827595259,-0.25512695,-1.0779419,0.24578857,-16.578125,22.578125,2.796875
1695827595305,-0.26611328,-0.9990845,0.21575928,-25.671875,14.0,0.171875
1695827595334,-0.5673828,-1.227356,-0.0647583,-25.65625,34.453125,4.65625
1695827595380,-0.049072266,-1.1641235,0.12176514,18.859375,37.625,-5.296875
1695827595424,0.3581543,-1.1194458,-0.14215088,12.09375,35.296875,-14.734375
1695827595454,0.07495117,-1.0081177,-0.13116455,4.078125,29.59375,2.8125
1695827595500,-0.009765625,-1.1289673,0.048034668,-0.734375,49.609375,-23.40625
1695827595544,0.12866211,-1.2102661,-0.030822754,-1.6875,54.71875,-8.65625
1695827595574,0.044921875,-1.0044556,-0.07476807,1.28125,59.328125,-7.4375
1695827595620,-0.0029296875,-0.9365845,-0.07110596,-0.921875,66.359375,-5.703125
1695827595665,0.0014648438,-0.8809204,-0.046936035,-4.09375,79.875,-5.90625
1695827595694,0.05102539,-0.94000244,1.8310547E-4,-7.15625,80.390625,-5.015625
1695827595740,0.106933594,-1.0044556,0.01776123,-6.171875,76.015625,-3.25
1695827595784,0.17773438,-0.9824829,0.0680542,-7.984375,65.90625,-1.515625
1695827595813,0.12768555,-1.0064087,0.1408081,-11.796875,53.59375,-1.484375
1695827595859,0.013671875,-0.93756104,0.1720581,-11.515625,44.625,-3.890625
1695827595904,-0.06762695,-0.9290161,0.09832764,-28.40625,45.90625,-9.59375
1695827595934,-0.02709961,-0.90509033,0.2855835,-17.515625,53.90625,-15.765625
1695827595980,0.044189453,-0.97613525,0.32025146,11.390625,47.34375,-6.703125
1695827596024,0.009277344,-0.83380127,0.35882568,7.109375,26.953125,-2.28125
1695827596054,-0.11767578,-0.8850708,0.33709717,0.390625,21.484375,-2.15625
1695827596099,-0.21264648,-0.9692993,0.37957764,0.09375,22.6875,-2.0
1695827596144,-0.38330078,-1.15094,0.35247803,3.46875,32.78125,-1.671875
1695827596174,-0.27416992,-1.361145,0.56951904,-6.1875,45.34375,-2.171875
1695827596219,-0.13452148,-1.7810669,0.24017334,4.625,36.34375,14.140625
1695827596265,0.3395996,-1.3213501,0.152771,22.796875,20.234375,4.125
1695827596294,0.12573242,-0.84210205,-0.06866455,23.828125,39.28125,-13.625
1695827596339,0.15234375,-0.8909302,-0.1765747,13.65625,17.75,-15.71875
1695827596384,0.18139648,-1.005188,-0.05230713,-3.84375,20.40625,-14.28125
1695827596415,-0.009765625,-1.0369263,-0.10675049,15.609375,23.8125,-10.578125
1695827596459,-0.024169922,-0.8953247,-0.101379395,15.03125,27.96875,-6.65625
1695827596504,0.12792969,-0.803772,-0.026672363,10.75,24.453125,-1.953125
1695827596534,0.09106445,-0.86260986,-0.012268066,2.265625,27.546875,-4.796875
1695827596580,0.04345703,-0.89312744,-0.07867432,9.5625,28.578125,-2.390625
1695827596624,0.0949707,-0.8518677,-0.02178955,12.921875,23.875,7.3125
1695827596653,0.032714844,-0.88287354,0.02142334,5.21875,18.6875,8.828125
1695827596699,-0.04345703,-0.94488525,-0.027404785,8.609375,12.796875,4.921875
1695827596745,-0.007080078,-0.9336548,-0.025939941,5.78125,10.4375,8.84375
1695827596789,0.018798828,-0.93927,-0.0134887695,9.3125,8.421875,10.4375
1695827596820,-0.0053710938,-0.9092407,0.015319824,0.609375,4.125,5.96875
1695827596865,-0.080322266,-0.9795532,0.031921387,-3.796875,0.09375,1.78125
1695827596893,-0.036621094,-1.0237427,0.054138184,-7.984375,-1.09375,1.75
1695827596925,-0.028808594,-0.9776001,0.022155762,-7.21875,5.09375,7.859375
1695827596984,0.03955078,-1.3093872,0.089538574,-14.6875,5.859375,13.65625
1695827597014,0.084228516,-1.6323853,0.022399902,-13.265625,0.390625,17.734375
1695827597045,0.123535156,-1.5549927,0.12420654,-17.203125,3.453125,5.09375
1695827597104,0.06982422,-1.149231,0.11932373,-27.65625,4.390625,-10.46875
1695827597134,-0.02734375,-0.9336548,-0.007385254,-6.609375,16.09375,-10.21875
1695827597165,0.3215332,-0.9483032,-0.02911377,-13.875,10.015625,-2.21875
1695827597227,0.35083008,-0.9378052,0.022155762,-5.90625,-2.8125,-5.5
1695827597255,0.026367188,-0.75201416,0.13323975,-1.5,2.5625,-5.84375
1695827597284,-0.09008789,-0.7529907,0.082214355,-3.171875,7.171875,-2.484375
1695827597344,0.087402344,-0.7803345,0.1473999,4.46875,10.609375,-1.984375
1695827597373,0.11206055,-0.7810669,0.12322998,8.09375,7.984375,0.8125
1695827597405,0.06323242,-0.8364868,0.15057373,6.546875,5.203125,3.921875
1695827597464,0.06591797,-0.927063,0.16741943,0.234375,-7.484375,3.890625
1695827597494,0.08178711,-0.93048096,0.19598389,8.703125,-2.53125,6.140625
1695827597524,0.032714844,-0.9138794,0.16864014,9.75,0.171875,5.109375
1695827597584,0.031982422,-0.9077759,0.17303467,6.078125,-4.96875,0.71875
1695827597614,0.032714844,-0.89068604,0.16912842,-2.109375,-3.203125,-0.78125
1695827597644,0.0126953125,-0.91485596,0.15814209,-3.4375,-0.421875,-3.296875
1695827597704,0.0031738281,-0.9993286,0.17474365,-0.859375,-0.421875,-3.671875
1695827597719,0.0029296875,-1.0791626,0.23504639,-3.609375,-0.921875,-4.171875
1695827597764,-0.09350586,-1.2432251,0.246521,1.09375,-0.71875,-5.234375
1695827597824,0.036132812,-1.3374634,0.17010498,4.34375,-2.921875,-5.46875
1695827597839,0.15429688,-1.4754028,0.20550537,1.875,-2.59375,-1.71875
1695827597884,0.06323242,-1.3406372,-0.081604004,7.359375,1.109375,-7.65625
1695827597945,0.056640625,-0.98443604,-0.0725708,9.421875,17.359375,-11.015625
1695827597959,0.09301758,-0.98516846,-0.0791626,-7.96875,13.109375,-8.375
1695827598004,0.00390625,-1.0015259,-0.051574707,-4.25,10.328125,-8.5625
1695827598064,-0.032226562,-0.9326782,-0.05206299,7.390625,12.0,-3.78125
1695827598079,0.017822266,-0.8604126,0.015075684,3.671875,13.34375,-4.09375
1695827598124,-0.07006836,-0.79278564,0.082214355,2.09375,19.984375,-5.984375
1695827598184,-0.14086914,-0.80426025,0.0040893555,5.84375,17.09375,-1.640625
1695827598199,-0.06616211,-0.81207275,-0.004211426,9.40625,16.140625,1.09375
1695827598244,-0.049072266,-0.82647705,-0.04498291,5.6875,20.390625,-1.125
1695827598305,-0.017089844,-0.9182739,0.010437012,3.65625,18.828125,2.28125
1695827598318,-0.008056641,-0.9451294,0.04486084,1.25,10.15625,4.671875
1695827598365,-0.07495117,-0.9273071,0.030700684,3.546875,9.015625,4.375
1695827598424,-0.13183594,-0.92803955,0.010437012,0.203125,5.953125,4.75
1695827598442,-0.16137695,-1.0037231,0.039978027,-3.546875,6.375,5.09375
1695827598483,-0.15893555,-1.0855103,0.018493652,-3.609375,6.609375,4.03125
1695827598513,-0.08129883,-1.2156372,-0.0029907227,-3.703125,1.484375,7.140625
1695827598559,0.13208008,-1.2285767,-0.0015258789,-4.34375,-8.890625,15.09375
1695827598605,0.03930664,-1.3587036,0.007019043,-6.796875,-7.15625,10.71875
1695827598635,-0.05834961,-1.3340454,0.066833496,-0.640625,-5.734375,6.96875
1695827598680,0.11694336,-1.0376587,-0.14385986,0.984375,-6.140625,6.625
1695827598725,0.42944336,-1.0320435,0.09295654,-1.890625,1.0625,10.734375
1695827598754,0.39941406,-1.0327759,0.1708374,-7.515625,-3.34375,9.734375
1695827598799,0.15454102,-0.90753174,0.050720215,-3.9375,-9.234375,2.765625
1695827598845,0.1081543,-0.87335205,0.0914917,-5.125,-7.65625,1.828125
1695827598874,0.13134766,-0.8467407,0.13543701,-4.453125,-6.78125,-1.328125
1695827598920,0.104003906,-0.8230591,0.1251831,-5.484375,-5.640625,-0.359375
1695827598965,0.13012695,-0.8015747,0.1293335,-6.484375,-8.46875,-0.703125
1695827598994,0.12866211,-0.7649536,0.13104248,-1.34375,-8.90625,0.484375
1695827599040,0.061035156,-0.8665161,0.14398193,-6.78125,-8.671875,1.140625
1695827599085,0.029052734,-0.9026489,0.21551514,-4.6875,-5.359375,-4.546875
1695827599114,0.011230469,-0.88726807,0.20697021,-4.359375,1.21875,-5.265625
1695827599159,0.042236328,-0.8765259,0.21917725,-2.53125,-0.71875,-6.125
1695827599205,0.072509766,-0.92071533,0.22650146,-1.734375,0.390625,-4.171875
1695827599234,0.07470703,-0.9612427,0.28118896,-4.046875,-2.984375,-3.3125
1695827599279,0.010009766,-0.9854126,0.30511475,-0.734375,-2.0625,-2.671875
1695827599325,-0.10205078,-1.072815,0.3163452,-1.046875,0.09375,-2.9375
1695827599354,-0.07397461,-1.3096313,0.29730225,3.203125,1.921875,-4.0
1695827599400,0.099365234,-1.4797974,0.33758545,10.9375,-2.078125,-2.9375
1695827599445,0.17382812,-1.3840942,0.14520264,18.171875,-8.71875,2.921875
1695827599474,0.0769043,-1.2244263,0.047546387,23.15625,3.71875,-8.546875
1695827599519,0.076171875,-0.9483032,0.055114746,-4.0,12.671875,-11.625
1695827599564,0.055419922,-0.94122314,-0.10406494,-9.484375,9.625,-13.859375
1695827599594,0.033203125,-0.9793091,0.012390137,-5.46875,5.953125,-18.796875
1695827599639,-0.083984375,-0.9048462,0.14520264,-1.734375,7.609375,-15.953125
1695827599685,-0.0925293,-0.85772705,0.08416748,-8.265625,7.171875,-10.3125
1695827599715,-0.0769043,-0.8652954,0.0016479492,-2.109375,6.140625,-7.4375
1695827599760,-0.05883789,-0.86798096,0.014343262,3.703125,7.90625,-6.953125
1695827599805,-0.028320312,-0.84747314,0.042663574,1.921875,8.15625,-5.875
1695827599834,-0.0017089844,-0.83062744,0.09490967,3.9375,5.59375,-1.921875
1695827599883,-0.0859375,-0.8755493,0.11810303,4.28125,0.953125,0.9375
1695827599925,-0.1694336,-0.9002075,0.10101318,2.28125,2.34375,0.65625
1695827599954,-0.1694336,-0.9343872,0.07342529,0.765625,4.703125,0.828125
1695827600000,-0.18139648,-0.9871216,0.10321045,6.515625,7.625,3.484375
1695827600044,-0.1459961,-0.93585205,0.036071777,4.6875,5.828125,4.515625
1695827600073,-0.14575195,-0.9483032,0.07366943,4.234375,4.9375,5.640625
1695827600104,-0.13330078,-0.99786377,0.070007324,5.203125,2.484375,7.046875
1695827600165,-0.10644531,-1.069397,0.08392334,4.328125,-1.84375,7.734375
1695827600194,-0.09301758,-1.1470337,0.077819824,0.515625,-5.5,10.25
1695827600225,-0.05444336,-1.3635864,0.082214355,-1.53125,-4.0,13.265625
1695827600285,-0.109375,-1.498352,0.10247803,-2.609375,0.15625,11.359375
1695827600314,0.088134766,-1.3335571,0.028747559,4.234375,-1.171875,15.640625
1695827600344,0.049804688,-1.072815,0.014831543,-2.28125,0.90625,8.4375
1695827600405,-0.017089844,-0.94317627,0.059753418,-10.171875,7.84375,0.875
1695827600434,0.21142578,-1.0186157,0.012878418,-3.296875,8.25,8.765625
1695827600464,0.33544922,-0.95196533,0.06512451,-11.46875,-5.28125,3.46875
1695827600525,-0.004638672,-0.8508911,0.11151123,-7.34375,-0.421875,-4.671875
1695827600554,-0.10839844,-0.8604126,0.08074951,-4.96875,1.90625,-4.046875
1695827600583,0.045654297,-0.7876587,0.10638428,-9.8125,7.578125,-6.875
1695827600644,0.020507812,-0.8049927,0.11419678,-13.9375,11.953125,-5.078125
1695827600674,-0.013671875,-0.86553955,0.14398193,-13.875,14.390625,-7.78125
1695827600707,0.020507812,-0.8718872,0.17572021,-11.09375,12.46875,-6.0625
1695827600764,-0.010009766,-0.9258423,0.20916748,-11.703125,12.828125,-4.34375
1695827600796,-0.064453125,-0.95928955,0.24554443,-14.515625,12.78125,-5.21875
1695827600824,-0.029785156,-0.940979,0.2008667,-11.296875,13.515625,-6.109375
1695827600885,-0.03149414,-0.9307251,0.26263428,-7.5,13.5625,-2.359375
1695827600915,-0.07397461,-0.9170532,0.26068115,-6.15625,12.328125,-2.140625
1695827600944,-0.068603516,-0.87286377,0.27069092,-2.1875,15.015625,-3.265625
1695827601004,-0.09814453,-0.90802,0.29608154,-1.296875,15.203125,-1.421875
1695827601019,-0.057617188,-0.9241333,0.3180542,-0.09375,15.796875,-2.171875
1695827601063,-0.10083008,-0.93585205,0.34661865,2.71875,15.71875,-0.0625
1695827601125,-0.08227539,-1.0112915,0.36810303,0.953125,13.78125,1.15625
1695827601140,-0.13647461,-1.0786743,0.37860107,4.390625,15.40625,3.953125
1695827601185,-0.16479492,-1.1670532,0.29437256,8.796875,16.25,5.140625
1695827601244,-0.19506836,-1.4168091,0.35687256,8.875,19.59375,0.171875
1695827601260,-0.051513672,-1.7180786,0.46380615,-5.953125,29.890625,-7.5625
1695827601304,-0.08935547,-1.4243774,0.15130615,24.1875,30.015625,-11.859375
1695827601364,-0.024658203,-0.96710205,-6.1035156E-5,44.984375,33.453125,-12.390625
1695827601380,0.115478516,-0.7542114,-0.085754395,8.78125,30.90625,-6.1875
1695827601424,0.07739258,-0.90826416,0.024108887,-35.4375,32.890625,-6.4375
1695827601485,-0.037597656,-1.0005493,0.012390137,-5.671875,36.953125,-12.8125
1695827601499,0.040283203,-0.81817627,-0.06427002,4.65625,30.84375,-10.140625
1695827601543,0.07397461,-0.7444458,0.010437012,0.984375,19.140625,-8.5
1695827601605,0.0024414062,-0.81085205,0.13226318,3.78125,17.359375,-5.453125
1695827601619,-0.12695312,-0.8062134,0.10882568,-2.703125,23.21875,-9.1875
1695827601664,-0.17529297,-0.7942505,0.06341553,2.75,32.015625,-12.328125
1695827601724,-0.12841797,-0.8880005,0.034851074,5.234375,33.671875,-6.5625
1695827601740,-0.08544922,-0.95758057,0.09442139,4.40625,30.1875,-5.515625
1695827601784,-0.13989258,-0.99786377,0.11883545,5.234375,26.65625,-2.859375
1695827601813,-0.13745117,-0.96099854,0.07928467,4.265625,23.40625,-1.125
1695827601859,-0.20288086,-0.9439087,0.08123779,8.515625,22.765625,4.671875
1695827601905,-0.14111328,-0.9380493,0.101745605,8.125,21.328125,7.515625
1695827601934,-0.10839844,-0.9282837,0.09979248,1.3125,15.5625,8.6875
1695827601979,-0.18530273,-0.9314575,0.0993042,-3.328125,11.875,6.53125
1695827602024,-0.19384766,-0.9727173,0.10296631,-2.859375,7.984375,7.5625
1695827602053,-0.16064453,-0.95977783,0.1329956,-2.078125,4.15625,7.65625
1695827602099,-0.24438477,-0.9492798,0.15838623,-7.90625,6.171875,-1.125
1695827602143,-0.32666016,-1.1438599,0.09564209,-11.4375,3.3125,-0.71875
1695827602174,-0.26293945,-1.3626099,0.0927124,-18.625,1.28125,0.609375
1695827602219,-0.2956543,-1.2112427,0.082214355,-4.546875,19.109375,-0.078125
1695827602264,0.047851562,-1.1506958,-0.09185791,12.421875,26.921875,-15.390625
1695827602294,0.43188477,-1.0374146,0.034606934,4.09375,31.59375,1.90625
1695827602339,-0.049804688,-0.88897705,0.101745605,-16.265625,40.65625,-7.03125
1695827602384,-0.28955078,-1.0027466,0.1083374,-11.125,43.875,-22.359375
1695827602414,-0.030761719,-1.1409302,0.027770996,-7.5625,64.203125,-17.625
1695827602460,0.09716797,-1.0449829,-0.0068969727,-5.359375,73.5625,-18.65625
1695827602505,0.11254883,-0.8858032,0.070739746,-8.171875,72.109375,-17.09375
1695827602534,0.012939453,-0.96343994,0.12738037,-12.578125,72.765625,-11.203125
1695827602579,-0.123535156,-1.0879517,0.19036865,-6.765625,73.34375,-13.0
1695827602625,0.03100586,-0.97320557,0.2033081,-2.515625,73.390625,-13.5625
1695827602655,0.07519531,-0.8826294,0.27996826,1.546875,65.515625,-3.21875
1695827602699,-0.056640625,-0.9326782,0.2555542,-2.203125,53.75,5.1875
1695827602744,-0.064941406,-0.9483032,0.25238037,-1.8125,47.46875,1.96875
1695827602774,-0.025634766,-0.94976807,0.33465576,-5.15625,45.765625,2.265625
1695827602819,-0.12890625,-0.9331665,0.2880249,1.640625,42.859375,0.375
1695827602865,-0.09692383,-0.8772583,0.26678467,4.421875,41.515625,-3.234375
1695827602894,-0.103759766,-0.88165283,0.307312,3.640625,41.5625,-4.484375
1695827602939,-0.14233398,-0.9006958,0.2753296,7.234375,39.6875,-6.40625
1695827602984,-0.08251953,-0.9158325,0.28900146,11.578125,41.421875,-4.25
1695827603014,-0.021484375,-1.1660767,0.32562256,8.265625,37.953125,1.15625
1695827603060,0.013427734,-1.3477173,0.31976318,10.703125,30.234375,8.515625
1695827603105,0.04638672,-1.4849243,0.4093628,13.46875,23.34375,8.078125
1695827603133,0.05102539,-1.3972778,0.11639404,16.859375,10.921875,9.09375
1695827603180,0.061279297,-1.0376587,-0.12945557,32.234375,19.53125,-6.5625
1695827603225,0.24169922,-0.93463135,-0.18121338,0.09375,28.171875,-9.015625
1695827603254,0.27441406,-1.1206665,-0.090148926,-5.375,23.390625,-8.9375
1695827603345,0.041015625,-1.062561,-0.039855957,6.796875,17.984375,-8.59375
1695827603349,0.052734375,-0.94244385,-0.028869629,-1.3125,16.265625,-9.109375
1695827603374,0.061279297,-0.86065674,-0.010803223,0.078125,20.828125,-9.296875
1695827603403,-0.051757812,-0.866272,-0.0051879883,1.875,29.359375,-9.6875
1695827603465,-0.076171875,-0.84869385,0.0038452148,3.3125,33.46875,-11.75
1695827603495,-0.036132812,-0.82159424,0.0040893555,-1.21875,33.703125,-11.40625
1695827603523,-0.041259766,-0.88897705,0.0289917,9.625,33.109375,-7.109375
1695827603585,0.011230469,-0.8921509,-0.0051879883,5.390625,25.78125,-1.5625
1695827603614,0.004638672,-0.93463135,0.019714355,5.921875,21.8125,-1.5
1695827603644,-0.020263672,-0.97320557,0.04144287,3.421875,15.640625,1.328125
1695827603705,-0.060058594,-0.89190674,0.01361084,5.015625,15.28125,2.0
1695827603734,-0.12792969,-0.9246216,0.018005371,0.671875,15.6875,0.625
1695827603767,-0.1418457,-1.0213013,0.042175293,0.734375,16.234375,-0.359375
1695827603824,-0.14428711,-1.1138306,0.05731201,0.390625,15.046875,0.859375
1695827603854,-0.111328125,-1.1992798,0.034851074,-0.109375,12.421875,4.015625
1695827603884,-0.008544922,-1.3413696,-0.035461426,-7.828125,8.296875,8.34375
1695827603945,0.024902344,-1.4292603,-0.035705566,-8.171875,9.125,10.84375
1695827603974,0.24121094,-1.3296509,0.14471436,-9.703125,-6.0625,8.953125
1695827604004,0.05444336,-0.95880127,0.011657715,-4.78125,2.984375,-0.140625
1695827604065,-0.021728516,-0.92266846,-0.0017700195,1.46875,2.75,4.390625
1695827604094,0.2565918,-1.0366821,0.045837402,-2.25,1.703125,7.984375
1695827604124,0.2763672,-0.8665161,0.086364746,-1.859375,-4.328125,1.0625
1695827604185,0.030761719,-0.81500244,0.12054443,-4.046875,-1.84375,-2.890625
1695827604214,-0.05493164,-0.90216064,0.13372803,-2.875,-1.59375,-5.640625
1695827604244,0.022216797,-0.8464966,0.14666748,-4.734375,2.109375,-7.15625
1695827604304,0.064453125,-0.83917236,0.12298584,-10.15625,6.390625,-5.40625
1695827604320,0.018310547,-0.88946533,0.15057373,-11.359375,3.09375,-1.1875
1695827604364,0.05517578,-0.8821411,0.16986084,-12.65625,1.078125,-3.03125
1695827604425,0.026367188,-0.87042236,0.25335693,-11.921875,2.953125,-4.046875
1695827604439,-0.07885742,-0.8682251,0.21673584,-12.40625,2.921875,-3.703125
1695827604484,-0.06738281,-0.878479,0.23895264,-6.5625,3.203125,-4.765625
1695827604545,-0.0063476562,-0.92315674,0.2538452,-4.59375,2.71875,-4.265625
1695827604559,-0.045410156,-0.9241333,0.28900146,-2.171875,5.65625,-3.5625
1695827604604,-0.083740234,-0.90582275,0.28045654,3.6875,4.25,-3.21875
1695827604665,-0.059814453,-0.8999634,0.3348999,7.171875,3.84375,-1.46875
1695827604679,-0.09448242,-1.0210571,0.3751831,3.6875,0.40625,-0.015625
1695827604724,-0.05908203,-1.315979,0.3319702,-3.28125,-5.046875,10.0625
1695827604785,0.14086914,-1.7791138,0.42718506,-4.90625,-12.09375,15.09375
1695827604800,0.024169922,-1.4373169,0.035827637,27.65625,-8.59375,5.390625
1695827604844,0.084228516,-1.2659302,0.10467529,28.015625,-7.53125,-1.890625
1695827604905,0.03881836,-0.9512329,0.093444824,10.71875,3.53125,-4.421875
1695827604919,0.025878906,-0.92852783,-0.15484619,-1.140625,-2.203125,0.984375
1695827604964,0.06274414,-0.909729,-0.04888916,2.3125,-10.015625,-5.953125
1695827605024,-0.012939453,-0.8530884,0.02947998,3.578125,-0.5625,-4.40625
1695827605039,-0.15698242,-0.8870239,0.03363037,-3.234375,8.09375,-4.90625
1695827605084,-0.13061523,-0.83062744,0.043395996,-1.140625,6.328125,-5.953125
1695827605113,-0.083984375,-0.78302,0.030700684,1.171875,6.34375,-2.90625
1695827605159,-0.08691406,-0.8452759,0.039001465,0.359375,10.484375,-1.09375
1695827605204,-0.119140625,-0.817688,0.054382324,0.890625,15.0625,-1.28125
1695827605234,-0.10449219,-0.8843384,0.062438965,-5.46875,14.109375,0.84375
1695827605279,-0.064453125,-0.9627075,0.113464355,-0.421875,10.78125,3.390625
1695827605324,-0.041503906,-0.9138794,0.116882324,-0.875,9.609375,5.03125
1695827605354,-0.107177734,-0.96466064,0.13983154,-2.296875,7.890625,5.6875
1695827605400,-0.13964844,-0.97784424,0.12542725,-2.09375,6.921875,4.71875
1695827605444,-0.13208008,-1.0056763,0.10272217,2.25,5.078125,4.9375
1695827605474,-0.16601562,-1.053772,0.082214355,2.15625,3.125,5.0625
1695827605519,-0.15063477,-1.2720337,0.10247803,2.140625,-2.703125,4.453125
1695827605564,-0.13232422,-1.4275513,0.061950684,0.90625,1.421875,5.1875
1695827605594,0.16479492,-1.5405884,0.023132324,6.21875,3.6875,6.15625
1695827605639,0.26391602,-1.1843872,0.035827637,10.375,12.359375,4.0625
1695827605683,0.14916992,-0.9480591,0.0045776367,2.5625,4.765625,3.578125
1695827605714,0.2512207,-1.0713501,0.14544678,-1.6875,-0.828125,6.234375
1695827605759,0.19042969,-0.97320557,0.15081787,-0.828125,-3.59375,4.75
1695827605804,0.03857422,-0.78009033,0.101989746,-7.203125,-4.8125,0.90625
1695827605833,0.056152344,-0.8196411,0.066101074,-2.1875,-5.78125,-1.953125
1695827605879,0.11328125,-0.85284424,0.137146,-7.25,-7.90625,-1.53125
1695827605924,0.044189453,-0.7793579,0.1449585,-9.828125,-0.6875,-2.203125
1695827605953,-0.022705078,-0.8140259,0.10321045,-7.46875,2.90625,-2.625
1695827605999,0.08666992,-0.8755493,0.14544678,-8.5,2.625,-2.0
1695827606045,0.08203125,-0.8699341,0.18621826,-6.40625,2.1875,-1.578125
1695827606074,-0.00390625,-0.9077759,0.18719482,-8.234375,3.890625,-1.265625
1695827606119,-0.04272461,-0.9336548,0.22991943,-7.25,6.421875,-1.0
1695827606164,-0.00390625,-0.94122314,0.2111206,-3.359375,5.078125,1.015625
1695827606193,0.037841797,-0.91729736,0.22088623,-2.875,5.15625,0.78125
1695827606239,0.0234375,-0.9241333,0.24725342,-1.984375,2.984375,1.6875
1695827606284,0.036621094,-0.98321533,0.28778076,-4.109375,0.109375,1.8125
1695827606315,-0.037353516,-1.0098267,0.30096436,-7.578125,2.453125,0.171875
1695827606359,-0.08984375,-1.1223755,0.29022217,-4.703125,3.046875,-1.3125
1695827606409,-0.044189453,-1.232727,0.27752686,-0.5625,8.734375,-5.890625
1695827606433,0.08618164,-1.4636841,0.4401245,1.5,7.140625,1.515625
1695827606479,0.060546875,-1.3838501,0.2909546,10.78125,8.40625,-0.328125
1695827606524,0.08129883,-1.076477,0.089538574,15.921875,10.15625,-4.9375
1695827606554,0.15551758,-0.9019165,0.082214355,4.4375,7.8125,-5.9375
1695827606599,0.064697266,-0.98321533,-0.0051879883,0.96875,6.015625,-5.4375
1695827606645,0.0034179688,-0.9717407,0.049987793,2.75,8.546875,-7.375
1695827606674,0.11279297,-0.89068604,0.12322998,2.390625,4.328125,-5.375
1695827606704,0.08105469,-0.8062134,0.1161499,-4.265625,-1.34375,-2.859375
1695827606764,-0.06274414,-0.8530884,0.13568115,1.515625,-3.65625,-6.125
1695827606794,-0.123046875,-0.850647,0.105163574,2.90625,0.65625,-10.53125
1695827606825,-0.06323242,-0.86676025,0.11907959,-2.109375,3.390625,-11.015625
1695827606884,-0.029052734,-0.9163208,0.13079834,-1.921875,1.28125,-8.171875
1695827606914,-0.075683594,-0.9380493,0.14129639,2.3125,-0.90625,-8.0
1695827606944,-0.12866211,-0.95098877,0.14324951,-4.109375,1.953125,-9.453125
1695827607004,-0.11791992,-0.94732666,0.1708374,-8.578125,3.078125,-8.578125
1695827607034,-0.18725586,-0.9998169,0.21624756,-4.21875,5.875,-8.1875
1695827607065,-0.17529297,-0.94244385,0.21063232,-4.15625,5.0,-5.703125
1695827607125,-0.19848633,-0.9356079,0.18035889,-0.328125,0.609375,-1.90625
1695827607154,-0.14282227,-0.960022,0.13519287,-1.8125,-4.46875,2.265625
1695827607184,-0.111083984,-0.9390259,0.15960693,0.21875,-1.125,4.5625
1695827607244,-0.17797852,-0.923645,0.18035889,1.203125,-0.015625,6.8125
1695827607274,-0.1953125,-0.9143677,0.19012451,3.921875,-0.65625,8.765625
1695827607305,-0.20214844,-0.9793091,0.22113037,3.578125,0.453125,10.078125
1695827607365,-0.20947266,-1.0794067,0.1630249,4.59375,2.46875,15.78125
1695827607394,-0.20654297,-1.3240356,0.13323975,9.0,8.171875,20.1875
1695827607424,-0.16894531,-1.4326782,0.19500732,15.5,17.171875,16.4375
1695827607484,0.13549805,-1.4465942,0.046813965,12.984375,22.59375,22.828125
1695827607514,0.30322266,-1.373352,0.06463623,-1.484375,-6.1875,12.546875
1695827607544,0.2607422,-0.93463135,0.17327881,1.375,-5.5625,7.25
1695827607604,0.010498047,-1.036438,0.25042725,-9.390625,-2.078125,0.53125
1695827607619,0.19970703,-0.92755127,0.070739746,-9.546875,-13.0625,5.5
1695827607664,0.13989258,-0.803772,0.13128662,-8.9375,-9.25,-6.703125
1695827607724,-0.049804688,-0.848938,0.12835693,-6.3125,0.328125,-5.578125
1695827607739,0.10620117,-0.79156494,0.18255615,-10.953125,0.25,-0.828125
1695827607784,0.1159668,-0.6987915,0.16326904,-8.90625,4.3125,-3.9375
1695827607829,-0.037841797,-0.7803345,0.15252686,-11.0,9.09375,-4.171875
1695827607858,0.036621094,-0.8718872,0.2218628,-9.453125,7.90625,-4.5625
1695827607904,0.037597656,-0.81451416,0.2387085,-7.65625,13.109375,-4.4375
1695827607965,-0.013916016,-0.90045166,0.27020264,-9.9375,10.875,-3.734375
1695827607979,-0.013427734,-0.98321533,0.29437256,-4.65625,14.015625,-4.5
1695827608025,0.0056152344,-1.00177,0.30291748,-3.8125,15.28125,-3.046875
1695827608084,0.030029297,-0.9697876,0.30340576,-0.0625,16.3125,0.078125
1695827608099,0.012451172,-0.88287354,0.31219482,9.640625,14.984375,2.953125
1695827608145,-0.034423828,-0.82696533,0.32244873,15.640625,17.875,7.75
1695827608204,-0.16308594,-0.93634033,0.35369873,9.734375,21.84375,12.453125
1695827608219,-0.013671875,-1.048645,0.32147217,9.453125,17.328125,14.890625
1695827608264,-0.04663086,-1.3169556,0.4003296,-4.484375,20.921875,6.5
1695827608324,-0.017333984,-1.5618286,0.4508667,-10.234375,27.828125,3.515625
1695827608339,0.13549805,-1.7041626,0.3378296,-0.421875,28.265625,7.6875
1695827608384,0.11401367,-1.2647095,0.09906006,24.9375,24.0,-17.28125
1695827608414,0.12915039,-0.8574829,-0.13238525,2.71875,28.0,-21.984375
1695827608459,0.10205078,-0.7710571,-0.05255127,-16.65625,22.5,-16.34375
1695827608504,-0.010253906,-0.8726196,0.034851074,-7.875,18.109375,-17.984375
1695827608535,-0.053466797,-0.9204712,-0.04498291,5.90625,28.296875,-15.984375
1695827608580,0.1027832,-0.7522583,-0.073791504,2.96875,23.765625,-9.234375
1695827608625,0.035888672,-0.80596924,0.02166748,-0.359375,26.875,-7.65625
1695827608655,-0.11376953,-0.9507446,-0.0044555664,3.4375,30.8125,-9.1875
1695827608699,0.024902344,-0.85821533,-0.0029907227,-0.1875,19.703125,-9.234375
1695827608745,-0.017089844,-0.7515259,0.11419678,1.796875,34.078125,-11.109375
1695827608774,-0.15917969,-0.85821533,0.10247803,5.1875,40.34375,-8.84375
1695827608819,-0.13232422,-0.9192505,0.035339355,5.921875,41.734375,-4.8125
1695827608866,-0.15551758,-0.95880127,0.04437256,4.1875,42.4375,-1.34375
1695827608894,-0.1274414,-1.0291138,0.03753662,5.8125,40.640625,0.984375
1695827608939,-0.060546875,-0.98028564,0.051208496,5.40625,38.421875,3.203125
1695827608984,-0.0637207,-0.9651489,0.094177246,3.078125,36.390625,3.125
1695827609015,-0.06323242,-0.98809814,0.11663818,0.34375,29.046875,3.421875
1695827609059,-0.15649414,-0.9463501,0.14886475,0.96875,24.71875,4.015625
1695827609104,-0.22387695,-0.9924927,0.15057373,-4.40625,24.984375,5.890625
1695827609134,-0.18286133,-1.0510864,0.10858154,-10.0625,23.15625,4.171875
1695827609180,-0.14477539,-1.034729,0.17767334,-9.375,21.9375,2.359375
1695827609225,-0.2932129,-0.91119385,0.14764404,-17.734375,25.78125,-5.90625
1695827609254,-0.40307617,-1.4417114,-0.054260254,-20.828125,22.796875,-5.484375
1695827609300,0.09057617,-1.1607056,-0.06378174,17.453125,40.75,-8.15625
1695827609345,0.24902344,-0.95391846,-0.04156494,6.5625,49.65625,-18.765625
1695827609374,-0.056884766,-0.8386841,-0.070129395,-0.8125,45.578125,-2.703125
1695827609420,-0.14355469,-1.0122681,0.06903076,-15.109375,53.5,-11.21875
1695827609464,-0.016601562,-1.1824341,0.020446777,-16.109375,67.25,-11.46875
1695827609495,0.10131836,-1.0147095,-0.014953613,-10.046875,68.453125,-10.25
1695827609539,0.15063477,-0.8970337,0.07928467,-8.9375,67.140625,-12.3125
1695827609587,-0.013427734,-1.0462036,0.117370605,-19.09375,74.703125,-7.90625
1695827609614,-0.01928711,-1.079895,0.15057373,-7.234375,69.96875,-9.28125
1695827609659,0.06762695,-0.91070557,0.1762085,2.03125,70.203125,-11.671875
1695827609703,0.06225586,-0.95098877,0.19500732,1.03125,64.453125,-6.1875
1695827609733,0.09472656,-0.909729,0.23016357,8.65625,50.0625,-0.09375
1695827609779,0.044677734,-1.0613403,0.27508545,9.40625,39.734375,10.890625
1695827609824,0.041992188,-1.0510864,0.24285889,11.4375,29.796875,7.65625
1695827609854,-0.0036621094,-0.9221802,0.25115967,11.265625,31.859375,1.640625
1695827609946,-0.044189453,-0.8130493,0.20501709,9.9375,23.765625,2.9375
1695827609949,-0.026611328,-0.84210205,0.23284912,2.578125,26.421875,-1.84375
1695827609974,-0.055419922,-0.9771118,0.26361084,0.46875,26.953125,-3.890625
1695827610019,-0.14013672,-1.0261841,0.25994873,7.578125,35.09375,-4.8125
1695827610065,-0.09765625,-1.3401489,0.22283936,4.234375,34.21875,-0.8125
1695827610094,0.07104492,-1.4229126,0.30804443,1.515625,28.8125,-2.65625
1695827610124,-0.068603516,-1.4539185,0.15740967,-0.578125,23.3125,-10.40625
1695827610185,0.17358398,-1.3547974,-0.038879395,19.28125,18.328125,-7.296875
1695827610214,0.20703125,-1.00177,-0.18487549,8.640625,21.765625,-14.71875
1695827610244,0.1665039,-0.84576416,-0.22076416,-7.90625,23.140625,-17.296875
1695827610304,0.06225586,-0.9170532,-0.21124268,-8.71875,14.59375,-19.625
1695827610334,-0.13476562,-0.960022,-0.07965088,17.234375,20.671875,-13.359375
1695827610365,-0.048828125,-0.878479,-0.05987549,15.203125,28.8125,-4.609375
1695827610426,0.07373047,-0.90216064,-0.057922363,6.296875,20.203125,-0.265625
1695827610454,0.036865234,-0.88531494,0.01727295,0.15625,20.65625,-2.0
1695827610485,-0.07495117,-0.87945557,-0.023010254,6.15625,27.328125,-3.21875
1695827610545,-0.0690918,-0.8442993,-0.042541504,4.984375,30.25,-0.015625
1695827610574,0.001953125,-0.8826294,-0.042297363,5.828125,25.140625,1.953125
1695827610605,0.04248047,-0.92437744,-0.012512207,4.015625,16.359375,5.09375
1695827610665,-0.07739258,-0.9019165,-0.030578613,0.375,15.65625,8.015625
1695827610694,-0.03564453,-0.90875244,0.028015137,4.015625,13.359375,10.328125
1695827610725,-0.064208984,-0.9038696,0.023864746,-1.25,8.421875,9.453125
1695827610786,-0.09106445,-0.98394775,0.02142334,-0.59375,7.140625,7.453125
1695827610800,-0.095947266,-1.0010376,0.022155762,-6.171875,7.921875,6.078125
1695827610850,-0.01171875,-1.0098267,0.029968262,-4.5625,9.765625,6.625
1695827610905,-0.041748047,-1.0037231,0.12689209,-2.453125,3.265625,6.203125
1695827610918,-0.09863281,-1.0540161,0.054626465,-7.71875,4.90625,7.234375
1695827610964,0.045410156,-1.208313,0.09832764,0.53125,1.921875,11.46875
1695827611025,-0.010498047,-1.3821411,0.058288574,-5.296875,2.90625,16.578125
1695827611042,0.024902344,-1.6470337,0.12640381,-9.078125,-2.5,10.375
1695827611084,0.13427734,-1.3565063,0.101257324,1.140625,-10.578125,6.609375
1695827611145,0.076416016,-0.8982544,0.018493652,6.0625,-4.34375,-1.734375
1695827611160,0.025390625,-0.90753174,0.011169434,-10.046875,-1.140625,0.5
1695827611204,0.25561523,-1.0862427,0.03289795,-4.03125,-25.78125,5.078125
1695827611265,0.22241211,-0.9170532,-0.012512207,2.375,-26.1875,-8.015625
1695827611280,0.032226562,-0.7901001,0.09173584,-8.578125,-5.578125,-7.296875
1695827611324,0.07714844,-0.8609009,0.10491943,-1.15625,-7.984375,-4.015625
1695827611386,0.091796875,-0.8128052,0.12908936,-2.78125,-6.453125,-2.125
1695827611399,0.056152344,-0.7605591,0.08709717,-8.609375,1.671875,-2.125
1695827611444,0.096191406,-0.83477783,0.10003662,-8.8125,-2.234375,-0.671875
1695827611504,0.045654297,-0.86187744,0.13494873,-4.40625,0.984375,2.46875
1695827611519,-0.01171875,-0.8899536,0.16815186,-6.03125,5.859375,0.859375
1695827611564,0.018310547,-0.9092407,0.15814209,-5.765625,7.390625,-0.390625
1695827611594,0.040039062,-0.90802,0.17401123,-3.609375,6.765625,0.546875
1695827611640,0.028564453,-0.92803955,0.21038818,0.3125,4.765625,0.46875
1695827611684,0.013671875,-0.9558716,0.19525146,-1.71875,3.96875,-0.5
1695827611714,-0.024902344,-1.0303345,0.25775146,0.9375,5.5,-0.640625
1695827611759,-0.02734375,-1.0767212,0.21453857,4.328125,5.65625,0.0625
1695827611804,-0.038085938,-1.1660767,0.152771,6.859375,6.296875,-1.0625
1695827611834,0.17602539,-1.3840942,0.19891357,4.578125,2.421875,2.890625
1695827611880,0.026855469,-1.392395,0.21844482,7.96875,10.375,-1.03125
1695827611925,0.03564453,-1.2161255,0.042419434,11.921875,15.453125,-2.796875
1695827611953,0.17260742,-1.1416626,0.019958496,11.640625,11.40625,-2.046875
1695827611999,0.12207031,-0.9529419,0.018737793,1.234375,15.3125,-7.515625
1695827612044,-0.005859375,-0.8538208,-0.09307861,4.75,18.15625,-11.09375
1695827612074,0.06689453,-0.9216919,-0.0803833,6.34375,11.71875,-10.375
1695827612119,0.09643555,-0.9507446,-0.006164551,-1.703125,10.671875,-8.453125
1695827612164,0.0048828125,-0.9209595,0.05999756,-5.921875,14.90625,-9.734375
1695827612194,-0.13574219,-0.88726807,0.04046631,-2.015625,16.984375,-12.734375
1695827612239,-0.05078125,-0.84381104,0.041931152,-2.484375,21.21875,-11.421875
1695827612284,-2.4414062E-4,-0.8262329,0.018493652,-3.84375,18.484375,-5.78125
1695827612314,-0.028808594,-0.8945923,0.05633545,-4.21875,15.109375,-5.625
1695827612359,-0.020751953,-0.89971924,0.04901123,-3.953125,12.625,-2.0
1695827612404,-0.046142578,-0.91290283,0.06976318,-4.21875,9.546875,1.515625
1695827612433,-0.111328125,-0.9390259,0.09979248,-4.90625,5.734375,0.5625
1695827612479,-0.10644531,-0.9710083,0.09246826,-2.734375,6.609375,2.671875
1695827612524,-0.10913086,-0.96099854,0.14349365,-1.84375,5.890625,2.921875
1695827612553,-0.13647461,-0.9338989,0.113708496,-5.234375,8.1875,0.875
1695827612599,-0.13232422,-0.9805298,0.12322998,-2.0625,6.34375,2.734375
1695827612642,-0.0871582,-1.0227661,0.16448975,-2.03125,5.28125,5.640625
1695827612673,-0.0715332,-1.0505981,0.1317749,-1.25,2.265625,7.5
