# Sensor type: Respeck
# Activity type: Sitting
# Activity subtype: Singing
# Subject id: s2020072
# Notes: 
timestamp,accel_x,accel_y,accel_z,gyro_x,gyro_y,gyro_z
1695822000844,-0.050048828,-0.9854126,0.2514038,-1.09375,1.390625,-0.9375
1695822000888,-0.035888672,-0.99298096,0.2506714,-0.921875,1.171875,-1.734375
1695822000919,-0.037109375,-0.9837036,0.23968506,-1.234375,0.828125,-3.15625
1695822000964,-0.052734375,-0.97857666,0.24261475,-1.203125,0.8125,-2.609375
1695822001009,-0.06298828,-0.99420166,0.24749756,-2.09375,1.3125,-2.90625
1695822001038,-0.0690918,-0.9902954,0.24554443,-2.640625,1.375,-3.59375
1695822001084,-0.0847168,-0.9727173,0.2579956,-2.703125,1.875,-2.9375
1695822001129,-0.08496094,-0.99468994,0.2675171,-1.921875,2.0,-2.46875
1695822001158,-0.0793457,-0.9793091,0.26654053,-2.84375,3.8125,-3.625
1695822001203,-0.0715332,-0.97442627,0.26849365,-2.984375,3.96875,-3.234375
1695822001249,-0.08251953,-0.9741821,0.27459717,-2.0625,3.484375,-2.515625
1695822001278,-0.10083008,-0.98687744,0.27874756,-3.046875,4.1875,-2.484375
1695822001323,-0.09326172,-0.9812622,0.28656006,-2.9375,4.703125,-3.03125
1695822001368,-0.08984375,-0.97247314,0.29486084,-1.96875,3.796875,-2.328125
1695822001399,-0.09399414,-0.97052,0.29119873,-2.40625,3.875,-3.140625
1695822001490,-0.11352539,-0.989563,0.3048706,-1.5,3.765625,-1.078125
1695822001492,-0.08081055,-0.9710083,0.29925537,-2.859375,3.25,-3.71875
1695822001521,-0.11376953,-0.98101807,0.30389404,-2.59375,2.765625,-1.375
1695822001550,-0.10058594,-0.9729614,0.28851318,-2.546875,1.328125,-2.9375
1695822001610,-0.122558594,-0.94732666,0.29144287,-3.109375,0.609375,-2.25
1695822001641,-0.122558594,-0.9817505,0.29559326,-3.796875,1.0,-1.109375
1695822001671,-0.119628906,-0.9697876,0.30804443,-4.890625,1.078125,-1.640625
1695822001730,-0.1262207,-0.9446411,0.34466553,-2.640625,0.9375,-1.71875
1695822001759,-0.11450195,-0.9607544,0.35272217,-2.1875,2.703125,0.3125
1695822001789,-0.13256836,-0.9368286,0.3463745,0.28125,1.421875,1.15625
1695822001851,-0.13012695,-0.9570923,0.3307495,1.265625,3.546875,0.03125
1695822001880,-0.114990234,-0.9819946,0.34173584,1.546875,4.3125,1.484375
1695822001910,-0.13549805,-0.94073486,0.32025146,4.0625,3.34375,2.078125
1695822001971,-0.12231445,-0.9590454,0.31463623,4.203125,4.171875,2.796875
1695822002001,-0.041503906,-1.0105591,0.32391357,4.609375,5.203125,2.71875
1695822002030,-0.02758789,-0.9697876,0.28607178,1.4375,-1.78125,-1.921875
1695822002090,-0.122802734,-0.9780884,0.2453003,1.03125,-0.5625,-1.1875
1695822002120,-0.10864258,-0.9795532,0.28533936,0.625,0.921875,-0.5
1695822002151,-0.099365234,-0.9805298,0.27874756,0.09375,2.03125,-1.1875
1695822002210,-0.099609375,-0.9829712,0.30682373,-0.484375,3.703125,-2.3125
1695822002270,-0.14453125,-1.008606,0.31365967,-0.890625,0.796875,-0.9375
1695822002273,-0.12573242,-0.9573364,0.30755615,-1.5625,1.890625,-3.15625
1695822002330,-0.12182617,-0.95928955,0.29656982,-0.90625,3.453125,-2.484375
1695822002346,-0.119384766,-0.9890747,0.28778076,-0.015625,2.453125,-1.125
1695822002390,-0.111083984,-0.9668579,0.3085327,0.15625,2.53125,-1.09375
1695822002466,-0.11621094,-0.9639282,0.2946167,-0.390625,2.3125,-0.5625
1695822002468,-0.1262207,-0.97052,0.30828857,0.703125,1.390625,0.75
1695822002510,-0.11303711,-0.9734497,0.30706787,-1.0625,1.484375,0.109375
1695822002571,-0.12158203,-0.972229,0.31414795,-2.25,1.203125,-1.546875
1695822002585,-0.14697266,-0.98321533,0.3060913,-0.796875,2.359375,-0.8125
1695822002631,-0.11621094,-0.96881104,0.31536865,0.84375,2.578125,-0.734375
1695822002690,-0.14477539,-0.94903564,0.31610107,1.0,1.78125,-0.8125
1695822002706,-0.13110352,-0.9717407,0.32000732,0.09375,2.796875,0.90625
1695822002766,-0.10913086,-0.9793091,0.30950928,0.046875,1.25,0.578125
1695822002811,-0.1262207,-0.9746704,0.29071045,1.453125,1.03125,0.171875
1695822002826,-0.12158203,-0.95269775,0.29901123,1.4375,1.0,-0.625
1695822002870,-0.13085938,-0.960022,0.27557373,1.46875,2.015625,0.625
1695822002946,-0.119628906,-0.9793091,0.29779053,0.71875,2.015625,1.984375
1695822002949,-0.12426758,-0.9841919,0.3126831,0.578125,0.21875,2.625
1695822002991,-0.13134766,-0.98760986,0.3024292,0.453125,2.171875,0.453125
1695822003051,-0.09863281,-0.9729614,0.30682373,-0.328125,2.875,0.34375
1695822003064,-0.13330078,-0.9768677,0.28948975,-0.078125,1.84375,-0.265625
1695822003110,-0.10083008,-0.97003174,0.28656006,-0.296875,2.9375,0.265625
1695822003141,-0.09375,-0.97125244,0.28656006,0.390625,1.671875,-0.03125
1695822003185,-0.123291016,-0.9741821,0.2958374,0.015625,1.078125,1.21875
1695822003230,-0.109375,-0.9800415,0.29803467,-0.9375,2.65625,0.828125
1695822003261,-0.103759766,-0.9812622,0.29779053,-0.640625,1.28125,0.53125
1695822003306,-0.118652344,-0.9841919,0.30755615,-0.328125,0.453125,0.953125
1695822003350,-0.13061523,-0.9837036,0.29681396,0.125,1.5,0.671875
1695822003379,-0.09790039,-0.97735596,0.28118896,-0.09375,3.03125,-0.765625
1695822003425,-0.088378906,-0.96588135,0.3065796,0.140625,0.53125,-0.484375
1695822003470,-0.1303711,-0.96343994,0.28118896,-0.515625,0.40625,0.359375
1695822003500,-0.10205078,-0.95880127,0.29974365,-0.3125,0.765625,1.671875
1695822003575,-0.11010742,-0.97979736,0.30975342,-2.296875,1.203125,1.03125
1695822003590,-0.12719727,-0.98638916,0.31756592,-0.171875,1.3125,0.625
1695822003620,-0.12109375,-0.9729614,0.31243896,1.109375,0.640625,0.84375
1695822003665,-0.10449219,-0.960022,0.29364014,-0.828125,2.34375,0.625
1695822003710,-0.09790039,-0.9768677,0.3024292,0.25,1.125,0.546875
1695822003801,-0.08959961,-0.9783325,0.30096436,-1.328125,0.9375,0.984375
1695822003805,-0.099853516,-0.9627075,0.3053589,0.5625,0.515625,0.703125
1695822003831,-0.099853516,-0.96588135,0.2982788,0.625,0.828125,0.4375
1695822003861,-0.0949707,-0.975647,0.30926514,0.421875,0.296875,1.1875
1695822003905,-0.107177734,-0.975647,0.3012085,-0.296875,0.125,0.328125
1695822003950,-0.1105957,-0.97735596,0.30023193,-0.34375,1.09375,0.71875
1695822003980,-0.10449219,-0.9639282,0.3078003,-1.546875,-0.234375,1.265625
1695822004025,-0.08691406,-0.9741821,0.291687,-2.4375,1.640625,0.71875
1695822004070,-0.1105957,-0.9746704,0.30438232,-0.359375,2.328125,0.734375
1695822004100,-0.1184082,-0.9837036,0.30316162,0.234375,1.65625,2.109375
1695822004145,-0.076171875,-0.9492798,0.3114624,0.734375,2.671875,0.953125
1695822004190,-0.10498047,-0.986145,0.29681396,-0.5,1.421875,-0.296875
1695822004221,-0.1015625,-0.98809814,0.31243896,0.859375,1.875,1.109375
1695822004265,-0.08300781,-0.97125244,0.31195068,0.625,1.53125,0.234375
1695822004326,-0.092041016,-0.97052,0.2994995,1.890625,1.078125,0.21875
1695822004340,-0.08862305,-0.96417236,0.29144287,0.859375,0.90625,1.21875
1695822004400,-0.084228516,-0.98443604,0.29974365,0.671875,0.71875,1.1875
1695822004430,-0.08959961,-0.98565674,0.29144287,1.109375,0.5,1.203125
1695822004460,-0.096191406,-0.97369385,0.29071045,0.609375,0.875,1.75
1695822004505,-0.091308594,-0.9776001,0.30438232,1.34375,2.109375,2.09375
1695822004535,-0.079589844,-0.97540283,0.2855835,0.828125,1.59375,2.03125
1695822004581,-0.06933594,-0.9788208,0.3036499,1.0,1.984375,2.4375
1695822004625,-0.076171875,-0.98101807,0.2975464,0.71875,1.1875,1.265625
1695822004670,-0.0715332,-0.97784424,0.2987671,0.8125,1.65625,1.703125
1695822004701,-0.084228516,-0.97003174,0.29412842,-0.3125,0.75,1.5
1695822004745,-0.08081055,-0.9939575,0.2711792,-2.6875,1.390625,1.796875
1695822004790,-0.049316406,-0.9902954,0.31829834,-5.03125,3.09375,-0.875
1695822004819,-0.0769043,-0.9873657,0.28485107,-3.359375,0.453125,-1.578125
1695822004851,-0.07788086,-0.96539307,0.31610107,-3.0625,2.65625,-1.203125
1695822004911,-0.078125,-0.96588135,0.29974365,-3.296875,1.796875,0.46875
1695822004940,-0.04638672,-0.975647,0.31072998,-1.859375,1.59375,0.734375
1695822004970,-0.05908203,-0.97540283,0.3048706,-1.59375,1.046875,0.953125
1695822005031,-0.075683594,-0.9817505,0.31121826,-1.140625,1.890625,1.28125
1695822005060,-0.061767578,-0.96466064,0.31732178,-2.609375,0.71875,0.53125
1695822005090,-0.052734375,-0.9805298,0.31781006,-0.28125,0.859375,-0.125
1695822005150,-0.076416016,-0.9746704,0.31463623,0.96875,0.109375,-0.1875
1695822005180,-0.060546875,-0.9702759,0.32757568,0.109375,0.34375,-0.5
1695822005210,-0.060058594,-0.96417236,0.31195068,-0.859375,-0.875,-1.671875
1695822005270,-0.095458984,-0.9829712,0.30682373,-0.765625,-0.390625,-0.828125
1695822005300,-0.080566406,-0.98028564,0.32733154,-0.265625,2.1875,-0.046875
1695822005331,-0.08569336,-0.9624634,0.31195068,2.09375,0.921875,0.140625
1695822005391,-0.06347656,-0.9924927,0.30999756,0.6875,1.140625,-0.640625
1695822005420,-0.08105469,-0.97784424,0.32147217,6.125,-0.359375,0.078125
1695822005450,-0.09765625,-0.9663696,0.293396,8.28125,-0.40625,0.6875
1695822005510,-0.07055664,-0.9741821,0.3036499,5.5625,1.28125,0.65625
1695822005540,-0.053222656,-0.9976196,0.29901123,4.0625,0.125,-0.046875
1695822005571,-0.084228516,-0.99053955,0.27313232,3.6875,0.53125,-0.765625
1695822005630,-0.071777344,-0.96417236,0.2831421,2.4375,-1.28125,-0.03125
1695822005646,-0.076171875,-0.99005127,0.27264404,3.625,1.125,0.40625
1695822005690,-0.09741211,-0.9902954,0.2850952,4.921875,1.90625,-0.375
1695822005751,-0.075927734,-0.9973755,0.22796631,4.953125,2.484375,0.734375
1695822005766,-0.0061035156,-0.9348755,0.19866943,-7.28125,-6.328125,-1.484375
1695822005810,-0.14794922,-0.9602661,0.28216553,-0.578125,1.40625,2.046875
1695822005870,-0.13452148,-1.0281372,0.29266357,0.421875,3.0625,1.34375
1695822005886,-0.060791016,-0.960022,0.26312256,2.4375,4.578125,-0.171875
1695822005930,-0.032714844,-0.98565674,0.29119873,0.0625,0.953125,0.40625
1695822005990,-0.075927734,-0.95977783,0.25653076,-0.890625,-0.859375,-0.375
1695822006005,-0.0715332,-0.9817505,0.2526245,1.390625,-2.140625,-0.046875
1695822006050,-0.08105469,-0.99542236,0.25579834,1.78125,-1.3125,1.09375
1695822006111,-0.08203125,-1.0015259,0.260437,1.578125,-0.59375,-0.140625
1695822006125,-0.068359375,-0.9690552,0.24212646,1.171875,1.4375,-1.734375
1695822006170,-0.076416016,-0.9805298,0.2453003,-1.65625,-0.0625,-0.390625
1695822006231,-0.095214844,-0.99591064,0.25091553,0.53125,-0.40625,-1.390625
1695822006246,-0.0847168,-0.99053955,0.25750732,0.59375,0.625,-0.359375
1695822006290,-0.08642578,-0.98638916,0.24627686,-0.640625,1.078125,-0.71875
1695822006351,-0.09082031,-0.98516846,0.25457764,-0.71875,0.15625,-0.203125
1695822006366,-0.083984375,-0.9841919,0.2584839,-0.625,0.125,0.0625
1695822006410,-0.076660156,-0.97442627,0.25750732,-0.171875,0.0625,0.328125
1695822006440,-0.08911133,-0.9976196,0.2477417,-0.734375,0.671875,1.171875
1695822006485,-0.08496094,-1.0012817,0.2662964,-0.828125,1.0,0.46875
1695822006530,-0.079833984,-0.9690552,0.25750732,0.609375,0.203125,1.171875
1695822006561,-0.1184082,-0.98687744,0.2538452,-0.53125,0.46875,1.859375
1695822006605,-0.07324219,-0.99542236,0.25994873,-0.875,0.84375,0.453125
1695822006650,-0.07836914,-0.98394775,0.26116943,-1.328125,0.828125,0.109375
1695822006681,-0.08642578,-0.9763794,0.2579956,0.03125,1.3125,0.5625
1695822006726,-0.06201172,-0.9729614,0.24847412,0.328125,1.265625,0.453125
1695822006770,-0.06274414,-0.97125244,0.26239014,0.03125,0.078125,1.71875
1695822006801,-0.08642578,-0.9927368,0.26800537,0.375,0.734375,2.140625
1695822006845,-0.07470703,-0.98223877,0.2616577,0.640625,-0.375,1.125
1695822006890,-0.091552734,-0.98883057,0.2579956,0.390625,1.125,1.078125
1695822006921,-0.06933594,-0.99298096,0.25628662,0.3125,1.15625,0.6875
1695822006965,-0.06518555,-0.9746704,0.2489624,1.21875,0.546875,1.5625
1695822007010,-0.08203125,-0.9758911,0.25750732,1.6875,0.921875,1.796875
1695822007040,-0.080566406,-0.98687744,0.24945068,0.46875,1.125,3.6875
1695822007084,-0.068115234,-1.0037231,0.24090576,-0.859375,1.515625,3.734375
1695822007161,-0.03125,-0.9668579,0.2567749,-1.046875,-0.84375,2.53125
1695822007163,-0.0769043,-0.99176025,0.25579834,0.421875,0.640625,3.515625
1695822007205,-0.041992188,-0.99786377,0.24969482,-2.078125,0.828125,2.390625
1695822007250,-0.03540039,-1.000061,0.26556396,1.65625,0.375,3.4375
1695822007280,-0.048828125,-0.9783325,0.24871826,-0.5625,0.609375,1.6875
1695822007325,-0.022949219,-0.98809814,0.246521,-0.828125,0.78125,1.484375
1695822007370,-0.024414062,-0.9963989,0.25604248,-0.8125,-0.125,1.203125
1695822007400,-0.04321289,-0.9898071,0.25115967,-0.59375,-0.90625,0.765625
1695822007444,-0.040039062,-0.98565674,0.25531006,-1.0,0.15625,0.609375
1695822007491,-0.036621094,-0.99786377,0.25872803,-1.015625,0.4375,0.328125
1695822007521,-0.034179688,-0.98516846,0.26141357,-2.046875,0.671875,-0.65625
1695822007566,-0.023925781,-0.9771118,0.2531128,-1.5,0.53125,-0.484375
1695822007609,-0.03930664,-0.960022,0.2518921,-2.640625,1.46875,-1.328125
1695822007641,-0.04638672,-0.96881104,0.24993896,-1.578125,1.296875,1.6875
1695822007686,-0.024658203,-0.9819946,0.27874756,-1.1875,1.640625,0.921875
1695822007731,-0.049072266,-1.0015259,0.29144287,0.0625,1.265625,1.203125
1695822007760,-0.038085938,-0.98638916,0.26531982,-1.09375,1.453125,-1.8125
1695822007805,-0.046875,-0.9973755,0.28167725,-0.34375,1.0,-0.0625
1695822007850,-0.060791016,-0.97735596,0.2736206,0.4375,1.0625,-0.40625
1695822007880,-0.03173828,-0.9561157,0.25335693,-1.046875,2.09375,-0.328125
1695822007925,-0.024902344,-0.98394775,0.260437,-0.703125,1.25,0.734375
1695822007970,-0.037353516,-0.9829712,0.2748413,0.6875,0.453125,0.90625
1695822008000,-0.050048828,-0.96881104,0.2789917,-0.046875,0.703125,0.1875
1695822008030,-0.040283203,-0.98223877,0.2723999,0.46875,1.84375,0.609375
1695822008090,-0.036621094,-0.9898071,0.28216553,1.0,0.34375,0.078125
1695822008121,-0.052978516,-0.98101807,0.2675171,0.703125,0.25,0.203125
1695822008150,-0.037597656,-0.98028564,0.2670288,0.625,1.03125,-0.03125
1695822008210,-0.03564453,-0.98443604,0.2584839,-0.484375,1.140625,1.140625
1695822008241,-0.03515625,-0.98150635,0.26776123,0.21875,1.34375,-0.125
1695822008270,-0.034179688,-0.9776001,0.25946045,-0.078125,1.75,1.34375
1695822008331,-0.026367188,-1.0071411,0.26263428,0.609375,1.421875,1.265625
1695822008360,-0.030517578,-0.9771118,0.2723999,0.109375,-0.015625,-0.6875
1695822008390,-0.052001953,-0.989563,0.2489624,-1.390625,1.3125,-0.921875
1695822008450,-0.025878906,-0.9937134,0.27288818,-1.546875,2.4375,-0.234375
1695822008481,-0.05810547,-0.98565674,0.27166748,-0.359375,1.5625,0.515625
1695822008510,-0.0234375,-0.95806885,0.25823975,-1.265625,2.984375,-0.40625
1695822008571,-0.017822266,-0.9924927,0.2687378,-1.53125,1.46875,-0.3125
1695822008601,-0.041259766,-0.9890747,0.28070068,0.40625,0.484375,-0.625
1695822008630,-0.045410156,-0.9746704,0.27142334,0.046875,1.03125,-0.765625
1695822008691,-0.031982422,-0.9768677,0.27386475,-0.6875,0.6875,-0.6875
1695822008750,-0.05102539,-0.9924927,0.2789917,-2.0625,0.25,-0.84375
1695822008753,-0.048828125,-0.975647,0.2819214,-2.328125,-0.890625,-1.609375
1695822008810,-0.059814453,-0.9871216,0.27923584,-3.1875,-1.484375,-0.046875
1695822008825,-0.05126953,-0.95977783,0.27069092,-4.71875,-1.046875,-1.890625
1695822008870,-0.034423828,-0.9993286,0.2802124,-2.25,4.21875,-1.421875
1695822008930,-0.053222656,-0.98883057,0.30194092,-0.46875,0.859375,-0.53125
1695822008945,-0.04272461,-0.94366455,0.2880249,-1.828125,1.546875,-0.921875
1695822008990,-0.06347656,-0.98883057,0.29144287,-2.59375,2.09375,-0.484375
1695822009050,-0.044677734,-0.956604,0.30706787,-1.21875,2.71875,-0.796875
1695822009065,-0.056640625,-0.9727173,0.30023193,-1.265625,1.0,-0.734375
1695822009110,-0.024169922,-0.9841919,0.33148193,-1.296875,1.296875,-2.328125
1695822009172,-0.05126953,-0.98687744,0.31243896,-1.171875,0.28125,-2.328125
1695822009186,-0.07739258,-0.9607544,0.28826904,-1.234375,0.03125,-2.390625
1695822009231,-0.084228516,-0.96954346,0.28753662,-2.578125,2.125,-0.78125
1695822009291,-0.07910156,-0.9776001,0.2999878,-1.171875,1.984375,0.078125
1695822009305,-0.055908203,-0.96881104,0.3204956,-1.75,2.0625,-0.421875
1695822009350,-0.06201172,-0.97735596,0.32659912,-2.78125,0.953125,-0.546875
1695822009411,-0.0769043,-0.9680786,0.3126831,-2.40625,3.6875,-0.21875
1695822009426,-0.051757812,-0.96588135,0.31341553,-4.3125,4.296875,0.578125
1695822009470,-0.06958008,-0.9668579,0.3217163,-1.046875,3.53125,0.8125
1695822009530,-0.06616211,-0.9602661,0.340271,-2.203125,4.015625,1.0
1695822009545,-0.048095703,-0.9710083,0.33221436,-2.203125,2.3125,0.625
1695822009590,-0.068115234,-0.9768677,0.338562,-0.15625,2.859375,-0.03125
1695822009621,-0.05908203,-0.9573364,0.33709717,1.640625,2.515625,-0.71875
1695822009666,-0.061035156,-0.9612427,0.32440186,1.640625,0.515625,0.15625
1695822009710,-0.06225586,-0.97052,0.33221436,1.46875,1.03125,0.6875
1695822009739,-0.05834961,-0.97540283,0.32122803,0.0,0.671875,0.890625
1695822009785,-0.05444336,-0.9644165,0.3222046,-0.328125,2.59375,0.671875
1695822009830,-0.07543945,-0.9800415,0.32269287,-0.21875,2.15625,2.109375
1695822009860,-0.05908203,-0.9607544,0.32391357,0.25,3.09375,1.640625
1695822009905,-0.04345703,-0.9639282,0.3163452,-0.828125,4.0,1.0625
1695822009951,-0.037597656,-0.9788208,0.34075928,-0.171875,3.15625,1.40625
1695822009980,-0.042236328,-0.96954346,0.32440186,-0.3125,1.859375,1.0
1695822010025,-0.037353516,-0.96881104,0.3300171,-0.171875,1.90625,0.84375
1695822010070,-0.047851562,-0.973938,0.33636475,0.921875,0.109375,1.109375
1695822010101,-0.036865234,-0.97076416,0.32318115,-0.25,0.078125,0.515625
1695822010145,-0.05810547,-0.97247314,0.31048584,-1.359375,2.140625,0.796875
1695822010191,-0.045654297,-0.98028564,0.33148193,-2.28125,1.671875,0.671875
1695822010220,0.005859375,-0.9541626,0.32073975,-1.265625,-1.25,-3.140625
1695822010265,-0.033203125,-0.97198486,0.34588623,0.09375,-3.421875,-2.828125
1695822010310,-0.08227539,-0.9690552,0.32269287,1.765625,-1.609375,-2.578125
1695822010341,-0.048339844,-0.96466064,0.32904053,1.6875,1.34375,-0.5
1695822010385,-0.03466797,-0.9627075,0.33636475,0.546875,0.03125,-1.640625
1695822010430,-0.08251953,-0.9717407,0.3217163,1.28125,-0.4375,-0.203125
1695822010461,-0.08105469,-0.97003174,0.33514404,-1.40625,1.09375,-0.921875
1695822010505,-0.06347656,-0.9783325,0.33831787,-0.15625,0.921875,-0.78125
1695822010551,-0.055908203,-0.97003174,0.31341553,-0.671875,-1.65625,-1.625
1695822010580,-0.057617188,-0.9846802,0.3131714,-0.3125,-0.421875,-1.703125
1695822010625,-0.059570312,-0.9714966,0.33026123,1.671875,-0.078125,-3.0625
1695822010671,-0.109375,-1.0115356,0.37249756,9.203125,-2.4375,-2.171875
1695822010700,-0.08642578,-0.9265747,0.27459717,1.578125,5.421875,0.453125
1695822010745,-0.039794922,-0.989563,0.35760498,1.03125,1.375,0.3125
1695822010790,-0.080078125,-0.97076416,0.3053589,-0.640625,1.21875,-1.734375
1695822010820,-0.099121094,-0.9771118,0.31097412,-0.578125,1.328125,-0.703125
1695822010866,-0.083984375,-0.9697876,0.307312,-0.46875,1.078125,-1.203125
1695822010910,-0.071777344,-0.9751587,0.30950928,-1.109375,0.375,-0.515625
1695822010940,-0.088378906,-0.9763794,0.31292725,-0.859375,0.859375,-1.734375
1695822010986,-0.08959961,-0.98028564,0.31951904,0.125,2.6875,-1.09375
1695822011030,-0.09082031,-0.9717407,0.32147217,0.421875,1.84375,-0.375
1695822011061,-0.103027344,-0.9771118,0.3143921,-0.640625,1.34375,0.203125
1695822011105,-0.08544922,-0.9793091,0.3143921,-0.890625,4.4375,0.203125
1695822011150,-0.07470703,-0.9607544,0.33050537,0.34375,1.46875,-0.09375
1695822011181,-0.08862305,-0.958313,0.324646,-0.1875,1.140625,-0.328125
1695822011225,-0.084228516,-0.9529419,0.3209839,0.296875,0.625,0.015625
1695822011270,-0.07836914,-0.96099854,0.33148193,0.828125,1.59375,0.875
1695822011300,-0.08666992,-0.9710083,0.32122803,-1.125,0.65625,-0.1875
1695822011331,-0.0859375,-0.9668579,0.32562256,1.234375,1.1875,-0.0625
1695822011390,-0.10083008,-0.9678345,0.31536865,-0.03125,0.78125,-0.84375
1695822011421,-0.095703125,-0.96466064,0.32244873,0.578125,1.984375,-0.234375
1695822011451,-0.08911133,-0.9805298,0.307312,1.53125,1.515625,-0.09375
1695822011510,-0.083740234,-0.9834595,0.31463623,-1.515625,1.515625,-0.734375
1695822011541,-0.0871582,-0.9746704,0.30926514,-3.546875,3.359375,-1.859375
1695822011570,-0.08886719,-0.9859009,0.32781982,-1.484375,2.484375,-0.765625
1695822011631,-0.096191406,-0.95635986,0.322937,-0.703125,2.015625,-0.265625
1695822011660,-0.100097656,-0.9607544,0.33270264,-0.484375,1.65625,0.125
1695822011691,-0.0859375,-0.97735596,0.33441162,1.828125,0.796875,-0.40625
1695822011751,-0.09057617,-0.9649048,0.31170654,2.421875,0.515625,0.21875
1695822011780,-0.09838867,-0.95758057,0.34246826,2.734375,-1.046875,0.140625
1695822011811,-0.111328125,-0.9717407,0.31488037,3.40625,-1.5,-0.515625
1695822011870,-0.09448242,-0.96221924,0.2850952,0.8125,0.953125,-1.265625
1695822011900,-0.08154297,-0.9793091,0.3151245,0.65625,1.359375,1.484375
1695822011930,-0.12036133,-1.0044556,0.28582764,-0.453125,2.84375,1.96875
1695822011990,-0.05419922,-0.95562744,0.32611084,-1.609375,7.71875,-1.5
1695822012020,-0.07543945,-1.0127563,0.291687,2.859375,0.984375,0.75
1695822012050,-0.12133789,-0.9846802,0.30999756,1.453125,0.265625,-0.53125
1695822012111,-0.13378906,-0.93292236,0.28729248,5.515625,2.828125,2.203125
1695822012126,-0.0871582,-0.987854,0.32611084,0.484375,5.90625,0.140625
1695822012170,-0.07080078,-0.9651489,0.2970581,4.4375,2.21875,2.359375
1695822012230,-0.05493164,-0.9824829,0.28997803,1.015625,0.40625,2.671875
1695822012245,-0.05859375,-0.95684814,0.2814331,0.609375,0.390625,0.734375
1695822012291,-0.087646484,-0.95147705,0.27850342,0.609375,-1.09375,1.46875
1695822012350,-0.07324219,-0.96417236,0.2694702,1.21875,-2.59375,1.453125
1695822012365,-0.09326172,-1.008606,0.29364014,1.953125,-1.28125,2.34375
1695822012410,-0.076660156,-1.0149536,0.29022217,4.078125,0.875,-0.421875
1695822012471,-0.06933594,-0.97979736,0.2531128,2.796875,-0.40625,-0.609375
1695822012485,-0.079589844,-0.96710205,0.277771,2.140625,0.671875,-0.546875
1695822012531,-0.08569336,-0.9627075,0.28167725,0.453125,-1.359375,-1.171875
1695822012591,-0.08642578,-0.9819946,0.2711792,-0.796875,-0.5,0.375
1695822012605,-0.08129883,-0.9854126,0.26068115,-0.921875,-0.875,0.28125
1695822012651,-0.08911133,-0.9807739,0.26922607,1.640625,1.171875,1.109375
1695822012711,-0.08300781,-0.97735596,0.27166748,0.625,-0.390625,0.28125
1695822012725,-0.0715332,-0.98394775,0.26678467,0.390625,-0.703125,0.765625
1695822012771,-0.08862305,-0.9793091,0.26190186,0.625,0.765625,0.9375
1695822012844,-0.072021484,-0.97784424,0.2658081,1.0625,0.65625,1.203125
1695822012847,-0.075927734,-0.9956665,0.2584839,1.125,0.40625,1.65625
1695822012891,-0.08569336,-0.9734497,0.2694702,2.03125,-0.6875,0.90625
1695822012919,-0.079833984,-0.9817505,0.2555542,1.3125,0.578125,1.453125
1695822012965,-0.072021484,-0.98931885,0.25115967,-0.046875,0.875,1.640625
1695822013010,-0.06933594,-1.0012817,0.260437,2.25,0.546875,1.6875
1695822013041,-0.06542969,-0.9710083,0.24945068,1.484375,0.015625,0.828125
1695822013086,-0.07470703,-0.9932251,0.25286865,0.453125,0.046875,1.765625
1695822013130,-0.07421875,-0.98760986,0.24798584,1.84375,-0.546875,1.484375
1695822013160,-0.068115234,-0.97857666,0.2555542,1.3125,-0.109375,1.703125
1695822013205,-0.060302734,-0.9939575,0.24407959,0.015625,-0.0625,1.609375
1695822013251,-0.06591797,-0.989563,0.24432373,0.9375,-0.125,1.40625
1695822013280,-0.05908203,-0.97979736,0.24432373,0.734375,-0.25,0.609375
1695822013326,-0.06323242,-0.9885864,0.24188232,0.109375,0.328125,0.515625
1695822013370,-0.05493164,-0.991272,0.23406982,1.171875,0.390625,0.5
1695822013401,-0.061523438,-0.98883057,0.23724365,1.21875,0.03125,1.046875
1695822013460,-0.05908203,-0.9829712,0.24871826,0.953125,0.84375,-0.171875
1695822013490,-0.06542969,-0.99542236,0.22723389,1.203125,0.5,1.59375
1695822013521,-0.047607422,-0.99053955,0.2345581,-0.8125,0.359375,-1.0
1695822013565,-0.07495117,-1.0039673,0.23675537,0.5625,1.0625,0.984375
1695822013610,-0.072021484,-0.98931885,0.23773193,0.078125,0.953125,-0.109375
1695822013640,-0.05493164,-0.9776001,0.22845459,-0.53125,1.015625,0.578125
1695822013685,-0.05493164,-1.0029907,0.23529053,-1.109375,0.53125,0.53125
1695822013730,-0.060058594,-0.9890747,0.24139404,0.046875,0.78125,0.71875
1695822013761,-0.067871094,-0.98809814,0.22943115,-0.984375,0.625,-0.28125
1695822013805,-0.05078125,-0.99224854,0.2501831,-1.421875,1.890625,0.765625
1695822013866,-0.06567383,-0.99591064,0.24359131,-1.359375,0.078125,0.359375
1695822013881,-0.060791016,-0.9776001,0.24285889,-2.078125,0.71875,0.015625
1695822013925,-0.052978516,-0.9924927,0.24920654,-1.96875,1.171875,0.15625
1695822013971,-0.060302734,-0.98931885,0.24847412,-2.21875,1.03125,0.296875
1695822014000,-0.06347656,-0.98760986,0.24554443,-0.90625,1.203125,0.328125
1695822014045,-0.057373047,-0.9783325,0.2489624,-0.625,0.75,-0.046875
1695822014090,-0.046875,-0.9849243,0.24725342,-1.078125,1.765625,-0.828125
1695822014121,-0.0625,-0.97857666,0.24920654,-0.921875,0.6875,-0.734375
1695822014165,-0.0703125,-0.9849243,0.2633667,0.25,1.921875,0.09375
1695822014210,-0.057617188,-0.97857666,0.24969482,-2.234375,0.9375,-0.828125
1695822014240,-0.056884766,-0.99102783,0.26141357,-3.09375,1.015625,-0.421875
1695822014285,-0.05419922,-0.9873657,0.27044678,-1.140625,0.34375,-0.328125
1695822014330,-0.063964844,-0.98516846,0.26141357,-0.640625,0.953125,-0.8125
1695822014375,-0.06689453,-0.9788208,0.26654053,-0.890625,1.1875,0.125
1695822014406,-0.06616211,-0.9746704,0.26312256,-0.375,0.828125,0.125
1695822014449,-0.05419922,-0.99102783,0.25750732,-0.859375,2.125,-0.390625
1695822014480,-0.060302734,-0.9883423,0.26605225,-0.578125,1.234375,-0.1875
1695822014510,-0.07299805,-0.9783325,0.26361084,0.0,1.75,0.234375
1695822014570,-0.0637207,-0.97735596,0.260437,-0.625,2.515625,-0.109375
1695822014600,-0.057617188,-0.99224854,0.2645874,-0.875,1.609375,0.40625
1695822014631,-0.050048828,-0.9776001,0.28045654,-0.125,1.453125,-1.0625
1695822014691,-0.0859375,-0.9837036,0.24383545,-0.484375,0.125,0.453125
1695822014720,-0.04736328,-0.97491455,0.27923584,-1.453125,2.65625,-1.15625
1695822014750,-0.063964844,-0.9961548,0.28289795,-0.9375,1.203125,-0.296875
1695822014810,-0.0690918,-0.98760986,0.2789917,-1.421875,0.140625,-1.34375
1695822014840,-0.06933594,-0.96221924,0.26239014,-0.96875,0.828125,0.046875
1695822014871,-0.064697266,-0.9812622,0.27972412,-0.890625,1.015625,-0.34375
1695822014930,-0.06616211,-0.9758911,0.27435303,0.203125,1.421875,-0.625
1695822014959,-0.076416016,-0.9776001,0.28045654,-0.109375,0.78125,-0.1875
1695822014990,-0.06518555,-0.9927368,0.2838745,0.390625,1.3125,0.546875
1695822015050,-0.063964844,-0.9697876,0.27703857,-0.484375,1.078125,-0.5625
1695822015080,-0.072265625,-0.98565674,0.27435303,-0.15625,1.625,0.203125
1695822015110,-0.068847656,-0.9788208,0.27850342,0.59375,0.359375,-0.046875
1695822015171,-0.072509766,-0.97662354,0.27288818,0.6875,2.09375,0.25
1695822015231,-0.064453125,-0.98150635,0.27166748,0.40625,1.234375,0.609375
1695822015234,-0.06591797,-0.9763794,0.28460693,0.21875,1.34375,-0.265625
1695822015290,-0.068603516,-0.9932251,0.27069092,-0.4375,1.078125,-0.109375
1695822015306,-0.055908203,-0.97662354,0.2723999,1.578125,-0.453125,-0.921875
1695822015350,-0.07055664,-0.98272705,0.2579956,-0.578125,-0.34375,-0.078125
1695822015410,-0.07055664,-0.9985962,0.27801514,-1.203125,-0.65625,-0.890625
1695822015425,-0.08203125,-0.9951782,0.27679443,0.921875,-1.0625,-0.421875
1695822015470,-0.09082031,-0.95440674,0.24847412,-0.46875,0.453125,-0.046875
1695822015531,-0.08862305,-0.99468994,0.2584839,-0.578125,3.5,2.03125
1695822015545,-0.064453125,-0.9883423,0.2838745,0.515625,2.96875,1.234375
1695822015590,-0.05493164,-0.97491455,0.27923584,1.671875,1.96875,0.28125
1695822015650,-0.060058594,-0.98150635,0.27191162,0.875,0.796875,-0.046875
1695822015664,-0.07299805,-0.989563,0.2699585,-0.65625,0.609375,0.53125
1695822015711,-0.07055664,-0.98443604,0.25531006,-0.546875,1.640625,0.921875
1695822015770,-0.064453125,-0.9800415,0.26898193,-0.421875,1.875,0.6875
1695822015785,-0.06689453,-0.9920044,0.26776123,-0.734375,1.078125,0.484375
1695822015830,-0.06225586,-0.9817505,0.26507568,0.25,0.0,0.296875
1695822015891,-0.07446289,-0.9776001,0.2658081,-0.984375,0.4375,0.390625
1695822015906,-0.064697266,-0.99053955,0.26434326,-1.390625,2.015625,0.734375
1695822015950,-0.06591797,-0.9883423,0.27435303,-2.09375,1.515625,1.015625
1695822016011,-0.057128906,-0.97247314,0.2892456,-0.46875,0.625,0.453125
1695822016025,-0.053710938,-0.9727173,0.27069092,-0.140625,0.078125,0.0625
1695822016070,-0.075927734,-0.9871216,0.28338623,-1.96875,-0.0625,0.296875
1695822016100,-0.07885742,-1.0071411,0.28533936,0.515625,2.9375,1.109375
1695822016145,-0.055419922,-0.9714966,0.28070068,-0.78125,0.859375,-0.5
1695822016190,-0.056640625,-0.9651489,0.2670288,-0.921875,1.328125,-0.6875
1695822016221,-0.03857422,-0.98394775,0.2826538,-0.3125,0.78125,-0.390625
1695822016266,-0.034179688,-0.98272705,0.2819214,0.71875,-1.96875,-1.109375
1695822016326,-0.103759766,-0.9429321,0.22821045,-0.578125,-1.796875,1.109375
1695822016356,-0.12695312,-1.0007935,0.293396,-2.46875,4.4375,2.90625
1695822016386,-0.05493164,-1.0093384,0.31097412,-1.078125,4.640625,0.640625
1695822016430,-0.018310547,-0.97979736,0.2904663,-0.1875,0.28125,-1.296875
1695822016460,-0.04663086,-0.96417236,0.2880249,-1.171875,-2.734375,-3.4375
1695822016505,-0.076171875,-0.972229,0.26849365,0.28125,-0.5625,-0.21875
1695822016550,-0.07446289,-0.9668579,0.2897339,1.34375,0.9375,1.15625
1695822016580,-0.05859375,-0.9807739,0.29486084,1.375,0.609375,1.546875
1695822016625,-0.072509766,-1.0010376,0.2958374,0.90625,-0.1875,0.84375
1695822016671,-0.096191406,-0.9834595,0.2682495,0.8125,-0.953125,-0.25
1695822016700,-0.08642578,-0.9690552,0.26507568,-1.453125,1.8125,-0.796875
1695822016746,-0.07128906,-0.9927368,0.2741089,-1.609375,1.65625,0.703125
1695822016790,-0.060546875,-0.9734497,0.2819214,-0.375,2.96875,-0.109375
1695822016821,-0.052001953,-0.9678345,0.27825928,-0.234375,2.1875,0.328125
1695822016865,-0.052246094,-0.9824829,0.28875732,-0.421875,0.375,-0.046875
1695822016909,-0.07788086,-0.97735596,0.28338623,1.140625,0.59375,-0.03125
1695822016940,-0.06738281,-0.9771118,0.28485107,0.328125,1.171875,0.53125
1695822016985,-0.06201172,-0.9883423,0.28460693,-0.03125,1.0625,-0.078125
1695822017030,-0.068847656,-0.9780884,0.28118896,0.796875,0.0,-0.375
1695822017060,-0.068847656,-0.98272705,0.27972412,0.71875,2.25,-0.125
1695822017105,-0.0690918,-0.9807739,0.27093506,1.28125,1.421875,0.046875
1695822017150,-0.047851562,-0.98272705,0.28338623,2.4375,1.8125,0.234375
1695822017180,-0.07128906,-0.99053955,0.27703857,2.828125,0.265625,-0.9375
1695822017225,-0.07128906,-0.9692993,0.28875732,-0.453125,2.09375,-1.90625
1695822017271,-0.08251953,-0.9890747,0.25115967,-0.265625,0.484375,-0.109375
1695822017300,-0.07714844,-1.0005493,0.2892456,0.09375,0.171875,-1.015625
1695822017344,-0.0871582,-0.98150635,0.2501831,-0.875,1.03125,-0.796875
1695822017390,-0.0859375,-0.9890747,0.28363037,-0.59375,1.734375,0.0
1695822017420,-0.095458984,-0.9800415,0.2723999,0.03125,1.15625,-0.21875
1695822017466,-0.068115234,-0.9829712,0.2711792,-0.609375,2.78125,-0.25
1695822017511,-0.068359375,-0.97979736,0.26922607,-0.078125,1.96875,0.9375
1695822017540,-0.067871094,-0.9812622,0.2802124,-0.640625,1.140625,0.015625
1695822017585,-0.06567383,-0.9800415,0.2753296,0.0,1.515625,-0.296875
1695822017630,-0.07080078,-0.9783325,0.27386475,-0.25,0.375,0.0625
1695822017661,-0.07373047,-0.9793091,0.28070068,-0.1875,0.46875,-0.3125
1695822017705,-0.079589844,-0.99298096,0.27142334,2.6875,1.828125,-0.1875
1695822017751,-0.07373047,-0.9859009,0.2789917,2.015625,1.296875,-0.59375
1695822017781,-0.08691406,-0.9746704,0.25579834,2.5625,0.265625,-0.5625
1695822017810,-0.09399414,-0.9673462,0.2633667,1.125,2.546875,0.78125
1695822017872,-0.075927734,-0.99102783,0.26654053,-0.859375,1.84375,0.84375
1695822017900,-0.068603516,-0.9849243,0.26068115,-0.234375,-1.140625,1.21875
1695822017930,-0.07104492,-0.9993286,0.260437,-0.1875,0.90625,-0.09375
1695822017990,-0.07470703,-0.9702759,0.24798584,-1.125,-1.578125,-0.1875
1695822018020,-0.08203125,-0.99298096,0.23626709,0.8125,1.796875,0.390625
1695822018050,-0.0769043,-1.0076294,0.29412842,-1.203125,3.421875,0.859375
1695822018111,-0.080322266,-0.9678345,0.262146,1.828125,1.1875,0.8125
1695822018140,-0.08203125,-0.9741821,0.27947998,0.578125,1.953125,-0.328125
1695822018170,-0.07470703,-0.9937134,0.25897217,1.609375,1.171875,-0.515625
1695822018230,-0.05834961,-0.9824829,0.25335693,4.15625,2.453125,0.15625
1695822018261,-0.05834961,-0.9795532,0.2694702,5.765625,0.484375,2.21875
1695822018292,-0.103271484,-0.9793091,0.23260498,-0.6875,0.71875,2.671875
1695822018350,-0.10644531,-0.9951782,0.2538452,-3.890625,3.625,5.140625
1695822018380,-0.07788086,-1.0767212,0.24945068,-7.5,10.28125,4.421875
1695822018410,0.040527344,-0.9360962,0.23968506,1.640625,-1.1875,-2.921875
1695822018470,-0.068115234,-0.960022,0.26556396,-0.515625,8.203125,1.984375
1695822018501,-0.099609375,-0.9949341,0.2994995,-2.984375,1.453125,0.53125
1695822018530,-0.0390625,-0.9585571,0.27581787,2.859375,0.6875,-1.28125
1695822018591,-0.0061035156,-0.96051025,0.29559326,-1.5,1.5,0.9375
1695822018606,-0.028076172,-0.9968872,0.27093506,-3.25,-1.328125,-1.296875
1695822018651,-0.061035156,-0.9854126,0.25823975,-0.546875,-1.625,-1.671875
1695822018711,-0.06347656,-0.9727173,0.23797607,1.9375,0.484375,-0.875
1695822018726,-0.059814453,-0.94659424,0.23065186,-0.1875,-1.796875,-1.203125
1695822018770,-0.061035156,-0.97076416,0.2567749,0.5625,-1.21875,0.421875
1695822018830,-0.076660156,-1.0064087,0.26971436,0.3125,-0.6875,0.46875
1695822018845,-0.07470703,-0.98321533,0.28045654,2.5,-0.625,0.09375
1695822018891,-0.08544922,-0.9685669,0.25091553,0.953125,-0.140625,0.015625
1695822018950,-0.064941406,-0.9846802,0.2633667,1.0,1.0625,-0.203125
1695822018965,-0.064208984,-1.000061,0.24749756,-0.375,0.390625,-0.421875
1695822019010,-0.059814453,-0.9944458,0.25213623,0.8125,0.828125,-0.828125
1695822019055,-0.06982422,-0.98101807,0.2567749,1.21875,0.515625,-0.78125
1695822019085,-0.06713867,-0.9771118,0.24578857,0.3125,0.40625,-0.75
1695822019131,-0.07104492,-0.98272705,0.24383545,-0.6875,-0.484375,0.359375
1695822019191,-0.068115234,-0.98272705,0.25579834,-0.3125,-0.609375,-0.5
1695822019206,-0.0859375,-1.0044556,0.2694702,1.046875,0.0,0.3125
1695822019250,-0.08251953,-0.9885864,0.24359131,-2.09375,0.625,-0.65625
1695822019311,-0.07788086,-0.99053955,0.2633667,0.0625,2.046875,-0.1875
1695822019325,-0.07763672,-0.9841919,0.26409912,-0.109375,0.09375,0.375
1695822019370,-0.0769043,-0.98394775,0.2501831,0.171875,0.859375,0.6875
1695822019401,-0.063964844,-0.9834595,0.25653076,0.171875,1.125,0.046875
1695822019446,-0.06567383,-0.99176025,0.24920654,-0.859375,0.65625,0.65625
1695822019490,-0.07104492,-0.9751587,0.2609253,-0.703125,0.453125,0.46875
1695822019520,-0.087402344,-0.9763794,0.25335693,0.96875,0.265625,1.703125
1695822019565,-0.068115234,-0.9932251,0.2555542,0.3125,0.96875,1.828125
1695822019611,-0.045166016,-1.0059204,0.25482178,0.421875,0.359375,-0.28125
1695822019641,-0.07519531,-0.98809814,0.2526245,0.90625,-0.015625,0.859375
1695822019747,-0.095214844,-0.98443604,0.246521,0.75,1.65625,0.34375
1695822019750,-0.06542969,-0.98394775,0.24578857,0.359375,0.921875,1.5625
1695822019761,-0.049804688,-0.9819946,0.25897217,-0.1875,-0.125,0.4375
1695822019821,-0.07519531,-0.99542236,0.26287842,1.859375,0.84375,1.734375
1695822019851,-0.049072266,-0.9763794,0.24212646,-1.171875,0.453125,-0.34375
1695822019879,-0.071777344,-0.99176025,0.2538452,0.734375,0.734375,1.90625
1695822019926,-0.07324219,-0.98809814,0.25115967,0.625,0.046875,1.015625
1695822019971,-0.04321289,-0.98394775,0.23846436,0.015625,0.125,0.34375
1695822020000,-0.04736328,-0.99591064,0.24359131,-0.484375,-0.46875,0.453125
1695822020045,-0.06958008,-0.9837036,0.24407959,0.96875,0.1875,-0.078125
1695822020090,-0.07373047,-0.9771118,0.23822021,-0.5625,0.5625,-0.140625
1695822020120,-0.06347656,-0.9771118,0.24945068,-0.5,0.484375,0.703125
1695822020166,-0.08105469,-1.0010376,0.2567749,-0.734375,0.5625,1.078125
1695822020210,-0.0715332,-0.9939575,0.23553467,-0.953125,0.921875,0.515625
1695822020241,-0.04711914,-0.99053955,0.24676514,-0.375,1.78125,1.0
1695822020285,-0.051757812,-0.98272705,0.2555542,-0.375,1.109375,0.625
1695822020330,-0.060791016,-0.986145,0.25213623,-0.21875,0.65625,0.875
1695822020361,-0.038330078,-0.97857666,0.25482178,0.28125,0.890625,-0.125
1695822020404,-0.06201172,-0.9981079,0.2538452,-0.40625,0.484375,0.796875
1695822020451,-0.052978516,-0.9788208,0.24481201,-2.203125,0.203125,-1.71875
1695822020480,-0.07373047,-0.9976196,0.25823975,-0.5,1.0625,0.71875
1695822020526,-0.06201172,-0.9873657,0.262146,-0.1875,1.21875,-0.171875
1695822020571,-0.052734375,-0.9788208,0.24481201,-0.40625,1.125,-0.375
1695822020600,-0.06958008,-0.9939575,0.24700928,-1.4375,1.09375,-0.1875
1695822020646,-0.055664062,-0.99346924,0.26263428,-0.875,0.828125,0.046875
1695822020691,-0.06689453,-0.9788208,0.2543335,-0.609375,0.96875,-0.375
1695822020720,-0.06665039,-0.989563,0.25213623,-1.296875,1.625,0.609375
1695822020766,-0.057373047,-0.98394775,0.26263428,-0.546875,1.21875,0.203125
1695822020810,-0.053466797,-0.9776001,0.2675171,-1.1875,1.265625,-0.421875
1695822020841,-0.06298828,-0.9907837,0.26361084,-0.921875,0.78125,0.359375
1695822020931,-0.06567383,-0.9829712,0.26654053,0.140625,0.59375,0.25
1695822020934,-0.06542969,-0.9795532,0.26434326,-1.1875,1.328125,0.296875
1695822020960,-0.052246094,-0.99005127,0.2694702,-0.984375,1.296875,-0.484375
1695822020990,-0.06201172,-0.9841919,0.26263428,0.234375,1.046875,0.46875
1695822021050,-0.06616211,-0.9661255,0.2802124,-0.8125,0.390625,-0.484375
1695822021080,-0.07348633,-0.98687744,0.26263428,-1.546875,0.46875,1.171875
1695822021111,-0.051513672,-0.9805298,0.27386475,-3.03125,1.625,-1.328125
1695822021171,-0.059814453,-1.006897,0.27288818,-1.0,2.40625,-0.046875
1695822021201,-0.06567383,-0.9866333,0.27215576,-0.046875,1.6875,-1.171875
1695822021230,-0.060058594,-0.97613525,0.26605225,-0.8125,2.421875,-1.015625
1695822021291,-0.06689453,-0.98223877,0.26556396,-1.34375,1.390625,0.0625
1695822021320,-0.0690918,-0.9819946,0.277771,-1.609375,1.140625,0.609375
1695822021351,-0.06738281,-0.98565674,0.2850952,-1.296875,0.859375,0.65625
1695822021411,-0.06616211,-0.99053955,0.2880249,-0.34375,0.25,0.78125
1695822021441,-0.061035156,-0.97979736,0.27191162,-0.609375,-0.890625,0.40625
1695822021470,-0.043945312,-0.9800415,0.28411865,2.609375,2.640625,-1.703125
1695822021530,-0.06616211,-0.97979736,0.29315186,3.734375,1.296875,-0.84375
1695822021560,-0.072753906,-0.98101807,0.2748413,6.265625,2.15625,-0.515625
1695822021590,-0.0546875,-0.9690552,0.25604248,6.234375,1.4375,-1.453125
1695822021650,-0.064941406,-0.9824829,0.24700928,5.984375,1.390625,0.390625
1695822021681,-0.09863281,-0.9968872,0.25164795,3.4375,0.734375,0.953125
1695822021710,-0.057373047,-0.9898071,0.21429443,-2.96875,6.28125,-2.484375
1695822021771,-0.051757812,-1.0093384,0.2453003,2.25,10.890625,-2.40625
1695822021785,-0.06762695,-0.9951782,0.22869873,-5.609375,3.703125,-1.296875
1695822021830,-0.10864258,-0.94073486,0.26239014,-0.84375,1.609375,-0.96875
1695822021890,-0.06323242,-0.96051025,0.2670288,-5.328125,2.46875,-0.171875
1695822021905,-0.07543945,-0.98272705,0.27020264,-0.828125,-1.421875,2.71875
1695822021950,-0.08959961,-0.9793091,0.2765503,1.5,-2.71875,2.609375
1695822022011,-0.04736328,-0.98565674,0.24578857,0.640625,2.171875,1.328125
1695822022026,-0.020263672,-1.0169067,0.25775146,0.0,-0.109375,-0.3125
1695822022070,-0.087646484,-1.0054321,0.2579956,1.859375,-0.484375,-0.203125
1695822022130,-0.099365234,-0.96221924,0.24920654,0.46875,1.3125,-1.90625
1695822022146,-0.059326172,-0.96881104,0.2489624,-0.71875,1.5,0.28125
1695822022191,-0.075683594,-1.0049438,0.2579956,-0.5625,-0.53125,0.921875
1695822022250,-0.08618164,-1.003479,0.2633667,-0.234375,1.21875,0.5625
1695822022265,-0.060302734,-0.9829712,0.25994873,0.046875,0.703125,0.21875
1695822022311,-0.06201172,-0.9841919,0.2453003,-0.28125,1.34375,0.28125
1695822022371,-0.06616211,-0.98028564,0.25238037,-0.78125,0.078125,-0.859375
1695822022386,-0.06567383,-0.989563,0.2538452,-0.296875,-0.109375,-0.671875
1695822022430,-0.07885742,-0.97540283,0.2518921,-1.3125,0.75,-0.625
1695822022490,-0.07910156,-0.9951782,0.26531982,-0.25,0.953125,0.953125
1695822022505,-0.07104492,-0.98394775,0.25726318,-1.421875,0.515625,-0.15625
1695822022550,-0.0637207,-0.97979736,0.26019287,-1.09375,0.453125,-0.3125
1695822022610,-0.07739258,-0.99102783,0.2670288,-1.15625,0.5625,0.0625
1695822022626,-0.06738281,-0.9751587,0.2633667,0.125,0.9375,-0.25
1695822022671,-0.075683594,-0.9805298,0.25897217,-1.46875,1.40625,0.421875
1695822022701,-0.07080078,-0.98101807,0.2741089,-1.03125,0.640625,0.234375
1695822022745,-0.076416016,-0.98028564,0.26385498,-1.3125,0.703125,-0.046875
1695822022790,-0.07470703,-0.98565674,0.27337646,-0.109375,1.140625,0.21875
1695822022866,-0.07543945,-0.97857666,0.26409912,-0.1875,0.96875,0.171875
1695822022868,-0.07348633,-0.9795532,0.2694702,-0.390625,0.796875,0.296875
1695822022910,-0.07543945,-0.98150635,0.26971436,-0.171875,0.453125,0.546875
1695822022939,-0.07299805,-0.98638916,0.26922607,-0.515625,1.203125,-0.390625
1695822022986,-0.07910156,-0.9795532,0.27020264,0.25,0.234375,0.546875
1695822023031,-0.068115234,-0.9795532,0.25994873,-1.8125,1.0,-0.734375
1695822023060,-0.076171875,-0.98516846,0.2789917,-0.21875,1.703125,0.296875
1695822023104,-0.0793457,-0.98321533,0.277771,-0.625,0.671875,-0.015625
1695822023150,-0.07324219,-0.9771118,0.2675171,-1.296875,1.0,-0.1875
1695822023180,-0.07299805,-0.99420166,0.26849365,-0.8125,1.109375,-0.140625
1695822023226,-0.076171875,-0.98760986,0.27972412,-1.46875,1.234375,-0.328125
1695822023270,-0.076660156,-0.973938,0.27923584,-1.0,0.546875,-0.46875
1695822023301,-0.07763672,-0.973938,0.27386475,-1.0625,1.40625,0.234375
1695822023346,-0.07421875,-0.97491455,0.2850952,-0.578125,0.546875,0.078125
1695822023391,-0.07885742,-0.9668579,0.28631592,-0.609375,0.25,1.484375
1695822023421,-0.08154297,-1.010315,0.28485107,-1.453125,1.25,0.28125
1695822023465,-0.059326172,-1.00177,0.2868042,-1.359375,2.0625,-0.59375
1695822023510,-0.07495117,-0.954895,0.28656006,1.015625,1.53125,-2.234375
1695822023541,-0.088134766,-0.9536743,0.25946045,-1.171875,1.390625,0.53125
1695822023586,-0.06347656,-0.98931885,0.28851318,-1.484375,1.46875,1.390625
1695822023630,-0.059814453,-0.9854126,0.29925537,0.09375,-0.625,0.09375
1695822023660,-0.095703125,-0.98443604,0.2741089,0.3125,0.359375,-0.421875
1695822023706,-0.07861328,-0.98516846,0.28704834,0.625,1.625,0.328125
1695822023751,-0.09423828,-0.986145,0.27874756,-1.796875,2.015625,0.703125
1695822023781,-0.06567383,-0.97003174,0.2789917,-0.5625,3.703125,-0.078125
1695822023825,-0.05517578,-0.9783325,0.30340576,-1.640625,2.0,0.25
1695822023871,-0.07470703,-0.9807739,0.29559326,-0.921875,0.09375,0.34375
1695822023900,-0.1081543,-0.97369385,0.276062,-0.625,1.0,-0.375
1695822023944,-0.08105469,-0.9841919,0.29412842,-1.875,1.828125,1.125
1695822023991,-0.06958008,-0.9788208,0.30267334,-1.171875,0.5625,-0.296875
1695822024021,-0.079833984,-0.9729614,0.29364014,-0.984375,1.015625,0.046875
1695822024065,-0.06713867,-0.97247314,0.29681396,-0.03125,1.171875,0.234375
1695822024110,-0.06640625,-0.9837036,0.28729248,-0.484375,0.90625,0.421875
1695822024140,-0.08105469,-0.9741821,0.29656982,-0.59375,0.78125,0.40625
1695822024185,-0.07519531,-0.9751587,0.2946167,-0.8125,1.453125,0.609375
1695822024231,-0.07836914,-0.97784424,0.2999878,-0.25,0.71875,0.625
1695822024260,-0.061767578,-0.97076416,0.3065796,1.265625,1.15625,-0.765625
1695822024290,-0.067871094,-0.98809814,0.2789917,1.015625,1.109375,-0.859375
1695822024350,-0.064453125,-0.9702759,0.29852295,-0.859375,0.5625,-1.734375
1695822024381,-0.10546875,-0.98272705,0.2946167,-0.640625,-0.578125,0.65625
1695822024410,-0.08911133,-0.9710083,0.2994995,0.21875,2.03125,-0.53125
1695822024470,-0.083496094,-0.9729614,0.29730225,0.3125,1.921875,1.125
1695822024500,-0.07861328,-0.99005127,0.29534912,1.453125,0.28125,1.90625
1695822024530,-0.07128906,-0.9783325,0.29437256,2.875,1.125,0.765625
1695822024590,-0.06567383,-0.9692993,0.28948975,1.53125,1.9375,0.328125
1695822024620,-0.059326172,-0.98443604,0.29119873,2.109375,-0.0625,0.96875
1695822024650,-0.067871094,-0.9793091,0.28704834,2.125,-2.234375,0.203125
1695822024710,-0.09008789,-0.98809814,0.26800537,1.3125,0.171875,0.734375
1695822024741,-0.061279297,-0.97247314,0.27996826,1.359375,0.5625,0.125
1695822024770,-0.07763672,-0.99053955,0.2765503,2.875,1.953125,0.703125
1695822024830,-0.08203125,-0.99224854,0.27264404,3.71875,2.953125,0.640625
1695822024861,-0.1081543,-1.0010376,0.26605225,21.0625,2.859375,5.546875
1695822024890,-0.05029297,-0.9885864,0.1515503,2.296875,-2.46875,5.859375
1695822024951,-0.0031738281,-0.913147,0.24041748,-2.484375,5.875,-0.453125
1695822024981,-0.091796875,-1.024231,0.29119873,-4.484375,5.15625,1.4375
1695822025011,-0.016601562,-0.9570923,0.2670288,-3.0625,0.640625,-0.390625
1695822025070,-0.019042969,-0.94366455,0.27069092,-4.984375,-1.390625,-1.859375
1695822025085,-0.056152344,-1.0112915,0.26409912,-5.78125,-4.140625,-1.03125
1695822025130,-0.08618164,-1.0081177,0.276062,-0.171875,0.921875,-0.46875
1695822025191,-0.035888672,-0.9690552,0.23406982,-1.609375,0.8125,-3.875
1695822025205,-0.061767578,-0.9873657,0.24627686,-1.6875,0.578125,-1.40625
1695822025250,-0.09423828,-0.9768677,0.26605225,-0.875,-0.484375,-2.25
1695822025311,-0.09790039,-0.97491455,0.2682495,-0.5,1.359375,-1.71875
1695822025325,-0.08325195,-0.9963989,0.27703857,0.03125,1.15625,-1.578125
1695822025370,-0.092285156,-0.9932251,0.26678467,0.046875,1.75,-1.125
1695822025416,-0.087402344,-0.9685669,0.25823975,1.203125,1.984375,-0.453125
1695822025446,-0.07080078,-0.9927368,0.26507568,0.9375,1.875,0.078125
1695822025490,-0.07714844,-0.98272705,0.26776123,-0.21875,-0.984375,0.34375
1695822025550,-0.07763672,-0.9783325,0.27191162,0.609375,0.90625,0.671875
1695822025566,-0.07519531,-0.9734497,0.2567749,-1.84375,1.234375,0.265625
1695822025613,-0.080078125,-0.987854,0.26776123,-0.1875,0.984375,1.171875
1695822025670,-0.076171875,-0.97247314,0.2687378,0.46875,0.96875,-0.203125
1695822025686,-0.07861328,-0.9729614,0.2736206,-0.203125,0.75,-0.09375
1695822025730,-0.08203125,-0.98223877,0.27093506,0.3125,0.515625,0.390625
1695822025791,-0.080078125,-0.98028564,0.26800537,0.125,-0.265625,0.671875
1695822025805,-0.08251953,-0.9776001,0.2711792,-1.296875,1.1875,0.828125
1695822025851,-0.080078125,-0.98516846,0.276062,-0.46875,1.078125,0.3125
1695822025881,-0.057373047,-0.98272705,0.26141357,-0.640625,1.40625,-0.8125
1695822025925,-0.061035156,-0.99591064,0.26776123,0.453125,0.453125,-0.875
1695822025970,-0.09765625,-0.98101807,0.2723999,1.46875,0.09375,-0.53125
1695822026000,-0.078125,-0.9727173,0.2616577,0.890625,0.890625,-0.203125
1695822026046,-0.0690918,-0.9837036,0.26776123,0.578125,1.46875,0.25
1695822026090,-0.09350586,-0.98101807,0.2597046,1.109375,0.359375,0.9375
1695822026135,-0.0793457,-0.97857666,0.26361084,-0.21875,0.46875,-0.03125
1695822026165,-0.08227539,-0.98028564,0.26141357,-1.34375,1.375,0.078125
1695822026211,-0.09326172,-0.9956665,0.27557373,1.03125,1.046875,0.546875
1695822026240,-0.06738281,-0.97052,0.25823975,0.40625,0.84375,-0.5625
1695822026286,-0.06616211,-0.989563,0.25531006,-0.28125,0.671875,-0.0625
1695822026330,-0.0847168,-0.9937134,0.2682495,0.703125,-0.171875,0.53125
1695822026360,-0.09082031,-0.9788208,0.25579834,-0.09375,0.0625,-0.03125
1695822026405,-0.087890625,-0.98223877,0.26483154,-0.25,1.25,0.859375
1695822026451,-0.08081055,-0.9885864,0.26385498,-0.046875,0.71875,0.515625
1695822026480,-0.079589844,-0.98223877,0.25823975,0.640625,0.796875,0.046875
1695822026541,-0.079589844,-0.9817505,0.2597046,0.515625,0.75,-0.046875
1695822026571,-0.08300781,-0.9849243,0.26239014,0.53125,1.5,0.0625
1695822026601,-0.08276367,-0.98443604,0.2597046,0.625,0.359375,0.828125
1695822026645,-0.068603516,-0.9841919,0.26849365,-0.34375,1.703125,-0.40625
1695822026705,-0.08666992,-0.99542236,0.2584839,-0.109375,-0.53125,0.265625
1695822026721,-0.07128906,-0.9783325,0.25335693,0.359375,0.625,-1.140625
1695822026765,-0.09838867,-0.9795532,0.2609253,0.875,1.515625,0.265625
1695822026811,-0.08129883,-0.99005127,0.26361084,0.359375,1.734375,0.65625
1695822026841,-0.07470703,-0.9692993,0.25213623,0.1875,1.234375,-0.21875
1695822026885,-0.087646484,-1.0022583,0.24993896,-0.8125,1.140625,0.8125
1695822026930,-0.083984375,-0.9873657,0.26019287,-0.84375,1.109375,0.984375
1695822026961,-0.08569336,-0.989563,0.260437,-5.265625,0.21875,0.484375
1695822027006,-0.07714844,-0.9807739,0.2526245,-8.671875,-1.484375,-1.015625
1695822027050,-0.06982422,-0.987854,0.30511475,-1.453125,1.5625,0.953125
1695822027080,-0.064697266,-0.96051025,0.26800537,-2.734375,-0.5625,-0.59375
1695822027124,-0.07885742,-0.9692993,0.2831421,-2.46875,1.109375,0.359375
1695822027186,-0.072021484,-0.98687744,0.29852295,-0.578125,0.90625,0.53125
1695822027201,-0.08544922,-0.9702759,0.28753662,1.078125,0.828125,0.078125
1695822027247,-0.0769043,-0.98638916,0.27581787,-1.03125,1.625,0.234375
1695822027290,-0.08642578,-0.9692993,0.29510498,1.21875,0.546875,1.140625
1695822027320,-0.06762695,-0.98443604,0.27801514,-0.28125,2.28125,-0.65625
1695822027410,-0.084472656,-0.98223877,0.28851318,0.03125,1.96875,0.6875
1695822027413,-0.088378906,-0.9846802,0.28997803,1.03125,1.34375,0.5625
1695822027441,-0.07421875,-0.9541626,0.27313232,0.75,1.859375,-0.15625
1695822027471,-0.064208984,-0.99053955,0.27679443,0.03125,2.0,0.34375
1695822027530,-0.078125,-0.9927368,0.2789917,0.171875,0.328125,0.359375
1695822027560,-0.08105469,-0.9783325,0.27801514,1.1875,1.25,-0.546875
1695822027590,-0.08251953,-0.97906494,0.27313232,-0.3125,1.484375,0.5625
1695822027650,-0.08276367,-0.9819946,0.2819214,-1.5,0.984375,-0.21875
1695822027681,-0.080322266,-0.97442627,0.277771,-2.046875,1.203125,-0.140625
1695822027710,-0.07910156,-0.9771118,0.28485107,-1.859375,2.0625,-0.421875
1695822027770,-0.07763672,-0.9685669,0.29656982,-0.5625,1.546875,0.28125
1695822027800,-0.087646484,-0.97125244,0.28460693,-0.453125,1.34375,0.609375
1695822027829,-0.064208984,-0.98760986,0.29071045,0.453125,2.484375,0.65625
1695822027891,-0.061523438,-0.98321533,0.293396,1.109375,1.078125,-0.625
1695822027920,-0.09277344,-0.9812622,0.2802124,0.484375,1.03125,0.296875
1695822027950,-0.068603516,-0.9702759,0.2802124,-0.21875,1.890625,-0.640625
1695822027996,-0.07543945,-0.9854126,0.3007202,0.625,1.734375,1.53125
1695822028040,-0.072021484,-0.97979736,0.28118896,0.25,0.53125,-0.03125
1695822028072,-0.07080078,-0.9795532,0.27679443,-0.59375,1.5625,0.609375
1695822028130,-0.067871094,-0.98394775,0.29315186,0.453125,1.046875,0.765625
1695822028160,-0.07861328,-0.98101807,0.28631592,0.15625,0.546875,0.28125
1695822028189,-0.084472656,-0.97491455,0.2892456,0.0625,1.71875,1.640625
1695822028250,-0.06665039,-0.9819946,0.28167725,-0.53125,2.328125,-0.171875
1695822028265,-0.05493164,-0.98028564,0.29486084,-1.234375,1.78125,0.0
1695822028311,-0.08862305,-0.97662354,0.27972412,-1.296875,0.78125,-0.21875
1695822028370,-0.06689453,-0.9697876,0.2819214,0.03125,2.28125,0.3125
1695822028386,-0.0546875,-0.9819946,0.29388428,-1.5625,1.15625,-0.1875
1695822028430,-0.07519531,-0.98223877,0.28948975,0.28125,1.203125,-0.375
1695822028489,-0.08300781,-0.97662354,0.28704834,-1.0625,0.859375,0.609375
1695822028505,-0.07055664,-0.9763794,0.29486084,0.078125,0.828125,0.890625
1695822028550,-0.064697266,-0.9741821,0.27874756,-3.03125,1.90625,-0.40625
1695822028611,-0.072753906,-0.98760986,0.3048706,-1.859375,2.296875,-0.015625
1695822028626,-0.072265625,-0.97052,0.3048706,-0.9375,2.140625,0.15625
1695822028670,-0.056884766,-0.9668579,0.2850952,-0.90625,2.609375,-0.9375
1695822028730,-0.061767578,-0.98101807,0.3007202,-0.265625,1.453125,-0.03125
1695822028746,-0.060546875,-0.9751587,0.29071045,0.125,0.875,-0.53125
1695822028791,-0.078125,-0.9714966,0.2994995,-0.796875,1.515625,-0.34375
1695822028850,-0.080078125,-0.9741821,0.2987671,-0.140625,1.375,0.515625
1695822028865,-0.07836914,-0.97540283,0.30340576,0.9375,1.40625,0.59375
1695822028910,-0.07861328,-0.97442627,0.309021,0.53125,1.5,1.171875
1695822028971,-0.06689453,-0.9697876,0.29632568,-0.140625,1.4375,-0.015625
1695822028985,-0.072265625,-0.97540283,0.29852295,0.328125,2.359375,-0.03125
1695822029030,-0.067871094,-0.9717407,0.3065796,-0.546875,1.578125,0.296875
1695822029090,-0.08642578,-0.96661377,0.30023193,-1.8125,-1.734375,0.40625
1695822029105,-0.064453125,-0.9624634,0.31072998,-0.921875,0.921875,-0.59375
1695822029151,-0.06762695,-0.9807739,0.29144287,-2.453125,0.578125,0.09375
1695822029181,-0.059570312,-0.9902954,0.31341553,-2.296875,1.953125,-2.34375
1695822029226,-0.080078125,-0.9729614,0.3065796,-0.9375,-0.109375,-1.984375
1695822029271,-0.083740234,-0.9541626,0.30096436,-1.359375,0.8125,-1.609375
1695822029300,-0.076171875,-0.972229,0.2970581,-1.25,2.140625,-0.703125
1695822029345,-0.07739258,-0.986145,0.3143921,-2.0,0.59375,-0.46875
1695822029390,-0.0859375,-0.96832275,0.31536865,-0.28125,1.203125,-1.140625
1695822029421,-0.10839844,-0.98150635,0.31829834,-1.09375,1.3125,0.265625
1695822029466,-0.08129883,-0.97369385,0.3217163,-0.5,2.515625,0.125
1695822029510,-0.067871094,-0.9776001,0.3139038,-0.59375,2.140625,-0.65625
1695822029541,-0.075927734,-0.9702759,0.3156128,-1.203125,2.3125,-0.203125
1695822029585,-0.07495117,-0.9595337,0.31658936,-0.265625,1.828125,-1.09375
1695822029631,-0.08251953,-0.96051025,0.3180542,-0.671875,2.484375,0.25
1695822029661,-0.0715332,-0.96661377,0.32806396,-0.390625,1.46875,0.0
1695822029706,-0.092041016,-0.98101807,0.31903076,-1.078125,1.703125,-0.21875
1695822029750,-0.083496094,-0.96881104,0.32269287,1.609375,2.53125,-0.578125
1695822029781,-0.083496094,-0.9680786,0.309021,-0.953125,1.09375,-0.59375
1695822029826,-0.06982422,-0.9690552,0.32196045,-0.25,0.78125,-1.84375
1695822029870,-0.06933594,-0.9673462,0.33538818,1.3125,-1.1875,-2.75
1695822029900,-0.115478516,-0.96051025,0.33099365,1.703125,-3.0,-2.640625
1695822029945,-0.107666016,-0.972229,0.36029053,2.609375,1.515625,-2.28125
1695822029991,-0.1081543,-0.9558716,0.25115967,1.375,-3.328125,-2.453125
1695822030019,-0.10961914,-0.9783325,0.33221436,0.859375,1.484375,0.1875
1695822030066,-0.123291016,-0.97613525,0.29852295,0.46875,1.0,-1.15625
1695822030110,-0.11352539,-0.95928955,0.30389404,0.265625,1.8125,0.0625
1695822030140,-0.103027344,-0.97613525,0.30047607,0.9375,1.015625,0.171875
1695822030185,-0.10131836,-0.9680786,0.29608154,-0.140625,1.3125,-0.203125
1695822030230,-0.115722656,-0.98760986,0.3060913,-0.203125,1.4375,0.46875
1695822030260,-0.10620117,-0.9685669,0.2994995,0.046875,2.546875,-0.015625
1695822030306,-0.107666016,-0.96588135,0.31658936,-0.953125,0.640625,0.40625
1695822030351,-0.09667969,-0.97052,0.30560303,0.5,1.453125,0.578125
1695822030381,-0.09692383,-0.9849243,0.30389404,-0.328125,0.59375,-0.203125
1695822030425,-0.09716797,-0.96759033,0.30340576,1.359375,1.3125,0.328125
1695822030470,-0.115478516,-0.97369385,0.30218506,-0.296875,0.75,0.296875
1695822030499,-0.10107422,-0.97491455,0.309021,0.46875,1.296875,0.078125
1695822030544,-0.1184082,-0.96661377,0.29486084,-0.296875,0.796875,-0.328125
1695822030590,-0.09887695,-0.96954346,0.29193115,-0.046875,2.078125,-0.09375
1695822030635,-0.09887695,-0.9883423,0.30047607,-0.65625,1.625,-0.28125
1695822030666,-0.103759766,-0.97125244,0.2999878,1.734375,1.875,-0.34375
1695822030710,-0.10864258,-0.97052,0.30633545,0.890625,1.171875,-0.703125
1695822030741,-0.103027344,-0.97662354,0.29608154,1.65625,0.921875,-0.875
1695822030770,-0.10839844,-0.96417236,0.3024292,4.34375,0.609375,-0.65625
1695822030831,-0.114746094,-0.9793091,0.2946167,5.71875,0.828125,0.25
1695822030860,-0.12426758,-0.97442627,0.29412842,3.421875,0.109375,-0.46875
1695822030891,-0.114990234,-0.98028564,0.2741089,7.71875,0.59375,0.453125
1695822030951,-0.11816406,-0.9846802,0.26849365,7.1875,-0.125,1.78125
1695822030980,-0.114746094,-0.9758911,0.246521,1.578125,1.8125,-0.515625
1695822031011,-0.11694336,-0.9937134,0.2592163,4.015625,0.390625,1.796875
1695822031086,-0.119384766,-0.97320557,0.24481201,3.328125,0.6875,1.90625
1695822031100,-0.109375,-0.9973755,0.25335693,0.40625,3.640625,0.4375
1695822031130,-0.09106445,-1.0037231,0.23553467,2.859375,2.890625,0.578125
1695822031191,-0.1003418,-0.97491455,0.23187256,-1.6875,-0.046875,-1.109375
1695822031221,-0.111083984,-0.97735596,0.23651123,1.84375,1.359375,1.203125
1695822031251,-0.09301758,-0.9714966,0.25604248,-2.109375,0.03125,1.125
1695822031311,-0.10107422,-0.9612427,0.2345581,-0.5,-2.25,1.1875
1695822031341,-0.095458984,-0.9907837,0.23480225,-3.296875,-0.96875,-0.046875
1695822031370,-0.11694336,-1.0149536,0.2765503,-0.515625,0.390625,0.890625
1695822031430,-0.10986328,-0.9717407,0.23699951,0.21875,0.671875,-0.921875
1695822031490,-0.06958008,-0.96417236,0.22991943,-2.890625,1.03125,-1.15625
1695822031492,-0.11303711,-0.98638916,0.27044678,-2.625,-2.84375,1.46875
1695822031550,-0.12890625,-0.98223877,0.26287842,-3.515625,-0.578125,0.109375
1695822031566,-0.10644531,-0.98883057,0.25579834,-1.6875,2.234375,0.140625
1695822031610,-0.11303711,-0.9788208,0.25238037,-1.390625,0.703125,0.90625
1695822031671,-0.10961914,-0.97906494,0.28045654,0.65625,0.953125,-0.09375
1695822031700,-0.099853516,-0.9678345,0.26531982,-1.40625,0.671875,-0.125
1695822031731,-0.12597656,-0.98516846,0.2694702,1.046875,0.765625,1.90625
1695822031790,-0.0925293,-0.9768677,0.2584839,0.375,1.5625,0.53125
1695822031805,-0.053222656,-0.99420166,0.2526245,-0.859375,1.046875,-0.953125
1695822031850,-0.11645508,-0.9837036,0.26141357,0.71875,-1.390625,0.515625
1695822031911,-0.1328125,-0.95758057,0.260437,1.59375,-0.40625,0.359375
1695822031926,-0.11279297,-0.97125244,0.25897217,-0.484375,0.84375,2.1875
1695822031971,-0.095703125,-1.0020142,0.26116943,-0.484375,-0.890625,2.03125
1695822032030,-0.099609375,-0.98565674,0.25579834,0.15625,0.078125,0.421875
1695822032047,-0.08862305,-0.9854126,0.2616577,0.625,0.3125,-0.125
1695822032091,-0.1003418,-0.9829712,0.25872803,0.109375,-0.140625,0.9375
1695822032166,-0.11645508,-0.9714966,0.26483154,0.5625,0.046875,0.875
1695822032169,-0.084472656,-0.98516846,0.2579956,0.703125,0.984375,1.59375
1695822032211,-0.08666992,-0.9710083,0.2616577,0.3125,-0.1875,1.328125
1695822032270,-0.08959961,-1.0042114,0.25506592,0.46875,0.59375,-0.5
1695822032285,-0.10546875,-0.9714966,0.25457764,0.609375,1.390625,0.28125
1695822032330,-0.10986328,-0.99102783,0.25628662,1.171875,0.734375,0.9375
1695822032360,-0.09057617,-0.9702759,0.23846436,-0.109375,0.96875,-0.390625
1695822032404,-0.09423828,-0.99176025,0.25750732,-0.84375,1.828125,0.6875
1695822032451,-0.08935547,-0.98809814,0.2555542,1.8125,0.125,0.546875
1695822032480,-0.08959961,-0.97979736,0.25457764,0.390625,0.71875,-0.015625
1695822032526,-0.09667969,-0.9841919,0.2501831,0.015625,1.046875,0.3125
1695822032570,-0.10449219,-0.98565674,0.2489624,0.890625,1.203125,1.171875
1695822032631,-0.08300781,-0.991272,0.24700928,-0.78125,0.796875,0.171875
1695822032646,-0.08691406,-0.99102783,0.24407959,-0.546875,1.203125,-0.34375
1695822032690,-0.09033203,-0.9961548,0.23602295,-1.5625,2.03125,-1.484375
1695822032720,-0.091552734,-0.97857666,0.26287842,-2.078125,3.78125,-0.515625
1695822032765,-0.07836914,-0.97784424,0.27044678,0.0625,2.15625,-0.234375
1695822032810,-0.11791992,-0.9800415,0.28363037,0.609375,1.09375,0.578125
1695822032841,-0.091796875,-0.9800415,0.30438232,1.3125,3.6875,-1.890625
1695822032887,-0.11230469,-0.9793091,0.24725342,-0.09375,2.46875,0.34375
1695822032930,-0.10083008,-0.9871216,0.2711792,-0.90625,0.53125,-0.609375
1695822032960,-0.09399414,-0.9602661,0.24334717,-0.828125,1.8125,-0.515625
1695822033005,-0.095214844,-0.99786377,0.26776123,-0.640625,0.546875,0.625
1695822033050,-0.10668945,-0.98150635,0.2538452,-0.171875,0.578125,-0.03125
1695822033081,-0.092285156,-0.97906494,0.25726318,-1.0625,1.6875,-0.734375
1695822033125,-0.10571289,-0.9824829,0.26556396,-0.625,0.9375,0.109375
1695822033170,-0.11621094,-0.9751587,0.26727295,-1.53125,0.21875,0.234375
1695822033201,-0.099853516,-0.98443604,0.2592163,-2.0,3.21875,0.25
1695822033245,-0.07861328,-0.97857666,0.27923584,-2.90625,1.421875,-0.296875
1695822033290,-0.10253906,-0.98687744,0.2802124,-1.78125,0.9375,-0.640625
1695822033335,-0.115478516,-0.9702759,0.27508545,0.546875,0.890625,0.234375
1695822033365,-0.08081055,-0.97857666,0.2753296,-0.359375,2.28125,-0.84375
1695822033411,-0.10668945,-0.9829712,0.27557373,0.96875,-1.03125,0.71875
1695822033441,-0.11035156,-0.97198486,0.26678467,-0.03125,2.21875,-1.53125
1695822033485,-0.111816406,-0.99005127,0.26849365,0.296875,1.359375,0.953125
1695822033531,-0.10424805,-0.9807739,0.28070068,0.484375,0.640625,-0.109375
1695822033561,-0.10253906,-0.9668579,0.25994873,0.0,1.609375,-0.140625
1695822033621,-0.09863281,-0.98394775,0.28070068,-0.78125,0.546875,0.328125
1695822033650,-0.11328125,-0.98101807,0.27020264,-0.171875,0.078125,0.40625
1695822033680,-0.106933594,-0.9788208,0.26727295,-1.53125,1.015625,-0.421875
1695822033725,-0.09716797,-0.99176025,0.28411865,-2.109375,1.265625,0.21875
1695822033770,-0.10546875,-0.97613525,0.27264404,-1.734375,-0.671875,-0.75
1695822033801,-0.11254883,-0.97662354,0.27435303,-0.53125,2.421875,0.484375
1695822033844,-0.09301758,-0.98687744,0.277771,-1.46875,1.03125,0.984375
1695822033892,-0.107910156,-0.97784424,0.28948975,-0.5625,1.53125,0.453125
1695822033920,-0.09399414,-0.9734497,0.28167725,-1.265625,1.171875,0.53125
1695822033951,-0.09399414,-0.9746704,0.2850952,-1.1875,1.1875,0.0625
1695822034010,-0.11035156,-0.9871216,0.28607178,-0.25,1.09375,0.484375
1695822034040,-0.08911133,-0.9627075,0.29730225,0.171875,0.609375,-0.46875
1695822034071,-0.114990234,-0.97979736,0.27093506,-0.984375,1.859375,0.578125
1695822034131,-0.08178711,-0.9885864,0.29559326,-1.875,2.84375,-0.703125
1695822034161,-0.10644531,-0.99664307,0.2994995,-0.71875,0.703125,0.078125
1695822034190,-0.11010742,-0.9439087,0.27996826,1.109375,1.234375,-1.328125
1695822034250,-0.09643555,-0.97125244,0.291687,-2.09375,2.21875,0.96875
1695822034280,-0.09863281,-0.9963989,0.29022217,-0.625,0.71875,0.203125
1695822034311,-0.103515625,-0.97540283,0.30218506,-0.296875,1.359375,-0.1875
1695822034372,-0.10986328,-0.9656372,0.27947998,-1.78125,0.953125,0.03125
1695822034401,-0.1003418,-0.97735596,0.30389404,-1.828125,1.1875,0.640625
1695822034431,-0.10522461,-0.97003174,0.29193115,-2.1875,1.40625,0.078125
1695822034492,-0.09887695,-0.9651489,0.30511475,-0.78125,1.578125,0.421875
1695822034520,-0.09472656,-0.9846802,0.3012085,-1.765625,0.265625,0.15625
1695822034551,-0.09741211,-0.95806885,0.31195068,-1.515625,0.578125,-0.015625
1695822034610,-0.1303711,-0.9702759,0.2843628,-4.3125,0.65625,2.546875
1695822034640,-0.08984375,-0.9729614,0.31707764,-1.15625,2.921875,2.546875
1695822034670,-0.0690918,-0.96343994,0.31072998,-0.734375,2.46875,1.359375
1695822034730,-0.11694336,-0.9776001,0.3048706,-1.640625,4.359375,2.296875
1695822034745,-0.087890625,-0.9480591,0.31610107,-4.046875,6.140625,2.828125
1695822034791,-0.10107422,-0.9783325,0.34344482,-1.21875,7.5625,2.4375
1695822034851,-0.03881836,-0.9651489,0.36639404,0.34375,3.421875,0.015625
1695822034866,-0.056884766,-0.95269775,0.30633545,-0.25,1.921875,-0.359375
1695822034911,-0.08227539,-1.0049438,0.34710693,1.46875,2.234375,0.234375
1695822034970,-0.068603516,-0.9656372,0.32318115,0.640625,-0.015625,-0.3125
1695822034986,-0.072753906,-0.9627075,0.31707764,-0.890625,0.546875,-1.15625
1695822035030,-0.08984375,-0.9800415,0.29974365,-0.71875,2.375,-0.46875
1695822035090,-0.08276367,-1.0027466,0.3222046,3.171875,2.8125,1.453125
1695822035105,-0.1003418,-0.96173096,0.29022217,-0.546875,4.765625,1.828125
1695822035150,-0.08325195,-0.96539307,0.35150146,-0.46875,4.796875,0.0625
1695822035226,-0.05493164,-0.96173096,0.30560303,-3.0625,6.171875,0.515625
1695822035229,-0.08276367,-0.9644165,0.33172607,-0.1875,2.6875,-0.03125
1695822035270,-0.061523438,-0.95928955,0.33831787,-0.796875,4.875,0.6875
1695822035329,-0.050048828,-0.9871216,0.34588623,0.78125,1.0,-0.78125
1695822035360,-0.047851562,-0.96343994,0.34051514,1.09375,0.09375,-1.53125
1695822035390,-0.07714844,-0.9678345,0.3060913,-0.234375,-1.234375,-1.6875
1695822035451,-0.07861328,-0.96539307,0.32244873,-0.609375,0.78125,-0.8125
1695822035465,-0.0859375,-0.9763794,0.33148193,0.1875,-0.125,-1.0
1695822035510,-0.088134766,-0.9590454,0.29656982,-0.0625,-0.140625,-0.234375
1695822035570,-0.07470703,-0.9656372,0.33050537,0.046875,1.3125,-0.53125
1695822035585,-0.0871582,-0.9751587,0.32391357,-0.71875,1.296875,-0.328125
1695822035630,-0.07885742,-0.9788208,0.3085327,0.125,2.984375,0.3125
1695822035660,-0.06567383,-0.95977783,0.34783936,0.578125,2.21875,-0.09375
1695822035705,-0.08227539,-0.97247314,0.32244873,-0.046875,0.734375,-0.171875
1695822035750,-0.07739258,-0.9776001,0.32440186,-0.3125,1.46875,-0.125
1695822035780,-0.08325195,-0.96295166,0.32489014,1.71875,0.828125,0.0
1695822035825,-0.080566406,-0.96954346,0.3131714,0.546875,0.4375,-0.28125
1695822035872,-0.08251953,-0.9717407,0.3204956,1.0,0.796875,0.078125
1695822035900,-0.09863281,-0.9578247,0.32196045,1.125,0.890625,0.859375
1695822035946,-0.09765625,-0.93585205,0.3283081,1.234375,0.59375,1.90625
1695822035990,-0.06347656,-0.9902954,0.31756592,4.0,-0.171875,1.171875
1695822036020,-0.02758789,-0.9849243,0.3378296,0.0625,-0.75,-3.140625
1695822036065,-0.13061523,-1.0020142,0.3295288,-1.734375,-0.71875,-4.03125
1695822036111,-0.0847168,-0.96588135,0.29656982,-0.984375,2.453125,-2.5625
1695822036140,-0.099121094,-0.97857666,0.2838745,1.90625,3.453125,-0.890625
1695822036185,-0.1340332,-0.97369385,0.24847412,-2.390625,4.640625,1.4375
1695822036231,-0.053710938,-0.97784424,0.28851318,-1.046875,3.0,2.46875
1695822036260,-0.09423828,-0.9710083,0.3143921,-1.8125,0.6875,0.125
1695822036305,-0.06762695,-0.98638916,0.3685913,-0.34375,-1.15625,-0.890625
1695822036350,-0.08935547,-0.95880127,0.31976318,-1.171875,-2.046875,0.078125
1695822036381,-0.072265625,-0.97662354,0.35394287,-1.578125,0.0625,-0.046875
1695822036425,-0.0690918,-0.97052,0.3451538,-1.234375,-1.515625,0.859375
1695822036470,-0.0793457,-0.972229,0.3444214,-2.171875,-5.125,0.421875
1695822036501,-0.13647461,-0.95880127,0.2909546,-0.203125,-3.734375,-1.28125
1695822036546,-0.12963867,-0.9685669,0.30047607,2.34375,1.46875,-0.078125
1695822036606,-0.08520508,-0.96295166,0.3156128,4.53125,-0.25,0.90625
1695822036621,-0.095703125,-0.9619751,0.29852295,4.859375,0.046875,1.625
1695822036665,-0.088134766,-0.98394775,0.28997803,8.53125,4.40625,-0.234375
1695822036709,-0.06201172,-0.9776001,0.30999756,14.96875,3.4375,1.21875
1695822036739,-0.08666992,-0.9644165,0.30560303,4.4375,0.265625,1.75
1695822036785,-0.11450195,-0.9937134,0.26678467,-5.109375,2.421875,0.4375
1695822036831,-0.09277344,-0.98272705,0.27923584,-2.5,2.8125,2.140625
1695822036861,-0.103271484,-0.96099854,0.293396,-2.3125,1.515625,1.515625
1695822036906,-0.096191406,-0.9702759,0.28997803,-2.328125,3.203125,2.34375
1695822036950,-0.084472656,-0.9663696,0.31292725,-0.90625,3.90625,2.828125
1695822036981,-0.13916016,-0.9727173,0.28240967,2.9375,7.5625,3.953125
1695822037025,-0.008056641,-0.9985962,0.2592163,3.46875,1.59375,6.65625
1695822037070,-0.020996094,-0.9109497,0.3204956,1.625,2.9375,-0.3125
1695822037100,-0.068359375,-1.0076294,0.33026123,-4.734375,4.0625,0.46875
1695822037145,-0.04663086,-1.006897,0.2843628,2.421875,-0.609375,0.71875
1695822037191,-0.047851562,-0.9517212,0.28338623,0.953125,2.671875,-1.09375
1695822037221,-0.0546875,-0.9697876,0.2850952,-0.09375,1.1875,1.140625
1695822037251,-0.056884766,-1.0095825,0.26654053,1.125,0.296875,0.59375
1695822037311,-0.044189453,-0.9788208,0.27874756,2.40625,1.109375,0.375
1695822037341,-0.056640625,-0.975647,0.26654053,2.09375,0.515625,-0.125
1695822037370,-0.07861328,-1.0098267,0.2789917,1.515625,1.421875,-0.390625
1695822037431,-0.041015625,-0.96466064,0.2687378,0.53125,1.390625,-1.0
1695822037460,-0.067871094,-0.9776001,0.25506592,0.8125,0.15625,-0.15625
1695822037490,-0.056884766,-0.9805298,0.2597046,1.265625,-0.21875,-0.359375
1695822037550,-0.056884766,-0.9678345,0.27142334,0.578125,-0.65625,-0.125
1695822037580,-0.053222656,-0.9595337,0.25579834,-0.78125,-0.296875,-0.171875
1695822037611,-0.061767578,-0.9873657,0.2579956,-2.609375,-1.84375,0.03125
1695822037670,-0.06689453,-0.9985962,0.29193115,-0.3125,-1.296875,0.65625
1695822037700,-0.07421875,-0.9714966,0.2658081,-0.15625,0.390625,-1.0625
1695822037730,-0.03881836,-0.9824829,0.26531982,0.546875,1.328125,-1.6875
1695822037791,-0.072021484,-0.9871216,0.27557373,-0.046875,0.0625,-0.5
1695822037821,-0.06591797,-0.98394775,0.26776123,0.453125,0.921875,-2.4375
1695822037850,-0.07836914,-0.97906494,0.26849365,-0.6875,0.234375,-0.578125
1695822037910,-0.07348633,-0.9937134,0.26507568,0.515625,0.109375,-0.953125
1695822037971,-0.0769043,-0.9788208,0.26776123,-0.8125,0.859375,-1.078125
1695822037974,-0.08691406,-0.99298096,0.27020264,-1.828125,0.6875,-0.015625
1695822038030,-0.0793457,-0.9768677,0.27923584,-5.046875,1.875,-1.046875
1695822038045,-0.09008789,-0.9834595,0.2736206,-4.953125,3.5625,-0.65625
1695822038090,-0.09057617,-0.98687744,0.28216553,-2.6875,2.0,1.140625
1695822038151,-0.072509766,-0.9795532,0.29119873,-2.078125,0.3125,1.03125
1695822038166,-0.07495117,-0.9668579,0.28875732,-0.734375,0.109375,0.390625
1695822038209,-0.07324219,-0.9746704,0.29803467,-0.578125,0.3125,1.109375
1695822038271,-0.064208984,-0.97784424,0.30413818,-1.03125,-0.46875,0.640625
1695822038286,-0.068847656,-0.9788208,0.30413818,-0.21875,-0.203125,0.21875
1695822038330,-0.06640625,-0.9717407,0.29193115,0.171875,0.640625,-0.25
1695822038391,-0.08862305,-0.9783325,0.29852295,0.609375,-0.140625,0.359375
1695822038405,-0.072753906,-0.9656372,0.29388428,1.0625,1.140625,-0.46875
1695822038451,-0.083984375,-0.9805298,0.28460693,-0.5625,0.84375,-0.296875
1695822038510,-0.05834961,-0.99591064,0.28900146,-1.5625,1.796875,-2.71875
1695822038525,-0.0949707,-0.97662354,0.29803467,-1.0,1.546875,-1.953125
1695822038571,-0.11401367,-0.9678345,0.2970581,-2.34375,2.640625,-1.0
1695822038630,-0.07373047,-0.95440674,0.29266357,-2.65625,0.984375,-0.5625
1695822038646,-0.084228516,-0.9841919,0.3012085,-1.71875,1.1875,0.875
1695822038691,-0.08276367,-0.98565674,0.31072998,-0.640625,1.046875,0.0625
1695822038751,-0.07714844,-0.96881104,0.30291748,-0.046875,0.328125,-0.578125
1695822038766,-0.087646484,-0.98101807,0.29730225,0.109375,0.328125,-0.15625
1695822038811,-0.091552734,-0.97540283,0.30438232,-0.0625,0.34375,-0.234375
1695822038840,-0.091796875,-0.9729614,0.2994995,-0.734375,0.9375,-0.625
1695822038886,-0.088134766,-0.9812622,0.29510498,-0.484375,1.1875,-0.09375
1695822038930,-0.08105469,-0.96759033,0.31463623,-0.453125,1.234375,-0.484375
1695822038961,-0.11230469,-0.9846802,0.2921753,-0.875,1.0,1.21875
1695822039007,-0.048583984,-0.97052,0.31951904,-2.78125,0.078125,-1.453125
1695822039050,-0.06738281,-0.975647,0.3258667,-1.453125,-1.4375,-1.703125
1695822039081,-0.107666016,-0.9534302,0.307312,-2.6875,-2.515625,-2.546875
1695822039126,-0.14086914,-0.9866333,0.3163452,-0.6875,1.8125,0.71875
1695822039171,-0.10229492,-0.9651489,0.3287964,-1.40625,0.90625,0.25
1695822039201,-0.09326172,-0.96099854,0.3102417,-1.40625,0.75,-0.15625
1695822039245,-0.095458984,-0.98150635,0.3126831,-0.890625,-0.109375,0.453125
1695822039290,-0.095458984,-0.9656372,0.31341553,-0.15625,0.359375,0.25
1695822039320,-0.084228516,-0.96221924,0.3131714,0.015625,0.875,0.28125
1695822039364,-0.088134766,-1.0020142,0.32781982,0.140625,0.65625,-0.171875
1695822039410,-0.10449219,-0.95635986,0.31536865,0.25,-0.390625,-0.265625
1695822039440,-0.123291016,-0.954895,0.30804443,-0.75,1.484375,0.421875
1695822039485,-0.09326172,-0.9871216,0.32904053,-0.578125,1.453125,1.625
1695822039530,-0.09790039,-0.9685669,0.32073975,-0.78125,1.171875,0.59375
1695822039560,-0.08911133,-0.9644165,0.32635498,-0.28125,1.671875,0.125
1695822039606,-0.083740234,-0.96343994,0.32977295,-1.640625,1.96875,0.6875
1695822039650,-0.10522461,-0.95977783,0.32318115,-0.59375,1.234375,1.328125
1695822039680,-0.045410156,-0.9763794,0.33514404,-0.953125,2.140625,-0.921875
1695822039726,-0.09326172,-0.9771118,0.3427124,0.0,0.203125,0.65625
1695822039771,-0.119384766,-0.9529419,0.32122803,1.234375,-1.203125,-0.84375
1695822039800,-0.08081055,-0.95977783,0.309021,-0.046875,0.8125,-0.4375
1695822039845,-0.08642578,-0.9746704,0.32611084,0.015625,-0.765625,-0.078125
1695822039875,-0.10180664,-0.9768677,0.31048584,0.21875,-0.78125,-0.9375
1695822039921,-0.107177734,-0.9685669,0.31585693,0.09375,0.234375,-0.265625
1695822039965,-0.115722656,-0.96466064,0.31707764,0.203125,0.65625,0.625
1695822040011,-0.1003418,-0.9644165,0.33050537,-0.46875,0.71875,0.671875
1695822040041,-0.080566406,-0.9800415,0.32635498,0.234375,0.921875,0.375
1695822040085,-0.09057617,-0.9656372,0.32318115,0.328125,0.203125,-0.09375
1695822040131,-0.0949707,-0.9651489,0.32977295,0.21875,0.953125,0.015625
1695822040160,-0.10620117,-0.96759033,0.32659912,-0.03125,0.609375,0.203125
1695822040206,-0.10205078,-0.96221924,0.3151245,-0.03125,0.703125,0.265625
1695822040251,-0.10449219,-0.97052,0.31610107,0.265625,0.859375,1.140625
1695822040281,-0.09692383,-0.96661377,0.31903076,0.625,0.9375,-0.09375
1695822040326,-0.09375,-0.97125244,0.30706787,-0.234375,1.796875,0.5
1695822040370,-0.09008789,-0.9690552,0.32635498,-0.46875,2.078125,-0.5625
1695822040401,-0.09863281,-0.9841919,0.33026123,0.34375,0.96875,0.96875
1695822040430,-0.1003418,-0.9590454,0.31658936,0.09375,0.53125,-0.421875
1695822040490,-0.08691406,-0.9771118,0.3192749,-1.625,1.734375,0.421875
1695822040550,-0.0847168,-0.975647,0.3300171,-0.5625,0.59375,0.171875
1695822040554,-0.109375,-0.96588135,0.31951904,-0.390625,0.484375,0.015625
1695822040610,-0.10644531,-0.97247314,0.31585693,-0.484375,1.3125,0.5
1695822040640,-0.095458984,-0.9741821,0.3307495,-0.546875,1.140625,-0.046875
1695822040671,-0.09448242,-0.9534302,0.31878662,-1.921875,1.0,-0.265625
1695822040730,-0.104003906,-0.9710083,0.3241577,-2.34375,0.78125,0.390625
1695822040761,-0.09350586,-0.9644165,0.33636475,-1.25,0.796875,0.96875
1695822040791,-0.08984375,-0.972229,0.3295288,-1.421875,0.703125,0.09375
1695822040851,-0.096191406,-0.9595337,0.3295288,-1.203125,0.671875,0.296875
1695822040897,-0.08984375,-0.9680786,0.3319702,0.625,2.0,-0.375
1695822040914,-0.09692383,-0.973938,0.3283081,0.359375,1.125,-0.046875
1695822040970,-0.087890625,-0.9475708,0.32928467,1.0625,0.734375,-0.46875
1695822041000,-0.1027832,-0.9631958,0.324646,-1.125,1.09375,0.328125
1695822041030,-0.09326172,-0.9788208,0.34124756,-2.015625,1.75,-0.1875
1695822041075,-0.104003906,-0.9668579,0.34735107,-0.484375,0.640625,0.125
1695822041121,-0.107910156,-0.9517212,0.3324585,0.0,1.4375,-0.6875
1695822041151,-0.092285156,-0.9685669,0.3463745,-0.359375,1.34375,0.078125
1695822041210,-0.10888672,-0.9656372,0.32513428,-0.625,0.9375,-0.40625
1695822041241,-0.0925293,-0.9607544,0.34051514,-0.625,1.625,0.359375
1695822041270,-0.09423828,-0.9644165,0.33636475,-0.46875,1.15625,0.5
1695822041330,-0.095458984,-0.9678345,0.3287964,-0.859375,0.625,0.125
1695822041345,-0.08642578,-0.9627075,0.33880615,0.203125,0.484375,-0.203125
1695822041389,-0.11206055,-0.97198486,0.33416748,0.1875,0.703125,-0.171875
