# Sensor type: Thingy
# Activity type: Standing
# Activity subtype: Normal
# Subject id: s2020072
# Notes: 
timestamp,accel_x,accel_y,accel_z,gyro_x,gyro_y,gyro_z,mag_x,mag_y,mag_z
1696089567126,-1.0107422,-0.033203125,-0.125,2.4375,0.59375,0.28125,0.0,0.0,0.0
1696089567166,-1.0068359,-0.03515625,-0.12695312,0.90625,0.28125,0.8125,0.0,0.0,0.0
1696089567206,-1.0126953,-0.05078125,-0.14160156,4.03125,1.28125,1.1875,0.0,0.0,0.0
1696089567246,-1.0019531,-0.044921875,-0.13378906,3.125,0.84375,0.4375,0.0,0.0,0.0
1696089567286,-1.0058594,-0.032226562,-0.12988281,3.78125,0.125,-0.28125,0.0,0.0,0.0
1696089567326,-1.0058594,-0.028320312,-0.12402344,4.40625,0.1875,-0.34375,0.0,0.0,0.0
1696089567366,-1.0117188,-0.030273438,-0.119140625,3.71875,-0.125,-0.46875,0.0,0.0,0.0
1696089567406,-1.0136719,-0.0126953125,-0.13574219,1.46875,-1.78125,-1.5,0.0,0.0,0.0
1696089567446,-1.0029297,-0.0087890625,-0.13671875,-2.875,-1.46875,-1.75,0.0,0.0,0.0
1696089567486,-1.0009766,-0.01953125,-0.14257812,-4.5625,0.90625,-0.28125,0.0,0.0,0.0
1696089567526,-1.0214844,-0.056640625,-0.13964844,-3.78125,0.46875,0.75,-70.0625,6.8125,-203.75
1696089567566,-1.0039062,-0.07324219,-0.12207031,0.90625,0.59375,1.125,0.0,0.0,0.0
1696089567606,-1.0068359,-0.0625,-0.12890625,2.25,-0.0625,0.09375,0.0,0.0,0.0
1696089567647,-1.0107422,-0.0390625,-0.12988281,2.15625,-0.5,-0.71875,0.0,0.0,0.0
1696089567688,-0.9970703,-0.01171875,-0.12695312,1.90625,-0.875,-0.65625,0.0,0.0,0.0
1696089567728,-1.0146484,-0.0048828125,-0.12988281,2.25,-0.25,0.40625,0.0,0.0,0.0
1696089567787,-1.0029297,-0.015625,-0.119140625,-0.0625,0.53125,0.9375,0.0,0.0,0.0
1696089567808,-1.0078125,-0.04296875,-0.11816406,-3.15625,0.46875,0.625,0.0,0.0,0.0
1696089567847,-1.0078125,-0.051757812,-0.13183594,-5.65625,0.125,-0.53125,0.0,0.0,0.0
1696089567887,-0.9970703,-0.05078125,-0.12207031,-6.28125,-0.5,-1.3125,0.0,0.0,0.0
1696089567928,-1.0087891,-0.049804688,-0.12207031,-1.59375,0.1875,-0.84375,0.0,0.0,0.0
1696089567968,-1.0166016,-0.047851562,-0.115234375,-0.78125,-0.5625,-0.78125,0.0,0.0,0.0
1696089568008,-1.0087891,-0.05078125,-0.12988281,0.5,-1.78125,-1.0625,-70.8125,8.875,-205.875
1696089568049,-0.99902344,-0.038085938,-0.13476562,1.59375,-1.65625,-0.78125,0.0,0.0,0.0
1696089568087,-1.0107422,-0.028320312,-0.140625,0.90625,-1.0,-0.03125,0.0,0.0,0.0
1696089568128,-1.0009766,-0.040039062,-0.13476562,1.15625,0.46875,0.5625,0.0,0.0,0.0
1696089568168,-1.0166016,-0.05859375,-0.14160156,-2.0,0.71875,-0.34375,0.0,0.0,0.0
1696089568208,-1.0087891,-0.0390625,-0.12890625,-2.1875,1.03125,-0.28125,0.0,0.0,0.0
1696089568249,-1.0029297,-0.036132812,-0.11230469,0.96875,1.9375,0.875,0.0,0.0,0.0
1696089568289,-1.0234375,-0.041992188,-0.12109375,0.375,0.0625,0.21875,0.0,0.0,0.0
1696089568327,-1.0107422,-0.032226562,-0.12988281,-0.53125,-0.6875,-0.53125,0.0,0.0,0.0
1696089568367,-1.0009766,-0.034179688,-0.12402344,0.8125,-1.0,-0.65625,0.0,0.0,0.0
1696089568448,-1.0087891,-0.03125,-0.13085938,0.4375,-1.90625,-0.40625,0.0,0.0,0.0
1696089568451,-1.0166016,-0.032226562,-0.1328125,0.3125,-1.40625,-0.28125,0.0,0.0,0.0
1696089568547,-1.0146484,-0.0390625,-0.12402344,-1.46875,-1.53125,-0.90625,-71.5625,8.5625,-205.25
1696089568550,-0.99902344,-0.024414062,-0.125,-2.5625,-1.40625,-1.4375,0.0,0.0,0.0
1696089568568,-1.0087891,-0.024414062,-0.13574219,-3.96875,-0.8125,-0.9375,0.0,0.0,0.0
1696089568608,-0.99902344,-0.041015625,-0.12597656,-2.75,1.09375,0.28125,0.0,0.0,0.0
1696089568688,-1.0087891,-0.057617188,-0.13085938,-6.09375,1.625,0.34375,0.0,0.0,0.0
1696089568692,-1.0078125,-0.06640625,-0.11816406,-4.4375,2.0,0.34375,0.0,0.0,0.0
1696089568727,-1.0126953,-0.048828125,-0.10253906,-1.71875,0.90625,-0.15625,0.0,0.0,0.0
1696089568768,-1.0195312,-0.030273438,-0.10449219,0.0625,-0.9375,-0.84375,0.0,0.0,0.0
1696089568969,-1.0107422,-0.025390625,-0.12011719,3.46875,-1.28125,-0.78125,0.0,0.0,0.0
1696089568971,-1.0126953,-0.026367188,-0.10644531,2.875,-1.84375,-1.125,0.0,0.0,0.0
1696089568973,-1.0097656,-0.0146484375,-0.13183594,-0.59375,-2.4375,-0.46875,0.0,0.0,0.0
1696089568975,-1.0126953,-0.030273438,-0.123046875,-2.0625,-1.96875,0.21875,0.0,0.0,0.0
1696089568977,-1.0048828,-0.049804688,-0.12988281,-2.5625,-0.75,-0.09375,0.0,0.0,0.0
1696089569007,-1.0078125,-0.05078125,-0.1171875,-2.9375,0.0,-0.71875,-71.5625,8.875,-203.75
1696089569047,-1.015625,-0.044921875,-0.12109375,-3.40625,0.90625,-0.71875,0.0,0.0,0.0
1696089569087,-1.0087891,-0.047851562,-0.13574219,-2.25,1.46875,0.09375,0.0,0.0,0.0
1696089569127,-1.0126953,-0.056640625,-0.13183594,-0.3125,0.96875,0.03125,0.0,0.0,0.0
1696089569168,-1.0097656,-0.04296875,-0.123046875,-0.53125,0.1875,-0.9375,0.0,0.0,0.0
1696089569207,-1.0078125,-0.021484375,-0.107421875,-0.78125,-0.5,-0.9375,0.0,0.0,0.0
1696089569248,-1.0107422,-0.036132812,-0.12109375,2.4375,-0.6875,0.40625,0.0,0.0,0.0
1696089569309,-1.0107422,-0.0546875,-0.13671875,3.1875,-0.75,0.75,0.0,0.0,0.0
1696089569328,-1.0107422,-0.047851562,-0.11425781,0.6875,-1.0,-0.28125,0.0,0.0,0.0
1696089569367,-1.0068359,-0.046875,-0.12890625,-0.0625,-0.25,-0.90625,0.0,0.0,0.0
1696089569407,-1.0195312,-0.037109375,-0.13769531,1.28125,0.40625,-0.65625,0.0,0.0,0.0
1696089569448,-1.0136719,-0.044921875,-0.12695312,0.8125,0.125,-0.53125,0.0,0.0,0.0
1696089569509,-1.0058594,-0.033203125,-0.119140625,-0.3125,0.21875,-0.78125,0.0,0.0,0.0
1696089569527,-1.0126953,-0.028320312,-0.1171875,0.3125,0.59375,-0.28125,-71.25,9.8125,-204.0625
1696089569567,-1.0097656,-0.048828125,-0.119140625,0.90625,-0.4375,-0.15625,0.0,0.0,0.0
1696089569608,-1.0087891,-0.037109375,-0.119140625,1.03125,-0.5625,-0.71875,0.0,0.0,0.0
1696089569647,-1.0185547,-0.044921875,-0.12988281,-0.25,0.1875,-0.40625,0.0,0.0,0.0
1696089569687,-1.0,-0.04296875,-0.12402344,0.75,0.0,-0.15625,0.0,0.0,0.0
1696089569727,-1.0117188,-0.043945312,-0.11328125,-0.0625,-0.125,-0.34375,0.0,0.0,0.0
1696089569768,-1.0058594,-0.038085938,-0.11230469,0.125,0.0,-0.09375,0.0,0.0,0.0
1696089569807,-1.0078125,-0.045898438,-0.12890625,0.625,0.78125,0.4375,0.0,0.0,0.0
1696089569847,-1.0146484,-0.06347656,-0.123046875,0.875,0.40625,0.28125,0.0,0.0,0.0
1696089569888,-1.0087891,-0.055664062,-0.12402344,-0.90625,0.34375,-0.21875,0.0,0.0,0.0
1696089569927,-1.0146484,-0.0546875,-0.11816406,0.3125,1.03125,0.03125,0.0,0.0,0.0
1696089569971,-1.0097656,-0.046875,-0.103515625,2.5625,-0.125,0.03125,0.0,0.0,0.0
1696089570007,-1.0039062,-0.038085938,-0.13183594,3.59375,-0.8125,-0.34375,-70.9375,9.0625,-205.375
1696089570067,-1.0068359,-0.022460938,-0.12207031,1.03125,-0.625,-0.34375,0.0,0.0,0.0
1696089570087,-1.015625,-0.037109375,-0.115234375,2.625,0.1875,0.4375,0.0,0.0,0.0
1696089570127,-1.0117188,-0.051757812,-0.13085938,0.125,0.0625,-0.03125,0.0,0.0,0.0
1696089570167,-1.0039062,-0.048828125,-0.1328125,-1.15625,0.65625,-0.28125,0.0,0.0,0.0
1696089570208,-1.0048828,-0.040039062,-0.12109375,-1.40625,1.09375,0.03125,0.0,0.0,0.0
1696089570247,-1.015625,-0.0390625,-0.111328125,-0.125,0.90625,0.28125,0.0,0.0,0.0
1696089570287,-1.0068359,-0.034179688,-0.12695312,-0.90625,-0.0625,-0.34375,0.0,0.0,0.0
1696089570327,-1.0029297,-0.040039062,-0.140625,0.4375,-0.125,-0.34375,0.0,0.0,0.0
1696089570368,-1.0107422,-0.036132812,-0.12597656,0.90625,-0.1875,0.09375,0.0,0.0,0.0
1696089570407,-1.0117188,-0.041015625,-0.1328125,0.5625,-0.375,0.15625,0.0,0.0,0.0
1696089570447,-1.0136719,-0.040039062,-0.12988281,-0.46875,-0.125,-0.09375,0.0,0.0,0.0
1696089570488,-1.0087891,-0.045898438,-0.13378906,0.0625,0.53125,0.15625,0.0,0.0,0.0
1696089570529,-1.0107422,-0.038085938,-0.1328125,-0.25,0.53125,0.09375,-71.25,8.3125,-204.0625
1696089570568,-1.0087891,-0.048828125,-0.14257812,0.96875,0.84375,-0.21875,0.0,0.0,0.0
1696089570608,-1.0117188,-0.037109375,-0.12597656,-0.46875,-0.125,-0.53125,0.0,0.0,0.0
1696089570651,-0.9970703,-0.032226562,-0.12792969,1.09375,-0.25,0.09375,0.0,0.0,0.0
1696089570688,-1.0058594,-0.046875,-0.119140625,2.1875,-0.375,0.625,0.0,0.0,0.0
1696089570728,-1.0048828,-0.0546875,-0.125,0.75,-0.4375,-0.03125,0.0,0.0,0.0
1696089570768,-1.0107422,-0.057617188,-0.12890625,-1.34375,-0.1875,-0.15625,0.0,0.0,0.0
1696089570827,-1.0039062,-0.03125,-0.12695312,3.125,0.1875,0.625,0.0,0.0,0.0
1696089570847,-1.0019531,-0.036132812,-0.13574219,2.5,-0.0625,0.03125,0.0,0.0,0.0
1696089570887,-1.0068359,-0.032226562,-0.13574219,1.46875,0.78125,0.34375,0.0,0.0,0.0
1696089570927,-1.0048828,-0.029296875,-0.13183594,0.0,0.34375,0.40625,0.0,0.0,0.0
1696089570969,-0.99902344,-0.021484375,-0.13085938,-0.3125,0.96875,0.15625,0.0,0.0,0.0
1696089571007,-1.0117188,-0.033203125,-0.13476562,-2.5,0.40625,-0.34375,-71.6875,9.5,-205.125
1696089571047,-1.0166016,-0.040039062,-0.13183594,-1.59375,-0.5625,-0.46875,0.0,0.0,0.0
1696089571088,-1.0058594,-0.049804688,-0.12207031,0.1875,-0.9375,-0.46875,0.0,0.0,0.0
1696089571129,-1.015625,-0.046875,-0.119140625,-0.90625,-0.875,-1.1875,0.0,0.0,0.0
1696089571168,-1.0117188,-0.040039062,-0.13085938,-0.3125,-0.375,-0.90625,0.0,0.0,0.0
1696089571208,-1.0126953,-0.038085938,-0.12695312,2.1875,-0.1875,0.09375,0.0,0.0,0.0
1696089571247,-1.0029297,-0.032226562,-0.13769531,1.21875,-0.1875,0.21875,0.0,0.0,0.0
1696089571291,-1.0107422,-0.040039062,-0.1328125,0.1875,0.84375,-0.03125,0.0,0.0,0.0
1696089571327,-1.0136719,-0.043945312,-0.1171875,-0.65625,-0.0625,-0.34375,0.0,0.0,0.0
1696089571368,-1.0107422,-0.024414062,-0.12890625,0.375,-0.1875,-0.15625,0.0,0.0,0.0
1696089571408,-1.0097656,-0.026367188,-0.12792969,1.15625,0.0,0.15625,0.0,0.0,0.0
1696089571448,-1.0068359,-0.036132812,-0.12792969,0.5,-0.4375,-0.15625,0.0,0.0,0.0
1696089571487,-1.0126953,-0.045898438,-0.125,-0.0625,0.0625,0.15625,0.0,0.0,0.0
1696089571528,-1.0068359,-0.052734375,-0.11230469,1.28125,0.71875,0.8125,-70.625,7.25,-204.625
1696089571588,-1.0166016,-0.044921875,-0.13964844,3.46875,-0.25,0.5625,0.0,0.0,0.0
1696089571607,-1.0078125,-0.025390625,-0.12695312,3.25,-0.625,0.5625,0.0,0.0,0.0
1696089571648,-1.015625,-0.030273438,-0.13085938,4.34375,0.1875,0.9375,0.0,0.0,0.0
1696089571688,-1.0117188,-0.0390625,-0.14355469,0.75,-0.25,0.28125,0.0,0.0,0.0
1696089571747,-1.0068359,-0.034179688,-0.12890625,-3.0,0.0625,-0.40625,0.0,0.0,0.0
1696089571768,-1.0136719,-0.038085938,-0.13085938,-0.90625,1.75,0.34375,0.0,0.0,0.0
1696089571807,-1.0087891,-0.043945312,-0.12890625,-2.875,0.71875,0.03125,0.0,0.0,0.0
1696089571847,-1.0107422,-0.036132812,-0.12402344,-0.53125,-0.0625,0.03125,0.0,0.0,0.0
1696089571887,-1.0009766,-0.037109375,-0.12207031,-0.125,-0.5,-0.09375,0.0,0.0,0.0
1696089571928,-1.0068359,-0.041015625,-0.11621094,0.25,-0.375,0.625,0.0,0.0,0.0
1696089571968,-1.0087891,-0.046875,-0.115234375,0.6875,-0.875,0.40625,0.0,0.0,0.0
1696089572007,-1.0,-0.036132812,-0.13867188,-0.0625,-0.0625,0.40625,-70.8125,10.375,-204.1875
1696089572047,-1.0117188,-0.037109375,-0.13378906,-0.96875,0.0625,-0.09375,0.0,0.0,0.0
1696089572087,-1.0058594,-0.033203125,-0.11035156,-1.40625,0.71875,-0.09375,0.0,0.0,0.0
1696089572128,-1.0107422,-0.044921875,-0.12792969,-0.59375,0.59375,-0.09375,0.0,0.0,0.0
1696089572169,-1.0097656,-0.038085938,-0.11816406,0.96875,0.125,-0.21875,0.0,0.0,0.0
1696089572207,-1.0039062,-0.03125,-0.12695312,-0.3125,-0.6875,-0.09375,0.0,0.0,0.0
1696089572247,-1.0087891,-0.02734375,-0.12011719,1.84375,-0.375,0.15625,0.0,0.0,0.0
1696089572288,-1.0039062,-0.022460938,-0.125,-0.59375,-0.5625,0.03125,0.0,0.0,0.0
1696089572347,-1.0087891,-0.030273438,-0.13085938,-0.71875,-0.4375,0.4375,0.0,0.0,0.0
1696089572368,-1.0068359,-0.040039062,-0.119140625,0.90625,0.28125,0.6875,0.0,0.0,0.0
1696089572407,-1.0068359,-0.049804688,-0.123046875,0.25,0.21875,-0.21875,0.0,0.0,0.0
1696089572449,-1.0107422,-0.032226562,-0.1171875,-0.78125,-0.625,-0.59375,0.0,0.0,0.0
1696089572488,-1.0058594,-0.017578125,-0.12011719,0.875,-0.125,0.21875,0.0,0.0,0.0
1696089572528,-1.0175781,-0.034179688,-0.12109375,0.4375,0.0,0.34375,-72.0,9.8125,-205.6875
1696089572568,-1.0087891,-0.043945312,-0.1328125,-1.71875,-0.1875,-0.09375,0.0,0.0,0.0
1696089572608,-1.0068359,-0.037109375,-0.119140625,-0.78125,0.34375,-0.21875,0.0,0.0,0.0
1696089572648,-1.0126953,-0.03125,-0.123046875,-0.96875,-0.1875,-0.40625,0.0,0.0,0.0
1696089572688,-1.0166016,-0.036132812,-0.12597656,0.96875,-0.0625,-0.34375,0.0,0.0,0.0
1696089572728,-1.0048828,-0.029296875,-0.12109375,0.625,-1.46875,-0.84375,0.0,0.0,0.0
1696089572768,-1.0117188,-0.028320312,-0.12695312,1.84375,-1.0625,-0.84375,0.0,0.0,0.0
1696089572808,-1.0097656,-0.034179688,-0.11816406,2.5625,-1.0625,-0.40625,0.0,0.0,0.0
1696089572848,-1.0097656,-0.033203125,-0.12402344,-1.75,-1.53125,-0.78125,0.0,0.0,0.0
1696089572888,-1.0,-0.025390625,-0.12109375,1.09375,0.1875,0.15625,0.0,0.0,0.0
1696089572928,-1.0087891,-0.034179688,-0.13574219,-1.9375,-0.1875,0.03125,0.0,0.0,0.0
1696089572968,-1.0107422,-0.036132812,-0.12402344,-2.5,0.0,-0.09375,0.0,0.0,0.0
1696089573008,-1.0097656,-0.048828125,-0.11816406,-1.40625,0.59375,-0.15625,-70.8125,8.875,-204.5
1696089573048,-1.0097656,-0.032226562,-0.13183594,-2.0,0.1875,-0.40625,0.0,0.0,0.0
1696089573108,-1.0136719,-0.032226562,-0.11425781,-0.96875,0.0,-0.09375,0.0,0.0,0.0
1696089573127,-1.0175781,-0.040039062,-0.107421875,0.875,-0.5,0.03125,0.0,0.0,0.0
1696089573168,-1.0087891,-0.0390625,-0.12988281,1.21875,-1.0625,-0.28125,0.0,0.0,0.0
1696089573208,-1.0058594,-0.03125,-0.12109375,1.15625,-1.0,-0.46875,0.0,0.0,0.0
1696089573248,-1.0126953,-0.029296875,-0.13867188,0.90625,-0.8125,-0.28125,0.0,0.0,0.0
1696089573288,-1.0019531,-0.038085938,-0.12011719,0.5,-0.375,-0.03125,0.0,0.0,0.0
1696089573328,-1.0058594,-0.037109375,-0.11425781,-1.875,-0.375,-0.59375,0.0,0.0,0.0
1696089573368,-1.0058594,-0.033203125,-0.107421875,0.0,0.0,0.03125,0.0,0.0,0.0
1696089573407,-1.0078125,-0.026367188,-0.12597656,-0.46875,-0.1875,0.40625,0.0,0.0,0.0
1696089573448,-1.0039062,-0.038085938,-0.115234375,0.0,0.125,0.40625,0.0,0.0,0.0
1696089573488,-1.0117188,-0.0390625,-0.12988281,-0.84375,-0.375,-0.21875,0.0,0.0,0.0
1696089573527,-1.0068359,-0.032226562,-0.12402344,0.375,0.28125,-0.03125,-70.625,8.75,-205.125
1696089573568,-1.0126953,-0.036132812,-0.123046875,0.75,0.46875,0.28125,0.0,0.0,0.0
1696089573609,-1.0107422,-0.04296875,-0.10644531,0.75,0.0625,-0.28125,0.0,0.0,0.0
1696089573648,-1.0126953,-0.034179688,-0.115234375,0.0,0.0625,-0.34375,0.0,0.0,0.0
1696089573688,-1.0205078,-0.022460938,-0.1171875,0.8125,0.0,0.03125,0.0,0.0,0.0
1696089573728,-1.0126953,-0.037109375,-0.123046875,-0.90625,-0.8125,-0.46875,0.0,0.0,0.0
1696089573768,-1.0068359,-0.041015625,-0.12402344,-0.46875,-0.9375,-0.28125,0.0,0.0,0.0
1696089573808,-1.0087891,-0.03515625,-0.12207031,-0.125,-0.8125,-0.34375,0.0,0.0,0.0
1696089573867,-1.0,-0.038085938,-0.12890625,0.25,-0.1875,0.15625,0.0,0.0,0.0
1696089573887,-1.0087891,-0.034179688,-0.14355469,0.8125,0.0,0.03125,0.0,0.0,0.0
1696089573928,-1.0058594,-0.040039062,-0.1171875,1.53125,0.21875,0.15625,0.0,0.0,0.0
1696089573968,-1.0058594,-0.037109375,-0.12792969,-0.1875,0.78125,0.21875,0.0,0.0,0.0
1696089574008,-1.0058594,-0.037109375,-0.103515625,0.6875,0.78125,0.15625,-70.1875,8.0,-203.0
1696089574048,-1.0097656,-0.037109375,-0.119140625,0.4375,0.71875,-0.09375,0.0,0.0,0.0
1696089574088,-1.0146484,-0.033203125,-0.11621094,-0.4375,0.34375,-0.46875,0.0,0.0,0.0
1696089574127,-1.0097656,-0.02734375,-0.119140625,-0.90625,-0.375,-0.53125,0.0,0.0,0.0
1696089574169,-1.0078125,-0.01953125,-0.115234375,-0.0625,-0.6875,-0.34375,0.0,0.0,0.0
1696089574209,-1.0058594,-0.041992188,-0.12207031,0.0,-0.5,-0.46875,0.0,0.0,0.0
1696089574247,-1.0097656,-0.032226562,-0.13769531,-1.75,-0.6875,-0.28125,0.0,0.0,0.0
1696089574289,-1.0058594,-0.032226562,-0.1171875,-0.90625,-0.8125,-0.09375,0.0,0.0,0.0
1696089574328,-1.0068359,-0.043945312,-0.12792969,0.4375,0.28125,-0.03125,0.0,0.0,0.0
1696089574367,-1.0078125,-0.044921875,-0.119140625,1.03125,0.21875,-0.03125,0.0,0.0,0.0
1696089574428,-1.0146484,-0.040039062,-0.11621094,-0.375,-0.0625,-0.78125,0.0,0.0,0.0
1696089574448,-1.0166016,-0.026367188,-0.11816406,0.8125,0.21875,-0.53125,0.0,0.0,0.0
1696089574488,-1.0146484,-0.032226562,-0.10449219,1.03125,0.125,-0.21875,0.0,0.0,0.0
1696089574528,-1.0097656,-0.0390625,-0.12011719,0.625,-0.5,-0.53125,-70.1875,10.0625,-205.6875
1696089574568,-1.0039062,-0.030273438,-0.1171875,0.75,-0.125,-0.28125,0.0,0.0,0.0
1696089574627,-1.0175781,-0.04296875,-0.119140625,0.6875,0.125,-0.34375,0.0,0.0,0.0
1696089574648,-1.0019531,-0.041015625,-0.125,0.4375,0.46875,-0.15625,0.0,0.0,0.0
1696089574688,-1.0166016,-0.036132812,-0.119140625,-1.75,-0.0625,-0.90625,0.0,0.0,0.0
1696089574727,-1.0117188,-0.018554688,-0.12792969,-0.59375,0.0,-0.46875,0.0,0.0,0.0
1696089574768,-1.0058594,-0.032226562,-0.12011719,0.5,-0.1875,0.09375,0.0,0.0,0.0
1696089574808,-1.0107422,-0.037109375,-0.11621094,-0.125,-0.4375,0.21875,0.0,0.0,0.0
1696089574849,-1.0078125,-0.036132812,-0.12597656,-1.21875,-0.0625,-0.34375,0.0,0.0,0.0
1696089574888,-1.0117188,-0.040039062,-0.12695312,0.0625,0.53125,-0.21875,0.0,0.0,0.0
1696089574928,-1.0087891,-0.036132812,-0.12207031,-0.25,0.1875,-0.15625,0.0,0.0,0.0
1696089574969,-1.0048828,-0.022460938,-0.125,0.3125,0.21875,0.15625,0.0,0.0,0.0
1696089575008,-1.0078125,-0.034179688,-0.1171875,0.5,-0.0625,-0.21875,-71.875,8.5625,-204.1875
1696089575048,-1.0097656,-0.034179688,-0.12402344,0.25,0.0625,-0.34375,0.0,0.0,0.0
1696089575088,-1.0117188,-0.030273438,-0.109375,0.3125,-0.125,-0.03125,0.0,0.0,0.0
1696089575128,-1.0078125,-0.040039062,-0.13085938,0.375,-0.4375,-0.03125,0.0,0.0,0.0
1696089575167,-1.0068359,-0.0390625,-0.11425781,-0.25,-0.4375,0.09375,0.0,0.0,0.0
1696089575208,-1.0087891,-0.038085938,-0.123046875,0.0,0.0625,0.09375,0.0,0.0,0.0
1696089575248,-1.0048828,-0.041992188,-0.13085938,0.1875,-0.0625,-0.09375,0.0,0.0,0.0
1696089575288,-1.0126953,-0.038085938,-0.13183594,-0.1875,0.125,-0.53125,0.0,0.0,0.0
1696089575330,-1.0126953,-0.033203125,-0.115234375,0.4375,0.34375,-0.40625,0.0,0.0,0.0
1696089575388,-1.0166016,-0.032226562,-0.13476562,0.875,0.1875,-0.34375,0.0,0.0,0.0
1696089575408,-1.0009766,-0.037109375,-0.125,-0.46875,-1.0,-0.9375,0.0,0.0,0.0
1696089575449,-1.0078125,-0.032226562,-0.12890625,1.96875,-0.1875,-0.34375,0.0,0.0,0.0
1696089575488,-1.0068359,-0.026367188,-0.13085938,1.34375,-0.4375,-0.03125,0.0,0.0,0.0
1696089575528,-1.0078125,-0.043945312,-0.12695312,1.21875,0.28125,0.6875,-71.25,8.75,-204.375
1696089575567,-1.0019531,-0.046875,-0.12988281,0.4375,1.03125,0.03125,0.0,0.0,0.0
1696089575607,-1.0117188,-0.044921875,-0.12109375,-0.90625,0.34375,-0.78125,0.0,0.0,0.0
1696089575647,-1.0126953,-0.024414062,-0.10644531,-0.25,-0.125,-1.0,0.0,0.0,0.0
1696089575687,-1.0146484,-0.024414062,-0.11621094,0.8125,-0.3125,-0.46875,0.0,0.0,0.0
1696089575728,-1.0117188,-0.037109375,-0.115234375,0.875,-0.3125,-0.28125,0.0,0.0,0.0
1696089575768,-1.0087891,-0.043945312,-0.12988281,-0.59375,-0.8125,-0.59375,0.0,0.0,0.0
1696089575807,-1.0029297,-0.041015625,-0.13378906,-0.53125,-0.125,-0.78125,0.0,0.0,0.0
1696089575850,-1.0078125,-0.03515625,-0.109375,0.8125,0.1875,-0.78125,0.0,0.0,0.0
1696089575888,-1.0078125,-0.036132812,-0.1171875,-0.1875,-0.125,-0.71875,0.0,0.0,0.0
1696089575928,-1.0068359,-0.043945312,-0.12988281,0.96875,0.0625,-0.15625,0.0,0.0,0.0
1696089575968,-1.0107422,-0.036132812,-0.11816406,0.4375,0.28125,-0.28125,0.0,0.0,0.0
1696089576007,-1.0058594,-0.044921875,-0.111328125,-0.65625,0.59375,-0.53125,-72.3125,8.75,-204.0625
1696089576048,-1.0126953,-0.032226562,-0.11816406,0.3125,0.53125,-0.28125,0.0,0.0,0.0
1696089576087,-1.0068359,-0.029296875,-0.099609375,-0.125,-0.25,-0.40625,0.0,0.0,0.0
1696089576148,-1.0166016,-0.036132812,-0.11621094,-0.4375,0.21875,-0.03125,0.0,0.0,0.0
1696089576167,-1.0029297,-0.05859375,-0.1328125,-0.53125,-0.25,0.03125,0.0,0.0,0.0
1696089576208,-1.0039062,-0.061523438,-0.13378906,0.3125,0.1875,-0.15625,0.0,0.0,0.0
1696089576248,-1.0068359,-0.041015625,-0.13085938,-0.375,0.0,-1.0,0.0,0.0,0.0
1696089576287,-1.0087891,-0.036132812,-0.13183594,1.40625,0.71875,-0.09375,0.0,0.0,0.0
1696089576328,-0.99609375,-0.041015625,-0.12597656,3.125,0.1875,0.625,0.0,0.0,0.0
1696089576368,-1.0175781,-0.041015625,-0.12695312,1.03125,0.40625,-0.28125,0.0,0.0,0.0
1696089576408,-1.0107422,-0.043945312,-0.11621094,0.0625,0.0,-0.84375,0.0,0.0,0.0
1696089576448,-1.0078125,-0.034179688,-0.125,1.28125,0.53125,-0.21875,0.0,0.0,0.0
1696089576487,-1.0126953,-0.028320312,-0.12402344,1.09375,-0.125,-0.21875,0.0,0.0,0.0
1696089576529,-1.0078125,-0.036132812,-0.12011719,-0.25,-0.5,-0.53125,-70.9375,9.5,-204.0625
1696089576568,-1.0107422,-0.037109375,-0.12109375,-0.71875,0.0,-0.53125,0.0,0.0,0.0
1696089576608,-1.0039062,-0.033203125,-0.13574219,-0.71875,-0.0625,-0.28125,0.0,0.0,0.0
1696089576647,-1.0058594,-0.043945312,-0.12988281,-1.03125,0.46875,0.03125,0.0,0.0,0.0
1696089576688,-1.0078125,-0.059570312,-0.12695312,0.8125,1.21875,0.6875,0.0,0.0,0.0
1696089576728,-1.0117188,-0.060546875,-0.123046875,-0.1875,0.59375,0.15625,0.0,0.0,0.0
1696089576767,-1.0107422,-0.044921875,-0.12109375,0.1875,0.34375,-0.28125,0.0,0.0,0.0
1696089576807,-1.0117188,-0.036132812,-0.12988281,2.8125,-0.125,-0.09375,0.0,0.0,0.0
1696089576848,-1.0058594,-0.033203125,-0.12890625,2.03125,-0.5,-0.21875,0.0,0.0,0.0
1696089576908,-1.0107422,-0.034179688,-0.119140625,0.5625,-0.0625,-0.09375,0.0,0.0,0.0
1696089576927,-1.0058594,-0.0390625,-0.123046875,0.25,-0.8125,-0.34375,0.0,0.0,0.0
1696089576968,-1.0117188,-0.038085938,-0.12792969,0.4375,-0.875,-0.40625,0.0,0.0,0.0
1696089577008,-0.9980469,-0.032226562,-0.13378906,-1.21875,-1.0625,-0.28125,-72.0,8.75,-205.375
1696089577048,-1.0058594,-0.02734375,-0.1328125,-1.28125,-1.09375,0.40625,0.0,0.0,0.0
1696089577088,-1.0078125,-0.061523438,-0.13574219,0.4375,0.28125,0.625,0.0,0.0,0.0
1696089577128,-1.0068359,-0.05078125,-0.11816406,-2.0,0.40625,0.28125,0.0,0.0,0.0
1696089577167,-1.0117188,-0.044921875,-0.13085938,-1.8125,0.65625,-0.59375,0.0,0.0,0.0
1696089577208,-1.0136719,-0.03515625,-0.11035156,0.90625,1.03125,0.09375,0.0,0.0,0.0
1696089577248,-1.0068359,-0.041015625,-0.119140625,2.25,0.125,0.15625,0.0,0.0,0.0
1696089577288,-0.9980469,-0.026367188,-0.103515625,1.53125,-1.0,-0.59375,0.0,0.0,0.0
1696089577328,-1.0185547,-0.018554688,-0.12207031,0.125,-0.875,-0.78125,0.0,0.0,0.0
1696089577369,-1.0214844,-0.026367188,-0.125,-0.0625,-0.9375,0.40625,0.0,0.0,0.0
1696089577408,-1.0097656,-0.041992188,-0.12597656,-2.3125,-1.21875,0.21875,0.0,0.0,0.0
1696089577449,-0.99902344,-0.041992188,-0.13867188,-3.71875,-0.75,-0.40625,0.0,0.0,0.0
1696089577488,-1.015625,-0.049804688,-0.12695312,-1.28125,-0.1875,-0.71875,0.0,0.0,0.0
1696089577532,-1.0068359,-0.044921875,-0.123046875,-0.125,0.0,-0.59375,-70.9375,7.6875,-204.625
1696089577568,-1.015625,-0.04296875,-0.111328125,-0.375,-0.125,-0.21875,0.0,0.0,0.0
1696089577628,-1.0048828,-0.048828125,-0.11425781,2.09375,0.21875,-0.15625,0.0,0.0,0.0
1696089577667,-1.015625,-0.036132812,-0.11621094,-0.71875,-0.5625,-0.59375,0.0,0.0,0.0
1696089577687,-1.0,-0.034179688,-0.11425781,-0.375,-0.1875,-0.34375,0.0,0.0,0.0
1696089577727,-1.015625,-0.03125,-0.111328125,0.125,0.0625,0.09375,0.0,0.0,0.0
1696089577768,-1.0126953,-0.041992188,-0.11621094,-1.46875,-0.375,0.21875,0.0,0.0,0.0
1696089577808,-1.0048828,-0.043945312,-0.10839844,-0.375,0.34375,0.40625,0.0,0.0,0.0
1696089577847,-1.0078125,-0.04296875,-0.12988281,-0.125,-0.5625,0.03125,0.0,0.0,0.0
1696089577888,-1.0107422,-0.046875,-0.103515625,0.75,-1.21875,-0.34375,0.0,0.0,0.0
1696089577928,-1.0087891,-0.05078125,-0.13085938,0.125,-1.09375,-0.21875,0.0,0.0,0.0
1696089577969,-1.0078125,-0.038085938,-0.12890625,-0.78125,-0.3125,-0.34375,0.0,0.0,0.0
1696089578008,-1.0244141,-0.04296875,-0.12207031,1.84375,-0.1875,0.09375,-71.875,7.8125,-205.875
1696089578049,-0.9970703,-0.033203125,-0.12109375,-0.65625,-0.0625,-0.59375,0.0,0.0,0.0
1696089578089,-1.0039062,-0.029296875,-0.12109375,-3.15625,0.1875,-0.40625,0.0,0.0,0.0
1696089578127,-1.0068359,-0.049804688,-0.09375,1.34375,0.34375,0.40625,0.0,0.0,0.0
1696089578167,-1.0136719,-0.045898438,-0.12597656,0.3125,-0.875,0.15625,0.0,0.0,0.0
1696089578228,-1.0126953,-0.04296875,-0.12011719,1.40625,-0.25,-0.28125,0.0,0.0,0.0
1696089578247,-1.0097656,-0.03125,-0.115234375,-0.3125,-0.5,-0.34375,0.0,0.0,0.0
1696089578288,-1.0058594,-0.046875,-0.11621094,2.8125,0.34375,0.625,0.0,0.0,0.0
1696089578328,-1.0117188,-0.053710938,-0.123046875,-0.0625,-0.1875,0.03125,0.0,0.0,0.0
1696089578368,-1.0166016,-0.044921875,-0.11425781,1.78125,0.125,0.09375,0.0,0.0,0.0
1696089578429,-1.0117188,-0.040039062,-0.11230469,0.5625,-0.125,-0.03125,0.0,0.0,0.0
1696089578448,-1.0107422,-0.028320312,-0.111328125,-0.0625,0.0625,-0.03125,0.0,0.0,0.0
1696089578488,-1.0136719,-0.0390625,-0.12109375,0.6875,0.21875,0.15625,0.0,0.0,0.0
1696089578528,-1.0097656,-0.040039062,-0.109375,-0.4375,0.125,0.03125,-70.8125,8.5625,-204.5
1696089578568,-1.0029297,-0.037109375,-0.11816406,-2.0625,-0.1875,-0.65625,0.0,0.0,0.0
1696089578608,-1.0087891,-0.026367188,-0.12109375,-0.53125,0.34375,-0.40625,0.0,0.0,0.0
1696089578648,-1.015625,-0.044921875,-0.10546875,-2.4375,0.1875,-0.09375,0.0,0.0,0.0
1696089578688,-1.0087891,-0.049804688,-0.10644531,-0.90625,-0.625,0.28125,0.0,0.0,0.0
1696089578728,-1.0175781,-0.052734375,-0.115234375,2.3125,-0.375,0.15625,0.0,0.0,0.0
1696089578768,-1.0068359,-0.052734375,-0.12988281,0.5,-1.09375,-1.125,0.0,0.0,0.0
1696089578807,-1.0078125,-0.040039062,-0.12792969,2.8125,-0.9375,-1.25,0.0,0.0,0.0
1696089578848,-1.0009766,-0.0146484375,-0.115234375,4.15625,-0.25,0.15625,0.0,0.0,0.0
1696089578888,-1.0126953,-0.029296875,-0.12695312,1.78125,-0.4375,0.625,0.0,0.0,0.0
1696089578928,-0.9970703,-0.029296875,-0.111328125,1.65625,0.46875,0.6875,0.0,0.0,0.0
1696089578968,-1.015625,-0.029296875,-0.11035156,-3.28125,0.53125,-0.40625,0.0,0.0,0.0
1696089579008,-1.0175781,-0.037109375,-0.10644531,-0.96875,0.59375,-0.34375,-72.0,7.6875,-204.0625
1696089579049,-1.0058594,-0.04296875,-0.11035156,-0.4375,1.03125,-0.03125,0.0,0.0,0.0
1696089579088,-1.0214844,-0.036132812,-0.125,0.1875,1.03125,0.21875,0.0,0.0,0.0
1696089579128,-1.0136719,-0.030273438,-0.1171875,-3.03125,0.125,-0.71875,0.0,0.0,0.0
1696089579187,-0.99902344,-0.034179688,-0.1171875,-0.1875,0.0625,-0.03125,0.0,0.0,0.0
1696089579208,-1.0058594,-0.038085938,-0.10546875,-0.25,-0.3125,0.09375,0.0,0.0,0.0
1696089579248,-1.0117188,-0.041992188,-0.12890625,-1.15625,-0.75,-0.09375,0.0,0.0,0.0
1696089579289,-1.0146484,-0.05859375,-0.11621094,1.09375,0.40625,0.34375,0.0,0.0,0.0
1696089579329,-1.0087891,-0.049804688,-0.12109375,-0.78125,-0.125,-0.28125,0.0,0.0,0.0
1696089579368,-1.0126953,-0.047851562,-0.11621094,0.5,-0.125,-0.28125,0.0,0.0,0.0
1696089579408,-1.0126953,-0.04296875,-0.12207031,3.3125,0.59375,0.625,0.0,0.0,0.0
1696089579448,-1.0039062,-0.029296875,-0.119140625,1.96875,0.53125,0.75,0.0,0.0,0.0
1696089579488,-1.0019531,-0.040039062,-0.107421875,2.09375,1.9375,1.1875,0.0,0.0,0.0
1696089579529,-1.0087891,-0.043945312,-0.1328125,-2.9375,0.84375,0.09375,-71.25,8.75,-204.625
1696089579568,-1.0029297,-0.041015625,-0.11425781,0.4375,0.65625,-0.09375,0.0,0.0,0.0
1696089579609,-1.015625,-0.040039062,-0.109375,2.09375,0.21875,-0.09375,0.0,0.0,0.0
1696089579648,-1.0058594,-0.028320312,-0.12207031,-0.125,-1.90625,-1.0,0.0,0.0,0.0
1696089579688,-1.0146484,-0.041992188,-0.12402344,3.53125,-0.875,-0.09375,0.0,0.0,0.0
1696089579729,-1.0039062,-0.040039062,-0.12988281,0.6875,-1.09375,-0.28125,0.0,0.0,0.0
1696089579768,-1.0039062,-0.036132812,-0.13769531,-0.59375,-0.8125,-0.21875,0.0,0.0,0.0
1696089579809,-1.0068359,-0.0390625,-0.13085938,-0.1875,1.15625,0.21875,0.0,0.0,0.0
1696089579849,-1.0126953,-0.040039062,-0.14160156,-0.96875,0.84375,-0.09375,0.0,0.0,0.0
1696089579889,-1.0009766,-0.033203125,-0.11816406,-2.375,0.59375,-0.09375,0.0,0.0,0.0
1696089579949,-1.0097656,-0.038085938,-0.115234375,-0.90625,0.65625,-0.21875,0.0,0.0,0.0
1696089579968,-1.0039062,-0.041015625,-0.12109375,-1.09375,0.28125,-0.28125,0.0,0.0,0.0
1696089580009,-1.0107422,-0.044921875,-0.11425781,-1.15625,-0.125,-0.28125,-71.125,9.1875,-203.75
1696089580049,-1.0068359,-0.033203125,-0.111328125,0.875,-0.0625,-0.40625,0.0,0.0,0.0
1696089580087,-1.0068359,-0.049804688,-0.115234375,0.90625,-0.5,-0.53125,0.0,0.0,0.0
1696089580128,-1.0058594,-0.032226562,-0.12792969,-0.3125,-1.21875,-0.71875,0.0,0.0,0.0
1696089580168,-1.0068359,-0.04296875,-0.1171875,2.03125,-0.125,-0.03125,0.0,0.0,0.0
1696089580208,-1.0087891,-0.03125,-0.12988281,0.125,0.125,0.15625,0.0,0.0,0.0
1696089580248,-1.0087891,-0.046875,-0.12109375,0.1875,0.34375,-0.03125,0.0,0.0,0.0
1696089580288,-1.0166016,-0.040039062,-0.111328125,0.375,0.21875,0.03125,0.0,0.0,0.0
1696089580328,-1.0117188,-0.037109375,-0.111328125,0.4375,-0.3125,-0.53125,0.0,0.0,0.0
1696089580368,-1.0068359,-0.030273438,-0.1171875,0.90625,0.0,-0.21875,0.0,0.0,0.0
1696089580409,-1.0068359,-0.02734375,-0.12109375,0.0,-0.5,-0.28125,0.0,0.0,0.0
1696089580448,-1.0068359,-0.041015625,-0.119140625,1.09375,0.40625,0.34375,0.0,0.0,0.0
1696089580488,-1.0078125,-0.04296875,-0.11425781,-1.8125,0.21875,0.03125,0.0,0.0,0.0
1696089580529,-1.0087891,-0.05078125,-0.11328125,-1.03125,0.65625,-0.34375,-70.375,8.5625,-204.5
1696089580568,-1.0009766,-0.043945312,-0.12207031,0.0,0.125,-0.34375,0.0,0.0,0.0
1696089580608,-1.0019531,-0.0390625,-0.115234375,0.5,-0.125,0.03125,0.0,0.0,0.0
1696089580648,-1.0117188,-0.0390625,-0.12597656,1.09375,-0.1875,-0.09375,0.0,0.0,0.0
1696089580708,-1.0058594,-0.0546875,-0.11035156,0.625,-0.375,-0.21875,0.0,0.0,0.0
1696089580731,-1.0117188,-0.036132812,-0.12402344,-0.3125,-0.875,-0.78125,0.0,0.0,0.0
1696089580768,-1.0117188,-0.0390625,-0.123046875,0.375,-0.25,-0.59375,0.0,0.0,0.0
1696089580808,-1.0097656,-0.034179688,-0.12402344,-0.0625,-0.5625,-0.09375,0.0,0.0,0.0
1696089580848,-1.0126953,-0.041015625,-0.1328125,-0.53125,-0.125,0.5,0.0,0.0,0.0
1696089580888,-1.0078125,-0.057617188,-0.125,0.625,0.46875,0.40625,0.0,0.0,0.0
1696089580928,-1.0078125,-0.045898438,-0.12695312,-2.9375,0.21875,-0.46875,0.0,0.0,0.0
1696089580968,-1.0097656,-0.038085938,-0.12011719,-0.59375,0.84375,-0.21875,0.0,0.0,0.0
1696089581009,-1.0136719,-0.055664062,-0.115234375,1.28125,0.71875,0.15625,-71.25,9.0625,-205.125
1696089581048,-1.0058594,-0.036132812,-0.119140625,0.8125,-0.375,-0.21875,0.0,0.0,0.0
1696089581090,-1.0058594,-0.038085938,-0.11621094,2.5625,-0.8125,-0.46875,0.0,0.0,0.0
1696089581129,-1.0097656,-0.026367188,-0.13378906,2.3125,-0.625,-0.15625,0.0,0.0,0.0
1696089581168,-1.0078125,-0.034179688,-0.119140625,-0.0625,-0.375,0.34375,0.0,0.0,0.0
1696089581208,-1.0117188,-0.055664062,-0.1171875,-0.1875,0.0625,0.28125,0.0,0.0,0.0
1696089581248,-1.0136719,-0.041015625,-0.12109375,-0.4375,0.0625,-0.65625,0.0,0.0,0.0
1696089581288,-1.0058594,-0.038085938,-0.111328125,-1.59375,0.0,-0.65625,0.0,0.0,0.0
1696089581328,-1.0097656,-0.036132812,-0.111328125,0.4375,0.125,0.40625,0.0,0.0,0.0
1696089581368,-1.0117188,-0.041015625,-0.125,2.09375,-0.3125,0.28125,0.0,0.0,0.0
1696089581408,-0.9970703,-0.040039062,-0.11621094,-0.53125,0.0625,-0.53125,0.0,0.0,0.0
1696089581468,-1.0117188,-0.026367188,-0.12597656,-0.65625,0.21875,-0.21875,0.0,0.0,0.0
1696089581488,-1.0205078,-0.041992188,-0.12402344,0.375,0.21875,-0.78125,0.0,0.0,0.0
1696089581528,-1.0048828,-0.034179688,-0.10839844,-0.375,0.0,-0.65625,-72.0,9.0625,-203.3125
1696089581568,-1.0078125,-0.0234375,-0.12890625,-1.46875,-0.5,-0.15625,0.0,0.0,0.0
1696089581609,-1.0097656,-0.034179688,-0.1171875,2.4375,0.28125,0.8125,0.0,0.0,0.0
1696089581648,-1.0107422,-0.055664062,-0.12011719,-2.4375,-0.1875,0.09375,0.0,0.0,0.0
1696089581687,-1.0009766,-0.048828125,-0.13476562,-2.5625,0.0,-0.59375,0.0,0.0,0.0
1696089581729,-1.0068359,-0.040039062,-0.119140625,1.59375,0.53125,-0.21875,0.0,0.0,0.0
1696089581767,-1.0126953,-0.032226562,-0.11621094,1.15625,-0.4375,0.09375,0.0,0.0,0.0
1696089581808,-1.0,-0.04296875,-0.115234375,-0.59375,-0.875,-0.34375,0.0,0.0,0.0
1696089581849,-1.0146484,-0.043945312,-0.125,1.59375,0.0625,0.03125,0.0,0.0,0.0
1696089581888,-1.0058594,-0.048828125,-0.12792969,-1.28125,-0.375,-0.40625,0.0,0.0,0.0
1696089581927,-0.99902344,-0.038085938,-0.11816406,-1.65625,0.46875,-0.46875,0.0,0.0,0.0
1696089581968,-1.0029297,-0.04296875,-0.10644531,0.0,0.46875,-0.15625,0.0,0.0,0.0
1696089582008,-1.0078125,-0.034179688,-0.12207031,0.25,0.0625,-0.21875,-70.9375,7.6875,-204.375
1696089582048,-1.015625,-0.038085938,-0.111328125,1.21875,-0.625,-0.21875,0.0,0.0,0.0
1696089582088,-1.0166016,-0.038085938,-0.12890625,1.03125,-0.5,-0.28125,0.0,0.0,0.0
1696089582128,-1.0126953,-0.041992188,-0.11230469,0.8125,-0.25,-0.21875,0.0,0.0,0.0
1696089582168,-1.0029297,-0.03125,-0.11621094,-0.1875,-0.1875,0.03125,0.0,0.0,0.0
1696089582228,-1.0039062,-0.040039062,-0.1171875,0.96875,0.1875,0.15625,0.0,0.0,0.0
1696089582248,-1.0,-0.038085938,-0.10546875,-0.25,-0.125,-0.28125,0.0,0.0,0.0
1696089582287,-1.0078125,-0.032226562,-0.115234375,0.1875,0.125,-0.03125,0.0,0.0,0.0
1696089582328,-1.0097656,-0.036132812,-0.11621094,-0.71875,0.28125,0.34375,0.0,0.0,0.0
1696089582368,-1.0126953,-0.04296875,-0.13085938,-0.53125,0.125,0.40625,0.0,0.0,0.0
1696089582408,-1.0166016,-0.043945312,-0.11425781,-2.375,0.21875,-0.21875,0.0,0.0,0.0
1696089582448,-1.0019531,-0.04296875,-0.1171875,-1.34375,0.0,-0.46875,0.0,0.0,0.0
1696089582488,-1.0068359,-0.033203125,-0.12207031,-0.125,-0.75,-0.21875,0.0,0.0,0.0
1696089582528,-1.0136719,-0.036132812,-0.123046875,3.53125,-0.4375,0.15625,-70.625,8.3125,-203.625
1696089582568,-1.0097656,-0.044921875,-0.12597656,1.34375,-0.0625,0.40625,0.0,0.0,0.0
1696089582608,-1.0136719,-0.045898438,-0.12011719,-1.21875,-0.125,0.03125,0.0,0.0,0.0
1696089582651,-1.0126953,-0.040039062,-0.12402344,1.34375,0.34375,-0.28125,0.0,0.0,0.0
1696089582688,-1.0097656,-0.033203125,-0.11328125,0.90625,-0.0625,0.09375,0.0,0.0,0.0
1696089582728,-1.0136719,-0.022460938,-0.11621094,-0.71875,0.0,0.28125,0.0,0.0,0.0
1696089582769,-1.0205078,-0.037109375,-0.115234375,-0.125,-0.125,0.28125,0.0,0.0,0.0
1696089582808,-1.0048828,-0.049804688,-0.12207031,-3.03125,-0.8125,-0.28125,0.0,0.0,0.0
1696089582848,-1.0,-0.03125,-0.12890625,-2.125,0.0625,-0.09375,0.0,0.0,0.0
1696089582888,-1.0205078,-0.041992188,-0.12890625,-1.40625,0.78125,-0.03125,0.0,0.0,0.0
1696089582928,-1.0087891,-0.0546875,-0.125,-1.21875,0.28125,-0.03125,0.0,0.0,0.0
1696089582988,-1.0117188,-0.036132812,-0.11035156,0.4375,0.0,-0.34375,0.0,0.0,0.0
1696089583008,-1.0107422,-0.030273438,-0.12890625,2.875,-0.4375,-0.28125,-71.125,7.0625,-205.25
1696089583048,-1.0068359,-0.032226562,-0.12109375,2.4375,-0.875,-0.15625,0.0,0.0,0.0
1696089583088,-1.0117188,-0.029296875,-0.12402344,0.8125,-1.0,-0.09375,0.0,0.0,0.0
1696089583128,-1.0029297,-0.0390625,-0.11621094,0.0,-1.0,-0.53125,0.0,0.0,0.0
1696089583169,-1.0078125,-0.03125,-0.11816406,0.0,-0.5,-0.46875,0.0,0.0,0.0
1696089583207,-1.0058594,-0.03515625,-0.12988281,-0.90625,0.46875,-0.09375,0.0,0.0,0.0
1696089583248,-1.0087891,-0.040039062,-0.12402344,-2.0,0.78125,0.03125,0.0,0.0,0.0
1696089583288,-1.0136719,-0.04296875,-0.10839844,-1.34375,1.53125,0.15625,0.0,0.0,0.0
1696089583328,-1.0185547,-0.043945312,-0.125,-2.9375,0.90625,-0.28125,0.0,0.0,0.0
1696089583368,-1.0205078,-0.045898438,-0.11621094,-0.125,-0.1875,-0.53125,0.0,0.0,0.0
1696089583408,-1.0146484,-0.029296875,-0.10839844,2.375,-0.6875,-0.59375,0.0,0.0,0.0
1696089583448,-1.0107422,-0.041015625,-0.119140625,0.75,-1.46875,-0.71875,0.0,0.0,0.0
1696089583488,-1.0234375,-0.044921875,-0.12109375,1.34375,-0.8125,-0.28125,0.0,0.0,0.0
1696089583528,-1.0087891,-0.041015625,-0.12695312,-0.375,-0.375,-0.59375,-70.375,8.125,-204.1875
1696089583568,-1.0107422,-0.040039062,-0.11035156,-0.84375,0.28125,-0.46875,0.0,0.0,0.0
1696089583607,-1.0185547,-0.038085938,-0.11816406,0.4375,0.90625,-0.15625,0.0,0.0,0.0
1696089583648,-1.0166016,-0.029296875,-0.1171875,-0.25,0.28125,-0.21875,0.0,0.0,0.0
1696089583688,-1.0126953,-0.04296875,-0.12597656,-0.3125,-0.375,-0.40625,0.0,0.0,0.0
1696089583748,-1.0058594,-0.036132812,-0.11328125,-0.0625,-0.5,-0.53125,0.0,0.0,0.0
1696089583768,-1.0048828,-0.0390625,-0.12597656,-0.53125,-0.5,-0.71875,0.0,0.0,0.0
1696089583809,-1.0097656,-0.045898438,-0.125,0.3125,0.125,0.03125,0.0,0.0,0.0
1696089583848,-1.0,-0.041015625,-0.11230469,0.625,0.40625,0.28125,0.0,0.0,0.0
1696089583889,-1.0107422,-0.047851562,-0.1171875,-0.4375,0.125,-0.21875,0.0,0.0,0.0
1696089583928,-1.0146484,-0.038085938,-0.115234375,0.625,0.125,-0.46875,0.0,0.0,0.0
1696089583968,-1.0058594,-0.029296875,-0.12890625,0.25,0.1875,-0.40625,0.0,0.0,0.0
1696089584008,-1.0097656,-0.037109375,-0.123046875,-0.0625,-0.3125,-0.53125,-70.9375,8.3125,-204.0625
1696089584048,-1.0068359,-0.041015625,-0.12109375,0.90625,-0.6875,-0.46875,0.0,0.0,0.0
1696089584088,-1.0136719,-0.033203125,-0.12109375,0.5,-1.09375,-0.28125,0.0,0.0,0.0
1696089584127,-1.0029297,-0.041015625,-0.1328125,0.375,-0.5625,-0.09375,0.0,0.0,0.0
1696089584168,-1.015625,-0.05078125,-0.13183594,-0.53125,-0.1875,-0.15625,0.0,0.0,0.0
1696089584207,-1.0009766,-0.051757812,-0.125,0.5625,0.78125,0.28125,0.0,0.0,0.0
1696089584248,-1.0078125,-0.041015625,-0.11621094,-1.40625,0.0,-0.34375,0.0,0.0,0.0
1696089584288,-1.0126953,-0.046875,-0.11035156,1.09375,0.0,-0.09375,0.0,0.0,0.0
1696089584328,-1.0068359,-0.036132812,-0.12011719,1.78125,0.0625,-0.21875,0.0,0.0,0.0
1696089584368,-1.0029297,-0.038085938,-0.11230469,-0.375,-0.9375,-0.09375,0.0,0.0,0.0
1696089584409,-1.0117188,-0.02734375,-0.11816406,3.84375,1.09375,1.5,0.0,0.0,0.0
1696089584448,-1.0126953,-0.041015625,-0.12402344,-2.5625,-0.4375,0.4375,0.0,0.0,0.0
1696089584508,-1.0097656,-0.0546875,-0.11621094,-0.4375,0.125,0.15625,0.0,0.0,0.0
1696089584527,-1.0078125,-0.036132812,-0.115234375,-0.4375,-0.125,-0.46875,-70.9375,8.3125,-204.375
1696089584569,-1.0068359,-0.032226562,-0.11230469,-0.125,0.125,0.4375,0.0,0.0,0.0
1696089584608,-1.0205078,-0.041992188,-0.125,0.3125,-0.125,0.625,0.0,0.0,0.0
1696089584648,-1.0087891,-0.05078125,-0.109375,1.09375,0.28125,0.75,0.0,0.0,0.0
1696089584688,-1.0048828,-0.0390625,-0.11425781,-2.0,0.21875,-0.28125,0.0,0.0,0.0
1696089584729,-1.0039062,-0.05078125,-0.115234375,-1.8125,0.46875,-0.40625,0.0,0.0,0.0
1696089584769,-1.0126953,-0.047851562,-0.12988281,1.78125,0.0,-0.15625,0.0,0.0,0.0
1696089584808,-1.0166016,-0.0390625,-0.11425781,2.25,-1.21875,-0.53125,0.0,0.0,0.0
1696089584849,-1.0058594,-0.022460938,-0.11425781,1.21875,-1.09375,-0.34375,0.0,0.0,0.0
1696089584888,-1.0019531,-0.022460938,-0.1171875,-1.75,-0.875,-0.21875,0.0,0.0,0.0
1696089584929,-1.0117188,-0.048828125,-0.13085938,-0.65625,0.96875,1.25,0.0,0.0,0.0
1696089584968,-1.0097656,-0.05078125,-0.11621094,-3.21875,0.78125,0.625,0.0,0.0,0.0
1696089585009,-1.0117188,-0.05078125,-0.12011719,-2.8125,0.28125,-0.53125,-71.875,8.125,-204.1875
1696089585049,-1.0097656,-0.041992188,-0.11230469,2.5625,0.78125,0.40625,0.0,0.0,0.0
1696089585089,-1.0048828,-0.0390625,-0.11816406,2.3125,-1.0625,0.03125,0.0,0.0,0.0
1696089585128,-1.0029297,-0.030273438,-0.12011719,3.46875,-0.5,0.625,0.0,0.0,0.0
1696089585168,-1.0107422,-0.040039062,-0.12402344,-0.78125,-0.5,-0.09375,0.0,0.0,0.0
1696089585208,-1.0058594,-0.034179688,-0.11425781,-0.84375,0.78125,0.15625,0.0,0.0,0.0
1696089585268,-1.0097656,-0.043945312,-0.11230469,-1.40625,0.84375,0.03125,0.0,0.0,0.0
1696089585288,-1.0166016,-0.026367188,-0.11035156,-3.09375,0.125,-0.78125,0.0,0.0,0.0
1696089585329,-1.0087891,-0.034179688,-0.115234375,0.5,0.1875,-0.15625,0.0,0.0,0.0
1696089585369,-1.0087891,-0.04296875,-0.123046875,0.90625,-0.6875,0.03125,0.0,0.0,0.0
1696089585409,-1.0058594,-0.046875,-0.12792969,0.96875,-1.0,0.03125,0.0,0.0,0.0
1696089585449,-1.0078125,-0.034179688,-0.1328125,-0.0625,-0.125,-0.28125,0.0,0.0,0.0
1696089585488,-1.0097656,-0.036132812,-0.11816406,0.125,-0.0625,-0.21875,0.0,0.0,0.0
1696089585528,-1.0087891,-0.037109375,-0.11621094,-0.3125,0.34375,-0.28125,-69.75,7.8125,-204.5
1696089585568,-1.0097656,-0.038085938,-0.11621094,-0.53125,0.40625,-0.21875,0.0,0.0,0.0
1696089585608,-1.0029297,-0.034179688,-0.11425781,1.40625,0.1875,-0.34375,0.0,0.0,0.0
1696089585649,-1.0009766,-0.02734375,-0.10839844,-0.0625,-0.625,-0.40625,0.0,0.0,0.0
1696089585689,-1.0078125,-0.028320312,-0.10449219,0.5625,-0.125,0.34375,0.0,0.0,0.0
1696089585728,-1.0136719,-0.037109375,-0.12597656,0.375,0.28125,0.34375,0.0,0.0,0.0
1696089585769,-1.0195312,-0.043945312,-0.107421875,-0.90625,0.125,-0.03125,0.0,0.0,0.0
1696089585809,-1.0068359,-0.040039062,-0.103515625,-0.96875,0.0625,-0.28125,0.0,0.0,0.0
1696089585849,-1.015625,-0.041015625,-0.13085938,-0.0625,-0.125,-0.34375,0.0,0.0,0.0
1696089585889,-1.0068359,-0.036132812,-0.1171875,0.96875,-0.1875,0.03125,0.0,0.0,0.0
1696089585929,-1.0166016,-0.040039062,-0.13183594,0.1875,-0.6875,-0.46875,0.0,0.0,0.0
1696089585969,-1.0048828,-0.032226562,-0.13378906,0.90625,0.0625,-0.21875,0.0,0.0,0.0
1696089586028,-1.0068359,-0.036132812,-0.107421875,0.625,-0.25,-0.15625,-70.9375,7.6875,-204.375
1696089586048,-1.0019531,-0.028320312,-0.111328125,-0.0625,-0.625,-0.34375,0.0,0.0,0.0
1696089586088,-1.0117188,-0.02734375,-0.125,-0.1875,-0.0625,-0.34375,0.0,0.0,0.0
1696089586129,-1.0058594,-0.03125,-0.12597656,-0.125,0.28125,0.03125,0.0,0.0,0.0
1696089586169,-1.0097656,-0.036132812,-0.11230469,-2.1875,0.0625,0.15625,0.0,0.0,0.0
1696089586209,-1.0185547,-0.041992188,-0.111328125,-1.09375,0.59375,0.09375,0.0,0.0,0.0
1696089586248,-1.015625,-0.053710938,-0.11230469,0.4375,0.0625,-0.15625,0.0,0.0,0.0
1696089586289,-1.0117188,-0.0234375,-0.109375,1.84375,-0.3125,-0.21875,0.0,0.0,0.0
1696089586328,-1.0039062,-0.028320312,-0.12109375,1.96875,-0.9375,0.21875,0.0,0.0,0.0
1696089586369,-1.0087891,-0.01953125,-0.11621094,0.96875,-0.75,0.15625,0.0,0.0,0.0
1696089586408,-1.0126953,-0.04296875,-0.13378906,0.4375,0.0625,0.5,0.0,0.0,0.0
1696089586448,-1.0029297,-0.040039062,-0.11816406,-3.15625,0.0625,-0.34375,0.0,0.0,0.0
1696089586488,-1.0048828,-0.029296875,-0.10839844,-3.15625,0.96875,-0.53125,-72.125,7.8125,-204.1875
1696089586529,-1.0068359,-0.040039062,-0.11328125,-1.21875,2.0,0.28125,0.0,0.0,0.0
1696089586568,-1.015625,-0.045898438,-0.10253906,-1.9375,1.03125,-0.09375,0.0,0.0,0.0
1696089586609,-1.0117188,-0.044921875,-0.12109375,-1.53125,-0.5,-0.78125,0.0,0.0,0.0
1696089586648,-1.0019531,-0.038085938,-0.107421875,0.5625,-1.0,-0.59375,0.0,0.0,0.0
1696089586689,-1.0087891,-0.033203125,-0.12207031,4.34375,-1.21875,-0.03125,0.0,0.0,0.0
1696089586728,-1.0136719,-0.030273438,-0.111328125,1.46875,-1.96875,-0.65625,0.0,0.0,0.0
1696089586788,-1.0039062,-0.030273438,-0.13769531,0.5625,-1.0625,-0.65625,0.0,0.0,0.0
1696089586808,-1.0126953,-0.032226562,-0.12792969,1.71875,0.125,-0.09375,0.0,0.0,0.0
1696089586848,-1.0029297,-0.043945312,-0.12988281,-0.3125,0.1875,-0.46875,0.0,0.0,0.0
1696089586889,-1.0097656,-0.0234375,-0.1171875,-2.25,0.53125,-0.84375,0.0,0.0,0.0
1696089586928,-0.9980469,-0.037109375,-0.12207031,-0.71875,1.09375,0.34375,0.0,0.0,0.0
1696089586969,-1.0107422,-0.040039062,-0.10839844,0.5625,0.90625,0.6875,0.0,0.0,0.0
1696089587009,-1.0029297,-0.038085938,-0.11816406,0.1875,1.03125,0.34375,-70.375,8.5625,-204.5
1696089587049,-1.0126953,-0.041992188,-0.11425781,0.3125,0.40625,-0.09375,0.0,0.0,0.0
1696089587088,-1.015625,-0.030273438,-0.11230469,-0.375,-0.6875,-0.21875,0.0,0.0,0.0
1696089587129,-1.0087891,-0.034179688,-0.12207031,0.8125,0.40625,0.4375,0.0,0.0,0.0
1696089587169,-1.0146484,-0.037109375,-0.1328125,-1.71875,0.0,0.03125,0.0,0.0,0.0
1696089587209,-1.0068359,-0.049804688,-0.12109375,-0.65625,0.21875,-0.28125,0.0,0.0,0.0
1696089587249,-1.015625,-0.029296875,-0.12011719,-0.1875,-0.1875,-0.28125,0.0,0.0,0.0
1696089587288,-1.0107422,-0.033203125,-0.119140625,1.46875,-0.25,0.03125,0.0,0.0,0.0
1696089587328,-1.0087891,-0.032226562,-0.12402344,-0.65625,-0.25,0.03125,0.0,0.0,0.0
1696089587369,-1.0136719,-0.047851562,-0.12597656,0.125,0.46875,0.28125,0.0,0.0,0.0
1696089587409,-1.0,-0.05078125,-0.123046875,-0.4375,0.125,-0.09375,0.0,0.0,0.0
1696089587451,-1.0107422,-0.026367188,-0.11816406,-0.78125,-0.1875,-0.65625,0.0,0.0,0.0
1696089587490,-1.0117188,-0.026367188,-0.123046875,0.96875,0.46875,0.28125,-71.125,9.1875,-205.5625
1696089587548,-1.0185547,-0.043945312,-0.12890625,2.6875,1.34375,1.1875,0.0,0.0,0.0
1696089587568,-0.99609375,-0.051757812,-0.11816406,0.75,0.28125,-0.21875,0.0,0.0,0.0
1696089587609,-1.0224609,-0.03125,-0.11328125,-0.96875,-0.125,-1.125,0.0,0.0,0.0
1696089587648,-1.0039062,-0.029296875,-0.115234375,2.25,0.28125,-0.34375,0.0,0.0,0.0
1696089587689,-1.0117188,-0.033203125,-0.11816406,2.75,-1.0625,0.28125,0.0,0.0,0.0
1696089587728,-1.0029297,-0.026367188,-0.12597656,2.375,-0.9375,-0.28125,0.0,0.0,0.0
1696089587770,-1.0068359,-0.021484375,-0.12402344,-1.53125,-1.0625,-0.53125,0.0,0.0,0.0
1696089587808,-1.0107422,-0.0390625,-0.13574219,-0.71875,-0.375,-0.03125,0.0,0.0,0.0
1696089587849,-1.0068359,-0.044921875,-0.13085938,-0.84375,1.03125,0.34375,0.0,0.0,0.0
1696089587888,-1.0068359,-0.0546875,-0.12207031,-2.4375,1.53125,0.34375,0.0,0.0,0.0
1696089587928,-1.0048828,-0.048828125,-0.12792969,-1.03125,1.03125,-0.15625,0.0,0.0,0.0
1696089587969,-1.0136719,-0.026367188,-0.111328125,1.28125,0.96875,0.09375,0.0,0.0,0.0
1696089588009,-1.0058594,-0.020507812,-0.103515625,1.34375,-0.0625,0.03125,-70.1875,8.75,-202.25
1696089588048,-1.0166016,-0.025390625,-0.11035156,1.34375,-1.09375,-0.53125,0.0,0.0,0.0
1696089588089,-1.0068359,-0.02734375,-0.12890625,1.40625,-0.9375,-0.65625,0.0,0.0,0.0
1696089588129,-1.0117188,-0.025390625,-0.12988281,-0.96875,-0.4375,0.15625,0.0,0.0,0.0
1696089588168,-1.0136719,-0.028320312,-0.12109375,-0.90625,0.40625,0.4375,0.0,0.0,0.0
1696089588208,-1.0087891,-0.033203125,-0.12792969,-2.125,0.0625,0.15625,0.0,0.0,0.0
1696089588248,-1.0058594,-0.047851562,-0.125,-1.875,0.65625,-0.21875,0.0,0.0,0.0
1696089588309,-1.0029297,-0.04296875,-0.123046875,0.3125,0.21875,-0.15625,0.0,0.0,0.0
1696089588328,-1.0068359,-0.041992188,-0.12792969,1.71875,-0.3125,-0.09375,0.0,0.0,0.0
1696089588368,-1.0039062,-0.02734375,-0.125,3.375,-0.5,-0.40625,0.0,0.0,0.0
1696089588408,-1.0087891,-0.033203125,-0.123046875,2.5625,-0.0625,-0.34375,0.0,0.0,0.0
1696089588449,-1.0107422,-0.032226562,-0.13085938,3.3125,-0.125,0.03125,0.0,0.0,0.0
1696089588488,-1.0029297,-0.033203125,-0.12109375,0.625,-0.5,-0.40625,-72.0,7.25,-204.0625
1696089588528,-1.0136719,-0.025390625,-0.12597656,0.875,0.78125,-0.03125,0.0,0.0,0.0
1696089588589,-1.0039062,-0.025390625,-0.12402344,-1.75,0.28125,0.15625,0.0,0.0,0.0
1696089588608,-1.0136719,-0.038085938,-0.12207031,-0.96875,0.21875,-0.03125,0.0,0.0,0.0
1696089588648,-1.0126953,-0.04296875,-0.12109375,0.25,0.40625,0.03125,0.0,0.0,0.0
1696089588688,-1.0068359,-0.030273438,-0.1171875,-1.71875,-0.5625,-0.15625,0.0,0.0,0.0
1696089588729,-1.0107422,-0.037109375,-0.111328125,0.3125,-0.0625,-0.09375,0.0,0.0,0.0
1696089588768,-1.0058594,-0.0390625,-0.12597656,0.5625,-0.125,0.21875,0.0,0.0,0.0
1696089588808,-1.0068359,-0.046875,-0.123046875,0.75,-0.6875,0.03125,0.0,0.0,0.0
1696089588848,-1.0019531,-0.036132812,-0.12695312,1.28125,-0.0625,0.03125,0.0,0.0,0.0
1696089588888,-1.0029297,-0.034179688,-0.11621094,-0.4375,-0.6875,-0.46875,0.0,0.0,0.0
1696089588928,-1.0126953,-0.037109375,-0.123046875,1.46875,-0.25,-0.28125,0.0,0.0,0.0
1696089588969,-1.0078125,-0.029296875,-0.12402344,0.5,-0.5625,-0.28125,0.0,0.0,0.0
1696089589009,-1.0097656,-0.032226562,-0.13769531,-0.59375,-0.5,-0.21875,-70.9375,7.6875,-203.0
1696089589069,-1.0068359,-0.026367188,-0.11621094,0.125,-0.3125,-0.40625,0.0,0.0,0.0
1696089589088,-1.0117188,-0.025390625,-0.12402344,0.5,-0.25,-0.21875,0.0,0.0,0.0
1696089589129,-1.0019531,-0.022460938,-0.13964844,-0.84375,-0.625,0.21875,0.0,0.0,0.0
1696089589168,-1.0126953,-0.041015625,-0.12109375,-0.1875,0.1875,0.34375,0.0,0.0,0.0
1696089589208,-1.0068359,-0.038085938,-0.11816406,-2.0625,-0.0625,-0.15625,0.0,0.0,0.0
1696089589249,-1.0087891,-0.038085938,-0.10839844,-1.15625,0.65625,-0.09375,0.0,0.0,0.0
1696089589288,-1.0058594,-0.047851562,-0.1171875,0.1875,0.28125,-0.28125,0.0,0.0,0.0
1696089589328,-1.0,-0.03515625,-0.12011719,1.03125,-0.0625,-0.59375,0.0,0.0,0.0
1696089589368,-1.0078125,-0.025390625,-0.12597656,1.53125,-1.0625,-0.65625,0.0,0.0,0.0
1696089589410,-1.0039062,-0.01953125,-0.111328125,2.6875,-0.875,-0.09375,0.0,0.0,0.0
1696089589449,-1.0117188,-0.030273438,-0.11425781,0.625,-0.4375,-0.09375,0.0,0.0,0.0
1696089589488,-1.0039062,-0.03125,-0.11816406,-1.9375,-0.5,-0.15625,-70.8125,7.8125,-204.8125
1696089589530,-1.0107422,-0.037109375,-0.11621094,0.1875,0.53125,0.21875,0.0,0.0,0.0
1696089589568,-1.0117188,-0.041015625,-0.12792969,-2.25,0.0625,-0.34375,0.0,0.0,0.0
1696089589608,-1.0087891,-0.032226562,-0.10839844,-0.71875,-0.1875,-0.15625,0.0,0.0,0.0
1696089589649,-1.0048828,-0.03125,-0.11621094,2.09375,0.0,-0.40625,0.0,0.0,0.0
1696089589688,-1.0019531,-0.03125,-0.12988281,0.75,-0.4375,-0.28125,0.0,0.0,0.0
1696089589728,-1.0126953,-0.041015625,-0.125,0.5,0.0625,-0.09375,0.0,0.0,0.0
1696089589769,-1.0117188,-0.030273438,-0.115234375,-0.3125,-0.125,0.21875,0.0,0.0,0.0
1696089589829,-0.9980469,-0.034179688,-0.115234375,-0.71875,-0.0625,0.03125,0.0,0.0,0.0
1696089589851,-1.0058594,-0.040039062,-0.11328125,-0.125,0.59375,-0.21875,0.0,0.0,0.0
1696089589888,-1.0107422,-0.034179688,-0.109375,-0.46875,-0.3125,-0.71875,0.0,0.0,0.0
1696089589929,-1.0136719,-0.0390625,-0.11425781,0.625,-0.625,-0.71875,0.0,0.0,0.0
1696089589969,-1.0009766,-0.034179688,-0.123046875,1.59375,-0.1875,0.28125,0.0,0.0,0.0
1696089590008,-1.0068359,-0.0390625,-0.12402344,0.0625,-0.875,-0.40625,-70.1875,8.0,-205.125
1696089590049,-1.0058594,-0.033203125,-0.11425781,-0.0625,-0.625,-0.28125,0.0,0.0,0.0
1696089590089,-1.015625,-0.029296875,-0.11816406,0.8125,0.28125,0.15625,0.0,0.0,0.0
1696089590129,-1.0146484,-0.037109375,-0.13671875,-1.53125,0.46875,0.21875,0.0,0.0,0.0
1696089590168,-1.0087891,-0.051757812,-0.12109375,-0.65625,0.90625,-0.03125,0.0,0.0,0.0
1696089590208,-1.0048828,-0.03125,-0.123046875,-0.84375,0.78125,-0.34375,0.0,0.0,0.0
1696089590248,-1.015625,-0.021484375,-0.12207031,-0.125,0.21875,-0.46875,0.0,0.0,0.0
1696089590288,-1.0087891,-0.034179688,-0.11816406,0.875,-0.3125,-0.21875,0.0,0.0,0.0
1696089590328,-1.0146484,-0.038085938,-0.1328125,0.6875,-0.3125,0.21875,0.0,0.0,0.0
1696089590368,-1.0087891,-0.038085938,-0.13183594,0.625,-0.3125,0.28125,0.0,0.0,0.0
1696089590409,-1.015625,-0.037109375,-0.13378906,0.5,-0.1875,-0.15625,0.0,0.0,0.0
1696089590448,-1.0048828,-0.032226562,-0.12207031,-0.65625,0.125,-0.28125,0.0,0.0,0.0
1696089590489,-1.0068359,-0.028320312,-0.12597656,-1.03125,0.28125,-0.40625,-72.0,9.0625,-205.6875
1696089590529,-1.0146484,-0.045898438,-0.12792969,0.875,0.34375,-0.09375,0.0,0.0,0.0
1696089590588,-1.0107422,-0.0390625,-0.115234375,-0.25,-0.375,-0.21875,0.0,0.0,0.0
1696089590608,-1.0058594,-0.034179688,-0.11621094,0.3125,0.0,-0.53125,0.0,0.0,0.0
1696089590649,-1.0107422,-0.033203125,-0.1171875,0.6875,0.125,-0.03125,0.0,0.0,0.0
1696089590688,-1.0087891,-0.02734375,-0.125,-0.3125,-0.3125,-0.03125,0.0,0.0,0.0
1696089590728,-1.0058594,-0.038085938,-0.12207031,-0.1875,0.0,-0.15625,0.0,0.0,0.0
1696089590769,-1.0019531,-0.047851562,-0.11425781,-0.1875,0.1875,-0.03125,0.0,0.0,0.0
1696089590808,-1.0126953,-0.0390625,-0.11035156,0.5625,0.0,0.09375,0.0,0.0,0.0
1696089590849,-1.0146484,-0.0390625,-0.12011719,0.5,-0.4375,-0.15625,0.0,0.0,0.0
1696089590888,-1.0097656,-0.030273438,-0.1171875,0.4375,-0.5,-0.34375,0.0,0.0,0.0
1696089590928,-1.0117188,-0.033203125,-0.11328125,0.75,-0.3125,0.15625,0.0,0.0,0.0
1696089590969,-1.0087891,-0.044921875,-0.123046875,-0.0625,-0.4375,-0.46875,0.0,0.0,0.0
1696089591008,-1.0087891,-0.043945312,-0.12597656,-0.375,-0.4375,-0.78125,-70.625,7.6875,-203.625
1696089591048,-1.0048828,-0.036132812,-0.13378906,3.46875,0.1875,-0.34375,0.0,0.0,0.0
1696089591088,-1.0078125,-0.041992188,-0.12890625,2.8125,-0.4375,-0.21875,0.0,0.0,0.0
1696089591129,-0.99902344,-0.022460938,-0.109375,0.75,-0.75,-0.40625,0.0,0.0,0.0
1696089591168,-1.0097656,-0.028320312,-0.12597656,2.75,1.40625,1.125,0.0,0.0,0.0
1696089591208,-1.0068359,-0.041015625,-0.12109375,-1.875,0.1875,0.40625,0.0,0.0,0.0
1696089591248,-1.0107422,-0.024414062,-0.11035156,-1.03125,0.71875,-0.09375,0.0,0.0,0.0
1696089591289,-1.0039062,-0.034179688,-0.11816406,-1.75,-0.0625,-0.46875,0.0,0.0,0.0
1696089591347,-1.0166016,-0.025390625,-0.109375,0.125,-0.625,0.28125,0.0,0.0,0.0
1696089591368,-1.0029297,-0.04296875,-0.125,-0.125,-0.4375,0.40625,0.0,0.0,0.0
1696089591408,-1.0117188,-0.046875,-0.115234375,-0.90625,-0.875,-0.15625,0.0,0.0,0.0
1696089591449,-1.0068359,-0.037109375,-0.12597656,2.09375,-0.125,0.15625,0.0,0.0,0.0
1696089591489,-1.0068359,-0.028320312,-0.11621094,0.4375,0.0625,-0.03125,-69.875,8.0,-204.625
1696089591530,-1.0117188,-0.034179688,-0.12695312,-0.375,-0.0625,0.09375,0.0,0.0,0.0
1696089591569,-1.0107422,-0.038085938,-0.11621094,1.28125,0.125,0.15625,0.0,0.0,0.0
1696089591608,-1.0078125,-0.022460938,-0.12207031,0.375,-0.625,-0.21875,0.0,0.0,0.0
1696089591648,-1.0175781,-0.032226562,-0.10253906,-0.71875,-0.1875,-0.21875,0.0,0.0,0.0
1696089591688,-1.0146484,-0.034179688,-0.12207031,-0.1875,-0.3125,-0.15625,0.0,0.0,0.0
1696089591729,-1.0039062,-0.030273438,-0.12988281,-0.4375,-0.8125,-0.09375,0.0,0.0,0.0
1696089591769,-1.0185547,-0.03125,-0.12597656,0.875,-0.625,-0.09375,0.0,0.0,0.0
1696089591809,-1.0117188,-0.032226562,-0.13476562,0.3125,-0.6875,-0.21875,0.0,0.0,0.0
1696089591849,-0.9970703,-0.03125,-0.12207031,2.625,-0.3125,0.34375,0.0,0.0,0.0
1696089591889,-1.0117188,-0.043945312,-0.12695312,0.625,0.0,0.21875,0.0,0.0,0.0
1696089591930,-1.0136719,-0.036132812,-0.11230469,-0.125,0.59375,-0.40625,0.0,0.0,0.0
1696089591969,-1.0097656,-0.028320312,-0.1171875,-0.90625,0.34375,-0.28125,0.0,0.0,0.0
1696089592009,-1.0107422,-0.029296875,-0.10253906,-0.96875,-0.1875,-0.21875,-71.6875,8.75,-203.3125
1696089592049,-1.0175781,-0.037109375,-0.119140625,-0.84375,-0.1875,-0.59375,0.0,0.0,0.0
1696089592110,-1.0195312,-0.033203125,-0.11035156,-0.25,-0.375,-0.15625,0.0,0.0,0.0
1696089592128,-1.0146484,-0.017578125,-0.115234375,-0.1875,-0.75,-0.15625,0.0,0.0,0.0
1696089592170,-1.0117188,-0.036132812,-0.13183594,-0.0625,-0.375,-0.03125,0.0,0.0,0.0
1696089592208,-1.0117188,-0.041992188,-0.12988281,-0.78125,0.0625,-0.09375,0.0,0.0,0.0
1696089592249,-0.9980469,-0.03125,-0.10839844,-0.65625,-0.1875,-0.46875,0.0,0.0,0.0
1696089592289,-1.0078125,-0.03515625,-0.119140625,-0.0625,0.125,0.03125,0.0,0.0,0.0
1696089592329,-1.0029297,-0.030273438,-0.109375,2.09375,0.21875,-0.03125,0.0,0.0,0.0
1696089592369,-0.99609375,-0.026367188,-0.12011719,0.625,0.28125,0.03125,0.0,0.0,0.0
1696089592409,-1.0058594,-0.029296875,-0.119140625,1.03125,0.71875,0.09375,0.0,0.0,0.0
1696089592449,-1.0097656,-0.034179688,-0.111328125,-0.0625,0.0625,-0.28125,0.0,0.0,0.0
1696089592489,-1.0029297,-0.025390625,-0.119140625,1.09375,0.0625,-0.28125,-70.0625,9.1875,-205.25
1696089592529,-1.0019531,-0.026367188,-0.12109375,0.5625,0.0625,0.15625,0.0,0.0,0.0
1696089592569,-1.0068359,-0.046875,-0.12890625,1.59375,0.1875,0.09375,0.0,0.0,0.0
1696089592609,-1.0087891,-0.041015625,-0.10644531,-0.3125,-0.5625,-0.71875,0.0,0.0,0.0
1696089592649,-1.0195312,-0.034179688,-0.11425781,0.25,-1.0625,-1.3125,0.0,0.0,0.0
1696089592689,-0.9980469,-0.00390625,-0.12207031,2.15625,-0.125,0.6875,0.0,0.0,0.0
1696089592729,-1.0117188,-0.021484375,-0.111328125,0.90625,0.0,1.0,0.0,0.0,0.0
1696089592769,-1.0058594,-0.0390625,-0.12890625,-1.46875,0.40625,0.8125,0.0,0.0,0.0
1696089592809,-1.0126953,-0.032226562,-0.12011719,-1.9375,0.53125,0.21875,0.0,0.0,0.0
1696089592869,-1.0068359,-0.040039062,-0.119140625,0.0,1.15625,0.5,0.0,0.0,0.0
1696089592888,-1.0097656,-0.05078125,-0.12109375,-1.28125,1.53125,0.34375,0.0,0.0,0.0
1696089592928,-1.0068359,-0.040039062,-0.103515625,0.0,1.21875,0.21875,0.0,0.0,0.0
1696089592969,-1.015625,-0.0390625,-0.10644531,2.5,1.34375,-0.03125,0.0,0.0,0.0
1696089593029,-1.0117188,-0.026367188,-0.103515625,1.46875,-0.25,-0.78125,-70.375,8.5625,-203.75
1696089593049,-1.0068359,-0.03125,-0.123046875,2.25,-0.625,-0.34375,0.0,0.0,0.0
1696089593088,-1.0078125,-0.029296875,-0.11621094,4.53125,-1.34375,-0.59375,0.0,0.0,0.0
1696089593129,-1.015625,-0.02734375,-0.12207031,3.65625,-1.09375,-0.59375,0.0,0.0,0.0
1696089593169,-0.99902344,-0.02734375,-0.12988281,0.375,-0.875,-0.46875,0.0,0.0,0.0
1696089593208,-1.0058594,-0.038085938,-0.125,0.125,0.0625,0.15625,0.0,0.0,0.0
1696089593249,-1.0029297,-0.037109375,-0.13085938,-0.1875,0.84375,0.28125,0.0,0.0,0.0
1696089593289,-1.0097656,-0.041992188,-0.12792969,-0.3125,1.53125,0.34375,0.0,0.0,0.0
1696089593329,-1.0048828,-0.03125,-0.125,-0.59375,0.90625,-0.28125,0.0,0.0,0.0
1696089593369,-1.0009766,-0.018554688,-0.12402344,1.71875,1.15625,0.4375,0.0,0.0,0.0
1696089593409,-1.0087891,-0.03125,-0.1328125,1.59375,0.53125,0.6875,0.0,0.0,0.0
1696089593448,-1.015625,-0.040039062,-0.13867188,1.71875,0.0,0.5625,0.0,0.0,0.0
1696089593489,-1.0039062,-0.034179688,-0.12402344,2.3125,-0.0625,0.8125,-69.3125,7.0625,-205.5625
1696089593529,-1.0058594,-0.02734375,-0.13769531,0.75,-0.1875,0.40625,0.0,0.0,0.0
1696089593568,-1.0058594,-0.034179688,-0.13671875,0.90625,0.28125,0.6875,0.0,0.0,0.0
1696089593628,-1.0126953,-0.041992188,-0.12402344,0.5,0.65625,0.40625,0.0,0.0,0.0
1696089593648,-1.0078125,-0.040039062,-0.11621094,-1.21875,0.28125,-0.03125,0.0,0.0,0.0
1696089593688,-1.0126953,-0.026367188,-0.12402344,-0.90625,-0.125,-0.53125,0.0,0.0,0.0
1696089593729,-1.0136719,-0.028320312,-0.13378906,1.65625,0.125,-0.15625,0.0,0.0,0.0
1696089593769,-1.0058594,-0.028320312,-0.111328125,0.1875,-0.875,-0.21875,0.0,0.0,0.0
1696089593808,-1.0107422,-0.034179688,-0.13183594,-1.15625,-0.8125,-0.40625,0.0,0.0,0.0
1696089593849,-1.0,-0.025390625,-0.12890625,-0.3125,-0.875,-0.46875,0.0,0.0,0.0
1696089593889,-1.0087891,-0.025390625,-0.13378906,0.0,0.0625,0.34375,0.0,0.0,0.0
1696089593929,-1.0126953,-0.040039062,-0.12988281,-0.65625,0.90625,0.8125,0.0,0.0,0.0
1696089593969,-1.0058594,-0.043945312,-0.12988281,-1.46875,1.46875,0.09375,0.0,0.0,0.0
1696089594008,-1.015625,-0.044921875,-0.123046875,-2.0,0.84375,-0.53125,-72.875,7.8125,-204.1875
1696089594048,-1.0117188,-0.029296875,-0.11816406,1.15625,0.46875,-0.59375,0.0,0.0,0.0
1696089594089,-1.0117188,-0.018554688,-0.111328125,2.375,-0.5625,-0.21875,0.0,0.0,0.0
1696089594129,-1.0195312,-0.016601562,-0.13476562,1.03125,-1.09375,-0.03125,0.0,0.0,0.0
1696089594168,-1.0068359,-0.02734375,-0.12011719,-0.375,-1.21875,-0.40625,0.0,0.0,0.0
1696089594209,-1.0166016,-0.041992188,-0.1328125,-1.34375,-0.9375,-0.46875,0.0,0.0,0.0
1696089594248,-1.0087891,-0.025390625,-0.125,-0.1875,-0.125,-0.09375,0.0,0.0,0.0
1696089594288,-1.0117188,-0.033203125,-0.12207031,-0.96875,0.0625,-0.46875,0.0,0.0,0.0
1696089594328,-1.0048828,-0.0234375,-0.10546875,-0.46875,0.40625,-0.46875,0.0,0.0,0.0
1696089594389,-1.0078125,-0.018554688,-0.119140625,0.8125,-0.0625,-0.09375,0.0,0.0,0.0
1696089594410,-1.0048828,-0.030273438,-0.125,1.46875,-0.125,0.28125,0.0,0.0,0.0
1696089594449,-1.0048828,-0.0234375,-0.125,-0.84375,-0.4375,-0.21875,0.0,0.0,0.0
1696089594488,-1.0166016,-0.03125,-0.119140625,-0.125,-0.1875,-0.09375,-71.125,10.375,-205.25
1696089594528,-1.0029297,-0.040039062,-0.12011719,-1.75,0.21875,-0.15625,0.0,0.0,0.0
1696089594570,-0.99902344,-0.0390625,-0.13085938,-0.1875,0.40625,-0.03125,0.0,0.0,0.0
1696089594608,-1.0029297,-0.024414062,-0.11425781,1.28125,0.71875,0.03125,0.0,0.0,0.0
1696089594648,-1.0097656,-0.02734375,-0.13085938,0.3125,0.21875,0.03125,0.0,0.0,0.0
1696089594689,-1.0146484,-0.020507812,-0.1171875,0.125,0.0625,0.15625,0.0,0.0,0.0
1696089594728,-1.0166016,-0.025390625,-0.125,0.0625,0.40625,0.34375,0.0,0.0,0.0
1696089594770,-1.0058594,-0.03515625,-0.119140625,-1.09375,-0.375,0.03125,0.0,0.0,0.0
1696089594808,-1.0107422,-0.034179688,-0.12402344,-0.3125,0.0,-0.46875,0.0,0.0,0.0
1696089594848,-1.0136719,-0.038085938,-0.13964844,-0.78125,-0.625,-0.78125,0.0,0.0,0.0
1696089594888,-1.0136719,-0.022460938,-0.12402344,1.40625,-0.625,0.03125,0.0,0.0,0.0
1696089594928,-1.0039062,-0.024414062,-0.12402344,0.625,-0.1875,0.09375,0.0,0.0,0.0
1696089594969,-1.0126953,-0.036132812,-0.12207031,-1.40625,-0.25,-0.28125,0.0,0.0,0.0
1696089595008,-1.0058594,-0.029296875,-0.125,0.75,0.40625,-0.09375,-70.9375,8.0,-204.375
1696089595048,-1.0078125,-0.033203125,-0.12792969,-0.1875,0.46875,0.09375,0.0,0.0,0.0
1696089595088,-1.0029297,-0.03125,-0.1171875,-0.125,0.28125,-0.21875,0.0,0.0,0.0
1696089595149,-1.015625,-0.038085938,-0.123046875,0.0625,0.1875,-0.21875,0.0,0.0,0.0
1696089595169,-1.0107422,-0.03125,-0.11230469,0.25,-0.375,-0.09375,0.0,0.0,0.0
1696089595208,-1.0195312,-0.026367188,-0.111328125,1.65625,-0.4375,-0.09375,0.0,0.0,0.0
1696089595248,-1.0126953,-0.028320312,-0.13183594,0.5625,-0.6875,-0.28125,0.0,0.0,0.0
1696089595290,-1.0214844,-0.024414062,-0.13183594,1.03125,0.1875,0.40625,0.0,0.0,0.0
1696089595329,-0.9951172,-0.030273438,-0.12695312,-0.125,0.46875,0.625,0.0,0.0,0.0
1696089595368,-1.015625,-0.024414062,-0.13085938,-0.71875,0.34375,0.40625,0.0,0.0,0.0
1696089595409,-1.0097656,-0.043945312,-0.11816406,-0.25,0.96875,0.34375,0.0,0.0,0.0
1696089595448,-1.0019531,-0.0390625,-0.1171875,-0.96875,0.125,-0.46875,0.0,0.0,0.0
1696089595488,-1.0078125,-0.018554688,-0.12109375,1.03125,0.21875,-0.15625,-70.9375,7.25,-204.375
1696089595528,-1.0039062,-0.016601562,-0.11816406,0.875,-0.5,0.03125,0.0,0.0,0.0
1696089595568,-1.0087891,-0.030273438,-0.11621094,-0.0625,-1.28125,-0.40625,0.0,0.0,0.0
1696089595608,-1.0078125,-0.028320312,-0.13183594,-0.96875,-1.21875,-0.53125,0.0,0.0,0.0
1696089595669,-1.0078125,-0.024414062,-0.12402344,1.40625,-0.125,0.15625,0.0,0.0,0.0
1696089595688,-1.0195312,-0.026367188,-0.12011719,-0.125,0.78125,0.40625,0.0,0.0,0.0
1696089595728,-1.0078125,-0.029296875,-0.1328125,-2.375,0.28125,-0.28125,0.0,0.0,0.0
1696089595769,-1.0048828,-0.033203125,-0.125,-0.125,0.65625,0.09375,0.0,0.0,0.0
1696089595808,-1.0019531,-0.025390625,-0.13378906,-0.3125,-0.1875,0.03125,0.0,0.0,0.0
1696089595848,-1.0068359,-0.03125,-0.12988281,0.75,-0.375,0.09375,0.0,0.0,0.0
1696089595909,-1.0068359,-0.030273438,-0.12402344,1.71875,0.125,0.28125,0.0,0.0,0.0
1696089595928,-1.0166016,-0.025390625,-0.125,-0.90625,-0.3125,-0.40625,0.0,0.0,0.0
1696089595969,-1.0039062,-0.024414062,-0.12207031,0.0,-0.3125,-0.34375,0.0,0.0,0.0
1696089596009,-1.015625,-0.030273438,-0.12695312,1.34375,-0.1875,-0.28125,-71.125,8.125,-206.3125
1696089596049,-1.0087891,-0.022460938,-0.13476562,0.125,0.0625,-0.28125,0.0,0.0,0.0
1696089596089,-1.0136719,-0.02734375,-0.13085938,-0.59375,0.0,-0.40625,0.0,0.0,0.0
1696089596128,-1.0107422,-0.032226562,-0.12207031,-1.40625,0.84375,0.15625,0.0,0.0,0.0
1696089596169,-1.0126953,-0.030273438,-0.11328125,-1.59375,0.34375,0.34375,0.0,0.0,0.0
1696089596211,-1.0097656,-0.036132812,-0.11816406,0.3125,0.34375,-0.15625,0.0,0.0,0.0
1696089596249,-1.0117188,-0.022460938,-0.11816406,-0.65625,-0.625,-0.65625,0.0,0.0,0.0
1696089596288,-1.0107422,-0.041015625,-0.12890625,1.65625,-0.625,-0.40625,0.0,0.0,0.0
1696089596328,-0.98828125,-0.04296875,-0.123046875,-1.65625,-1.40625,-2.53125,0.0,0.0,0.0
1696089596369,-1.0146484,-0.037109375,-0.12890625,0.8125,0.1875,-1.5,0.0,0.0,0.0
1696089596410,-1.0068359,-0.028320312,-0.13476562,3.125,-0.1875,-0.46875,0.0,0.0,0.0
1696089596450,-1.0166016,-0.013671875,-0.13085938,2.3125,0.0,0.6875,0.0,0.0,0.0
1696089596489,-1.0234375,-0.020507812,-0.140625,0.625,0.90625,0.625,-71.125,7.8125,-204.5
1696089596529,-1.0039062,-0.036132812,-0.12890625,-2.9375,0.59375,0.40625,0.0,0.0,0.0
1696089596570,-1.0146484,-0.0390625,-0.12207031,-2.1875,1.03125,0.4375,0.0,0.0,0.0
1696089596609,-1.0078125,-0.032226562,-0.12011719,0.0625,1.34375,0.75,0.0,0.0,0.0
1696089596670,-1.0166016,-0.041015625,-0.12597656,0.3125,0.53125,0.625,0.0,0.0,0.0
1696089596690,-1.0039062,-0.041015625,-0.12402344,-1.03125,-0.0625,-0.09375,0.0,0.0,0.0
1696089596728,-1.0117188,-0.036132812,-0.123046875,1.03125,-0.4375,-0.46875,0.0,0.0,0.0
1696089596769,-1.0009766,-0.033203125,-0.119140625,2.6875,-1.0,-0.09375,0.0,0.0,0.0
1696089596809,-1.0117188,-0.033203125,-0.11621094,3.25,-1.15625,-0.21875,0.0,0.0,0.0
1696089596849,-1.0068359,-0.033203125,-0.119140625,1.71875,-0.5,0.03125,0.0,0.0,0.0
1696089596889,-1.0039062,-0.029296875,-0.13183594,1.28125,-0.25,-0.34375,0.0,0.0,0.0
1696089596928,-1.0097656,-0.02734375,-0.14453125,-0.84375,0.0625,-0.09375,0.0,0.0,0.0
1696089596970,-1.0019531,-0.01953125,-0.1328125,-0.1875,0.0625,-0.15625,0.0,0.0,0.0
1696089597008,-1.0107422,-0.033203125,-0.12597656,0.0625,0.78125,0.15625,-70.625,8.0,-204.375
1696089597049,-1.0087891,-0.030273438,-0.12207031,-2.3125,0.125,-0.34375,0.0,0.0,0.0
1696089597089,-1.0039062,-0.0234375,-0.12109375,-0.71875,0.1875,-0.34375,0.0,0.0,0.0
1696089597129,-1.0078125,-0.033203125,-0.12402344,-1.03125,-0.4375,-0.28125,0.0,0.0,0.0
1696089597169,-1.0205078,-0.030273438,-0.125,0.25,-0.3125,-0.15625,0.0,0.0,0.0
1696089597208,-1.0097656,-0.05078125,-0.12988281,2.25,-0.625,-0.03125,0.0,0.0,0.0
1696089597249,-1.0078125,-0.032226562,-0.13867188,1.84375,-0.375,-0.09375,0.0,0.0,0.0
1696089597288,-1.015625,-0.026367188,-0.12109375,-0.0625,0.78125,-0.09375,0.0,0.0,0.0
1696089597329,-1.0087891,-0.038085938,-0.12207031,-1.46875,0.21875,-0.15625,0.0,0.0,0.0
1696089597369,-1.0126953,-0.028320312,-0.11230469,1.71875,0.1875,-0.09375,0.0,0.0,0.0
1696089597429,-1.0107422,-0.016601562,-0.12597656,-0.96875,-0.125,-0.21875,0.0,0.0,0.0
1696089597449,-1.0078125,-0.026367188,-0.12011719,-0.0625,-0.4375,0.09375,0.0,0.0,0.0
1696089597489,-1.0029297,-0.038085938,-0.13085938,0.5625,-0.3125,0.34375,-72.3125,8.3125,-205.375
1696089597528,-1.0097656,-0.032226562,-0.13671875,-2.25,-0.5625,-0.28125,0.0,0.0,0.0
1696089597569,-1.0039062,-0.038085938,-0.119140625,-0.3125,0.0625,0.21875,0.0,0.0,0.0
1696089597609,-1.0019531,-0.037109375,-0.12695312,0.1875,0.40625,0.15625,0.0,0.0,0.0
1696089597649,-1.0078125,-0.030273438,-0.12890625,0.1875,0.34375,-0.34375,0.0,0.0,0.0
1696089597688,-1.0117188,-0.026367188,-0.123046875,0.0,0.125,-0.59375,0.0,0.0,0.0
1696089597729,-1.0097656,-0.01953125,-0.11425781,1.34375,-0.125,-0.09375,0.0,0.0,0.0
1696089597769,-0.99902344,-0.033203125,-0.12890625,1.53125,-0.3125,0.40625,0.0,0.0,0.0
1696089597809,-1.0039062,-0.028320312,-0.12109375,1.21875,-0.25,-0.09375,0.0,0.0,0.0
1696089597849,-1.0117188,-0.02734375,-0.125,-1.21875,-0.375,-0.53125,0.0,0.0,0.0
1696089597888,-0.99902344,-0.026367188,-0.125,-0.375,0.28125,0.09375,0.0,0.0,0.0
1696089597929,-1.0136719,-0.025390625,-0.11621094,-0.25,-0.25,0.5,0.0,0.0,0.0
1696089597970,-1.0029297,-0.038085938,-0.12988281,-0.53125,0.0625,0.28125,0.0,0.0,0.0
1696089598008,-1.0029297,-0.03515625,-0.12402344,-1.03125,0.125,-0.03125,-72.3125,8.3125,-204.0625
1696089598049,-1.0029297,-0.025390625,-0.12597656,-0.25,0.21875,-0.15625,0.0,0.0,0.0
1696089598089,-1.0029297,-0.028320312,-0.119140625,-0.0625,-0.25,-0.40625,0.0,0.0,0.0
1696089598129,-1.0058594,-0.024414062,-0.12402344,-0.125,-0.625,-0.71875,0.0,0.0,0.0
1696089598188,-1.0097656,-0.0234375,-0.11816406,0.8125,-0.9375,-0.90625,0.0,0.0,0.0
1696089598208,-1.0087891,-0.01953125,-0.12890625,1.03125,-0.9375,-0.21875,0.0,0.0,0.0
1696089598249,-1.0039062,-0.024414062,-0.12597656,0.625,-0.125,0.40625,0.0,0.0,0.0
1696089598290,-1.0107422,-0.02734375,-0.14160156,-1.21875,0.21875,0.09375,0.0,0.0,0.0
1696089598329,-1.0048828,-0.034179688,-0.11621094,-1.21875,0.46875,-0.28125,0.0,0.0,0.0
1696089598369,-1.0087891,-0.024414062,-0.11816406,-1.53125,0.1875,-0.40625,0.0,0.0,0.0
1696089598409,-0.99902344,-0.0234375,-0.12695312,-0.0625,0.1875,-0.28125,0.0,0.0,0.0
1696089598449,-1.0126953,-0.02734375,-0.12402344,-0.53125,-0.125,0.09375,0.0,0.0,0.0
1696089598488,-1.0019531,-0.038085938,-0.12597656,0.875,-0.375,-0.21875,-74.125,8.3125,-205.375
1696089598529,-1.0029297,-0.036132812,-0.115234375,-1.34375,-1.21875,-0.65625,0.0,0.0,0.0
1696089598569,-0.9970703,-0.025390625,-0.123046875,3.0,0.0625,0.15625,0.0,0.0,0.0
1696089598609,-1.0097656,-0.026367188,-0.12695312,-0.25,0.125,0.28125,0.0,0.0,0.0
1696089598649,-1.0068359,-0.037109375,-0.123046875,0.3125,0.53125,0.15625,0.0,0.0,0.0
1696089598689,-1.0048828,-0.038085938,-0.12207031,-0.71875,0.28125,-0.28125,0.0,0.0,0.0
1696089598729,-1.0078125,-0.0234375,-0.1171875,-0.78125,-0.5,-0.53125,0.0,0.0,0.0
1696089598769,-1.0136719,-0.016601562,-0.123046875,0.8125,-0.25,-0.03125,0.0,0.0,0.0
1696089598809,-1.0166016,-0.04296875,-0.13867188,0.96875,-0.25,-0.09375,0.0,0.0,0.0
1696089598849,-0.99902344,-0.024414062,-0.12695312,-1.15625,-1.09375,-0.53125,0.0,0.0,0.0
1696089598889,-1.0097656,-0.028320312,-0.13769531,0.0625,-0.125,-0.65625,0.0,0.0,0.0
1696089598949,-1.0019531,-0.021484375,-0.11816406,-0.0625,-0.5625,-0.40625,0.0,0.0,0.0
1696089598969,-1.0048828,-0.032226562,-0.12792969,2.3125,0.34375,0.40625,0.0,0.0,0.0
1696089599009,-1.0039062,-0.020507812,-0.1171875,-0.125,0.0625,-0.09375,-71.6875,6.9375,-206.0
1696089599049,-1.0136719,-0.025390625,-0.103515625,-0.4375,0.46875,0.15625,0.0,0.0,0.0
1696089599089,-1.0136719,-0.033203125,-0.12402344,-0.90625,0.1875,0.28125,0.0,0.0,0.0
1696089599129,-1.0087891,-0.040039062,-0.12402344,0.0,0.0625,-0.09375,0.0,0.0,0.0
1696089599170,-1.0126953,-0.02734375,-0.13378906,-0.78125,-0.4375,-0.28125,0.0,0.0,0.0
1696089599209,-1.0117188,-0.036132812,-0.1171875,-0.0625,-0.375,-0.09375,0.0,0.0,0.0
1696089599249,-1.0107422,-0.030273438,-0.125,0.125,-1.15625,-0.34375,0.0,0.0,0.0
1696089599288,-1.0058594,-0.018554688,-0.12402344,1.53125,-0.9375,-0.09375,0.0,0.0,0.0
1696089599329,-0.99902344,-0.030273438,-0.12109375,0.75,-0.375,0.09375,0.0,0.0,0.0
1696089599369,-1.0107422,-0.017578125,-0.12890625,0.0,0.125,0.34375,0.0,0.0,0.0
1696089599409,-1.0097656,-0.032226562,-0.125,-2.25,1.03125,0.40625,0.0,0.0,0.0
1696089599448,-1.0107422,-0.038085938,-0.13378906,-3.0,0.84375,-0.09375,0.0,0.0,0.0
1696089599489,-0.9970703,-0.049804688,-0.12207031,-0.84375,0.40625,-0.59375,-70.1875,8.0,-205.125
1696089599529,-1.0068359,-0.024414062,-0.12890625,0.5,-0.1875,-0.84375,0.0,0.0,0.0
1696089599568,-1.0039062,-0.01171875,-0.119140625,2.09375,-1.34375,-0.46875,0.0,0.0,0.0
1696089599609,-1.0195312,-0.0107421875,-0.12792969,0.375,-1.65625,-0.21875,0.0,0.0,0.0
1696089599649,-1.0146484,-0.033203125,-0.12597656,0.4375,-1.0,0.21875,0.0,0.0,0.0
1696089599708,-1.0078125,-0.038085938,-0.13476562,-1.75,0.0,-0.03125,0.0,0.0,0.0
1696089599729,-1.0068359,-0.040039062,-0.119140625,-2.3125,0.71875,-0.34375,0.0,0.0,0.0
1696089599769,-1.0058594,-0.030273438,-0.10839844,-1.09375,1.03125,-0.46875,0.0,0.0,0.0
1696089599809,-1.0097656,-0.028320312,-0.11035156,-0.3125,0.90625,-0.15625,0.0,0.0,0.0
1696089599850,-1.0175781,-0.022460938,-0.12011719,0.0625,-0.0625,0.09375,0.0,0.0,0.0
1696089599889,-1.0078125,-0.037109375,-0.10839844,0.75,-0.625,-0.40625,0.0,0.0,0.0
1696089599928,-1.0146484,-0.025390625,-0.12207031,1.28125,-0.75,-0.78125,0.0,0.0,0.0
1696089599969,-1.0048828,-0.022460938,-0.13085938,1.46875,-0.25,-0.03125,0.0,0.0,0.0
1696089600008,-1.0019531,-0.034179688,-0.119140625,0.125,-0.4375,0.15625,-71.875,8.5625,-204.8125
1696089600051,-1.0107422,-0.033203125,-0.12890625,-0.4375,0.1875,-0.09375,0.0,0.0,0.0
1696089600089,-1.0117188,-0.03125,-0.115234375,0.25,0.46875,-0.09375,0.0,0.0,0.0
1696089600129,-1.0107422,-0.024414062,-0.123046875,0.0,0.28125,0.03125,0.0,0.0,0.0
1696089600168,-1.0117188,-0.033203125,-0.13378906,0.625,0.65625,0.03125,0.0,0.0,0.0
1696089600209,-1.0009766,-0.02734375,-0.12207031,-0.59375,0.28125,0.03125,0.0,0.0,0.0
1696089600248,-1.0058594,-0.024414062,-0.115234375,0.6875,0.21875,0.09375,0.0,0.0,0.0
1696089600288,-1.0107422,-0.030273438,-0.12402344,-0.1875,-0.5,-0.21875,0.0,0.0,0.0
1696089600329,-1.0058594,-0.026367188,-0.11230469,0.625,-0.875,-0.53125,0.0,0.0,0.0
1696089600369,-1.0205078,-0.033203125,-0.12011719,1.71875,-0.3125,-0.03125,0.0,0.0,0.0
1696089600409,-0.9951172,-0.026367188,-0.1171875,-0.125,0.0625,0.15625,0.0,0.0,0.0
1696089600468,-1.0078125,-0.026367188,-0.12695312,-2.3125,0.34375,0.28125,0.0,0.0,0.0
1696089600488,-1.0136719,-0.032226562,-0.123046875,-0.96875,0.71875,-0.21875,-70.8125,7.8125,-205.875
1696089600529,-1.0244141,-0.04296875,-0.12109375,-1.9375,0.28125,-0.40625,0.0,0.0,0.0
1696089600569,-1.0009766,-0.029296875,-0.12988281,0.125,-0.125,-0.53125,0.0,0.0,0.0
1696089600608,-1.0039062,-0.0234375,-0.10839844,3.0,0.1875,-0.21875,0.0,0.0,0.0
1696089600649,-1.0097656,-0.0078125,-0.12207031,1.84375,-0.6875,-0.21875,0.0,0.0,0.0
1696089600689,-1.0087891,-0.016601562,-0.140625,-0.90625,-0.5625,-0.21875,0.0,0.0,0.0
1696089600729,-1.0039062,-0.033203125,-0.11425781,1.21875,-0.25,-0.03125,0.0,0.0,0.0
1696089600769,-1.0058594,-0.022460938,-0.11425781,-1.65625,-0.1875,-0.53125,0.0,0.0,0.0
1696089600809,-1.0126953,-0.029296875,-0.12988281,-2.1875,-0.1875,-0.71875,0.0,0.0,0.0
1696089600848,-1.0009766,-0.033203125,-0.111328125,0.375,0.0625,-0.53125,0.0,0.0,0.0
1696089600888,-1.0068359,-0.026367188,-0.119140625,-1.15625,-0.3125,-0.40625,0.0,0.0,0.0
1696089600929,-1.0117188,-0.026367188,-0.12109375,-1.09375,0.125,0.09375,0.0,0.0,0.0
1696089600970,-1.0068359,-0.048828125,-0.12011719,1.03125,0.125,0.40625,0.0,0.0,0.0
1696089601029,-1.0078125,-0.046875,-0.119140625,0.5625,0.21875,0.03125,-72.75,8.75,-205.375
1696089601049,-1.0087891,-0.037109375,-0.11816406,-0.46875,0.1875,-0.59375,0.0,0.0,0.0
1696089601128,-1.0126953,-0.032226562,-0.13085938,2.75,0.46875,-0.03125,0.0,0.0,0.0
1696089601149,-1.0058594,-0.0146484375,-0.11425781,1.09375,-0.5,-0.28125,0.0,0.0,0.0
1696089601169,-1.0126953,-0.016601562,-0.11328125,0.3125,-0.625,-0.78125,0.0,0.0,0.0
1696089601230,-1.0126953,-0.015625,-0.11621094,-0.0625,-1.15625,-0.9375,0.0,0.0,0.0
1696089601248,-1.0078125,-0.021484375,-0.12988281,-0.1875,-0.3125,-0.09375,0.0,0.0,0.0
1696089601288,-1.0195312,-0.037109375,-0.119140625,-2.0,0.0625,0.09375,0.0,0.0,0.0
1696089601328,-1.0039062,-0.053710938,-0.12988281,-1.75,0.46875,-0.21875,0.0,0.0,0.0
1696089601368,-1.0136719,-0.040039062,-0.12109375,-0.25,0.53125,-0.53125,0.0,0.0,0.0
1696089601409,-1.0146484,-0.03125,-0.12402344,1.40625,0.53125,-0.34375,0.0,0.0,0.0
1696089601449,-1.0058594,-0.024414062,-0.13183594,2.3125,0.46875,0.03125,0.0,0.0,0.0
1696089601509,-0.99902344,-0.02734375,-0.107421875,1.09375,-0.6875,-0.71875,-71.875,7.8125,-205.5625
1696089601529,-1.0068359,-0.0107421875,-0.11230469,1.21875,-0.75,-0.9375,0.0,0.0,0.0
1696089601569,-1.0078125,-0.0078125,-0.12109375,-1.15625,-1.0625,-0.65625,0.0,0.0,0.0
1696089601608,-1.0009766,-0.021484375,-0.12011719,-0.125,-0.4375,0.09375,0.0,0.0,0.0
1696089601649,-1.0087891,-0.033203125,-0.12402344,-0.375,0.21875,0.09375,0.0,0.0,0.0
1696089601689,-1.0029297,-0.046875,-0.11816406,-3.28125,-0.3125,-0.65625,0.0,0.0,0.0
1696089601729,-1.0107422,-0.033203125,-0.12988281,-0.65625,0.59375,-0.53125,0.0,0.0,0.0
1696089601769,-1.0107422,-0.034179688,-0.123046875,1.21875,0.59375,0.09375,0.0,0.0,0.0
1696089601809,-1.0107422,-0.029296875,-0.12109375,1.46875,0.28125,0.03125,0.0,0.0,0.0
1696089601848,-1.0107422,-0.026367188,-0.12695312,0.125,-0.8125,-0.78125,0.0,0.0,0.0
1696089601888,-1.0058594,-0.024414062,-0.11621094,1.90625,-0.5,-0.59375,0.0,0.0,0.0
1696089601929,-1.0019531,-0.015625,-0.123046875,0.125,-0.5,-0.15625,0.0,0.0,0.0
1696089601989,-1.0175781,-0.026367188,-0.123046875,0.0625,0.0,-0.21875,0.0,0.0,0.0
1696089602030,-1.0107422,-0.03515625,-0.12109375,-0.3125,0.21875,-0.40625,-69.4375,7.6875,-204.375
1696089602049,-1.0146484,-0.021484375,-0.12988281,-0.65625,0.1875,-0.21875,0.0,0.0,0.0
1696089602088,-1.0117188,-0.02734375,-0.12402344,-1.21875,-0.1875,0.15625,0.0,0.0,0.0
1696089602129,-1.0078125,-0.044921875,-0.12890625,0.3125,0.78125,0.625,0.0,0.0,0.0
1696089602190,-1.0097656,-0.056640625,-0.13085938,0.0,0.46875,0.4375,0.0,0.0,0.0
1696089602229,-1.0146484,-0.04296875,-0.12402344,-1.46875,0.21875,-0.21875,0.0,0.0,0.0
1696089602270,-1.0029297,-0.030273438,-0.12988281,0.4375,0.71875,-0.09375,0.0,0.0,0.0
1696089602309,-1.0039062,-0.033203125,-0.12011719,1.65625,0.0625,-0.28125,0.0,0.0,0.0
1696089602351,-1.0117188,-0.018554688,-0.11230469,2.15625,-0.375,-0.15625,0.0,0.0,0.0
1696089602389,-1.0097656,-0.018554688,-0.115234375,0.4375,-0.9375,-0.28125,0.0,0.0,0.0
1696089602429,-1.0107422,-0.022460938,-0.10839844,0.875,-0.625,-0.28125,0.0,0.0,0.0
1696089602469,-1.0087891,-0.025390625,-0.125,-0.25,0.0,-0.09375,0.0,0.0,0.0
1696089602509,-1.0097656,-0.03515625,-0.13085938,-1.09375,-0.125,-0.21875,-70.8125,8.875,-205.5625
1696089602549,-1.0185547,-0.030273438,-0.123046875,-1.03125,0.28125,-0.15625,0.0,0.0,0.0
1696089602589,-1.0107422,-0.02734375,-0.13183594,-0.46875,0.1875,-0.03125,0.0,0.0,0.0
1696089602628,-1.0078125,-0.02734375,-0.13378906,0.4375,0.0,-0.09375,0.0,0.0,0.0
1696089602670,-1.0166016,-0.0390625,-0.12890625,0.96875,0.125,0.15625,0.0,0.0,0.0
1696089602709,-1.0048828,-0.025390625,-0.123046875,0.96875,0.0625,-0.15625,0.0,0.0,0.0
1696089602750,-1.0097656,-0.017578125,-0.109375,0.0,-0.1875,-0.15625,0.0,0.0,0.0
1696089602789,-1.0039062,-0.032226562,-0.123046875,0.8125,0.65625,0.28125,0.0,0.0,0.0
1696089602829,-1.015625,-0.040039062,-0.11816406,-0.4375,-0.0625,-0.15625,0.0,0.0,0.0
1696089602869,-1.0146484,-0.037109375,-0.12207031,-0.71875,-0.3125,-0.71875,0.0,0.0,0.0
1696089602910,-1.0039062,-0.029296875,-0.12402344,-0.78125,-0.25,-0.09375,0.0,0.0,0.0
1696089602952,-1.015625,-0.03515625,-0.12011719,0.5625,-0.4375,0.15625,0.0,0.0,0.0
1696089602988,-1.0097656,-0.048828125,-0.12988281,-0.0625,-0.0625,0.09375,0.0,0.0,0.0
1696089603030,-1.0029297,-0.036132812,-0.12988281,-0.84375,0.0,-0.40625,-71.25,9.0625,-205.125
1696089603069,-1.0029297,-0.028320312,-0.12207031,1.03125,0.21875,-0.28125,0.0,0.0,0.0
1696089603109,-1.0107422,-0.022460938,-0.13378906,1.09375,0.1875,-0.09375,0.0,0.0,0.0
1696089603149,-1.0029297,-0.0234375,-0.12988281,1.21875,-0.125,0.03125,0.0,0.0,0.0
1696089603188,-1.0039062,-0.029296875,-0.11621094,-0.46875,-0.5625,-0.09375,0.0,0.0,0.0
1696089603228,-1.0195312,-0.032226562,-0.14746094,1.15625,0.0625,-0.03125,0.0,0.0,0.0
1696089603269,-1.0058594,-0.025390625,-0.119140625,-1.8125,-0.25,-0.03125,0.0,0.0,0.0
1696089603310,-1.0068359,-0.028320312,-0.14257812,0.5625,0.125,0.15625,0.0,0.0,0.0
1696089603349,-1.0078125,-0.030273438,-0.12695312,0.25,0.125,-0.09375,0.0,0.0,0.0
1696089603389,-1.0126953,-0.034179688,-0.12695312,-1.65625,-0.1875,-0.40625,0.0,0.0,0.0
1696089603429,-1.0087891,-0.03125,-0.12207031,1.03125,0.28125,0.03125,0.0,0.0,0.0
1696089603468,-1.0029297,-0.03125,-0.12695312,-0.71875,-0.5625,-0.40625,0.0,0.0,0.0
1696089603510,-0.99902344,-0.033203125,-0.12597656,0.8125,0.0625,-0.09375,-72.125,7.0625,-204.8125
1696089603549,-1.0087891,-0.037109375,-0.119140625,0.0,0.1875,0.15625,0.0,0.0,0.0
1696089603588,-1.0068359,-0.020507812,-0.12011719,-1.21875,-0.375,0.15625,0.0,0.0,0.0
1696089603630,-1.0117188,-0.033203125,-0.119140625,0.5625,0.84375,0.4375,0.0,0.0,0.0
1696089603669,-1.0097656,-0.025390625,-0.123046875,-0.65625,0.0625,0.5,0.0,0.0,0.0
1696089603713,-1.0146484,-0.030273438,-0.12890625,-1.53125,-0.5,-0.34375,0.0,0.0,0.0
1696089603749,-1.0009766,-0.026367188,-0.12109375,0.15625,-0.25,-0.28125,0.0,0.0,0.0
1696089603789,-1.0029297,-0.033203125,-0.13378906,0.0,-0.59375,-0.21875,0.0,0.0,0.0
1696089603829,-1.0029297,-0.025390625,-0.12207031,0.53125,-0.25,-0.09375,0.0,0.0,0.0
1696089603869,-1.0107422,-0.028320312,-0.12402344,0.0,0.0625,-0.15625,0.0,0.0,0.0
1696089603909,-1.0136719,-0.026367188,-0.13671875,0.59375,-0.4375,0.03125,0.0,0.0,0.0
1696089603948,-1.0078125,-0.016601562,-0.13183594,1.03125,-0.25,0.03125,0.0,0.0,0.0
1696089603988,-1.0087891,-0.025390625,-0.12402344,0.40625,0.1875,-0.09375,0.0,0.0,0.0
1696089604029,-1.0029297,-0.013671875,-0.12597656,-2.875,-0.65625,-0.46875,-73.1875,7.375,-205.5625
1696089604069,-1.0126953,-0.015625,-0.11230469,0.78125,0.0,0.15625,0.0,0.0,0.0
1696089604109,-1.0097656,-0.02734375,-0.1171875,0.21875,0.0625,0.5,0.0,0.0,0.0
1696089604149,-1.0087891,-0.03125,-0.11230469,-0.125,0.3125,0.4375,0.0,0.0,0.0
1696089604189,-1.0214844,-0.03125,-0.12890625,0.59375,0.90625,0.5,0.0,0.0,0.0
1696089604229,-1.0117188,-0.033203125,-0.109375,-1.59375,-0.25,-0.34375,0.0,0.0,0.0
1696089604269,-1.0126953,-0.025390625,-0.11425781,0.0625,0.125,-0.15625,0.0,0.0,0.0
1696089604350,-1.0117188,-0.025390625,-0.12011719,1.5625,-0.25,0.03125,0.0,0.0,0.0
1696089604352,-1.0068359,-0.03125,-0.11621094,-0.1875,-1.28125,-0.21875,0.0,0.0,0.0
1696089604429,-1.0136719,-0.026367188,-0.12988281,1.28125,-0.96875,-0.34375,0.0,0.0,0.0
1696089604431,-1.0068359,-0.020507812,-0.13085938,0.90625,-0.96875,-0.59375,0.0,0.0,0.0
1696089604469,-1.0009766,9.765625E-4,-0.12402344,-1.78125,-1.21875,-0.71875,0.0,0.0,0.0
1696089604510,-1.0087891,-0.01953125,-0.12695312,-0.875,0.75,0.5,-70.625,7.6875,-204.625
1696089604548,-1.0185547,-0.0390625,-0.12597656,-1.65625,0.90625,1.0625,0.0,0.0,0.0
1696089604589,-0.99609375,-0.0546875,-0.12792969,-3.25,1.28125,0.15625,0.0,0.0,0.0
1696089604629,-1.0136719,-0.052734375,-0.1171875,-0.125,2.375,-0.53125,0.0,0.0,0.0
1696089604668,-1.0097656,-0.017578125,-0.125,0.59375,0.75,-0.65625,0.0,0.0,0.0
1696089604870,-1.0087891,-0.017578125,-0.10058594,4.75,-0.4375,-0.09375,0.0,0.0,0.0
1696089604873,-1.0117188,-0.01953125,-0.115234375,0.90625,-1.09375,-0.15625,0.0,0.0,0.0
1696089604875,-1.0117188,-0.024414062,-0.12402344,0.125,-1.28125,-0.40625,0.0,0.0,0.0
1696089604878,-1.0039062,-0.029296875,-0.125,0.21875,-0.84375,-0.34375,0.0,0.0,0.0
1696089604880,-1.0029297,-0.029296875,-0.13085938,-0.5625,0.1875,-0.53125,0.0,0.0,0.0
1696089604908,-1.0,-0.024414062,-0.12402344,-2.15625,0.1875,-0.53125,0.0,0.0,0.0
1696089604948,-1.0087891,-0.033203125,-0.12109375,-0.5625,0.8125,0.09375,0.0,0.0,0.0
1696089604989,-1.0136719,-0.034179688,-0.119140625,-1.15625,0.1875,-0.21875,0.0,0.0,0.0
1696089605029,-1.0009766,-0.038085938,-0.13378906,-0.0625,0.125,-0.28125,-70.375,7.0625,-205.25
1696089605068,-1.0126953,-0.033203125,-0.11230469,1.5,0.0625,-0.03125,0.0,0.0,0.0
1696089605110,-1.0068359,-0.032226562,-0.12402344,0.84375,-0.375,-0.34375,0.0,0.0,0.0
1696089605149,-1.0068359,-0.02734375,-0.13867188,1.15625,0.3125,-0.03125,0.0,0.0,0.0
1696089605190,-1.0117188,-0.0390625,-0.12207031,0.78125,0.125,-0.28125,0.0,0.0,0.0
1696089605229,-1.0058594,-0.017578125,-0.12109375,-0.6875,0.0625,0.09375,0.0,0.0,0.0
1696089605268,-1.015625,-0.026367188,-0.12988281,0.40625,0.75,0.75,0.0,0.0,0.0
1696089605310,-1.0019531,-0.051757812,-0.12109375,0.0625,0.375,0.4375,0.0,0.0,0.0
1696089605349,-1.015625,-0.040039062,-0.12109375,-2.34375,0.0625,-0.78125,0.0,0.0,0.0
1696089605389,-1.0058594,-0.024414062,-0.13476562,0.65625,0.25,-0.28125,0.0,0.0,0.0
1696089605430,-1.0117188,-0.02734375,-0.12695312,2.5,-0.375,0.21875,0.0,0.0,0.0
1696089605469,-1.0126953,-0.026367188,-0.13476562,2.1875,-0.65625,0.15625,0.0,0.0,0.0
1696089605509,-1.0048828,-0.036132812,-0.11816406,0.0625,-0.4375,-0.40625,-70.0625,9.1875,-205.25
1696089605549,-1.0039062,-0.021484375,-0.13476562,0.28125,-0.125,-0.03125,0.0,0.0,0.0
1696089605590,-1.0097656,-0.025390625,-0.1328125,0.21875,0.3125,0.21875,0.0,0.0,0.0
1696089605628,-1.0097656,-0.032226562,-0.12011719,-0.375,-0.125,-0.40625,0.0,0.0,0.0
1696089605669,-1.0146484,-0.022460938,-0.12207031,-1.46875,-0.53125,-0.71875,0.0,0.0,0.0
1696089605709,-1.0058594,-0.03125,-0.12207031,0.96875,-0.1875,-0.21875,0.0,0.0,0.0
1696089605749,-1.0019531,-0.040039062,-0.12207031,0.28125,0.3125,-0.09375,0.0,0.0,0.0
1696089605789,-1.0117188,-0.034179688,-0.119140625,-1.28125,0.6875,0.15625,0.0,0.0,0.0
1696089605829,-1.0019531,-0.036132812,-0.12597656,-1.65625,0.84375,0.03125,0.0,0.0,0.0
1696089605869,-1.0107422,-0.038085938,-0.11230469,-1.78125,-0.0625,-0.09375,0.0,0.0,0.0
1696089605929,-1.015625,-0.024414062,-0.12597656,2.1875,0.125,-0.21875,0.0,0.0,0.0
1696089605949,-1.0078125,-0.018554688,-0.109375,-0.6875,-1.28125,-0.84375,0.0,0.0,0.0
1696089605989,-1.0146484,-0.03125,-0.13085938,1.40625,-0.78125,-0.15625,0.0,0.0,0.0
1696089606029,-1.0039062,-0.03125,-0.13183594,0.53125,-0.90625,0.09375,-71.25,7.25,-204.625
1696089606069,-1.0146484,-0.021484375,-0.13964844,-1.15625,-0.1875,-0.03125,0.0,0.0,0.0
1696089606111,-1.0058594,-0.041992188,-0.13085938,-1.125,0.375,-0.15625,0.0,0.0,0.0
1696089606149,-1.0019531,-0.03125,-0.12109375,0.0,0.3125,-0.40625,0.0,0.0,0.0
1696089606189,-1.0097656,-0.036132812,-0.12207031,0.125,0.125,-0.40625,0.0,0.0,0.0
1696089606229,-1.0058594,-0.022460938,-0.12109375,1.625,0.3125,0.03125,0.0,0.0,0.0
1696089606269,-1.015625,-0.033203125,-0.11621094,0.90625,-0.59375,0.15625,0.0,0.0,0.0
1696089606309,-1.0166016,-0.032226562,-0.11230469,0.40625,-0.53125,-0.46875,0.0,0.0,0.0
1696089606349,-1.0039062,-0.029296875,-0.12695312,-0.25,-0.59375,-0.46875,0.0,0.0,0.0
1696089606389,-1.0039062,-0.032226562,-0.12011719,-0.0625,-0.375,0.03125,0.0,0.0,0.0
1696089606429,-1.0117188,-0.034179688,-0.12109375,0.96875,0.3125,-0.03125,0.0,0.0,0.0
1696089606469,-1.0166016,-0.026367188,-0.12597656,-1.21875,-0.125,-0.21875,0.0,0.0,0.0
1696089606509,-1.0078125,-0.030273438,-0.11621094,0.96875,0.1875,-0.03125,-70.625,8.0,-206.0
1696089606549,-1.0185547,-0.041015625,-0.13085938,-0.3125,-0.0625,0.21875,0.0,0.0,0.0
1696089606590,-1.0136719,-0.029296875,-0.140625,0.40625,0.125,0.15625,0.0,0.0,0.0
1696089606629,-1.0136719,-0.036132812,-0.12402344,-1.46875,-0.25,-0.15625,0.0,0.0,0.0
1696089606669,-1.015625,-0.0146484375,-0.123046875,-0.375,-0.25,-0.03125,0.0,0.0,0.0
1696089606710,-0.9980469,-0.029296875,-0.125,0.34375,0.1875,0.375,0.0,0.0,0.0
1696089606749,-1.0078125,-0.036132812,-0.10058594,-0.25,-0.0625,0.03125,0.0,0.0,0.0
1696089606790,-1.0185547,-0.025390625,-0.11621094,-0.3125,-0.1875,-0.21875,0.0,0.0,0.0
1696089606829,-1.0097656,-0.024414062,-0.109375,0.34375,0.0,-0.09375,0.0,0.0,0.0
1696089606870,-1.0039062,-0.030273438,-0.12011719,0.28125,-0.59375,0.25,0.0,0.0,0.0
1696089606909,-1.015625,-0.032226562,-0.11328125,0.125,0.0625,0.75,0.0,0.0,0.0
1696089606949,-1.0087891,-0.041015625,-0.12011719,-0.1875,0.125,0.21875,0.0,0.0,0.0
1696089606989,-1.0029297,-0.041015625,-0.12109375,-0.6875,0.4375,-0.53125,0.0,0.0,0.0
1696089607031,-1.0126953,-0.022460938,-0.13085938,-0.5,0.25,-0.34375,-70.625,8.75,-206.0
1696089607069,-1.0019531,-0.02734375,-0.119140625,2.6875,0.4375,0.21875,0.0,0.0,0.0
1696089607110,-1.0068359,-0.032226562,-0.123046875,0.21875,-0.78125,-0.15625,0.0,0.0,0.0
1696089607149,-1.0117188,-0.01953125,-0.12988281,-0.875,-0.84375,-0.21875,0.0,0.0,0.0
1696089607189,-1.0058594,-0.0234375,-0.12109375,2.0,-0.0625,0.21875,0.0,0.0,0.0
1696089607229,-1.0136719,-0.0234375,-0.13378906,-0.6875,-0.125,0.25,0.0,0.0,0.0
1696089607269,-1.0126953,-0.036132812,-0.13183594,-0.75,0.125,0.09375,0.0,0.0,0.0
1696089607309,-1.0107422,-0.029296875,-0.12011719,-0.9375,0.25,-0.21875,0.0,0.0,0.0
1696089607349,-1.0185547,-0.02734375,-0.12109375,-0.875,0.4375,0.25,0.0,0.0,0.0
1696089607389,-1.0058594,-0.033203125,-0.1484375,0.15625,0.625,0.375,0.0,0.0,0.0
1696089607429,-1.0107422,-0.048828125,-0.11425781,0.59375,0.5,0.03125,0.0,0.0,0.0
1696089607470,-1.0107422,-0.036132812,-0.12988281,-0.125,-0.1875,-0.46875,0.0,0.0,0.0
1696089607509,-1.0078125,-0.015625,-0.12890625,0.71875,-0.0625,-0.28125,-72.125,9.1875,-205.5625
1696089607549,-1.0126953,-0.0234375,-0.12207031,2.3125,-0.25,-0.09375,0.0,0.0,0.0
1696089607589,-1.0146484,-0.025390625,-0.12109375,-0.0625,-0.5,-0.53125,0.0,0.0,0.0
1696089607629,-1.015625,-0.03515625,-0.11816406,0.0,-0.375,-0.28125,0.0,0.0,0.0
1696089607670,-1.0019531,-0.022460938,-0.12109375,0.65625,0.1875,-0.15625,0.0,0.0,0.0
1696089607709,-1.0107422,-0.01953125,-0.13378906,-1.65625,0.375,0.09375,0.0,0.0,0.0
1696089607750,-1.0039062,-0.047851562,-0.12695312,-0.125,0.6875,-0.09375,0.0,0.0,0.0
1696089607790,-1.0117188,-0.033203125,-0.115234375,-1.21875,-0.125,-0.65625,0.0,0.0,0.0
1696089607830,-1.0097656,-0.024414062,-0.11621094,0.59375,0.0625,-0.28125,0.0,0.0,0.0
1696089607869,-1.0039062,-0.02734375,-0.12597656,1.6875,0.0,0.09375,0.0,0.0,0.0
1696089607910,-1.0107422,-0.024414062,-0.13476562,0.40625,-0.0625,-0.03125,0.0,0.0,0.0
1696089607949,-1.0117188,-0.022460938,-0.123046875,-1.15625,0.0,-0.34375,0.0,0.0,0.0
1696089607990,-1.0039062,-0.033203125,-0.12207031,-0.125,0.5,0.15625,0.0,0.0,0.0
1696089608030,-1.0019531,-0.01953125,-0.11230469,-0.25,0.0,-0.09375,-70.1875,8.75,-204.625
1696089608070,-1.0068359,-0.026367188,-0.12597656,-1.34375,0.0625,-0.40625,0.0,0.0,0.0
1696089608109,-1.0068359,-0.024414062,-0.12597656,-0.125,-0.125,-0.03125,0.0,0.0,0.0
1696089608150,-1.0107422,-0.032226562,-0.125,-0.9375,-0.0625,-0.03125,0.0,0.0,0.0
1696089608189,-1.0175781,-0.03515625,-0.12890625,-0.5625,0.5625,0.40625,0.0,0.0,0.0
1696089608229,-1.0097656,-0.037109375,-0.12109375,0.40625,0.625,-0.03125,0.0,0.0,0.0
1696089608269,-1.0205078,-0.036132812,-0.12109375,-0.1875,-0.5625,-0.53125,0.0,0.0,0.0
1696089608310,-0.9970703,-0.018554688,-0.107421875,1.875,-0.4375,-0.65625,0.0,0.0,0.0
1696089608349,-1.0097656,-0.01171875,-0.12402344,-0.125,-1.15625,-0.46875,0.0,0.0,0.0
1696089608389,-1.0058594,-0.0234375,-0.13085938,0.65625,-0.4375,0.40625,0.0,0.0,0.0
1696089608430,-1.0039062,-0.032226562,-0.13476562,0.40625,0.25,0.09375,0.0,0.0,0.0
1696089608469,-1.0107422,-0.021484375,-0.111328125,-1.59375,-0.0625,-0.40625,0.0,0.0,0.0
1696089608510,-1.0009766,-0.01171875,-0.12402344,-0.1875,0.6875,0.21875,-72.125,9.1875,-203.4375
1696089608549,-1.0166016,-0.026367188,-0.119140625,0.65625,1.46875,1.25,0.0,0.0,0.0
1696089608589,-1.0126953,-0.037109375,-0.1328125,-2.4375,0.78125,0.75,0.0,0.0,0.0
1696089608630,-1.0097656,-0.03125,-0.12109375,-1.78125,2.25,0.875,0.0,0.0,0.0
1696089608670,-1.0078125,-0.038085938,-0.11621094,-1.78125,0.25,-0.71875,0.0,0.0,0.0
1696089608710,-1.0029297,-0.0126953125,-0.1171875,-2.5,-1.34375,-2.0625,0.0,0.0,0.0
1696089608749,-1.0087891,-0.001953125,-0.12597656,-4.53125,-2.25,-1.625,0.0,0.0,0.0
1696089608789,-0.99609375,-0.036132812,-0.123046875,-1.71875,-1.28125,0.03125,0.0,0.0,0.0
1696089608829,-1.0019531,-0.05078125,-0.15136719,-1.0,-0.71875,0.40625,0.0,0.0,0.0
1696089608869,-1.0048828,-0.041992188,-0.14160156,-3.0625,0.625,0.09375,0.0,0.0,0.0
1696089608910,-1.0009766,-0.034179688,-0.1328125,0.53125,2.1875,0.5625,0.0,0.0,0.0
1696089608949,-1.0175781,-0.033203125,-0.11621094,2.0,2.75,0.9375,0.0,0.0,0.0
1696089608989,-1.0078125,-0.03125,-0.12890625,1.9375,0.5,0.40625,0.0,0.0,0.0
1696089609030,-1.0087891,-0.025390625,-0.123046875,2.96875,-0.1875,-0.46875,-70.1875,9.8125,-206.0
1696089609070,-1.0126953,-0.013671875,-0.13378906,0.84375,-0.5625,-1.375,0.0,0.0,0.0
1696089609108,-1.0097656,-0.0146484375,-0.12890625,-1.71875,-0.125,-0.875,0.0,0.0,0.0
1696089609150,-1.0195312,-0.036132812,-0.12207031,-2.375,-0.25,-0.40625,0.0,0.0,0.0
1696089609189,-1.0009766,-0.043945312,-0.13671875,-2.28125,0.3125,-0.46875,0.0,0.0,0.0
1696089609229,-1.0195312,-0.037109375,-0.119140625,-0.5625,-0.3125,-0.71875,0.0,0.0,0.0
1696089609270,-1.0019531,-0.024414062,-0.12890625,2.0,-0.0625,-0.21875,0.0,0.0,0.0
1696089609310,-1.0126953,-0.036132812,-0.12988281,3.71875,-0.25,0.6875,0.0,0.0,0.0
1696089609350,-1.0107422,-0.034179688,-0.13964844,3.78125,0.3125,0.875,0.0,0.0,0.0
1696089609389,-1.0078125,-0.029296875,-0.13183594,0.96875,-0.1875,0.875,0.0,0.0,0.0
1696089609430,-1.0087891,-0.01953125,-0.12402344,2.3125,0.0625,1.0,0.0,0.0,0.0
1696089609468,-1.0136719,-0.028320312,-0.12988281,1.40625,0.90625,0.9375,0.0,0.0,0.0
1696089609510,-1.0078125,-0.040039062,-0.115234375,-1.53125,0.90625,-0.21875,-71.6875,9.8125,-205.125
1696089609549,-1.0107422,-0.022460938,-0.13476562,-1.46875,0.0625,-1.375,0.0,0.0,0.0
1696089609589,-1.0175781,-0.025390625,-0.12890625,-0.25,0.1875,-0.75,0.0,0.0,0.0
1696089609630,-1.0029297,-0.016601562,-0.11816406,0.34375,-1.59375,-0.28125,0.0,0.0,0.0
1696089609670,-0.99316406,-0.015625,-0.12988281,1.15625,-1.84375,0.28125,0.0,0.0,0.0
1696089609711,-1.0087891,-0.025390625,-0.13964844,2.0,-1.46875,0.46875,0.0,0.0,0.0
1696089609750,-1.0078125,-0.022460938,-0.12988281,0.59375,-1.03125,0.6875,0.0,0.0,0.0
1696089609790,-1.0068359,-0.025390625,-0.13964844,-0.0625,0.4375,1.1875,0.0,0.0,0.0
1696089609828,-1.0087891,-0.029296875,-0.125,-0.8125,1.46875,0.9375,0.0,0.0,0.0
1696089609889,-1.0,-0.025390625,-0.13671875,-2.5625,1.96875,0.625,0.0,0.0,0.0
1696089609908,-1.0097656,-0.013671875,-0.123046875,-3.25,1.96875,0.75,0.0,0.0,0.0
1696089609949,-1.0087891,-0.03125,-0.10644531,-3.0625,1.21875,0.75,0.0,0.0,0.0
1696089609990,-1.0097656,-0.030273438,-0.11425781,-1.21875,0.78125,0.75,0.0,0.0,0.0
1696089610029,-1.015625,-0.026367188,-0.12695312,-1.03125,0.125,0.21875,-70.8125,8.875,-204.5
1696089610069,-1.0136719,-0.01953125,-0.12109375,0.3125,-0.375,0.28125,0.0,0.0,0.0
1696089610108,-1.0097656,-0.022460938,-0.1171875,0.96875,-0.78125,0.53125,0.0,0.0,0.0
1696089610148,-1.0058594,-0.02734375,-0.12207031,1.875,-0.3125,0.34375,0.0,0.0,0.0
1696089610188,-0.99609375,-0.0234375,-0.13085938,0.125,-0.25,0.28125,0.0,0.0,0.0
1696089610228,-1.0126953,-0.03125,-0.14160156,0.96875,0.71875,0.5625,0.0,0.0,0.0
