# Sensor type: Respeck
# Activity type: Shuffle walking
# Activity subtype: Normal
# Subject id: s2040282
# Notes: 
timestamp,accel_x,accel_y,accel_z,gyro_x,gyro_y,gyro_z
1695602008645,-0.08691406,-0.77545166,-0.3369751,0.9375,-0.75,-2.421875
1695602008680,-0.09350586,-0.84503174,-0.34503174,4.671875,-7.828125,2.921875
1695602008727,-0.09106445,-0.95147705,-0.24786377,15.9375,-7.0625,5.140625
1695602008761,-0.115722656,-1.0169067,-0.29937744,9.421875,-3.4375,10.1875
1695602008802,-0.18408203,-1.0496216,-0.3106079,8.21875,-7.421875,10.9375
1695602008838,-0.10668945,-1.1277466,-0.317688,-0.25,-5.46875,3.21875
1695602008882,-0.0026855469,-1.1692505,-0.29400635,-5.375,-5.734375,-1.671875
1695602008916,0.07446289,-1.0669556,-0.28863525,-8.40625,-8.109375,4.03125
1695602008960,0.099609375,-0.88165283,-0.27008057,-12.25,-12.1875,8.46875
1695602009002,0.0690918,-0.86065674,-0.1729126,-4.21875,-5.484375,1.734375
1695602009039,0.10522461,-0.8543091,-0.19073486,-7.90625,-10.078125,-2.328125
1695602009073,0.16479492,-0.8323364,-0.12408447,-5.21875,-11.828125,-0.640625
1695602009132,0.114746094,-0.88726807,-0.15582275,-0.453125,-13.375,4.046875
1695602009151,0.055908203,-0.8513794,-0.10211182,-1.796875,-5.03125,4.21875
1695602009200,-0.009765625,-0.8230591,-0.13018799,-1.515625,0.84375,-1.859375
1695602009231,-0.010009766,-1.0637817,-0.24249268,15.484375,22.296875,-12.078125
1695602009276,-0.0075683594,-1.161438,-0.33355713,8.359375,14.46875,-11.4375
1695602009320,0.100097656,-1.0459595,-0.29058838,12.984375,19.40625,-5.25
1695602009355,-0.07055664,-0.8279419,-0.32354736,3.546875,16.828125,3.875
1695602009401,-0.12670898,-0.73028564,-0.36749268,6.125,10.078125,4.703125
1695602009435,-0.064941406,-0.81573486,-0.3760376,12.625,9.921875,2.421875
1695602009478,-0.028808594,-0.8796997,-0.37457275,13.328125,6.09375,9.28125
1695602009514,-0.046142578,-0.88653564,-0.36480713,9.625,3.25,11.890625
1695602009557,-0.035888672,-0.97076416,-0.42633057,5.328125,-3.34375,9.328125
1695602009591,-0.10644531,-1.11969,-0.39727783,-4.953125,-12.34375,7.328125
1695602009636,-0.017578125,-1.2468872,-0.35235596,-10.84375,-8.140625,5.78125
1695602009671,0.11376953,-1.1785278,-0.31817627,-18.96875,-1.71875,5.078125
1695602009718,0.05029297,-0.95440674,-0.28912354,-21.953125,-0.84375,3.65625
1695602009757,0.18286133,-0.76690674,-0.21710205,-8.71875,4.109375,-0.4375
1695602009798,0.26611328,-0.6902466,-0.23101807,-10.484375,-7.6875,-4.984375
1695602009828,0.18652344,-0.8484497,-0.14312744,-5.75,-8.484375,-5.71875
1695602009871,0.07397461,-1.0100708,-0.1675415,-5.5,-8.59375,-1.34375
1695602009906,0.104003906,-0.8357544,-0.15289307,-3.6875,-6.9375,2.078125
1695602009954,0.17016602,-0.7449341,-0.13922119,3.5,1.125,-2.546875
1695602009988,0.1381836,-0.972229,-0.051330566,5.984375,1.953125,-10.140625
1695602010031,-0.091552734,-1.3401489,-0.2119751,-1.96875,11.578125,-17.46875
1695602010063,-0.17700195,-1.0842896,-0.25836182,-1.5,14.984375,-10.984375
1695602010109,-0.057861328,-0.8814087,-0.317688,3.53125,23.265625,-7.375
1695602010142,-0.012207031,-0.79400635,-0.3135376,5.734375,18.3125,0.0625
1695602010188,0.057861328,-0.85601807,-0.31671143,2.859375,4.078125,4.40625
1695602010222,-0.028320312,-0.90631104,-0.26690674,8.359375,-0.828125,7.125
1695602010267,-0.1496582,-0.81134033,-0.34625244,7.21875,-5.6875,10.640625
1695602010299,-0.031982422,-0.73028564,-0.3135376,10.234375,-10.3125,11.65625
1695602010350,-0.111572266,-1.0359497,-0.33306885,6.90625,-14.65625,5.53125
1695602010400,0.026611328,-1.3462524,-0.29644775,1.828125,-19.515625,0.75
1695602010433,0.088134766,-1.3313599,-0.28179932,-13.234375,-13.484375,3.5
1695602010466,0.017333984,-1.0620728,-0.29693604,-15.453125,-2.328125,1.6875
1695602010502,0.06518555,-0.80718994,-0.23712158,-8.890625,2.1875,1.46875
1695602010536,0.19091797,-0.7312622,-0.16192627,0.296875,-0.09375,6.15625
1695602010582,0.14770508,-0.8064575,-0.1951294,-3.578125,-5.8125,-4.71875
1695602010623,0.12524414,-0.8982544,-0.1609497,-2.546875,-6.75,-3.3125
1695602010659,0.17675781,-0.94488525,-0.17437744,6.296875,-1.0,5.34375
1695602010704,0.15136719,-0.8008423,-0.17510986,8.96875,2.328125,-0.25
1695602010738,0.14160156,-0.88726807,-0.11212158,5.21875,7.609375,-6.359375
1695602010784,-0.030029297,-1.2515259,-0.18243408,4.21875,24.671875,-12.46875
1695602010818,-0.15063477,-1.1694946,-0.2883911,-6.34375,12.296875,-12.34375
1695602010866,0.021972656,-0.9390259,-0.315979,0.90625,20.390625,-12.953125
1695602010898,0.043945312,-0.8870239,-0.32867432,2.1875,23.265625,-3.984375
1695602010941,-0.060058594,-0.8652954,-0.30499268,-6.484375,9.875,4.109375
1695602010973,-0.10986328,-0.878479,-0.2571411,0.53125,6.421875,2.359375
1695602011021,-0.19677734,-0.9265747,-0.27105713,4.15625,7.796875,0.34375
1695602011054,-0.059570312,-0.85162354,-0.3340454,6.125,5.0625,3.546875
1695602011097,0.051757812,-0.8262329,-0.28448486,3.578125,-6.40625,7.671875
1695602011134,-0.11303711,-1.019104,-0.29180908,2.859375,-11.9375,6.640625
1695602011181,-0.14453125,-1.1567993,-0.253479,-0.703125,-16.015625,3.03125
1695602011211,-0.07128906,-1.2085571,-0.23223877,-7.171875,-8.015625,4.03125
1695602011255,0.092285156,-1.079895,-0.25030518,-10.453125,-6.265625,4.609375
1695602011290,0.111328125,-0.9487915,-0.2107544,-5.65625,-5.71875,5.640625
1695602011335,0.14624023,-0.8381958,-0.2185669,-3.28125,-8.453125,0.828125
1695602011368,0.18286133,-0.8045044,-0.17803955,-2.8125,-10.515625,-3.0625
1695602011417,0.12963867,-0.8242798,-0.16925049,-4.6875,-7.625,2.21875
1695602011449,0.032958984,-0.802063,-0.1843872,2.328125,-4.921875,4.9375
1695602011490,0.12133789,-0.7581177,-0.1416626,7.078125,-1.03125,-0.125
1695602011525,0.13867188,-0.91778564,-0.15777588,8.84375,3.921875,-6.859375
1695602011570,0.05834961,-1.2822876,-0.17999268,6.0,9.5,-11.546875
1695602011604,-0.02758789,-1.1865845,-0.21685791,-5.71875,12.03125,-7.421875
1695602011649,-0.09692383,-0.95684814,-0.22930908,-2.265625,21.0,-6.40625
1695602011704,-0.05053711,-0.80670166,-0.269104,-1.34375,20.921875,-3.953125
1695602011729,0.021728516,-0.79693604,-0.30426025,2.6875,16.125,2.25
1695602011765,-0.031982422,-0.8596802,-0.32720947,5.703125,9.75,8.75
1695602011807,-0.10595703,-0.9273071,-0.29107666,12.109375,3.859375,6.890625
1695602011841,-0.11450195,-0.96954346,-0.2942505,12.3125,-3.796875,5.859375
1695602011885,-0.014404297,-1.0213013,-0.26519775,9.734375,-4.84375,9.765625
1695602011919,-0.068847656,-1.0447388,-0.31793213,-6.53125,-15.1875,12.71875
1695602011965,-0.1171875,-0.99713135,-0.2937622,-2.671875,-15.375,6.84375
1695602011999,0.075927734,-1.0960083,-0.2366333,7.75,-5.09375,1.734375
1695602012042,0.1928711,-1.0332642,-0.2588501,-1.578125,-4.0625,7.78125
1695602012087,0.12573242,-0.88287354,-0.2185669,-1.515625,-1.078125,8.953125
1695602012123,0.15722656,-0.80303955,-0.24908447,-0.4375,-5.0625,-0.765625
1695602012167,0.16796875,-0.85821533,-0.17877197,4.078125,-6.921875,-7.671875
1695602012202,0.13916016,-0.9470825,-0.19244385,3.671875,-1.03125,0.5625
1695602012246,0.110839844,-0.80426025,-0.19195557,3.359375,-1.0,6.015625
1695602012284,0.18334961,-0.7481079,-0.18121338,8.921875,4.203125,0.078125
1695602012323,0.11303711,-0.96221924,-0.22955322,3.71875,6.890625,-7.0625
1695602012358,0.07397461,-1.2212524,-0.32647705,0.625,4.390625,-15.515625
1695602012405,0.034423828,-1.0916138,-0.33795166,-0.125,7.359375,-9.359375
1695602012438,-0.02709961,-0.9585571,-0.3555298,-1.375,9.171875,-3.65625
1695602012484,-0.05078125,-0.76934814,-0.36993408,0.203125,7.828125,-0.921875
1695602012516,0.0034179688,-0.704895,-0.41461182,1.1875,-5.9375,2.296875
1695602012560,0.10522461,-0.9607544,-0.3633423,12.546875,-10.265625,1.421875
1695602012595,-0.07543945,-1.0220337,-0.36602783,1.53125,-11.484375,4.875
1695602012640,-0.16601562,-0.93829346,-0.3850708,-1.28125,-9.734375,4.0625
1695602012674,-0.107421875,-1.0112915,-0.37261963,-7.765625,-14.5625,-1.984375
1695602012722,0.13891602,-1.204895,-0.32403564,-6.015625,-18.28125,-5.4375
1695602012753,0.18774414,-1.1731567,-0.23028564,-10.140625,-7.84375,2.75
1695602012799,0.0012207031,-0.9475708,-0.26031494,-15.328125,-4.8125,6.609375
1695602012838,0.024169922,-0.77008057,-0.19537354,-6.140625,0.609375,-0.78125
1695602012880,0.1550293,-0.7883911,-0.23565674,0.828125,0.5,-7.359375
1695602012909,0.2133789,-0.8616333,-0.15875244,1.484375,-1.8125,-3.53125
1695602012971,0.18920898,-0.8960571,-0.18096924,-1.453125,-0.984375,7.75
1695602012989,0.08544922,-0.7876587,-0.16143799,5.546875,0.46875,11.296875
1695602013038,0.07763672,-0.7871704,-0.14898682,5.890625,5.203125,3.015625
1695602013071,0.1394043,-0.9312134,-0.17510986,7.453125,14.125,-7.9375
1695602013113,0.083496094,-1.2173462,-0.22052002,5.4375,18.84375,-14.625
1695602013149,-0.010009766,-1.1543579,-0.3164673,0.9375,18.703125,-8.828125
1695602013190,-0.004638672,-0.942688,-0.36676025,5.46875,21.375,-7.21875
1695602013224,-0.044677734,-0.76763916,-0.39093018,6.71875,16.40625,-3.75
1695602013271,0.024902344,-0.7476196,-0.38336182,10.875,6.359375,2.53125
1695602013304,0.060791016,-0.8538208,-0.37530518,12.5625,-7.15625,6.015625
1695602013351,-0.08154297,-0.83599854,-0.36724854,7.359375,-9.125,7.34375
1695602013384,-0.21264648,-0.772522,-0.43536377,2.5625,-9.5625,3.5
1695602013427,-0.1003418,-0.9553833,-0.44537354,12.6875,-7.734375,-4.96875
1695602013473,0.12719727,-1.3406372,-0.37701416,8.796875,-19.09375,-6.515625
1695602013506,0.04638672,-1.3345337,-0.2991333,-5.921875,-5.921875,7.140625
1695602013553,-0.10449219,-1.0401001,-0.39312744,-18.8125,2.78125,9.953125
1695602013591,-0.07006836,-0.83721924,-0.3447876,-9.765625,2.484375,-2.09375
1695602013633,0.084228516,-0.7774048,-0.21661377,6.171875,10.109375,-4.734375
1695602013666,0.22802734,-0.8303833,-0.28790283,7.0,9.78125,1.125
1695602013716,0.2709961,-0.70440674,-0.2703247,-3.875,-5.09375,4.078125
1695602013744,0.2133789,-0.7114868,-0.31524658,5.984375,-7.5625,8.859375
1695602013790,0.052978516,-0.9019165,-0.24078369,7.515625,-9.25,4.6875
1695602013824,0.063964844,-0.96881104,-0.15484619,4.109375,5.046875,2.171875
1695602013880,0.052490234,-1.0813599,-0.28668213,-7.8125,12.875,-2.953125
1695602013900,-0.012451172,-1.1768188,-0.4607544,1.28125,22.40625,-16.203125
1695602013945,0.024902344,-0.9829712,-0.41534424,-0.28125,20.515625,-6.03125
1695602013979,-0.01953125,-0.85943604,-0.39361572,-4.703125,16.71875,2.28125
1695602014023,0.07470703,-0.71295166,-0.41680908,0.015625,8.5,1.75
1695602014060,0.045166016,-0.70880127,-0.41314697,0.671875,-6.15625,4.046875
1695602014105,-0.051513672,-0.91656494,-0.3279419,14.234375,-0.234375,4.5
1695602014140,-0.28027344,-0.99005127,-0.45318604,4.28125,-3.46875,4.4375
1695602014181,-0.12231445,-0.788147,-0.4487915,-2.140625,-17.6875,1.6875
1695602014237,-0.020751953,-1.0274048,-0.458313,0.484375,-23.125,1.90625
1695602014259,0.17333984,-1.3328247,-0.34014893,-1.140625,-19.875,1.75
1695602014293,0.076416016,-1.078186,-0.32769775,-12.953125,-11.328125,8.1875
1695602014339,-0.033447266,-0.7229614,-0.3562622,-7.796875,-10.921875,8.25
1695602014378,0.1315918,-0.46954346,-0.3328247,19.96875,-9.0,2.453125
1695602014423,0.2536621,-0.5713501,-0.34210205,17.046875,-10.28125,-6.640625
1695602014451,0.32861328,-0.9612427,-0.3118286,9.984375,-16.859375,-5.15625
1695602014499,0.09765625,-1.272522,-0.28424072,-2.234375,-12.5625,11.859375
1695602014532,0.05810547,-0.96954346,-0.21270752,-4.15625,3.328125,9.625
1695602014574,0.1616211,-0.8753052,-0.2588501,-0.203125,13.28125,-12.96875
1695602014608,0.21972656,-1.0596313,-0.34918213,-4.125,12.28125,-17.375
1695602014656,0.19262695,-1.0650024,-0.378479,-9.390625,8.734375,-7.578125
1695602014696,0.07543945,-0.9585571,-0.33966064,-7.375,15.484375,2.140625
1695602014734,0.0715332,-0.78375244,-0.35650635,-4.515625,15.4375,-7.5
1695602014779,0.12402344,-0.6795044,-0.37677002,0.46875,11.140625,-9.671875
1695602014809,0.0017089844,-0.67681885,-0.3899536,-2.28125,8.28125,2.578125
1695602014859,-0.09057617,-0.9194946,-0.40167236,0.1875,1.703125,5.984375
1695602014890,-0.10253906,-1.0371704,-0.39971924,-0.53125,-2.09375,0.359375
1695602014935,-0.10888672,-1.0386353,-0.3772583,-1.328125,1.109375,2.9375
1695602014969,-0.060546875,-0.9089966,-0.3821411,-4.578125,-0.015625,6.3125
1695602015013,-0.1159668,-0.90704346,-0.32403564,-6.625,-1.484375,5.171875
1695602015047,-0.1274414,-0.987854,-0.4307251,-16.421875,-14.421875,-7.3125
1695602015092,0.10473633,-1.1672974,-0.2883911,-5.671875,-15.484375,-7.390625
1695602015125,0.30810547,-1.1668091,-0.2703247,-5.9375,-7.203125,7.4375
1695602015171,0.044433594,-0.75860596,-0.28863525,-1.84375,-2.828125,19.015625
1695602015207,0.064697266,-0.5532837,-0.23687744,8.1875,-2.0625,7.3125
1695602015250,0.18359375,-0.6577759,-0.2744751,10.5625,-4.65625,-7.03125
1695602015285,0.2878418,-1.0195923,-0.23687744,14.703125,-3.640625,-2.890625
1695602015328,0.18066406,-1.1130981,-0.21661377,3.59375,-7.6875,17.109375
1695602015363,0.13842773,-0.866272,-0.15679932,5.125,5.453125,13.328125
1695602015409,0.14355469,-1.0342407,-0.28936768,-0.984375,11.8125,-8.640625
1695602015441,0.100097656,-1.1758423,-0.32574463,2.109375,20.25,-20.203125
1695602015486,0.0061035156,-1.0064087,-0.37554932,-0.5625,21.703125,-7.703125
1695602015544,0.13378906,-0.87823486,-0.3430786,4.21875,25.390625,-4.046875
1695602015565,0.04663086,-0.8154907,-0.3616333,-0.328125,22.78125,-4.9375
1695602015599,-0.012451172,-0.64923096,-0.44049072,-7.8125,11.234375,-0.390625
1695602015642,-0.005859375,-0.6453247,-0.43389893,2.09375,0.125,3.203125
1695602015676,-0.009521484,-0.9939575,-0.3369751,12.71875,-4.0625,0.609375
1695602015723,-0.1328125,-1.1878052,-0.4060669,2.1875,-11.296875,7.015625
1695602015755,-0.01977539,-0.99542236,-0.38165283,-2.765625,-10.203125,9.703125
1695602015800,-0.034179688,-1.0501099,-0.44122314,-7.734375,-11.203125,7.578125
1695602015833,-0.049072266,-1.0896606,-0.37091064,-9.4375,-13.296875,-0.65625
1695602015880,0.06542969,-1.0186157,-0.3267212,-4.90625,-4.71875,0.328125
1695602015918,0.12011719,-0.83184814,-0.33721924,-7.890625,-8.0,10.53125
1695602015957,0.099609375,-0.64141846,-0.31427002,6.6875,-3.15625,10.375
1695602015994,0.2133789,-0.4993286,-0.23687744,12.921875,-8.25,1.6875
1695602016037,0.38110352,-0.78570557,-0.237854,14.171875,-7.984375,-4.140625
1695602016071,0.13134766,-1.2546997,-0.26348877,2.1875,-6.734375,10.140625
1695602016117,0.08154297,-1.0271606,-0.14776611,3.5,1.5,13.359375
1695602016153,0.1274414,-0.8633423,-0.21343994,-0.03125,15.59375,-6.5
1695602016198,0.21386719,-0.95684814,-0.26934814,2.34375,19.890625,-16.953125
1695602016240,0.14428711,-1.1553345,-0.49371338,0.0625,13.65625,-10.71875
1695602016273,0.018310547,-0.85821533,-0.42218018,4.84375,16.21875,3.5625
1695602016319,0.10571289,-0.81622314,-0.3640747,7.328125,18.6875,-2.921875
1695602016351,0.07080078,-0.73931885,-0.42071533,0.90625,12.421875,-0.390625
1695602016399,0.07495117,-0.61968994,-0.4993286,-5.0625,-3.046875,1.265625
1695602016432,-0.026123047,-0.74957275,-0.46148682,9.0,1.171875,7.90625
1695602016476,-0.021972656,-1.1316528,-0.3953247,12.890625,0.765625,0.671875
1695602016516,-0.057373047,-1.1074829,-0.458313,-2.390625,2.203125,-2.65625
1695602016553,0.0056152344,-0.9512329,-0.4981079,-13.921875,-9.203125,3.3125
1695602016589,0.052490234,-0.9849243,-0.4529419,-15.125,-13.453125,2.03125
1695602016635,0.056152344,-1.071106,-0.38531494,-15.578125,-16.828125,-5.5
1695602016670,0.036132812,-1.0493774,-0.3394165,-17.359375,-9.625,0.515625
1695602016711,0.02368164,-0.87628174,-0.411438,-18.59375,-10.25,-0.328125
1695602016750,0.099853516,-0.80963135,-0.21539307,8.546875,-0.171875,-9.4375
1695602016805,0.1303711,-0.7229614,-0.22320557,8.84375,3.859375,-8.984375
1695602016825,0.20288086,-0.60601807,-0.23321533,12.375,1.6875,-6.265625
1695602016869,0.21899414,-0.8220825,-0.27496338,10.265625,-6.78125,-5.34375
1695602016902,0.09057617,-1.1482544,-0.17193604,2.578125,-5.734375,-0.234375
1695602016951,-0.09741211,-1.0083618,-0.1897583,-11.140625,3.34375,2.859375
1695602016997,-0.08276367,-0.986145,-0.3411255,6.5,19.890625,-18.015625
1695602017030,0.08520508,-1.0132446,-0.43634033,8.53125,11.046875,-18.6875
1695602017061,0.123046875,-1.0388794,-0.40777588,1.875,14.625,5.390625
1695602017105,-0.012939453,-0.9312134,-0.3665161,-0.375,11.515625,2.5625
1695602017142,-0.06201172,-0.8130493,-0.40289307,-6.078125,2.8125,-4.5625
1695602017187,0.010009766,-0.8477173,-0.3892212,4.453125,1.484375,2.5625
1695602017218,-0.060791016,-0.83013916,-0.38336182,6.828125,0.015625,7.3125
1695602017267,-0.1743164,-0.7485962,-0.4212036,7.953125,-1.453125,5.828125
1695602017298,-0.055664062,-0.7913208,-0.43463135,8.125,-8.546875,9.421875
1695602017342,0.005126953,-1.0696411,-0.44708252,4.09375,-13.328125,6.703125
1695602017376,0.09423828,-1.2866821,-0.40509033,-4.6875,-20.953125,2.21875
1695602017419,0.024414062,-1.1760864,-0.40020752,-17.515625,-14.453125,6.6875
1695602017455,0.012207031,-0.9937134,-0.3411255,-15.953125,-6.265625,2.3125
1695602017501,0.0034179688,-0.87286377,-0.30230713,-8.640625,0.4375,-6.859375
1695602017536,0.15332031,-0.6968384,-0.28961182,-1.4375,-0.75,-5.84375
1695602017578,0.29882812,-0.6445923,-0.22686768,-2.234375,-9.4375,-3.046875
1695602017623,0.21435547,-0.74957275,-0.20758057,2.03125,-8.328125,4.671875
1695602017657,0.032714844,-0.89019775,-0.15753174,6.640625,-3.859375,10.21875
1695602017703,-0.020507812,-0.87701416,-0.1795044,1.46875,5.859375,1.0
1695602017737,0.07128906,-1.0354614,-0.284729,10.390625,21.296875,-11.765625
1695602017792,0.0847168,-1.201477,-0.3826294,9.453125,17.234375,-18.265625
1695602017816,0.09008789,-1.0950317,-0.38970947,1.578125,15.28125,-4.125
1695602017861,-0.03930664,-0.9356079,-0.3694458,-3.6875,17.546875,1.375
1695602017896,-0.09643555,-0.70098877,-0.4212036,-9.234375,11.484375,-0.03125
1695602017939,0.01586914,-0.68878174,-0.42559814,4.59375,3.40625,2.984375
1695602017972,0.060302734,-0.9678345,-0.38726807,11.59375,-0.875,8.84375
1695602018019,-0.16040039,-0.9841919,-0.39630127,-0.109375,-5.1875,5.78125
1695602018072,-0.16357422,-0.87506104,-0.42852783,-5.0625,-6.796875,4.703125
1695602018095,-0.034179688,-1.0025024,-0.39923096,-2.75,-9.953125,0.21875
1695602018140,0.12084961,-1.1880493,-0.35455322,-6.140625,-15.4375,-0.484375
1695602018175,0.13110352,-1.1443481,-0.3008423,-12.078125,-5.421875,4.359375
1695602018209,0.05102539,-0.89971924,-0.28155518,-10.84375,4.359375,3.9375
1695602018254,0.09692383,-0.7007446,-0.25811768,3.375,7.03125,-8.265625
1695602018287,0.17749023,-0.6433716,-0.29864502,11.609375,-3.15625,-15.6875
1695602018334,0.123535156,-0.7984009,-0.2300415,3.328125,-10.125,-13.421875
1695602018364,-7.324219E-4,-1.0357056,-0.2786255,4.328125,-6.828125,5.453125
1695602018414,0.02734375,-0.90826416,-0.19000244,0.0625,-0.09375,11.828125
1695602018448,-0.032226562,-0.8208618,-0.19732666,-4.15625,13.125,-3.90625
1695602018491,-0.05810547,-1.0383911,-0.23834229,5.15625,26.78125,-14.640625
1695602018523,-0.041748047,-1.1201782,-0.43243408,-1.1875,17.6875,-13.359375
1695602018568,0.0073242188,-1.0073853,-0.42193604,0.53125,14.21875,-3.3125
1695602018601,-0.0048828125,-0.92755127,-0.36383057,2.53125,20.1875,1.71875
1695602018647,-0.033691406,-0.8286743,-0.42510986,-7.296875,8.78125,4.34375
1695602018681,-0.025634766,-0.72247314,-0.3633423,4.03125,-0.34375,5.59375
1695602018726,-0.064208984,-0.8596802,-0.38287354,15.140625,-3.0625,7.1875
1695602018762,-0.15405273,-0.817688,-0.40899658,7.390625,-10.421875,7.78125
1695602018805,-0.078125,-0.90045166,-0.49005127,5.28125,-14.078125,7.78125
1695602018840,-0.038085938,-1.1101685,-0.37677002,5.578125,-17.875,5.25
1695602018884,0.025146484,-1.1831665,-0.35162354,-7.171875,-18.3125,3.578125
1695602018920,-0.061035156,-1.0310669,-0.3526001,-8.0,-6.0,5.375
1695602018962,-0.083984375,-0.95806885,-0.34625244,-10.3125,-2.0,-0.609375
1695602019006,-0.041503906,-0.8936157,-0.32476807,-8.1875,-2.875,-8.875
1695602019041,0.171875,-0.9480591,-0.30499268,-2.09375,0.625,-7.28125
1695602019088,0.31958008,-0.79571533,-0.29718018,-11.765625,-14.984375,-0.15625
1695602019120,0.30664062,-0.6304321,-0.25860596,-1.578125,-16.640625,7.484375
1695602019165,0.032714844,-0.77838135,-0.1819458,11.265625,-11.296875,5.171875
1695602019199,-0.10205078,-1.1687622,-0.17462158,10.0,-1.484375,-4.5
1695602019243,-0.028564453,-1.0134888,-0.14630127,-0.390625,13.21875,-3.875
1695602019281,0.020263672,-0.8508911,-0.22955322,-6.984375,19.453125,-2.234375
1695602019323,0.09692383,-0.9841919,-0.29693604,-2.4375,23.9375,-7.71875
1695602019383,0.010009766,-1.1817017,-0.38165283,-0.90625,21.1875,-12.0
1695602019400,-0.091552734,-0.92144775,-0.37017822,-2.15625,27.703125,-0.125
1695602019434,-0.078125,-0.6826782,-0.4187622,0.1875,28.015625,8.0
1695602019481,0.026367188,-0.61505127,-0.43414307,4.90625,15.59375,8.640625
1695602019515,0.09301758,-0.7835083,-0.42266846,14.4375,0.203125,6.859375
1695602019563,-0.051757812,-1.1658325,-0.37017822,18.40625,-7.53125,6.921875
1695602019592,-0.1953125,-1.0737915,-0.38189697,4.578125,-4.359375,8.75
1695602019639,-0.14648438,-0.923645,-0.49493408,-8.90625,-11.3125,5.3125
1695602019671,-0.039794922,-0.96099854,-0.37628174,-6.953125,-18.21875,-1.65625
1695602019717,0.118896484,-1.2520142,-0.32061768,-2.84375,-13.28125,-6.390625
1695602019750,0.06958008,-1.1524048,-0.3789673,-23.484375,-15.6875,6.09375
1695602019794,-0.08569336,-0.86065674,-0.2678833,-21.265625,-10.1875,4.734375
1695602019830,-0.0390625,-0.6470337,-0.2576294,-11.96875,-3.40625,-4.984375
1695602019873,0.14550781,-0.65460205,-0.19317627,1.015625,-4.21875,-13.734375
1695602019912,0.3232422,-0.9067993,-0.1585083,3.40625,-8.359375,-4.65625
1695602019952,0.09448242,-1.0332642,-0.16583252,-1.875,-7.828125,15.03125
1695602019986,-0.1027832,-0.89068604,-0.13946533,1.734375,-1.328125,8.671875
1695602020033,0.10058594,-0.8369751,-0.19805908,3.171875,8.734375,-10.0
1695602020069,0.16674805,-1.0923462,-0.20098877,5.1875,9.328125,-17.3125
1695602020110,0.107666016,-1.2837524,-0.2715454,-5.34375,5.046875,-9.578125
1695602020145,-0.032958984,-1.0339966,-0.253479,-5.71875,8.203125,-0.5
1695602020189,-0.09716797,-0.8845825,-0.24176025,-8.203125,14.125,-3.8125
1695602020222,-0.07910156,-0.8267212,-0.27105713,-8.375,9.625,-6.1875
1695602020269,-0.11743164,-0.95147705,-0.31402588,-7.203125,6.421875,-4.171875
1695602020305,-0.15991211,-0.99298096,-0.28424072,-0.890625,8.40625,-0.640625
1695602020350,-0.114990234,-0.8648071,-0.2756958,5.328125,8.484375,2.640625
1695602020390,-0.057128906,-0.76446533,-0.31866455,12.765625,6.796875,7.671875
1695602020424,-0.049316406,-0.72540283,-0.33746338,8.0,-8.75,13.46875
1695602020470,-0.03930664,-1.0359497,-0.2925415,13.015625,-14.609375,9.0625
1695602020508,-0.037597656,-1.326477,-0.28009033,-1.015625,-20.265625,-0.546875
1695602020549,0.02758789,-1.2141724,-0.2695923,-12.734375,-8.296875,3.671875
1695602020585,-0.0146484375,-0.95318604,-0.23101807,-15.9375,-0.46875,4.875
1695602020638,0.015380859,-0.71539307,-0.15704346,-3.453125,6.4375,3.375
1695602020663,0.1977539,-0.7835083,-0.23980713,3.515625,-0.109375,1.234375
1695602020705,0.2524414,-0.93096924,-0.16461182,-0.890625,-5.796875,-0.921875
1695602020747,0.103515625,-0.9360962,-0.17803955,-2.5625,-3.078125,8.09375
1695602020784,0.005126953,-0.91363525,-0.17901611,4.84375,2.28125,8.359375
1695602020820,0.10253906,-0.9656372,-0.11065674,11.671875,18.09375,2.125
1695602020864,0.10986328,-0.9871216,-0.1819458,-1.125,9.28125,-1.546875
1695602020902,0.053710938,-1.0811157,-0.190979,2.28125,9.265625,-5.859375
1695602020948,0.037841797,-1.0762329,-0.25836182,-1.328125,6.453125,-6.046875
1695602020978,0.043945312,-1.0193481,-0.284729,-0.734375,8.796875,-7.40625
1695602021021,0.027832031,-0.9385376,-0.25372314,-0.828125,9.984375,-8.375
1695602021056,-0.103759766,-0.7974243,-0.33380127,-6.5,7.8125,0.484375
1695602021100,-0.0925293,-0.67559814,-0.3357544,1.125,4.875,5.625
1695602021138,0.042236328,-0.7883911,-0.35308838,7.140625,-0.796875,5.296875
1695602021178,-0.010009766,-1.0183716,-0.33477783,11.484375,-5.234375,8.484375
1695602021221,-0.07397461,-1.0339966,-0.3369751,4.078125,-7.765625,13.453125
1695602021257,-0.09350586,-1.005188,-0.32452393,-8.15625,-17.375,8.25
1695602021290,-0.02734375,-1.0835571,-0.30499268,-2.75,-18.609375,3.015625
1695602021337,0.25317383,-1.1958618,-0.15289307,2.828125,-3.125,1.21875
1695602021370,0.16748047,-1.0635376,-0.1873169,-11.765625,-4.3125,2.8125
1695602021416,0.02734375,-0.866272,-0.17266846,-11.15625,-2.828125,0.21875
1695602021451,0.15063477,-0.817688,-0.16265869,-2.53125,-3.03125,-7.515625
1695602021498,0.16210938,-0.94195557,-0.09967041,-2.40625,-1.921875,-7.078125
1695602021526,0.09790039,-0.89849854,-0.15533447,-2.390625,2.6875,4.515625
1695602021574,0.12548828,-0.71954346,-0.16827393,1.8125,5.125,7.265625
1695602021609,0.17602539,-0.7661743,-0.11553955,8.203125,9.671875,0.546875
1695602021660,0.0625,-1.0918579,-0.2053833,-2.296875,10.84375,-7.21875
1695602021684,0.057128906,-1.1970825,-0.27130127,2.875,13.109375,-13.921875
1695602021729,0.07373047,-1.0952759,-0.2366333,4.875,13.15625,-10.15625
1695602021776,0.037109375,-0.96588135,-0.18414307,10.03125,16.375,-8.421875
1695602021808,-0.051757812,-0.86676025,-0.28082275,2.921875,15.546875,-4.515625
1695602021853,-0.11376953,-0.7317505,-0.33673096,2.140625,5.921875,2.109375
1695602021897,0.0053710938,-0.72003174,-0.32818604,12.984375,-3.9375,4.640625
1695602021944,0.0061035156,-0.9204712,-0.33868408,19.828125,-5.8125,6.515625
1695602021969,-0.15551758,-1.079895,-0.39190674,11.375,-3.125,12.359375
1695602022009,-0.15307617,-1.0437622,-0.4439087,-7.015625,-11.78125,6.84375
1695602022050,0.009033203,-1.0903931,-0.31671143,-11.234375,-19.640625,-4.953125
1695602022094,0.23120117,-1.2319946,-0.25787354,-1.25,-2.53125,-5.15625
1695602022123,0.06201172,-1.0964966,-0.2576294,-15.203125,-8.0,3.25
1695602022171,0.009033203,-0.8616333,-0.23760986,-17.234375,-5.109375,2.21875
1695602022201,0.13696289,-0.7505493,-0.15509033,-5.53125,-2.15625,-6.5625
1695602022247,0.19726562,-0.9065552,-0.14190674,-2.140625,-4.703125,-8.40625
1695602022281,0.1315918,-0.95977783,-0.11798096,-5.640625,-10.328125,2.1875
1695602022326,0.06738281,-0.86431885,-0.1350708,1.875,-3.640625,8.703125
1695602022361,0.07495117,-0.7571411,-0.09844971,9.3125,3.140625,4.78125
1695602022414,0.092041016,-0.784729,-0.090148926,10.78125,13.8125,3.078125
1695602022440,0.083984375,-0.97442627,-0.16461182,1.453125,13.203125,-4.015625
1695602022483,-0.09716797,-1.2727661,-0.34552002,11.328125,24.265625,-16.015625
1695602022522,-0.08081055,-0.9751587,-0.36602783,12.25,26.09375,-5.828125
1695602022562,-0.050048828,-0.7593384,-0.37384033,15.046875,23.640625,-2.03125
1695602022597,-0.023925781,-0.7564087,-0.3899536,17.8125,19.53125,1.109375
1695602022641,0.10864258,-0.92852783,-0.42340088,8.890625,-7.203125,0.4375
1695602022674,-0.0017089844,-0.9841919,-0.38189697,11.359375,-11.296875,12.34375
1695602022720,-0.08691406,-0.9229126,-0.38433838,3.671875,-15.640625,13.578125
1695602022754,-0.19116211,-0.95196533,-0.4920044,-5.796875,-25.328125,5.96875
1695602022798,0.10107422,-1.1694946,-0.34454346,-5.609375,-32.390625,-4.609375
1695602022832,0.27124023,-1.3779907,-0.2263794,-11.234375,-10.859375,4.609375
1695602022882,0.009277344,-1.0645142,-0.30523682,-24.65625,-12.328125,4.8125
1695602022912,-0.16918945,-0.7925415,-0.26983643,-17.21875,2.25,-9.765625
1695602022956,0.119628906,-0.6538696,-0.22198486,-3.796875,2.078125,-13.5
1695602022989,0.24169922,-0.862854,-0.16607666,2.734375,-3.375,-13.03125
1695602023036,0.21606445,-0.9973755,-0.14361572,-6.375,-7.828125,0.296875
1695602023070,0.057861328,-0.83135986,-0.16241455,2.4375,-3.015625,10.546875
1695602023118,-0.009033203,-0.7503052,-0.1038208,13.015625,-1.59375,-2.484375
1695602023162,0.068603516,-0.8233032,-0.065979004,18.8125,11.875,-8.359375
1695602023214,0.05834961,-1.0418091,-0.1741333,5.640625,20.453125,-7.109375
1695602023239,-0.15283203,-1.142395,-0.37261963,4.890625,28.75,-12.28125
1695602023272,-0.1730957,-0.94195557,-0.59747314,1.21875,19.640625,-11.640625
1695602023318,-0.013427734,-0.9038696,-0.4121704,13.90625,15.53125,-1.625
1695602023353,0.14746094,-1.0134888,-0.3406372,12.25,11.984375,9.46875
1695602023398,0.020263672,-0.8081665,-0.31427002,-0.625,-1.96875,8.765625
1695602023431,-0.12524414,-0.60894775,-0.37408447,9.171875,-4.859375,16.921875
1695602023474,-0.21362305,-0.71710205,-0.46221924,9.015625,-8.90625,13.5
1695602023507,-0.119140625,-1.100647,-0.5942993,8.578125,-18.703125,-5.46875
1695602023552,0.27661133,-1.5645142,-0.409729,1.234375,-23.109375,-8.984375
1695602023587,0.28149414,-1.237854,-0.3899536,-19.9375,-11.359375,14.46875
1695602023630,-0.24414062,-0.88409424,-0.35943604,-24.40625,-6.515625,14.0
1695602023664,-0.1496582,-0.7046509,-0.3135376,-13.859375,-8.015625,-1.328125
1695602023710,0.18334961,-0.7354126,-0.24835205,4.328125,0.171875,-13.25
1695602023742,0.27490234,-0.88238525,-0.22906494,6.78125,-3.71875,-7.890625
1695602023787,0.22314453,-0.802063,-0.18145752,-1.390625,-9.640625,7.125
1695602023821,0.096191406,-0.8567505,-0.18804932,6.703125,-4.0,14.3125
1695602023867,-0.036865234,-0.8945923,-0.15411377,3.75,2.21875,-0.78125
1695602023902,0.016357422,-0.7341919,-0.23052979,1.875,12.921875,-7.671875
1695602023948,0.12719727,-0.9143677,-0.2649536,6.875,20.546875,-11.875
1695602023983,-0.05517578,-1.2908325,-0.3743286,5.703125,24.90625,-15.078125
1695602024025,-0.07739258,-1.015686,-0.47052002,-9.578125,14.328125,-4.703125
1695602024058,-0.040283203,-0.83135986,-0.3711548,-0.875,14.875,-1.40625
1695602024103,0.03881836,-0.89385986,-0.37042236,4.46875,8.96875,5.09375
1695602024140,0.08520508,-0.85235596,-0.3574829,0.921875,-2.859375,10.671875
1695602024183,-0.1459961,-0.72784424,-0.36309814,7.515625,0.03125,18.78125
1695602024215,-0.19458008,-0.6799927,-0.4060669,9.390625,-3.609375,10.953125
1695602024261,-0.034179688,-0.9351196,-0.4085083,16.375,-8.203125,4.703125
1695602024295,0.17919922,-1.4558716,-0.487854,1.984375,-24.890625,3.03125
1695602024338,0.36083984,-1.3357544,-0.36187744,-11.796875,-14.59375,12.875
1695602024373,-0.092285156,-1.0405884,-0.3711548,-23.328125,-9.515625,14.546875
1695602024422,-0.10620117,-0.7991333,-0.30108643,-15.921875,2.234375,1.609375
1695602024475,0.17919922,-0.6721802,-0.28546143,-4.0625,10.078125,-16.8125
1695602024500,0.33862305,-0.8303833,-0.21612549,0.75,1.8125,-17.953125
1695602024540,0.34277344,-0.8892212,-0.21490479,-12.109375,-14.9375,4.71875
1695602024578,0.17089844,-0.73443604,-0.2366333,-2.734375,-7.90625,16.3125
1695602024620,0.028076172,-0.87579346,-0.17266846,5.453125,-9.0625,-1.1875
1695602024655,0.043945312,-0.8953247,-0.1560669,5.953125,-0.203125,-4.984375
1695602024704,0.119628906,-1.0493774,-0.21612549,-2.890625,4.09375,-4.734375
1695602024733,0.12451172,-1.270813,-0.286438,-4.203125,14.984375,-11.421875
1695602024780,0.043701172,-1.022522,-0.3267212,-6.609375,14.1875,-4.109375
1695602024815,-0.009521484,-0.8587036,-0.29962158,-0.234375,22.375,-1.796875
1695602024856,-0.010009766,-0.72198486,-0.3274536,0.75,19.96875,2.515625
1695602024891,0.084472656,-0.72540283,-0.36749268,-2.140625,4.15625,2.46875
1695602024936,0.09887695,-0.86846924,-0.32061768,9.28125,-13.625,6.703125
1695602024988,0.06323242,-1.0232544,-0.32305908,13.234375,-10.390625,15.140625
1695602025025,-0.025634766,-0.9639282,-0.3970337,7.359375,-17.21875,22.0
1695602025049,-0.11328125,-0.99176025,-0.46124268,-3.71875,-25.609375,16.65625
1695602025092,0.03125,-1.1680298,-0.29693604,3.59375,-15.171875,-2.5
1695602025128,0.26660156,-1.2371216,-0.19903564,2.921875,6.015625,0.890625
1695602025172,0.15673828,-1.000061,-0.3057251,-16.8125,-1.890625,3.34375
1695602025204,0.059570312,-0.7498169,-0.28399658,-6.71875,3.53125,-3.296875
1695602025252,0.25708008,-0.661438,-0.25299072,7.25,2.5625,-11.296875
1695602025284,0.4104004,-0.94976807,-0.16558838,8.671875,-1.015625,-10.390625
1695602025330,0.23095703,-0.9663696,-0.16168213,-4.0625,-6.640625,2.625
1695602025363,0.083496094,-0.8814087,-0.1729126,2.84375,4.375,9.53125
1695602025408,0.055664062,-0.7402954,-0.17144775,5.34375,11.546875,6.578125
1695602025442,0.1538086,-0.6902466,-0.22125244,7.046875,18.484375,0.859375
1695602025488,0.15844727,-0.960022,-0.26031494,6.59375,26.71875,-4.25
1695602025521,0.071777344,-1.3289185,-0.394104,5.234375,32.546875,-16.015625
1695602025566,-0.009033203,-1.0357056,-0.44122314,-7.359375,24.6875,-10.71875
1695602025600,0.13867188,-0.8206177,-0.39898682,-0.21875,24.171875,-6.109375
1695602025648,0.10522461,-0.8218384,-0.42852783,1.015625,9.921875,2.03125
1695602025678,0.115234375,-0.81256104,-0.36358643,-0.40625,-6.703125,2.40625
1695602025723,0.043945312,-0.86968994,-0.37091064,9.203125,-12.96875,9.625
1695602025780,-0.118652344,-0.84942627,-0.4319458,8.0,-12.796875,13.703125
1695602025804,-0.10864258,-0.74786377,-0.45074463,6.796875,-21.625,4.125
1695602025835,0.029541016,-1.0584106,-0.4102173,11.953125,-25.625,-1.5625
1695602025883,0.2590332,-1.4837036,-0.31329346,-0.5,-19.421875,-1.421875
1695602025926,0.19555664,-1.1028442,-0.39898682,-22.21875,-13.171875,12.015625
1695602025959,-0.0012207031,-0.848938,-0.24786377,-14.171875,-2.96875,5.15625
1695602026006,0.038085938,-0.66485596,-0.27716064,-5.375,1.53125,-6.828125
1695602026039,0.26733398,-0.78985596,-0.2546997,2.21875,2.5625,-16.34375
1695602026083,0.29882812,-0.9602661,-0.20343018,-8.171875,-4.6875,-8.9375
1695602026117,0.17895508,-0.8960571,-0.190979,-8.96875,-1.0625,7.0625
1695602026163,0.106933594,-0.7979126,-0.16949463,1.4375,1.96875,2.96875
1695602026206,0.17822266,-0.7703247,-0.15509033,8.109375,12.671875,-1.75
1695602026239,0.21044922,-0.8779907,-0.22198486,6.546875,22.359375,-2.921875
1695602026274,0.11303711,-1.0940552,-0.26153564,-4.546875,24.0625,-9.921875
1695602026321,-0.028320312,-1.3501587,-0.4290161,1.84375,27.4375,-18.21875
1695602026355,-0.012451172,-0.98321533,-0.41436768,-1.984375,26.34375,-7.828125
1695602026401,0.02758789,-0.70806885,-0.38409424,6.359375,26.875,2.21875
1695602026432,0.055664062,-0.65704346,-0.42559814,2.96875,7.671875,9.171875
1695602026478,0.092041016,-0.6856079,-0.40875244,10.8125,-9.140625,3.96875
1695602026516,0.091552734,-0.9307251,-0.4307251,11.875,-11.171875,7.234375
1695602026559,-0.08520508,-0.9673462,-0.43756104,2.0625,-22.875,10.859375
1695602026590,-0.17211914,-0.9829712,-0.50201416,-7.78125,-32.78125,3.625
1695602026635,0.14624023,-1.2520142,-0.30133057,1.546875,-25.75,-1.0625
1695602026669,0.2368164,-1.2918091,-0.22442627,-14.34375,-7.390625,6.75
1695602026716,-0.12768555,-0.97784424,-0.31304932,-21.453125,-5.28125,5.40625
1695602026749,-0.16870117,-0.78302,-0.2703247,-13.953125,0.21875,-7.796875
1695602026791,0.033691406,-0.7559204,-0.19366455,-5.59375,9.5,-19.375
1695602026830,0.32983398,-1.0654907,-0.18927002,-6.859375,7.46875,-18.765625
1695602026869,0.35498047,-0.9627075,-0.17340088,-14.5,-4.21875,4.453125
1695602026903,0.1538086,-0.7161255,-0.16168213,-5.203125,-7.109375,13.125
1695602026950,-0.032226562,-0.84552,-0.16778564,12.703125,3.015625,-3.609375
1695602026988,0.07739258,-0.7752075,-0.12310791,16.6875,14.46875,2.515625
1695602027039,0.20166016,-0.7398071,-0.11065674,14.875,22.921875,8.921875
1695602027062,0.038330078,-0.940979,-0.2107544,8.890625,32.34375,6.203125
1695602027106,-0.09643555,-1.2537231,-0.3904419,11.40625,40.90625,-10.203125
1695602027139,0.017333984,-1.1143188,-0.51153564,6.65625,22.375,-4.4375
1695602027186,0.024169922,-0.84625244,-0.40753174,11.84375,20.171875,8.46875
1695602027221,0.068115234,-0.81207275,-0.4336548,13.25,15.578125,14.75
1695602027266,0.17553711,-0.86138916,-0.45025635,5.140625,-1.3125,15.703125
1695602027310,-0.049072266,-0.8406372,-0.41363525,6.359375,-0.421875,17.015625
1695602027344,-0.19458008,-0.88775635,-0.39923096,8.21875,2.375,7.859375
1695602027388,-0.12158203,-0.8557739,-0.5540161,-1.578125,-5.984375,0.6875
1695602027424,0.1953125,-1.1299438,-0.45977783,2.625,-18.0,-1.296875
1695602027467,0.44702148,-1.4695435,-0.3093872,-5.671875,-9.875,7.53125
1695602027500,0.09033203,-1.0183716,-0.34918213,-28.484375,-14.96875,14.96875
1695602027548,-0.14135742,-0.8101196,-0.30181885,-21.390625,-0.640625,-0.90625
1695602027580,0.025390625,-0.6448364,-0.31158447,-14.09375,3.796875,-18.796875
1695602027624,0.31103516,-0.83477783,-0.23150635,-0.25,7.046875,-17.03125
1695602027658,0.34838867,-0.9937134,-0.21636963,-16.8125,-1.90625,0.40625
1695602027703,0.21411133,-0.8093872,-0.1921997,-10.515625,5.171875,10.140625
1695602027736,0.023925781,-0.7334595,-0.18585205,1.484375,8.046875,0.765625
1695602027784,0.07739258,-0.66192627,-0.17120361,14.453125,16.859375,-1.265625
1695602027818,0.20629883,-0.7229614,-0.19293213,14.5,20.015625,6.921875
1695602027860,0.13012695,-0.99053955,-0.25421143,9.0,25.234375,9.109375
1695602027895,-0.08569336,-1.2266235,-0.36090088,11.84375,33.359375,-6.171875
1695602027943,-0.056640625,-0.9993286,-0.45977783,5.21875,28.578125,-6.21875
1695602027971,0.091796875,-0.9871216,-0.4290161,14.0,30.234375,-5.9375
1695602028020,0.18481445,-1.0669556,-0.4121704,7.265625,26.84375,-2.953125
1695602028053,-2.4414062E-4,-0.8875122,-0.47930908,0.796875,13.40625,13.875
1695602028096,-0.040527344,-0.67266846,-0.517395,10.625,8.625,21.1875
1695602028137,0.010009766,-0.6030884,-0.44171143,7.078125,-2.3125,13.109375
1695602028177,0.024902344,-0.8274536,-0.4968872,3.859375,-15.453125,16.25
1695602028210,0.11694336,-1.2874146,-0.3562622,0.078125,-24.328125,12.78125
1695602028254,0.14892578,-1.3591919,-0.3369751,-15.703125,2.34375,15.34375
1695602028288,-0.03540039,-1.0464478,-0.41241455,-22.109375,5.34375,14.15625
1695602028334,-0.040039062,-0.8657837,-0.31378174,-18.328125,15.921875,-1.078125
1695602028382,0.12060547,-0.7781372,-0.3255005,-7.859375,20.625,-10.5
1695602028419,0.35058594,-0.93463135,-0.2962036,-6.609375,17.421875,-8.78125
1695602028447,0.31396484,-0.7476196,-0.30181885,-12.140625,12.125,5.9375
1695602028490,0.123291016,-0.56329346,-0.29229736,1.140625,14.1875,4.203125
1695602028525,0.15576172,-0.6921997,-0.2810669,17.609375,10.28125,-5.21875
1695602028571,0.23486328,-0.81085205,-0.25933838,7.171875,1.671875,3.78125
1695602028603,0.20629883,-1.0271606,-0.27838135,5.125,4.703125,5.703125
1695602028650,0.02758789,-1.2598267,-0.32989502,2.15625,11.03125,1.140625
1695602028693,0.033935547,-1.1585083,-0.38067627,-1.0,17.796875,2.890625
1695602028731,0.04296875,-0.9819946,-0.3579712,7.609375,31.375,1.171875
1695602028775,0.02368164,-0.7185669,-0.4295044,2.75,24.0625,4.796875
1695602028810,0.064941406,-0.5755005,-0.48614502,2.21875,13.734375,7.78125
1695602028849,0.1262207,-0.57598877,-0.47418213,1.40625,-3.640625,10.140625
1695602028885,0.064453125,-0.7908325,-0.4204712,2.6875,-17.84375,9.859375
1695602028932,-0.0075683594,-1.1616821,-0.41241455,4.65625,-19.765625,2.171875
1695602028976,-0.047851562,-1.2661743,-0.41680908,-16.484375,-19.453125,2.921875
1695602029011,0.16552734,-1.2554321,-0.2937622,-7.9375,7.796875,6.71875
1695602029041,0.11328125,-1.0564575,-0.29327393,-19.9375,8.09375,2.796875
1695602029088,-0.10839844,-0.95977783,-0.27618408,-13.515625,23.359375,-7.875
1695602029123,0.17041016,-0.7966919,-0.28692627,-5.453125,30.234375,-7.765625
1695602029172,0.34814453,-0.7654419,-0.26812744,-7.578125,18.3125,1.390625
1695602029201,0.25952148,-0.72125244,-0.25811768,-3.359375,14.546875,3.59375
1695602029248,0.1586914,-0.80670166,-0.22540283,5.0,11.890625,0.8125
1695602029279,0.16845703,-0.8081665,-0.20611572,5.296875,14.25,4.234375
1695602029322,0.1328125,-0.7385864,-0.20831299,-1.046875,12.28125,7.234375
1695602029357,0.041992188,-1.1035767,-0.29840088,6.109375,16.90625,0.34375
1695602029404,7.324219E-4,-1.2532349,-0.38458252,4.703125,18.140625,-2.421875
1695602029438,-0.0063476562,-1.0484009,-0.33868408,7.171875,27.578125,-1.140625
1695602029481,-0.044433594,-0.78570557,-0.37628174,0.59375,26.78125,1.140625
1695602029520,0.0234375,-0.6445923,-0.45025635,4.84375,18.234375,-0.0625
1695602029562,0.072265625,-0.68536377,-0.44830322,8.0,5.515625,-2.421875
1695602029616,0.0056152344,-0.83306885,-0.4446411,5.265625,-11.03125,-3.546875
1695602029644,-0.026611328,-1.0325317,-0.4048462,1.640625,-19.0,-3.046875
1695602029673,-0.010498047,-1.1775513,-0.40997314,-3.578125,-19.171875,-1.5625
1695602029727,-0.05883789,-1.1477661,-0.34014893,-6.09375,-7.421875,5.390625
1695602029752,0.03125,-1.1150513,-0.29742432,-7.84375,4.390625,7.890625
1695602029799,-0.103027344,-0.99102783,-0.3189087,-17.1875,5.5625,0.4375
1695602029830,0.050048828,-0.925354,-0.29693604,-4.3125,16.859375,-5.859375
1695602029876,0.29418945,-0.89508057,-0.26715088,-3.8125,11.5,3.0
1695602029914,0.16503906,-0.7715454,-0.23931885,-4.28125,13.375,11.859375
1695602029953,0.06323242,-0.70318604,-0.26934814,-3.09375,10.109375,6.90625
1695602029987,0.10839844,-0.7749634,-0.21734619,0.53125,12.53125,-2.515625
1695602030037,0.16503906,-0.7871704,-0.2312622,-1.28125,12.0,4.046875
1695602030077,0.07373047,-0.89678955,-0.22418213,1.359375,18.234375,2.015625
1695602030119,-0.079589844,-1.2285767,-0.3496704,14.15625,23.1875,-14.28125
1695602030157,-0.12402344,-1.2183228,-0.35723877,7.625,24.421875,-3.65625
1695602030189,0.023925781,-0.975647,-0.40655518,4.203125,26.34375,10.65625
1695602030235,0.021240234,-0.678772,-0.40509033,-4.15625,15.34375,9.921875
1695602030271,-0.017578125,-0.6001587,-0.46588135,-1.703125,5.875,4.453125
1695602030314,-0.12231445,-0.7090454,-0.42218018,10.640625,2.328125,8.0625
1695602030347,-0.123046875,-0.8308716,-0.36676025,15.875,-5.984375,1.1875
1695602030391,0.005859375,-1.1050415,-0.48516846,7.0,-16.734375,-1.84375
1695602030424,0.07055664,-1.2283325,-0.41436768,2.1875,-13.265625,8.0625
1695602030474,0.06738281,-1.163147,-0.38580322,-0.03125,3.734375,16.1875
1695602030505,-0.13623047,-0.95098877,-0.37750244,-10.203125,7.171875,6.953125
1695602030551,-0.08569336,-0.913147,-0.3670044,-4.390625,13.171875,-3.390625
1695602030592,0.20361328,-0.9170532,-0.44000244,-2.875,4.875,-6.859375
1695602030627,0.3251953,-0.8743286,-0.32696533,3.609375,4.390625,6.28125
1695602030661,0.12597656,-0.7654419,-0.3098755,-6.015625,5.125,17.046875
1695602030708,0.064941406,-0.7005005,-0.25494385,1.640625,5.84375,5.734375
1695602030741,0.18920898,-0.7678833,-0.28863525,0.671875,6.09375,1.25
1695602030785,0.14819336,-0.86065674,-0.18902588,2.5,12.390625,4.984375
1695602030820,0.0073242188,-0.9175415,-0.20880127,-5.703125,19.875,6.75
1695602030875,-0.15917969,-0.99835205,-0.2288208,-1.109375,38.90625,0.46875
1695602030899,-0.13769531,-1.2463989,-0.55133057,1.65625,41.375,-14.9375
1695602030945,0.09765625,-1.1091919,-0.473938,9.59375,35.625,-9.03125
1695602030979,0.11791992,-0.99786377,-0.42559814,-4.796875,27.6875,12.828125
1695602031023,-0.013427734,-0.76568604,-0.42462158,-11.28125,12.546875,18.9375
1695602031055,-0.04345703,-0.5696411,-0.4121704,-7.234375,-3.703125,8.34375
1695602031100,-0.034423828,-0.6553345,-0.41656494,1.34375,-16.96875,8.421875
1695602031134,-0.08154297,-0.8394165,-0.4776001,-6.546875,-19.5625,7.609375
1695602031181,-0.050048828,-0.9871216,-0.26080322,1.34375,2.296875,6.78125
1695602031213,0.063964844,-1.4395142,-0.23028564,-5.453125,11.46875,13.234375
1695602031258,-0.16699219,-1.1643677,-0.28033447,-15.859375,17.546875,7.53125
1695602031292,-0.19360352,-0.91607666,-0.3320923,-4.25,28.484375,-6.234375
1695602031339,0.1821289,-0.8670044,-0.34869385,-0.078125,19.828125,-3.125
1695602031370,0.3371582,-0.9385376,-0.29864502,4.125,13.796875,12.375
1695602031419,0.16845703,-0.7620239,-0.2666626,2.734375,11.09375,16.359375
1695602031462,0.11010742,-0.50372314,-0.3237915,3.140625,0.703125,3.875
1695602031494,0.24731445,-0.60943604,-0.29718018,15.453125,2.65625,6.3125
1695602031539,0.20239258,-1.0586548,-0.1572876,11.1875,13.671875,15.890625
1695602031579,-0.17651367,-1.3572388,-0.13873291,-11.28125,23.125,16.15625
1695602031617,-0.38330078,-1.1333618,-0.4590454,-0.234375,46.25,-5.1875
1695602031654,0.05126953,-0.87945557,-0.5696411,16.34375,33.96875,-18.28125
1695602031698,0.37280273,-1.0894165,-0.35528564,18.140625,32.0,10.046875
1695602031735,0.19189453,-0.97540283,-0.4631958,-5.5,23.25,36.484375
1695602031779,-0.12670898,-0.505188,-0.4644165,-14.796875,5.140625,25.59375
1695602031809,-0.1352539,-0.43389893,-0.47003174,0.03125,1.859375,3.75
1695602031856,-0.025146484,-0.7542114,-0.47833252,2.96875,5.4375,2.46875
1695602031889,0.111816406,-1.180481,-0.48150635,6.4375,7.25,5.921875
1695602031945,0.12109375,-1.3435669,-0.3411255,-10.015625,2.15625,14.625
1695602031968,0.026123047,-1.0449829,-0.38775635,-13.9375,9.5,25.546875
1695602032014,-0.14331055,-0.8862915,-0.36138916,-10.96875,15.046875,5.28125
1695602032046,0.084228516,-0.92193604,-0.3587036,-7.765625,20.4375,-7.96875
1695602032092,0.28759766,-1.071106,-0.33648682,-16.03125,12.21875,-3.1875
1695602032125,0.14746094,-0.8858032,-0.31256104,-15.640625,15.09375,5.140625
1695602032184,0.09716797,-0.65093994,-0.30645752,-8.125,13.578125,2.15625
1695602032204,0.19628906,-0.66290283,-0.27911377,2.21875,15.6875,-3.640625
1695602032249,0.29174805,-0.80718994,-0.28253174,5.859375,9.9375,4.140625
1695602032282,0.28295898,-0.8599243,-0.20098877,2.1875,6.140625,15.703125
1695602032329,0.11645508,-0.97857666,-0.15411377,2.265625,16.09375,17.859375
1695602032363,-0.15112305,-1.1629028,-0.16558838,-6.65625,27.375,5.984375
1695602032407,-0.076416016,-1.1409302,-0.35064697,-4.703125,40.21875,-8.03125
1695602032441,0.119140625,-1.0969849,-0.4517212,2.96875,32.578125,-7.625
1695602032487,0.2788086,-1.0010376,-0.30010986,15.984375,32.640625,8.734375
1695602032518,0.09350586,-0.7593384,-0.3682251,6.453125,26.96875,25.09375
1695602032564,0.013671875,-0.43780518,-0.50860596,-3.8125,8.875,23.625
1695602032599,0.080078125,-0.4109497,-0.43634033,1.34375,-7.25,13.484375
1695602032641,0.10888672,-0.9817505,-0.37042236,15.109375,-6.5625,4.953125
1695602032676,-0.022949219,-1.5198364,-0.473938,-1.078125,-15.359375,-0.453125
1695602032720,0.107177734,-1.0650024,-0.35821533,-5.765625,2.46875,11.03125
1695602032755,0.111816406,-1.0122681,-0.34332275,-5.21875,6.625,12.25
1695602032800,-0.07299805,-0.975647,-0.3447876,-11.6875,5.46875,-3.234375
1695602032848,0.068115234,-0.9717407,-0.31695557,-5.609375,14.6875,-13.796875
1695602032882,0.29248047,-0.93292236,-0.35040283,-13.90625,5.015625,-3.59375
1695602032924,0.18554688,-0.7971802,-0.31304932,-13.796875,2.53125,5.25
1695602032957,0.079589844,-0.71954346,-0.28179932,-0.375,10.1875,-1.40625
1695602033003,0.2277832,-0.7749634,-0.27496338,5.734375,3.015625,-12.3125
1695602033038,0.41503906,-0.9138794,-0.2666626,5.265625,-5.265625,-5.734375
1695602033086,0.24121094,-0.7817993,-0.29815674,3.875,-6.234375,9.671875
1695602033116,0.06689453,-0.8303833,-0.1675415,17.484375,10.0625,21.265625
1695602033158,-0.13671875,-1.0305786,-0.128479,7.046875,23.671875,14.984375
1695602033193,-0.15673828,-1.1255493,-0.2522583,0.546875,36.03125,-7.625
1695602033239,0.0056152344,-1.0540161,-0.506897,2.921875,43.03125,-15.75
1695602033273,0.09667969,-0.9885864,-0.5161743,3.546875,27.328125,-8.3125
1695602033318,0.19360352,-1.0261841,-0.36627197,11.296875,37.4375,7.21875
1695602033351,0.15698242,-0.8740845,-0.44366455,-8.953125,20.0,21.578125
1695602033398,0.07080078,-0.63653564,-0.4631958,-6.078125,8.890625,16.375
1695602033453,0.008056641,-0.6748657,-0.41900635,8.890625,2.375,7.671875
1695602033475,-0.030517578,-0.78497314,-0.43927002,3.859375,-3.375,7.796875
1695602033507,0.087890625,-0.8374634,-0.4668579,-2.03125,-17.8125,9.625
1695602033554,0.11230469,-1.1016235,-0.3430786,-6.8125,-9.265625,11.0
1695602033586,0.048828125,-1.3994751,-0.364563,-5.390625,7.46875,12.828125
1695602033634,-0.09106445,-1.0916138,-0.3262329,-14.984375,15.703125,4.703125
1695602033668,-0.02709961,-0.80303955,-0.42144775,-11.171875,18.0,-1.75
1695602033711,0.29882812,-0.79693604,-0.38897705,-7.03125,7.75,-3.15625
1695602033747,0.203125,-0.9939575,-0.35162354,-14.8125,2.859375,1.21875
1695602033789,0.024902344,-0.9463501,-0.27252197,-6.25,12.703125,-2.046875
1695602033823,0.24829102,-0.79815674,-0.2571411,-3.21875,4.15625,-7.421875
1695602033867,0.3725586,-0.81134033,-0.30645752,2.5625,-2.03125,-5.96875
1695602033902,0.24145508,-0.8027954,-0.28399658,4.328125,-4.453125,4.828125
1695602033948,0.17358398,-0.74420166,-0.11480713,11.203125,4.78125,18.546875
1695602033982,-0.12036133,-0.8621216,-0.11090088,-4.421875,20.421875,14.390625
1695602034027,-0.34594727,-0.89385986,-0.17486572,-1.40625,43.265625,-11.75
1695602034061,-0.18164062,-1.0830688,-0.6194458,6.0625,45.875,-27.125
1695602034103,0.1394043,-1.1834106,-0.5232544,13.515625,27.765625,-17.859375
1695602034139,0.2446289,-1.1387329,-0.43145752,-6.578125,18.625,18.796875
1695602034185,0.08935547,-0.8936157,-0.3867798,-1.8125,5.65625,21.96875
1695602034233,0.16503906,-0.62042236,-0.37457275,0.3125,1.140625,8.640625
1695602034265,0.03125,-0.6428833,-0.47564697,7.109375,-10.15625,17.4375
1695602034311,-0.1430664,-0.7058716,-0.42266846,-3.234375,-16.421875,18.0
1695602034342,9.765625E-4,-1.017395,-0.42877197,4.546875,-16.375,0.828125
1695602034387,0.34399414,-1.6245728,-0.25909424,2.34375,-4.890625,8.3125
1695602034420,0.12011719,-1.0576782,-0.38360596,-19.515625,-12.265625,25.984375
1695602034468,-0.2861328,-0.8804321,-0.2786255,-7.96875,8.46875,8.21875
1695602034498,-0.072753906,-0.6646118,-0.3735962,-15.34375,8.5,-17.703125
1695602034544,0.30029297,-0.75250244,-0.31207275,2.9375,12.328125,-23.953125
1695602034580,0.5324707,-1.1577759,-0.28253174,-1.671875,7.046875,-8.78125
1695602034623,0.2861328,-0.93536377,-0.2078247,-9.015625,-7.96875,8.671875
1695602034656,0.12817383,-0.8569946,-0.19415283,0.6875,-4.109375,7.0
1695602034723,0.020751953,-0.73931885,-0.06402588,5.953125,12.09375,3.125
1695602034734,-0.033447266,-0.6482544,-0.16217041,-2.53125,14.953125,-3.375
1695602034779,-0.0715332,-0.78131104,-0.15093994,1.109375,33.625,-8.21875
1695602034814,-0.16870117,-1.2337036,-0.519104,3.234375,42.96875,-29.328125
1695602034859,-0.061523438,-1.1677856,-0.5786743,10.859375,35.3125,-20.828125
1695602034892,0.0703125,-0.958313,-0.42633057,4.6875,28.984375,0.71875
1695602034936,0.18408203,-1.020813,-0.41436768,3.125,16.125,6.609375
1695602034969,0.33447266,-0.975647,-0.29864502,-1.328125,6.0,8.359375
1695602035020,-0.16088867,-0.7695923,-0.33428955,4.84375,2.703125,22.578125
1695602035051,-0.43725586,-0.57403564,-0.38946533,8.21875,-3.515625,20.3125
1695602035095,-0.07397461,-0.49664307,-0.47906494,2.03125,-14.359375,5.15625
1695602035128,0.13793945,-1.0906372,-0.43829346,-4.078125,-22.53125,2.984375
1695602035178,0.22705078,-1.8745728,-0.35235596,-4.5625,-22.5625,1.6875
1695602035206,0.10253906,-1.0418091,-0.21954346,-9.125,-12.03125,21.796875
1695602035255,-0.123046875,-0.847229,-0.33135986,-7.265625,-0.5625,14.59375
1695602035286,2.4414062E-4,-0.5322876,-0.33013916,4.890625,7.34375,-1.328125
1695602035330,0.30908203,-0.7305298,-0.24053955,19.265625,11.9375,-10.65625
1695602035369,0.41577148,-1.0723267,-0.24884033,1.65625,-3.140625,-3.640625
1695602035411,0.24975586,-0.8206177,-0.26837158,-4.171875,-5.9375,13.484375
1695602035447,0.05859375,-0.55963135,-0.22442627,8.09375,1.734375,14.421875
1695602035492,0.0041503906,-0.767395,-0.23321533,14.515625,13.90625,0.078125
1695602035523,0.015136719,-1.1721802,-0.2937622,6.140625,37.640625,-12.953125
1695602035568,0.05102539,-1.3674927,-0.5149536,0.328125,36.484375,-20.875
1695602035612,0.03491211,-1.0808716,-0.5462036,-4.0,18.203125,-12.296875
1695602035646,0.015136719,-0.76934814,-0.35430908,7.34375,27.203125,1.921875
1695602035690,0.08227539,-0.8064575,-0.4524536,-0.984375,14.46875,9.1875
1695602035724,0.046875,-0.69976807,-0.4175415,-5.25,-2.796875,3.515625
1695602035770,0.013916016,-0.6897583,-0.41778564,11.4375,-5.53125,6.796875
1695602035802,0.0048828125,-0.74176025,-0.4644165,16.078125,-8.28125,16.46875
1695602035848,-0.041015625,-0.7102661,-0.5852661,4.78125,-27.65625,16.28125
1695602035885,0.029541016,-1.0354614,-0.5293579,8.46875,-34.609375,10.9375
1695602035928,0.27026367,-1.4397583,-0.43096924,-4.359375,-26.0625,7.96875
1695602035961,0.26171875,-1.2649536,-0.4451294,-16.890625,-18.734375,13.421875
1695602036018,-4.8828125E-4,-0.92437744,-0.36138916,-18.46875,0.125,9.734375
1695602036040,0.016113281,-0.5574341,-0.35040283,-11.0625,3.53125,-6.625
1695602036088,0.25952148,-0.5820923,-0.31695557,0.765625,4.140625,-14.140625
1695602036122,0.2475586,-0.92681885,-0.24493408,-3.421875,7.125,-8.0625
1695602036168,0.2578125,-0.8814087,-0.26397705,-3.046875,5.75,5.609375
1695602036198,0.32373047,-0.6668091,-0.20367432,6.0625,4.984375,4.5625
1695602036246,0.14746094,-0.81036377,-0.24786377,4.484375,12.328125,-4.65625
1695602036278,0.009033203,-1.000061,-0.29962158,-1.875,22.40625,-9.828125
1695602036323,-0.020263672,-1.1360474,-0.43292236,-0.296875,23.90625,-15.921875
1695602036355,-0.041748047,-1.0505981,-0.4331665,0.28125,24.09375,-13.109375
1695602036405,0.048583984,-0.86676025,-0.44781494,5.828125,32.5,-7.59375
1695602036436,0.15600586,-0.7583618,-0.44854736,5.4375,25.03125,2.921875
1695602036478,0.1303711,-0.72784424,-0.4902954,2.84375,2.78125,11.9375
1695602036520,0.14282227,-0.7727661,-0.4163208,13.03125,-6.65625,12.78125
1695602036558,0.0146484375,-0.87701416,-0.4541626,4.453125,-13.21875,14.78125
1695602036593,-0.16088867,-0.90997314,-0.5112915,-0.125,-19.328125,8.515625
1695602036637,-0.07446289,-1.0840454,-0.4734497,-7.625,-23.84375,0.265625
1695602036671,0.16967773,-1.3052368,-0.44122314,-9.625,-24.09375,-3.65625
1695602036715,0.24926758,-1.3181763,-0.269104,-16.03125,-13.015625,-1.0
1695602036749,0.15527344,-0.9573364,-0.38848877,-29.4375,-8.6875,4.796875
1695602036797,-0.05029297,-0.66778564,-0.2835083,-18.78125,-3.203125,-1.25
1695602036827,0.056396484,-0.5484009,-0.30181885,-7.484375,-1.65625,-14.078125
1695602036874,0.21850586,-0.7107544,-0.21636963,13.890625,7.609375,-13.921875
1695602036907,0.33691406,-1.0281372,-0.25079346,4.296875,-0.78125,0.90625
1695602036953,0.22998047,-0.88360596,-0.2805786,-1.5625,-4.765625,11.078125
1695602036996,0.13842773,-0.76885986,-0.2444458,6.25,-1.5,-1.046875
1695602037032,0.18164062,-0.8279419,-0.26519775,6.703125,3.296875,-8.8125
1695602037076,0.24658203,-0.9397583,-0.18658447,7.375,8.734375,-7.140625
1695602037108,0.041992188,-1.0974731,-0.23736572,-3.625,15.265625,-4.46875
1695602037153,-0.22509766,-1.1372681,-0.34405518,-0.0625,25.671875,-12.046875
1695602037188,-0.10913086,-0.9067993,-0.44317627,-3.078125,25.703125,-17.515625
1695602037237,0.07495117,-0.86138916,-0.3682251,5.609375,27.1875,-10.3125
1695602037290,0.14257812,-1.0083618,-0.38848877,-1.515625,11.03125,3.0
1695602037310,0.064941406,-0.8088989,-0.3670044,-2.046875,-7.3125,15.265625
1695602037343,0.045898438,-0.68463135,-0.38848877,10.5625,-9.359375,21.0
1695602037390,-0.16235352,-0.6758423,-0.3574829,9.421875,-7.0,17.625
1695602037424,-0.14526367,-0.8855591,-0.48687744,11.421875,-14.671875,7.796875
1695602037470,-0.0043945312,-1.248352,-0.46246338,9.75,-18.84375,-1.53125
1695602037504,0.25024414,-1.4268188,-0.3435669,-0.84375,-12.890625,8.265625
1695602037550,0.14550781,-1.0857544,-0.4109497,-18.40625,-9.328125,14.078125
1695602037582,-0.080566406,-0.82037354,-0.33746338,-15.828125,-4.40625,6.5
1695602037629,0.12573242,-0.7307739,-0.35064697,-4.359375,-0.125,-9.28125
1695602037660,0.27319336,-0.8274536,-0.27764893,-1.484375,-0.640625,-14.75
1695602037703,0.26586914,-0.87701416,-0.2341919,-8.71875,-3.53125,-5.90625
1695602037739,0.22631836,-0.7798462,-0.24420166,-7.265625,-4.5,8.3125
1695602037785,0.14770508,-0.83795166,-0.21929932,9.703125,-1.28125,1.8125
1695602037819,0.09106445,-0.88287354,-0.21417236,8.515625,2.734375,-6.03125
1695602037862,0.26342773,-0.8311157,-0.21514893,8.921875,3.59375,-1.171875
1695602037897,0.2265625,-0.94488525,-0.21173096,1.40625,2.390625,1.53125
1695602037942,0.08520508,-1.0654907,-0.21368408,-0.234375,15.046875,-6.0625
1695602037974,-0.11645508,-1.2166138,-0.3711548,-4.28125,19.59375,-19.140625
1695602038020,-0.0107421875,-1.0078735,-0.41363525,-6.875,15.328125,-19.96875
1695602038053,0.13916016,-0.81451416,-0.3562622,3.09375,17.796875,-10.28125
1695602038099,0.040039062,-0.7749634,-0.39849854,-4.296875,11.34375,5.890625
1695602038132,0.06762695,-0.6880493,-0.4019165,2.4375,-8.890625,9.71875
1695602038180,0.025878906,-0.7456665,-0.4024048,20.765625,-10.109375,12.828125
1695602038214,-0.072265625,-0.8530884,-0.45977783,15.890625,-9.359375,16.59375
1695602038256,-0.08081055,-0.89678955,-0.4446411,5.90625,-22.3125,10.25
1695602038289,0.043945312,-1.1116333,-0.50738525,1.203125,-31.59375,2.28125
1695602038336,0.3425293,-1.420227,-0.3587036,-0.890625,-27.984375,2.234375
1695602038380,0.25585938,-1.2288208,-0.35162354,-15.296875,-10.203125,14.40625
1695602038419,-0.15966797,-0.90753174,-0.32940674,-21.5625,-6.65625,9.296875
1695602038462,-0.10180664,-0.6968384,-0.3225708,-15.5,-2.25,-6.65625
1695602038491,0.2084961,-0.8179321,-0.26690674,-2.0,4.703125,-22.640625
1695602038561,0.3395996,-1.0967407,-0.22052002,-8.40625,6.859375,-17.921875
1695602038569,0.3178711,-0.8779907,-0.23321533,-19.828125,2.078125,4.640625
1695602038617,0.22167969,-0.6292114,-0.22613525,-3.984375,2.640625,5.828125
1695602038663,0.12670898,-0.6975708,-0.18609619,7.515625,-2.765625,-8.765625
1695602038697,0.15429688,-0.8579712,-0.19903564,15.609375,1.734375,-6.15625
1695602038730,0.27490234,-0.81573486,-0.15948486,10.453125,1.953125,4.390625
1695602038773,0.1628418,-0.928772,-0.19366455,7.15625,5.71875,1.578125
1695602038807,-0.0075683594,-1.1416626,-0.175354,3.375,18.078125,-10.140625
1695602038853,-0.0859375,-1.2307739,-0.440979,2.1875,25.234375,-14.15625
1695602038889,0.0056152344,-0.8911743,-0.38287354,3.28125,19.703125,-8.5625
1695602038932,0.05517578,-0.8665161,-0.3916626,6.515625,19.21875,-3.375
1695602038966,0.11303711,-0.9170532,-0.37774658,4.125,5.875,7.578125
1695602039009,0.11791992,-0.80792236,-0.3953247,5.65625,-4.234375,12.65625
1695602039044,-0.049560547,-0.756897,-0.3682251,11.421875,-3.28125,15.578125
1695602039090,-0.15454102,-0.71051025,-0.42510986,7.21875,-9.75,8.78125
1695602039122,-0.079833984,-0.9624634,-0.5166626,11.265625,-12.828125,0.21875
1695602039171,0.18481445,-1.4085083,-0.37774658,6.0625,-21.921875,-3.875
1695602039203,0.3466797,-1.3106079,-0.3381958,-6.796875,-10.640625,16.484375
1695602039253,-0.052001953,-0.9924927,-0.348938,-21.265625,-9.765625,14.53125
1695602039280,-0.17822266,-0.7341919,-0.3345337,-14.0,-2.703125,-7.171875
1695602039325,0.14160156,-0.70635986,-0.31622314,4.84375,6.8125,-23.0625
1695602039358,0.42749023,-0.9817505,-0.27960205,0.75,-1.59375,-13.578125
1695602039404,0.34521484,-0.8040161,-0.25274658,-11.96875,-11.09375,4.8125
1695602039440,0.17041016,-0.6358032,-0.22857666,0.109375,-8.515625,10.265625
1695602039481,0.05493164,-0.8357544,-0.20953369,12.03125,-6.125,-2.453125
1695602039517,0.12792969,-0.89263916,-0.1765747,11.640625,2.796875,-4.28125
1695602039560,0.1640625,-0.8850708,-0.1921997,4.265625,13.453125,0.84375
1695602039602,0.059570312,-1.0349731,-0.24346924,0.359375,28.203125,-6.65625
1695602039640,-0.12915039,-1.1934204,-0.5401001,-2.53125,29.71875,-17.890625
1695602039673,0.018310547,-0.95928955,-0.50494385,-0.09375,19.65625,-16.203125
1695602039729,0.095214844,-0.96173096,-0.40020752,4.671875,23.546875,-2.75
1695602039768,0.15258789,-1.0193481,-0.40679932,-1.6875,10.71875,9.15625
1695602039798,0.02709961,-0.7554321,-0.41046143,-7.390625,-6.265625,13.5625
1695602039887,-0.16796875,-0.6543579,-0.3723755,7.4375,-4.71875,15.484375
1695602039893,-0.13354492,-0.7136841,-0.43218994,6.84375,-8.9375,9.3125
1695602039920,0.041992188,-0.7647095,-0.50445557,6.03125,-22.90625,4.234375
1695602039956,0.16259766,-1.2925415,-0.39093018,9.296875,-32.859375,-0.734375
1695602040008,0.26708984,-1.4539185,-0.300354,-1.40625,-17.453125,18.609375
1695602040040,-0.04663086,-0.99420166,-0.31329346,-20.484375,-7.046875,17.859375
1695602040080,-0.11645508,-0.7588501,-0.33380127,-12.296875,-2.34375,-1.71875
1695602040113,0.14135742,-0.64849854,-0.32037354,9.25,5.09375,-19.140625
1695602040158,0.50097656,-1.0169067,-0.34503174,7.796875,-6.078125,-16.53125
1695602040190,0.5041504,-0.9866333,-0.28253174,-14.296875,-15.9375,11.25
1695602040236,0.23364258,-0.7190552,-0.21759033,-8.328125,-13.296875,17.5
1695602040270,-0.0026855469,-0.82403564,-0.17974854,-6.890625,-13.3125,-3.84375
1695602040314,-0.028564453,-0.8171997,-0.113342285,1.796875,8.8125,-12.90625
1695602040350,0.10107422,-0.7373657,-0.16558838,1.515625,22.203125,-6.828125
1695602040397,0.1809082,-0.91534424,-0.2234497,4.546875,26.09375,-10.78125
1695602040431,0.09326172,-1.2085571,-0.35992432,-0.25,23.6875,-16.859375
1695602040474,-0.01586914,-1.149231,-0.4265747,6.625,27.609375,-15.21875
1695602040505,0.03100586,-0.8933716,-0.39630127,3.34375,23.375,-6.75
1695602040551,0.025390625,-0.79766846,-0.3875122,1.46875,23.0625,2.78125
1695602040589,0.12011719,-0.8320923,-0.4360962,-1.765625,4.890625,4.578125
1695602040629,0.059814453,-0.82159424,-0.41949463,5.765625,-6.140625,8.1875
1695602040664,0.011474609,-0.880188,-0.3418579,12.078125,-9.890625,9.140625
1695602040710,-0.018554688,-0.83673096,-0.42633057,8.625,-17.34375,11.28125
1695602040741,-0.06591797,-0.8208618,-0.42510986,3.125,-32.265625,14.578125
1695602040790,-0.10449219,-0.9849243,-0.49468994,0.0,-40.25,7.859375
1695602040823,0.13891602,-1.3184204,-0.3008423,15.671875,-22.609375,-0.375
1695602040872,0.45141602,-1.3171997,-0.37652588,-12.390625,-17.0,12.703125
1695602040906,-0.0146484375,-0.9199829,-0.30230713,-21.1875,-15.34375,10.890625
1695602040945,-0.072265625,-0.65997314,-0.2793579,-11.46875,-7.453125,-7.0
1695602040981,0.17626953,-0.74835205,-0.3135376,5.53125,-1.25,-17.21875
1695602041024,0.43652344,-0.95025635,-0.27130127,-1.6875,-11.5625,-11.078125
1695602041057,0.4177246,-0.895813,-0.222229,-12.03125,-17.5625,7.390625
1695602041114,0.27783203,-0.82891846,-0.1375122,-4.046875,-16.0,11.109375
1695602041146,0.048095703,-0.8743286,-0.10772705,-0.3125,-5.0625,-4.71875
1695602041184,0.009521484,-0.82354736,-0.11553955,2.78125,16.765625,-7.71875
1695602041225,0.107666016,-0.78570557,-0.14801025,4.34375,26.859375,-8.859375
1695602041262,0.2175293,-0.97369385,-0.23736572,5.78125,25.40625,-12.75
1695602041309,0.08105469,-1.2329712,-0.4199829,2.515625,32.46875,-7.90625
1695602041339,0.22753906,-1.1856079,-0.40142822,3.765625,19.21875,-1.046875
1695602041384,0.14257812,-0.8518677,-0.2300415,1.859375,14.375,3.859375
1695602041417,0.06274414,-0.7463989,-0.29962158,6.6875,20.9375,10.796875
1695602041463,-0.052490234,-0.6445923,-0.43389893,1.34375,9.8125,12.421875
1695602041500,-0.047607422,-0.68048096,-0.458313,12.046875,7.59375,5.328125
1695602041540,-0.005859375,-1.0244751,-0.40118408,16.203125,8.296875,5.734375
1695602041573,0.092041016,-1.0547485,-0.4192505,12.0,7.171875,12.0625
1695602041620,0.020751953,-0.9212036,-0.49053955,-4.6875,-13.40625,11.03125
1695602041653,0.1315918,-0.86431885,-0.4512329,-0.65625,-24.0625,3.1875
1695602041699,0.36157227,-1.3150024,-0.31036377,9.625,-10.828125,-0.5
1695602041734,0.21899414,-1.0767212,-0.40509033,-14.03125,-19.078125,12.59375
1695602041779,0.10571289,-0.8518677,-0.3237915,-15.234375,-8.90625,2.21875
1695602041814,0.10546875,-0.7737427,-0.27178955,-11.5625,-6.078125,-15.90625
1695602041858,0.25317383,-0.8694458,-0.2654419,-2.6875,2.046875,-22.15625
1695602041890,0.33642578,-0.8513794,-0.24786377,-6.078125,2.6875,-11.3125
1695602041935,0.32763672,-0.67633057,-0.25494385,-2.234375,-3.984375,8.234375
1695602041969,0.14697266,-0.6655884,-0.23150635,5.71875,-4.21875,9.421875
1695602042017,0.05029297,-0.8670044,-0.20562744,14.40625,1.5625,-2.3125
1695602042046,0.18725586,-0.9529419,-0.19415283,12.59375,13.3125,-0.265625
1695602042092,0.23486328,-1.0610962,-0.3027954,3.078125,19.0625,-6.671875
1695602042126,0.18066406,-1.1548462,-0.42095947,-4.703125,20.578125,-14.546875
1695602042172,0.0793457,-1.142395,-0.45391846,0.796875,21.328125,-14.6875
1695602042204,0.046875,-0.9326782,-0.3484497,-0.046875,24.046875,-9.75
1695602042249,-0.017822266,-0.81085205,-0.41192627,-2.59375,27.828125,-4.65625
1695602042286,0.017822266,-0.677063,-0.4619751,-7.0625,9.203125,-1.28125
1695602042329,0.0026855469,-0.65753174,-0.41290283,7.53125,-8.203125,0.484375
1695602042364,0.016601562,-0.9246216,-0.38189697,19.1875,-10.4375,4.828125
1695602042417,0.056640625,-0.90875244,-0.43634033,6.296875,-25.921875,10.5
1695602042441,-0.0063476562,-0.8296509,-0.4776001,-3.1875,-39.203125,7.15625
1695602042486,-0.03173828,-1.0130005,-0.4414673,3.328125,-44.453125,1.515625
1695602042531,0.3083496,-1.4607544,-0.253479,7.84375,-22.390625,0.546875
1695602042565,0.15258789,-1.076477,-0.40582275,-22.875,-23.046875,15.859375
1695602042613,-0.14990234,-0.74957275,-0.3430786,-12.53125,-13.171875,2.796875
1695602042644,0.08618164,-0.61676025,-0.29107666,4.8125,-6.0,-18.46875
1695602042689,0.34838867,-0.91412354,-0.3411255,13.234375,-6.515625,-20.28125
1695602042723,0.43359375,-1.0195923,-0.24713135,-7.921875,-16.546875,-2.6875
1695602042767,0.16992188,-0.71539307,-0.25006104,-1.453125,-12.609375,14.578125
1695602042807,0.07348633,-0.70269775,-0.1663208,9.515625,-7.3125,0.03125
1695602042846,0.05053711,-0.7407837,-0.14776611,9.703125,13.265625,-7.609375
1695602042880,0.11352539,-0.8718872,-0.24884033,1.203125,28.90625,-6.09375
1695602042925,0.07080078,-1.2356567,-0.456604,-0.828125,28.8125,-25.921875
1695602042959,0.061035156,-1.2612915,-0.4915161,5.171875,23.234375,-21.625
1695602043003,0.1274414,-0.9126587,-0.3862915,7.03125,19.671875,-3.359375
1695602043036,0.024658203,-0.67926025,-0.4265747,7.46875,23.328125,8.984375
1695602043082,0.107910156,-0.5432739,-0.52178955,-1.34375,-4.6875,5.71875
1695602043117,0.11035156,-0.6651001,-0.4343872,18.40625,-11.984375,4.40625
1695602043162,-0.08276367,-1.0877075,-0.46588135,9.46875,-16.15625,9.875
1695602043193,-0.046142578,-0.99346924,-0.5444946,-5.03125,-31.3125,7.125
1695602043239,0.021972656,-0.9492798,-0.45587158,-5.0,-31.296875,1.0625
1695602043273,0.2626953,-1.2988892,-0.3399048,-1.234375,-21.4375,0.828125
1695602043321,0.107421875,-1.1863403,-0.3994751,-16.015625,-22.859375,10.265625
1695602043352,-0.049560547,-0.8713989,-0.33599854,-10.046875,-8.1875,-0.40625
1695602043397,0.16235352,-0.5964966,-0.32891846,-3.734375,-13.5,-16.140625
1695602043438,0.32202148,-0.769104,-0.24761963,2.328125,-8.296875,-12.75
1695602043476,0.22924805,-0.9656372,-0.21612549,-6.59375,-9.421875,1.96875
1695602043511,0.092041016,-0.81256104,-0.19366455,-4.5,-5.390625,8.359375
1695602043555,0.1418457,-0.66900635,-0.17315674,5.171875,3.890625,3.375
1695602043591,0.095458984,-0.7029419,-0.24664307,-0.859375,16.265625,-6.171875
1695602043635,0.0036621094,-1.0620728,-0.3904419,-2.90625,24.34375,-14.125
1695602043690,0.06933594,-1.2747192,-0.49371338,4.65625,24.375,-19.59375
1695602043711,0.20825195,-1.1089478,-0.37921143,2.046875,24.921875,-7.296875
1695602043747,-0.053710938,-0.89312744,-0.39678955,4.046875,25.5,0.078125
1695602043791,0.057861328,-0.63531494,-0.4121704,-1.171875,6.421875,7.84375
1695602043825,0.118652344,-0.57525635,-0.43121338,7.75,-3.421875,7.828125
