timestamp,accel_x,accel_y,accel_z,gyro_x,gyro_y,gyro_z,mag_x,mag_y,mag_z
1695752250561,-1.0078125,0.15429688,-0.20800781,-0.21875,-0.5,-0.53125,0.0,0.0,0.0
1695752250601,-1.0087891,0.15332031,-0.20996094,0.09375,-0.125,-0.15625,-29.25,7.5625,-45.1875
1695752250641,-1.0136719,0.15820312,-0.20117188,0.46875,0.125,-0.28125,0.0,0.0,0.0
1695752250681,-1.0166016,0.15722656,-0.20605469,0.15625,-0.125,-0.15625,0.0,0.0,0.0
1695752250721,-1.0126953,0.14746094,-0.18554688,0.03125,-0.125,-0.34375,0.0,0.0,0.0
1695752250761,-1.0224609,0.15332031,-0.19238281,-0.21875,0.0,-0.59375,0.0,0.0,0.0
1695752250801,-1.0087891,0.15332031,-0.20019531,-0.15625,-0.125,-0.65625,0.0,0.0,0.0
1695752250841,-1.0087891,0.15527344,-0.18457031,-0.34375,0.0,-0.46875,0.0,0.0,0.0
1695752250881,-1.0136719,0.14746094,-0.20605469,-0.09375,0.0625,-0.46875,0.0,0.0,0.0
1695752250921,-1.0146484,0.16015625,-0.20703125,-0.15625,0.0,-0.53125,0.0,0.0,0.0
1695752250961,-1.0146484,0.15527344,-0.19824219,0.09375,0.0,-0.46875,0.0,0.0,0.0
1695752251001,-1.0087891,0.14453125,-0.203125,0.15625,0.1875,-0.40625,0.0,0.0,0.0
1695752251041,-1.0136719,0.15429688,-0.19726562,0.15625,0.1875,-0.40625,0.0,0.0,0.0
1695752251081,-1.0078125,0.15136719,-0.19238281,-0.09375,0.25,-0.46875,-28.9375,8.125,-44.1875
1695752251121,-1.0097656,0.15039062,-0.19824219,-0.21875,0.125,-0.34375,0.0,0.0,0.0
1695752251161,-1.0126953,0.15332031,-0.20703125,0.03125,0.3125,-0.28125,0.0,0.0,0.0
1695752251201,-0.9970703,0.15039062,-0.20703125,-0.28125,0.125,-0.46875,0.0,0.0,0.0
1695752251241,-1.0136719,0.15429688,-0.19921875,-0.15625,0.125,-0.59375,0.0,0.0,0.0
1695752251281,-1.0019531,0.14648438,-0.21191406,-0.75,-0.0625,-0.34375,0.0,0.0,0.0
1695752251321,-1.0078125,0.14941406,-0.21582031,-0.09375,0.0625,-0.40625,0.0,0.0,0.0
1695752251361,-1.0029297,0.14941406,-0.20800781,0.09375,0.34375,-0.59375,0.0,0.0,0.0
1695752251401,-1.0166016,0.15722656,-0.21289062,0.09375,0.0,-0.15625,0.0,0.0,0.0
1695752251441,-1.015625,0.15039062,-0.20703125,-0.4375,-0.0625,-0.78125,0.0,0.0,0.0
1695752251481,-1.0166016,0.14453125,-0.20996094,-0.5625,0.0,-0.40625,0.0,0.0,0.0
1695752251521,-1.0068359,0.14550781,-0.19140625,0.28125,0.3125,-0.15625,0.0,0.0,0.0
1695752251561,-1.0117188,0.15625,-0.18945312,-0.03125,0.3125,-0.09375,0.0,0.0,0.0
1695752251601,-1.0097656,0.15332031,-0.20214844,0.03125,0.1875,-0.15625,-29.25,7.8125,-43.875
1695752251641,-1.0205078,0.15039062,-0.203125,-0.09375,0.3125,-0.59375,0.0,0.0,0.0
1695752251681,-1.0146484,0.15429688,-0.20800781,-0.21875,0.0,-0.53125,0.0,0.0,0.0
1695752251721,-1.0058594,0.14453125,-0.19628906,-0.34375,0.125,-0.40625,0.0,0.0,0.0
1695752251761,-1.0136719,0.15527344,-0.20214844,-0.09375,0.1875,-0.40625,0.0,0.0,0.0
1695752251801,-1.0117188,0.14648438,-0.19824219,-0.15625,0.3125,-0.15625,0.0,0.0,0.0
1695752251841,-1.0205078,0.15332031,-0.19921875,-0.28125,-0.0625,-0.40625,0.0,0.0,0.0
1695752251881,-1.0039062,0.14648438,-0.20605469,-0.15625,0.0,-0.53125,0.0,0.0,0.0
1695752251921,-1.0185547,0.15234375,-0.203125,-0.03125,0.125,-0.15625,0.0,0.0,0.0
1695752251961,-1.0146484,0.15234375,-0.20214844,0.71875,0.0625,-0.34375,0.0,0.0,0.0
1695752252001,-1.0,0.16210938,-0.21191406,0.40625,-0.125,-0.28125,0.0,0.0,0.0
1695752252041,-1.0166016,0.16015625,-0.20019531,0.28125,-0.1875,-0.40625,0.0,0.0,0.0
1695752252081,-1.0107422,0.15136719,-0.19824219,-0.34375,-0.25,-0.21875,-28.8125,6.625,-44.3125
1695752252121,-1.0097656,0.15722656,-0.19824219,-0.4375,-0.0625,-0.03125,0.0,0.0,0.0
1695752252161,-1.0078125,0.15429688,-0.20117188,-0.5625,0.0625,-0.28125,0.0,0.0,0.0
1695752252201,-1.0087891,0.16210938,-0.19433594,0.03125,0.1875,-0.40625,0.0,0.0,0.0
1695752252241,-1.0117188,0.15332031,-0.18847656,0.21875,0.125,-0.53125,0.0,0.0,0.0
1695752252281,-1.0097656,0.15039062,-0.19335938,0.21875,0.0625,-0.46875,0.0,0.0,0.0
1695752252321,-1.015625,0.15820312,-0.18945312,0.65625,0.25,-0.28125,0.0,0.0,0.0
1695752252361,-1.0185547,0.15234375,-0.20605469,0.84375,0.3125,-0.09375,0.0,0.0,0.0
1695752252401,-1.0087891,0.15820312,-0.19433594,0.40625,0.25,-0.21875,0.0,0.0,0.0
1695752252441,-1.0117188,0.15429688,-0.18652344,0.40625,0.3125,-0.21875,0.0,0.0,0.0
1695752252481,-1.0175781,0.15625,-0.19824219,0.09375,0.3125,-0.21875,-28.625,5.75,-43.875
1695752252521,-1.015625,0.15527344,-0.1953125,0.03125,0.125,-0.21875,0.0,0.0,0.0
1695752252561,-1.0087891,0.15625,-0.19335938,0.28125,0.25,-0.40625,0.0,0.0,0.0
1695752252601,-1.0048828,0.15527344,-0.19628906,-0.28125,0.125,-0.15625,0.0,0.0,0.0
1695752252641,-1.0058594,0.15332031,-0.2109375,-0.28125,0.3125,-0.34375,0.0,0.0,0.0
1695752252681,-1.0205078,0.15527344,-0.21191406,-0.03125,0.40625,-0.03125,0.0,0.0,0.0
1695752252721,-1.0117188,0.15136719,-0.1953125,0.03125,0.25,-0.34375,0.0,0.0,0.0
1695752252761,-1.0078125,0.15332031,-0.19628906,-0.28125,0.1875,-0.40625,0.0,0.0,0.0
1695752252801,-1.0117188,0.15039062,-0.20117188,-0.21875,0.1875,-0.65625,0.0,0.0,0.0
1695752252841,-1.015625,0.15625,-0.20800781,-0.8125,0.0625,-0.40625,0.0,0.0,0.0
1695752252881,-1.0078125,0.14648438,-0.20410156,-0.15625,0.125,-0.53125,0.0,0.0,0.0
1695752252921,-1.0097656,0.16308594,-0.20800781,0.09375,0.25,-0.46875,0.0,0.0,0.0
1695752252961,-1.015625,0.15429688,-0.20605469,-0.03125,0.3125,-0.34375,-28.8125,6.625,-44.3125
1695752253001,-1.0068359,0.14746094,-0.21582031,-0.21875,0.1875,-0.15625,0.0,0.0,0.0
1695752253041,-1.0146484,0.15332031,-0.20117188,0.21875,0.25,-0.28125,0.0,0.0,0.0
1695752253081,-1.0166016,0.15429688,-0.18652344,0.34375,0.1875,-0.59375,0.0,0.0,0.0
1695752253121,-1.0107422,0.16015625,-0.19824219,0.15625,0.25,-0.21875,0.0,0.0,0.0
1695752253161,-1.0068359,0.15429688,-0.203125,-0.03125,0.40625,-0.21875,0.0,0.0,0.0
1695752253201,-1.0078125,0.14160156,-0.19921875,-0.4375,0.3125,-0.21875,0.0,0.0,0.0
1695752253241,-1.0136719,0.14648438,-0.20410156,0.03125,0.34375,-0.46875,0.0,0.0,0.0
1695752253281,-1.0117188,0.15136719,-0.19238281,-0.34375,0.0625,-0.71875,0.0,0.0,0.0
1695752253321,-1.0078125,0.14746094,-0.20703125,-0.5,-0.0625,-0.65625,0.0,0.0,0.0
1695752253361,-1.015625,0.1484375,-0.20117188,0.15625,0.1875,-0.40625,0.0,0.0,0.0
1695752253401,-1.0234375,0.14746094,-0.21484375,0.9375,0.125,-0.34375,0.0,0.0,0.0
1695752253441,-1.0175781,0.15625,-0.203125,0.71875,0.125,-0.21875,0.0,0.0,0.0
1695752253481,-1.0087891,0.16308594,-0.20019531,0.40625,0.0625,-0.34375,-28.8125,7.25,-45.0625
1695752253521,-1.0039062,0.15917969,-0.19824219,-0.40625,0.125,-0.40625,0.0,0.0,0.0
1695752253561,-1.0126953,0.15332031,-0.20507812,-0.28125,0.125,-0.28125,0.0,0.0,0.0
1695752253601,-1.0097656,0.15332031,-0.19335938,-0.34375,0.1875,-0.34375,0.0,0.0,0.0
1695752253641,-1.0068359,0.14941406,-0.1875,-0.34375,0.125,-0.34375,0.0,0.0,0.0
1695752253681,-1.0117188,0.1484375,-0.20507812,-0.5,0.0625,-0.46875,0.0,0.0,0.0
1695752253721,-1.0068359,0.15136719,-0.19824219,-0.28125,0.125,-0.40625,0.0,0.0,0.0
1695752253761,-1.0205078,0.15136719,-0.203125,-0.21875,0.25,-0.34375,0.0,0.0,0.0
1695752253801,-1.0195312,0.15429688,-0.1875,0.28125,0.1875,-0.21875,0.0,0.0,0.0
1695752253841,-1.0097656,0.15136719,-0.2109375,-0.03125,0.1875,-0.28125,0.0,0.0,0.0
1695752253881,-1.0117188,0.15332031,-0.20800781,0.46875,0.1875,-0.34375,0.0,0.0,0.0
1695752253921,-1.0185547,0.1484375,-0.20117188,0.15625,0.1875,-0.34375,0.0,0.0,0.0
1695752253961,-1.0166016,0.15136719,-0.19824219,0.21875,0.1875,-0.53125,-28.9375,8.5625,-43.4375
1695752254001,-1.0097656,0.15136719,-0.2109375,0.09375,0.0625,-0.59375,0.0,0.0,0.0
1695752254041,-1.0087891,0.15527344,-0.20507812,-0.09375,0.0,-0.28125,0.0,0.0,0.0
1695752254081,-1.0195312,0.15136719,-0.19335938,-0.40625,0.125,-0.53125,0.0,0.0,0.0
1695752254121,-1.0068359,0.14453125,-0.20117188,-0.4375,0.0,-0.40625,0.0,0.0,0.0
1695752254161,-1.0068359,0.15234375,-0.18652344,-0.4375,0.125,-0.53125,0.0,0.0,0.0
1695752254201,-1.0058594,0.16210938,-0.19433594,-0.34375,0.1875,-0.34375,0.0,0.0,0.0
1695752254241,-1.0019531,0.15234375,-0.19628906,-0.4375,0.1875,0.03125,0.0,0.0,0.0
1695752254281,-1.0126953,0.14257812,-0.19238281,-0.03125,0.1875,-0.15625,0.0,0.0,0.0
1695752254321,-1.0107422,0.15625,-0.19140625,0.09375,0.0,-0.78125,0.0,0.0,0.0
1695752254361,-1.0097656,0.15625,-0.20019531,-0.15625,-0.0625,-0.65625,0.0,0.0,0.0
1695752254401,-1.0126953,0.14648438,-0.20117188,-0.15625,0.0625,-0.34375,0.0,0.0,0.0
1695752254441,-1.0117188,0.15429688,-0.18652344,0.03125,0.0625,-0.40625,0.0,0.0,0.0
1695752254481,-1.0195312,0.15820312,-0.18847656,0.03125,0.1875,-0.40625,0.0,0.0,0.0
1695752254521,-1.0136719,0.15527344,-0.19628906,-0.4375,0.3125,-0.46875,0.0,0.0,0.0
1695752254561,-1.0146484,0.15625,-0.21191406,-0.5625,0.34375,-0.34375,0.0,0.0,0.0
1695752254601,-1.0195312,0.13769531,-0.19335938,-0.15625,0.34375,-0.40625,0.0,0.0,0.0
1695752254641,-1.0126953,0.14648438,-0.18945312,0.09375,0.34375,-0.34375,0.0,0.0,0.0
1695752254681,-1.0107422,0.14160156,-0.18457031,0.46875,0.1875,-0.46875,0.0,0.0,0.0
1695752254721,-1.0078125,0.14941406,-0.19238281,0.46875,0.125,-0.34375,0.0,0.0,0.0
1695752254761,-1.0126953,0.15332031,-0.19140625,0.65625,0.125,-0.46875,0.0,0.0,0.0
1695752254801,-1.0097656,0.16210938,-0.18554688,0.46875,0.3125,-0.34375,0.0,0.0,0.0
1695752254841,-1.0087891,0.15136719,-0.18847656,-0.03125,0.1875,-0.28125,-28.375,6.9375,-44.0
1695752254881,-1.0146484,0.14941406,-0.19921875,-0.15625,0.53125,-0.03125,0.0,0.0,0.0
1695752254921,-1.0117188,0.14257812,-0.19726562,-0.09375,0.40625,-0.21875,0.0,0.0,0.0
1695752254961,-1.0166016,0.15136719,-0.20214844,0.09375,0.3125,-0.28125,0.0,0.0,0.0
1695752255001,-1.0234375,0.14746094,-0.19921875,0.09375,0.34375,-0.28125,0.0,0.0,0.0
1695752255041,-1.0107422,0.15332031,-0.19335938,0.15625,0.40625,-0.28125,0.0,0.0,0.0
1695752255081,-1.0224609,0.14453125,-0.19824219,0.40625,0.34375,-0.21875,0.0,0.0,0.0
1695752255121,-1.0087891,0.15234375,-0.203125,0.40625,0.3125,-0.28125,0.0,0.0,0.0
1695752255161,-1.0107422,0.1484375,-0.20214844,0.53125,0.125,-0.21875,0.0,0.0,0.0
1695752255201,-1.0068359,0.14550781,-0.18847656,0.40625,0.25,-0.40625,0.0,0.0,0.0
1695752255241,-1.0205078,0.15527344,-0.19726562,0.78125,0.125,-0.21875,0.0,0.0,0.0
1695752255281,-1.0107422,0.16601562,-0.19628906,0.21875,0.25,-0.34375,0.0,0.0,0.0
1695752255321,-1.0087891,0.15332031,-0.19824219,-0.15625,0.125,-0.34375,-28.1875,6.8125,-44.4375
1695752255361,-1.0195312,0.15722656,-0.20605469,-0.40625,0.25,-0.46875,0.0,0.0,0.0
1695752255401,-1.0068359,0.15039062,-0.20117188,-0.625,0.25,-0.40625,0.0,0.0,0.0
1695752255441,-1.015625,0.14941406,-0.20703125,-0.40625,0.25,-0.28125,0.0,0.0,0.0
1695752255481,-1.0185547,0.15039062,-0.19140625,-0.21875,0.25,-0.09375,0.0,0.0,0.0
1695752255521,-1.0107422,0.15625,-0.18652344,0.03125,0.3125,-0.15625,0.0,0.0,0.0
1695752255561,-1.0097656,0.140625,-0.19726562,0.21875,0.34375,-0.34375,0.0,0.0,0.0
1695752255601,-1.015625,0.15625,-0.2109375,0.46875,0.3125,-0.34375,0.0,0.0,0.0
1695752255641,-1.0126953,0.14160156,-0.20117188,0.03125,0.0625,-0.59375,0.0,0.0,0.0
1695752255681,-1.0048828,0.15429688,-0.20019531,-0.21875,0.0625,-0.40625,0.0,0.0,0.0
1695752255721,-1.0117188,0.14941406,-0.20019531,0.03125,0.1875,-0.53125,0.0,0.0,0.0
1695752255761,-1.0068359,0.14648438,-0.18652344,-0.15625,0.0625,-0.53125,0.0,0.0,0.0
1695752255801,-1.0058594,0.1484375,-0.21484375,-0.5625,-0.125,-0.59375,0.0,0.0,0.0
1695752255841,-1.0185547,0.15136719,-0.20507812,-0.09375,0.0,-0.34375,-29.875,6.9375,-45.0625
1695752255881,-1.0205078,0.140625,-0.20800781,0.28125,0.0625,-0.46875,0.0,0.0,0.0
1695752255921,-1.0117188,0.14550781,-0.1953125,-0.03125,0.0625,-0.40625,0.0,0.0,0.0
1695752255961,-1.0166016,0.15429688,-0.19726562,-0.09375,0.0,-0.46875,0.0,0.0,0.0
1695752256001,-1.0068359,0.15039062,-0.20019531,-0.28125,0.0,-0.34375,0.0,0.0,0.0
1695752256041,-1.0097656,0.15136719,-0.20703125,-0.40625,0.0625,-0.40625,0.0,0.0,0.0
1695752256081,-1.0097656,0.14160156,-0.20898438,-0.15625,0.125,-0.28125,0.0,0.0,0.0
1695752256121,-1.0185547,0.14355469,-0.18945312,-0.09375,-0.125,-0.28125,0.0,0.0,0.0
1695752256161,-1.0136719,0.14648438,-0.19140625,-0.15625,-0.0625,-0.65625,0.0,0.0,0.0
1695752256201,-1.0136719,0.14941406,-0.20117188,0.21875,0.0,-0.59375,0.0,0.0,0.0
1695752256241,-1.0126953,0.15820312,-0.20019531,0.15625,0.0625,-0.40625,0.0,0.0,0.0
1695752256281,-1.0185547,0.15039062,-0.20410156,-0.09375,0.125,-0.09375,0.0,0.0,0.0
1695752256321,-1.015625,0.15136719,-0.203125,0.15625,0.25,-0.40625,-28.9375,6.0625,-43.4375
1695752256361,-1.0019531,0.15332031,-0.18457031,-0.40625,-0.0625,-0.34375,0.0,0.0,0.0
1695752256401,-1.0146484,0.14746094,-0.203125,-0.34375,0.0,-0.28125,0.0,0.0,0.0
1695752256441,-1.0048828,0.14941406,-0.19726562,-0.34375,0.0625,-0.28125,0.0,0.0,0.0
1695752256481,-1.0078125,0.14648438,-0.19726562,-0.6875,0.125,0.09375,0.0,0.0,0.0
1695752256521,-1.015625,0.15039062,-0.20214844,-0.15625,0.34375,-0.34375,0.0,0.0,0.0
1695752256561,-1.0175781,0.15234375,-0.19921875,-0.40625,-0.0625,-0.15625,0.0,0.0,0.0
1695752256601,-1.0097656,0.15136719,-0.19140625,-0.15625,-0.0625,-0.46875,0.0,0.0,0.0
1695752256641,-1.015625,0.15332031,-0.19824219,-0.5,-0.0625,-0.46875,0.0,0.0,0.0
1695752256681,-1.0244141,0.14746094,-0.19628906,-0.09375,-0.0625,-0.09375,0.0,0.0,0.0
1695752256721,-1.0146484,0.15136719,-0.1953125,-0.03125,0.0,-0.09375,0.0,0.0,0.0
1695752256761,-1.0136719,0.14941406,-0.20117188,0.875,0.0625,-0.15625,0.0,0.0,0.0
1695752256801,-1.0195312,0.1484375,-0.19238281,-0.09375,-0.125,-0.09375,0.0,0.0,0.0
1695752256841,-1.0078125,0.15527344,-0.20117188,-0.03125,-0.125,-0.21875,-28.375,6.1875,-44.0
1695752256881,-1.0146484,0.15039062,-0.21582031,-0.34375,0.0,-0.28125,0.0,0.0,0.0
1695752256921,-1.0107422,0.14453125,-0.20117188,-0.28125,-0.0625,-0.15625,0.0,0.0,0.0
1695752256961,-1.0136719,0.15332031,-0.19140625,-0.09375,0.25,-0.15625,0.0,0.0,0.0
1695752257001,-1.0136719,0.14648438,-0.18261719,-0.15625,0.0,0.03125,0.0,0.0,0.0
1695752257041,-1.0136719,0.14453125,-0.19433594,-0.03125,0.0,-0.21875,0.0,0.0,0.0
1695752257081,-1.0195312,0.1484375,-0.19140625,0.15625,0.25,-0.21875,0.0,0.0,0.0
1695752257121,-1.0136719,0.1484375,-0.1953125,0.03125,0.125,-0.15625,0.0,0.0,0.0
1695752257161,-1.0107422,0.14355469,-0.21386719,-0.15625,0.0625,0.15625,0.0,0.0,0.0
1695752257201,-1.0136719,0.14648438,-0.1875,0.09375,0.25,0.09375,0.0,0.0,0.0
1695752257241,-1.0136719,0.14941406,-0.19824219,-0.28125,0.0625,-0.15625,0.0,0.0,0.0
1695752257281,-1.0185547,0.13183594,-0.1796875,0.28125,0.3125,0.03125,0.0,0.0,0.0
1695752257321,-1.0185547,0.140625,-0.20214844,0.40625,0.0625,-0.28125,0.0,0.0,0.0
1695752257361,-1.0136719,0.15039062,-0.19140625,0.875,0.0,-0.28125,0.0,0.0,0.0
1695752257401,-1.0136719,0.15625,-0.18554688,0.34375,-0.1875,-0.40625,0.0,0.0,0.0
1695752257441,-1.0195312,0.14941406,-0.19433594,-0.03125,0.0,-0.28125,0.0,0.0,0.0
1695752257481,-1.0107422,0.15429688,-0.19140625,-0.03125,0.25,0.09375,0.0,0.0,0.0
1695752257521,-1.0146484,0.15429688,-0.19628906,-0.5,0.25,0.09375,0.0,0.0,0.0
1695752257561,-1.0117188,0.13867188,-0.19140625,-0.625,0.40625,0.15625,0.0,0.0,0.0
1695752257601,-1.0136719,0.13476562,-0.19042969,-0.34375,0.25,-0.15625,0.0,0.0,0.0
1695752257641,-1.0117188,0.14453125,-0.18554688,-0.09375,0.0,-0.09375,0.0,0.0,0.0
1695752257681,-1.0185547,0.140625,-0.18457031,0.40625,0.0,-0.03125,0.0,0.0,0.0
1695752257721,-1.0087891,0.15332031,-0.20117188,0.84375,0.125,-0.09375,0.0,0.0,0.0
1695752257761,-1.0087891,0.15429688,-0.19140625,0.59375,0.1875,-0.03125,0.0,0.0,0.0
1695752257801,-1.0175781,0.15332031,-0.203125,0.03125,0.125,-0.03125,0.0,0.0,0.0
1695752257841,-1.015625,0.1484375,-0.18652344,0.03125,0.3125,0.03125,0.0,0.0,0.0
1695752257881,-1.0126953,0.15039062,-0.19726562,-0.21875,0.1875,-0.09375,0.0,0.0,0.0
1695752257921,-1.0126953,0.14160156,-0.20019531,-0.03125,0.125,-0.1875,0.0,0.0,0.0
1695752257961,-1.0117188,0.13964844,-0.20117188,0.34375,0.1875,0.0625,0.0,0.0,0.0
1695752258001,-1.0097656,0.1484375,-0.203125,0.40625,0.0625,0.0625,0.0,0.0,0.0
1695752258041,-1.0107422,0.14746094,-0.20410156,0.53125,0.1875,-0.0625,0.0,0.0,0.0
1695752258081,-1.0117188,0.14453125,-0.1875,0.34375,-0.09375,0.1875,0.0,0.0,0.0
1695752258121,-1.015625,0.15234375,-0.18945312,-0.15625,0.03125,-0.125,-29.25,6.0625,-44.9375
1695752258161,-1.0146484,0.14648438,-0.18847656,-0.15625,-0.09375,-0.125,0.0,0.0,0.0
1695752258201,-1.0097656,0.13964844,-0.17578125,0.15625,0.03125,-0.1875,0.0,0.0,0.0
1695752258241,-1.0166016,0.14746094,-0.20410156,0.09375,0.0625,-0.28125,0.0,0.0,0.0
1695752258281,-1.0107422,0.15136719,-0.20117188,-0.28125,0.03125,-0.28125,0.0,0.0,0.0
1695752258321,-1.0126953,0.15234375,-0.19238281,-0.09375,0.1875,-0.0625,0.0,0.0,0.0
1695752258361,-1.0244141,0.14941406,-0.203125,-0.15625,0.1875,-0.1875,0.0,0.0,0.0
1695752258401,-1.0146484,0.14453125,-0.19628906,-0.15625,0.03125,-0.21875,0.0,0.0,0.0
1695752258441,-1.0048828,0.1484375,-0.20605469,-0.21875,0.0625,-0.40625,0.0,0.0,0.0
1695752258481,-1.015625,0.15234375,-0.20800781,-0.21875,-0.03125,-0.125,0.0,0.0,0.0
1695752258521,-1.0175781,0.13867188,-0.18554688,0.15625,0.1875,-0.0625,0.0,0.0,0.0
1695752258561,-1.0136719,0.15039062,-0.203125,0.21875,0.1875,-0.0625,0.0,0.0,0.0
1695752258601,-1.0107422,0.14941406,-0.19433594,0.15625,0.1875,0.0625,0.0,0.0,0.0
1695752258641,-1.0117188,0.14257812,-0.20117188,0.03125,0.1875,-0.125,-30.125,6.625,-43.25
1695752258681,-1.0136719,0.15136719,-0.19824219,-0.03125,0.125,-0.125,0.0,0.0,0.0
1695752258721,-1.0126953,0.14648438,-0.20605469,-0.03125,0.125,-0.1875,0.0,0.0,0.0
1695752258761,-1.0136719,0.14453125,-0.19433594,-0.28125,0.0625,-0.21875,0.0,0.0,0.0
1695752258801,-1.0166016,0.14746094,-0.18554688,-0.15625,0.125,-0.125,0.0,0.0,0.0
1695752258841,-1.0126953,0.15234375,-0.19921875,-0.28125,0.125,0.1875,0.0,0.0,0.0
1695752258881,-1.0166016,0.14550781,-0.20410156,-0.03125,0.3125,0.125,0.0,0.0,0.0
1695752258921,-1.0224609,0.14550781,-0.19628906,-0.03125,0.3125,0.0625,0.0,0.0,0.0
1695752258961,-1.0166016,0.14941406,-0.203125,-0.15625,0.03125,-0.125,0.0,0.0,0.0
1695752259001,-1.0117188,0.14648438,-0.20214844,-0.15625,0.125,-0.40625,0.0,0.0,0.0
1695752259041,-1.0087891,0.14550781,-0.18945312,0.03125,-0.03125,-0.1875,0.0,0.0,0.0
1695752259081,-1.0136719,0.14453125,-0.18945312,0.46875,-0.09375,-0.0625,0.0,0.0,0.0
1695752259121,-1.0136719,0.14941406,-0.18945312,0.53125,-0.09375,-0.125,-28.625,6.8125,-43.875
1695752259161,-1.0136719,0.15820312,-0.19628906,0.40625,-0.09375,-0.125,0.0,0.0,0.0
1695752259201,-1.0195312,0.15429688,-0.203125,0.21875,0.125,0.25,0.0,0.0,0.0
1695752259241,-1.0136719,0.14160156,-0.20703125,-0.09375,-0.03125,0.0625,0.0,0.0,0.0
1695752259281,-1.0097656,0.14648438,-0.19628906,-0.21875,-0.09375,-0.21875,0.0,0.0,0.0
1695752259321,-1.0087891,0.14453125,-0.21484375,-0.75,0.0625,-0.21875,0.0,0.0,0.0
1695752259361,-1.0146484,0.14257812,-0.20019531,-0.75,0.03125,-0.21875,0.0,0.0,0.0
1695752259401,-1.015625,0.14257812,-0.18847656,-0.40625,-0.09375,-0.34375,0.0,0.0,0.0
1695752259441,-1.0087891,0.14453125,-0.19726562,-0.09375,0.0625,-0.0625,0.0,0.0,0.0
1695752259481,-1.0039062,0.15039062,-0.203125,0.21875,0.03125,-0.0625,0.0,0.0,0.0
1695752259521,-1.0263672,0.140625,-0.19140625,0.40625,-0.21875,-0.0625,0.0,0.0,0.0
1695752259561,-1.0166016,0.14257812,-0.20703125,0.40625,0.0625,-0.1875,0.0,0.0,0.0
1695752259601,-1.0136719,0.14453125,-0.2109375,0.53125,-0.09375,0.125,0.0,0.0,0.0
1695752259641,-1.0146484,0.15429688,-0.19433594,0.03125,-0.03125,0.0625,-29.125,6.1875,-44.3125
1695752259681,-1.0126953,0.14648438,-0.19921875,-0.15625,-0.21875,-0.21875,0.0,0.0,0.0
1695752259721,-1.0107422,0.15234375,-0.20898438,-0.625,0.125,-0.34375,0.0,0.0,0.0
1695752259761,-1.0117188,0.14746094,-0.19628906,-0.5,0.03125,-0.1875,0.0,0.0,0.0
1695752259801,-1.0068359,0.14550781,-0.19238281,-0.5,0.0625,0.375,0.0,0.0,0.0
1695752259841,-1.0224609,0.13964844,-0.19921875,-0.15625,0.3125,-0.1875,0.0,0.0,0.0
1695752259881,-1.0195312,0.15527344,-0.18847656,-0.28125,-0.15625,-0.125,0.0,0.0,0.0
1695752259921,-1.0166016,0.13378906,-0.19726562,-0.28125,-0.03125,-0.0625,0.0,0.0,0.0
1695752259961,-1.0185547,0.14550781,-0.20410156,-0.15625,0.0625,-0.21875,0.0,0.0,0.0
1695752260001,-1.0087891,0.13769531,-0.18554688,0.21875,0.03125,0.0625,0.0,0.0,0.0
1695752260041,-1.0078125,0.13964844,-0.19140625,0.21875,0.125,0.1875,0.0,0.0,0.0
1695752260081,-1.0136719,0.14453125,-0.19238281,-0.09375,-0.09375,-0.21875,0.0,0.0,0.0
1695752260121,-1.015625,0.15429688,-0.1875,0.03125,0.125,-0.125,-29.875,5.875,-44.3125
1695752260161,-1.0195312,0.140625,-0.18847656,0.09375,0.3125,0.0,0.0,0.0,0.0
1695752260201,-1.0185547,0.14257812,-0.18945312,0.34375,0.1875,0.0625,0.0,0.0,0.0
1695752260241,-1.0097656,0.13867188,-0.1875,0.28125,-0.28125,-0.71875,0.0,0.0,0.0
1695752260281,-1.0146484,0.15039062,-0.19726562,-0.15625,0.03125,-0.0625,0.0,0.0,0.0
1695752260321,-1.0146484,0.140625,-0.203125,-0.34375,0.03125,-0.1875,0.0,0.0,0.0
1695752260361,-1.0107422,0.14746094,-0.19824219,-0.21875,-0.03125,0.0,0.0,0.0,0.0
1695752260401,-1.0166016,0.13769531,-0.19433594,-0.03125,0.0625,-0.0625,0.0,0.0,0.0
1695752260441,-1.0136719,0.14746094,-0.19140625,-0.03125,0.0625,-0.125,0.0,0.0,0.0
1695752260481,-1.0087891,0.13964844,-0.20800781,-0.09375,-0.09375,0.0,0.0,0.0,0.0
1695752260521,-1.0097656,0.14160156,-0.20214844,0.03125,0.125,0.125,0.0,0.0,0.0
1695752260561,-1.0146484,0.14160156,-0.19824219,0.15625,0.0625,0.25,0.0,0.0,0.0
1695752260601,-1.0117188,0.14453125,-0.203125,0.34375,0.0625,0.1875,0.0,0.0,0.0
1695752260641,-1.015625,0.15820312,-0.19824219,0.21875,0.1875,0.1875,-28.0625,7.25,-43.25
1695752260681,-1.0166016,0.15917969,-0.19238281,-0.09375,-0.03125,0.3125,0.0,0.0,0.0
1695752260721,-1.0244141,0.13574219,-0.19726562,-0.15625,0.125,0.0625,0.0,0.0,0.0
1695752260761,-1.0166016,0.15136719,-0.20507812,0.21875,0.25,0.0625,0.0,0.0,0.0
1695752260801,-1.0146484,0.14550781,-0.18261719,0.21875,0.125,0.0625,0.0,0.0,0.0
1695752260841,-1.0058594,0.15136719,-0.203125,0.21875,0.125,-0.0625,0.0,0.0,0.0
1695752260881,-1.015625,0.15136719,-0.20117188,0.21875,0.125,-0.0625,0.0,0.0,0.0
1695752260921,-1.0166016,0.14746094,-0.19726562,0.28125,0.25,0.0625,0.0,0.0,0.0
1695752260961,-1.0117188,0.15136719,-0.19238281,0.28125,0.1875,0.1875,0.0,0.0,0.0
1695752261001,-1.015625,0.14648438,-0.20996094,0.46875,0.25,0.1875,0.0,0.0,0.0
1695752261041,-1.0117188,0.1484375,-0.20507812,0.21875,0.0625,0.0625,0.0,0.0,0.0
1695752261081,-1.015625,0.15820312,-0.203125,0.15625,0.125,-0.0625,0.0,0.0,0.0
1695752261121,-1.015625,0.1484375,-0.21679688,-0.28125,0.03125,-0.1875,-28.9375,6.5,-43.875
1695752261161,-1.0175781,0.14257812,-0.21582031,-0.21875,-0.03125,-0.0625,0.0,0.0,0.0
1695752261201,-1.0029297,0.15039062,-0.19824219,-0.34375,0.0625,0.0,0.0,0.0,0.0
1695752261241,-1.0185547,0.15332031,-0.20410156,-0.34375,0.0625,0.1875,0.0,0.0,0.0
1695752261281,-1.0166016,0.14746094,-0.20703125,-0.28125,-0.09375,0.125,0.0,0.0,0.0
1695752261321,-1.0117188,0.13964844,-0.19433594,-0.03125,0.03125,-0.0625,0.0,0.0,0.0
1695752261361,-1.015625,0.14550781,-0.21289062,0.09375,0.03125,-0.1875,0.0,0.0,0.0
1695752261401,-1.0136719,0.13769531,-0.19238281,0.40625,-0.15625,-0.125,0.0,0.0,0.0
1695752261441,-1.0097656,0.15625,-0.19921875,0.34375,-0.03125,0.0625,0.0,0.0,0.0
1695752261481,-1.0214844,0.14648438,-0.20800781,-0.03125,-0.09375,0.125,0.0,0.0,0.0
1695752261521,-1.0107422,0.14453125,-0.19726562,0.09375,-0.15625,-0.1875,0.0,0.0,0.0
1695752261561,-1.0107422,0.14941406,-0.19726562,-0.28125,-0.21875,-0.21875,0.0,0.0,0.0
1695752261601,-1.0048828,0.14550781,-0.20019531,-0.46875,-0.03125,-0.125,0.0,0.0,0.0
1695752261641,-1.0136719,0.13867188,-0.19335938,-0.46875,-0.09375,0.0,-28.8125,6.625,-43.25
1695752261681,-1.0136719,0.1484375,-0.18261719,-0.28125,-0.09375,-0.21875,0.0,0.0,0.0
1695752261721,-1.0078125,0.14257812,-0.18847656,-0.40625,-0.21875,-0.125,0.0,0.0,0.0
1695752261761,-1.0224609,0.14746094,-0.18847656,0.03125,-0.15625,-0.1875,0.0,0.0,0.0
1695752261801,-1.0097656,0.14160156,-0.20996094,0.15625,-0.59375,-0.34375,0.0,0.0,0.0
1695752261841,-1.0146484,0.15136719,-0.20507812,0.46875,-0.3125,-0.40625,0.0,0.0,0.0
1695752261881,-1.0078125,0.14355469,-0.18847656,0.53125,-0.34375,0.0,0.0,0.0,0.0
1695752261921,-1.015625,0.14453125,-0.19140625,0.40625,-0.40625,0.0625,0.0,0.0,0.0
1695752261961,-1.0087891,0.14941406,-0.20214844,-0.0625,-0.0625,-0.0625,0.0,0.0,0.0
1695752262001,-1.0214844,0.14550781,-0.1875,-0.3125,-0.1875,0.0,0.0,0.0,0.0
1695752262041,-1.0097656,0.15429688,-0.1953125,-0.375,-0.25,-0.125,0.0,0.0,0.0
1695752262081,-1.0195312,0.14453125,-0.1953125,-0.75,-0.1875,-0.125,0.0,0.0,0.0
1695752262121,-1.0146484,0.15039062,-0.19726562,-0.6875,-0.25,-0.28125,-29.875,5.875,-45.0625
1695752262161,-1.0166016,0.14550781,-0.19628906,-0.5625,-0.1875,-0.125,0.0,0.0,0.0
1695752262201,-1.015625,0.140625,-0.18652344,-0.125,-0.25,-0.0625,0.0,0.0,0.0
1695752262241,-1.0166016,0.140625,-0.20605469,0.0,-0.0625,0.0,0.0,0.0,0.0
1695752262281,-1.0166016,0.15332031,-0.19921875,0.46875,-0.1875,0.0,0.0,0.0,0.0
1695752262321,-1.015625,0.14746094,-0.20507812,0.1875,-0.125,0.0625,0.0,0.0,0.0
1695752262361,-1.0146484,0.15625,-0.20214844,0.34375,-0.1875,-0.0625,0.0,0.0,0.0
1695752262401,-1.0224609,0.15429688,-0.19238281,0.0625,-0.1875,0.0,0.0,0.0,0.0
1695752262441,-1.0107422,0.15429688,-0.19628906,-0.125,-0.125,0.25,0.0,0.0,0.0
1695752262481,-1.0146484,0.14257812,-0.20214844,-0.5625,-0.1875,0.0625,0.0,0.0,0.0
1695752262521,-1.0185547,0.14257812,-0.19433594,-0.5,-0.125,0.0,0.0,0.0,0.0
1695752262561,-1.0117188,0.14941406,-0.18554688,-0.75,-0.125,-0.21875,0.0,0.0,0.0
1695752262601,-1.0126953,0.14160156,-0.18457031,-0.5,-0.125,-0.21875,0.0,0.0,0.0
1695752262641,-1.0136719,0.15234375,-0.20117188,-0.75,-0.0625,0.25,-28.9375,6.8125,-43.4375
1695752262681,-1.0136719,0.13476562,-0.19335938,-0.125,-0.0625,0.1875,0.0,0.0,0.0
1695752262721,-1.0185547,0.14941406,-0.20703125,0.125,-0.0625,0.0625,0.0,0.0,0.0
1695752262761,-1.0146484,0.14257812,-0.19335938,0.0625,0.0,0.0,0.0,0.0,0.0
1695752262801,-1.0039062,0.14746094,-0.19726562,0.21875,-0.0625,-0.0625,0.0,0.0,0.0
1695752262841,-1.0166016,0.14648438,-0.1796875,0.0,-0.25,-0.1875,0.0,0.0,0.0
1695752262881,-1.0068359,0.16113281,-0.19824219,0.125,-0.1875,-0.125,0.0,0.0,0.0
1695752262921,-1.0136719,0.14746094,-0.20507812,-0.5625,-0.1875,-0.125,0.0,0.0,0.0
1695752262961,-1.0146484,0.14941406,-0.20605469,-0.375,-0.125,0.0,0.0,0.0,0.0
1695752263001,-1.0146484,0.14355469,-0.18261719,-0.0625,0.0,0.125,0.0,0.0,0.0
1695752263041,-1.0136719,0.14550781,-0.19042969,-0.0625,0.0,0.0625,0.0,0.0,0.0
1695752263081,-1.0078125,0.14550781,-0.18457031,0.0625,0.0,0.125,0.0,0.0,0.0
1695752263121,-1.0175781,0.140625,-0.19726562,-0.3125,-0.125,-0.0625,-30.125,5.5625,-44.625
1695752263161,-1.0136719,0.14648438,-0.19238281,-0.0625,0.0,-0.125,0.0,0.0,0.0
1695752263201,-1.015625,0.14746094,-0.203125,-0.0625,0.0625,0.0,0.0,0.0,0.0
1695752263241,-1.0107422,0.15039062,-0.20214844,-0.125,-0.125,-0.0625,0.0,0.0,0.0
1695752263281,-1.0097656,0.14746094,-0.20019531,-0.25,-0.0625,-0.125,0.0,0.0,0.0
1695752263321,-1.0185547,0.1484375,-0.18945312,0.0,0.0,-0.1875,0.0,0.0,0.0
1695752263361,-1.0068359,0.13867188,-0.19824219,0.0625,-0.40625,-0.0625,0.0,0.0,0.0
1695752263401,-1.0068359,0.15039062,-0.21484375,0.53125,-0.125,-0.0625,0.0,0.0,0.0
1695752263441,-1.015625,0.14941406,-0.19238281,0.40625,-0.1875,-0.0625,0.0,0.0,0.0
1695752263481,-1.0136719,0.14355469,-0.19628906,-0.0625,-0.0625,-0.0625,0.0,0.0,0.0
1695752263521,-1.0117188,0.15332031,-0.19628906,-0.125,-0.1875,-0.21875,0.0,0.0,0.0
1695752263561,-1.0146484,0.14746094,-0.1953125,-0.4375,-0.125,-0.0625,0.0,0.0,0.0
1695752263601,-1.0205078,0.15136719,-0.18847656,-0.1875,0.125,0.125,0.0,0.0,0.0
1695752263641,-1.0087891,0.13769531,-0.18457031,-0.5625,0.0625,0.1875,-29.125,7.25,-43.6875
1695752263681,-1.0087891,0.14550781,-0.19335938,-0.0625,0.1875,0.1875,0.0,0.0,0.0
1695752263721,-1.015625,0.14648438,-0.19238281,-0.25,-0.1875,0.0,0.0,0.0,0.0
1695752263761,-1.0214844,0.13867188,-0.19726562,-0.125,-0.25,-0.1875,0.0,0.0,0.0
1695752263801,-1.0126953,0.13769531,-0.1796875,-0.125,-0.0625,-0.1875,0.0,0.0,0.0
1695752263841,-1.0146484,0.14453125,-0.19726562,0.40625,0.0,0.1875,0.0,0.0,0.0
1695752263881,-1.0078125,0.15429688,-0.19335938,0.40625,0.125,0.125,0.0,0.0,0.0
1695752263921,-1.0117188,0.14746094,-0.19628906,0.0625,0.0,0.0,0.0,0.0,0.0
1695752263961,-1.0126953,0.15136719,-0.18847656,-0.125,-0.0625,-0.0625,0.0,0.0,0.0
1695752264001,-1.0146484,0.14355469,-0.18066406,-0.3125,-0.1875,-0.125,0.0,0.0,0.0
1695752264041,-1.015625,0.1484375,-0.1875,-0.0625,0.1875,0.0,0.0,0.0,0.0
1695752264081,-1.0185547,0.14648438,-0.203125,-0.3125,0.0625,-0.0625,0.0,0.0,0.0
1695752264121,-1.0136719,0.15332031,-0.19238281,-0.4375,-0.0625,-0.1875,-30.0,7.0625,-44.9375
1695752264161,-1.0087891,0.13867188,-0.21386719,-0.625,-0.0625,-0.1875,0.0,0.0,0.0
1695752264201,-1.0068359,0.14160156,-0.18945312,0.0,0.0625,-0.21875,0.0,0.0,0.0
1695752264241,-1.015625,0.13964844,-0.19628906,0.0625,-0.25,-0.21875,0.0,0.0,0.0
1695752264281,-1.0166016,0.15332031,-0.19238281,0.1875,-0.0625,-0.1875,0.0,0.0,0.0
1695752264321,-1.0166016,0.15722656,-0.20507812,0.1875,-0.0625,0.0,0.0,0.0,0.0
1695752264361,-1.0126953,0.14746094,-0.19335938,0.28125,-0.0625,0.1875,0.0,0.0,0.0
1695752264401,-1.0195312,0.14648438,-0.18652344,0.125,0.125,0.25,0.0,0.0,0.0
1695752264441,-1.0136719,0.15332031,-0.18652344,-0.1875,-0.125,-0.28125,0.0,0.0,0.0
1695752264481,-1.0224609,0.15332031,-0.20019531,-0.625,-0.125,-0.40625,0.0,0.0,0.0
1695752264521,-1.0136719,0.1484375,-0.19140625,-0.625,-0.1875,-0.46875,0.0,0.0,0.0
1695752264561,-1.0185547,0.14453125,-0.203125,-0.5,-0.1875,-0.34375,0.0,0.0,0.0
1695752264601,-1.0087891,0.1484375,-0.18359375,-0.25,0.0625,0.1875,0.0,0.0,0.0
1695752264641,-1.015625,0.13671875,-0.19335938,-0.125,-0.0625,0.25,-28.8125,7.6875,-44.625
1695752264681,-1.0107422,0.14257812,-0.18652344,0.21875,0.125,-0.1875,0.0,0.0,0.0
1695752264721,-1.0117188,0.14550781,-0.18847656,0.0,-0.25,-0.0625,0.0,0.0,0.0
1695752264761,-1.0126953,0.14550781,-0.20214844,-0.0625,-0.25,-0.28125,0.0,0.0,0.0
1695752264801,-1.0068359,0.14746094,-0.203125,0.0,-0.1875,-0.1875,0.0,0.0,0.0
1695752264841,-1.015625,0.1484375,-0.18554688,0.40625,-0.125,0.0,0.0,0.0,0.0
1695752264881,-1.0078125,0.14941406,-0.20507812,0.21875,0.0625,-0.21875,0.0,0.0,0.0
1695752264921,-1.0107422,0.15332031,-0.17773438,-0.1875,-0.25,-0.125,0.0,0.0,0.0
1695752264961,-1.015625,0.14453125,-0.20605469,-0.1875,-0.1875,-0.125,0.0,0.0,0.0
1695752265001,-1.015625,0.15234375,-0.20898438,-0.25,0.0625,-0.1875,0.0,0.0,0.0
1695752265041,-1.015625,0.14941406,-0.1875,-0.3125,-0.1875,-0.1875,0.0,0.0,0.0
1695752265081,-1.0058594,0.14941406,-0.19433594,-0.5625,-0.125,-0.21875,0.0,0.0,0.0
1695752265121,-1.0078125,0.14160156,-0.19726562,-0.5625,-0.1875,-0.28125,-27.75,7.25,-43.6875
1695752265161,-1.0175781,0.14648438,-0.19140625,-0.5,-0.125,-0.1875,0.0,0.0,0.0
1695752265201,-1.0146484,0.1484375,-0.20996094,-0.125,-0.1875,-0.28125,0.0,0.0,0.0
1695752265241,-1.0175781,0.13964844,-0.1953125,-0.3125,-0.125,-0.28125,0.0,0.0,0.0
1695752265281,-1.0087891,0.14746094,-0.203125,0.0,-0.0625,-0.21875,0.0,0.0,0.0
1695752265321,-1.0185547,0.14648438,-0.19140625,-0.1875,-0.1875,-0.125,0.0,0.0,0.0
1695752265361,-1.0195312,0.15039062,-0.21777344,0.28125,-0.125,0.0,0.0,0.0,0.0
1695752265401,-1.0126953,0.14550781,-0.19140625,0.0625,-0.125,-0.125,0.0,0.0,0.0
1695752265441,-1.0185547,0.13964844,-0.21191406,-0.0625,-0.125,-0.125,0.0,0.0,0.0
1695752265481,-1.0107422,0.1484375,-0.19238281,-0.5,-0.125,-0.21875,0.0,0.0,0.0
1695752265521,-1.0029297,0.13671875,-0.19628906,-0.4375,-0.1875,-0.1875,0.0,0.0,0.0
1695752265561,-1.0234375,0.15039062,-0.19628906,-0.3125,-0.0625,-0.125,0.0,0.0,0.0
1695752265601,-1.0058594,0.14355469,-0.19726562,-0.3125,-0.125,-0.125,0.0,0.0,0.0
1695752265641,-1.0107422,0.12597656,-0.19238281,-0.75,-0.0625,-0.0625,-29.375,6.1875,-44.0
1695752265681,-1.0117188,0.15429688,-0.19433594,-0.0625,0.0625,-0.46875,0.0,0.0,0.0
1695752265721,-1.0185547,0.14160156,-0.18847656,-0.3125,-0.1875,0.0625,0.0,0.0,0.0
1695752265761,-1.0136719,0.13964844,-0.19921875,0.0,-0.0625,0.0625,0.0,0.0,0.0
1695752265801,-1.0224609,0.14550781,-0.19726562,-0.0625,0.25,0.1875,0.0,0.0,0.0
1695752265841,-1.0185547,0.13964844,-0.1875,-0.125,0.0,0.125,0.0,0.0,0.0
1695752265881,-1.015625,0.14648438,-0.18945312,-0.1875,-0.125,-0.0625,0.0,0.0,0.0
1695752265921,-1.0107422,0.13769531,-0.19824219,0.21875,-0.0625,0.0,0.0,0.0,0.0
1695752265961,-1.0136719,0.14453125,-0.19238281,0.84375,0.125,0.0625,0.0,0.0,0.0
1695752266001,-1.0146484,0.15234375,-0.19726562,0.59375,0.0625,0.0,0.0,0.0,0.0
1695752266041,-1.0195312,0.13769531,-0.18457031,-0.5625,0.0625,-0.125,0.0,0.0,0.0
1695752266081,-1.0097656,0.14550781,-0.18847656,-0.1875,0.0,0.0,0.0,0.0,0.0
1695752266121,-1.0097656,0.1484375,-0.19824219,0.125,-0.125,0.0625,0.0,0.0,0.0
1695752266161,-1.0146484,0.14550781,-0.19433594,0.1875,-0.125,-0.0625,0.0,0.0,0.0
1695752266201,-1.0097656,0.15234375,-0.18652344,0.53125,0.0,0.0625,0.0,0.0,0.0
1695752266241,-1.015625,0.1484375,-0.19335938,0.40625,0.0,0.125,0.0,0.0,0.0
1695752266281,-1.0097656,0.14746094,-0.19140625,0.0,0.0,0.0625,0.0,0.0,0.0
1695752266321,-1.0175781,0.14746094,-0.20214844,-0.125,0.0625,0.0625,0.0,0.0,0.0
1695752266361,-1.0185547,0.15039062,-0.18457031,-0.0625,0.0625,0.25,0.0,0.0,0.0
1695752266401,-1.0166016,0.15039062,-0.19238281,-0.4375,0.0625,-0.0625,0.0,0.0,0.0
1695752266441,-1.0146484,0.14941406,-0.19921875,-0.125,0.25,-0.0625,0.0,0.0,0.0
1695752266481,-1.0126953,0.13964844,-0.19824219,-0.25,-0.125,0.125,-28.9375,7.5625,-43.4375
1695752266521,-1.015625,0.15625,-0.18945312,0.21875,0.125,-0.1875,0.0,0.0,0.0
1695752266561,-1.0166016,0.15039062,-0.19238281,-0.375,-0.125,-0.0625,0.0,0.0,0.0
1695752266601,-1.0195312,0.14160156,-0.1953125,0.46875,0.125,-0.125,0.0,0.0,0.0
1695752266641,-1.0185547,0.14355469,-0.19628906,0.21875,-0.1875,-0.21875,0.0,0.0,0.0
1695752266681,-1.015625,0.1484375,-0.19628906,0.1875,0.0,-0.1875,0.0,0.0,0.0
1695752266721,-1.0166016,0.15625,-0.19140625,0.0625,-0.0625,-0.0625,0.0,0.0,0.0
1695752266761,-1.0166016,0.14453125,-0.19628906,0.21875,-0.1875,-0.125,0.0,0.0,0.0
1695752266801,-1.0166016,0.15234375,-0.1875,0.53125,0.0,0.0,0.0,0.0,0.0
1695752266841,-1.0107422,0.1484375,-0.1875,0.21875,-0.0625,-0.125,0.0,0.0,0.0
1695752266881,-1.0166016,0.15136719,-0.18164062,-0.46875,-0.0625,-0.25,0.0,0.0,0.0
1695752266921,-1.0097656,0.14648438,-0.19140625,-0.71875,-0.125,-0.375,0.0,0.0,0.0
1695752266961,-1.015625,0.14355469,-0.1953125,-0.78125,-0.0625,-0.125,-28.9375,6.5,-44.4375
1695752267001,-1.0175781,0.15039062,-0.18359375,-0.28125,0.0,-0.125,0.0,0.0,0.0
1695752267041,-1.0195312,0.140625,-0.18261719,0.03125,0.0625,-0.1875,0.0,0.0,0.0
1695752267081,-1.0117188,0.14453125,-0.18066406,-0.03125,-0.0625,-0.1875,0.0,0.0,0.0
1695752267121,-1.0146484,0.15136719,-0.18261719,-0.09375,-0.1875,-0.1875,0.0,0.0,0.0
1695752267161,-1.0273438,0.14746094,-0.18457031,0.03125,-0.1875,-0.1875,0.0,0.0,0.0
1695752267201,-1.0136719,0.14941406,-0.20214844,-0.09375,-0.1875,-0.3125,0.0,0.0,0.0
1695752267241,-1.0146484,0.15136719,-0.19628906,-0.40625,-0.25,-0.1875,0.0,0.0,0.0
1695752267281,-1.0117188,0.15234375,-0.19628906,-0.34375,-0.0625,0.0,0.0,0.0,0.0
1695752267321,-1.0214844,0.15429688,-0.18164062,-0.21875,-0.25,-0.125,0.0,0.0,0.0
1695752267361,-1.0185547,0.15234375,-0.18457031,0.125,0.0625,-0.25,0.0,0.0,0.0
1695752267401,-1.015625,0.15332031,-0.19238281,-0.03125,-0.0625,-0.3125,0.0,0.0,0.0
1695752267441,-1.015625,0.14550781,-0.19238281,-0.21875,-0.4375,-0.4375,0.0,0.0,0.0
1695752267481,-1.015625,0.14941406,-0.20703125,0.03125,-0.3125,-0.5,-28.625,6.5,-44.1875
1695752267521,-1.0097656,0.15039062,-0.1953125,0.4375,-0.125,-0.375,0.0,0.0,0.0
1695752267561,-1.0146484,0.14746094,-0.18554688,0.03125,-0.25,-0.125,0.0,0.0,0.0
1695752267601,-1.0234375,0.14257812,-0.19726562,0.25,-0.125,-0.125,0.0,0.0,0.0
1695752267641,-1.0214844,0.15136719,-0.19335938,-0.15625,-0.3125,-0.3125,0.0,0.0,0.0
1695752267681,-1.0107422,0.14160156,-0.18457031,-0.34375,-0.375,-0.1875,0.0,0.0,0.0
1695752267721,-1.0117188,0.14550781,-0.20019531,-0.40625,-0.125,-0.25,0.0,0.0,0.0
1695752267761,-1.0126953,0.15429688,-0.19335938,-0.40625,-0.1875,-0.3125,0.0,0.0,0.0
1695752267801,-1.0107422,0.14355469,-0.18945312,-0.46875,-0.25,-0.5,0.0,0.0,0.0
1695752267841,-1.015625,0.14550781,-0.18652344,-0.53125,-0.3125,-0.25,0.0,0.0,0.0
1695752267881,-1.0146484,0.13574219,-0.18652344,-0.40625,-0.25,-0.25,0.0,0.0,0.0
1695752267921,-1.0205078,0.1484375,-0.19238281,-0.09375,-0.125,-0.3125,0.0,0.0,0.0
1695752267961,-1.0097656,0.14257812,-0.18066406,-0.09375,-0.0625,-0.1875,-28.625,6.5,-42.5
1695752268001,-1.0107422,0.13964844,-0.19140625,-0.03125,-0.25,-0.125,0.0,0.0,0.0
1695752268041,-1.0195312,0.14550781,-0.18457031,-0.15625,-0.125,-0.125,0.0,0.0,0.0
1695752268081,-1.0117188,0.14648438,-0.18554688,-0.15625,-0.1875,-0.125,0.0,0.0,0.0
1695752268121,-1.015625,0.14746094,-0.18847656,-0.34375,-0.125,-0.25,0.0,0.0,0.0
1695752268161,-1.0205078,0.13476562,-0.18847656,-0.15625,0.0,0.0625,0.0,0.0,0.0
1695752268201,-1.0166016,0.15332031,-0.18261719,-0.53125,0.125,0.0,0.0,0.0,0.0
1695752268241,-1.0078125,0.140625,-0.19335938,-0.46875,-0.1875,-0.0625,0.0,0.0,0.0
1695752268281,-1.0097656,0.14746094,-0.1953125,-0.59375,-0.0625,-0.1875,0.0,0.0,0.0
1695752268321,-1.0166016,0.14257812,-0.18847656,-0.65625,-0.0625,-0.3125,0.0,0.0,0.0
1695752268361,-1.0244141,0.13769531,-0.19824219,-0.15625,-0.1875,-0.125,0.0,0.0,0.0
1695752268401,-1.0097656,0.13769531,-0.20410156,0.03125,0.0,-0.0625,0.0,0.0,0.0
1695752268441,-1.0234375,0.14746094,-0.18359375,0.0625,0.0625,-0.125,0.0,0.0,0.0
1695752268481,-1.015625,0.13671875,-0.18945312,-0.09375,-0.0625,-0.0625,-29.6875,6.5,-43.4375
1695752268521,-1.015625,0.13671875,-0.18847656,0.03125,0.0625,0.25,0.0,0.0,0.0
1695752268561,-1.0146484,0.14941406,-0.19628906,0.03125,0.1875,0.0,0.0,0.0,0.0
1695752268601,-1.0214844,0.13867188,-0.20410156,-0.03125,0.0625,0.125,0.0,0.0,0.0
1695752268641,-1.0097656,0.15722656,-0.20507812,-0.28125,-0.125,-0.1875,0.0,0.0,0.0
1695752268681,-1.0126953,0.15234375,-0.18066406,-0.28125,0.0,-0.25,0.0,0.0,0.0
1695752268721,-1.0107422,0.14257812,-0.19238281,-0.28125,0.0,-0.0625,0.0,0.0,0.0
1695752268761,-1.0087891,0.14160156,-0.19042969,-0.09375,0.0,0.125,0.0,0.0,0.0
1695752268801,-1.015625,0.14160156,-0.19628906,0.0625,0.0625,0.0625,0.0,0.0,0.0
1695752268841,-1.015625,0.15527344,-0.17382812,0.0625,0.125,-0.125,0.0,0.0,0.0
1695752268881,-1.0136719,0.14355469,-0.18847656,-0.15625,-0.0625,0.125,0.0,0.0,0.0
1695752268921,-1.0175781,0.13964844,-0.19140625,-0.03125,0.3125,0.0625,0.0,0.0,0.0
1695752268961,-1.0087891,0.14160156,-0.17675781,-0.03125,0.0,-0.1875,-28.1875,6.8125,-43.125
1695752269001,-1.0146484,0.14941406,-0.19433594,-0.15625,-0.0625,-0.125,0.0,0.0,0.0
1695752269041,-1.015625,0.14550781,-0.18847656,0.0625,0.1875,0.25,0.0,0.0,0.0
1695752269081,-1.015625,0.14453125,-0.18945312,0.03125,0.1875,0.125,0.0,0.0,0.0
1695752269121,-1.0166016,0.14257812,-0.19921875,0.0625,0.46875,0.0625,0.0,0.0,0.0
1695752269161,-1.0175781,0.15136719,-0.19238281,-0.15625,-0.0625,0.1875,0.0,0.0,0.0
1695752269201,-1.015625,0.140625,-0.18359375,-0.21875,0.0625,-0.0625,0.0,0.0,0.0
1695752269241,-1.0195312,0.14941406,-0.18359375,-0.03125,0.125,-0.1875,0.0,0.0,0.0
1695752269281,-1.0205078,0.15136719,-0.19824219,0.25,-0.0625,-0.125,0.0,0.0,0.0
1695752269321,-1.0166016,0.15527344,-0.19140625,0.125,0.1875,0.0,0.0,0.0,0.0
1695752269361,-1.0126953,0.13671875,-0.19238281,-0.03125,0.0625,0.0,0.0,0.0,0.0
1695752269401,-1.0107422,0.15234375,-0.19238281,0.125,0.0,0.125,0.0,0.0,0.0
1695752269441,-1.0292969,0.1484375,-0.19433594,0.1875,-0.0625,-0.0625,0.0,0.0,0.0
1695752269481,-1.0146484,0.15527344,-0.20019531,-0.34375,-0.125,-0.0625,-30.625,6.9375,-43.6875
1695752269521,-1.0205078,0.14453125,-0.18457031,-0.40625,-0.125,-0.1875,0.0,0.0,0.0
1695752269561,-1.0185547,0.14550781,-0.18457031,-0.40625,-0.0625,-0.1875,0.0,0.0,0.0
1695752269601,-1.0136719,0.14746094,-0.19433594,-0.09375,0.0,-0.25,0.0,0.0,0.0
1695752269641,-1.0185547,0.16015625,-0.18066406,-0.28125,-0.0625,-0.3125,0.0,0.0,0.0
1695752269681,-1.0224609,0.14257812,-0.1953125,-0.28125,-0.125,-0.1875,0.0,0.0,0.0
1695752269721,-1.0185547,0.15136719,-0.18457031,-0.03125,-0.0625,-0.125,0.0,0.0,0.0
1695752269761,-1.0097656,0.15234375,-0.17578125,0.125,-0.125,-0.1875,0.0,0.0,0.0
1695752269801,-1.0126953,0.15625,-0.18945312,0.03125,0.0,0.0,0.0,0.0,0.0
1695752269841,-1.0097656,0.15039062,-0.18164062,-0.28125,-0.25,-0.0625,0.0,0.0,0.0
1695752269881,-1.0078125,0.15234375,-0.1953125,-0.53125,-0.25,-0.375,0.0,0.0,0.0
1695752269921,-1.0117188,0.14941406,-0.19433594,-0.34375,-0.1875,-0.3125,0.0,0.0,0.0
1695752269961,-1.0166016,0.13964844,-0.19433594,-0.40625,-0.1875,-0.0625,-27.125,7.0625,-43.875
1695752270001,-1.0087891,0.15136719,-0.19238281,-0.46875,-0.0625,-0.125,0.0,0.0,0.0
1695752270041,-1.0205078,0.12988281,-0.18554688,-0.21875,0.1875,0.0,0.0,0.0,0.0
1695752270081,-1.0195312,0.14453125,-0.18359375,-0.03125,-0.3125,-0.3125,0.0,0.0,0.0
1695752270121,-1.015625,0.13769531,-0.18457031,-0.21875,-0.5,-0.53125,0.0,0.0,0.0
1695752270161,-1.0166016,0.14941406,-0.1875,-0.46875,-0.3125,-0.375,0.0,0.0,0.0
1695752270201,-1.0136719,0.14746094,-0.20410156,0.3125,-0.125,-0.0625,0.0,0.0,0.0
1695752270241,-1.0087891,0.15136719,-0.19140625,0.125,-0.25,-0.25,0.0,0.0,0.0
1695752270281,-1.0117188,0.15136719,-0.19140625,-0.15625,-0.375,-0.25,0.0,0.0,0.0
1695752270321,-1.0107422,0.14941406,-0.19238281,-0.40625,-0.25,-0.4375,0.0,0.0,0.0
1695752270361,-1.0087891,0.14941406,-0.20214844,-0.65625,-0.375,-0.125,0.0,0.0,0.0
1695752270401,-1.0107422,0.1484375,-0.20507812,-0.40625,-0.125,-0.25,0.0,0.0,0.0
1695752270441,-1.0195312,0.14453125,-0.18164062,-0.40625,-0.3125,-0.125,0.0,0.0,0.0
1695752270481,-1.0117188,0.14355469,-0.1796875,-0.65625,-0.1875,-0.0625,-30.125,6.9375,-43.25
1695752270521,-1.0166016,0.14355469,-0.19042969,-0.46875,-0.1875,-0.1875,0.0,0.0,0.0
1695752270561,-1.0136719,0.13769531,-0.19824219,-0.15625,-0.3125,-0.25,0.0,0.0,0.0
1695752270601,-1.0136719,0.14257812,-0.1875,0.03125,-0.125,-0.1875,0.0,0.0,0.0
1695752270641,-1.0117188,0.15234375,-0.17285156,-0.09375,-0.25,-0.25,0.0,0.0,0.0
1695752270681,-1.0175781,0.14453125,-0.20019531,-0.03125,-0.125,0.0,0.0,0.0,0.0
1695752270721,-1.0087891,0.14257812,-0.19140625,-0.03125,-0.125,-0.125,0.0,0.0,0.0
1695752270761,-1.0107422,0.14648438,-0.19238281,-0.03125,-0.3125,-0.125,0.0,0.0,0.0
1695752270801,-1.0146484,0.15136719,-0.20214844,-0.0625,0.03125,0.125,0.0,0.0,0.0
1695752270841,-1.0166016,0.14941406,-0.20898438,-0.0625,0.03125,0.125,0.0,0.0,0.0
1695752270881,-1.015625,0.13671875,-0.18066406,-0.1875,0.09375,0.125,0.0,0.0,0.0
1695752270921,-1.0097656,0.14453125,-0.19335938,0.125,0.15625,0.125,0.0,0.0,0.0
1695752270961,-1.0166016,0.1484375,-0.19628906,-0.25,0.09375,-0.25,-29.875,6.1875,-42.9375
1695752271001,-1.0234375,0.14257812,-0.18652344,0.125,0.15625,0.125,0.0,0.0,0.0
1695752271041,-1.0078125,0.14453125,-0.19628906,-0.25,0.03125,0.28125,0.0,0.0,0.0
1695752271081,-1.0214844,0.13769531,-0.19921875,0.21875,0.15625,0.125,0.0,0.0,0.0
1695752271121,-1.0205078,0.15136719,-0.18554688,0.59375,0.28125,0.0,0.0,0.0,0.0
1695752271161,-1.0214844,0.14453125,-0.18457031,0.0625,0.03125,0.0,0.0,0.0,0.0
1695752271201,-1.0136719,0.13769531,-0.18554688,0.125,0.21875,-0.0625,0.0,0.0,0.0
1695752271241,-1.0146484,0.13671875,-0.20214844,0.0625,0.09375,0.0,0.0,0.0,0.0
1695752271281,-1.0175781,0.14550781,-0.18457031,0.34375,0.28125,0.0625,0.0,0.0,0.0
1695752271321,-1.0195312,0.13769531,-0.17871094,0.21875,0.15625,0.1875,0.0,0.0,0.0
1695752271361,-1.015625,0.15234375,-0.18066406,0.40625,0.34375,0.125,0.0,0.0,0.0
1695752271401,-1.0224609,0.15234375,-0.19335938,0.21875,0.21875,0.1875,0.0,0.0,0.0
1695752271441,-1.0097656,0.14160156,-0.19921875,0.34375,-0.03125,0.0,0.0,0.0,0.0
1695752271481,-1.0146484,0.15234375,-0.18554688,0.0,0.09375,-0.125,-28.625,5.3125,-44.1875
1695752271521,-1.0068359,0.15136719,-0.18066406,-0.25,0.03125,0.0,0.0,0.0,0.0
1695752271561,-1.0117188,0.14160156,-0.19433594,-0.5,0.03125,0.125,0.0,0.0,0.0
1695752271601,-1.0185547,0.140625,-0.1953125,0.0,0.21875,0.0,0.0,0.0,0.0
1695752271641,-1.0185547,0.13769531,-0.19238281,0.0,-0.03125,0.28125,0.0,0.0,0.0
1695752271681,-1.0136719,0.15039062,-0.1875,0.0,0.09375,0.21875,0.0,0.0,0.0
1695752271721,-1.0107422,0.14550781,-0.17871094,0.28125,0.21875,0.28125,0.0,0.0,0.0
1695752271761,-1.0205078,0.14550781,-0.18554688,0.34375,0.09375,0.1875,0.0,0.0,0.0
1695752271801,-1.0185547,0.14746094,-0.19335938,0.40625,0.03125,0.1875,0.0,0.0,0.0
1695752271841,-1.0195312,0.15039062,-0.17773438,0.0625,0.09375,0.0625,0.0,0.0,0.0
1695752271881,-1.0146484,0.14648438,-0.16699219,0.0625,0.28125,0.125,0.0,0.0,0.0
1695752271921,-1.0058594,0.140625,-0.19140625,-0.125,0.15625,0.34375,0.0,0.0,0.0
1695752271961,-1.0136719,0.15527344,-0.18652344,0.125,0.21875,0.0,-28.1875,7.0625,-43.875
1695752272001,-1.0195312,0.14355469,-0.20117188,-0.25,0.15625,0.0625,0.0,0.0,0.0
1695752272041,-1.0175781,0.140625,-0.19238281,-0.125,0.15625,0.21875,0.0,0.0,0.0
1695752272081,-1.015625,0.13769531,-0.18164062,-0.125,0.28125,0.125,0.0,0.0,0.0
1695752272121,-1.015625,0.13867188,-0.20117188,0.40625,0.21875,0.0625,0.0,0.0,0.0
1695752272161,-1.0107422,0.14160156,-0.19140625,0.125,0.15625,0.21875,0.0,0.0,0.0
1695752272201,-1.0195312,0.14550781,-0.19921875,0.28125,0.21875,0.125,0.0,0.0,0.0
1695752272241,-1.0166016,0.13867188,-0.19824219,0.40625,-0.15625,-0.0625,0.0,0.0,0.0
1695752272281,-1.0107422,0.15429688,-0.19042969,0.71875,0.09375,0.1875,0.0,0.0,0.0
1695752272321,-1.0097656,0.15625,-0.1875,0.34375,-0.03125,0.0625,0.0,0.0,0.0
1695752272361,-1.0224609,0.14648438,-0.18945312,0.15625,0.28125,0.28125,0.0,0.0,0.0
1695752272401,-1.0195312,0.15039062,-0.18652344,0.21875,0.40625,0.40625,0.0,0.0,0.0
1695752272441,-1.0244141,0.15332031,-0.18261719,-0.0625,0.28125,0.21875,0.0,0.0,0.0
1695752272481,-1.0078125,0.14746094,-0.18554688,-0.375,-0.8125,-0.8125,-28.8125,5.5625,-43.25
1695752272521,-1.0263672,0.13964844,-0.20019531,-0.625,0.15625,0.125,0.0,0.0,0.0
1695752272561,-1.0185547,0.14355469,-0.1796875,-0.1875,0.21875,0.0625,0.0,0.0,0.0
1695752272601,-1.0175781,0.14160156,-0.19335938,-0.0625,0.15625,0.125,0.0,0.0,0.0
1695752272641,-1.0117188,0.15039062,-0.18359375,0.15625,0.15625,0.0,0.0,0.0,0.0
1695752272681,-1.0117188,0.15527344,-0.18652344,-0.1875,0.15625,0.0625,0.0,0.0,0.0
1695752272721,-1.0263672,0.14648438,-0.1953125,0.28125,0.15625,0.1875,0.0,0.0,0.0
1695752272761,-1.0146484,0.15136719,-0.19433594,0.0625,0.09375,0.0625,0.0,0.0,0.0
1695752272801,-1.0058594,0.15039062,-0.19433594,0.53125,0.15625,-0.125,0.0,0.0,0.0
1695752272841,-1.0244141,0.1484375,-0.18945312,0.125,0.03125,0.0,0.0,0.0,0.0
1695752272881,-1.0087891,0.14453125,-0.19335938,0.0625,0.03125,0.0,0.0,0.0,0.0
1695752272921,-1.0107422,0.14550781,-0.18261719,0.0,0.09375,0.125,0.0,0.0,0.0
1695752272961,-1.0185547,0.1484375,-0.18164062,0.21875,0.28125,-0.0625,-28.9375,7.5625,-42.8125
1695752273001,-1.0166016,0.14746094,-0.19238281,0.125,0.03125,0.0625,0.0,0.0,0.0
1695752273041,-1.0097656,0.140625,-0.1875,0.0,0.15625,0.125,0.0,0.0,0.0
1695752273081,-1.0214844,0.13378906,-0.18554688,-0.3125,-0.03125,0.1875,0.0,0.0,0.0
1695752273121,-1.0195312,0.14746094,-0.1953125,0.46875,0.21875,0.0,0.0,0.0,0.0
1695752273161,-1.0175781,0.13867188,-0.18847656,-0.0625,0.09375,0.125,0.0,0.0,0.0
1695752273201,-1.0078125,0.13867188,-0.18945312,0.0,-0.03125,-0.0625,0.0,0.0,0.0
1695752273241,-1.0136719,0.13867188,-0.18164062,0.0625,0.03125,-0.1875,0.0,0.0,0.0
1695752273281,-1.0097656,0.14550781,-0.20996094,0.28125,-0.03125,0.125,0.0,0.0,0.0
1695752273321,-1.0078125,0.15136719,-0.18945312,0.28125,-0.03125,-0.0625,0.0,0.0,0.0
1695752273361,-1.0117188,0.15625,-0.18847656,0.15625,0.09375,0.0625,0.0,0.0,0.0
1695752273401,-1.0185547,0.13769531,-0.18457031,0.0,0.03125,0.1875,0.0,0.0,0.0
1695752273441,-1.0195312,0.14550781,-0.18652344,0.0,-0.0625,-0.0625,0.0,0.0,0.0
1695752273481,-1.0136719,0.14746094,-0.18554688,-0.25,-0.125,-0.0625,-30.625,6.9375,-43.6875
1695752273521,-1.015625,0.13867188,-0.20410156,-0.4375,-0.125,0.125,0.0,0.0,0.0
1695752273561,-1.0107422,0.14648438,-0.19335938,-0.5,0.0,-0.1875,0.0,0.0,0.0
1695752273601,-1.0244141,0.14941406,-0.19726562,-0.4375,-0.0625,-0.0625,0.0,0.0,0.0
1695752273641,-1.0117188,0.14746094,-0.18554688,-0.3125,0.0,-0.0625,0.0,0.0,0.0
1695752273681,-1.0185547,0.14355469,-0.19238281,-0.375,0.0,0.0,0.0,0.0,0.0
1695752273721,-1.0126953,0.14355469,-0.18652344,0.125,-0.1875,0.0,0.0,0.0,0.0
1695752273761,-1.015625,0.13378906,-0.1875,-0.0625,0.0,0.125,0.0,0.0,0.0
1695752273801,-1.0185547,0.14746094,-0.17675781,0.125,0.0625,0.125,0.0,0.0,0.0
1695752273841,-1.0146484,0.14746094,-0.18945312,0.0,0.125,0.1875,0.0,0.0,0.0
1695752273881,-1.0087891,0.13378906,-0.19238281,0.4375,0.125,0.1875,0.0,0.0,0.0
1695752273921,-1.0146484,0.14746094,-0.171875,0.65625,0.0625,0.125,0.0,0.0,0.0
1695752273961,-1.0097656,0.14941406,-0.18652344,0.3125,0.1875,0.125,-27.875,7.0625,-42.8125
1695752274001,-1.0224609,0.1484375,-0.20019531,-0.0625,0.3125,0.125,0.0,0.0,0.0
1695752274041,-1.0117188,0.14941406,-0.19726562,0.0625,0.125,0.1875,0.0,0.0,0.0
1695752274081,-1.0087891,0.14355469,-0.19238281,-0.375,0.3125,0.1875,0.0,0.0,0.0
1695752274121,-1.0195312,0.14648438,-0.1875,0.0625,0.375,0.0,0.0,0.0,0.0
1695752274161,-1.0117188,0.13671875,-0.20410156,-0.1875,-0.0625,0.0625,0.0,0.0,0.0
1695752274201,-1.015625,0.15039062,-0.19824219,0.3125,0.0625,-0.3125,0.0,0.0,0.0
1695752274241,-1.0117188,0.15039062,-0.19042969,-0.1875,0.0,-0.125,0.0,0.0,0.0
1695752274281,-1.0185547,0.14453125,-0.18359375,0.46875,0.1875,0.53125,0.0,0.0,0.0
1695752274321,-1.0126953,0.15039062,-0.18652344,0.4375,0.0625,0.4375,0.0,0.0,0.0
1695752274361,-1.0146484,0.14550781,-0.19335938,0.25,0.0,0.1875,0.0,0.0,0.0
1695752274401,-1.0214844,0.14648438,-0.19628906,0.0,0.125,0.3125,0.0,0.0,0.0
1695752274441,-1.0166016,0.1484375,-0.18261719,-0.125,0.0,0.3125,0.0,0.0,0.0
1695752274481,-1.0087891,0.1484375,-0.18066406,-0.5625,0.0625,0.125,-28.0625,6.625,-44.0
1695752274521,-1.0107422,0.14941406,-0.19824219,-0.6875,0.25,0.125,0.0,0.0,0.0
1695752274561,-1.0126953,0.14453125,-0.19238281,-0.8125,0.0625,0.375,0.0,0.0,0.0
1695752274601,-1.0244141,0.13574219,-0.18652344,-0.625,0.0,0.0,0.0,0.0,0.0
1695752274641,-1.015625,0.1484375,-0.18164062,-0.0625,0.125,0.0625,0.0,0.0,0.0
1695752274681,-1.0117188,0.14257812,-0.19140625,0.1875,0.1875,0.25,0.0,0.0,0.0
1695752274721,-1.0185547,0.14550781,-0.19238281,0.46875,0.125,0.25,0.0,0.0,0.0
1695752274761,-1.015625,0.14453125,-0.19042969,0.46875,0.25,0.4375,0.0,0.0,0.0
1695752274801,-1.0058594,0.14648438,-0.18261719,0.375,0.25,0.3125,0.0,0.0,0.0
1695752274841,-1.0253906,0.14941406,-0.19433594,0.0625,0.3125,0.1875,0.0,0.0,0.0
1695752274881,-1.0185547,0.14257812,-0.20410156,-0.1875,0.1875,0.125,0.0,0.0,0.0
1695752274921,-1.0136719,0.14941406,-0.18261719,0.0,0.25,-0.125,0.0,0.0,0.0
1695752274961,-1.0146484,0.14746094,-0.19042969,-0.25,0.4375,0.0625,-27.875,6.8125,-43.875
1695752275001,-1.015625,0.15136719,-0.1953125,-0.25,0.4375,0.1875,0.0,0.0,0.0
1695752275041,-1.015625,0.14941406,-0.18554688,0.125,0.4375,0.0,0.0,0.0,0.0
1695752275081,-1.0214844,0.14550781,-0.19335938,-0.0625,0.25,0.25,0.0,0.0,0.0
1695752275121,-1.0195312,0.14257812,-0.1875,0.25,0.25,0.0,0.0,0.0,0.0
1695752275161,-1.0195312,0.15234375,-0.18359375,0.0625,0.1875,0.0,0.0,0.0,0.0
1695752275201,-1.0166016,0.13378906,-0.19335938,0.4375,0.125,-0.125,0.0,0.0,0.0
1695752275241,-1.0195312,0.14648438,-0.1953125,0.3125,0.25,0.0625,0.0,0.0,0.0
1695752275281,-1.0166016,0.14257812,-0.18554688,0.125,0.125,0.0625,0.0,0.0,0.0
1695752275321,-1.0185547,0.1484375,-0.20507812,0.375,0.0,0.0625,0.0,0.0,0.0
1695752275361,-1.0185547,0.14257812,-0.19238281,0.46875,0.125,-0.3125,0.0,0.0,0.0
1695752275401,-1.0097656,0.15527344,-0.19921875,0.3125,-0.0625,-0.0625,0.0,0.0,0.0
1695752275441,-1.0097656,0.15234375,-0.19628906,0.0625,-0.0625,-0.0625,0.0,0.0,0.0
1695752275481,-1.0146484,0.13867188,-0.20117188,-0.4375,-0.0625,-0.3125,-29.6875,6.8125,-42.5
1695752275521,-1.0078125,0.1484375,-0.1796875,-0.4375,-0.125,-0.1875,0.0,0.0,0.0
1695752275561,-1.015625,0.14453125,-0.18945312,-0.5,0.0625,-0.125,0.0,0.0,0.0
1695752275601,-1.0097656,0.13964844,-0.19238281,-0.0625,0.0,-0.1875,0.0,0.0,0.0
1695752275641,-1.0244141,0.14648438,-0.21386719,-0.1875,-0.1875,-0.1875,0.0,0.0,0.0
1695752275681,-1.0117188,0.14550781,-0.18164062,0.1875,-0.25,-0.25,0.0,0.0,0.0
1695752275721,-1.015625,0.14453125,-0.17675781,-0.125,-0.25,-0.3125,0.0,0.0,0.0
1695752275761,-1.0205078,0.14160156,-0.20703125,-0.0625,-0.1875,-0.1875,0.0,0.0,0.0
1695752275801,-1.0166016,0.14160156,-0.19335938,0.0,-0.125,-0.1875,0.0,0.0,0.0
1695752275841,-1.0107422,0.14648438,-0.19824219,0.0625,-0.0625,-0.1875,0.0,0.0,0.0
1695752275881,-1.0166016,0.14941406,-0.17871094,-0.1875,-0.125,-0.1875,0.0,0.0,0.0
1695752275921,-1.015625,0.13867188,-0.18261719,-0.25,0.0,0.0,0.0,0.0,0.0
1695752275961,-1.0175781,0.13964844,-0.18847656,-0.0625,0.0625,0.0,-28.9375,6.8125,-41.75
1695752276001,-1.0146484,0.15039062,-0.1875,0.0625,0.0,-0.3125,0.0,0.0,0.0
1695752276041,-1.015625,0.13378906,-0.17382812,-0.5,-0.1875,-0.125,0.0,0.0,0.0
1695752276081,-1.0146484,0.13476562,-0.18554688,0.0,-0.125,-0.25,0.0,0.0,0.0
1695752276121,-1.0195312,0.13574219,-0.18847656,0.0625,0.0,-0.1875,0.0,0.0,0.0
1695752276161,-1.0185547,0.14648438,-0.19140625,0.3125,0.0,0.0625,0.0,0.0,0.0
1695752276201,-1.0205078,0.13671875,-0.19628906,0.1875,0.0,0.0,0.0,0.0,0.0
1695752276241,-1.0117188,0.14746094,-0.1875,-0.25,-0.1875,0.125,0.0,0.0,0.0
1695752276281,-1.0107422,0.140625,-0.20410156,-0.3125,0.0,0.1875,0.0,0.0,0.0
1695752276321,-1.0146484,0.13378906,-0.18847656,-0.125,-0.0625,-0.0625,0.0,0.0,0.0
1695752276361,-1.0087891,0.13671875,-0.1875,-0.25,0.0,0.0625,0.0,0.0,0.0
1695752276401,-1.0166016,0.14257812,-0.19140625,-0.1875,0.0625,0.125,0.0,0.0,0.0
1695752276441,-1.015625,0.13671875,-0.18066406,-0.3125,-0.0625,0.0,0.0,0.0,0.0
1695752276481,-1.0058594,0.13671875,-0.1875,-0.125,0.0625,0.125,-30.0,7.5625,-43.4375
1695752276521,-1.0166016,0.1484375,-0.18164062,0.0,0.1875,0.0625,0.0,0.0,0.0
1695752276561,-1.015625,0.140625,-0.1953125,0.25,0.0625,0.1875,0.0,0.0,0.0
1695752276601,-1.0166016,0.14648438,-0.19433594,0.1875,0.125,0.0625,0.0,0.0,0.0
1695752276641,-1.0117188,0.14160156,-0.1953125,0.3125,0.125,0.0,0.0,0.0,0.0
1695752276681,-1.0195312,0.14257812,-0.19824219,0.0625,0.0,0.0625,0.0,0.0,0.0
1695752276721,-1.0039062,0.13867188,-0.203125,-0.0625,0.0625,0.0625,0.0,0.0,0.0
1695752276761,-1.0166016,0.15136719,-0.19433594,-0.1875,0.3125,0.0,0.0,0.0,0.0
1695752276801,-1.0097656,0.13671875,-0.18847656,-0.1875,0.3125,0.375,0.0,0.0,0.0
1695752276841,-1.0136719,0.14648438,-0.19238281,0.0625,0.375,0.4375,0.0,0.0,0.0
1695752276881,-1.015625,0.14160156,-0.18652344,0.0625,0.4375,0.1875,0.0,0.0,0.0
1695752276921,-1.015625,0.13476562,-0.19824219,0.25,0.25,0.25,0.0,0.0,0.0
1695752276961,-1.0234375,0.14257812,-0.18847656,0.25,0.5,0.25,-29.6875,5.3125,-43.875
1695752277001,-1.015625,0.1484375,-0.20507812,0.125,0.125,0.0,0.0,0.0,0.0
1695752277041,-1.0253906,0.13964844,-0.19824219,0.125,0.1875,0.125,0.0,0.0,0.0
1695752277081,-1.0205078,0.13671875,-0.18554688,0.0,0.25,0.1875,0.0,0.0,0.0
1695752277121,-1.0117188,0.14453125,-0.20605469,0.0,0.1875,-0.125,0.0,0.0,0.0
1695752277161,-1.0107422,0.1484375,-0.18359375,-0.0625,0.125,0.0625,0.0,0.0,0.0
1695752277201,-1.0214844,0.140625,-0.20410156,0.0,0.0625,0.125,0.0,0.0,0.0
1695752277241,-1.0244141,0.14746094,-0.17480469,0.0625,0.125,0.0,0.0,0.0,0.0
1695752277281,-1.0087891,0.14746094,-0.19140625,0.0,0.125,-0.0625,0.0,0.0,0.0
1695752277321,-1.0107422,0.13964844,-0.20117188,-0.4375,-0.0625,0.0625,0.0,0.0,0.0
1695752277361,-1.0136719,0.13867188,-0.19433594,-0.1875,0.0625,-0.03125,0.0,0.0,0.0
1695752277401,-1.0126953,0.140625,-0.19433594,-0.125,-0.0625,-0.03125,0.0,0.0,0.0
1695752277441,-1.0146484,0.140625,-0.19921875,0.0625,0.0,0.03125,0.0,0.0,0.0
1695752277481,-1.015625,0.13867188,-0.18554688,0.3125,0.0625,0.03125,-29.375,7.6875,-43.25
1695752277521,-1.0146484,0.14648438,-0.18261719,0.1875,-0.25,-0.09375,0.0,0.0,0.0
1695752277561,-1.0107422,0.14453125,-0.18847656,0.4375,0.0,-0.21875,0.0,0.0,0.0
1695752277601,-1.0087891,0.14648438,-0.18945312,0.125,-0.25,-0.21875,0.0,0.0,0.0
1695752277641,-1.0029297,0.14160156,-0.18457031,0.0,-0.0625,-0.28125,0.0,0.0,0.0
1695752277681,-1.0166016,0.14160156,-0.1875,0.125,0.125,-0.03125,0.0,0.0,0.0
1695752277721,-1.0097656,0.14550781,-0.19628906,-0.3125,0.0625,0.03125,0.0,0.0,0.0
1695752277761,-1.0146484,0.13574219,-0.19042969,0.0625,0.21875,-0.03125,0.0,0.0,0.0
1695752277801,-1.015625,0.13964844,-0.19042969,-0.3125,0.125,0.03125,0.0,0.0,0.0
1695752277841,-1.0117188,0.14453125,-0.17675781,-0.125,0.125,-0.21875,0.0,0.0,0.0
1695752277881,-1.0136719,0.13867188,-0.20019531,0.0,0.0,-0.03125,0.0,0.0,0.0
1695752277921,-1.0224609,0.13085938,-0.20605469,0.71875,-0.0625,-0.09375,0.0,0.0,0.0
1695752277961,-1.0136719,0.14648438,-0.19628906,0.46875,0.0,0.03125,-29.6875,6.5,-43.875
1695752278001,-1.0185547,0.15039062,-0.18945312,0.3125,0.125,0.15625,0.0,0.0,0.0
1695752278041,-1.0136719,0.14941406,-0.18261719,0.0,0.125,0.09375,0.0,0.0,0.0
1695752278081,-1.0097656,0.13574219,-0.19335938,-0.25,0.0,0.09375,0.0,0.0,0.0
1695752278121,-1.0068359,0.14257812,-0.20117188,-0.125,0.125,-0.15625,0.0,0.0,0.0
1695752278161,-1.0166016,0.13769531,-0.19921875,-0.25,0.0,-0.15625,0.0,0.0,0.0
1695752278201,-1.0097656,0.14453125,-0.19628906,-0.1875,-0.0625,-0.40625,0.0,0.0,0.0
1695752278241,-1.0126953,0.14746094,-0.18457031,-0.125,0.0,-0.21875,0.0,0.0,0.0
1695752278281,-1.015625,0.13671875,-0.19335938,0.25,0.125,0.15625,0.0,0.0,0.0
1695752278321,-1.0166016,0.13964844,-0.19726562,0.46875,-0.125,0.03125,0.0,0.0,0.0
1695752278361,-1.0185547,0.14453125,-0.203125,0.59375,-0.25,-0.21875,0.0,0.0,0.0
1695752278401,-1.0087891,0.14648438,-0.18945312,0.1875,-0.1875,-0.09375,0.0,0.0,0.0
1695752278441,-1.0097656,0.14941406,-0.19726562,0.0625,-0.1875,-0.03125,0.0,0.0,0.0
1695752278481,-1.0195312,0.14257812,-0.18847656,-0.0625,-0.25,-0.03125,-29.125,6.625,-43.25
1695752278521,-1.0205078,0.14746094,-0.20507812,-0.25,-0.125,-0.09375,0.0,0.0,0.0
1695752278561,-1.0146484,0.14453125,-0.203125,-0.5625,-0.0625,-0.09375,0.0,0.0,0.0
1695752278601,-1.0166016,0.14257812,-0.19238281,-0.4375,-0.125,-0.03125,0.0,0.0,0.0
1695752278641,-1.0117188,0.13378906,-0.18359375,-0.0625,0.0,-0.09375,0.0,0.0,0.0
1695752278681,-1.0126953,0.1484375,-0.18847656,-0.0625,-0.125,-0.09375,0.0,0.0,0.0
1695752278721,-1.0185547,0.13964844,-0.18945312,0.0,-0.0625,-0.03125,0.0,0.0,0.0
1695752278761,-1.0136719,0.140625,-0.19824219,-0.0625,-0.25,-0.09375,0.0,0.0,0.0
1695752278801,-1.0097656,0.140625,-0.19238281,0.375,-0.1875,-0.21875,0.0,0.0,0.0
1695752278841,-1.0146484,0.15136719,-0.20898438,0.1875,-0.125,-0.09375,0.0,0.0,0.0
1695752278881,-1.0068359,0.13964844,-0.20410156,0.1875,-0.1875,0.15625,0.0,0.0,0.0
1695752278921,-1.0146484,0.140625,-0.18945312,0.0625,0.0,0.09375,0.0,0.0,0.0
1695752278961,-1.015625,0.14257812,-0.20214844,0.0,-0.0625,-0.09375,-28.625,6.5,-44.1875
1695752279001,-1.0078125,0.14257812,-0.1875,-0.0625,-0.125,-0.09375,0.0,0.0,0.0
1695752279041,-1.0166016,0.14160156,-0.18847656,-0.125,-0.1875,-0.15625,0.0,0.0,0.0
1695752279081,-1.0175781,0.14257812,-0.18457031,-0.1875,-0.1875,-0.09375,0.0,0.0,0.0
1695752279121,-1.0126953,0.13867188,-0.20019531,-0.125,-0.3125,0.03125,0.0,0.0,0.0
1695752279161,-1.015625,0.1328125,-0.19335938,-0.0625,-0.25,0.03125,0.0,0.0,0.0
1695752279201,-1.0107422,0.14160156,-0.18847656,-0.1875,-0.25,0.03125,0.0,0.0,0.0
1695752279241,-1.0244141,0.12988281,-0.19140625,0.0625,-0.125,-0.09375,0.0,0.0,0.0
1695752279281,-1.0175781,0.15136719,-0.19628906,0.0,-0.25,-0.03125,0.0,0.0,0.0
1695752279321,-1.0146484,0.14160156,-0.18945312,-0.125,-0.25,0.03125,0.0,0.0,0.0
1695752279361,-1.0195312,0.14453125,-0.20214844,-0.1875,-0.25,0.03125,0.0,0.0,0.0
1695752279401,-1.0136719,0.15332031,-0.18945312,-0.0625,-0.4375,0.03125,0.0,0.0,0.0
1695752279441,-1.0078125,0.14941406,-0.19726562,-0.3125,-0.1875,-0.28125,0.0,0.0,0.0
1695752279481,-1.0166016,0.14355469,-0.18164062,-0.1875,-0.1875,-0.15625,-28.625,6.8125,-43.4375
1695752279521,-1.0117188,0.13476562,-0.18359375,-0.5625,-0.125,0.3125,0.0,0.0,0.0
1695752279561,-1.015625,0.13085938,-0.19824219,0.125,-0.125,0.09375,0.0,0.0,0.0
1695752279601,-1.0175781,0.13769531,-0.18554688,0.0,-0.125,-0.21875,0.0,0.0,0.0
1695752279641,-1.0107422,0.14160156,-0.19726562,-0.0625,-0.375,-0.15625,0.0,0.0,0.0
1695752279681,-1.0087891,0.13867188,-0.1953125,-0.25,-0.3125,-0.09375,0.0,0.0,0.0
1695752279721,-1.0107422,0.140625,-0.18945312,0.1875,0.0,-0.03125,0.0,0.0,0.0
1695752279761,-1.0107422,0.14453125,-0.19238281,0.0,0.0625,0.09375,0.0,0.0,0.0
1695752279801,-1.015625,0.13867188,-0.18945312,-0.4375,0.0,0.03125,0.0,0.0,0.0
1695752279841,-1.0185547,0.13769531,-0.19238281,-0.5,-0.125,0.03125,0.0,0.0,0.0
1695752279881,-1.0087891,0.13867188,-0.18164062,-0.1875,-0.1875,0.15625,0.0,0.0,0.0
1695752279921,-1.0146484,0.14257812,-0.1875,0.3125,0.125,0.15625,0.0,0.0,0.0
1695752279961,-1.0087891,0.14257812,-0.18945312,-0.1875,-0.125,0.21875,-30.0,6.0625,-44.9375
1695752280001,-1.0166016,0.140625,-0.19628906,-0.0625,-0.125,0.09375,0.0,0.0,0.0
1695752280041,-1.0126953,0.13671875,-0.18847656,-0.375,-0.125,-0.21875,0.0,0.0,0.0
1695752280081,-1.0107422,0.14453125,-0.1875,-0.125,-0.125,-0.28125,0.0,0.0,0.0
1695752280121,-1.015625,0.13574219,-0.19335938,-0.3125,-0.125,-0.15625,0.0,0.0,0.0
1695752280161,-1.0097656,0.14648438,-0.20703125,0.1875,-0.1875,-0.15625,0.0,0.0,0.0
1695752280201,-1.0166016,0.14453125,-0.20117188,-0.4375,0.28125,0.03125,0.0,0.0,0.0
1695752280241,-1.0195312,0.12109375,-0.1875,-0.0625,-0.0625,0.03125,0.0,0.0,0.0
1695752280281,-1.0117188,0.140625,-0.19238281,0.53125,-0.25,-0.03125,-30.125,7.25,-43.6875
1695752280321,-1.0175781,0.14453125,-0.18457031,0.59375,-0.125,-0.28125,0.0,0.0,0.0
1695752280361,-1.0107422,0.14160156,-0.18945312,0.78125,-0.1875,0.03125,0.0,0.0,0.0
1695752280401,-1.0087891,0.14257812,-0.1953125,0.53125,-0.1875,0.03125,0.0,0.0,0.0
1695752280441,-1.0205078,0.15332031,-0.19921875,0.78125,0.0,0.09375,0.0,0.0,0.0
1695752280481,-1.015625,0.1484375,-0.19140625,0.125,0.0625,0.03125,0.0,0.0,0.0
1695752280521,-1.0205078,0.14160156,-0.20019531,0.25,-0.125,-0.03125,0.0,0.0,0.0
1695752280561,-1.0185547,0.13769531,-0.20019531,-0.375,0.125,-0.03125,0.0,0.0,0.0
1695752280601,-1.0175781,0.14941406,-0.20019531,-0.1875,0.0,-0.15625,0.0,0.0,0.0
1695752280641,-1.015625,0.13769531,-0.19140625,-0.25,-0.0625,0.03125,0.0,0.0,0.0
1695752280681,-1.0205078,0.13867188,-0.20214844,-0.3125,0.0,-0.09375,0.0,0.0,0.0
1695752280721,-1.0146484,0.13574219,-0.19628906,-0.25,0.0625,-0.03125,0.0,0.0,0.0
1695752280761,-1.015625,0.13964844,-0.20019531,0.125,0.0625,0.21875,-29.6875,7.8125,-42.5
1695752280801,-1.0166016,0.14746094,-0.18847656,0.1875,0.0,0.09375,0.0,0.0,0.0
1695752280841,-1.0136719,0.13964844,-0.18945312,0.375,-0.1875,0.09375,0.0,0.0,0.0
1695752280881,-1.0224609,0.14746094,-0.18847656,0.3125,-0.125,0.09375,0.0,0.0,0.0
1695752280921,-1.0107422,0.14941406,-0.20117188,0.0,-0.0625,0.09375,0.0,0.0,0.0
1695752280961,-1.0185547,0.13769531,-0.19335938,0.0,-0.125,0.15625,0.0,0.0,0.0
1695752281001,-1.0224609,0.14746094,-0.19433594,0.0,0.0,0.03125,0.0,0.0,0.0
1695752281041,-1.0146484,0.14257812,-0.20800781,0.0625,-0.0625,-0.03125,0.0,0.0,0.0
1695752281081,-1.0185547,0.14257812,-0.19824219,-0.5,-0.125,0.09375,0.0,0.0,0.0
1695752281121,-1.0117188,0.13867188,-0.19140625,-0.1875,-0.25,0.15625,0.0,0.0,0.0
1695752281161,-1.0214844,0.140625,-0.19433594,0.1875,-0.25,0.03125,0.0,0.0,0.0
1695752281201,-1.0068359,0.13964844,-0.19238281,0.125,-0.375,0.03125,0.0,0.0,0.0
1695752281241,-1.015625,0.140625,-0.19921875,0.0625,-0.4375,-0.09375,0.0,0.0,0.0
1695752281281,-1.0224609,0.13671875,-0.19335938,0.3125,-0.4375,-0.03125,-29.125,5.5625,-45.6875
