,timestamp,accel_x,accel_y,accel_z,gyro_x,gyro_y,gyro_z
0,1695744428563,-0.1274414,-0.83843994,0.6071167,-1.375,-0.453125,-0.1875
1,1695744428603,-0.14331055,-0.82159424,0.6017456,-0.734375,-0.59375,-0.515625
2,1695744428643,-0.13330078,-0.8179321,0.58807373,0.984375,-1.484375,-1.140625
3,1695744428683,-0.14135742,-0.8208618,0.59198,0.375,-0.609375,-0.859375
4,1695744428723,-0.1352539,-0.8147583,0.5895386,1.078125,-0.328125,-0.375
5,1695744428763,-0.14160156,-0.8233032,0.5897827,-0.25,0.203125,-0.234375
6,1695744428803,-0.14624023,-0.82769775,0.60491943,0.109375,-0.078125,0.21875
7,1695744428843,-0.13134766,-0.80792236,0.5873413,0.421875,0.015625,-0.609375
8,1695744428883,-0.13623047,-0.82159424,0.5873413,-0.21875,-0.34375,0.109375
9,1695744428923,-0.13793945,-0.8279419,0.59490967,-0.984375,0.78125,0.453125
10,1695744428963,-0.12109375,-0.8220825,0.59173584,0.203125,0.0,0.234375
11,1695744429003,-0.123046875,-0.8272095,0.5975952,1.015625,-1.265625,0.03125
12,1695744429043,-0.13696289,-0.82476807,0.5861206,0.828125,0.015625,0.359375
13,1695744429083,-0.13647461,-0.8255005,0.59661865,1.796875,-0.734375,0.28125
14,1695744429123,-0.1262207,-0.82647705,0.59954834,0.53125,-0.234375,0.15625
15,1695744429163,-0.13623047,-0.8237915,0.5946655,0.609375,0.234375,0.25
16,1695744429203,-0.12915039,-0.8245239,0.586853,1.796875,-0.078125,-0.0625
17,1695744429243,-0.13208008,-0.8272095,0.5927124,1.671875,-0.296875,0.03125
18,1695744429283,-0.13208008,-0.8374634,0.5932007,1.21875,0.203125,-0.015625
19,1695744429323,-0.13208008,-0.8303833,0.5753784,1.28125,1.4375,0.046875
20,1695744429363,-0.13623047,-0.819397,0.5697632,1.453125,0.671875,-0.328125
21,1695744429403,-0.13793945,-0.8533325,0.57806396,0.578125,0.421875,-1.0625
22,1695744429443,-0.1340332,-0.8464966,0.5585327,-1.015625,0.765625,-0.859375
23,1695744429483,-0.12670898,-0.8184204,0.57244873,0.046875,0.984375,-1.703125
24,1695744429523,-0.13427734,-0.8411255,0.5988159,0.4375,1.0625,-1.0625
25,1695744429563,-0.12182617,-0.833313,0.57611084,-1.46875,2.90625,-0.75
26,1695744429603,-0.12646484,-0.82891846,0.5722046,3.6875,1.09375,-0.1875
27,1695744429643,-0.1274414,-0.8557739,0.57244873,3.796875,0.9375,-1.125
28,1695744429683,-0.11791992,-0.8401489,0.55999756,2.015625,1.78125,-0.78125
29,1695744429723,-0.10083008,-0.8233032,0.5494995,2.3125,0.9375,-1.546875
30,1695744429763,-0.11743164,-0.85284424,0.5734253,4.609375,0.578125,0.5
31,1695744429803,-0.1315918,-0.8640747,0.56903076,0.953125,0.15625,-0.171875
32,1695744429843,-0.12841797,-0.84381104,0.5475464,2.59375,-0.140625,-0.65625
33,1695744429883,-0.122558594,-0.85357666,0.5560913,2.109375,0.765625,-1.015625
34,1695744429923,-0.14257812,-0.8352661,0.5570679,0.46875,3.15625,0.921875
35,1695744429963,-0.14282227,-0.8274536,0.55096436,-0.171875,3.0625,-0.140625
36,1695744430003,-0.13916016,-0.86383057,0.52923584,-1.1875,4.046875,0.4375
37,1695744430043,-0.12646484,-0.84698486,0.55340576,0.015625,3.015625,-0.140625
38,1695744430083,-0.1237793,-0.86309814,0.55682373,-0.28125,2.375,-0.71875
39,1695744430123,-0.10546875,-0.8792114,0.5770874,1.953125,1.953125,-0.890625
40,1695744430163,-0.095458984,-0.83917236,0.56658936,2.1875,3.296875,-0.359375
41,1695744430203,-0.12109375,-0.83135986,0.53240967,2.953125,2.234375,0.375
42,1695744430243,-0.1237793,-0.84991455,0.52679443,2.6875,2.1875,0.484375
43,1695744430283,-0.10424805,-0.84942627,0.5512085,0.140625,3.4375,0.84375
44,1695744430323,-0.100097656,-0.8814087,0.5790405,2.484375,1.96875,0.859375
45,1695744430363,-0.115478516,-0.8652954,0.59051514,3.0625,3.359375,2.046875
46,1695744430403,-0.15014648,-0.80133057,0.571228,1.65625,1.109375,1.59375
47,1695744430443,-0.123535156,-0.7930298,0.5241089,-0.203125,-1.6875,1.03125
48,1695744430483,-0.09326172,-0.8777466,0.56707764,0.484375,0.171875,0.75
49,1695744430523,-0.114990234,-0.9180298,0.6102905,-0.453125,3.625,3.53125
50,1695744430563,-0.14770508,-0.84552,0.6034546,-3.171875,-0.59375,0.765625
51,1695744430603,-0.12719727,-0.8015747,0.5595093,-4.359375,-3.234375,-0.484375
52,1695744430643,-0.107910156,-0.8550415,0.559021,-2.46875,-2.59375,0.34375
53,1695744430683,-0.11376953,-0.85723877,0.5939331,-1.375,0.734375,1.90625
54,1695744430723,-0.13208008,-0.81744385,0.58343506,-2.421875,-0.125,1.09375
55,1695744430763,-0.1105957,-0.83062744,0.5824585,-3.921875,-0.59375,0.34375
56,1695744430803,-0.095458984,-0.8362427,0.59198,-3.1875,-0.484375,0.203125
57,1695744430843,-0.12182617,-0.83599854,0.6000366,-2.890625,-0.0625,0.5
58,1695744430883,-0.10522461,-0.8340454,0.5963745,-2.375,-1.015625,0.0
59,1695744430923,-0.11206055,-0.8218384,0.5897827,-2.4375,-1.640625,-0.71875
60,1695744430963,-0.10522461,-0.82159424,0.5741577,-2.71875,-1.46875,-1.015625
61,1695744431003,-0.12060547,-0.833313,0.5988159,-1.71875,-1.96875,-0.328125
62,1695744431043,-0.115722656,-0.83843994,0.6017456,-3.859375,-1.6875,-1.359375
63,1695744431083,-0.12084961,-0.8257446,0.59661865,-1.5625,-1.015625,-1.265625
64,1695744431123,-0.111572266,-0.83721924,0.5932007,-2.171875,-1.296875,-2.03125
65,1695744431163,-0.09765625,-0.8262329,0.61102295,-3.90625,0.46875,-1.78125
66,1695744431203,-0.11254883,-0.82232666,0.6012573,-6.171875,1.34375,0.34375
67,1695744431243,-0.10595703,-0.8064575,0.5812378,-5.84375,2.515625,0.15625
68,1695744431283,-0.13134766,-0.78619385,0.6234741,1.09375,2.921875,4.359375
69,1695744431323,-0.13647461,-0.8460083,0.6911011,4.921875,1.359375,5.359375
70,1695744431363,-0.09399414,-0.84088135,0.6779175,6.59375,3.15625,3.0625
71,1695744431403,-0.06201172,-0.7966919,0.58929443,2.46875,0.09375,-2.984375
72,1695744431443,-0.04638672,-0.7979126,0.5372925,1.46875,-4.359375,-6.046875
73,1695744431483,-0.03491211,-0.8257446,0.5414429,-2.5625,-2.859375,-3.09375
74,1695744431523,-0.095703125,-0.8184204,0.54559326,-4.609375,-0.015625,2.03125
75,1695744431563,-0.16674805,-0.87457275,0.6286011,-6.84375,-1.125,1.890625
76,1695744431603,-0.15112305,-0.8567505,0.6300659,-11.109375,3.390625,-0.1875
77,1695744431643,-0.08886719,-0.79278564,0.5934448,-9.953125,4.75,-1.171875
78,1695744431683,-0.052490234,-0.7932739,0.5975952,-9.125,3.078125,-0.875
79,1695744431723,-0.06591797,-0.8008423,0.63812256,-5.203125,1.515625,0.421875
80,1695744431763,-0.07470703,-0.80010986,0.68133545,-3.984375,-0.953125,0.171875
81,1695744431803,-0.0859375,-0.78570557,0.68011475,-3.359375,-0.671875,0.15625
82,1695744431843,-0.095947266,-0.77911377,0.65496826,-0.78125,-1.53125,0.234375
83,1695744431883,-0.10107422,-0.7739868,0.6168823,-1.28125,-0.78125,0.515625
84,1695744431923,-0.09008789,-0.7835083,0.6286011,2.328125,0.390625,0.671875
85,1695744431963,-0.07836914,-0.7827759,0.65545654,3.5,-1.125,0.390625
86,1695744432003,-0.07788086,-0.7913208,0.66400146,1.53125,-1.4375,-0.234375
87,1695744432043,-0.07910156,-0.7827759,0.65618896,1.3125,-1.71875,0.203125
88,1695744432083,-0.11279297,-0.7803345,0.6444702,1.578125,-2.234375,0.53125
89,1695744432123,-0.103271484,-0.78326416,0.63690186,0.28125,-0.65625,0.671875
90,1695744432163,-0.079833984,-0.8064575,0.6598511,1.5625,-0.0625,2.421875
91,1695744432203,-0.048583984,-0.78790283,0.6659546,3.203125,-1.59375,2.9375
92,1695744432243,-0.046875,-0.7756958,0.6569214,2.75,-4.984375,3.78125
93,1695744432283,-0.046875,-0.78204346,0.5927124,1.125,-5.46875,3.625
94,1695744432323,-0.09399414,-0.7901001,0.5927124,2.84375,-5.453125,4.453125
95,1695744432363,-0.13183594,-0.8081665,0.64520264,2.828125,-5.5,4.875
96,1695744432403,-0.11303711,-0.81134033,0.6515503,1.390625,-3.4375,3.328125
97,1695744432443,-0.09643555,-0.81500244,0.6547241,3.03125,-0.453125,1.234375
98,1695744432483,-0.096191406,-0.798645,0.6598511,2.5,0.109375,1.328125
99,1695744432523,-0.07543945,-0.80303955,0.6415405,1.796875,2.03125,-0.09375
100,1695744432563,-0.068115234,-0.8106079,0.6347046,2.1875,4.453125,-0.875
101,1695744432603,-0.061279297,-0.8081665,0.6547241,1.65625,5.34375,-1.09375
102,1695744432643,-0.0769043,-0.81329346,0.6481323,0.453125,5.921875,-0.53125
103,1695744432683,-0.08984375,-0.8064575,0.62615967,0.578125,2.140625,-1.703125
104,1695744432723,-0.064208984,-0.7979126,0.6203003,-0.921875,1.5,-3.15625
105,1695744432763,-0.059814453,-0.8076782,0.59368896,0.09375,2.484375,-0.859375
106,1695744432803,-0.06274414,-0.7920532,0.5968628,0.578125,-0.671875,-0.734375
107,1695744432843,-0.06225586,-0.7971802,0.61273193,0.28125,0.0,0.140625
108,1695744432883,-0.052490234,-0.82037354,0.621521,-0.203125,0.265625,0.921875
109,1695744432923,-0.061035156,-0.84454346,0.63739014,-1.28125,0.875,1.578125
110,1695744432963,-0.076416016,-0.83184814,0.635437,-0.75,0.640625,2.3125
111,1695744433003,-0.072509766,-0.8171997,0.6276245,0.34375,-1.078125,1.765625
112,1695744433043,-0.053466797,-0.80596924,0.62249756,0.734375,-2.234375,1.3125
113,1695744433083,-0.056152344,-0.802063,0.6107788,2.0625,-2.765625,1.890625
114,1695744433123,-0.057128906,-0.802063,0.62176514,1.953125,-4.609375,1.921875
115,1695744433163,-0.0625,-0.8110962,0.6119995,-0.5625,-2.90625,1.328125
116,1695744433203,-0.07763672,-0.82769775,0.61883545,0.328125,-2.59375,2.0625
117,1695744433243,-0.07910156,-0.7979126,0.60614014,-0.734375,-2.765625,0.859375
118,1695744433283,-0.076660156,-0.8081665,0.62420654,-0.1875,-2.890625,1.0625
119,1695744433323,-0.06298828,-0.8118286,0.63690186,-0.90625,-2.046875,1.421875
120,1695744433363,-0.06518555,-0.80841064,0.6117554,0.109375,-1.78125,0.875
121,1695744433403,-0.07763672,-0.798645,0.6129761,1.75,-2.984375,-0.203125
122,1695744433443,-0.08520508,-0.8015747,0.60565186,2.75,-1.5625,-1.015625
123,1695744433483,-0.10571289,-0.8069458,0.62493896,3.46875,0.484375,-1.703125
124,1695744433523,-0.1159668,-0.8101196,0.63079834,6.71875,1.859375,-3.296875
125,1695744433563,-0.09692383,-0.8140259,0.59661865,7.140625,5.59375,-4.8125
126,1695744433603,-0.07373047,-0.80596924,0.5704956,9.328125,7.34375,-6.453125
127,1695744433643,-0.084472656,-0.831604,0.6054077,13.6875,6.9375,-5.609375
128,1695744433683,-0.11010742,-0.8838501,0.6141968,10.6875,5.8125,-5.65625
129,1695744433723,-0.17163086,-0.89556885,0.59173584,5.703125,8.3125,-6.640625
130,1695744433763,-0.1430664,-0.8789673,0.5206909,0.046875,15.1875,-11.28125
131,1695744433803,-0.084472656,-0.80133057,0.46331787,-1.125,21.625,-13.078125
132,1695744433843,-0.056152344,-0.8323364,0.4928589,0.375,21.140625,-11.484375
133,1695744433883,-0.040283203,-0.8765259,0.5531616,0.5,18.296875,-9.671875
134,1695744433923,-0.07055664,-0.8796997,0.6154175,2.796875,15.640625,-7.671875
135,1695744433963,-0.11401367,-0.8569946,0.6034546,1.15625,11.75,-8.875
136,1695744434003,-0.095458984,-0.8743286,0.5321655,1.625,10.828125,-8.4375
137,1695744434043,-0.07324219,-0.8609009,0.510437,4.0625,10.5625,-7.375
138,1695744434083,-0.05517578,-0.8530884,0.51239014,3.140625,9.578125,-5.296875
139,1695744434123,-0.06640625,-0.8711548,0.54608154,2.953125,6.21875,-3.546875
140,1695744434163,-0.07055664,-0.8777466,0.5458374,2.859375,3.40625,-3.046875
141,1695744434203,-0.06347656,-0.8772583,0.5282593,0.984375,1.578125,-1.40625
142,1695744434243,-0.07861328,-0.8648071,0.5350952,1.390625,-2.28125,0.265625
143,1695744434283,-0.071777344,-0.878479,0.5265503,1.03125,-3.609375,1.015625
144,1695744434323,-0.072021484,-0.86920166,0.53582764,0.296875,-5.140625,1.921875
145,1695744434363,-0.06738281,-0.8706665,0.5348511,-1.6875,-7.21875,2.390625
146,1695744434403,-0.06542969,-0.8674927,0.5465698,-0.765625,-7.109375,3.703125
147,1695744434443,-0.08300781,-0.8652954,0.5314331,-1.96875,-7.15625,5.578125
148,1695744434483,-0.104003906,-0.84820557,0.53778076,-2.421875,-8.703125,4.875
149,1695744434523,-0.095703125,-0.8723755,0.55755615,-3.203125,-7.1875,5.140625
150,1695744434563,-0.10546875,-0.86676025,0.56829834,-1.9375,-6.234375,5.03125
151,1695744434603,-0.10913086,-0.8406372,0.5565796,-3.734375,-7.828125,3.984375
152,1695744434643,-0.10058594,-0.84503174,0.5717163,-5.265625,-6.296875,3.59375
153,1695744434683,-0.10864258,-0.8533325,0.54071045,-4.0,-5.03125,4.421875
154,1695744434723,-0.10449219,-0.82818604,0.5570679,-3.671875,-5.265625,2.484375
155,1695744434763,-0.099609375,-0.83721924,0.5663452,-4.375,-3.234375,2.828125
156,1695744434803,-0.10253906,-0.85284424,0.57147217,-3.171875,-3.265625,2.265625
157,1695744434843,-0.09887695,-0.8369751,0.5883179,-2.53125,-2.8125,0.609375
158,1695744434883,-0.09692383,-0.83795166,0.5946655,-1.671875,-2.328125,0.390625
159,1695744434923,-0.10424805,-0.8364868,0.5944214,-2.484375,-1.75,0.1875
160,1695744434963,-0.10644531,-0.8286743,0.5619507,-2.0,-0.578125,0.125
161,1695744435003,-0.091796875,-0.82769775,0.5783081,-0.328125,-0.5,-0.5
162,1695744435043,-0.09741211,-0.84552,0.60736084,-0.46875,0.484375,-1.015625
163,1695744435083,-0.103271484,-0.8296509,0.586853,-1.046875,0.984375,-1.734375
164,1695744435123,-0.10229492,-0.8303833,0.59051514,-0.40625,0.8125,-1.421875
165,1695744435163,-0.09692383,-0.829895,0.58758545,-1.0,1.015625,-1.546875
166,1695744435203,-0.0847168,-0.8272095,0.5873413,-0.28125,1.984375,-1.5
167,1695744435243,-0.10131836,-0.8381958,0.57489014,0.171875,1.4375,-1.203125
168,1695744435283,-0.09667969,-0.835022,0.58758545,-0.140625,1.296875,-1.328125
169,1695744435323,-0.09667969,-0.82110596,0.5819702,0.171875,0.984375,-1.296875
170,1695744435363,-0.1003418,-0.83551025,0.5861206,1.25,-0.015625,-1.203125
171,1695744435403,-0.1027832,-0.8406372,0.58807373,0.453125,0.640625,-1.484375
172,1695744435443,-0.095458984,-0.8377075,0.5861206,1.125,0.953125,-1.140625
173,1695744435483,-0.100097656,-0.83258057,0.58514404,-0.515625,1.265625,-0.6875
174,1695744435523,-0.095214844,-0.82476807,0.5805054,-0.40625,1.25,-0.28125
175,1695744435563,-0.09790039,-0.8386841,0.58929443,-0.078125,0.921875,-0.328125
176,1695744435603,-0.09863281,-0.8230591,0.5824585,0.140625,1.078125,-0.515625
177,1695744435643,-0.09057617,-0.8274536,0.58758545,-0.40625,0.5,-0.4375
178,1695744435683,-0.08911133,-0.8296509,0.59124756,0.21875,-0.15625,0.296875
179,1695744435723,-0.09667969,-0.829895,0.5770874,-0.515625,-1.265625,0.25
180,1695744435763,-0.09472656,-0.8296509,0.5765991,0.0625,-1.1875,0.828125
181,1695744435803,-0.10180664,-0.8381958,0.5944214,0.265625,-0.4375,0.875
182,1695744435843,-0.10620117,-0.84381104,0.59906006,0.65625,-0.78125,0.8125
183,1695744435883,-0.09790039,-0.8279419,0.5805054,-0.84375,-0.484375,0.0
184,1695744435923,-0.099609375,-0.8364868,0.5824585,0.0625,-1.03125,0.421875
185,1695744435963,-0.09057617,-0.82818604,0.5873413,-0.859375,-0.484375,0.421875
186,1695744436003,-0.09863281,-0.8220825,0.5824585,-1.25,0.34375,1.078125
187,1695744436043,-0.09423828,-0.83966064,0.59173584,0.0,-0.640625,0.484375
188,1695744436083,-0.095947266,-0.8374634,0.60076904,-0.953125,0.0,0.53125
189,1695744436123,-0.096191406,-0.8233032,0.5817261,-0.125,-0.09375,0.78125
190,1695744436163,-0.084228516,-0.82110596,0.59539795,0.375,0.234375,0.984375
191,1695744436203,-0.08642578,-0.8320923,0.5883179,-0.328125,0.5625,1.0625
192,1695744436243,-0.08178711,-0.8374634,0.6029663,0.078125,0.375,0.921875
193,1695744436283,-0.10180664,-0.83917236,0.5956421,0.15625,-0.21875,1.109375
194,1695744436323,-0.083496094,-0.8196411,0.6017456,0.078125,0.71875,0.8125
195,1695744436363,-0.08886719,-0.8320923,0.5836792,-0.4375,0.828125,1.515625
196,1695744436403,-0.09008789,-0.83551025,0.5973511,0.578125,-0.40625,1.171875
197,1695744436443,-0.09008789,-0.83306885,0.59954834,-1.25,-0.78125,0.46875
198,1695744436483,-0.0769043,-0.8308716,0.5946655,0.0,-1.046875,0.71875
199,1695744436523,-0.08642578,-0.8245239,0.59490967,-0.09375,-1.03125,0.359375
200,1695744436563,-0.087646484,-0.81573486,0.5841675,-0.609375,-0.890625,0.796875
201,1695744436603,-0.07910156,-0.83599854,0.6088257,-0.328125,-0.65625,0.90625
202,1695744436643,-0.087646484,-0.8237915,0.59832764,-0.3125,-0.5,0.421875
203,1695744436683,-0.08642578,-0.8128052,0.59490967,-0.15625,-0.96875,0.0625
204,1695744436723,-0.091552734,-0.8233032,0.59490967,-0.484375,-1.125,0.328125
205,1695744436763,-0.08227539,-0.83184814,0.59832764,-0.28125,-1.40625,0.171875
206,1695744436803,-0.08618164,-0.8196411,0.60443115,0.0,-1.5625,-0.375
207,1695744436843,-0.083496094,-0.83428955,0.5963745,1.046875,-2.296875,-0.421875
208,1695744436883,-0.08959961,-0.8389282,0.5932007,0.609375,-2.96875,-0.921875
209,1695744436923,-0.08666992,-0.83673096,0.60736084,-0.078125,-3.109375,-1.625
210,1695744436963,-0.09277344,-0.83380127,0.5975952,-0.125,-3.21875,-2.328125
211,1695744437003,-0.103759766,-0.8245239,0.59539795,0.078125,-3.359375,-1.6875
212,1695744437043,-0.09863281,-0.82159424,0.5639038,0.828125,-1.75,-1.625
213,1695744437083,-0.10131836,-0.83013916,0.5619507,3.296875,-1.75,-1.546875
214,1695744437123,-0.10449219,-0.8357544,0.5922241,1.3125,-0.03125,-0.484375
215,1695744437163,-0.11010742,-0.83184814,0.60858154,0.078125,-0.453125,-0.171875
216,1695744437203,-0.118896484,-0.8357544,0.5853882,-1.140625,-0.328125,-0.109375
217,1695744437243,-0.12207031,-0.8399048,0.5739136,0.0625,-0.828125,-0.25
218,1695744437283,-0.115722656,-0.8340454,0.5836792,-0.296875,-0.1875,0.09375
219,1695744437323,-0.109375,-0.8345337,0.58587646,-0.140625,0.625,-0.109375
220,1695744437363,-0.119384766,-0.8320923,0.59710693,0.21875,0.3125,-0.015625
221,1695744437403,-0.099365234,-0.84503174,0.59051514,-0.40625,1.015625,-0.765625
222,1695744437443,-0.10913086,-0.835022,0.5836792,0.3125,1.0625,-0.578125
223,1695744437483,-0.114746094,-0.82525635,0.5829468,-0.078125,-0.40625,-1.328125
224,1695744437523,-0.10473633,-0.8386841,0.58099365,-0.984375,0.546875,-1.1875
225,1695744437563,-0.10986328,-0.8291626,0.5795288,-1.375,0.796875,-0.34375
226,1695744437603,-0.103027344,-0.82818604,0.5934448,-1.46875,-0.53125,-0.328125
227,1695744437643,-0.103027344,-0.83380127,0.5807495,-0.984375,-0.25,0.0625
228,1695744437683,-0.111572266,-0.83306885,0.586853,0.0625,-1.359375,0.34375
229,1695744437723,-0.11328125,-0.8303833,0.5895386,-1.046875,-0.484375,0.671875
230,1695744437763,-0.12158203,-0.82598877,0.60272217,-0.515625,-1.03125,0.71875
231,1695744437803,-0.12475586,-0.83428955,0.5973511,-1.015625,-0.640625,-0.546875
232,1695744437843,-0.11206055,-0.8250122,0.59002686,-0.03125,0.375,-0.65625
233,1695744437883,-0.10644531,-0.8323364,0.60931396,0.421875,2.015625,-0.390625
234,1695744437923,-0.11279297,-0.8345337,0.5988159,-0.875,2.484375,-0.953125
235,1695744437963,-0.1171875,-0.8279419,0.5956421,-1.90625,2.515625,-0.375
236,1695744438003,-0.114746094,-0.81817627,0.61395264,-2.578125,2.546875,0.046875
237,1695744438043,-0.11352539,-0.82354736,0.61273193,-3.03125,1.921875,-0.1875
238,1695744438083,-0.11010742,-0.82354736,0.6022339,-2.34375,1.265625,-0.625
239,1695744438123,-0.10473633,-0.81500244,0.60150146,-2.078125,0.875,-1.265625
240,1695744438163,-0.109375,-0.80914307,0.60198975,-1.921875,0.765625,-0.921875
241,1695744438203,-0.11645508,-0.8218384,0.62127686,-1.015625,0.328125,-0.9375
242,1695744438243,-0.10498047,-0.81256104,0.6259155,-1.640625,0.484375,-0.90625
243,1695744438283,-0.103027344,-0.8076782,0.61834717,-0.484375,-0.609375,-0.796875
244,1695744438323,-0.1184082,-0.8032837,0.61834717,-0.375,-1.03125,-0.421875
245,1695744438363,-0.11376953,-0.8152466,0.6259155,-0.640625,-1.078125,-0.359375
246,1695744438403,-0.11669922,-0.81427,0.60931396,-1.75,-1.265625,-1.015625
247,1695744438443,-0.11791992,-0.8147583,0.6078491,-1.203125,-0.65625,-0.859375
248,1695744438483,-0.12573242,-0.81573486,0.63031006,-0.671875,-0.65625,-0.65625
249,1695744438523,-0.12084961,-0.80548096,0.6220093,-1.03125,-0.5,-0.515625
250,1695744438563,-0.11767578,-0.80963135,0.62127686,0.125,-0.46875,-0.546875
251,1695744438603,-0.12133789,-0.80133057,0.6251831,0.328125,-0.8125,-0.8125
252,1695744438643,-0.122558594,-0.8057251,0.61517334,-0.3125,-1.21875,0.28125
253,1695744438683,-0.12524414,-0.8128052,0.61639404,-0.296875,-0.015625,0.640625
254,1695744438723,-0.13012695,-0.8118286,0.6124878,0.265625,0.328125,-0.03125
255,1695744438763,-0.122558594,-0.8081665,0.6107788,-0.03125,0.59375,0.46875
256,1695744438803,-0.119628906,-0.80670166,0.6156616,-1.140625,1.53125,0.515625
257,1695744438843,-0.119628906,-0.7991333,0.60858154,-0.203125,0.515625,0.640625
258,1695744438883,-0.11621094,-0.80426025,0.6286011,-0.09375,0.3125,0.890625
259,1695744438923,-0.11791992,-0.8069458,0.6383667,-0.328125,1.046875,1.53125
260,1695744438963,-0.11401367,-0.80963135,0.6286011,-0.03125,0.34375,0.46875
261,1695744439003,-0.118652344,-0.80426025,0.6207886,0.1875,0.796875,0.125
262,1695744439043,-0.123046875,-0.80181885,0.6281128,1.265625,1.453125,0.640625
263,1695744439083,-0.12402344,-0.8140259,0.6376343,0.609375,1.8125,-0.421875
264,1695744439123,-0.099609375,-0.81451416,0.607605,0.796875,3.015625,-0.75
265,1695744439163,-0.10229492,-0.80255127,0.607605,1.703125,2.796875,-1.34375
266,1695744439203,-0.092041016,-0.80963135,0.61761475,3.671875,2.203125,-0.953125
267,1695744439243,-0.09643555,-0.82110596,0.6359253,2.8125,2.625,-0.25
268,1695744439283,-0.10546875,-0.80841064,0.61151123,1.96875,2.125,-0.265625
269,1695744439323,-0.099121094,-0.7998657,0.60321045,0.984375,1.484375,-0.359375
270,1695744439363,-0.1003418,-0.8213501,0.61273193,1.171875,1.46875,-0.1875
271,1695744439403,-0.091308594,-0.817688,0.62323,0.328125,1.1875,0.09375
272,1695744439443,-0.10913086,-0.81573486,0.59954834,0.296875,0.734375,0.578125
273,1695744439483,-0.10571289,-0.8184204,0.6022339,0.765625,0.484375,0.484375
274,1695744439523,-0.09667969,-0.8340454,0.619812,1.671875,-0.21875,0.5625
275,1695744439563,-0.08886719,-0.83013916,0.6066284,0.359375,0.03125,-0.140625
276,1695744439603,-0.100097656,-0.80914307,0.5790405,0.65625,-0.78125,0.09375
277,1695744439643,-0.09399414,-0.8225708,0.60443115,2.046875,-1.609375,0.1875
278,1695744439683,-0.09667969,-0.82696533,0.61273193,0.5,-0.609375,0.453125
279,1695744439723,-0.09863281,-0.8284302,0.6178589,0.15625,-0.390625,0.5625
280,1695744439763,-0.10205078,-0.8093872,0.5956421,-0.453125,-1.015625,0.265625
281,1695744439803,-0.09277344,-0.8308716,0.5963745,-0.484375,-0.953125,0.328125
282,1695744439843,-0.09863281,-0.81915283,0.5968628,-0.96875,-1.46875,0.8125
283,1695744439883,-0.103759766,-0.8086548,0.59246826,-1.890625,-3.15625,0.53125
284,1695744439923,-0.095947266,-0.82354736,0.62176514,-0.859375,-3.765625,0.40625
285,1695744439963,-0.09692383,-0.8274536,0.6166382,-1.125,-2.65625,0.3125
286,1695744440003,-0.1027832,-0.8196411,0.60198975,-0.359375,-2.109375,0.09375
287,1695744440043,-0.10180664,-0.8213501,0.59661865,-0.890625,-0.890625,0.546875
288,1695744440083,-0.10864258,-0.8262329,0.6090698,0.84375,-0.9375,0.515625
289,1695744440123,-0.10546875,-0.82159424,0.6166382,-0.65625,0.15625,0.140625
290,1695744440163,-0.1105957,-0.8115845,0.59710693,0.359375,0.40625,0.125
291,1695744440203,-0.103759766,-0.81451416,0.604187,0.625,-0.03125,0.296875
292,1695744440243,-0.092285156,-0.81744385,0.6078491,0.078125,0.28125,0.265625
293,1695744440283,-0.10229492,-0.83135986,0.6100464,-0.078125,0.671875,-0.109375
294,1695744440323,-0.10058594,-0.8140259,0.60931396,0.328125,0.203125,-0.265625
295,1695744440363,-0.1027832,-0.82232666,0.5968628,-0.09375,0.109375,0.03125
296,1695744440403,-0.10522461,-0.83184814,0.60614014,-0.171875,0.28125,-0.0625
297,1695744440443,-0.11791992,-0.82354736,0.6119995,0.125,-0.015625,-0.09375
298,1695744440483,-0.1015625,-0.81329346,0.60614014,-0.71875,0.578125,-1.03125
299,1695744440523,-0.1003418,-0.8233032,0.60369873,0.03125,0.671875,-0.390625
300,1695744440563,-0.10913086,-0.8152466,0.60491943,0.1875,0.125,-0.421875
301,1695744440603,-0.107177734,-0.82037354,0.5968628,-0.375,0.96875,-0.125
302,1695744440643,-0.1081543,-0.8262329,0.60980225,0.15625,0.765625,-0.234375
303,1695744440683,-0.10131836,-0.82354736,0.60931396,-0.4375,1.375,-0.609375
304,1695744440723,-0.10620117,-0.81085205,0.59198,0.28125,0.6875,-0.28125
305,1695744440763,-0.10424805,-0.8237915,0.60980225,0.234375,0.34375,-0.234375
306,1695744440803,-0.09716797,-0.8184204,0.6102905,0.484375,0.609375,-0.421875
307,1695744440843,-0.1027832,-0.82232666,0.61151123,0.5,0.703125,-0.1875
308,1695744440883,-0.107177734,-0.8201294,0.60443115,0.3125,-0.3125,0.09375
309,1695744440923,-0.096191406,-0.8220825,0.605896,0.65625,0.03125,-0.25
310,1695744440963,-0.099853516,-0.8184204,0.5914917,0.71875,0.046875,-0.25
311,1695744441003,-0.099609375,-0.8272095,0.60198975,0.703125,0.15625,-0.15625
312,1695744441043,-0.10449219,-0.8245239,0.59832764,1.734375,0.5625,-0.5
313,1695744441083,-0.099365234,-0.8208618,0.604187,1.0,0.171875,-0.359375
314,1695744441123,-0.10546875,-0.8201294,0.5914917,0.8125,-0.0625,-0.53125
315,1695744441163,-0.10644531,-0.81744385,0.5922241,0.609375,-0.28125,-0.265625
316,1695744441203,-0.107910156,-0.83306885,0.6129761,0.09375,-0.265625,-0.078125
317,1695744441243,-0.107177734,-0.8340454,0.5956421,-0.703125,0.375,-0.859375
318,1695744441283,-0.10253906,-0.8164673,0.58880615,0.953125,-0.21875,-0.359375
319,1695744441323,-0.103759766,-0.82159424,0.59490967,-0.40625,-0.234375,-0.375
320,1695744441363,-0.09667969,-0.8323364,0.605896,-0.8125,0.3125,-0.234375
321,1695744441403,-0.10620117,-0.8076782,0.59783936,0.78125,-0.59375,-0.671875
322,1695744441443,-0.114746094,-0.8311157,0.60076904,0.46875,-1.828125,-0.5
323,1695744441483,-0.1159668,-0.8413696,0.6117554,-0.734375,-1.703125,-0.875
324,1695744441523,-0.1015625,-0.82476807,0.60736084,-1.671875,-1.875,-2.609375
325,1695744441563,-0.11352539,-0.80596924,0.61224365,-1.265625,-1.921875,-3.40625
326,1695744441603,-0.118896484,-0.79937744,0.5946655,-3.5625,-1.21875,-2.546875
327,1695744441643,-0.1171875,-0.8074341,0.59051514,-5.71875,1.078125,-0.640625
328,1695744441683,-0.13793945,-0.8118286,0.57562256,-2.375,1.421875,-0.53125
329,1695744441723,-0.123046875,-0.8230591,0.6322632,-1.4375,-0.109375,-0.59375
330,1695744441763,-0.12231445,-0.81622314,0.64764404,-2.078125,0.8125,0.234375
331,1695744441803,-0.11645508,-0.8045044,0.60076904,-1.578125,-0.484375,-0.671875
332,1695744441843,-0.12207031,-0.81500244,0.6124878,-1.375,-1.484375,0.046875
333,1695744441883,-0.1184082,-0.7974243,0.6154175,-0.4375,-1.015625,0.171875
334,1695744441923,-0.12573242,-0.80914307,0.61639404,0.53125,-0.46875,0.421875
335,1695744441963,-0.122558594,-0.8267212,0.62493896,0.8125,-0.609375,0.484375
336,1695744442003,-0.11816406,-0.81573486,0.62298584,0.9375,0.53125,0.09375
337,1695744442043,-0.1171875,-0.802063,0.6088257,0.828125,-0.625,-0.375
338,1695744442083,-0.1237793,-0.8272095,0.62786865,1.4375,-0.625,0.484375
339,1695744442123,-0.123046875,-0.81134033,0.62298584,0.78125,0.203125,-0.03125
340,1695744442163,-0.122558594,-0.8147583,0.607605,0.984375,0.140625,-0.28125
341,1695744442203,-0.12426758,-0.8081665,0.61883545,0.734375,0.21875,-0.3125
342,1695744442243,-0.12719727,-0.8052368,0.6149292,0.40625,0.734375,-0.34375
343,1695744442283,-0.12915039,-0.8147583,0.61932373,-0.21875,1.484375,-0.078125
344,1695744442323,-0.119384766,-0.8152466,0.6195679,0.453125,1.625,-0.734375
345,1695744442363,-0.13134766,-0.8057251,0.6117554,0.1875,1.265625,-0.484375
346,1695744442403,-0.12451172,-0.80059814,0.6107788,-0.21875,0.46875,-0.328125
347,1695744442443,-0.12011719,-0.8279419,0.6154175,-0.390625,1.125,-0.0625
348,1695744442483,-0.1184082,-0.81744385,0.62176514,0.15625,0.171875,-0.796875
349,1695744442523,-0.11010742,-0.8010864,0.61639404,0.34375,0.109375,-0.890625
350,1695744442563,-0.109375,-0.8147583,0.5956421,-0.890625,0.296875,0.1875
351,1695744442603,-0.1328125,-0.8152466,0.6366577,1.375,-0.546875,-0.046875
352,1695744442643,-0.11010742,-0.8291626,0.6466675,0.21875,3.65625,-0.515625
353,1695744442683,-0.12792969,-0.8110962,0.6088257,0.15625,3.140625,-0.28125
354,1695744442723,-0.10229492,-0.80255127,0.6132202,0.46875,3.21875,-0.546875
355,1695744442763,-0.119384766,-0.8093872,0.60809326,-0.734375,2.984375,0.390625
356,1695744442803,-0.11035156,-0.8225708,0.6117554,0.0625,1.296875,-0.25
357,1695744442843,-0.09887695,-0.8118286,0.607605,0.125,1.40625,-0.25
358,1695744442883,-0.09790039,-0.8027954,0.60931396,0.46875,0.953125,-0.234375
359,1695744442923,-0.12109375,-0.8230591,0.6112671,-0.890625,0.484375,0.390625
360,1695744442963,-0.12207031,-0.8213501,0.6400757,0.515625,-1.0625,0.09375
361,1695744443003,-0.11035156,-0.82281494,0.6203003,-0.890625,0.453125,-0.34375
362,1695744443043,-0.12207031,-0.8171997,0.6210327,0.140625,-0.765625,-0.421875
363,1695744443083,-0.11230469,-0.8081665,0.6107788,-1.078125,-0.65625,-1.1875
364,1695744443123,-0.09765625,-0.8086548,0.5993042,-1.71875,-0.09375,-0.546875
365,1695744443163,-0.10913086,-0.8220825,0.619812,-1.46875,-0.1875,-0.28125
366,1695744443203,-0.12084961,-0.81573486,0.6293335,-1.359375,-0.1875,1.140625
367,1695744443243,-0.12133789,-0.833313,0.6412964,-1.9375,0.359375,1.53125
368,1695744443283,-0.1159668,-0.8272095,0.6259155,-1.5625,1.875,1.84375
369,1695744443323,-0.09399414,-0.7979126,0.6268921,-0.359375,-0.609375,2.453125
370,1695744443363,-0.08886719,-0.80670166,0.60931396,-0.5,-0.390625,3.171875
371,1695744443403,-0.08569336,-0.8088989,0.59368896,1.203125,0.03125,4.296875
372,1695744443443,-0.09008789,-0.8057251,0.6132202,1.296875,1.1875,3.671875
373,1695744443483,-0.09277344,-0.8230591,0.621521,-1.265625,1.609375,2.671875
374,1695744443523,-0.0859375,-0.7974243,0.63079834,-1.796875,0.34375,1.546875
375,1695744443563,-0.076171875,-0.80548096,0.6403198,-2.609375,-0.28125,0.609375
376,1695744443603,-0.072265625,-0.79815674,0.6317749,-2.734375,0.046875,0.015625
377,1695744443643,-0.09277344,-0.80010986,0.6342163,-2.84375,-1.078125,-0.296875
378,1695744443683,-0.088134766,-0.7966919,0.64105225,-2.40625,-1.296875,-0.828125
379,1695744443723,-0.08203125,-0.7996216,0.62713623,-1.46875,-1.171875,-0.640625
380,1695744443763,-0.0847168,-0.79400635,0.6264038,-0.359375,-1.34375,-1.5625
381,1695744443803,-0.09814453,-0.7908325,0.63812256,-0.734375,0.078125,-1.484375
382,1695744443843,-0.08105469,-0.8008423,0.62127686,-1.59375,0.546875,-0.984375
383,1695744443883,-0.099853516,-0.7852173,0.6251831,-0.140625,-0.734375,-0.09375
384,1695744443923,-0.10595703,-0.78009033,0.6539917,2.921875,-1.6875,-0.75
385,1695744443963,-0.10620117,-0.81134033,0.66815186,1.921875,-0.625,-1.015625
386,1695744444003,-0.107910156,-0.80303955,0.6256714,4.875,-0.390625,-0.640625
387,1695744444043,-0.103027344,-0.79473877,0.63861084,5.0625,0.0,-0.1875
388,1695744444083,-0.09692383,-0.81622314,0.6334839,2.578125,1.71875,0.296875
389,1695744444123,-0.095458984,-0.8179321,0.6156616,3.0625,1.0625,0.15625
390,1695744444163,-0.083496094,-0.8230591,0.6102905,2.0,0.9375,-0.046875
391,1695744444203,-0.083984375,-0.8115845,0.6095581,-0.40625,0.8125,-0.359375
392,1695744444243,-0.09106445,-0.80963135,0.604187,1.5625,-0.171875,0.78125
393,1695744444283,-0.08325195,-0.80914307,0.61224365,1.703125,-0.84375,-0.03125
394,1695744444323,-0.091308594,-0.8167114,0.5985718,0.90625,-0.96875,0.609375
395,1695744444363,-0.09692383,-0.8237915,0.63861084,0.3125,-0.890625,0.8125
396,1695744444403,-0.104003906,-0.8049927,0.61761475,-0.53125,-0.875,0.203125
397,1695744444443,-0.1081543,-0.8147583,0.637146,4.953125,-1.796875,0.859375
398,1695744444483,-0.095458984,-0.83917236,0.58709717,4.921875,-0.5625,1.234375
399,1695744444523,-0.084228516,-0.8196411,0.57366943,5.0625,-1.046875,-0.75
400,1695744444563,-0.095703125,-0.82696533,0.57196045,1.390625,-1.671875,0.75
401,1695744444603,-0.08935547,-0.833313,0.59588623,-4.65625,2.6875,-0.6875
402,1695744444643,-0.08251953,-0.8242798,0.5536499,-7.75,4.171875,-2.4375
403,1695744444683,-0.10522461,-0.82281494,0.62005615,-3.1875,2.890625,-2.34375
404,1695744444723,-0.080566406,-0.80914307,0.6178589,-6.6875,5.6875,-3.71875
405,1695744444763,-0.09765625,-0.8167114,0.64471436,-0.703125,2.921875,-3.890625
406,1695744444803,-0.115722656,-0.8267212,0.651062,0.171875,1.390625,-4.75
407,1695744444843,-0.1171875,-0.8518677,0.6222534,-2.046875,4.046875,-4.828125
408,1695744444883,-0.055908203,-0.79351807,0.5375366,-5.203125,5.3125,-3.171875
409,1695744444923,-0.032470703,-0.7781372,0.5932007,-1.984375,5.765625,-1.28125
410,1695744444963,-0.0703125,-0.8049927,0.6063843,-3.140625,1.46875,2.25
411,1695744445003,-0.07324219,-0.80426025,0.6954956,5.390625,-3.421875,0.5625
412,1695744445043,-0.088378906,-0.8550415,0.67059326,1.53125,-3.328125,1.40625
413,1695744445083,-0.11743164,-0.8088989,0.64398193,3.90625,-3.9375,1.984375
414,1695744445123,-0.125,-0.7490845,0.61273193,3.046875,-4.984375,0.125
415,1695744445163,-0.08618164,-0.7996216,0.6066284,1.03125,-1.53125,1.953125
416,1695744445203,-0.088134766,-0.8237915,0.61224365,3.140625,-1.625,2.015625
417,1695744445243,-0.10498047,-0.81573486,0.6268921,2.0,-0.3125,1.796875
418,1695744445283,-0.14038086,-0.79156494,0.6210327,0.78125,-0.40625,2.046875
419,1695744445323,-0.107910156,-0.81134033,0.61932373,0.4375,-0.0625,-0.265625
420,1695744445363,-0.08544922,-0.8123169,0.64593506,3.015625,1.671875,-0.484375
421,1695744445403,-0.07543945,-0.82110596,0.6334839,3.8125,2.0625,-0.03125
422,1695744445443,-0.09106445,-0.80841064,0.6005249,1.875,1.59375,-0.09375
423,1695744445483,-0.08862305,-0.81915283,0.60736084,2.234375,0.890625,0.375
424,1695744445523,-0.088134766,-0.8245239,0.6090698,1.046875,-0.546875,0.546875
425,1695744445563,-0.10546875,-0.8220825,0.602478,-0.9375,-0.515625,-0.15625
426,1695744445603,-0.111328125,-0.817688,0.5946655,1.078125,-1.34375,-1.09375
427,1695744445643,-0.10180664,-0.7971802,0.60150146,0.546875,0.140625,-0.625
428,1695744445683,-0.09423828,-0.815979,0.62005615,0.1875,-1.078125,-0.828125
429,1695744445723,-0.08105469,-0.8291626,0.6244507,-1.234375,-1.296875,-0.53125
430,1695744445763,-0.0925293,-0.8171997,0.59124756,-1.390625,-2.859375,-1.0
431,1695744445803,-0.09741211,-0.82037354,0.58026123,-0.578125,-2.0625,-1.09375
432,1695744445843,-0.09472656,-0.82110596,0.61273193,-1.234375,-0.25,-0.40625
433,1695744445883,-0.08666992,-0.8291626,0.6088257,-0.6875,0.859375,-0.953125
434,1695744445923,-0.10864258,-0.83013916,0.6129761,-1.25,1.703125,-1.65625
435,1695744445963,-0.114990234,-0.8098755,0.5848999,0.046875,2.4375,-1.203125
436,1695744446003,-0.08886719,-0.83306885,0.6029663,2.0625,0.96875,-0.671875
437,1695744446043,-0.092285156,-0.84820557,0.62371826,0.734375,1.859375,0.328125
438,1695744446083,-0.1159668,-0.79278564,0.6132202,1.765625,0.578125,-0.8125
439,1695744446123,-0.10522461,-0.8088989,0.62420654,-1.0625,1.34375,-0.3125
440,1695744446163,-0.09692383,-0.8430786,0.6100464,-0.15625,-0.046875,-0.828125
441,1695744446203,-0.09350586,-0.82403564,0.5939331,-0.640625,-0.65625,-0.015625
442,1695744446243,-0.103271484,-0.7966919,0.5726929,-0.5,-1.234375,0.21875
443,1695744446283,-0.091796875,-0.8184204,0.58587646,0.828125,-0.515625,-0.484375
444,1695744446323,-0.095703125,-0.8460083,0.60491943,1.453125,-0.078125,0.515625
445,1695744446363,-0.10424805,-0.817688,0.6000366,0.484375,-0.6875,0.015625
446,1695744446403,-0.10644531,-0.8196411,0.6149292,1.484375,0.828125,0.15625
447,1695744446443,-0.10913086,-0.84088135,0.6124878,0.0,1.0,0.125
448,1695744446483,-0.09863281,-0.83599854,0.60931396,0.21875,1.0625,-1.1875
449,1695744446523,-0.09448242,-0.8154907,0.5795288,0.140625,1.234375,-1.046875
450,1695744446563,-0.09790039,-0.8110962,0.60076904,-0.640625,0.59375,0.0625
451,1695744446603,-0.092041016,-0.8308716,0.6129761,-2.03125,0.859375,0.75
452,1695744446643,-0.103027344,-0.8381958,0.6166382,-2.53125,0.71875,0.65625
453,1695744446683,-0.111572266,-0.81085205,0.6039429,-1.703125,0.125,-1.0625
454,1695744446723,-0.10668945,-0.81256104,0.5841675,-0.71875,1.234375,-0.640625
455,1695744446763,-0.09472656,-0.81573486,0.6207886,0.640625,1.6875,-0.03125
456,1695744446803,-0.08154297,-0.8352661,0.6268921,-1.796875,1.359375,-1.515625
457,1695744446843,-0.08886719,-0.81695557,0.59710693,-1.15625,-0.03125,-0.890625
458,1695744446883,-0.09082031,-0.8171997,0.61712646,-1.78125,0.046875,-1.140625
459,1695744446923,-0.087646484,-0.8335571,0.6063843,-0.71875,2.015625,-0.234375
460,1695744446963,-0.1027832,-0.8154907,0.5988159,-0.765625,-0.046875,-1.015625
461,1695744447003,-0.10107422,-0.8052368,0.60736084,-0.921875,1.515625,-0.328125
462,1695744447043,-0.10888672,-0.8220825,0.6264038,0.203125,0.8125,-0.03125
463,1695744447083,-0.095947266,-0.8218384,0.6246948,-0.734375,0.296875,-1.21875
464,1695744447123,-0.083984375,-0.80914307,0.6166382,-0.953125,0.234375,-0.5
465,1695744447163,-0.078125,-0.82354736,0.61932373,-0.625,-1.625,0.703125
466,1695744447203,-0.08569336,-0.8154907,0.6119995,-0.84375,-2.296875,1.484375
467,1695744447243,-0.091308594,-0.817688,0.619812,-1.359375,-1.96875,1.421875
468,1695744447283,-0.11206055,-0.80474854,0.60736084,0.265625,-1.625,0.484375
469,1695744447323,-0.1184082,-0.8010864,0.6012573,0.0,-0.625,0.125
470,1695744447363,-0.119628906,-0.81256104,0.62908936,0.75,1.15625,-0.34375
471,1695744447403,-0.0871582,-0.80792236,0.62420654,0.4375,1.5,-1.03125
472,1695744447443,-0.07421875,-0.80914307,0.6149292,0.359375,0.640625,0.046875
473,1695744447483,-0.08935547,-0.81500244,0.63275146,-0.21875,-0.859375,-0.359375
474,1695744447523,-0.1015625,-0.8027954,0.6034546,-1.21875,-0.921875,-0.6875
475,1695744447563,-0.111328125,-0.8015747,0.6083374,1.734375,-0.171875,-0.046875
476,1695744447603,-0.09301758,-0.8206177,0.6298218,0.78125,0.78125,-0.40625
477,1695744447643,-0.091796875,-0.8154907,0.62957764,-0.140625,1.640625,0.03125
478,1695744447683,-0.088378906,-0.7984009,0.61102295,0.921875,-0.3125,0.015625
479,1695744447723,-0.09033203,-0.81134033,0.61834717,0.421875,-0.34375,0.125
480,1695744447763,-0.09375,-0.82647705,0.60858154,0.6875,-0.09375,-0.015625
481,1695744447803,-0.08325195,-0.80963135,0.619812,2.03125,0.03125,-0.09375
482,1695744447843,-0.10571289,-0.82598877,0.62542725,-0.734375,0.796875,0.375
483,1695744447883,-0.10498047,-0.81744385,0.59832764,1.984375,-0.203125,0.28125
484,1695744447923,-0.095458984,-0.83428955,0.6273804,0.875,1.171875,0.171875
485,1695744447963,-0.09301758,-0.8206177,0.6129761,0.609375,1.734375,0.328125
486,1695744448003,-0.08886719,-0.8123169,0.6207886,1.40625,-0.734375,0.453125
487,1695744448043,-0.08862305,-0.8081665,0.61590576,-0.59375,0.34375,-0.46875
488,1695744448083,-0.09301758,-0.8123169,0.6083374,1.03125,-0.296875,-0.28125
489,1695744448123,-0.09741211,-0.82037354,0.6078491,0.1875,1.109375,-0.046875
490,1695744448163,-0.1027832,-0.8242798,0.6005249,0.46875,0.640625,0.296875
491,1695744448203,-0.08911133,-0.81915283,0.6227417,0.96875,0.40625,-0.09375
492,1695744448243,-0.0871582,-0.81744385,0.61761475,0.015625,0.109375,-0.234375
493,1695744448283,-0.088378906,-0.81866455,0.5939331,1.0,-0.59375,0.234375
494,1695744448323,-0.099121094,-0.8049927,0.5993042,1.3125,-0.3125,0.953125
495,1695744448363,-0.104003906,-0.83795166,0.62957764,0.734375,-0.53125,0.0
496,1695744448403,-0.084228516,-0.8225708,0.6293335,-0.703125,0.046875,-0.703125
497,1695744448443,-0.09814453,-0.8154907,0.55389404,-1.109375,-1.484375,-0.390625
498,1695744448483,-0.06542969,-0.81744385,0.6017456,-1.46875,0.640625,0.515625
499,1695744448523,-0.080322266,-0.8386841,0.6010132,-2.515625,-0.65625,0.359375
500,1695744448563,-0.09008789,-0.8010864,0.590271,-0.046875,-1.109375,-1.375
501,1695744448603,-0.103515625,-0.7932739,0.6034546,-0.234375,-1.171875,-0.6875
502,1695744448643,-0.09423828,-0.8440552,0.6317749,-0.21875,1.03125,0.734375
503,1695744448683,-0.08959961,-0.81988525,0.59198,-0.140625,0.0625,-0.046875
504,1695744448723,-0.083740234,-0.81451416,0.6090698,-0.359375,0.28125,-0.296875
505,1695744448763,-0.10449219,-0.815979,0.60321045,-0.15625,-0.5625,0.03125
506,1695744448803,-0.095947266,-0.8369751,0.6132202,-0.921875,0.515625,-0.25
507,1695744448843,-0.0859375,-0.83551025,0.5907593,-0.21875,1.40625,0.0625
508,1695744448883,-0.08691406,-0.8081665,0.6246948,2.15625,0.703125,-0.640625
509,1695744448923,-0.088134766,-0.8010864,0.62298584,1.1875,0.671875,-0.125
510,1695744448963,-0.09106445,-0.8242798,0.6173706,0.78125,-0.546875,0.015625
511,1695744449003,-0.09399414,-0.8123169,0.5985718,0.203125,-0.71875,-0.484375
512,1695744449043,-0.099609375,-0.82525635,0.6244507,-0.328125,0.4375,-0.125
513,1695744449083,-0.09692383,-0.8196411,0.6156616,0.359375,0.125,-0.234375
514,1695744449123,-0.08666992,-0.83062744,0.6012573,-1.125,-0.234375,-0.046875
515,1695744449163,-0.08227539,-0.81988525,0.6090698,-0.578125,-0.6875,-0.34375
516,1695744449203,-0.100097656,-0.81085205,0.6051636,-1.21875,0.125,0.46875
517,1695744449243,-0.10668945,-0.81329346,0.6034546,-0.8125,-0.03125,-0.109375
518,1695744449283,-0.096191406,-0.8279419,0.63397217,-0.4375,1.484375,-0.546875
519,1695744449323,-0.100097656,-0.82110596,0.6207886,-0.296875,1.6875,-1.53125
520,1695744449363,-0.09838867,-0.8074341,0.6000366,0.8125,1.09375,-1.25
521,1695744449403,-0.0847168,-0.8218384,0.6071167,-0.421875,1.59375,-0.265625
522,1695744449443,-0.08569336,-0.8242798,0.6190796,-0.4375,1.28125,-0.375
523,1695744449483,-0.095703125,-0.8093872,0.60150146,0.46875,-0.15625,-0.59375
524,1695744449523,-0.09741211,-0.80963135,0.61151123,0.46875,0.15625,-0.59375
525,1695744449563,-0.08959961,-0.8272095,0.63201904,-0.046875,2.046875,0.015625
526,1695744449603,-0.08105469,-0.81915283,0.61053467,-0.6875,1.09375,-0.75
527,1695744449643,-0.099121094,-0.82037354,0.6090698,-0.078125,0.0,-0.265625
528,1695744449683,-0.087646484,-0.81915283,0.6207886,-0.78125,0.5,-0.328125
529,1695744449723,-0.09008789,-0.80792236,0.6234741,-0.203125,0.625,-0.1875
530,1695744449763,-0.091796875,-0.81329346,0.6227417,-0.390625,0.78125,-0.296875
531,1695744449803,-0.0847168,-0.81085205,0.6364136,-0.4375,1.359375,-0.078125
532,1695744449843,-0.083496094,-0.8220825,0.6137085,-0.75,0.90625,-0.453125
533,1695744449883,-0.08618164,-0.8074341,0.6112671,-0.328125,0.09375,-0.328125
534,1695744449923,-0.10180664,-0.8076782,0.6222534,-0.84375,0.78125,0.21875
535,1695744449963,-0.0925293,-0.81451416,0.63983154,-0.171875,1.09375,-0.578125
536,1695744450003,-0.08178711,-0.8098755,0.607605,-1.53125,0.96875,-0.96875
537,1695744450043,-0.07861328,-0.80352783,0.5878296,0.921875,-1.90625,0.046875
538,1695744450083,-0.092041016,-0.8218384,0.6737671,-1.546875,1.671875,0.21875
539,1695744450123,-0.09399414,-0.815979,0.621521,-1.28125,-0.234375,-0.84375
540,1695744450163,-0.08935547,-0.7979126,0.60687256,-0.578125,-1.265625,-1.265625
541,1695744450203,-0.10839844,-0.79937744,0.62957764,-0.1875,1.21875,0.0
542,1695744450243,-0.100097656,-0.8284302,0.64105225,0.359375,1.28125,-0.796875
543,1695744450283,-0.083740234,-0.81378174,0.61761475,-0.671875,0.453125,-1.328125
544,1695744450323,-0.08203125,-0.8049927,0.60809326,-0.3125,0.25,-0.96875
545,1695744450363,-0.0859375,-0.79571533,0.6112671,0.921875,-1.203125,-0.5625
546,1695744450403,-0.08984375,-0.81817627,0.6310425,-0.65625,-0.53125,-0.5
547,1695744450443,-0.09033203,-0.8213501,0.62957764,-1.28125,-0.71875,-0.4375
548,1695744450483,-0.095703125,-0.8123169,0.6190796,0.109375,-1.859375,-0.484375
549,1695744450523,-0.08300781,-0.80548096,0.63275146,-0.921875,-1.15625,-0.125
550,1695744450563,-0.09667969,-0.8135376,0.63690186,-0.765625,-0.828125,0.015625
551,1695744450603,-0.103759766,-0.7932739,0.6144409,-0.140625,-0.75,-1.0
552,1695744450643,-0.10864258,-0.7991333,0.638855,1.53125,0.59375,-0.390625
553,1695744450683,-0.107177734,-0.8076782,0.63323975,0.609375,0.765625,-1.390625
554,1695744450723,-0.09326172,-0.8040161,0.6119995,0.8125,-0.671875,-1.78125
555,1695744450763,-0.107910156,-0.80133057,0.6442261,1.515625,-0.25,-0.8125
556,1695744450803,-0.10180664,-0.8074341,0.6227417,-0.25,0.28125,-0.28125
557,1695744450843,-0.092285156,-0.82159424,0.62298584,1.015625,1.84375,-0.203125
558,1695744450883,-0.114746094,-0.80792236,0.61639404,2.28125,1.171875,-0.296875
559,1695744450923,-0.1027832,-0.8052368,0.61102295,1.296875,1.6875,-1.09375
560,1695744450963,-0.103515625,-0.82110596,0.6293335,-0.3125,2.6875,-0.796875
561,1695744451003,-0.10595703,-0.7962036,0.6005249,0.78125,1.109375,-1.328125
562,1695744451043,-0.08984375,-0.817688,0.6117554,0.078125,0.8125,-0.484375
563,1695744451083,-0.09790039,-0.81622314,0.6227417,2.359375,0.515625,-0.890625
564,1695744451123,-0.088134766,-0.8135376,0.6066284,1.734375,-1.28125,-0.734375
565,1695744451163,-0.09741211,-0.81329346,0.619812,0.078125,1.0625,0.484375
566,1695744451203,-0.10449219,-0.8098755,0.5856323,0.5625,-1.53125,-0.640625
567,1695744451243,-0.11035156,-0.81207275,0.605896,0.703125,-0.015625,-0.640625
568,1695744451283,-0.10864258,-0.8272095,0.62249756,0.8125,1.75,-0.015625
569,1695744451323,-0.10253906,-0.8208618,0.61395264,-0.625,1.15625,-0.828125
570,1695744451363,-0.09277344,-0.81134033,0.59710693,-0.078125,0.15625,-1.34375
571,1695744451403,-0.1027832,-0.815979,0.62323,0.71875,0.21875,-0.546875
572,1695744451443,-0.103759766,-0.83599854,0.61932373,-0.359375,-0.359375,0.09375
573,1695744451483,-0.10131836,-0.81451416,0.6051636,0.0,0.28125,-0.484375
574,1695744451523,-0.10449219,-0.8081665,0.5897827,0.640625,0.328125,-0.109375
575,1695744451563,-0.1027832,-0.8135376,0.621521,-0.015625,1.28125,0.203125
576,1695744451603,-0.10522461,-0.80914307,0.6000366,0.96875,1.109375,0.390625
577,1695744451643,-0.103515625,-0.8225708,0.607605,2.59375,-0.078125,0.4375
578,1695744451683,-0.087646484,-0.84381104,0.62908936,0.171875,2.265625,0.671875
579,1695744451723,-0.08886719,-0.8052368,0.57440186,2.109375,-1.046875,-0.015625
580,1695744451763,-0.1027832,-0.8179321,0.5993042,1.921875,-0.484375,0.9375
581,1695744451803,-0.10571289,-0.8237915,0.6124878,0.671875,1.34375,0.84375
582,1695744451843,-0.08251953,-0.82110596,0.58270264,0.34375,0.265625,-0.140625
583,1695744451883,-0.09692383,-0.8220825,0.5963745,1.203125,0.25,-0.296875
584,1695744451923,-0.10229492,-0.8296509,0.62249756,1.828125,0.921875,0.265625
585,1695744451963,-0.09716797,-0.83258057,0.6083374,1.890625,-0.25,0.125
586,1695744452003,-0.084228516,-0.83795166,0.6137085,-0.21875,0.484375,-0.46875
587,1695744452043,-0.072265625,-0.82110596,0.57806396,-0.484375,0.53125,-1.015625
588,1695744452083,-0.09033203,-0.81134033,0.5751343,0.78125,-0.421875,0.15625
589,1695744452123,-0.09277344,-0.82769775,0.6071167,0.9375,0.40625,0.28125
590,1695744452163,-0.095703125,-0.8467407,0.5897827,-1.46875,0.484375,-0.46875
591,1695744452203,-0.08569336,-0.8225708,0.5819702,-0.296875,-0.015625,-0.3125
592,1695744452243,-0.099365234,-0.8230591,0.62127686,0.109375,1.609375,0.171875
593,1695744452283,-0.0871582,-0.82818604,0.58880615,-0.71875,0.1875,-0.609375
594,1695744452323,-0.08227539,-0.83380127,0.5907593,0.0,0.4375,-0.09375
595,1695744452363,-0.095947266,-0.82037354,0.5961304,0.5625,0.28125,-0.328125
596,1695744452403,-0.08544922,-0.8171997,0.58758545,0.0,-0.078125,-0.28125
597,1695744452443,-0.09423828,-0.8303833,0.59588623,-0.09375,-0.484375,-0.0625
598,1695744452483,-0.09082031,-0.8335571,0.6095581,0.421875,-0.46875,-0.875
599,1695744452523,-0.10449219,-0.8286743,0.6034546,-0.078125,0.90625,-0.765625
600,1695744452563,-0.09326172,-0.81427,0.57928467,0.71875,-0.03125,-0.859375
601,1695744452603,-0.09741211,-0.8357544,0.60272217,0.328125,0.109375,-0.328125
602,1695744452643,-0.08862305,-0.8272095,0.60565186,0.1875,1.28125,-1.078125
603,1695744452683,-0.10131836,-0.82354736,0.56536865,-0.203125,-0.5,-0.984375
604,1695744452723,-0.09326172,-0.82769775,0.58514404,-0.125,1.03125,0.0625
605,1695744452763,-0.08227539,-0.8364868,0.59588623,2.078125,-0.328125,-0.078125
606,1695744452803,-0.092285156,-0.84332275,0.6161499,0.015625,0.46875,0.359375
607,1695744452843,-0.103759766,-0.8230591,0.58709717,0.609375,-0.34375,-0.609375
608,1695744452883,-0.111083984,-0.82232666,0.5932007,0.921875,-0.984375,-0.671875
609,1695744452923,-0.09277344,-0.83184814,0.5993042,-0.171875,1.015625,-0.53125
610,1695744452963,-0.08618164,-0.8394165,0.5778198,0.96875,0.265625,-0.5
611,1695744453003,-0.08105469,-0.8257446,0.59710693,0.53125,-0.296875,0.140625
612,1695744453043,-0.09765625,-0.83428955,0.5973511,-0.53125,-0.484375,0.109375
613,1695744453083,-0.09082031,-0.82159424,0.5848999,-0.578125,-0.953125,0.375
614,1695744453123,-0.099121094,-0.829895,0.5946655,0.0,-0.828125,0.4375
615,1695744453163,-0.08862305,-0.82769775,0.59051514,0.390625,-0.6875,0.484375
616,1695744453203,-0.099609375,-0.8369751,0.5927124,0.1875,-0.5625,0.671875
617,1695744453243,-0.09375,-0.8257446,0.59002686,-0.171875,0.4375,0.375
618,1695744453283,-0.09887695,-0.8291626,0.59124756,0.375,0.640625,0.109375
619,1695744453323,-0.107910156,-0.833313,0.5861206,0.5,0.640625,-0.578125
620,1695744453363,-0.10253906,-0.8279419,0.5819702,0.734375,0.8125,-0.53125
621,1695744453403,-0.09765625,-0.83306885,0.5934448,1.0,0.953125,-0.796875
622,1695744453443,-0.079589844,-0.8335571,0.6034546,0.328125,1.171875,-0.65625
623,1695744453483,-0.08959961,-0.8320923,0.58758545,0.90625,0.0,-0.296875
624,1695744453523,-0.08618164,-0.835022,0.5841675,1.1875,-1.15625,-0.4375
625,1695744453563,-0.09863281,-0.8399048,0.6000366,-0.171875,0.34375,0.125
626,1695744453603,-0.091308594,-0.8311157,0.5775757,0.515625,-0.671875,-0.703125
627,1695744453643,-0.099853516,-0.83135986,0.58880615,-0.390625,-0.40625,-1.015625
628,1695744453683,-0.09667969,-0.83917236,0.58807373,-0.09375,0.453125,-0.484375
629,1695744453723,-0.08886719,-0.84039307,0.5741577,-0.46875,-0.1875,-0.1875
630,1695744453763,-0.09692383,-0.8267212,0.5800171,-1.171875,0.296875,-0.140625
631,1695744453803,-0.096191406,-0.8435669,0.6005249,-1.921875,1.125,0.078125
632,1695744453843,-0.10571289,-0.82940674,0.58343506,-2.09375,1.421875,0.046875
633,1695744453883,-0.103271484,-0.82354736,0.58148193,-1.109375,0.71875,-0.546875
634,1695744453923,-0.088134766,-0.8386841,0.5975952,-1.625,0.90625,-0.015625
635,1695744453963,-0.08886719,-0.829895,0.60858154,-1.53125,2.046875,0.0625
636,1695744454003,-0.09423828,-0.8272095,0.5817261,-0.171875,0.21875,-0.40625
637,1695744454043,-0.09472656,-0.8291626,0.59783936,-0.015625,-0.015625,-0.171875
638,1695744454083,-0.09350586,-0.82891846,0.61395264,-0.296875,0.515625,-0.21875
639,1695744454123,-0.08911133,-0.8220825,0.5819702,-1.484375,0.890625,-0.390625
640,1695744454163,-0.09790039,-0.8262329,0.58709717,-0.234375,-0.703125,-1.03125
641,1695744454203,-0.107177734,-0.8411255,0.60809326,-0.09375,0.84375,-0.65625
642,1695744454243,-0.099609375,-0.81988525,0.59051514,-0.78125,0.109375,-1.015625
643,1695744454283,-0.09326172,-0.83184814,0.60076904,-0.8125,0.515625,-0.828125
644,1695744454323,-0.10498047,-0.8328247,0.6124878,0.796875,-0.21875,-0.765625
645,1695744454363,-0.09692383,-0.8167114,0.6029663,-0.78125,-0.421875,-1.171875
646,1695744454403,-0.103515625,-0.82159424,0.5895386,-0.109375,0.203125,-0.8125
647,1695744454443,-0.1015625,-0.8233032,0.5848999,-0.71875,-0.140625,-0.625
648,1695744454483,-0.095458984,-0.8179321,0.58270264,-0.65625,-0.296875,-0.0625
649,1695744454523,-0.0859375,-0.8237915,0.59417725,0.21875,-1.1875,0.484375
650,1695744454563,-0.099121094,-0.8284302,0.6137085,-0.359375,-1.46875,0.421875
651,1695744454603,-0.103271484,-0.82769775,0.59710693,-1.453125,-1.34375,0.78125
652,1695744454643,-0.10083008,-0.81256104,0.5934448,-0.421875,-1.625,0.515625
653,1695744454683,-0.09033203,-0.82891846,0.60028076,-0.65625,-0.4375,0.640625
654,1695744454723,-0.106933594,-0.82818604,0.5951538,-0.265625,-0.953125,0.671875
655,1695744454763,-0.09741211,-0.80963135,0.6112671,-0.140625,-0.890625,-0.109375
656,1695744454803,-0.10839844,-0.8184204,0.6088257,-0.765625,0.8125,0.71875
657,1695744454843,-0.11206055,-0.8237915,0.61102295,-0.3125,0.90625,0.46875
658,1695744454883,-0.1015625,-0.8218384,0.60150146,-0.578125,0.953125,0.078125
659,1695744454923,-0.091796875,-0.81622314,0.6010132,0.890625,0.96875,-0.03125
660,1695744454963,-0.08911133,-0.81988525,0.6100464,1.328125,1.296875,0.140625
661,1695744455003,-0.091796875,-0.8242798,0.6161499,0.546875,1.0625,0.265625
662,1695744455043,-0.08618164,-0.8184204,0.60369873,0.640625,0.1875,-0.046875
663,1695744455083,-0.10058594,-0.82940674,0.6046753,0.875,0.3125,-0.1875
664,1695744455123,-0.10449219,-0.82037354,0.60272217,0.828125,0.546875,-0.421875
665,1695744455163,-0.09033203,-0.815979,0.6039429,0.84375,-0.296875,-0.21875
666,1695744455203,-0.092041016,-0.82037354,0.60076904,0.375,0.046875,-0.96875
667,1695744455243,-0.10083008,-0.8230591,0.59661865,0.015625,-0.71875,-0.4375
668,1695744455283,-0.095214844,-0.8147583,0.6088257,-0.09375,-0.953125,-1.4375
669,1695744455323,-0.095458984,-0.83258057,0.6185913,1.21875,0.46875,-0.234375
670,1695744455363,-0.08935547,-0.833313,0.59710693,-1.140625,-0.21875,0.28125
671,1695744455403,-0.07836914,-0.8128052,0.5829468,-0.6875,-1.0,0.34375
672,1695744455443,-0.095703125,-0.82110596,0.60443115,0.125,-1.046875,1.421875
673,1695744455483,-0.1003418,-0.8171997,0.58465576,0.21875,-0.46875,0.671875
674,1695744455523,-0.10449219,-0.82281494,0.6010132,1.140625,-0.015625,0.046875
675,1695744455563,-0.10668945,-0.8340454,0.61712646,0.875,-0.078125,-0.484375
676,1695744455603,-0.107177734,-0.8147583,0.5805054,0.234375,0.140625,-1.09375
677,1695744455643,-0.08886719,-0.8296509,0.605896,1.453125,-0.953125,-0.5
678,1695744455683,-0.09790039,-0.83843994,0.62420654,-0.03125,1.359375,-0.359375
679,1695744455723,-0.10058594,-0.815979,0.5790405,0.9375,0.984375,-0.8125
680,1695744455763,-0.099609375,-0.83062744,0.5817261,2.375,-0.234375,-0.671875
681,1695744455803,-0.095947266,-0.83135986,0.59490967,0.9375,1.640625,-0.421875
682,1695744455843,-0.091308594,-0.82159424,0.5836792,1.265625,0.296875,0.125
683,1695744455883,-0.110839844,-0.833313,0.59368896,0.75,0.5625,-0.640625
684,1695744455923,-0.08935547,-0.84210205,0.590271,0.9375,0.40625,-0.203125
685,1695744455963,-0.09301758,-0.82232666,0.58758545,-0.171875,0.625,0.0625
686,1695744456003,-0.0859375,-0.83013916,0.5753784,0.03125,-0.03125,0.390625
687,1695744456043,-0.09887695,-0.83721924,0.59051514,0.640625,0.25,0.859375
688,1695744456083,-0.1003418,-0.82354736,0.59173584,0.0,0.0625,-0.015625
689,1695744456123,-0.10986328,-0.8357544,0.5939331,0.203125,0.390625,-0.265625
690,1695744456163,-0.099609375,-0.84625244,0.59368896,0.578125,1.140625,-0.90625
691,1695744456203,-0.08959961,-0.8257446,0.57684326,0.609375,1.5625,-1.1875
692,1695744456243,-0.091796875,-0.8389282,0.57073975,1.390625,0.171875,-0.15625
693,1695744456283,-0.09692383,-0.8411255,0.6012573,-0.171875,0.953125,0.0
694,1695744456323,-0.08129883,-0.8274536,0.5639038,-0.453125,0.0625,-0.5
695,1695744456363,-0.10180664,-0.8291626,0.58514404,-0.234375,-0.078125,-0.09375
696,1695744456403,-0.1015625,-0.8423462,0.5951538,-0.296875,0.859375,-0.09375
697,1695744456443,-0.09057617,-0.8296509,0.59173584,-0.625,0.875,-0.203125
698,1695744456483,-0.08520508,-0.8352661,0.5783081,-0.125,-0.8125,-0.484375
699,1695744456523,-0.091796875,-0.8369751,0.6039429,-0.828125,1.25,0.6875
700,1695744456563,-0.08642578,-0.8140259,0.5968628,-0.6875,0.015625,-0.171875
701,1695744456603,-0.09692383,-0.84576416,0.58587646,-0.84375,-0.296875,-0.1875
702,1695744456643,-0.09863281,-0.831604,0.6005249,-1.703125,1.1875,-0.296875
703,1695744456683,-0.09277344,-0.82403564,0.59539795,-1.671875,0.65625,0.125
704,1695744456723,-0.09082031,-0.82598877,0.5963745,-2.296875,0.546875,-0.140625
705,1695744456763,-0.10058594,-0.84503174,0.59173584,-1.1875,0.140625,-0.015625
706,1695744456803,-0.091552734,-0.8064575,0.5993042,-1.421875,0.59375,-0.390625
707,1695744456843,-0.0793457,-0.82696533,0.6119995,-0.53125,0.828125,0.1875
708,1695744456883,-0.08325195,-0.83258057,0.5944214,-0.96875,-0.234375,-0.234375
709,1695744456923,-0.08666992,-0.8130493,0.5975952,-0.328125,0.09375,0.453125
710,1695744456963,-0.09887695,-0.81817627,0.6083374,-0.921875,0.453125,0.109375
711,1695744457003,-0.095703125,-0.8245239,0.60858154,-1.625,-0.015625,-0.34375
712,1695744457043,-0.099853516,-0.8184204,0.6090698,0.171875,-0.140625,-0.046875
713,1695744457083,-0.08227539,-0.81622314,0.61834717,0.390625,-0.03125,-0.328125
714,1695744457123,-0.09399414,-0.833313,0.61151123,-1.4375,-0.1875,-0.15625
715,1695744457163,-0.0871582,-0.8303833,0.60198975,0.234375,-1.296875,-0.328125
716,1695744457203,-0.095947266,-0.817688,0.6117554,-0.53125,-0.28125,-0.84375
717,1695744457243,-0.10058594,-0.8184204,0.6078491,-0.296875,-0.265625,-0.125
718,1695744457283,-0.08569336,-0.82037354,0.5968628,-0.53125,-0.140625,-0.640625
719,1695744457323,-0.0859375,-0.81207275,0.6066284,0.65625,0.515625,-0.265625
720,1695744457363,-0.092285156,-0.82891846,0.6141968,0.078125,0.171875,0.1875
721,1695744457403,-0.09863281,-0.8184204,0.6022339,-0.703125,-0.390625,-0.59375
722,1695744457443,-0.09350586,-0.8123169,0.5985718,0.0625,-0.265625,-0.25
723,1695744457483,-0.09765625,-0.8206177,0.59906006,0.421875,-0.203125,0.125
724,1695744457523,-0.09643555,-0.8118286,0.5932007,0.46875,0.078125,0.0
725,1695744457563,-0.095947266,-0.82037354,0.6190796,0.890625,-0.234375,-0.125
726,1695744457603,-0.09667969,-0.8357544,0.61517334,-0.078125,0.5,-0.15625
727,1695744457643,-0.09082031,-0.8032837,0.5980835,0.0,0.21875,-0.515625
728,1695744457683,-0.092285156,-0.817688,0.621521,0.453125,0.09375,-0.09375
729,1695744457723,-0.09472656,-0.8152466,0.6185913,-0.328125,0.453125,0.109375
730,1695744457763,-0.092285156,-0.81695557,0.60614014,-0.03125,-0.125,0.03125
731,1695744457803,-0.091796875,-0.8118286,0.60931396,-0.34375,0.640625,0.21875
732,1695744457843,-0.09667969,-0.82037354,0.6119995,0.46875,0.796875,0.734375
733,1695744457883,-0.092285156,-0.82403564,0.61834717,-0.265625,0.765625,-0.125
734,1695744457923,-0.08959961,-0.8123169,0.6029663,-0.453125,0.265625,0.0
735,1695744457963,-0.09375,-0.81915283,0.60931396,-0.015625,0.328125,0.390625
736,1695744458003,-0.07861328,-0.81573486,0.6012573,-0.546875,0.390625,0.09375
737,1695744458043,-0.09277344,-0.815979,0.6154175,0.9375,-0.03125,0.21875
738,1695744458083,-0.08862305,-0.8167114,0.61712646,0.140625,-0.234375,0.203125
739,1695744458123,-0.08203125,-0.8189087,0.6083374,0.15625,-0.328125,0.046875
740,1695744458163,-0.08691406,-0.8262329,0.6066284,0.46875,-0.484375,0.078125
741,1695744458203,-0.09399414,-0.82525635,0.6051636,-0.734375,-0.234375,-0.234375
742,1695744458243,-0.07910156,-0.82232666,0.6102905,-0.0625,-0.234375,0.015625
743,1695744458283,-0.08520508,-0.8093872,0.60565186,-0.46875,-0.515625,-0.34375
744,1695744458323,-0.08276367,-0.8179321,0.6012573,-0.9375,-0.328125,-0.0625
745,1695744458363,-0.09350586,-0.8328247,0.61932373,-0.390625,-1.09375,0.5
746,1695744458403,-0.09375,-0.81134033,0.6054077,-1.578125,-0.828125,0.125
747,1695744458443,-0.092285156,-0.82354736,0.6203003,0.828125,-1.203125,0.203125
748,1695744458483,-0.07763672,-0.82354736,0.6063843,-1.28125,0.53125,-0.046875
749,1695744458523,-0.083740234,-0.8101196,0.59539795,0.0,0.359375,0.359375
750,1695744458563,-0.0871582,-0.81988525,0.6100464,-0.078125,-0.5625,-0.046875
751,1695744458603,-0.09057617,-0.82476807,0.6119995,-0.234375,-0.15625,-0.140625
752,1695744458643,-0.08520508,-0.8088989,0.6090698,-0.3125,-1.265625,-0.71875
753,1695744458683,-0.08496094,-0.82037354,0.62542725,-0.328125,-1.328125,-1.5
754,1695744458723,-0.076416016,-0.8184204,0.62298584,-1.1875,0.03125,-1.3125
755,1695744458763,-0.09863281,-0.8110962,0.59295654,-0.78125,-0.96875,-1.15625
756,1695744458803,-0.1081543,-0.8057251,0.6054077,0.609375,-0.921875,-0.078125
757,1695744458843,-0.10205078,-0.8279419,0.635437,0.78125,0.203125,-0.015625
758,1695744458883,-0.103271484,-0.82159424,0.63031006,-0.375,0.609375,-0.5
759,1695744458923,-0.09375,-0.8045044,0.61273193,0.28125,0.28125,-1.296875
