,timestamp,accel_x,accel_y,accel_z,gyro_x,gyro_y,gyro_z,ind
0,1695754839525,-0.19677734,-0.9368286,0.21942139,-9.484375,-16.6875,-5.84375,61
1,1695754839565,-0.2084961,-0.9573364,0.2682495,-2.25,-8.21875,-4.734375,62
2,1695754839605,-0.22070312,-0.9585571,0.26287842,-1.515625,-1.21875,0.078125,63
3,1695754839645,-0.2277832,-0.93536377,0.23797607,0.15625,-2.515625,-1.375,64
4,1695754839685,-0.22216797,-0.94781494,0.25238037,3.3125,0.625,-1.09375,65
5,1695754839725,-0.19042969,-0.9656372,0.24090576,3.890625,0.5,0.53125,66
6,1695754839765,-0.19897461,-0.954895,0.22698975,4.21875,0.703125,1.15625,67
7,1695754839805,-0.20727539,-0.9692993,0.23309326,7.015625,2.390625,2.671875,68
8,1695754839845,-0.1953125,-0.9619751,0.22918701,7.609375,2.75,4.890625,69
9,1695754839885,-0.21118164,-0.960022,0.22137451,3.5,0.03125,2.6875,70
10,1695754839925,-0.20288086,-0.9541626,0.21502686,2.015625,-2.859375,0.53125,71
11,1695754839965,-0.18457031,-0.9602661,0.21844482,-0.453125,-0.84375,1.125,72
12,1695754840005,-0.20117188,-0.944397,0.23577881,-5.09375,2.296875,1.640625,73
13,1695754840045,-0.23339844,-0.9534302,0.3336792,-17.578125,-5.03125,-2.96875,74
14,1695754840085,-0.2421875,-1.017395,0.33270264,-11.578125,-2.921875,-4.203125,75
15,1695754840125,-0.21557617,-0.9788208,0.31732178,-7.734375,6.015625,5.796875,76
16,1695754840165,-0.2121582,-0.92926025,0.29534912,-15.34375,-0.03125,-0.390625,77
17,1695754840205,-0.22167969,-0.958313,0.34539795,-9.359375,1.453125,-2.453125,78
18,1695754840245,-0.21679688,-0.9534302,0.32537842,-2.6875,4.859375,1.25,79
19,1695754840285,-0.20336914,-0.9295044,0.33441162,4.3125,7.765625,2.765625,80
20,1695754840325,-0.20117188,-0.9627075,0.34051514,3.46875,7.953125,2.21875,81
21,1695754840365,-0.21264648,-0.92755127,0.30584717,1.96875,2.09375,0.90625,82
22,1695754840405,-0.18969727,-0.92193604,0.3143921,-0.890625,0.375,-0.71875,83
23,1695754840445,-0.18066406,-0.9390259,0.30413818,-2.015625,-1.453125,-0.296875,84
24,1695754840485,-0.1965332,-0.92266846,0.3065796,-0.609375,-2.28125,0.25,85
25,1695754840525,-0.19506836,-0.909729,0.29925537,3.59375,0.53125,-1.03125,86
26,1695754840565,-0.18334961,-0.9348755,0.23944092,4.3125,0.546875,-0.5625,87
27,1695754840605,-0.1694336,-0.9258423,0.27044678,11.109375,4.390625,-0.875,88
28,1695754840645,-0.1730957,-0.9668579,0.25164795,8.0,1.15625,-1.03125,89
29,1695754840685,-0.18652344,-0.9529419,0.26556396,-5.75,-14.4375,-4.65625,90
30,1695754840725,-0.19189453,-0.9639282,0.29534912,-10.8125,-14.84375,-5.0,91
31,1695754840765,-0.19799805,-0.9541626,0.28485107,-6.484375,-9.6875,-3.765625,92
32,1695754840805,-0.20800781,-0.92755127,0.28070068,-3.46875,-4.453125,-0.84375,93
33,1695754840845,-0.21313477,-0.9204712,0.27850342,2.5625,-2.734375,-1.21875,94
34,1695754840885,-0.23046875,-0.94317627,0.2711792,13.734375,5.578125,0.5,95
35,1695754840925,-0.17407227,-0.96881104,0.28533936,11.609375,8.390625,3.203125,96
36,1695754840965,-0.19018555,-0.97662354,0.24847412,8.90625,4.0,1.171875,97
37,1695754841005,-0.1862793,-0.98638916,0.20281982,2.59375,-1.40625,0.125,98
38,1695754841045,-0.19140625,-0.923645,0.2399292,-5.171875,-7.546875,-3.0,99
39,1695754841085,-0.20678711,-0.9771118,0.293396,-11.125,-3.296875,-2.59375,100
40,1695754841125,-0.22753906,-0.9385376,0.3065796,-13.0625,-3.953125,-0.421875,101
41,1695754841165,-0.27929688,-0.9170532,0.31292725,-3.015625,-5.625,-1.3125,102
42,1695754841205,-0.2290039,-0.93218994,0.2904663,1.65625,-3.53125,-0.125,103
43,1695754841245,-0.21118164,-0.9417114,0.2909546,-3.578125,-3.15625,0.5625,104
44,1695754841285,-0.24047852,-0.9763794,0.32000732,-5.0,-4.296875,-1.21875,105
45,1695754841325,-0.2368164,-0.9570923,0.31951904,-9.03125,-7.890625,-3.09375,106
46,1695754841365,-0.25756836,-0.9390259,0.3373413,-4.0,-3.0625,-2.171875,107
47,1695754841405,-0.26245117,-0.9373169,0.35369873,-0.359375,0.828125,-0.125,108
48,1695754841445,-0.25317383,-0.9505005,0.37908936,-5.46875,3.578125,-1.265625,109
49,1695754841485,-0.24365234,-0.9512329,0.37176514,-3.84375,10.25,0.3125,110
50,1695754841525,-0.22021484,-0.92803955,0.42132568,10.484375,29.21875,8.5,111
51,1695754841565,-0.26538086,-0.94073486,0.37054443,15.109375,21.546875,6.9375,112
52,1695754841605,-0.21044922,-0.9295044,0.3143921,13.296875,19.15625,1.78125,113
53,1695754841645,-0.18115234,-0.9663696,0.260437,18.28125,18.34375,2.609375,114
54,1695754841685,-0.17138672,-0.9714966,0.25628662,20.546875,15.75,3.0,115
55,1695754841725,-0.17236328,-0.96343994,0.22113037,9.09375,5.09375,-0.296875,116
56,1695754841765,-0.16235352,-0.91607666,0.17596436,3.71875,-0.546875,-2.125,117
57,1695754841805,-0.15551758,-0.9277954,0.1828003,2.359375,-3.890625,-2.578125,118
58,1695754841845,-0.14233398,-0.94244385,0.18035889,2.921875,-3.5,-0.71875,119
59,1695754841885,-0.16430664,-0.9065552,0.17449951,1.65625,-4.28125,0.28125,120
60,1695754841925,-0.16308594,-0.9451294,0.18109131,4.21875,-6.46875,-1.171875,121
61,1695754841965,-0.16479492,-0.9463501,0.19671631,-8.78125,-17.140625,-4.03125,122
62,1695754842005,-0.20898438,-0.9805298,0.23040771,-9.46875,-16.25,-7.65625,123
63,1695754842045,-0.18237305,-0.99176025,0.22943115,-6.859375,-7.828125,-3.203125,124
64,1695754842085,-0.19506836,-0.9710083,0.23846436,-1.125,-1.1875,1.5625,125
65,1695754842125,-0.21069336,-0.96051025,0.21380615,7.03125,1.6875,1.9375,126
66,1695754842165,-0.17553711,-0.9841919,0.19403076,11.734375,4.421875,2.171875,127
67,1695754842205,-0.15527344,-0.97003174,0.20404053,4.5625,3.265625,2.015625,128
68,1695754842245,-0.18066406,-0.99420166,0.23431396,4.578125,-0.109375,0.375,129
69,1695754842285,-0.17333984,-0.9741821,0.19720459,2.921875,1.140625,2.375,130
70,1695754842325,-0.19140625,-0.956604,0.20550537,2.734375,0.046875,1.84375,131
71,1695754842365,-0.18432617,-0.9614868,0.21429443,3.171875,-0.21875,-0.359375,132
72,1695754842405,-0.1850586,-0.9780884,0.21502686,0.15625,-2.328125,1.578125,133
73,1695754842445,-0.20019531,-0.9678345,0.21307373,-0.09375,-2.34375,1.234375,134
74,1695754842485,-0.22705078,-1.003479,0.23968506,2.9375,4.265625,1.3125,135
75,1695754842525,-0.21923828,-1.0271606,0.2741089,4.109375,13.203125,2.421875,136
76,1695754842565,-0.19702148,-1.0222778,0.24017334,0.625,13.703125,3.9375,137
77,1695754842605,-0.15014648,-0.98321533,0.20574951,-6.4375,9.84375,0.109375,138
78,1695754842645,-0.13964844,-0.9990845,0.20159912,-12.140625,-0.75,-3.34375,139
79,1695754842685,-0.171875,-0.9312134,0.2230835,-12.1875,-3.25,-5.0,140
80,1695754842725,-0.15527344,-0.9651489,0.2177124,-3.0,-0.265625,-2.59375,141
81,1695754842765,-0.18237305,-0.93756104,0.24066162,-1.421875,5.203125,-0.046875,142
82,1695754842805,-0.18457031,-0.9649048,0.22845459,1.171875,4.703125,0.65625,143
83,1695754842845,-0.17041016,-0.92974854,0.20306396,2.65625,4.765625,1.59375,144
84,1695754842885,-0.14477539,-0.9463501,0.19012451,10.28125,5.390625,1.609375,145
85,1695754842925,-0.1381836,-0.95977783,0.16619873,16.828125,6.09375,2.828125,146
86,1695754842965,-0.14257812,-0.9505005,0.15618896,16.03125,8.21875,1.578125,147
87,1695754843005,-0.14208984,-0.975647,0.11468506,0.34375,-5.71875,-0.53125,148
88,1695754843045,-0.15478516,-0.9873657,0.19085693,-3.15625,-9.6875,-5.796875,149
89,1695754843085,-0.1694336,-0.975647,0.19354248,-3.21875,-1.578125,-0.921875,150
90,1695754843125,-0.16625977,-0.9495239,0.1642456,2.125,4.234375,1.84375,151
91,1695754843165,-0.17797852,-0.975647,0.18621826,3.546875,3.546875,-0.359375,152
92,1695754843205,-0.16967773,-0.98272705,0.1774292,-1.6875,-0.9375,-2.03125,153
93,1695754843245,-0.17700195,-0.9690552,0.1671753,-2.484375,-7.5625,-5.28125,154
94,1695754843285,-0.18066406,-0.97491455,0.17767334,-2.78125,-6.765625,-5.703125,155
95,1695754843325,-0.16455078,-0.99005127,0.18841553,1.140625,-2.84375,-1.109375,156
96,1695754843365,-0.18310547,-0.97052,0.19256592,1.625,-0.8125,1.0,157
97,1695754843405,-0.18603516,-0.9690552,0.1671753,1.203125,-4.234375,-0.734375,158
98,1695754843445,-0.16064453,-0.96954346,0.17474365,0.546875,-3.171875,-1.0625,159
99,1695754843485,-0.15478516,-0.9553833,0.15447998,-5.484375,-9.984375,-1.390625,160
100,1695754843525,-0.12084961,-0.95196533,0.14691162,-0.6875,-4.796875,-0.890625,161
101,1695754843565,-0.1743164,-1.0012817,0.24212646,-9.0,-5.5,-0.96875,162
102,1695754843605,-0.22290039,-0.9963989,0.27166748,-18.515625,-9.484375,-3.421875,163
103,1695754843645,-0.24560547,-0.99542236,0.23431396,-22.25,-11.421875,-4.46875,164
104,1695754843685,-0.17602539,-0.94488525,0.29071045,-6.796875,1.84375,0.21875,165
105,1695754843725,-0.21582031,-0.96343994,0.32513428,-8.859375,1.1875,5.359375,166
106,1695754843765,-0.26123047,-0.97003174,0.3204956,-12.4375,-5.0625,-0.609375,167
107,1695754843805,-0.24682617,-0.96539307,0.27825928,-16.84375,-7.734375,-3.265625,168
108,1695754843845,-0.21875,-0.94732666,0.32318115,-8.1875,1.21875,0.046875,169
109,1695754843885,-0.22460938,-0.9500122,0.29632568,5.015625,4.765625,0.71875,170
110,1695754843925,-0.22241211,-0.8965454,0.29534912,16.828125,4.375,1.3125,171
111,1695754843965,-0.22070312,-0.9883423,0.22161865,37.328125,13.796875,2.390625,172
112,1695754844005,-0.14111328,-0.9273071,0.18060303,24.640625,15.8125,7.0625,173
113,1695754844045,-0.15600586,-0.9624634,0.17230225,8.640625,2.109375,1.75,174
114,1695754844085,-0.171875,-0.9458618,0.14569092,-2.34375,-5.0625,-2.0,175
115,1695754844125,-0.17041016,-0.94366455,0.16229248,0.703125,-3.421875,-0.359375,176
116,1695754844165,-0.16552734,-0.9380493,0.18109131,4.640625,1.203125,0.03125,177
117,1695754844205,-0.15625,-0.9685669,0.17425537,5.734375,2.5625,0.5625,178
118,1695754844245,-0.16601562,-0.9949341,0.168396,2.265625,-0.6875,0.34375,179
119,1695754844285,-0.15942383,-0.99542236,0.19281006,-4.46875,-0.828125,-1.28125,180
120,1695754844325,-0.16210938,-1.0379028,0.23651123,-11.546875,-1.3125,-3.375,181
121,1695754844365,-0.17797852,-1.0081177,0.24017334,-18.265625,4.9375,-1.59375,182
122,1695754844405,-0.20458984,-0.9898071,0.30877686,-1.828125,15.578125,4.71875,183
123,1695754844445,-0.17480469,-1.0137329,0.29022217,-0.953125,9.078125,4.140625,184
124,1695754844485,-0.16967773,-0.95098877,0.22064209,-6.15625,-0.59375,-1.65625,185
125,1695754844525,-0.15795898,-0.96051025,0.25115967,-2.375,0.171875,-2.046875,186
126,1695754844565,-0.1706543,-0.9649048,0.2506714,-3.546875,0.0625,0.3125,187
127,1695754844605,-0.18823242,-0.940979,0.24188232,2.9375,1.59375,-0.203125,188
128,1695754844645,-0.1862793,-0.94976807,0.24700928,0.875,1.96875,0.328125,189
129,1695754844685,-0.17138672,-0.93829346,0.23260498,-0.1875,-1.265625,-0.375,190
130,1695754844725,-0.16748047,-0.93585205,0.23162842,0.1875,-3.53125,-0.859375,191
131,1695754844765,-0.17089844,-0.9326782,0.19744873,13.625,0.0,0.828125,192
132,1695754844805,-0.15014648,-0.93927,0.17767334,18.0,5.59375,3.078125,193
133,1695754844845,-0.15551758,-0.9795532,0.21453857,6.4375,0.015625,0.5,194
134,1695754844885,-0.16088867,-0.95880127,0.14007568,-20.546875,-23.875,-7.859375,195
135,1695754844925,-0.18823242,-0.9639282,0.23187256,-8.71875,-13.296875,-9.0625,196
136,1695754844965,-0.18603516,-1.0015259,0.27166748,-2.609375,1.03125,-0.34375,197
137,1695754845005,-0.20507812,-0.9404907,0.20941162,1.25,-0.984375,0.15625,198
138,1695754845045,-0.21484375,-0.942688,0.21624756,5.90625,-0.84375,-2.453125,199
139,1695754845085,-0.16772461,-0.98565674,0.21136475,6.5625,4.625,-0.421875,200
140,1695754845125,-0.1484375,-0.9985962,0.1918335,5.8125,4.75,3.046875,201
141,1695754845165,-0.18725586,-0.97125244,0.19403076,5.71875,4.109375,1.953125,202
142,1695754845205,-0.17871094,-0.9776001,0.17962646,7.640625,4.046875,1.9375,203
143,1695754845245,-0.16357422,-0.9697876,0.17327881,7.296875,3.859375,2.03125,204
144,1695754845285,-0.14379883,-0.9824829,0.17156982,6.6875,3.28125,1.8125,205
145,1695754845325,-0.16601562,-0.9871216,0.16986084,3.078125,-0.078125,2.046875,206
146,1695754845365,-0.17553711,-0.96343994,0.16668701,0.546875,-1.1875,0.703125,207
147,1695754845405,-0.15625,-0.97857666,0.14691162,-0.578125,-4.421875,0.09375,208
148,1695754845445,-0.15698242,-0.9536743,0.16204834,-4.25,-6.859375,-2.46875,209
149,1695754845485,-0.17358398,-0.9956665,0.21453857,-6.375,-4.96875,-2.234375,210
150,1695754845525,-0.18774414,-0.9981079,0.22772217,-11.984375,-6.015625,-2.25,211
151,1695754845565,-0.20751953,-0.98883057,0.26385498,-16.453125,-6.5,-5.40625,212
152,1695754845605,-0.20532227,-1.0078735,0.276062,-25.40625,-11.234375,-6.359375,213
153,1695754845645,-0.22265625,-0.98223877,0.33319092,-27.015625,-13.703125,-6.3125,214
154,1695754845685,-0.21875,-0.9356079,0.33026123,-14.984375,-4.171875,-3.890625,215
155,1695754845725,-0.24926758,-0.9307251,0.3114624,12.46875,13.859375,0.890625,216
156,1695754845765,-0.21484375,-0.9602661,0.27874756,14.515625,12.53125,6.5625,217
157,1695754845805,-0.2109375,-0.92071533,0.22528076,18.640625,3.90625,1.78125,218
158,1695754845845,-0.18237305,-0.954895,0.1605835,27.078125,8.890625,1.75,219
159,1695754845885,-0.14526367,-0.9373169,0.15570068,21.65625,10.6875,8.046875,220
160,1695754845925,-0.17895508,-0.93707275,0.14154053,14.03125,3.046875,6.84375,221
161,1695754845965,-0.1665039,-0.9663696,0.14886475,2.15625,-5.015625,2.078125,222
162,1695754846005,-0.17382812,-0.96539307,0.15374756,-4.9375,-8.8125,-1.421875,223
163,1695754846045,-0.16259766,-0.96954346,0.17840576,-2.90625,-2.890625,-2.109375,224
164,1695754846085,-0.1784668,-0.97662354,0.17327881,-2.359375,-1.5625,-1.0625,225
165,1695754846125,-0.15283203,-0.986145,0.15911865,-0.734375,-2.5,-1.390625,226
166,1695754846165,-0.16088867,-1.0059204,0.17254639,-1.171875,-0.28125,-1.1875,227
167,1695754846205,-0.14819336,-0.9968872,0.15765381,-2.0625,-1.953125,-1.96875,228
168,1695754846245,-0.15283203,-0.99224854,0.18035889,0.671875,-0.0625,-0.9375,229
169,1695754846285,-0.17675781,-1.0032349,0.18109131,-2.9375,-3.953125,-0.921875,230
170,1695754846325,-0.15454102,-0.97906494,0.17449951,-2.0,-4.28125,-0.59375,231
171,1695754846365,-0.16040039,-0.94903564,0.16571045,-4.765625,-10.03125,-0.859375,232
172,1695754846405,-0.17919922,-0.9500122,0.22210693,-5.515625,-7.25,-2.25,233
173,1695754846445,-0.2133789,-0.97906494,0.20111084,-4.28125,-8.03125,-1.203125,234
174,1695754846485,-0.19726562,-0.9439087,0.21844482,-3.8125,-1.984375,-0.890625,235
175,1695754846525,-0.22070312,-0.9661255,0.22406006,-2.875,-1.34375,-2.671875,236
176,1695754846565,-0.20483398,-1.0130005,0.277771,1.96875,12.953125,-1.609375,237
177,1695754846605,-0.23168945,-1.0049438,0.30975342,3.484375,20.75,7.375,238
178,1695754846645,-0.19482422,-1.0195923,0.25653076,2.140625,21.796875,6.6875,239
179,1695754846685,-0.19384766,-0.96710205,0.2189331,2.953125,17.625,1.25,240
180,1695754846725,-0.16308594,-0.96710205,0.16888428,8.90625,13.84375,0.8125,241
181,1695754846765,-0.1550293,-0.9751587,0.19281006,15.34375,18.8125,2.125,242
182,1695754846805,-0.1274414,-1.0003052,0.1671753,12.59375,11.046875,3.34375,243
183,1695754846845,-0.15600586,-0.9837036,0.1671753,8.265625,9.5,2.5625,244
184,1695754846885,-0.14746094,-0.975647,0.1293335,6.625,5.875,1.21875,245
185,1695754846925,-0.12768555,-0.9475708,0.10662842,-0.5625,1.328125,-0.3125,246
186,1695754846965,-0.13085938,-0.94366455,0.12689209,-3.640625,-4.515625,-1.171875,247
187,1695754847005,-0.14916992,-0.94317627,0.12860107,-4.078125,-12.703125,-3.5625,248
188,1695754847045,-0.14575195,-0.9216919,0.1281128,-1.453125,-12.21875,-2.484375,249
189,1695754847085,-0.12133789,-0.89434814,0.07171631,-3.796875,-13.109375,-3.0625,250
190,1695754847125,-0.12695312,-1.0271606,0.18377686,6.3125,2.421875,-2.03125,251
191,1695754847165,-0.13549805,-1.0274048,0.16937256,-5.1875,-1.15625,2.3125,252
192,1695754847205,-0.16894531,-0.9795532,0.15667725,-7.125,-9.21875,-1.640625,253
193,1695754847245,-0.17504883,-0.9714966,0.16888428,-10.515625,-14.734375,-5.71875,254
194,1695754847285,-0.16699219,-0.98443604,0.18548584,-11.296875,-12.890625,-6.0625,255
195,1695754847325,-0.13378906,-0.98883057,0.17327881,-7.015625,-11.703125,-4.59375,256
196,1695754847365,-0.14794922,-0.95806885,0.1774292,-0.875,-3.15625,0.078125,257
197,1695754847405,-0.17944336,-0.9819946,0.19915771,0.65625,-1.484375,0.703125,258
198,1695754847445,-0.1784668,-0.9685669,0.2008667,-2.765625,-3.65625,-1.296875,259
199,1695754847485,-0.16430664,-0.98638916,0.22918701,-3.65625,-2.703125,-1.921875,260
200,1695754847525,-0.18676758,-0.9849243,0.2514038,-3.125,6.265625,-1.609375,261
201,1695754847565,-0.2121582,-1.0237427,0.2929077,4.65625,20.453125,5.65625,262
202,1695754847605,-0.20532227,-0.99786377,0.2411499,14.265625,25.109375,9.984375,263
203,1695754847645,-0.19384766,-0.95977783,0.18963623,10.625,18.875,3.96875,264
204,1695754847685,-0.15966797,-1.0012817,0.18450928,8.578125,11.796875,-1.21875,265
205,1695754847725,-0.13061523,-1.0081177,0.19085693,-1.140625,4.015625,0.265625,266
206,1695754847765,-0.1550293,-0.96832275,0.16912842,-1.0,3.90625,1.078125,267
207,1695754847805,-0.15795898,-0.9558716,0.17059326,6.046875,6.625,1.328125,268
208,1695754847845,-0.14013672,-0.9456177,0.12542725,3.125,3.78125,2.296875,269
209,1695754847885,-0.12133789,-0.925354,0.14935303,4.734375,2.6875,2.296875,270
210,1695754847925,-0.14160156,-0.93536377,0.11053467,13.953125,-1.71875,1.1875,271
211,1695754847965,-0.10986328,-0.94732666,0.101745605,16.296875,2.015625,1.265625,272
212,1695754848005,-0.088378906,-0.95635986,0.06365967,-1.203125,-9.5625,0.59375,273
213,1695754848045,-0.13964844,-0.9639282,0.11273193,-15.8125,-30.015625,-6.890625,274
214,1695754848085,-0.1394043,-1.0154419,0.18377686,-9.515625,-8.8125,-6.90625,275
215,1695754848125,-0.12792969,-1.0198364,0.19207764,-0.765625,9.375,6.71875,276
216,1695754848165,-0.1315918,-0.9776001,0.117614746,-3.171875,-1.71875,-0.203125,277
217,1695754848205,-0.114990234,-0.9517212,0.12762451,-3.1875,-5.953125,-3.859375,278
218,1695754848245,-0.12524414,-1.0176392,0.17352295,-9.953125,-11.984375,-6.140625,279
219,1695754848285,-0.12915039,-1.0159302,0.1864624,-11.234375,-13.40625,-5.109375,280
220,1695754848325,-0.14233398,-0.9763794,0.19451904,-8.765625,-7.0625,-0.890625,281
221,1695754848365,-0.16210938,-0.9656372,0.18719482,-6.25,-3.734375,-0.53125,282
222,1695754848405,-0.16455078,-0.96417236,0.19744873,-6.765625,-1.9375,-1.484375,283
223,1695754848445,-0.18286133,-0.9734497,0.2411499,-10.59375,-3.015625,-1.046875,284
224,1695754848485,-0.18359375,-0.9734497,0.24945068,-12.34375,-1.5625,-4.234375,285
225,1695754848525,-0.23852539,-0.9651489,0.3295288,-10.5625,1.359375,-3.109375,286
226,1695754848565,-0.21020508,-0.973938,0.30096436,-17.484375,-5.375,-3.46875,287
227,1695754848605,-0.21289062,-0.97052,0.32611084,-15.0625,-4.96875,-2.828125,288
228,1695754848645,-0.20874023,-0.9312134,0.31756592,-22.359375,-13.046875,-3.09375,289
229,1695754848685,-0.1977539,-0.92071533,0.32269287,1.40625,-2.671875,-0.328125,290
230,1695754848725,-0.21459961,-0.92388916,0.23431396,29.703125,7.6875,3.875,291
231,1695754848765,-0.15942383,-0.9546509,0.2399292,29.625,14.390625,6.71875,292
232,1695754848805,-0.1706543,-0.9783325,0.23846436,13.671875,7.078125,3.5,293
233,1695754848845,-0.19628906,-0.9819946,0.22576904,2.5,-2.3125,0.828125,294
234,1695754848885,-0.1550293,-0.9282837,0.19573975,5.359375,-0.609375,1.015625,295
235,1695754848925,-0.12451172,-0.9336548,0.15618896,6.3125,-0.140625,3.046875,296
236,1695754848965,-0.13916016,-0.92633057,0.20257568,-0.828125,-4.5625,-2.40625,297
237,1695754849005,-0.17529297,-0.98931885,0.25457764,-10.296875,-5.78125,-4.859375,298
238,1695754849045,-0.17138672,-1.0134888,0.2687378,-16.03125,-4.96875,-4.53125,299
239,1695754849085,-0.19995117,-0.942688,0.23040771,-7.625,8.796875,-5.34375,300
240,1695754849125,-0.1586914,-1.0159302,0.31195068,7.953125,25.5625,9.40625,301
241,1695754849165,-0.17236328,-0.98101807,0.33416748,4.734375,22.453125,7.953125,302
242,1695754849205,-0.17700195,-1.024231,0.28729248,4.328125,12.625,2.40625,303
243,1695754849245,-0.16674805,-0.99884033,0.24505615,1.34375,3.984375,-0.734375,304
244,1695754849285,-0.1418457,-0.97369385,0.25091553,3.203125,5.453125,-1.46875,305
245,1695754849325,-0.16699219,-0.9558716,0.23919678,4.1875,5.0,-0.046875,306
246,1695754849365,-0.15307617,-0.9458618,0.21624756,2.765625,0.0,-1.453125,307
247,1695754849405,-0.14501953,-0.9229126,0.20550537,0.390625,-5.046875,-2.140625,308
248,1695754849445,-0.12939453,-0.9187622,0.23358154,-0.375,-7.296875,-2.4375,309
249,1695754849485,-0.15454102,-0.9644165,0.15814209,5.46875,-9.25,-1.09375,310
250,1695754849525,-0.15283203,-0.9248657,0.16351318,-4.65625,-16.65625,-4.234375,311
251,1695754849565,-0.15283203,-0.9573364,0.18499756,-12.734375,-23.328125,-9.96875,312
252,1695754849605,-0.1616211,-0.9859009,0.26483154,-6.421875,-8.59375,-4.484375,313
253,1695754849645,-0.17895508,-0.99102783,0.24603271,-0.546875,-2.125,-0.640625,314
254,1695754849685,-0.1887207,-0.97491455,0.23065186,0.625,-3.015625,0.78125,315
255,1695754849725,-0.19555664,-0.9805298,0.22894287,0.421875,-5.984375,-1.953125,316
256,1695754849765,-0.17578125,-0.9751587,0.2333374,-5.765625,-4.53125,-1.71875,317
257,1695754849805,-0.18652344,-0.9649048,0.24554443,-5.328125,-4.75,-1.265625,318
258,1695754849845,-0.18798828,-0.95513916,0.2694702,1.578125,0.796875,0.21875,319
259,1695754849885,-0.20581055,-0.9517212,0.24066162,8.125,4.546875,1.859375,320
260,1695754849925,-0.18432617,-0.94659424,0.22698975,7.015625,4.859375,1.21875,321
261,1695754849965,-0.1862793,-0.98272705,0.24481201,3.890625,2.0625,0.078125,322
262,1695754850005,-0.19116211,-0.97320557,0.23114014,-3.40625,-1.96875,-1.625,323
263,1695754850045,-0.18408203,-0.9702759,0.27044678,-4.40625,-1.09375,-2.609375,324
264,1695754850085,-0.20336914,-1.0064087,0.2843628,-9.578125,1.171875,-2.125,325
265,1695754850125,-0.22607422,-0.9685669,0.25604248,-18.578125,-4.59375,-1.515625,326
266,1695754850165,-0.19335938,-0.93341064,0.35882568,-21.078125,0.640625,-3.515625,327
267,1695754850205,-0.2602539,-0.98883057,0.4015503,-28.796875,-7.5625,-6.546875,328
268,1695754850245,-0.25634766,-0.9558716,0.354187,-21.140625,-4.3125,-4.21875,329
269,1695754850285,-0.20605469,-0.8743286,0.307312,-3.5,6.453125,1.40625,330
270,1695754850325,-0.18798828,-0.9299927,0.31976318,5.625,8.140625,3.09375,331
271,1695754850365,-0.20654297,-0.8899536,0.38616943,2.921875,5.9375,0.671875,332
272,1695754850405,-0.26049805,-0.9534302,0.338562,28.078125,6.78125,1.328125,333
273,1695754850445,-0.16210938,-0.92193604,0.23504639,42.1875,18.5,8.78125,334
274,1695754850485,-0.15625,-0.9348755,0.21331787,30.546875,16.9375,8.0625,335
275,1695754850525,-0.1640625,-0.97662354,0.21722412,5.4375,-1.84375,-0.40625,336
276,1695754850565,-0.20117188,-0.96954346,0.23162842,0.984375,-7.328125,-2.21875,337
277,1695754850605,-0.1977539,-0.94000244,0.19451904,4.484375,-4.15625,-1.1875,338
278,1695754850645,-0.14746094,-0.9282837,0.17791748,7.90625,-1.078125,1.234375,339
279,1695754850685,-0.14941406,-0.987854,0.20428467,0.953125,-2.671875,0.125,340
280,1695754850725,-0.15917969,-1.0115356,0.230896,-12.796875,-2.640625,-4.703125,341
281,1695754850765,-0.1850586,-1.0061646,0.23236084,-12.703125,-1.171875,-2.703125,342
282,1695754850805,-0.18383789,-0.97320557,0.26971436,1.71875,13.578125,1.9375,343
283,1695754850845,-0.1550293,-0.960022,0.2682495,3.65625,14.796875,7.125,344
284,1695754850885,-0.21142578,-1.0059204,0.28070068,-4.765625,5.78125,0.875,345
285,1695754850925,-0.18725586,-0.98223877,0.32244873,-10.609375,-2.75,-3.65625,346
286,1695754850965,-0.18115234,-0.9846802,0.30755615,-9.078125,-1.703125,-0.90625,347
287,1695754851005,-0.18481445,-0.927063,0.23724365,5.109375,5.046875,0.015625,348
288,1695754851045,-0.16064453,-0.97662354,0.24969482,15.4375,12.765625,4.84375,349
289,1695754851085,-0.17260742,-0.99102783,0.24407959,22.53125,15.78125,4.6875,350
290,1695754851125,-0.15332031,-0.98443604,0.21966553,31.328125,14.953125,2.625,351
291,1695754851165,-0.119140625,-0.9458618,0.15740967,24.171875,9.75,4.046875,352
292,1695754851205,-0.12158203,-0.97979736,0.08660889,15.359375,1.5625,2.109375,353
293,1695754851245,-0.11450195,-0.9483032,0.07269287,5.59375,-5.546875,-1.078125,354
294,1695754851285,-0.09643555,-0.95391846,0.08538818,-9.890625,-15.0,-1.03125,355
295,1695754851325,-0.15771484,-0.9546509,0.120788574,-16.734375,-22.359375,-5.71875,356
296,1695754851365,-0.13452148,-0.96417236,0.15960693,-10.734375,-9.3125,-6.59375,357
297,1695754851405,-0.13085938,-0.98272705,0.1696167,-3.796875,3.890625,1.140625,358
298,1695754851445,-0.12060547,-0.9619751,0.13641357,-7.5625,-2.25,-0.375,359
299,1695754851485,-0.14233398,-0.9846802,0.17547607,-9.765625,-8.984375,-3.921875,360
300,1695754851525,-0.15283203,-1.0706177,0.25286865,-28.75,-18.015625,-7.859375,361
301,1695754851565,-0.16210938,-0.9873657,0.16522217,-41.265625,-21.015625,-8.734375,362
302,1695754851605,-0.22436523,-0.892395,0.3209839,-5.015625,10.328125,2.5625,363
303,1695754851645,-0.22729492,-0.95977783,0.3788452,1.109375,11.171875,3.359375,364
304,1695754851685,-0.21044922,-0.9824829,0.36102295,-5.984375,-0.734375,-1.9375,365
305,1695754851725,-0.17822266,-0.95880127,0.30560303,-3.34375,0.484375,-1.28125,366
306,1695754851765,-0.1315918,-0.9627075,0.29364014,6.25,11.859375,3.453125,367
307,1695754851805,-0.1706543,-0.9585571,0.28289795,15.546875,16.828125,4.046875,368
308,1695754851845,-0.16625977,-0.9824829,0.276062,19.09375,17.40625,4.234375,369
309,1695754851885,-0.14550781,-1.003479,0.23944092,17.28125,14.4375,4.140625,370
310,1695754851925,-0.12695312,-0.9612427,0.22869873,11.125,9.09375,3.0,371
311,1695754851965,-0.107421875,-0.95269775,0.19866943,10.1875,6.796875,2.96875,372
312,1695754852005,-0.12475586,-0.91607666,0.1918335,9.484375,2.84375,0.546875,373
313,1695754852045,-0.10839844,-0.9246216,0.17816162,11.375,1.28125,-0.578125,374
314,1695754852085,-0.12915039,-0.93756104,0.14984131,-2.734375,-12.3125,-2.125,375
315,1695754852125,-0.107666016,-0.9326782,0.121032715,-31.6875,-38.453125,-8.640625,376
316,1695754852165,-0.17993164,-0.9783325,0.22894287,-24.453125,-23.75,-12.109375,377
317,1695754852205,-0.1616211,-0.98760986,0.24798584,-9.59375,-2.609375,-1.71875,378
318,1695754852245,-0.15698242,-0.9505005,0.23968506,4.65625,-0.34375,-0.09375,379
319,1695754852285,-0.20483398,-0.9976196,0.24139404,8.78125,-2.75,-3.09375,380
320,1695754852325,-0.19091797,-1.0254517,0.23846436,4.734375,-1.046875,-2.984375,381
321,1695754852365,-0.16040039,-1.0230103,0.2506714,-1.28125,-1.21875,-1.328125,382
322,1695754852405,-0.15234375,-0.989563,0.24017334,8.25,4.625,2.234375,383
323,1695754852445,-0.17822266,-0.956604,0.20452881,10.5,5.1875,5.75,384
324,1695754852485,-0.19726562,-0.93096924,0.23114014,6.265625,1.28125,1.484375,385
325,1695754852525,-0.1508789,-0.95562744,0.1774292,3.828125,-1.0625,-0.34375,386
326,1695754852565,-0.1496582,-0.9265747,0.20819092,1.21875,-1.21875,-0.625,387
327,1695754852605,-0.1616211,-0.98272705,0.21966553,-2.0,-4.015625,-3.28125,388
328,1695754852645,-0.16821289,-0.97442627,0.19647217,-7.125,-6.015625,-3.421875,389
329,1695754852685,-0.19506836,-0.986145,0.2374878,-12.625,-5.59375,-4.359375,390
330,1695754852725,-0.1953125,-1.0044556,0.22821045,-23.4375,-4.359375,-6.828125,391
331,1695754852765,-0.22436523,-1.0066528,0.30682373,-18.984375,-0.484375,-2.46875,392
332,1695754852805,-0.23120117,-0.9673462,0.40960693,-21.3125,0.15625,-2.828125,393
333,1695754852845,-0.24243164,-0.9636841,0.3781128,-6.03125,5.125,0.34375,394
334,1695754852885,-0.21118164,-0.94122314,0.29632568,13.796875,13.96875,4.828125,395
335,1695754852925,-0.17871094,-0.8987427,0.2736206,22.609375,6.84375,4.75,396
336,1695754852965,-0.19189453,-0.9692993,0.17596436,44.78125,11.34375,3.609375,397
337,1695754853005,-0.14331055,-0.9439087,0.13543701,30.203125,13.734375,9.625,398
338,1695754853045,-0.1394043,-0.94244385,0.17889404,10.296875,0.28125,4.65625,399
339,1695754853085,-0.16918945,-0.9751587,0.10223389,-11.8125,-14.546875,-3.25,400
340,1695754853125,-0.19995117,-0.8826294,0.113464355,-2.171875,-5.984375,-1.78125,401
341,1695754853165,-0.1003418,-0.95977783,0.16351318,8.40625,7.78125,2.859375,402
342,1695754853205,-0.13305664,-0.99957275,0.20648193,-1.453125,2.5625,-1.046875,403
343,1695754853245,-0.1706543,-0.99224854,0.21258545,-10.453125,0.203125,-5.140625,404
344,1695754853285,-0.15844727,-1.0120239,0.21624756,-11.828125,2.453125,-3.328125,405
345,1695754853325,-0.12890625,-1.0169067,0.21282959,-18.8125,-0.671875,-4.953125,406
346,1695754853365,-0.14428711,-0.99176025,0.21380615,-20.296875,-4.578125,-7.0625,407
347,1695754853405,-0.16772461,-0.99591064,0.30999756,-23.078125,-7.3125,-5.578125,408
348,1695754853445,-0.21313477,-0.987854,0.38568115,-26.25,-6.171875,-3.265625,409
349,1695754853485,-0.22192383,-0.92510986,0.36810303,-23.796875,-12.984375,-3.203125,410
350,1695754853525,-0.23925781,-0.89263916,0.3607788,-11.5,-5.9375,-0.96875,411
351,1695754853565,-0.20263672,-0.8899536,0.36883545,2.640625,4.28125,1.1875,412
352,1695754853605,-0.22998047,-0.9182739,0.3283081,28.078125,8.109375,2.90625,413
353,1695754853645,-0.20922852,-0.9805298,0.23919678,41.421875,16.78125,4.078125,414
354,1695754853685,-0.15014648,-0.940979,0.2189331,35.328125,19.640625,10.109375,415
355,1695754853725,-0.14672852,-0.9990845,0.18670654,16.828125,7.0,5.5,416
356,1695754853765,-0.1484375,-0.97540283,0.15423584,2.875,-0.3125,0.96875,417
357,1695754853805,-0.14868164,-0.9534302,0.19036865,-0.21875,-2.234375,1.28125,418
358,1695754853845,-0.1784668,-0.92266846,0.15008545,6.203125,0.109375,1.25,419
359,1695754853885,-0.12451172,-0.9573364,0.16131592,8.84375,3.40625,2.625,420
360,1695754853925,-0.12597656,-0.99420166,0.19476318,-2.28125,-0.75,-2.671875,421
361,1695754853965,-0.140625,-0.9976196,0.18743896,-19.359375,-6.921875,-5.828125,422
362,1695754854005,-0.15820312,-0.97662354,0.21820068,-16.5625,6.71875,-4.515625,423
363,1695754854045,-0.1743164,-0.9937134,0.33831787,5.671875,22.453125,4.078125,424
364,1695754854085,-0.140625,-1.0628052,0.26800537,15.734375,16.859375,7.265625,425
365,1695754854125,-0.15478516,-0.9512329,0.19451904,6.046875,7.75,4.1875,426
366,1695754854165,-0.14282227,-0.9902954,0.19769287,2.5625,1.578125,-0.453125,427
367,1695754854205,-0.16552734,-1.0066528,0.19403076,12.859375,1.28125,0.0625,428
368,1695754854245,-0.13867188,-0.9612427,0.15496826,18.28125,4.84375,1.953125,429
369,1695754854285,-0.11694336,-0.90875244,0.105163574,15.703125,5.375,3.03125,430
370,1695754854325,-0.1237793,-0.9624634,0.12591553,2.375,-2.109375,-0.546875,431
371,1695754854365,-0.11035156,-0.944397,0.12591553,-9.28125,-10.015625,-4.75,432
372,1695754854405,-0.07861328,-0.96539307,0.13665771,-6.578125,-3.59375,-2.796875,433
373,1695754854445,-0.1274414,-0.9680786,0.15106201,-3.21875,-4.3125,0.03125,434
374,1695754854485,-0.14355469,-0.9690552,0.15081787,-4.5,-10.140625,-3.5,435
375,1695754854525,-0.13476562,-0.9973755,0.12176514,-1.765625,-10.296875,-3.71875,436
376,1695754854565,-0.12109375,-1.0213013,0.15618896,-3.96875,-8.65625,-2.46875,437
377,1695754854605,-0.14672852,-1.0466919,0.21551514,-11.078125,-7.21875,-2.9375,438
378,1695754854645,-0.17993164,-0.99957275,0.18914795,-14.09375,-3.421875,-4.375,439
379,1695754854685,-0.13623047,-1.0149536,0.24847412,2.140625,19.40625,4.71875,440
380,1695754854725,-0.13452148,-1.0188599,0.2526245,9.96875,14.984375,7.0,441
381,1695754854765,-0.12963867,-0.9805298,0.23406982,6.90625,11.671875,1.6875,442
382,1695754854805,-0.13891602,-0.9993286,0.17230225,-0.859375,4.53125,1.0,443
383,1695754854845,-0.13134766,-0.9524536,0.16790771,-1.703125,1.4375,-0.796875,444
384,1695754854885,-0.14892578,-0.95684814,0.17327881,0.171875,0.8125,-0.75,445
385,1695754854925,-0.17138672,-0.9692993,0.16546631,0.453125,-0.46875,-0.328125,446
386,1695754854965,-0.15014648,-0.9570923,0.16619873,-3.265625,-0.53125,-0.078125,447
387,1695754855005,-0.14453125,-0.94366455,0.17254639,-7.25,-3.171875,-0.359375,448
388,1695754855045,-0.1394043,-0.93829346,0.17962646,-10.0625,-10.234375,-1.890625,449
389,1695754855085,-0.1586914,-0.9348755,0.17523193,1.859375,-11.390625,-3.09375,450
390,1695754855125,-0.10522461,-0.9356079,0.15057373,4.078125,-5.59375,-0.015625,451
391,1695754855165,-0.1394043,-0.9697876,0.20770264,-2.046875,-8.453125,-1.5,452
392,1695754855205,-0.14160156,-0.9763794,0.2296753,-6.984375,-7.328125,-4.65625,453
393,1695754855245,-0.1496582,-0.9924927,0.2020874,-6.59375,-6.703125,-1.984375,454
394,1695754855285,-0.17602539,-0.9612427,0.20843506,-7.25,-10.578125,-3.046875,455
395,1695754855325,-0.1953125,-0.954895,0.22064209,-6.8125,-13.703125,-6.5625,456
396,1695754855365,-0.18115234,-0.97052,0.23138428,-1.34375,-2.765625,-3.609375,457
397,1695754855405,-0.15454102,-0.98760986,0.2086792,11.265625,9.921875,3.359375,458
398,1695754855445,-0.17382812,-0.9763794,0.2033081,7.234375,2.140625,2.53125,459
399,1695754855485,-0.1796875,-0.973938,0.21063232,3.828125,-0.0625,-2.59375,460
400,1695754855525,-0.14428711,-0.9841919,0.21697998,-1.546875,-1.625,-1.78125,461
401,1695754855565,-0.15625,-0.98638916,0.22283936,-2.1875,-3.171875,-1.40625,462
402,1695754855605,-0.17553711,-0.9758911,0.22601318,-3.375,-4.65625,-2.140625,463
403,1695754855645,-0.19873047,-0.97613525,0.23797607,-3.375,-4.296875,-2.078125,464
404,1695754855685,-0.2121582,-0.99420166,0.324646,-13.359375,-4.125,-4.34375,465
405,1695754855725,-0.22583008,-1.0090942,0.2970581,-16.890625,-0.28125,-4.984375,466
406,1695754855765,-0.20800781,-0.97979736,0.3209839,-2.375,9.734375,2.96875,467
407,1695754855805,-0.18969727,-0.9385376,0.24090576,-1.6875,9.71875,-0.046875,468
408,1695754855845,-0.21020508,-0.93218994,0.24139404,10.40625,7.25,1.140625,469
409,1695754855885,-0.18969727,-0.9624634,0.1876831,23.09375,7.03125,1.0625,470
410,1695754855925,-0.16137695,-0.9536743,0.14691162,26.75,10.828125,6.03125,471
411,1695754855965,-0.12646484,-0.944397,0.13519287,16.515625,4.28125,5.71875,472
412,1695754856005,-0.18408203,-0.94732666,0.13812256,4.234375,-0.921875,-0.140625,473
413,1695754856045,-0.14941406,-0.956604,0.15325928,-5.875,-8.375,-1.8125,474
414,1695754856085,-0.15039062,-0.94854736,0.15545654,-5.5,-9.40625,-1.703125,475
415,1695754856125,-0.14941406,-0.96099854,0.1798706,-5.109375,-7.40625,-2.921875,476
416,1695754856165,-0.17602539,-0.9776001,0.21795654,-11.421875,-7.25,-4.015625,477
417,1695754856205,-0.17602539,-1.0171509,0.22161865,-19.109375,-8.875,-6.953125,478
418,1695754856245,-0.20117188,-0.94317627,0.24798584,-34.796875,-13.6875,-5.546875,479
419,1695754856285,-0.25756836,-1.022522,0.39227295,-22.640625,-11.0625,-11.734375,480
420,1695754856325,-0.17407227,-0.9685669,0.28240967,-9.3125,5.703125,2.5,481
421,1695754856365,-0.19799805,-0.9439087,0.3283081,-3.71875,8.34375,5.09375,482
422,1695754856405,-0.22216797,-0.97076416,0.29144287,-1.609375,4.84375,2.125,483
423,1695754856445,-0.20776367,-0.9558716,0.31878662,10.3125,14.734375,4.671875,484
424,1695754856485,-0.18652344,-0.9517212,0.29803467,13.125,15.75,8.25,485
425,1695754856525,-0.1772461,-0.92315674,0.25897217,13.71875,11.953125,5.140625,486
426,1695754856565,-0.16503906,-0.9204712,0.24285889,13.5,10.109375,3.90625,487
427,1695754856605,-0.15844727,-0.9102173,0.21380615,15.578125,6.25,1.9375,488
428,1695754856645,-0.13330078,-0.927063,0.17352295,25.5625,4.90625,0.125,489
429,1695754856685,-0.11376953,-0.9517212,0.16082764,21.90625,5.296875,0.734375,490
430,1695754856725,-0.1352539,-1.00177,0.13739014,7.640625,-11.8125,-1.375,491
431,1695754856765,-0.16308594,-1.0088501,0.168396,2.078125,-12.21875,-3.890625,492
432,1695754856805,-0.16503906,-0.9939575,0.1942749,-5.96875,-5.90625,-0.890625,493
433,1695754856845,-0.15112305,-0.97320557,0.10247803,-9.765625,-9.3125,-1.65625,494
434,1695754856885,-0.14819336,-0.9338989,0.124938965,-1.34375,-5.578125,-4.265625,495
435,1695754856925,-0.14916992,-1.0120239,0.20574951,0.65625,-2.734375,-2.375,496
436,1695754856965,-0.16308594,-1.0112915,0.20355225,-5.375,-6.109375,-1.640625,497
437,1695754857005,-0.16308594,-0.97613525,0.1828003,-2.59375,-2.71875,-0.65625,498
438,1695754857045,-0.15991211,-0.97320557,0.14691162,2.890625,-0.796875,1.5625,499
439,1695754857085,-0.15991211,-0.95928955,0.18792725,2.0625,2.0,1.265625,500
440,1695754857125,-0.1574707,-1.0027466,0.21429443,-4.453125,-3.625,-1.65625,501
441,1695754857165,-0.17626953,-1.0142212,0.22772217,-10.6875,-5.0,-2.6875,502
442,1695754857205,-0.18969727,-0.95440674,0.23504639,-20.359375,-2.59375,-5.0,503
443,1695754857245,-0.20605469,-1.0303345,0.28656006,-21.90625,-0.328125,0.046875,504
444,1695754857285,-0.1821289,-0.9854126,0.33392334,-26.953125,-0.59375,-0.90625,505
445,1695754857325,-0.22509766,-0.9356079,0.32147217,-31.0625,-15.796875,-2.90625,506
446,1695754857365,-0.24951172,-0.93878174,0.34124756,-8.296875,-4.890625,-5.40625,507
447,1695754857405,-0.18408203,-0.90948486,0.30096436,-4.578125,3.78125,0.75,508
448,1695754857445,-0.2055664,-0.9636841,0.3493042,7.390625,9.265625,-0.625,509
449,1695754857485,-0.18652344,-0.973938,0.29925537,12.671875,15.9375,4.0,510
450,1695754857525,-0.18383789,-0.9500122,0.3180542,23.046875,23.421875,6.640625,511
451,1695754857565,-0.1574707,-0.9348755,0.2843628,23.21875,19.0625,4.90625,512
452,1695754857605,-0.15258789,-0.93292236,0.22601318,33.84375,22.953125,5.0625,513
453,1695754857645,-0.10449219,-0.9546509,0.18353271,45.21875,27.828125,7.4375,514
454,1695754857685,-0.10253906,-0.9561157,0.12249756,30.234375,12.9375,5.03125,515
455,1695754857725,-0.10107422,-0.9351196,0.08026123,11.171875,-3.125,-1.4375,516
456,1695754857765,-0.09863281,-0.9578247,0.09539795,-14.375,-18.546875,-2.75,517
457,1695754857805,-0.14013672,-0.9602661,0.13861084,-26.3125,-33.25,-9.078125,518
458,1695754857845,-0.14111328,-1.0005493,0.17694092,-16.140625,-17.546875,-8.453125,519
459,1695754857885,-0.12719727,-0.97442627,0.13934326,-5.34375,-7.15625,0.09375,520
460,1695754857925,-0.1430664,-0.9446411,0.11102295,-2.96875,-13.640625,-3.515625,521
461,1695754857965,-0.15429688,-0.9907837,0.18817139,-6.390625,-14.9375,-6.28125,522
462,1695754858005,-0.18359375,-1.0293579,0.24456787,-8.71875,-14.21875,-5.921875,523
463,1695754858045,-0.18847656,-1.013977,0.260437,-0.640625,-3.375,-2.125,524
464,1695754858085,-0.18041992,-0.9981079,0.23040771,5.515625,7.6875,4.828125,525
465,1695754858125,-0.18334961,-0.9783325,0.1876831,1.03125,1.234375,1.953125,526
466,1695754858165,-0.17529297,-0.9793091,0.2826538,-6.828125,-1.234375,-2.46875,527
467,1695754858205,-0.16064453,-1.0164185,0.24432373,-29.640625,-10.765625,-5.25,528
468,1695754858245,-0.2553711,-0.91973877,0.21453857,-24.40625,-11.34375,-8.96875,529
469,1695754858285,-0.18798828,-0.9216919,0.3348999,-15.65625,1.59375,-6.953125,530
470,1695754858325,-0.20483398,-0.9121704,0.3475952,-17.34375,3.921875,0.34375,531
471,1695754858365,-0.27075195,-0.9356079,0.37713623,-15.265625,-7.0,-3.328125,532
472,1695754858405,-0.27441406,-0.89801025,0.35028076,14.328125,-4.15625,-1.703125,533
473,1695754858445,-0.18334961,-1.0064087,0.20428467,45.234375,19.34375,7.9375,534
474,1695754858485,-0.15649414,-0.90289307,0.17401123,37.90625,22.5625,12.421875,535
475,1695754858525,-0.1928711,-1.0249634,0.21429443,23.390625,10.171875,3.796875,536
476,1695754858565,-0.18481445,-1.0322876,0.18353271,2.671875,0.734375,0.984375,537
477,1695754858605,-0.17089844,-0.93951416,0.13861084,1.875,-0.59375,1.328125,538
478,1695754858645,-0.14868164,-0.9143677,0.13861084,10.546875,4.421875,1.5625,539
479,1695754858685,-0.12866211,-0.93634033,0.17010498,1.53125,0.234375,0.109375,540
480,1695754858725,-0.16113281,-0.9649048,0.16766357,-5.0625,-3.234375,-2.421875,541
481,1695754858765,-0.1430664,-0.9663696,0.21575928,-11.75,-3.140625,-3.578125,542
482,1695754858805,-0.17138672,-1.0181274,0.15838623,-18.4375,-7.453125,-6.328125,543
483,1695754858845,-0.16967773,-0.9302368,0.21136475,-7.265625,7.015625,-4.390625,544
484,1695754858885,-0.17944336,-1.0322876,0.3283081,-1.234375,13.203125,4.390625,545
485,1695754858925,-0.20483398,-1.0635376,0.33929443,-4.515625,9.6875,1.234375,546
486,1695754858965,-0.20532227,-1.0188599,0.28363037,-5.953125,4.46875,0.078125,547
487,1695754859005,-0.18188477,-0.98883057,0.2506714,-2.796875,7.484375,0.125,548
488,1695754859045,-0.16259766,-0.9849243,0.23236084,7.109375,9.28125,1.375,549
489,1695754859085,-0.16479492,-0.95806885,0.20111084,9.015625,10.609375,1.734375,550
490,1695754859125,-0.16870117,-0.95025635,0.2230835,8.046875,10.53125,2.0,551
491,1695754859165,-0.1730957,-0.9451294,0.18255615,4.515625,7.328125,1.71875,552
492,1695754859205,-0.12963867,-0.92437744,0.18597412,10.34375,11.96875,3.359375,553
493,1695754859245,-0.12182617,-0.90216064,0.15765381,12.8125,7.75,3.5625,554
494,1695754859285,-0.12548828,-0.909729,0.1593628,13.765625,2.234375,0.984375,555
495,1695754859325,-0.10180664,-0.96343994,0.14447021,-2.125,-10.3125,-1.671875,556
496,1695754859365,-0.13623047,-0.95684814,0.14764404,-17.203125,-31.15625,-5.640625,557
497,1695754859405,-0.16992188,-0.9199829,0.18597412,-20.21875,-39.15625,-12.171875,558
498,1695754859445,-0.15820312,-1.0161743,0.19940186,0.25,-5.28125,-5.359375,559
499,1695754859485,-0.17480469,-0.9956665,0.20526123,5.25,10.78125,7.296875,560
500,1695754859525,-0.20361328,-0.98101807,0.18499756,-4.1875,-4.84375,-1.1875,561
501,1695754859565,-0.19628906,-0.9553833,0.19622803,-2.5625,-6.03125,-5.203125,562
502,1695754859605,-0.15161133,-1.0056763,0.21600342,-0.890625,-1.9375,-4.03125,563
503,1695754859645,-0.09423828,-0.97003174,0.16253662,14.734375,13.34375,4.796875,564
504,1695754859685,-0.15356445,-0.9907837,0.24163818,13.359375,12.0,8.5,565
505,1695754859725,-0.18530273,-0.9932251,0.20770264,1.765625,-1.171875,1.015625,566
506,1695754859765,-0.14111328,-0.9602661,0.18963623,1.96875,0.125,-0.25,567
507,1695754859805,-0.13330078,-0.97003174,0.18597412,-0.109375,-1.5,-0.734375,568
508,1695754859845,-0.15478516,-0.986145,0.20233154,-4.640625,-5.109375,-2.671875,569
509,1695754859885,-0.17773438,-1.0105591,0.22406006,-14.53125,-5.203125,-5.703125,570
510,1695754859925,-0.20336914,-0.991272,0.25701904,-18.484375,-1.359375,-2.734375,571
511,1695754859965,-0.23071289,-1.0222778,0.30950928,-13.890625,-1.6875,-4.265625,572
512,1695754860005,-0.1928711,-0.95440674,0.3024292,-1.015625,8.203125,-2.734375,573
513,1695754860045,-0.17822266,-1.0007935,0.23480225,15.359375,7.6875,3.296875,574
514,1695754860085,-0.18310547,-0.940979,0.12030029,20.625,5.625,2.546875,575
515,1695754860125,-0.14624023,-0.93414307,0.1293335,25.09375,8.296875,3.75,576
516,1695754860165,-0.17236328,-0.97076416,0.12957764,12.234375,4.53125,2.296875,577
517,1695754860205,-0.18676758,-0.96466064,0.13665771,2.65625,0.03125,-0.6875,578
518,1695754860245,-0.14477539,-0.9343872,0.09588623,-2.71875,-10.234375,0.25,579
519,1695754860285,-0.12670898,-0.9216919,0.1359253,-1.203125,-9.171875,-2.546875,580
520,1695754860325,-0.14282227,-0.93951416,0.14422607,-8.25,-12.1875,-4.75,581
521,1695754860365,-0.15527344,-0.9685669,0.16766357,-15.546875,-10.65625,-5.40625,582
522,1695754860405,-0.17578125,-1.006897,0.17425537,-11.09375,-10.59375,-6.15625,583
523,1695754860445,-0.15771484,-1.0005493,0.19915771,-7.359375,-6.1875,-2.8125,584
524,1695754860485,-0.17797852,-1.0203247,0.20477295,-9.515625,-5.390625,-2.203125,585
525,1695754860525,-0.20361328,-1.0310669,0.19354248,-12.78125,-6.171875,-3.671875,586
526,1695754860565,-0.22094727,-0.9805298,0.25531006,-12.6875,-2.203125,-4.25,587
527,1695754860605,-0.23291016,-0.9585571,0.37860107,-21.890625,0.625,-3.078125,588
528,1695754860645,-0.26293945,-0.99835205,0.40863037,-22.8125,-0.328125,-2.46875,589
529,1695754860685,-0.21484375,-0.9192505,0.3065796,-18.765625,-4.890625,-0.453125,590
530,1695754860725,-0.1940918,-0.85894775,0.28607178,-18.765625,-10.203125,-3.171875,591
531,1695754860765,-0.21313477,-0.92315674,0.35028076,-2.734375,2.96875,0.046875,592
532,1695754860805,-0.24731445,-0.94854736,0.33587646,12.828125,19.546875,4.234375,593
533,1695754860845,-0.21801758,-0.93292236,0.3287964,22.65625,25.875,5.953125,594
534,1695754860885,-0.19848633,-0.9717407,0.30169678,31.984375,28.734375,5.125,595
535,1695754860925,-0.17480469,-0.958313,0.22918701,29.453125,16.484375,4.640625,596
536,1695754860965,-0.14135742,-0.94903564,0.22332764,29.15625,10.8125,2.984375,597
537,1695754861005,-0.15722656,-0.9780884,0.18084717,19.234375,2.328125,2.40625,598
538,1695754861045,-0.17919922,-0.94659424,0.14471436,17.203125,-4.15625,0.890625,599
539,1695754861085,-0.15429688,-0.9373169,0.13861084,10.25,-3.9375,0.71875,600
540,1695754861125,-0.14282227,-0.96954346,0.11102295,-1.40625,-11.84375,-0.953125,601
541,1695754861165,-0.13842773,-0.93048096,0.11224365,-6.984375,-9.203125,-5.6875,602
542,1695754861205,-0.14355469,-1.0076294,0.16009521,-1.453125,-0.59375,-0.84375,603
543,1695754861245,-0.17163086,-0.99102783,0.14764404,-9.0,-5.5,-2.28125,604
544,1695754861285,-0.16064453,-0.9824829,0.12713623,-4.671875,-7.921875,-4.40625,605
545,1695754861325,-0.13574219,-0.9949341,0.16546631,-2.640625,-3.796875,-2.375,606
546,1695754861365,-0.1652832,-1.0005493,0.18231201,-4.640625,-2.9375,-0.84375,607
547,1695754861405,-0.16699219,-0.98565674,0.20819092,-3.765625,1.046875,-1.25,608
548,1695754861445,-0.19213867,-0.9981079,0.23968506,1.59375,11.25,2.546875,609
549,1695754861485,-0.15991211,-0.99176025,0.18914795,6.984375,15.28125,6.28125,610
550,1695754861525,-0.16479492,-1.0137329,0.24749756,3.40625,18.4375,5.21875,611
551,1695754861565,-0.19238281,-1.024231,0.21014404,3.390625,11.390625,2.90625,612
552,1695754861605,-0.12988281,-1.0108032,0.14984131,7.9375,10.84375,2.109375,613
553,1695754861645,-0.140625,-0.9307251,0.16131592,6.984375,6.484375,0.46875,614
554,1695754861685,-0.12548828,-0.9751587,0.11907959,-0.34375,-1.265625,-0.65625,615
555,1695754861725,-0.15917969,-0.9351196,0.13934326,-7.5,-11.671875,-2.28125,616
556,1695754861765,-0.16210938,-0.9800415,0.14886475,-4.296875,-14.359375,-4.890625,617
557,1695754861805,-0.14355469,-0.8904419,0.11468506,-13.1875,-20.421875,-3.0,618
558,1695754861845,-0.18164062,-0.93292236,0.16278076,-7.28125,-22.9375,-4.71875,619
559,1695754861885,-0.16137695,-0.99713135,0.20184326,-8.796875,-16.140625,-7.296875,620
560,1695754861925,-0.17016602,-0.98150635,0.19525146,-4.796875,-4.015625,-0.640625,621
561,1695754861965,-0.1850586,-0.973938,0.20428467,-3.625,-0.921875,-0.328125,622
562,1695754862005,-0.18237305,-0.98101807,0.22039795,-5.890625,-1.4375,-2.71875,623
563,1695754862045,-0.19042969,-1.0076294,0.2699585,-3.71875,5.578125,-3.859375,624
564,1695754862085,-0.17407227,-1.0342407,0.28167725,-6.5625,5.0,2.515625,625
565,1695754862125,-0.19311523,-0.99346924,0.27069092,-10.5625,-0.296875,2.171875,626
566,1695754862165,-0.15991211,-0.95928955,0.19647217,-33.796875,-13.734375,-5.015625,627
567,1695754862205,-0.2211914,-0.8731079,0.24090576,-22.296875,-14.71875,-8.171875,628
568,1695754862245,-0.21240234,-0.9290161,0.41912842,-16.390625,-3.484375,-2.96875,629
569,1695754862285,-0.28857422,-0.9570923,0.35491943,-10.28125,-8.9375,-3.78125,630
570,1695754862325,-0.21606445,-0.8831177,0.29852295,0.25,2.3125,0.953125,631
571,1695754862365,-0.21191406,-0.9234009,0.35394287,5.40625,13.125,4.328125,632
572,1695754862405,-0.22973633,-0.98687744,0.34613037,9.03125,8.71875,2.328125,633
573,1695754862445,-0.1862793,-0.98516846,0.3222046,14.921875,13.6875,3.65625,634
574,1695754862485,-0.1743164,-0.9673462,0.2819214,15.546875,14.078125,6.34375,635
575,1695754862525,-0.17797852,-0.9619751,0.27874756,13.078125,10.21875,3.390625,636
576,1695754862565,-0.16845703,-0.96221924,0.28094482,1.53125,1.546875,2.078125,637
577,1695754862605,-0.17089844,-0.9221802,0.26922607,-11.40625,-10.984375,-1.203125,638
578,1695754862645,-0.19360352,-0.9133911,0.27996826,-7.46875,-8.8125,-2.25,639
579,1695754862685,-0.17211914,-0.9043579,0.3036499,1.75,0.53125,-0.125,640
580,1695754862725,-0.1640625,-0.9014282,0.26361084,9.78125,8.5625,2.03125,641
581,1695754862765,-0.16357422,-0.91241455,0.26287842,23.25,15.578125,2.546875,642
582,1695754862805,-0.15332031,-0.9924927,0.21209717,29.5,13.3125,3.1875,643
583,1695754862845,-0.122802734,-1.0054321,0.21234131,6.546875,-7.578125,-0.3125,644
584,1695754862885,-0.16088867,-0.96295166,0.1942749,-24.96875,-30.859375,-4.671875,645
585,1695754862925,-0.21459961,-0.97613525,0.25360107,-24.1875,-27.625,-10.46875,646
586,1695754862965,-0.19140625,-0.9595337,0.26116943,-7.6875,-4.1875,-3.1875,647
587,1695754863005,-0.18847656,-0.9360962,0.26019287,4.140625,0.40625,0.0625,648
588,1695754863045,-0.17626953,-0.97442627,0.2736206,6.0,1.203125,-0.8125,649
589,1695754863085,-0.18847656,-0.97613525,0.26727295,-0.96875,-2.40625,-1.28125,650
590,1695754863125,-0.1862793,-0.97540283,0.26678467,-0.515625,-3.890625,-2.8125,651
591,1695754863165,-0.19799805,-0.9717407,0.28045654,2.234375,-1.125,-0.921875,652
592,1695754863205,-0.2265625,-0.9661255,0.27947998,0.21875,-0.078125,-0.546875,653
593,1695754863245,-0.22802734,-0.9846802,0.2921753,-3.921875,3.25,-1.140625,654
594,1695754863285,-0.21777344,-0.98223877,0.3048706,-16.40625,-2.421875,-2.359375,655
595,1695754863325,-0.23046875,-0.9561157,0.28948975,-19.109375,-7.78125,-4.71875,656
596,1695754863365,-0.21923828,-0.92315674,0.30706787,-12.65625,1.46875,-2.234375,657
597,1695754863405,-0.20751953,-0.9170532,0.33221436,-5.515625,6.296875,0.203125,658
598,1695754863445,-0.2368164,-0.9446411,0.36395264,-0.59375,6.40625,0.5625,659
599,1695754863485,-0.2241211,-0.9492798,0.33929443,10.0625,12.5625,2.78125,660
600,1695754863525,-0.19506836,-0.9534302,0.29779053,15.4375,17.609375,5.21875,661
601,1695754863565,-0.1821289,-0.96343994,0.3048706,13.5625,16.90625,5.75,662
602,1695754863605,-0.17675781,-0.96832275,0.2904663,8.515625,10.5625,4.25,663
603,1695754863645,-0.15917969,-0.96661377,0.2765503,7.84375,8.90625,3.15625,664
604,1695754863685,-0.15136719,-0.96832275,0.26483154,7.5,7.625,3.171875,665
605,1695754863725,-0.14379883,-0.9338989,0.26727295,2.078125,1.96875,1.234375,666
606,1695754863765,-0.13769531,-0.95269775,0.25506592,-0.875,0.171875,0.90625,667
607,1695754863805,-0.15917969,-0.8804321,0.24383545,3.5,0.5625,-1.671875,668
608,1695754863845,-0.14672852,-0.8897095,0.24066162,15.765625,7.671875,-0.75,669
609,1695754863885,-0.11328125,-0.91534424,0.20159912,18.03125,4.078125,0.0625,670
610,1695754863925,-0.15356445,-1.000061,0.19281006,-7.203125,-26.53125,-6.09375,671
611,1695754863965,-0.1928711,-0.96343994,0.23602295,-41.53125,-41.390625,-10.375,672
612,1695754864005,-0.21728516,-0.97442627,0.26556396,-21.6875,-20.265625,-11.625,673
613,1695754864045,-0.1706543,-0.9451294,0.2904663,-2.5625,2.53125,1.0,674
614,1695754864085,-0.22680664,-0.96881104,0.30340576,15.6875,6.484375,2.71875,675
615,1695754864125,-0.19116211,-0.9920044,0.29730225,7.109375,4.828125,1.375,676
616,1695754864165,-0.17407227,-1.005188,0.29608154,0.671875,0.46875,-1.578125,677
617,1695754864205,-0.17822266,-0.99420166,0.27923584,3.984375,3.125,0.4375,678
618,1695754864245,-0.20678711,-0.9385376,0.27264404,4.75,3.84375,1.984375,679
619,1695754864285,-0.19873047,-0.9668579,0.27630615,7.046875,8.515625,1.515625,680
620,1695754864325,-0.19042969,-0.958313,0.28094482,0.828125,12.609375,1.515625,681
621,1695754864365,-0.1953125,-0.99713135,0.33148193,1.6875,15.234375,3.3125,682
622,1695754864405,-0.20092773,-0.95391846,0.27313232,-5.140625,5.078125,2.546875,683
623,1695754864445,-0.16723633,-0.94317627,0.24066162,-3.796875,4.46875,0.078125,684
624,1695754864485,-0.14916992,-0.9702759,0.2609253,-6.546875,-1.796875,-1.453125,685
625,1695754864525,-0.16333008,-0.9475708,0.27386475,-13.859375,-7.765625,-2.609375,686
626,1695754864565,-0.18164062,-0.925354,0.29656982,-5.046875,-3.578125,-0.90625,687
627,1695754864605,-0.18139648,-0.90753174,0.3156128,-0.53125,-1.953125,1.390625,688
628,1695754864645,-0.1887207,-0.93536377,0.22210693,20.375,3.5,0.828125,689
629,1695754864685,-0.12524414,-0.93048096,0.23284912,18.9375,3.375,3.171875,690
630,1695754864725,-0.13110352,-0.96173096,0.24481201,2.359375,-14.9375,-2.671875,691
631,1695754864765,-0.17260742,-0.96173096,0.24188232,-8.234375,-14.078125,-4.09375,692
632,1695754864805,-0.20288086,-0.96759033,0.26727295,2.921875,8.546875,-0.109375,693
633,1695754864845,-0.16870117,-0.9998169,0.27215576,9.09375,25.015625,3.921875,694
634,1695754864885,-0.16699219,-1.0383911,0.31781006,13.265625,28.140625,5.84375,695
635,1695754864925,-0.1496582,-1.0044556,0.26361084,6.96875,11.359375,4.0625,696
636,1695754864965,-0.11743164,-0.9771118,0.22039795,7.484375,8.703125,2.609375,697
637,1695754865005,-0.123291016,-0.9902954,0.20233154,10.671875,7.390625,1.84375,698
638,1695754865045,-0.13989258,-0.96661377,0.1984253,3.75,1.734375,0.90625,699
639,1695754865085,-0.13867188,-0.92974854,0.18035889,-3.859375,-6.421875,-0.59375,700
640,1695754865125,-0.16186523,-0.8977661,0.17132568,-2.9375,-10.0625,-1.78125,701
641,1695754865165,-0.13330078,-0.9048462,0.15325928,2.921875,-7.4375,-1.546875,702
642,1695754865205,-0.13427734,-0.91729736,0.1774292,-11.46875,-23.03125,-4.390625,703
643,1695754865245,-0.17578125,-0.9468384,0.19329834,-19.171875,-27.703125,-10.703125,704
644,1695754865285,-0.14770508,-0.99786377,0.23236084,-8.90625,-7.515625,-5.6875,705
645,1695754865325,-0.17333984,-0.9927368,0.26434326,1.9375,3.03125,1.515625,706
646,1695754865365,-0.15795898,-0.98272705,0.21136475,-1.21875,-1.328125,-0.078125,707
647,1695754865405,-0.17089844,-0.98321533,0.22235107,2.0,-3.703125,-1.71875,708
648,1695754865445,-0.14160156,-1.0142212,0.24285889,2.296875,0.046875,-0.03125,709
649,1695754865485,-0.14453125,-0.9993286,0.2675171,1.453125,0.609375,1.609375,710
650,1695754865525,-0.19506836,-0.9644165,0.2741089,-1.90625,-2.09375,0.953125,711
651,1695754865565,-0.20410156,-0.94781494,0.24969482,-1.9375,-3.46875,-0.625,712
652,1695754865605,-0.18823242,-0.92193604,0.24285889,-4.640625,-3.09375,-1.8125,713
653,1695754865645,-0.18530273,-0.9360962,0.26287842,-7.984375,-4.859375,-3.578125,714
654,1695754865685,-0.20532227,-0.9673462,0.29974365,-11.28125,-5.625,-4.578125,715
655,1695754865725,-0.21459961,-0.9746704,0.29974365,-18.640625,-5.703125,-5.921875,716
656,1695754865765,-0.21459961,-0.96539307,0.35491943,-21.546875,-5.390625,-5.578125,717
657,1695754865805,-0.24316406,-0.9702759,0.41741943,-19.9375,-2.671875,-4.734375,718
658,1695754865845,-0.24414062,-0.9143677,0.3788452,-8.25,1.046875,-1.5,719
659,1695754865885,-0.2368164,-0.90997314,0.3114624,12.578125,3.4375,1.671875,720
660,1695754865925,-0.2241211,-0.90704346,0.2802124,28.84375,12.34375,2.4375,721
661,1695754865965,-0.17602539,-0.9500122,0.23406982,31.515625,12.328125,4.296875,722
662,1695754866005,-0.16503906,-0.9143677,0.1828003,28.046875,11.75,4.28125,723
663,1695754866045,-0.1821289,-0.94122314,0.1762085,22.640625,13.328125,8.1875,724
664,1695754866085,-0.16699219,-0.96588135,0.23651123,6.859375,3.984375,3.78125,725
665,1695754866125,-0.16796875,-0.96099854,0.19647217,2.6875,2.0625,0.5625,726
666,1695754866165,-0.15161133,-0.9390259,0.1798706,4.953125,3.28125,0.546875,727
667,1695754866205,-0.15478516,-0.96343994,0.18035889,2.328125,0.953125,-0.578125,728
668,1695754866245,-0.16235352,-0.98883057,0.18133545,-2.15625,-1.3125,-1.921875,729
669,1695754866285,-0.16333008,-1.0005493,0.2243042,-7.765625,-4.578125,-2.640625,730
670,1695754866325,-0.18969727,-1.0215454,0.2514038,-11.421875,-5.578125,-3.3125,731
671,1695754866365,-0.17236328,-1.0098267,0.23944092,-20.09375,-2.78125,-2.171875,732
672,1695754866405,-0.1772461,-0.9702759,0.23138428,-31.453125,-15.09375,-4.875,733
673,1695754866445,-0.21704102,-0.91192627,0.37957764,-32.078125,-14.921875,-9.515625,734
674,1695754866485,-0.23339844,-0.96832275,0.4130249,-19.21875,-5.25,-2.796875,735
675,1695754866525,-0.20776367,-0.894104,0.29608154,-8.765625,-4.15625,1.03125,736
676,1695754866565,-0.1977539,-0.8779907,0.33270264,-1.875,0.71875,0.3125,737
677,1695754866605,-0.22192383,-0.9470825,0.33929443,-1.4375,0.421875,-0.9375,738
678,1695754866645,-0.21362305,-0.958313,0.3595581,-0.09375,3.421875,1.0,739
679,1695754866685,-0.21923828,-0.9282837,0.36029053,5.0,9.015625,3.21875,740
680,1695754866725,-0.21948242,-0.9495239,0.34344482,8.734375,10.015625,2.6875,741
681,1695754866765,-0.19726562,-0.9483032,0.32196045,11.421875,10.65625,2.15625,742
682,1695754866805,-0.17407227,-0.94195557,0.32391357,12.15625,11.859375,2.640625,743
683,1695754866845,-0.17529297,-0.9470825,0.30950928,11.5,9.1875,2.921875,744
684,1695754866885,-0.1821289,-0.9146118,0.3114624,12.46875,11.140625,1.046875,745
685,1695754866925,-0.1628418,-0.9475708,0.25335693,6.296875,7.546875,-0.0625,746
686,1695754866965,-0.15112305,-0.94244385,0.27142334,7.25,6.40625,0.9375,747
687,1695754867005,-0.14892578,-0.94610596,0.2592163,-1.78125,0.5625,-0.46875,748
688,1695754867045,-0.15527344,-0.91412354,0.25994873,-1.0,-2.40625,-0.8125,749
689,1695754867085,-0.16601562,-0.91290283,0.26605225,4.09375,-1.984375,-1.203125,750
690,1695754867125,-0.16357422,-0.9439087,0.22625732,8.21875,-1.875,-0.21875,751
691,1695754867165,-0.1394043,-0.96954346,0.27020264,4.5625,-7.828125,-1.0,752
692,1695754867205,-0.20239258,-0.9512329,0.23138428,2.03125,-10.78125,-1.25,753
693,1695754867245,-0.14892578,-0.97247314,0.18939209,13.84375,6.125,1.71875,754
694,1695754867285,-0.14624023,-1.0088501,0.2296753,11.96875,12.34375,4.640625,755
695,1695754867325,-0.18774414,-1.0630493,0.28118896,4.09375,12.953125,-0.484375,756
696,1695754867365,-0.19189453,-1.0525513,0.2987671,-2.796875,13.34375,1.859375,757
697,1695754867405,-0.13500977,-0.97540283,0.2345581,2.296875,9.75,2.015625,758
698,1695754867445,-0.12158203,-0.96539307,0.1984253,4.484375,9.859375,1.953125,759
699,1695754867485,-0.12084961,-0.9981079,0.22943115,1.1875,2.109375,1.4375,760
700,1695754867525,-0.140625,-0.95269775,0.20916748,-9.359375,-6.265625,-0.625,761
701,1695754867565,-0.15258789,-0.9299927,0.1942749,-2.296875,-2.578125,-0.53125,762
702,1695754867605,-0.15039062,-0.9260864,0.21722412,0.828125,0.96875,0.859375,763
703,1695754867645,-0.13330078,-0.94415283,0.21014404,-1.515625,-1.3125,1.640625,764
704,1695754867685,-0.12963867,-0.9507446,0.21844482,-5.0625,-4.359375,0.78125,765
705,1695754867725,-0.14770508,-0.9651489,0.22503662,-8.8125,-7.953125,-0.84375,766
706,1695754867765,-0.140625,-0.96954346,0.23529053,-4.390625,-5.28125,-0.3125,767
707,1695754867805,-0.1274414,-0.97491455,0.23968506,-0.953125,0.453125,1.1875,768
708,1695754867845,-0.119628906,-1.003479,0.23675537,6.703125,6.3125,3.109375,769
709,1695754867885,-0.1274414,-0.97052,0.22869873,8.5,7.0625,1.453125,770
710,1695754867925,-0.10205078,-0.99835205,0.24261475,6.0625,6.34375,2.890625,771
711,1695754867965,-0.12670898,-0.9690552,0.22503662,0.484375,1.859375,2.046875,772
712,1695754868005,-0.13378906,-0.9717407,0.23065186,2.640625,0.6875,0.0625,773
713,1695754868045,-0.123046875,-0.93878174,0.2321167,5.03125,2.296875,0.09375,774
714,1695754868085,-0.11743164,-0.9229126,0.21380615,7.265625,2.234375,-0.34375,775
715,1695754868125,-0.103027344,-0.9151001,0.20794678,14.515625,7.15625,1.453125,776
716,1695754868165,-0.0949707,-0.94122314,0.1708374,10.125,-2.25,-0.0625,777
717,1695754868205,-0.1015625,-0.96466064,0.15032959,-27.703125,-34.625,-7.4375,778
718,1695754868245,-0.22583008,-1.0130005,0.23797607,-31.3125,-22.921875,-8.28125,779
719,1695754868285,-0.1171875,-0.99542236,0.25579834,1.8125,6.5,0.140625,780
720,1695754868325,-0.096191406,-0.9380493,0.22039795,1.78125,-0.1875,2.59375,781
721,1695754868365,-0.17333984,-0.97247314,0.21209717,-5.5,-6.96875,-3.125,782
722,1695754868405,-0.15136719,-1.0359497,0.28094482,-1.203125,1.453125,-2.21875,783
723,1695754868445,-0.11767578,-1.0237427,0.2453003,0.265625,-2.734375,-0.125,784
724,1695754868485,-0.13183594,-0.9963989,0.24407959,3.921875,2.75,0.6875,785
725,1695754868525,-0.19140625,-1.055481,0.340271,-14.90625,5.28125,1.875,786
726,1695754868565,-0.17578125,-0.95562744,0.29608154,-22.328125,-4.0625,1.609375,787
727,1695754868605,-0.15429688,-0.8838501,0.30145264,12.671875,8.25,1.3125,788
728,1695754868645,-0.1237793,-0.93927,0.2543335,21.3125,12.765625,3.90625,789
729,1695754868685,-0.11987305,-0.9175415,0.2543335,25.5,6.59375,1.875,790
730,1695754868725,-0.13354492,-0.9890747,0.15008545,27.890625,-1.0625,-0.390625,791
731,1695754868765,-0.10107422,-0.9771118,0.112976074,22.03125,7.03125,2.859375,792
732,1695754868805,-0.11230469,-0.9619751,0.13079834,8.25,3.328125,4.953125,793
733,1695754868845,-0.13085938,-0.9758911,0.1329956,-1.03125,-4.328125,-0.59375,794
734,1695754868885,-0.10205078,-0.9763794,0.124694824,-3.140625,-4.796875,-1.546875,795
735,1695754868925,-0.111083984,-0.95147705,0.14544678,-7.203125,-5.625,-1.8125,796
736,1695754868965,-0.11450195,-0.9717407,0.12322998,-11.9375,-10.84375,-4.71875,797
737,1695754869005,-0.109375,-0.97052,0.12200928,-9.640625,-10.34375,-4.734375,798
738,1695754869045,-0.13574219,-0.9841919,0.19012451,-0.078125,-2.875,-4.09375,799
739,1695754869085,-0.13696289,-1.0234985,0.18426514,-3.34375,-3.0625,-1.671875,800
740,1695754869125,-0.13916016,-0.989563,0.19378662,-0.96875,-0.6875,-1.140625,801
741,1695754869165,-0.14038086,-1.0108032,0.18817139,0.65625,-1.609375,-0.375,802
742,1695754869205,-0.122802734,-1.005188,0.20159912,-1.796875,-1.078125,-0.375,803
743,1695754869245,-0.13305664,-1.0117798,0.2526245,-1.546875,6.0,-0.890625,804
744,1695754869285,-0.18139648,-1.038147,0.28045654,0.234375,14.078125,2.046875,805
745,1695754869325,-0.15527344,-0.98516846,0.23114014,-0.203125,6.390625,6.453125,806
746,1695754869365,-0.15527344,-0.9248657,0.19378662,7.421875,11.796875,1.90625,807
747,1695754869405,-0.11694336,-1.015686,0.18450928,7.265625,7.9375,-0.34375,808
748,1695754869445,-0.115478516,-0.9483032,0.1708374,-0.9375,1.28125,-1.4375,809
749,1695754869485,-0.11645508,-0.95391846,0.13616943,-2.859375,-3.9375,-2.609375,810
750,1695754869525,-0.16308594,-0.9507446,0.13348389,8.3125,-2.390625,-2.921875,811
751,1695754869565,-0.11303711,-0.9507446,0.08782959,11.296875,-1.984375,-1.40625,812
752,1695754869605,-0.0859375,-0.92266846,0.101989746,5.828125,-2.5,1.21875,813
753,1695754869645,-0.13842773,-0.99053955,0.1317749,-7.96875,-18.734375,-5.296875,814
754,1695754869685,-0.12768555,-0.9729614,0.14813232,-11.921875,-15.625,-7.203125,815
755,1695754869725,-0.13598633,-0.97442627,0.17889404,-9.53125,-6.890625,-2.421875,816
756,1695754869765,-0.16625977,-0.9939575,0.20965576,-11.9375,-5.90625,-3.65625,817
757,1695754869805,-0.15771484,-1.0310669,0.19573975,-19.875,-8.25,-6.734375,818
758,1695754869845,-0.16796875,-0.9649048,0.2814331,-24.625,3.5625,-1.96875,819
759,1695754869885,-0.23364258,-1.0371704,0.4052124,-20.671875,-6.796875,-1.078125,820
