,timestamp,accel_x,accel_y,accel_z,gyro_x,gyro_y,gyro_z
0,1697605965,0.041992188,-0.98516846,-0.0095825195,-0.03125,0.4375,-0.46875
1,1697606005,0.030029297,-0.98516846,-0.012512207,-0.234375,-1.28125,-0.25
2,1697606045,0.040283203,-0.9920044,-0.009094238,0.0625,-1.515625,0.359375
3,1697606085,0.011474609,-0.9890747,-0.0037231445,-0.234375,-1.09375,0.125
4,1697606125,0.015136719,-0.9985962,-0.0012817383,-0.828125,-0.234375,-0.046875
5,1697606165,0.028808594,-0.9902954,-0.0029907227,-0.5,-0.125,0.59375
6,1697606205,0.02734375,-0.9854126,0.0018920898,-0.53125,-0.03125,0.625
7,1697606245,0.030273438,-0.9968872,-0.012512207,-1.046875,-0.34375,0.78125
8,1697606285,0.014160156,-0.9871216,0.012878418,-0.125,-0.28125,1.140625
9,1697606325,0.028808594,-1.0120239,-0.014465332,-1.078125,0.515625,0.765625
10,1697606365,0.033935547,-0.98150635,0.0018920898,-1.859375,0.53125,0.203125
11,1697606405,0.03100586,-0.9902954,0.007019043,-1.140625,0.15625,0.265625
12,1697606445,0.025634766,-0.98687744,-0.0025024414,-0.75,-0.609375,0.6875
13,1697606485,0.01928711,-0.98931885,-0.0005493164,-1.109375,-0.9375,0.140625
14,1697606525,0.025146484,-0.98883057,0.0053100586,0.203125,0.09375,0.625
15,1697606565,0.041503906,-0.99005127,0.003112793,-0.90625,-0.484375,0.8125
16,1697606605,0.020996094,-0.9937134,0.0016479492,-1.125,-1.46875,0.828125
17,1697606645,0.020019531,-0.99468994,0.0016479492,-1.015625,-0.3125,0.375
18,1697606685,0.029296875,-0.99298096,0.005065918,-0.90625,-0.625,0.765625
19,1697606725,0.018554688,-0.99713135,0.0036010742,-1.171875,-1.140625,1.4375
20,1697606765,0.01928711,-0.991272,0.006286621,-0.625,0.53125,1.859375
21,1697606805,0.052001953,-1.0042114,0.007507324,-1.640625,0.75,1.8125
22,1697606845,0.048828125,-0.9927368,-0.0064086914,-2.078125,-1.4375,0.671875
23,1697606885,0.040527344,-0.9714966,0.02166748,0.03125,-0.75,0.0625
24,1697606925,0.016113281,-1.0020142,0.01727295,-0.46875,-1.609375,1.203125
25,1697606965,0.0063476562,-0.9961548,0.010681152,-2.328125,-0.171875,1.09375
26,1697607005,0.061523438,-0.9890747,0.028015137,-0.78125,2.0,1.21875
27,1697607045,0.045166016,-0.99346924,0.0060424805,-1.203125,-0.59375,1.21875
28,1697607085,0.03881836,-0.9758911,0.013366699,-0.046875,-0.28125,0.09375
29,1697607125,0.03100586,-0.99005127,0.018493652,-0.421875,-0.1875,0.859375
30,1697607165,0.028808594,-0.99224854,0.024841309,-1.0625,0.421875,1.109375
31,1697607205,0.033935547,-0.9849243,0.023864746,-1.15625,-0.28125,1.078125
32,1697607245,0.04272461,-0.99176025,0.016540527,-0.75,0.15625,1.0625
33,1697607285,0.040283203,-0.99591064,0.016296387,-0.21875,0.171875,0.53125
34,1697607325,0.06201172,-0.99102783,0.004333496,-1.109375,0.15625,-0.359375
35,1697607365,0.045410156,-0.9873657,0.01361084,-1.421875,-1.25,0.171875
36,1697607405,0.030273438,-0.9951782,0.02166748,-1.625,-0.625,-0.171875
37,1697607445,0.0390625,-0.9949341,0.016052246,-2.390625,-0.375,0.046875
38,1697607485,0.030273438,-0.9780884,0.042175293,-0.203125,0.84375,0.34375
39,1697607525,0.029785156,-1.0032349,0.035339355,-1.9375,0.671875,0.078125
40,1697607565,0.028076172,-0.98028564,0.026306152,-1.828125,0.484375,0.09375
41,1697607605,0.03466797,-0.99957275,0.031677246,-0.203125,0.796875,0.96875
42,1697607645,0.037353516,-0.9902954,0.028503418,-0.734375,0.75,0.65625
43,1697607685,0.036865234,-0.98760986,0.0289917,-0.953125,0.296875,0.71875
44,1697607725,0.03100586,-0.9890747,0.026062012,0.03125,0.8125,1.15625
45,1697607765,0.056152344,-1.0007935,0.04046631,-0.546875,1.1875,0.921875
46,1697607805,0.034423828,-0.9998169,0.024597168,-0.703125,-1.03125,0.78125
47,1697607845,0.04663086,-0.9990845,0.031433105,0.3125,0.8125,0.296875
48,1697607885,0.057373047,-0.9727173,0.038024902,0.03125,-1.328125,0.359375
49,1697607925,0.009521484,-0.9985962,0.04168701,1.6875,-1.234375,0.9375
50,1697607965,0.045654297,-0.9998169,0.031677246,1.421875,0.890625,0.8125
51,1697608005,0.05419922,-0.9944458,0.032409668,2.671875,0.25,0.515625
52,1697608045,0.04638672,-1.0005493,0.016296387,2.375,-0.28125,-0.21875
53,1697608085,0.02734375,-0.9854126,0.0079956055,2.390625,-0.171875,-0.234375
54,1697608125,0.037353516,-0.9956665,0.028503418,2.296875,0.671875,1.03125
55,1697608165,0.03491211,-0.98809814,0.0004272461,-0.203125,0.9375,0.140625
56,1697608205,0.036621094,-1.003479,0.018493652,1.765625,1.953125,0.171875
57,1697608245,0.04711914,-0.9866333,0.0004272461,0.453125,0.40625,0.640625
58,1697608285,0.048339844,-0.9819946,0.013366699,1.640625,0.390625,-0.59375
59,1697608325,0.041259766,-0.9932251,0.010681152,1.53125,-0.484375,-0.171875
60,1697608365,0.025146484,-0.9949341,0.0026245117,1.453125,0.15625,-0.0625
61,1697608405,0.033447266,-0.9976196,-0.0154418945,0.046875,0.8125,-1.0
62,1697608445,0.036376953,-0.99542236,-0.0068969727,0.703125,0.796875,-0.21875
63,1697608485,0.030517578,-0.986145,-0.008117676,0.6875,1.03125,-0.09375
64,1697608525,0.030517578,-0.987854,-0.00592041,0.09375,0.84375,0.28125
65,1697608565,0.0390625,-0.99053955,-0.0029907227,-0.171875,2.703125,0.21875
66,1697608605,0.024658203,-0.98883057,-0.014953613,-1.0,1.671875,-0.484375
67,1697608645,0.030273438,-0.99298096,0.0053100586,0.328125,1.296875,-0.328125
68,1697608685,0.03466797,-0.9907837,-0.026916504,0.109375,2.53125,-1.0
69,1697608725,0.031982422,-1.003479,0.012634277,0.828125,2.953125,-0.25
70,1697608765,0.02368164,-0.9788208,-0.0037231445,-0.6875,0.9375,-2.546875
71,1697608805,0.017333984,-0.9993286,0.005554199,1.15625,2.375,-1.40625
72,1697608845,0.029052734,-0.98565674,-0.010070801,0.640625,1.359375,-1.140625
73,1697608885,0.0012207031,-0.9956665,-0.010559082,0.25,0.90625,-0.65625
74,1697608925,0.0043945312,-0.99542236,-0.010314941,1.40625,3.484375,-0.578125
75,1697608965,0.025146484,-0.9981079,-0.024719238,0.84375,2.890625,-0.4375
76,1697609005,0.012939453,-0.98272705,-0.012512207,-0.875,1.1875,-0.078125
77,1697609045,-0.0087890625,-0.986145,-0.010070801,0.359375,1.296875,-0.046875
78,1697609085,0.016357422,-0.99884033,-0.008605957,0.328125,2.46875,0.0625
79,1697609125,0.022460938,-0.99420166,-0.023010254,-0.25,2.21875,0.5
80,1697609165,0.006591797,-0.9993286,-0.020568848,-0.28125,1.203125,-0.046875
81,1697609205,0.017822266,-0.9793091,-0.01739502,-0.4375,0.421875,-1.265625
82,1697609245,0.009765625,-0.99591064,-0.04498291,-0.765625,-1.171875,-0.484375
83,1697609285,-0.0043945312,-0.97247314,0.017028809,1.46875,-0.3125,0.609375
84,1697609325,-0.025634766,-1.0054321,-0.025939941,-1.65625,1.390625,0.25
85,1697609365,0.013183594,-1.0003052,-0.012268066,1.40625,5.28125,0.453125
86,1697609405,0.035888672,-0.9985962,-0.01739502,0.578125,1.625,-1.234375
87,1697609445,-0.0068359375,-0.97125244,-0.018371582,1.4375,1.109375,-0.828125
88,1697609485,-0.0107421875,-0.9727173,-0.036193848,2.1875,2.953125,-1.046875
89,1697609525,0.001953125,-0.99786377,-0.023742676,2.78125,3.78125,0.828125
90,1697609565,0.007080078,-1.0044556,-0.04864502,2.21875,2.8125,0.234375
91,1697609605,0.0073242188,-0.9795532,-0.046203613,3.28125,1.921875,-0.46875
92,1697609645,0.00048828125,-0.9883423,-0.020080566,3.21875,1.578125,0.109375
93,1697609685,-0.028564453,-0.9795532,-0.047180176,2.75,0.921875,0.234375
94,1697609725,-0.010009766,-0.99005127,-0.050842285,2.3125,3.4375,-0.5
95,1697609765,0.0053710938,-0.9890747,-0.058654785,2.015625,2.078125,0.546875
96,1697609805,-0.018310547,-0.98443604,-0.06304932,1.625,1.4375,0.703125
97,1697609845,0.0012207031,-0.9956665,-0.047180176,2.515625,2.546875,0.8125
98,1697609885,0.008544922,-0.9817505,-0.05328369,-0.640625,0.75,0.578125
99,1697609925,-0.0075683594,-0.9678345,-0.05328369,1.140625,1.578125,0.125
100,1697609965,0.004638672,-0.98394775,-0.05670166,3.125,5.484375,1.828125
101,1697610005,-0.0017089844,-0.97979736,-0.101379395,0.6875,1.25,1.125
102,1697610045,0.0053710938,-0.99298096,-0.0635376,2.375,1.0625,1.109375
103,1697610085,-0.026367188,-0.9854126,-0.06304932,-0.9375,-1.234375,1.734375
104,1697610125,-0.013916016,-0.98443604,-0.062805176,-1.203125,-1.578125,1.09375
105,1697610165,0.0073242188,-0.99005127,-0.06890869,-4.078125,-3.0,1.09375
106,1697610205,-0.0007324219,-0.9937134,-0.047424316,-2.5625,-2.515625,0.40625
107,1697610245,-0.009765625,-1.00177,-0.055480957,-3.296875,-2.546875,1.015625
108,1697610285,0.008544922,-0.96881104,-0.059143066,-4.078125,-3.59375,1.515625
109,1697610325,0.0024414062,-0.9768677,-0.04888916,-2.578125,-3.0,1.65625
110,1697610365,0.021240234,-0.9927368,-0.022277832,-1.90625,-2.234375,2.390625
111,1697610405,0.012207031,-0.99786377,-0.054260254,-4.71875,-5.171875,0.59375
112,1697610445,-0.01928711,-0.9961548,-0.043518066,-2.9375,-1.359375,0.625
113,1697610485,0.03466797,-0.9866333,-0.031311035,-2.234375,1.046875,2.03125
114,1697610525,0.015625,-0.97784424,-0.043518066,-2.90625,-3.4375,1.390625
115,1697610565,0.008300781,-0.98883057,-0.017150879,-1.9375,-2.09375,1.421875
116,1697610605,0.025634766,-0.99102783,-0.014709473,-1.90625,-3.5625,0.46875
117,1697610645,0.005126953,-0.9859009,-0.020080566,-1.578125,-3.546875,-0.203125
118,1697610685,0.016601562,-1.0020142,-0.03765869,-3.09375,-3.3125,0.171875
119,1697610725,-0.0036621094,-0.9871216,-0.024230957,-0.984375,-2.234375,1.03125
120,1697610765,0.025878906,-0.9849243,-0.024963379,-2.0,-2.53125,1.5
121,1697610805,0.007080078,-0.9873657,-0.0032348633,-0.96875,-2.234375,2.109375
122,1697610845,0.0053710938,-0.99468994,-0.0076293945,-1.421875,-0.546875,2.484375
123,1697610885,0.032714844,-0.9939575,-0.022277832,-2.125,1.515625,2.125
124,1697610925,0.057617188,-0.9783325,0.014343262,1.71875,-0.046875,2.25
125,1697610965,0.053222656,-1.005188,-0.035705566,-4.921875,-0.65625,1.0625
126,1697611005,0.053466797,-0.9907837,-0.0051879883,-2.59375,-2.640625,-0.484375
127,1697611045,0.045898438,-0.9968872,0.010925293,-3.59375,-5.421875,-1.5625
128,1697611085,-0.04345703,-0.9793091,0.022155762,-0.46875,-3.609375,-0.359375
129,1697611125,-0.009033203,-0.9985962,0.016540527,-0.53125,0.578125,1.078125
130,1697611165,0.034423828,-1.0066528,0.0036010742,-0.234375,0.8125,2.875
131,1697611205,0.061767578,-0.9937134,-0.00982666,-1.71875,0.203125,1.59375
132,1697611245,0.045898438,-0.97076416,0.0038452148,-0.25,-2.859375,0.703125
133,1697611285,0.013427734,-0.9898071,0.00018310547,0.5,-3.65625,0.953125
134,1697611325,0.024658203,-0.99957275,0.0036010742,0.84375,-0.5,0.6875
135,1697611365,0.020019531,-1.0117798,-0.00030517578,-1.15625,-0.40625,2.09375
136,1697611405,0.038330078,-1.005188,-0.011047363,0.046875,-0.34375,1.765625
137,1697611445,0.048828125,-0.9805298,-0.0115356445,-1.46875,-2.234375,2.21875
138,1697611485,0.031982422,-0.9697876,0.026062012,1.6875,-0.890625,2.0625
139,1697611525,0.045654297,-1.0076294,-0.015686035,-1.6875,-0.546875,0.75
140,1697611565,0.041748047,-0.9866333,0.015808105,-1.453125,-1.640625,0.078125
141,1697611605,0.047851562,-1.0093384,0.014587402,-0.203125,0.203125,1.1875
142,1697611645,0.051757812,-0.9795532,-0.010559082,0.046875,0.171875,1.359375
143,1697611685,0.041259766,-0.9812622,0.0045776367,-0.140625,-1.109375,1.84375
144,1697611725,0.05029297,-0.9956665,0.008239746,-0.6875,-0.625,1.140625
145,1697611765,0.06347656,-0.9932251,0.005065918,-1.125,-1.84375,0.75
146,1697611805,0.05908203,-0.9973755,-0.005432129,-1.515625,-1.75,-0.234375
147,1697611845,0.05493164,-0.9854126,0.012878418,-0.140625,-1.25,-0.03125
148,1697611885,0.041259766,-0.97491455,-0.0017700195,-1.203125,-1.765625,0.796875
149,1697611925,0.053955078,-0.9898071,0.010192871,-1.546875,-0.921875,1.046875
150,1697611965,0.053222656,-0.9937134,0.017028809,-1.3125,-1.953125,0.921875
151,1697612005,0.040039062,-0.99786377,0.008239746,-1.109375,-0.296875,0.171875
152,1697612045,0.05517578,-0.987854,0.006286621,-1.125,-0.859375,0.546875
153,1697612085,0.042236328,-0.9902954,0.028503418,0.546875,-0.375,1.15625
154,1697612125,0.048828125,-0.99664307,0.008728027,-2.359375,-0.234375,0.859375
155,1697612165,0.041992188,-0.98101807,0.024353027,-1.734375,0.0625,0.796875
156,1697612205,0.06591797,-0.9990845,0.027038574,-0.15625,0.53125,1.3125
157,1697612245,0.05834961,-0.99420166,0.0099487305,-0.328125,-0.640625,0.6875
158,1697612285,0.063964844,-0.98223877,0.023132324,-0.578125,0.609375,0.34375
159,1697612325,0.044677734,-0.9924927,0.019470215,-0.1875,-1.0,1.234375
160,1697612365,0.046142578,-0.991272,0.018005371,-0.84375,0.46875,0.875
161,1697612405,0.059814453,-0.9927368,0.02166748,-0.6875,-0.28125,1.265625
162,1697612445,0.06225586,-0.9944458,0.014343262,-0.046875,-0.03125,0.734375
163,1697612485,0.061035156,-0.98809814,0.016784668,-0.5,-0.125,0.4375
164,1697612525,0.057128906,-0.9873657,0.0289917,-0.515625,-0.34375,0.859375
165,1697612565,0.04711914,-0.987854,0.019958496,-0.421875,0.296875,1.109375
166,1697612605,0.06201172,-0.99053955,0.026306152,-0.96875,-0.015625,1.28125
167,1697612645,0.052490234,-0.98516846,0.022888184,-0.765625,-0.1875,1.015625
168,1697612685,0.06665039,-0.99298096,0.0028686523,-1.796875,0.71875,0.8125
169,1697612725,0.08276367,-0.99591064,0.03729248,-0.4375,-0.5625,1.3125
170,1697612765,0.06958008,-0.9837036,0.019714355,-2.671875,0.0,-0.71875
171,1697612805,0.04638672,-0.97857666,0.04071045,-1.1875,-0.578125,-0.015625
172,1697612845,0.05419922,-1.0010376,0.016296387,-0.15625,0.671875,1.4375
173,1697612885,0.059570312,-0.9932251,0.02557373,-1.0625,0.84375,1.09375
174,1697612925,0.060791016,-0.9898071,0.030456543,-1.1875,0.5625,1.140625
175,1697612965,0.075927734,-0.9885864,0.024353027,-0.890625,1.1875,0.546875
176,1697613005,0.072265625,-0.9841919,0.031677246,-0.953125,-0.765625,0.265625
177,1697613045,0.056884766,-0.9873657,0.035827637,-1.609375,-0.5625,-0.515625
178,1697613085,0.068603516,-0.99176025,0.031677246,-1.34375,-0.421875,-0.234375
179,1697613125,0.068359375,-0.98931885,0.039978027,-1.40625,-0.265625,-0.3125
180,1697613165,0.064941406,-0.9968872,0.03656006,-1.953125,-0.421875,-0.546875
181,1697613205,0.05517578,-0.98883057,0.04119873,-0.9375,-0.828125,-0.21875
182,1697613245,0.06298828,-0.99468994,0.053649902,-0.234375,-0.140625,-0.140625
183,1697613285,0.05029297,-0.99053955,0.030700684,-0.3125,-0.171875,0.0625
184,1697613325,0.06640625,-0.99053955,0.044128418,-0.625,0.828125,0.34375
185,1697613365,0.061279297,-1.0015259,0.028259277,-0.578125,-0.40625,0.421875
186,1697613405,0.052001953,-0.973938,0.040222168,-1.421875,-0.46875,-1.140625
187,1697613445,0.056396484,-0.99786377,0.054138184,-0.34375,0.375,-0.375
188,1697613485,0.042236328,-0.9907837,0.044128418,-0.375,0.34375,0.453125
189,1697613525,0.046875,-0.97979736,0.05218506,-1.109375,0.109375,-0.015625
190,1697613565,0.056152344,-0.98516846,0.04901123,-0.28125,0.078125,0.46875
191,1697613605,0.05883789,-0.99591064,0.035827637,-0.859375,2.015625,0.859375
192,1697613645,0.06640625,-0.98443604,0.03289795,-1.375,0.453125,1.28125
193,1697613685,0.06323242,-0.9885864,0.050720215,-0.15625,-0.890625,1.703125
194,1697613725,0.049804688,-0.98321533,0.04046631,0.0,-1.265625,1.765625
195,1697613765,-0.0053710938,-1.013977,0.042175293,3.390625,-2.84375,3.34375
196,1697613805,0.088378906,-0.98565674,0.053649902,4.390625,4.34375,4.328125
197,1697613845,0.059570312,-0.9734497,0.055847168,3.984375,-5.109375,3.453125
198,1697613885,0.064697266,-0.98931885,0.023620605,4.0,-0.8125,2.375
199,1697613925,0.05834961,-0.98394775,0.015319824,4.421875,-1.09375,4.375
200,1697613965,0.08129883,-0.99346924,0.0048217773,7.578125,2.5,7.0
201,1697614005,0.096191406,-0.9776001,0.0033569336,0.375,3.203125,7.21875
202,1697614045,0.14624023,-0.99957275,0.009460449,-1.390625,-0.640625,6.546875
203,1697614085,0.13598633,-0.99176025,0.040222168,4.234375,-2.875,4.125
204,1697614125,0.09301758,-0.96881104,-0.009094238,4.71875,-3.40625,0.875
205,1697614165,0.10498047,-0.9824829,-0.024963379,3.375,-0.671875,-0.28125
206,1697614205,0.09814453,-0.9873657,0.0048217773,2.78125,4.0,3.5
207,1697614245,0.15527344,-0.9631958,-0.01763916,2.921875,5.9375,4.34375
208,1697614285,0.13769531,-0.9885864,-0.05279541,1.96875,-0.015625,6.625
209,1697614325,0.17236328,-0.9937134,-0.06573486,2.0,0.765625,2.03125
210,1697614365,0.14404297,-0.9805298,-0.041809082,0.453125,-3.328125,-0.765625
211,1697614405,0.099121094,-0.9866333,-0.027893066,0.953125,-0.359375,-2.390625
212,1697614445,0.11425781,-0.9522095,-0.021057129,1.0625,-1.1875,-0.328125
213,1697614485,0.11010742,-0.9949341,-0.011291504,-1.59375,-2.265625,2.0625
214,1697614525,0.15942383,-0.972229,-0.019348145,-2.328125,-2.640625,0.875
215,1697614565,0.13867188,-0.93951416,0.0119018555,2.671875,-3.25,0.78125
216,1697614605,0.1394043,-0.986145,-0.03253174,-0.34375,-3.359375,0.34375
217,1697614645,0.079589844,-0.99591064,-0.041809082,-0.640625,-2.65625,1.953125
218,1697614685,0.13256836,-0.989563,-0.028625488,-2.21875,1.5625,4.1875
219,1697614725,0.1328125,-0.9956665,-0.031311035,-2.515625,-2.765625,3.515625
220,1697614765,0.12011719,-0.9805298,-0.02935791,-1.421875,-0.640625,2.421875
221,1697614805,0.17773438,-0.98272705,-0.02935791,-1.359375,-0.296875,0.328125
222,1697614845,0.15454102,-0.973938,-0.031799316,-2.625,-3.375,-0.859375
223,1697614885,0.12597656,-0.97369385,-0.03326416,-2.640625,-1.65625,-0.1875
224,1697614925,0.15917969,-0.9824829,-0.028625488,-3.0625,-2.359375,1.484375
225,1697614965,0.10424805,-0.9805298,-0.018859863,-2.359375,-3.078125,3.5
226,1697615005,0.14794922,-0.96954346,-0.023742676,-2.25,1.65625,3.0
227,1697615045,0.24023438,-0.9714966,0.0028686523,-5.390625,-0.390625,0.65625
228,1697615085,0.1652832,-0.95513916,-0.023254395,-4.09375,-6.4375,-1.4375
229,1697615125,0.122558594,-1.0020142,0.026062012,-1.90625,-6.0625,-1.6875
230,1697615165,0.092285156,-0.9805298,0.058288574,2.171875,-3.1875,-0.421875
231,1697615205,0.091308594,-0.97052,0.044128418,-2.578125,3.125,0.71875
232,1697615245,0.14379883,-0.97735596,0.03753662,-4.875,4.5625,3.8125
233,1697615285,0.1730957,-0.9595337,0.031677246,-2.15625,4.0,3.671875
234,1697615325,0.19262695,-0.98101807,0.013122559,-1.0625,0.546875,1.921875
235,1697615365,0.15576172,-0.99786377,0.013122559,3.859375,-2.15625,-0.0625
236,1697615405,0.14990234,-0.96710205,0.0021362305,3.46875,-0.34375,-1.8125
237,1697615445,0.14868164,-0.9602661,-0.00030517578,0.34375,-1.40625,-0.546875
238,1697615485,0.15161133,-0.99713135,0.00579834,-3.0,-1.21875,-0.34375
239,1697615525,0.17016602,-0.99053955,0.0099487305,-1.0,-1.140625,0.203125
240,1697615565,0.14819336,-0.97979736,0.015075684,0.0,-0.109375,0.40625
241,1697615605,0.14404297,-0.9612427,0.02532959,0.140625,0.140625,0.390625
242,1697615645,0.13500977,-0.9627075,0.003112793,-1.375,-0.609375,0.390625
243,1697615685,0.13769531,-0.9963989,0.0065307617,-3.046875,0.171875,1.421875
244,1697615725,0.15014648,-0.9824829,0.03265381,-0.75,0.0,1.046875
245,1697615765,0.15844727,-0.9849243,0.020202637,-0.859375,0.734375,0.46875
246,1697615805,0.15209961,-0.9661255,0.014831543,-1.84375,-0.453125,0.609375
247,1697615845,0.17236328,-0.97076416,0.046813965,-0.6875,0.375,0.6875
248,1697615885,0.15454102,-0.9873657,0.01776123,-0.828125,-1.90625,-1.515625
249,1697615925,0.14013672,-0.97906494,0.026062012,-0.234375,-0.296875,-1.4375
250,1697615965,0.15478516,-0.97540283,0.03265381,-0.125,0.0625,-0.390625
251,1697616005,0.13769531,-0.9668579,0.024597168,-1.59375,-0.234375,0.296875
252,1697616045,0.1418457,-0.9846802,0.024841309,-1.671875,0.328125,0.609375
253,1697616085,0.15063477,-0.9741821,0.023132324,-0.6875,-0.03125,0.625
254,1697616125,0.13549805,-0.9846802,0.022399902,0.875,0.109375,0.328125
255,1697616165,0.15551758,-0.98394775,0.023376465,0.03125,-0.15625,0.203125
256,1697616205,0.14355469,-0.9590454,0.0099487305,-0.046875,0.671875,0.765625
257,1697616245,0.16040039,-0.99664307,0.022399902,-1.90625,-0.765625,1.15625
258,1697616285,0.15356445,-0.9776001,0.03387451,0.1875,-0.734375,-0.0625
259,1697616325,0.14453125,-0.9939575,0.028503418,0.0,-0.0625,0.25
260,1697616365,0.14770508,-0.97735596,0.019470215,-1.59375,-0.125,-0.890625
261,1697616405,0.1496582,-0.98028564,0.04095459,0.046875,-0.125,0.390625
262,1697616445,0.12890625,-0.9800415,0.018737793,-0.234375,0.09375,0.015625
263,1697616485,0.14135742,-0.9746704,0.024841309,-1.15625,0.40625,-0.078125
264,1697616525,0.15136719,-0.9871216,0.029968262,0.375,0.765625,0.71875
265,1697616565,0.15283203,-0.98101807,0.023376465,-0.484375,-0.1875,-0.15625
266,1697616605,0.14648438,-0.9788208,0.028503418,-0.75,0.15625,-0.09375
267,1697616645,0.14111328,-0.9644165,0.029968262,-0.171875,-0.03125,0.765625
268,1697616685,0.14428711,-1.0022583,0.031677246,-1.453125,-0.546875,1.25
269,1697616725,0.14746094,-0.98516846,0.034362793,-0.09375,0.125,0.484375
270,1697616765,0.14941406,-0.9651489,0.038024902,0.125,-0.265625,0.734375
271,1697616805,0.11767578,-0.98321533,0.015319824,-0.234375,-0.59375,1.5
272,1697616845,0.15795898,-0.9710083,0.036071777,-0.78125,1.515625,1.078125
273,1697616885,0.15527344,-0.9854126,0.030944824,-0.484375,-0.34375,1.640625
274,1697616925,0.1538086,-0.99176025,0.016784668,-1.453125,0.734375,0.046875
275,1697616965,0.18164062,-0.9668579,0.04168701,0.03125,0.1875,-0.359375
276,1697617005,0.13354492,-0.96466064,0.015075684,0.40625,-0.0625,0.09375
277,1697617045,0.14526367,-0.9902954,0.03778076,-1.5,-0.546875,0.65625
278,1697617085,0.14160156,-0.98883057,0.031433105,-0.25,-0.1875,0.046875
279,1697617125,0.14453125,-0.97784424,0.035827637,-0.03125,0.375,0.0625
280,1697617165,0.14892578,-0.9729614,0.035339355,-0.1875,0.109375,-0.484375
281,1697617205,0.14428711,-0.9768677,0.039245605,-0.859375,-0.765625,0.0
282,1697617245,0.13916016,-0.9727173,0.020202637,-0.21875,0.09375,-0.109375
283,1697617285,0.15551758,-0.9859009,0.03338623,-0.65625,0.609375,0.859375
284,1697617325,0.14794922,-0.9795532,0.024108887,0.125,-0.390625,0.9375
285,1697617365,0.1586914,-0.972229,0.034851074,-0.28125,-0.234375,0.171875
286,1697617405,0.15209961,-0.9649048,0.008239746,-0.59375,0.171875,-0.53125
287,1697617445,0.13647461,-0.99420166,0.05218506,-0.015625,-1.9375,0.515625
288,1697617485,0.13110352,-0.99346924,0.015808105,-1.453125,0.328125,-0.84375
289,1697617525,0.13769531,-0.96343994,0.046569824,-0.75,0.828125,-0.0625
290,1697617565,0.1381836,-0.9734497,0.039245605,-0.609375,0.890625,1.125
291,1697617605,0.14941406,-0.9729614,0.02947998,-1.015625,-0.546875,-0.09375
292,1697617645,0.13378906,-0.97784424,0.046081543,0.5,-0.171875,-0.0625
293,1697617685,0.13208008,-0.9768677,0.02947998,-0.453125,0.375,0.359375
294,1697617725,0.1340332,-0.97076416,0.03265381,-0.28125,-0.34375,0.3125
295,1697617765,0.15014648,-0.9871216,0.0446167,-0.375,0.21875,0.78125
296,1697617805,0.1459961,-0.954895,0.036315918,0.09375,-0.578125,0.046875
297,1697617845,0.140625,-0.98638916,0.03387451,-0.09375,0.25,0.828125
298,1697617885,0.15112305,-0.9890747,0.038024902,-0.59375,-0.46875,0.546875
299,1697617925,0.14550781,-0.97442627,0.027526855,0.28125,0.25,0.21875
300,1697617965,0.14794922,-0.96832275,0.036071777,-0.5625,-0.515625,0.65625
301,1697618005,0.14477539,-0.9656372,0.042907715,0.03125,-0.359375,-0.046875
302,1697618045,0.11816406,-0.99346924,0.04071045,-0.421875,-0.9375,0.828125
303,1697618085,0.13989258,-0.9710083,0.01776123,-1.34375,1.890625,-0.46875
304,1697618125,0.1640625,-0.986145,0.047546387,-1.0,0.671875,1.0625
305,1697618165,0.14135742,-0.9727173,0.03387451,0.96875,0.265625,-0.03125
306,1697618205,0.12036133,-0.9668579,0.02532959,-1.140625,-1.015625,-0.296875
307,1697618245,0.14160156,-0.98516846,0.043884277,-0.828125,0.3125,0.40625
308,1697618285,0.13354492,-0.99053955,0.038513184,-0.671875,-0.421875,0.40625
309,1697618325,0.12866211,-0.9807739,0.035827637,-0.484375,0.859375,-0.0625
310,1697618365,0.15405273,-0.9685669,0.047058105,-0.203125,0.296875,1.15625
311,1697618405,0.14453125,-0.9812622,0.035583496,0.703125,-0.515625,0.6875
312,1697618445,0.1418457,-0.98931885,0.035095215,-0.078125,-0.375,0.03125
313,1697618485,0.1484375,-0.96661377,0.036071777,0.046875,0.09375,0.1875
314,1697618525,0.1352539,-0.9758911,0.024841309,-0.21875,-0.453125,1.078125
315,1697618565,0.1418457,-0.9924927,0.034118652,-0.578125,-0.46875,0.78125
316,1697618605,0.1430664,-0.9714966,0.02508545,-1.234375,0.171875,0.125
317,1697618645,0.13891602,-0.9763794,0.051696777,0.59375,-0.6875,0.671875
318,1697618685,0.14282227,-0.9763794,0.019714355,-1.8125,1.5,-0.171875
319,1697618725,0.15209961,-0.9849243,0.059265137,-1.78125,-0.171875,0.453125
320,1697618765,0.140625,-0.9807739,0.03289795,0.4375,0.0,-0.375
321,1697618805,0.13208008,-0.97369385,0.043640137,-0.578125,-0.125,-0.03125
322,1697618845,0.13720703,-0.9817505,0.04949951,0.28125,-0.03125,0.5625
323,1697618885,0.13208008,-0.98687744,0.0368042,-0.25,0.328125,0.453125
324,1697618925,0.13378906,-0.97491455,0.044128418,-0.203125,0.671875,0.03125
325,1697618965,0.14282227,-0.97247314,0.031188965,-0.25,-0.28125,0.5625
326,1697619005,0.14282227,-0.9885864,0.028747559,0.0625,-0.203125,0.546875
327,1697619045,0.13745117,-0.98321533,0.05267334,-0.078125,0.15625,0.40625
328,1697619085,0.13671875,-0.9697876,0.030456543,-0.703125,-0.28125,0.390625
329,1697619125,0.14160156,-0.9817505,0.04559326,-0.46875,0.0625,1.59375
330,1697619165,0.14770508,-0.9932251,0.03656006,-1.046875,-0.828125,0.046875
331,1697619205,0.14355469,-0.98883057,0.030700684,-0.125,-0.109375,-0.34375
332,1697619245,0.14233398,-0.95758057,0.05291748,0.75,0.171875,0.671875
333,1697619285,0.13085938,-0.9924927,0.039489746,-0.375,-0.71875,1.078125
334,1697619325,0.1328125,-0.9846802,0.034606934,-1.96875,0.1875,-0.25
335,1697619365,0.15063477,-0.9780884,0.04876709,-0.453125,1.328125,0.953125
336,1697619405,0.1496582,-0.9746704,0.030212402,0.0,-0.09375,0.28125
337,1697619445,0.1352539,-0.97613525,0.036315918,-0.609375,-0.84375,0.15625
338,1697619485,0.140625,-0.9768677,0.042175293,0.296875,0.140625,0.296875
339,1697619525,0.14868164,-0.97613525,0.03778076,-0.84375,0.078125,0.140625
340,1697619565,0.13574219,-0.9780884,0.031433105,-0.578125,0.625,0.4375
341,1697619605,0.15356445,-0.9783325,0.043640137,-1.28125,-0.421875,0.421875
342,1697619645,0.13427734,-0.9883423,0.04071045,0.234375,-0.546875,-0.203125
343,1697619685,0.13720703,-0.9717407,0.042419434,-0.03125,0.140625,0.125
344,1697619725,0.1394043,-0.9788208,0.0368042,-0.171875,-0.25,0.578125
345,1697619765,0.13330078,-0.97540283,0.0446167,-0.25,-0.4375,0.84375
346,1697619805,0.14135742,-0.9768677,0.045837402,-0.25,0.828125,1.28125
347,1697619845,0.14575195,-0.9768677,0.035827637,0.046875,0.421875,0.96875
348,1697619885,0.14770508,-0.99298096,0.019470215,-0.875,-0.59375,0.03125
349,1697619925,0.13989258,-0.96588135,0.059509277,0.953125,0.296875,-0.078125
350,1697619965,0.1237793,-0.97369385,0.022399902,-0.875,-0.078125,-0.046875
351,1697620005,0.14624023,-0.99005127,0.051940918,-3.046875,0.515625,0.890625
352,1697620045,0.15478516,-0.98809814,0.04852295,-0.546875,-0.125,0.359375
353,1697620085,0.12426758,-0.96661377,0.039245605,0.296875,-0.125,-0.71875
354,1697620125,0.13598633,-0.97076416,0.042907715,-0.703125,0.1875,0.140625
355,1697620165,0.14013672,-0.98565674,0.046813965,-0.21875,-0.109375,0.78125
356,1697620205,0.13354492,-0.98394775,0.0368042,-0.296875,0.453125,0.59375
357,1697620245,0.14575195,-0.97979736,0.04827881,-0.46875,1.046875,0.328125
358,1697620285,0.14819336,-0.9656372,0.03314209,0.8125,-0.203125,0.3125
359,1697620325,0.13671875,-0.98760986,0.0368042,0.359375,-0.234375,0.421875
360,1697620365,0.14038086,-0.98394775,0.04119873,0.25,0.578125,-0.296875
361,1697620405,0.13989258,-0.973938,0.03729248,0.1875,0.53125,-0.1875
362,1697620445,0.14404297,-0.9771118,0.041931152,1.203125,0.640625,0.828125
363,1697620485,0.13745117,-0.989563,0.03753662,0.578125,0.71875,0.265625
364,1697620525,0.13476562,-0.97857666,0.036315918,0.765625,0.96875,-1.0625
365,1697620565,0.14013672,-0.9690552,0.020446777,1.21875,2.203125,-0.59375
366,1697620605,0.12963867,-0.9793091,0.051940918,0.640625,0.25,0.140625
367,1697620645,0.12719727,-0.9793091,0.024597168,-0.984375,1.4375,-1.546875
368,1697620685,0.12402344,-0.9873657,0.043884277,-0.421875,2.5,-0.921875
369,1697620725,0.12841797,-0.97979736,0.026306152,0.46875,1.171875,-0.359375
370,1697620765,0.123046875,-0.97125244,0.03289795,0.265625,2.15625,-0.546875
371,1697620805,0.13427734,-0.98028564,0.0289917,0.265625,0.328125,-0.375
372,1697620845,0.13085938,-0.99420166,0.04168701,0.265625,1.328125,-0.46875
373,1697620885,0.11352539,-0.9729614,0.010192871,1.375,1.25,-0.15625
374,1697620925,0.12792969,-0.9949341,0.022399902,-0.578125,0.140625,0.015625
375,1697620965,0.1171875,-0.9751587,0.02166748,1.203125,-0.328125,0.375
376,1697621005,0.115478516,-0.9746704,0.023864746,0.328125,0.21875,1.03125
377,1697621045,0.12695312,-0.98028564,0.007751465,-0.1875,-0.53125,0.484375
378,1697621085,0.13012695,-0.9800415,0.027282715,-0.0625,-0.9375,0.296875
379,1697621125,0.10644531,-0.9800415,0.00970459,0.96875,-0.640625,0.375
380,1697621165,0.10961914,-0.9883423,0.018249512,-0.234375,-0.203125,0.8125
381,1697621205,0.13305664,-0.9729614,0.010681152,-1.609375,1.046875,0.90625
382,1697621245,0.13842773,-0.99664307,0.03289795,0.265625,-1.5,1.578125
383,1697621285,0.11694336,-0.9734497,0.012634277,-1.40625,-0.15625,-0.25
384,1697621325,0.12939453,-0.972229,0.02557373,-0.359375,0.75,0.640625
385,1697621365,0.13427734,-0.9846802,0.023132324,-0.953125,-1.109375,0.375
386,1697621405,0.11791992,-0.97784424,0.01727295,-0.671875,-0.078125,0.03125
387,1697621445,0.11987305,-0.972229,0.039245605,-0.109375,-0.15625,0.3125
388,1697621485,0.123535156,-0.9883423,0.024108887,0.09375,-0.4375,1.171875
389,1697621525,0.11425781,-0.9866333,0.023864746,-0.546875,0.546875,0.4375
390,1697621565,0.13110352,-0.972229,0.016296387,-1.15625,0.328125,-0.125
391,1697621605,0.1328125,-0.98638916,0.022888184,-0.125,-1.328125,0.53125
392,1697621645,0.122802734,-0.99420166,0.027038574,0.0,0.015625,0.3125
393,1697621685,0.11621094,-0.9639282,0.020446777,-0.453125,-0.71875,0.71875
394,1697621725,0.12890625,-0.98394775,0.03704834,-0.046875,0.125,1.5625
395,1697621765,0.13061523,-0.98272705,0.01727295,-1.125,-0.734375,0.140625
396,1697621805,0.12792969,-0.9866333,0.015319824,-1.875,-0.3125,-0.46875
397,1697621845,0.13061523,-0.9678345,0.050476074,1.53125,-0.515625,0.40625
398,1697621885,0.10522461,-0.99957275,0.0211792,-0.640625,-0.59375,0.78125
399,1697621925,0.119140625,-0.97540283,0.024597168,-2.21875,0.328125,0.0625
400,1697621965,0.14550781,-0.9849243,0.039245605,-0.5,1.34375,1.140625
401,1697622005,0.12670898,-0.97491455,0.022888184,-0.09375,-0.28125,0.09375
402,1697622045,0.12573242,-0.9692993,0.020446777,-0.328125,-1.53125,-0.015625
403,1697622085,0.114746094,-0.9829712,0.03363037,0.484375,-0.234375,1.078125
404,1697622125,0.12719727,-0.99835205,0.025817871,-1.296875,-0.34375,0.296875
405,1697622165,0.12646484,-0.97784424,0.03265381,-0.859375,0.140625,-0.359375
406,1697622205,0.12719727,-0.9846802,0.028259277,-0.984375,-1.359375,1.0625
407,1697622245,0.13085938,-0.9763794,0.03338623,-0.234375,-0.328125,1.234375
408,1697622285,0.13549805,-0.9883423,0.034118652,-0.203125,-0.234375,1.015625
409,1697622325,0.13500977,-0.98760986,0.02923584,-0.265625,-0.875,0.25
410,1697622365,0.122558594,-0.97052,0.035583496,0.078125,-0.609375,0.59375
411,1697622405,0.11743164,-0.97076416,0.029724121,-0.828125,-0.84375,0.625
412,1697622445,0.13916016,-0.97979736,0.01776123,-1.734375,0.671875,0.671875
413,1697622485,0.13330078,-0.97662354,0.049987793,1.3125,-0.953125,0.9375
414,1697622525,0.123535156,-0.98760986,0.018737793,-1.15625,0.234375,-0.4375
415,1697622565,0.1328125,-0.97003174,0.0446167,-1.1875,0.21875,-0.296875
416,1697622605,0.1340332,-0.9807739,0.051940918,0.328125,0.015625,0.34375
417,1697622645,0.1171875,-0.97857666,0.028747559,-1.171875,-0.34375,-0.21875
418,1697622685,0.123291016,-0.9807739,0.039001465,-0.953125,-1.078125,0.15625
419,1697622725,0.12841797,-0.99005127,0.031433105,-0.765625,0.328125,0.8125
420,1697622765,0.12451172,-0.97662354,0.04144287,-1.375,-0.578125,0.875
421,1697622805,0.123046875,-0.9758911,0.023620605,-1.46875,-0.640625,0.890625
422,1697622845,0.13671875,-0.98443604,0.031433105,-1.34375,-0.53125,0.890625
423,1697622885,0.13134766,-0.9883423,0.029724121,-1.671875,-0.15625,0.625
424,1697622925,0.1381836,-0.98101807,0.043640137,-1.453125,-0.328125,0.578125
425,1697622965,0.140625,-0.9702759,0.04876709,-0.421875,-0.328125,0.53125
426,1697623005,0.12133789,-0.9812622,0.054382324,-0.234375,-1.546875,0.296875
427,1697623045,0.11425781,-0.98394775,0.03778076,-0.515625,-1.34375,-0.046875
428,1697623085,0.1394043,-0.972229,0.062683105,-0.90625,0.421875,0.34375
429,1697623125,0.12719727,-0.989563,0.044128418,-0.234375,-0.75,1.15625
430,1697623165,0.13598633,-0.9927368,0.039245605,-1.65625,-0.234375,-0.1875
431,1697623205,0.13647461,-0.9819946,0.057800293,-0.3125,0.234375,0.421875
432,1697623245,0.12231445,-0.9751587,0.049987793,1.1875,-1.03125,0.453125
433,1697623285,0.122558594,-0.9812622,0.042663574,-0.765625,0.609375,-0.03125
434,1697623325,0.13549805,-0.98760986,0.04510498,-1.390625,-0.4375,-0.359375
435,1697623365,0.119384766,-0.9780884,0.04827881,-0.984375,-0.296875,-0.109375
436,1697623405,0.110839844,-0.97491455,0.046081543,-0.3125,-0.828125,0.15625
437,1697623445,0.12890625,-0.9951782,0.051940918,-1.140625,0.4375,0.65625
438,1697623485,0.12231445,-0.9805298,0.043640137,-0.390625,-0.34375,0.59375
439,1697623525,0.12475586,-0.9866333,0.051940918,-0.25,0.3125,0.796875
440,1697623565,0.13452148,-0.97442627,0.047546387,-0.671875,-0.40625,1.234375
441,1697623605,0.1352539,-0.97442627,0.054870605,0.078125,-0.203125,1.0625
442,1697623645,0.12524414,-0.9788208,0.057556152,-0.359375,-0.75,0.40625
443,1697623685,0.12670898,-0.9944458,0.04510498,-0.796875,0.40625,0.109375
444,1697623725,0.13378906,-0.9768677,0.06048584,1.03125,0.515625,1.078125
445,1697623765,0.13793945,-0.9846802,0.04046631,-1.15625,0.5625,0.609375
446,1697623805,0.122558594,-0.9805298,0.053894043,-1.265625,-0.21875,0.34375
447,1697623845,0.13427734,-0.986145,0.04949951,-0.296875,0.3125,0.84375
448,1697623885,0.12670898,-0.9690552,0.042907715,-0.78125,-0.359375,-0.40625
449,1697623925,0.12719727,-0.99542236,0.0524292,-0.65625,0.0,0.140625
450,1697623965,0.14111328,-0.9846802,0.05609131,-0.921875,0.203125,0.046875
451,1697624005,0.12207031,-0.97613525,0.06121826,0.15625,-0.640625,0.734375
452,1697624045,0.13330078,-0.9793091,0.04827881,-0.671875,0.84375,0.515625
453,1697624085,0.14770508,-0.98394775,0.0602417,-0.46875,-0.4375,0.484375
454,1697624125,0.12548828,-0.9771118,0.058044434,-0.703125,-1.171875,-0.375
455,1697624165,0.12573242,-0.973938,0.05706787,0.1875,0.171875,0.46875
456,1697624205,0.13305664,-0.9793091,0.05218506,-0.140625,0.1875,0.984375
457,1697624245,0.12451172,-0.98150635,0.051452637,-0.09375,-0.125,0.59375
458,1697624285,0.14233398,-0.987854,0.047546387,-1.09375,0.140625,0.328125
459,1697624325,0.13671875,-0.96881104,0.061950684,0.421875,0.03125,0.53125
460,1697624365,0.115478516,-0.9907837,0.0368042,0.46875,0.296875,0.34375
461,1697624405,0.13061523,-0.9763794,0.053649902,0.671875,0.078125,-0.28125
462,1697624445,0.14013672,-0.97857666,0.070007324,1.4375,1.5625,1.03125
463,1697624485,0.13354492,-0.9824829,0.055114746,1.53125,1.296875,0.09375
464,1697624525,0.115234375,-0.9768677,0.047790527,0.515625,-0.390625,-0.6875
465,1697624565,0.11230469,-0.986145,0.046325684,0.359375,0.625,-0.359375
466,1697624605,0.12548828,-0.97979736,0.04168701,-0.59375,0.9375,0.5625
467,1697624645,0.122802734,-0.9849243,0.036071777,0.5625,0.296875,1.328125
468,1697624685,0.14697266,-0.97442627,0.03656006,0.40625,-0.234375,1.0
469,1697624725,0.13476562,-0.96881104,0.030212402,0.03125,-1.0625,0.5
470,1697624765,0.13110352,-0.98883057,0.04486084,-0.109375,-0.578125,0.28125
471,1697624805,0.13476562,-0.98101807,0.03289795,-0.390625,-0.671875,0.09375
472,1697624845,0.12597656,-0.97906494,0.039245605,-0.75,-0.484375,0.1875
473,1697624885,0.13378906,-0.987854,0.028747559,-1.53125,-0.3125,0.078125
474,1697624925,0.12109375,-0.9673462,0.057800293,0.03125,-0.5625,0.71875
475,1697624965,0.12402344,-0.9968872,0.038513184,-1.40625,-0.34375,0.25
476,1697625005,0.11669922,-0.98443604,0.034606934,-0.375,-0.703125,-1.140625
477,1697625045,0.13500977,-0.9920044,0.070007324,3.9375,2.5,0.203125
478,1697625085,0.11987305,-0.97662354,0.05218506,3.78125,-0.546875,0.671875
479,1697625125,0.11279297,-0.96881104,0.035583496,0.171875,-0.421875,-0.6875
480,1697625165,0.11669922,-0.9793091,0.027282715,1.125,-0.734375,1.109375
481,1697625205,0.13427734,-0.99713135,0.0119018555,0.640625,1.921875,1.953125
482,1697625245,0.15112305,-0.9780884,0.016540527,1.359375,0.59375,0.765625
483,1697625285,0.14746094,-0.97613525,0.020935059,1.96875,-0.03125,1.25
484,1697625325,0.13720703,-0.9697876,0.025817871,2.890625,-0.140625,0.90625
485,1697625365,0.12841797,-0.98565674,0.030456543,0.5625,0.421875,-0.03125
486,1697625405,0.12158203,-0.987854,0.013366699,0.015625,0.21875,0.65625
487,1697625445,0.12841797,-0.9680786,0.0211792,-0.046875,-0.375,0.703125
488,1697625485,0.123535156,-0.9812622,0.010437012,0.578125,0.5625,1.03125
489,1697625525,0.13867188,-0.9866333,0.028015137,-0.03125,0.15625,0.953125
490,1697625565,0.122558594,-0.98883057,0.0014038086,-1.84375,-0.1875,-0.71875
491,1697625605,0.1303711,-0.98223877,0.025817871,-1.5,0.171875,-0.734375
492,1697625645,0.14331055,-0.98638916,0.011657715,-1.71875,0.3125,0.15625
493,1697625685,0.12548828,-0.9714966,0.019470215,-2.171875,-0.265625,-0.71875
494,1697625725,0.12963867,-0.97540283,0.027526855,-3.484375,0.015625,-1.171875
495,1697625765,0.12402344,-0.97662354,0.047058105,-0.953125,-1.15625,0.0625
496,1697625805,0.095214844,-0.9981079,0.039001465,-0.4375,0.96875,-0.578125
497,1697625845,0.13427734,-0.9846802,0.038269043,-0.140625,1.9375,0.90625
498,1697625885,0.11303711,-0.96588135,0.018981934,0.015625,1.3125,1.25
499,1697625925,0.1328125,-0.9800415,0.024841309,-0.46875,1.359375,2.890625
500,1697625965,0.13574219,-0.98565674,0.030456543,-1.8125,-1.65625,2.3125
501,1697626005,0.14208984,-0.98028564,0.02532959,0.515625,1.0,0.828125
502,1697626045,0.15527344,-0.9866333,0.032409668,0.0625,-0.34375,-0.546875
503,1697626085,0.12402344,-0.9751587,0.024353027,1.796875,-0.4375,1.140625
504,1697626125,0.10888672,-0.986145,0.010925293,-1.734375,1.84375,0.875
505,1697626165,0.140625,-0.98272705,0.022155762,-0.671875,2.96875,2.328125
506,1697626205,0.14819336,-0.9734497,0.031433105,-0.390625,1.578125,1.078125
507,1697626245,0.1315918,-0.9817505,0.032165527,-0.46875,0.34375,0.390625
508,1697626285,0.13549805,-0.98760986,0.026794434,-0.328125,-0.265625,-0.140625
509,1697626325,0.13378906,-0.97857666,0.028015137,-0.5,-0.5625,-0.234375
510,1697626365,0.11767578,-0.972229,0.035583496,-0.265625,-1.109375,0.453125
511,1697626405,0.13598633,-0.9783325,0.031677246,-0.125,-0.1875,0.71875
512,1697626445,0.13891602,-0.97198486,0.024353027,1.640625,-0.96875,0.359375
513,1697626485,0.12597656,-0.98687744,0.035095215,0.375,-0.515625,0.390625
514,1697626525,0.13427734,-0.97369385,0.025817871,-0.21875,0.0625,-0.9375
515,1697626565,0.13598633,-0.98565674,0.022644043,0.15625,0.625,-0.53125
516,1697626605,0.12109375,-0.9734497,0.023376465,1.828125,0.9375,0.015625
517,1697626645,0.122558594,-0.9898071,0.019470215,-0.390625,1.40625,-0.1875
518,1697626685,0.12646484,-0.98321533,0.010437012,-0.21875,1.28125,-0.171875
519,1697626725,0.1340332,-0.9817505,0.02557373,1.546875,1.984375,0.34375
520,1697626765,0.1381836,-0.9717407,0.007751465,1.03125,0.671875,-1.265625
521,1697626805,0.11230469,-0.9793091,0.015808105,1.625,-0.296875,-0.671875
522,1697626845,0.13183594,-0.9824829,0.012878418,2.234375,2.5,-0.53125
523,1697626885,0.12841797,-0.9920044,-0.0068969727,0.734375,1.4375,0.046875
524,1697626925,0.13549805,-0.98638916,-0.0064086914,0.4375,1.140625,-1.15625
525,1697626965,0.12988281,-0.9783325,-0.00030517578,1.421875,-0.046875,-0.34375
526,1697627005,0.09692383,-0.9885864,-0.009338379,1.140625,-0.875,-0.328125
527,1697627045,0.11694336,-0.9714966,-0.00982666,-0.53125,1.1875,-1.0625
528,1697627085,0.11767578,-0.9854126,-0.011047363,-0.328125,-1.015625,-0.03125
529,1697627125,0.10668945,-0.98028564,0.014099121,1.125,1.234375,0.46875
530,1697627165,0.123535156,-0.9873657,0.0079956055,0.25,-0.484375,-0.609375
531,1697627205,0.10424805,-0.98516846,0.00018310547,1.328125,-0.703125,-1.265625
532,1697627245,0.119140625,-0.98565674,-0.00030517578,1.5625,1.515625,-1.140625
533,1697627285,0.10888672,-0.9661255,-0.0154418945,1.109375,-0.375,-0.578125
534,1697627325,0.09765625,-0.98028564,-0.016906738,-0.28125,-0.53125,0.265625
535,1697627365,0.09838867,-0.99298096,-0.0095825195,1.515625,-0.546875,1.875
536,1697627405,0.12060547,-0.99298096,-0.026428223,-1.0625,1.203125,0.859375
537,1697627445,0.111816406,-0.9627075,-0.01763916,-0.3125,-0.875,0.6875
538,1697627485,0.110839844,-0.989563,-0.0115356445,0.171875,-1.03125,1.390625
539,1697627525,0.12548828,-0.9866333,-0.0178833,0.078125,-0.21875,0.84375
540,1697627565,0.11621094,-0.98931885,-0.0178833,-1.0,-1.140625,0.25
541,1697627605,0.11010742,-0.9866333,-0.033996582,-1.40625,-1.0,0.921875
542,1697627645,0.12158203,-0.97662354,0.0067749023,0.203125,0.9375,1.125
543,1697627685,0.111572266,-0.9993286,-0.018127441,-1.921875,-0.9375,1.234375
544,1697627725,0.10961914,-0.9788208,-0.012756348,-0.984375,0.171875,0.25
545,1697627765,0.111083984,-0.9932251,-0.0029907227,-0.40625,0.4375,1.34375
546,1697627805,0.123046875,-0.97320557,-0.022766113,-0.640625,0.265625,0.53125
547,1697627845,0.12646484,-0.98443604,-0.00079345703,-1.453125,-1.0,0.984375
548,1697627885,0.12475586,-0.9939575,-0.009094238,-1.1875,-1.71875,1.15625
549,1697627925,0.11328125,-0.9907837,0.0006713867,-1.5,-0.953125,0.1875
550,1697627965,0.13549805,-0.97491455,-0.009094238,-2.15625,0.203125,-0.140625
551,1697628005,0.119628906,-0.972229,0.0018920898,-0.734375,-2.734375,1.21875
552,1697628045,0.110839844,-0.9859009,-0.006652832,-0.8125,-1.296875,1.390625
553,1697628085,0.1237793,-0.9807739,0.002380371,-1.453125,-0.796875,1.390625
554,1697628125,0.12915039,-0.9859009,-0.010314941,-2.203125,-2.125,1.703125
555,1697628165,0.13330078,-0.9780884,0.0045776367,-1.265625,-0.59375,1.21875
556,1697628205,0.11645508,-0.99102783,-0.004211426,-3.8125,-3.34375,1.09375
557,1697628245,0.122558594,-0.9873657,0.00091552734,-4.203125,-2.484375,-0.03125
558,1697628285,0.1315918,-0.9834595,0.022888184,-1.78125,-1.953125,1.125
559,1697628325,0.119384766,-0.98150635,0.018493652,-1.4375,-1.984375,0.3125
560,1697628365,0.12451172,-0.9763794,0.02923584,-1.671875,-0.921875,0.609375
561,1697628405,0.1262207,-0.9807739,0.03265381,-1.703125,-1.4375,0.828125
562,1697628445,0.12817383,-0.9819946,0.026306152,-0.796875,-0.21875,1.125
563,1697628485,0.14257812,-0.9793091,0.019958496,-1.5625,-0.296875,0.765625
564,1697628525,0.14233398,-0.9795532,0.02923584,-0.453125,-0.609375,0.8125
565,1697628565,0.12866211,-0.9780884,0.03363037,-0.109375,-1.234375,0.984375
566,1697628605,0.12133789,-0.98150635,0.015319824,-0.84375,-0.15625,1.015625
567,1697628645,0.14208984,-0.99591064,0.018981934,-0.828125,-0.21875,1.15625
568,1697628685,0.14379883,-0.96710205,0.03363037,-0.15625,-0.125,0.46875
569,1697628725,0.13110352,-0.9949341,0.02532959,-1.203125,-1.5,1.125
570,1697628765,0.1315918,-0.98443604,0.022399902,-1.359375,-0.21875,-0.21875
571,1697628805,0.14160156,-0.97857666,0.044128418,-0.765625,0.265625,0.859375
572,1697628845,0.1340332,-0.96954346,0.03656006,0.046875,-0.984375,0.34375
573,1697628885,0.111083984,-0.99346924,0.023132324,-0.875,-0.859375,0.8125
574,1697628925,0.1484375,-0.97442627,0.048034668,-1.875,0.28125,0.25
575,1697628965,0.13671875,-0.9741821,0.03656006,-0.4375,0.1875,0.984375
576,1697629005,0.12524414,-0.991272,0.02557373,-0.921875,-0.46875,1.296875
577,1697629045,0.15454102,-0.975647,0.028747559,-0.203125,2.375,0.90625
578,1697629085,0.14916992,-0.97662354,0.035339355,-0.78125,-0.203125,0.65625
579,1697629125,0.122558594,-0.97784424,0.039245605,-0.578125,0.34375,0.53125
580,1697629165,0.13745117,-0.9854126,0.03338623,-0.71875,0.265625,0.3125
581,1697629205,0.13378906,-0.9968872,0.019714355,-0.71875,0.34375,0.609375
582,1697629245,0.14111328,-0.9663696,0.0524292,-0.328125,0.5625,0.0
583,1697629285,0.119384766,-0.98321533,0.041931152,0.015625,0.53125,1.640625
584,1697629325,0.13012695,-0.98809814,0.03338623,-0.734375,1.84375,1.453125
585,1697629365,0.15429688,-0.97125244,0.04559326,0.875,1.25,1.5625
586,1697629405,0.1430664,-0.9834595,0.03338623,1.53125,0.6875,1.125
587,1697629445,0.14135742,-0.9741821,0.031188965,0.4375,0.453125,0.46875
588,1697629485,0.1616211,-0.9793091,0.03289795,-0.625,0.78125,0.6875
589,1697629525,0.14331055,-0.9837036,0.0289917,-1.234375,0.53125,0.875
590,1697629565,0.14135742,-0.97979736,0.035095215,-1.46875,-0.84375,0.203125
591,1697629605,0.14404297,-0.9841919,0.024108887,-0.9375,1.359375,0.4375
592,1697629645,0.16479492,-0.97735596,0.036315918,-0.3125,0.40625,0.296875
593,1697629685,0.1430664,-0.98272705,0.04095459,1.390625,-0.484375,0.359375
594,1697629725,0.13574219,-0.98101807,0.042663574,1.953125,-0.90625,-0.46875
595,1697629765,0.13208008,-0.98150635,0.030456543,0.578125,-0.171875,-0.296875
596,1697629805,0.13232422,-0.9859009,0.031921387,-0.359375,2.359375,-0.234375
597,1697629845,0.14648438,-0.98272705,0.011413574,-1.078125,2.984375,-0.1875
598,1697629885,0.16381836,-0.9710083,0.04046631,0.90625,2.6875,0.265625
599,1697629925,0.13916016,-0.9956665,0.0138549805,-1.421875,-0.109375,-0.46875
600,1697629965,0.13354492,-0.98028564,0.031188965,0.453125,1.21875,-1.578125
601,1697630005,0.1381836,-0.98028564,0.02923584,0.953125,1.171875,-0.53125
602,1697630045,0.11767578,-0.9692993,0.008972168,0.671875,0.71875,-1.15625
603,1697630085,0.114746094,-0.9890747,0.030700684,1.0,0.265625,0.328125
604,1697630125,0.13964844,-0.989563,-0.0010375977,-0.4375,1.921875,0.0625
605,1697630165,0.14648438,-0.98028564,0.01751709,0.71875,0.5625,-0.296875
606,1697630205,0.12695312,-0.9824829,0.027770996,1.640625,0.078125,-0.3125
607,1697630245,0.12060547,-0.9829712,0.023132324,1.171875,1.046875,0.078125
608,1697630285,0.1159668,-0.9805298,0.0028686523,-0.203125,1.03125,-0.1875
609,1697630325,0.13671875,-0.98223877,0.019958496,0.953125,1.546875,-0.03125
610,1697630365,0.1303711,-0.9871216,0.012878418,1.859375,0.0,0.515625
611,1697630405,0.13354492,-0.99176025,-0.0044555664,0.71875,0.25,0.40625
612,1697630445,0.12988281,-0.9780884,-0.013000488,-0.5,-1.1875,0.046875
613,1697630485,0.119384766,-0.96539307,0.0099487305,0.40625,-0.171875,0.875
614,1697630525,0.12011719,-1.005188,0.002380371,-2.140625,-1.40625,1.171875
615,1697630565,0.12524414,-0.986145,0.0138549805,-0.5625,0.625,-0.3125
616,1697630605,0.13623047,-0.9883423,0.022399902,0.34375,1.203125,0.328125
617,1697630645,0.12792969,-0.9685669,-0.0005493164,-0.65625,-0.359375,-0.21875
618,1697630685,0.12011719,-0.9834595,0.0018920898,-0.953125,-0.421875,0.5625
619,1697630725,0.140625,-0.98883057,0.003112793,0.1875,-0.3125,0.703125
620,1697630765,0.12158203,-0.9885864,-0.0022583008,0.015625,-0.125,0.15625
621,1697630805,0.12548828,-0.97979736,0.0048217773,-0.859375,-0.265625,-0.125
622,1697630845,0.11767578,-0.9627075,0.0067749023,-0.6875,-0.875,0.234375
623,1697630885,0.12207031,-0.9885864,0.0067749023,-0.390625,0.375,1.234375
624,1697630925,0.13793945,-0.9805298,0.012390137,0.0,0.109375,0.71875
625,1697630965,0.12084961,-0.98272705,0.0099487305,0.28125,-0.828125,0.171875
626,1697631005,0.11425781,-0.97369385,0.0028686523,0.859375,-0.328125,0.75
627,1697631045,0.11694336,-0.96417236,0.012390137,-0.5,0.34375,1.046875
628,1697631085,0.12988281,-0.99346924,0.010192871,0.203125,-0.3125,1.59375
629,1697631125,0.13769531,-0.98516846,-0.0037231445,-1.859375,0.078125,0.125
630,1697631165,0.13061523,-0.97979736,0.012390137,-0.140625,0.515625,0.578125
631,1697631205,0.13354492,-0.96539307,0.019226074,0.0625,-1.203125,0.3125
632,1697631245,0.111328125,-0.9710083,-0.010559082,-0.671875,0.546875,0.625
633,1697631285,0.12915039,-0.99786377,0.027282715,-1.09375,-0.203125,0.59375
634,1697631325,0.13061523,-0.9834595,0.010925293,-0.875,-0.078125,0.140625
635,1697631365,0.12426758,-0.97369385,0.01727295,-0.453125,0.359375,-0.21875
636,1697631405,0.12597656,-0.975647,0.0099487305,-0.171875,-1.0625,0.53125
637,1697631445,0.12133789,-0.99005127,0.0067749023,0.015625,-0.59375,0.78125
638,1697631485,0.13330078,-0.9812622,0.0036010742,-0.625,0.6875,0.484375
639,1697631525,0.1315918,-0.9824829,0.011413574,-0.140625,-0.453125,0.90625
640,1697631565,0.13769531,-0.97979736,0.011413574,-0.234375,-0.796875,0.59375
641,1697631605,0.13574219,-0.972229,-0.0012817383,-1.09375,-0.96875,0.21875
642,1697631645,0.12207031,-0.9758911,0.02557373,1.828125,-1.3125,1.21875
643,1697631685,0.13256836,-0.986145,0.00018310547,-2.3125,0.671875,0.375
644,1697631725,0.13720703,-0.98101807,0.0060424805,-2.21875,-0.0625,-0.234375
645,1697631765,0.1303711,-0.97540283,0.02557373,-0.21875,-0.546875,0.296875
646,1697631805,0.115234375,-0.97442627,0.012878418,-0.796875,-1.265625,0.1875
647,1697631845,0.110839844,-0.9866333,0.028259277,-0.765625,-0.3125,0.34375
648,1697631885,0.12988281,-0.98223877,0.018249512,-1.78125,0.078125,0.734375
649,1697631925,0.12890625,-0.98638916,0.014343262,-1.4375,-0.5625,0.5
650,1697631965,0.13623047,-0.975647,0.011657715,-1.96875,-2.03125,0.578125
651,1697632005,0.1340332,-0.9800415,0.030700684,-1.140625,-1.640625,0.234375
652,1697632045,0.11401367,-0.9680786,0.01727295,-0.890625,-2.03125,0.625
653,1697632085,0.13671875,-0.991272,0.03338623,-2.265625,-0.40625,1.03125
654,1697632125,0.1340332,-0.98443604,0.024841309,-2.40625,-1.328125,0.546875
655,1697632165,0.13647461,-0.9800415,0.014831543,-1.4375,-0.75,0.0
656,1697632205,0.13891602,-0.9783325,0.054626465,1.4375,-1.234375,0.53125
657,1697632245,0.111083984,-0.98638916,0.023864746,-1.46875,-0.828125,0.359375
658,1697632285,0.12866211,-0.99005127,0.038757324,-2.90625,-0.65625,0.3125
659,1697632325,0.15405273,-0.97198486,0.047058105,-0.796875,0.40625,0.6875
660,1697632365,0.12426758,-0.9829712,0.036315918,-0.578125,-0.859375,0.359375
661,1697632405,0.12719727,-0.98565674,0.03704834,-0.234375,-1.03125,0.3125
662,1697632445,0.1340332,-0.9829712,0.04949951,-0.921875,0.078125,-0.109375
663,1697632485,0.1159668,-0.9710083,0.02923584,-0.28125,-0.046875,0.125
664,1697632525,0.1394043,-0.98223877,0.043151855,-1.53125,0.703125,0.84375
665,1697632565,0.14428711,-0.9805298,0.034362793,-0.109375,-0.421875,0.578125
666,1697632605,0.13891602,-0.9859009,0.043151855,-0.015625,-0.328125,0.015625
667,1697632645,0.12451172,-0.9746704,0.049743652,0.6875,-0.65625,0.5625
668,1697632685,0.11743164,-0.98394775,0.032409668,0.015625,-0.21875,0.8125
669,1697632725,0.13671875,-0.9915161,0.035339355,-1.078125,0.234375,1.15625
670,1697632765,0.14746094,-0.96954346,0.04852295,0.625,-0.375,0.640625
671,1697632805,0.12670898,-0.9927368,0.032409668,-0.59375,-0.5625,0.84375
672,1697632845,0.13085938,-0.97979736,0.027282715,-1.75,-0.328125,-0.40625
673,1697632885,0.12475586,-0.9668579,0.04510498,0.65625,-0.046875,0.75
674,1697632925,0.12695312,-0.9795532,0.04119873,-0.65625,0.234375,0.5625
675,1697632965,0.12866211,-0.9915161,0.035583496,-1.796875,-0.390625,0.34375
676,1697633005,0.1274414,-0.98687744,0.042907715,-0.890625,0.375,0.140625
677,1697633045,0.13574219,-0.9780884,0.04046631,-0.25,0.109375,0.78125
678,1697633085,0.1340332,-0.9729614,0.035339355,-0.84375,-0.3125,0.28125
679,1697633125,0.13891602,-0.98101807,0.055603027,-0.296875,-0.296875,0.171875
680,1697633165,0.119384766,-0.9849243,0.03704834,-0.640625,-0.296875,0.734375
681,1697633205,0.14135742,-0.97784424,0.03729248,-0.390625,1.015625,1.21875
682,1697633245,0.14770508,-0.9817505,0.039978027,-0.265625,-0.125,1.078125
683,1697633285,0.13183594,-0.9805298,0.039733887,0.71875,-0.75,0.359375
684,1697633325,0.13647461,-0.96466064,0.036315918,0.40625,0.65625,-0.0625
685,1697633365,0.12695312,-0.9793091,0.050476074,1.671875,0.203125,0.84375
686,1697633405,0.13061523,-0.9949341,0.04119873,0.40625,2.265625,-1.203125
687,1697633445,0.12548828,-0.9841919,0.03314209,-0.5625,1.515625,-0.609375
688,1697633485,0.14208984,-0.96710205,0.035827637,1.984375,2.46875,0.53125
689,1697633525,0.1262207,-0.97613525,0.03338623,0.28125,0.828125,0.078125
690,1697633565,0.12670898,-0.98028564,0.040222168,0.234375,1.640625,-0.5625
691,1697633605,0.12182617,-0.97979736,0.035583496,0.140625,1.96875,-0.421875
692,1697633645,0.12084961,-0.9883423,0.014831543,0.359375,1.546875,0.046875
693,1697633685,0.1418457,-0.9805298,0.019958496,-0.21875,1.234375,0.84375
694,1697633725,0.13452148,-0.9758911,0.027038574,1.28125,0.421875,0.5
695,1697633765,0.12719727,-0.97613525,0.022155762,0.734375,-0.21875,0.375
696,1697633805,0.12695312,-0.97052,0.018005371,0.453125,0.703125,0.15625
697,1697633845,0.13085938,-0.99102783,0.019958496,-0.59375,-0.96875,-0.453125
698,1697633885,0.12011719,-0.99591064,0.011413574,1.046875,0.421875,-0.1875
699,1697633925,0.12768555,-0.97320557,0.03387451,2.421875,1.671875,0.6875
700,1697633965,0.11303711,-0.98687744,-0.0015258789,-0.65625,0.15625,1.140625
701,1697634005,0.11694336,-0.9795532,0.016296387,-1.15625,0.875,0.21875
702,1697634045,0.12451172,-0.987854,0.018249512,-0.1875,1.78125,0.75
703,1697634085,0.14257812,-0.9631958,0.006286621,-0.5,0.328125,-0.71875
704,1697634125,0.13696289,-0.9924927,0.016296387,-0.25,-0.984375,-0.078125
705,1697634165,0.12426758,-0.99468994,0.011413574,-0.21875,-0.8125,0.125
706,1697634205,0.12036133,-0.9678345,0.028259277,-0.15625,0.40625,0.28125
707,1697634245,0.12133789,-0.9829712,0.0036010742,-1.296875,-0.203125,0.546875
708,1697634285,0.13696289,-0.9902954,0.016296387,-0.1875,-0.4375,0.65625
709,1697634325,0.12573242,-0.98321533,0.016784668,0.0,-0.703125,0.109375
710,1697634365,0.12011719,-0.9768677,0.015319824,-0.09375,-0.390625,0.828125
711,1697634405,0.12597656,-0.98028564,0.028747559,0.59375,-0.46875,0.359375
712,1697634445,0.103027344,-0.9915161,-0.008117676,-1.015625,-0.296875,0.671875
713,1697634485,0.13476562,-0.97003174,0.03289795,0.78125,1.03125,0.8125
714,1697634525,0.12915039,-0.9890747,0.011657715,-1.796875,-0.75,1.09375
715,1697634565,0.13330078,-0.98223877,0.012878418,-1.1875,0.375,-0.109375
716,1697634605,0.13623047,-0.97662354,0.028259277,-0.203125,-0.46875,0.765625
717,1697634645,0.11694336,-0.9763794,0.00970459,0.078125,-0.546875,-0.265625
718,1697634685,0.11767578,-0.98687744,0.027038574,-1.265625,-0.484375,0.015625
719,1697634725,0.1184082,-0.9871216,0.015319824,-0.640625,0.125,0.578125
720,1697634765,0.12915039,-0.9817505,0.022888184,-0.84375,0.625,0.953125
721,1697634805,0.12524414,-0.97662354,0.018981934,-0.9375,-0.5625,0.15625
722,1697634845,0.12207031,-0.9783325,0.03363037,0.09375,-0.59375,0.4375
723,1697634885,0.11743164,-0.98809814,0.014587402,0.28125,0.140625,0.75
724,1697634925,0.13989258,-0.97857666,0.024108887,-0.5,0.53125,0.890625
725,1697634965,0.13500977,-0.98638916,0.014343262,-0.6875,-1.03125,1.109375
726,1697635005,0.13574219,-0.98101807,0.004333496,-0.875,-1.078125,0.96875
727,1697635045,0.13110352,-0.97076416,0.04949951,1.640625,-0.078125,0.765625
728,1697635085,0.11279297,-0.98638916,0.008483887,-1.90625,-0.484375,0.015625
729,1697635125,0.13012695,-0.97613525,0.031677246,-2.234375,0.375,-0.015625
730,1697635165,0.14038086,-0.9937134,0.030944824,-0.96875,0.140625,1.03125
731,1697635205,0.12963867,-0.9837036,0.026062012,-0.125,-0.6875,-0.046875
732,1697635245,0.11791992,-0.9734497,0.030700684,-0.109375,-0.6875,0.453125
733,1697635285,0.13134766,-0.9854126,0.02532959,-0.5625,0.390625,0.890625
734,1697635325,0.13867188,-0.9817505,0.02508545,-1.453125,-0.15625,0.25
735,1697635365,0.13134766,-0.98321533,0.0138549805,-1.546875,-1.140625,0.015625
736,1697635405,0.13598633,-0.97613525,0.02557373,-0.46875,-1.140625,0.453125
737,1697635445,0.12719727,-0.9846802,0.0289917,-0.328125,-0.796875,0.359375
738,1697635485,0.11767578,-0.9746704,0.024597168,-0.328125,-1.078125,0.78125
739,1697635525,0.13452148,-0.9890747,0.034606934,-1.8125,0.0,0.984375
740,1697635565,0.14404297,-0.98687744,0.010681152,-2.296875,-1.84375,0.125
741,1697635605,0.12792969,-0.97247314,0.04559326,1.40625,-1.21875,0.671875
742,1697635645,0.12695312,-0.98638916,0.035827637,-2.0,-0.875,0.1875
743,1697635685,0.114990234,-0.9841919,0.04046631,-1.375,-1.515625,0.5
744,1697635725,0.13989258,-0.9807739,0.046569824,-0.984375,1.171875,1.203125
745,1697635765,0.1418457,-0.9727173,0.034362793,-1.78125,-0.96875,0.609375
746,1697635805,0.12426758,-0.98809814,0.03778076,-1.09375,-0.75,0.21875
747,1697635845,0.14331055,-0.9800415,0.03753662,-1.34375,-0.40625,0.484375
748,1697635885,0.12646484,-0.9763794,0.049987793,-0.828125,0.03125,0.21875
749,1697635925,0.12768555,-0.9692993,0.0368042,-0.46875,-0.421875,0.5
750,1697635965,0.14404297,-0.989563,0.046325684,-0.640625,0.265625,0.796875
751,1697636005,0.13085938,-0.99224854,0.03314209,-0.53125,-1.078125,0.328125
752,1697636045,0.12695312,-0.98150635,0.04925537,0.6875,0.328125,0.78125
753,1697636085,0.13085938,-0.9780884,0.045837402,0.53125,-0.765625,1.265625
754,1697636125,0.12646484,-0.9751587,0.03729248,-0.578125,0.15625,0.8125
755,1697636165,0.12548828,-0.98687744,0.05316162,0.734375,-0.640625,0.984375
756,1697636205,0.14208984,-0.9751587,0.034851074,-1.625,0.921875,-0.984375
757,1697636245,0.13745117,-0.98394775,0.0524292,-1.125,-0.65625,0.875
758,1697636285,0.14501953,-0.97979736,0.042419434,-0.109375,-0.28125,0.5
759,1697636325,0.12402344,-0.9751587,0.041931152,0.109375,-0.421875,0.125
