,timestamp,accel_x,accel_y,accel_z,gyro_x,gyro_y,gyro_z
0,1697605965,0.021972656,-1.9497681,0.20452881,-18.53125,-74.015625,29.015625
1,1697606005,-0.795166,-1.2827759,0.1005249,-1.59375,22.65625,-4.515625
2,1697606045,0.13012695,-0.98150635,-0.010070801,-8.671875,65.90625,-0.859375
3,1697606085,0.35205078,-0.68756104,-0.09991455,-12.875,23.890625,33.703125
4,1697606125,-0.2763672,-0.34088135,-0.35211182,-47.296875,-6.203125,0.96875
5,1697606165,0.18530273,0.14813232,-0.15826416,-35.1875,11.015625,-5.34375
6,1697606205,0.2993164,0.29071045,0.1852417,25.1875,-19.6875,4.5625
7,1697606245,-0.22753906,-1.4463501,-0.5366821,68.78125,26.75,-12.71875
8,1697606285,0.6640625,-2.0,0.11566162,31.015625,-39.921875,5.765625
9,1697606325,0.39819336,-2.0,0.061950684,-61.875,-28.125,7.015625
10,1697606365,-0.43310547,-1.2085571,0.02142334,32.3125,-39.890625,-48.953125
11,1697606405,0.35131836,-1.0894165,0.29925537,1.609375,-2.4375,-12.015625
12,1697606445,-0.016601562,-0.2901001,-0.21612549,-45.0625,-29.34375,2.5625
13,1697606485,0.03955078,0.06878662,-0.13409424,-24.46875,13.546875,2.171875
14,1697606525,0.047607422,-0.06719971,0.113708496,-3.0625,24.625,6.953125
15,1697606565,-0.40625,-0.73321533,-0.6585083,32.3125,4.921875,7.703125
16,1697606605,0.23095703,-1.9595337,0.4418335,70.03125,44.328125,-23.0
17,1697606645,0.43774414,-2.0,0.24627686,-26.21875,-56.25,26.265625
18,1697606685,-0.39746094,-1.1792603,0.081970215,-16.234375,5.71875,2.5625
19,1697606725,0.09057617,-1.0376587,0.08050537,8.46875,18.578125,4.71875
20,1697606765,0.18896484,-0.6865845,0.070739746,-13.9375,3.171875,30.375
21,1697606805,-0.39697266,-0.3418579,-0.18902588,-24.46875,-4.890625,-5.140625
22,1697606845,0.12792969,-0.13311768,-0.19976807,-19.390625,23.34375,-10.3125
23,1697606885,0.50683594,0.1251831,0.12738037,7.09375,2.890625,7.921875
24,1697606925,-0.2277832,-1.4317017,-0.36505127,42.984375,28.28125,-4.203125
25,1697606965,0.9230957,-2.0,0.3607788,14.46875,-26.703125,-22.546875
26,1697607005,0.084472656,-1.5667114,-0.1663208,-48.734375,-42.109375,2.421875
27,1697607045,-0.27661133,-1.1553345,0.022888184,39.109375,-22.640625,-19.703125
28,1697607085,0.25561523,-1.0386353,0.15838623,-2.234375,-3.40625,-1.796875
29,1697607125,0.028076172,-0.45367432,-0.033996582,-27.578125,-22.296875,0.296875
30,1697607165,-0.011962891,-0.12554932,-0.06304932,-28.796875,12.5625,-4.171875
31,1697607205,0.091308594,0.06048584,0.08001709,-10.703125,35.125,3.15625
32,1697607245,-0.053710938,-0.5244751,-0.42559814,50.65625,15.96875,8.140625
33,1697607285,0.22827148,-2.0,0.23187256,38.765625,14.796875,-30.328125
34,1697607325,-0.00390625,-1.7693481,-0.043762207,-23.4375,-26.6875,23.9375
35,1697607365,-0.2434082,-1.0440063,0.0446167,8.34375,29.953125,9.5625
36,1697607405,0.21142578,-0.8057251,0.06341553,-6.296875,8.359375,14.1875
37,1697607445,-0.008544922,-0.3862915,-0.16998291,-6.65625,15.578125,30.21875
38,1697607485,-0.17578125,-0.3508911,-0.16583252,-17.46875,1.515625,-0.75
39,1697607525,0.19262695,-0.101135254,-0.19586182,-22.46875,-0.296875,-6.546875
40,1697607565,0.25,0.055114746,0.039489746,26.140625,-10.140625,4.4375
41,1697607605,-0.49267578,-2.0,-0.3477173,7.390625,93.03125,-25.578125
42,1697607645,1.3566895,-2.0,0.49578857,-4.3125,-87.15625,-9.328125
43,1697607685,-0.38964844,-1.4351196,-0.10675049,-32.875,-26.421875,11.796875
44,1697607725,-0.11401367,-1.0896606,0.031921387,26.875,-20.75,-34.15625
45,1697607765,0.34472656,-0.87872314,0.20477295,-22.734375,-15.890625,7.625
46,1697607805,-0.10498047,-0.24420166,-0.16778564,-29.21875,-27.953125,1.890625
47,1697607845,0.049804688,-0.06304932,-0.003967285,-15.0,20.765625,-7.015625
48,1697607885,0.17919922,-0.13409424,0.13348389,-2.125,20.265625,2.171875
49,1697607925,-0.2944336,-0.5835571,-0.5352173,44.015625,-7.03125,7.34375
50,1697607965,0.19189453,-2.0,0.3920288,62.609375,38.140625,-25.890625
51,1697608005,0.28686523,-1.9160767,0.18255615,-35.09375,-48.546875,32.65625
52,1697608045,-0.5612793,-1.0564575,0.09051514,-1.609375,11.921875,3.34375
53,1697608085,0.1538086,-0.89263916,0.13861084,1.0,38.09375,13.703125
54,1697608125,-0.083496094,-0.62164307,-0.046691895,-18.78125,-1.203125,37.3125
55,1697608165,-0.20092773,-0.33111572,-0.24713135,-20.59375,20.765625,-4.609375
56,1697608205,0.2524414,-0.2029419,-0.29034424,-25.78125,-0.671875,-9.65625
57,1697608245,0.42382812,0.010681152,0.29315186,17.59375,2.03125,-1.046875
58,1697608285,-0.3623047,-2.0,-0.36993408,2.859375,59.328125,-24.359375
59,1697608325,1.5012207,-2.0,0.1864624,-1.796875,-44.546875,-17.53125
60,1697608365,0.0017089844,-1.635315,-0.066711426,-41.5625,-32.71875,22.375
61,1697608405,-0.1940918,-1.0300903,0.11785889,27.6875,-38.375,-29.125
62,1697608445,0.28979492,-1.0213013,0.13104248,-9.21875,-16.015625,-4.78125
63,1697608485,-0.15258789,-0.41778564,-0.042785645,-20.140625,-7.125,5.84375
64,1697608525,-0.08520508,-0.117492676,0.06512451,-14.890625,26.6875,-8.546875
65,1697608565,0.1262207,-0.17071533,-0.003967285,-3.953125,31.8125,3.5
66,1697608605,-0.059814453,-0.38458252,-0.23834229,29.09375,10.671875,6.84375
67,1697608645,-0.12646484,-2.0,-0.362854,14.140625,55.78125,-6.21875
68,1697608685,0.43603516,-2.0,0.26409912,3.53125,-67.75,28.9375
69,1697608725,-0.30395508,-1.2463989,0.021911621,-13.4375,-8.53125,13.890625
70,1697608765,0.06591797,-1.0701294,0.1329956,11.984375,24.875,3.6875
71,1697608805,0.05444336,-0.6338501,-0.07159424,-8.03125,19.546875,37.8125
72,1697608845,-0.18164062,-0.19952393,-0.17144775,-12.953125,4.75,7.984375
73,1697608885,0.15014648,-0.19708252,-0.17633057,-14.53125,12.3125,-13.859375
74,1697608925,0.21289062,-0.1494751,-0.019348145,-3.34375,-10.3125,-5.515625
75,1697608965,0.00048828125,-0.7852173,-0.38116455,43.421875,18.40625,-13.203125
76,1697609005,0.7355957,-2.0,0.39959717,32.53125,16.421875,-19.9375
77,1697609045,0.24169922,-2.0,0.02557373,-48.5625,-46.375,11.359375
78,1697609085,-0.26635742,-1.0574341,-0.32452393,23.90625,-16.578125,-31.828125
79,1697609125,0.3293457,-1.1731567,0.26190186,8.25,4.921875,-11.109375
80,1697609165,0.10253906,-0.66534424,-0.019836426,-35.390625,-45.53125,0.34375
81,1697609205,-0.2565918,-0.07525635,-0.0068969727,-22.109375,-0.171875,-7.078125
82,1697609245,0.14990234,-0.023742676,0.066833496,-7.015625,23.96875,-0.78125
83,1697609285,0.02368164,-0.1428833,0.1161499,6.671875,23.125,6.46875
84,1697609325,-0.26220703,-0.91607666,-0.68414307,40.90625,31.875,3.34375
85,1697609365,1.229248,-2.0,0.14886475,69.265625,-40.140625,21.5
86,1697609405,-0.2775879,-1.4724731,0.03363037,-45.15625,-44.046875,25.4375
87,1697609445,-0.0925293,-1.2666626,0.18621826,5.796875,27.953125,-0.84375
88,1697609485,0.22631836,-0.861145,0.034851074,-1.734375,10.96875,23.90625
89,1697609525,-0.15673828,-0.4944458,-0.34991455,-14.53125,-20.84375,27.59375
90,1697609565,-0.119628906,-0.21295166,0.0072631836,-16.625,-42.5625,-7.109375
91,1697609605,0.107666016,-0.17315674,-0.012268066,-0.9375,12.484375,-15.0625
92,1697609645,0.1809082,-0.34625244,-0.17462158,15.796875,29.265625,-0.4375
93,1697609685,0.040283203,-1.6924438,0.109802246,20.21875,72.75,-29.90625
94,1697609725,1.1767578,-2.0,0.16790771,-6.796875,-42.21875,-4.03125
95,1697609765,-0.2524414,-1.5718384,-0.07476807,-37.546875,-51.140625,1.71875
96,1697609805,-0.0068359375,-1.1272583,0.08465576,31.421875,-20.0625,-30.578125
97,1697609845,0.4008789,-1.0303345,0.19696045,-7.796875,-18.671875,-2.1875
98,1697609885,-0.22729492,-0.44073486,0.034362793,-25.453125,-29.78125,3.53125
99,1697609925,0.084472656,-0.09210205,-0.07476807,-22.203125,6.921875,-8.546875
100,1697609965,0.1381836,-0.16656494,0.06390381,-7.171875,11.0625,4.390625
101,1697610005,-0.21313477,-0.22564697,-0.06915283,23.203125,4.171875,-0.125
102,1697610045,-0.3059082,-2.0,-0.39971924,-0.8125,106.53125,-25.15625
103,1697610085,0.84594727,-2.0,0.37176514,-2.015625,-54.5625,36.984375
104,1697610125,-0.52783203,-1.116272,-0.046691895,-7.71875,4.890625,15.03125
105,1697610165,0.18554688,-1.1812134,0.07220459,2.609375,42.796875,-0.140625
106,1697610205,0.20800781,-0.6367798,0.04046631,4.453125,2.265625,34.875
107,1697610245,-0.33666992,-0.5029907,-0.027160645,-21.96875,3.5,17.265625
108,1697610285,0.045410156,-0.2564087,-0.17071533,-5.140625,-9.921875,-7.015625
109,1697610325,0.24487305,-0.2954712,-0.00079345703,1.65625,18.90625,-11.453125
110,1697610365,0.13867188,-0.43780518,-0.18023682,16.34375,3.96875,-9.828125
111,1697610405,0.032470703,-1.5391235,-0.09503174,28.765625,79.0625,-15.78125
112,1697610445,0.77685547,-2.0,0.30926514,-25.078125,-54.34375,-11.90625
113,1697610485,-0.14819336,-1.4536743,-0.13677979,-24.0,-16.546875,-3.484375
114,1697610525,0.18945312,-1.2832642,0.14642334,36.140625,-21.09375,-32.25
115,1697610565,-0.061279297,-0.9390259,0.038269043,-28.25,-26.90625,-4.453125
116,1697610605,-0.2290039,-0.20245361,-0.0095825195,-32.703125,-7.453125,-5.265625
117,1697610645,0.20019531,-0.04522705,0.058288574,-17.421875,14.875,-4.03125
118,1697610685,0.059326172,-0.14141846,0.031677246,-10.765625,32.671875,7.234375
119,1697610725,-0.25585938,-0.13995361,-0.10211182,31.46875,14.546875,18.5625
120,1697610765,-0.001953125,-1.8601685,-0.5408325,26.9375,88.984375,-15.734375
121,1697610805,0.35742188,-2.0,0.30682373,-3.515625,-65.59375,17.859375
122,1697610845,-0.66967773,-1.3738403,-0.012023926,-22.125,4.03125,12.546875
123,1697610885,0.28320312,-1.1414185,-0.0154418945,21.078125,42.84375,13.046875
124,1697610925,0.40844727,-0.7527466,0.081970215,-14.546875,-20.359375,47.265625
125,1697610965,-0.39575195,-0.4121704,-0.0947876,-37.90625,-9.421875,7.15625
126,1697611005,-0.064208984,-0.2600708,-0.22686768,-15.4375,9.078125,-13.421875
127,1697611045,0.5095215,-0.08917236,0.06072998,-10.546875,-15.875,-1.953125
128,1697611085,0.12133789,-0.3123169,-0.20025635,44.34375,-11.734375,-10.875
129,1697611125,-0.087402344,-2.0,0.33514404,53.328125,73.21875,-45.484375
130,1697611165,1.0905762,-2.0,0.21600342,-12.640625,-47.34375,12.75
131,1697611205,-0.39282227,-1.3167114,-0.38848877,-14.25,-54.125,-4.9375
132,1697611245,0.17919922,-1.2583618,0.22283936,25.90625,-18.109375,-19.09375
133,1697611285,0.13061523,-0.9011841,0.04437256,-26.140625,-45.953125,2.9375
134,1697611325,-0.28320312,-0.2510376,0.070007324,-32.328125,-24.875,-8.4375
135,1697611365,0.07788086,0.047058105,-0.046691895,-23.9375,15.453125,-17.875
136,1697611405,0.20678711,-0.15899658,0.03338623,-12.125,26.796875,-8.59375
137,1697611445,-0.24291992,-0.36895752,-0.32647705,47.125,2.453125,1.34375
138,1697611485,0.17651367,-2.0,0.23651123,53.953125,61.59375,-27.765625
139,1697611525,0.063964844,-2.0,0.23431396,-23.96875,-25.953125,42.265625
140,1697611565,-0.44433594,-1.0603638,-0.073791504,12.21875,20.25,1.140625
141,1697611605,0.31689453,-1.0752563,0.08880615,12.609375,26.0625,25.921875
142,1697611645,-0.06933594,-0.62701416,0.0006713867,-11.5,-5.21875,31.15625
143,1697611685,-0.16674805,-0.5354614,-0.12823486,-35.84375,-6.125,11.515625
144,1697611725,0.19091797,-0.120666504,-0.10748291,-7.140625,-8.25,-1.546875
145,1697611765,0.23925781,-0.15362549,0.030700684,25.765625,-5.703125,-0.734375
146,1697611805,-0.080566406,-0.958313,-0.46661377,30.703125,59.125,-15.0625
147,1697611845,0.9147949,-2.0,0.23553467,41.96875,11.03125,-33.59375
148,1697611885,0.1652832,-1.7688599,-0.20928955,-63.71875,-74.390625,3.84375
149,1697611925,-0.43652344,-1.0054321,-0.116760254,29.53125,-18.65625,-25.21875
150,1697611965,0.34033203,-1.3457642,0.24188232,11.609375,5.40625,-6.65625
151,1697612005,0.14111328,-0.64019775,-0.015930176,-21.921875,-31.171875,-3.1875
152,1697612045,-0.044433594,-0.18096924,-0.0005493164,-26.546875,-2.046875,-0.921875
153,1697612085,0.061767578,-0.08111572,0.06756592,-20.71875,10.515625,1.28125
154,1697612125,-0.16601562,-0.1338501,0.00579834,1.28125,23.484375,-0.734375
155,1697612165,-0.33789062,-1.1116333,-0.723938,41.609375,49.84375,-8.734375
156,1697612205,1.1809082,-2.0,0.24871826,55.53125,-32.078125,36.90625
157,1697612245,-0.41967773,-1.4519653,-0.06817627,-41.21875,-34.09375,21.5
158,1697612285,-0.078125,-1.1143188,0.10321045,7.953125,43.96875,-1.140625
159,1697612325,0.25146484,-0.76885986,-0.047912598,-1.125,11.59375,26.96875
160,1697612365,-0.125,-0.58721924,-0.07550049,-9.28125,2.609375,18.359375
161,1697612405,-0.034423828,-0.5696411,-0.07110596,-14.265625,1.53125,-4.078125
162,1697612445,0.19677734,-0.17852783,-0.2210083,-34.703125,-5.40625,-0.671875
163,1697612485,0.18896484,-0.06549072,-0.13409424,19.078125,1.078125,-0.046875
164,1697612525,0.12084961,-1.6177368,-0.17388916,53.46875,60.03125,-25.609375
165,1697612565,1.1403809,-2.0,0.22894287,-12.890625,-77.875,-11.609375
166,1697612605,-0.12939453,-1.4712524,-0.22198486,-47.859375,-44.65625,7.453125
167,1697612645,-0.13647461,-1.0615845,-0.018859863,32.265625,-37.984375,-32.71875
168,1697612685,0.32788086,-1.1294556,0.16156006,-9.765625,-32.4375,-6.109375
169,1697612725,-0.034423828,-0.53985596,0.014099121,-25.15625,-19.5625,3.125
170,1697612765,-0.06201172,-0.25933838,0.020690918,-42.15625,16.0,-8.3125
171,1697612805,0.13354492,-0.0635376,-0.0071411133,-27.234375,17.359375,-0.609375
172,1697612845,-0.16259766,-0.20172119,-0.3015747,29.609375,-5.09375,6.03125
173,1697612885,-0.42260742,-2.0,-0.21417236,23.640625,89.40625,-40.015625
174,1697612925,0.63012695,-2.0,0.1408081,-4.6875,-50.203125,37.6875
175,1697612965,-0.38867188,-1.0430298,0.08782959,-20.578125,10.25,29.359375
176,1697613005,-0.036132812,-0.9348755,0.12664795,3.546875,42.21875,13.15625
177,1697613045,0.20703125,-0.598938,-0.020812988,-4.34375,25.78125,32.703125
178,1697613085,-0.10888672,-0.47833252,-0.07647705,-14.484375,19.34375,8.953125
179,1697613125,0.10571289,-0.47662354,-0.21905518,-14.3125,10.03125,-9.1875
180,1697613165,0.34204102,-0.37994385,-0.03277588,-18.53125,-16.125,-3.71875
181,1697613205,0.096191406,-0.128479,-0.047180176,28.40625,-12.6875,0.796875
182,1697613245,-0.12695312,-1.9734497,0.2694702,39.609375,71.203125,-45.203125
183,1697613285,1.1560059,-2.0,0.45013428,1.6875,-60.90625,-7.5
184,1697613325,-0.23779297,-1.0742798,-0.31573486,-30.34375,-32.046875,15.171875
185,1697613365,-0.25195312,-0.89849854,0.13372803,25.75,-17.953125,-27.203125
186,1697613405,0.20361328,-0.8682251,0.059753418,-22.796875,-9.453125,-1.125
187,1697613445,-0.036132812,-0.22662354,0.0099487305,-28.9375,-6.328125,-0.75
188,1697613485,0.12060547,-0.19415283,0.00091552734,-13.640625,16.046875,-5.578125
189,1697613525,0.032714844,-0.13458252,0.13470459,-4.640625,15.703125,0.46875
190,1697613565,-0.40478516,-0.8882446,-0.6970825,37.265625,23.546875,-7.359375
191,1697613605,1.0688477,-2.0,0.18939209,68.484375,-3.265625,-2.40625
192,1697613645,-0.10180664,-1.5193481,-0.05670166,-38.0625,-30.109375,34.0
193,1697613685,-0.15209961,-1.1326294,0.0602417,6.640625,28.703125,0.734375
194,1697613725,0.37353516,-0.84381104,0.07147217,13.15625,13.40625,21.921875
195,1697613765,-0.10253906,-0.47613525,0.022644043,-17.734375,12.34375,26.15625
196,1697613805,-0.13598633,-0.37457275,-0.19171143,-11.78125,1.859375,-5.234375
197,1697613845,0.20166016,-0.30059814,-0.13018799,-5.96875,-5.828125,0.71875
198,1697613885,0.09790039,-0.36920166,-0.059387207,8.359375,-9.90625,-5.234375
199,1697613925,-0.21191406,-1.4614868,-0.39971924,28.703125,58.4375,-10.546875
200,1697613965,1.2695312,-2.0,0.45648193,3.375,-42.59375,-20.578125
201,1697614005,-0.18481445,-1.4700317,-0.19293213,-34.578125,-56.390625,0.4375
202,1697614045,-0.05078125,-0.9873657,-0.10772705,37.140625,-25.84375,-23.3125
203,1697614085,0.28027344,-1.15802,0.11004639,-3.421875,-21.1875,-7.328125
204,1697614125,-0.12231445,-0.5569458,-0.054016113,-29.390625,-35.375,1.796875
205,1697614165,0.026611328,-0.14263916,0.093688965,-29.9375,-0.40625,-13.578125
206,1697614205,0.14111328,-0.120666504,0.023132324,-23.4375,23.578125,-4.375
207,1697614245,-0.08276367,-0.23199463,-0.31866455,26.171875,12.53125,9.8125
208,1697614285,-0.2932129,-2.0,-0.33380127,25.6875,94.875,-44.328125
209,1697614325,0.4182129,-2.0,0.1329956,-25.390625,-62.953125,37.9375
210,1697614365,-0.4416504,-0.89141846,0.018981934,-14.0625,3.015625,8.40625
211,1697614405,0.09277344,-1.0601196,0.04095459,11.515625,42.546875,6.234375
212,1697614445,0.18383789,-0.8140259,0.07244873,-5.015625,13.515625,39.703125
213,1697614485,-0.1418457,-0.40020752,-0.20098877,-16.21875,-2.625,9.1875
214,1697614525,0.12792969,-0.24957275,-0.13653564,-16.078125,-10.328125,-5.609375
215,1697614565,0.32348633,-0.26397705,0.019958496,-8.3125,-25.484375,4.25
216,1697614605,0.052246094,-0.52789307,-0.27374268,33.015625,-11.75,-12.140625
217,1697614645,0.3400879,-2.0,0.3920288,50.28125,47.046875,-58.5625
218,1697614685,0.5439453,-1.9129028,0.08709717,-1.875,-25.515625,14.28125
219,1697614725,-0.45751953,-1.166565,-0.12750244,4.28125,-34.71875,1.25
220,1697614765,0.1381836,-0.97979736,0.16888428,6.9375,-1.15625,-16.921875
221,1697614805,0.13549805,-0.72198486,0.062683105,-17.046875,-14.90625,11.296875
222,1697614845,-0.14355469,-0.3008423,0.09710693,-14.796875,-14.46875,3.46875
223,1697614885,0.017822266,-0.1897583,-0.055725098,-14.296875,22.234375,-13.453125
224,1697614925,0.14892578,-0.26593018,0.055358887,-0.296875,36.578125,0.109375
225,1697614965,-0.28442383,-0.92681885,-0.6712036,33.0625,21.65625,1.046875
226,1697615005,0.82543945,-2.0,0.2345581,57.921875,9.578125,-13.21875
227,1697615045,0.067871094,-1.796936,0.010681152,-32.65625,-55.296875,34.828125
228,1697615085,-0.11743164,-1.109436,0.04119873,2.765625,20.1875,2.765625
229,1697615125,0.21582031,-0.89971924,0.12664795,0.28125,13.921875,12.53125
230,1697615165,-0.19506836,-0.33184814,-0.08331299,-14.625,1.03125,34.4375
231,1697615205,-0.03100586,-0.40386963,-0.10699463,-3.0625,-16.640625,6.90625
232,1697615245,0.27563477,-0.108947754,-0.15533447,7.9375,-15.234375,-3.25
233,1697615285,0.06567383,-0.15118408,-0.1362915,13.71875,4.328125,-5.984375
234,1697615325,-0.44360352,-1.7896118,-0.395813,19.5,99.09375,-25.953125
235,1697615365,1.3764648,-2.0,0.41082764,-11.703125,-78.828125,-21.3125
236,1697615405,-0.5024414,-1.3740845,-0.113098145,-28.328125,-30.0625,1.40625
237,1697615445,-0.24365234,-0.9385376,-0.065979004,21.0,-2.4375,-27.859375
238,1697615485,0.42236328,-1.0288696,0.059753418,-12.859375,1.015625,2.953125
239,1697615525,0.045410156,-0.3718872,0.0119018555,-26.703125,-24.46875,3.921875
240,1697615565,0.053466797,-0.19415283,0.031433105,-14.4375,-7.078125,-6.328125
241,1697615605,0.048583984,-0.26641846,0.027526855,-7.03125,14.109375,-1.125
242,1697615645,-0.122802734,-0.37457275,-0.284729,34.796875,13.375,7.0625
243,1697615685,-0.28564453,-2.0,-0.003479004,19.5625,85.3125,-15.078125
244,1697615725,0.46850586,-2.0,-0.06329346,-8.875,-28.984375,38.4375
245,1697615765,-0.011962891,-0.89727783,-0.023010254,12.21875,18.6875,24.953125
246,1697615805,0.25390625,-1.0613403,0.046081543,-0.75,-3.15625,13.78125
247,1697615845,-0.07421875,-0.63848877,-0.15167236,-14.21875,-15.109375,19.28125
248,1697615885,-0.24072266,-0.39434814,-0.037902832,-6.265625,10.1875,2.578125
249,1697615925,0.19140625,-0.35162354,-0.16534424,-21.78125,-24.109375,-10.71875
250,1697615965,0.1586914,-0.26934814,0.002380371,-5.625,-3.359375,-7.390625
251,1697616005,0.095703125,-0.7151489,-0.43878174,18.71875,16.828125,-11.625
252,1697616045,0.9489746,-2.0,0.44207764,57.765625,35.109375,-52.484375
253,1697616085,0.2849121,-1.7183228,-0.013977051,-21.75,-55.96875,25.171875
254,1697616125,-0.66552734,-1.0947876,-0.17706299,4.78125,-44.09375,-17.3125
255,1697616165,0.044433594,-0.9570923,0.14349365,13.109375,20.296875,-23.859375
256,1697616205,0.4050293,-0.722229,0.109558105,-25.5625,-11.734375,11.546875
257,1697616245,-0.06713867,-0.2000122,-0.02178955,-23.6875,-8.703125,-0.140625
258,1697616285,0.091308594,-0.16583252,0.041931152,-4.53125,16.84375,1.8125
259,1697616325,0.095947266,-0.28253174,0.11273193,0.78125,18.921875,1.609375
260,1697616365,-0.36645508,-1.1104126,-0.58013916,26.734375,20.8125,-5.390625
261,1697616405,0.89941406,-2.0,-0.023254395,47.40625,6.0,-1.46875
262,1697616445,0.0073242188,-1.5859985,0.018249512,-29.640625,-27.390625,30.0625
263,1697616485,-0.13085938,-1.2368774,0.11224365,14.46875,32.03125,2.546875
264,1697616525,0.17578125,-0.8320923,0.08319092,-12.1875,7.375,11.625
265,1697616565,-0.25927734,-0.25982666,-0.30548096,-16.8125,19.0625,24.28125
266,1697616605,-0.008544922,-0.3118286,-0.06402588,-3.1875,29.609375,3.65625
267,1697616645,0.35888672,-0.2720337,-0.108947754,-8.75,-11.015625,1.734375
268,1697616685,0.1303711,-0.15435791,0.11663818,10.828125,-30.078125,-4.421875
269,1697616725,-0.5678711,-2.0,-0.5388794,-2.796875,97.25,-19.453125
270,1697616765,1.3156738,-2.0,0.3925171,-3.03125,-66.0625,-19.1875
271,1697616805,-0.2512207,-1.5945435,-0.04498291,-15.96875,-19.484375,12.765625
272,1697616845,-0.11303711,-1.0803833,-0.024719238,19.578125,-15.53125,-14.828125
273,1697616885,0.26538086,-0.87945557,0.097839355,-12.34375,-15.890625,-0.03125
274,1697616925,0.018798828,-0.2871704,0.05682373,-21.15625,-24.71875,3.09375
275,1697616965,-0.0043945312,-0.24249268,-0.04473877,-13.578125,-15.078125,-10.03125
276,1697617005,-0.025878906,-0.26861572,-0.043273926,-6.140625,22.15625,-7.1875
277,1697617045,-0.0126953125,-0.20245361,0.05999756,15.65625,21.703125,-0.53125
278,1697617085,-0.2355957,-1.8098755,-0.6499634,5.640625,57.171875,-14.5
279,1697617125,0.6945801,-2.0,0.30511475,37.96875,-11.4375,43.3125
280,1697617165,-0.2529297,-1.3467407,-0.07281494,-11.25,-18.171875,9.859375
281,1697617205,0.21411133,-1.0325317,0.043884277,0.234375,16.90625,14.375
282,1697617245,-0.010986328,-0.60650635,-0.08502197,-12.671875,-13.6875,40.15625
283,1697617285,-0.14331055,-0.41729736,-0.1350708,-16.3125,-21.21875,17.578125
284,1697617325,0.17236328,-0.41290283,-0.04498291,-1.109375,-23.109375,-26.140625
285,1697617365,0.027832031,-0.34869385,-0.10308838,-11.375,-1.953125,-12.375
286,1697617405,-0.009033203,-0.44000244,-0.3171997,14.953125,1.765625,-3.25
287,1697617445,0.20263672,-1.524231,0.18109131,35.21875,68.0625,-36.921875
288,1697617485,0.86328125,-2.0,0.19744873,-6.421875,-35.859375,20.53125
289,1697617525,-0.13867188,-1.4190063,-0.13726807,-14.859375,-39.140625,-7.375
290,1697617565,0.017333984,-1.0984497,0.18914795,4.03125,-29.015625,-18.84375
291,1697617605,0.16796875,-0.7803345,0.07513428,-28.375,-18.15625,-1.171875
292,1697617645,-0.2211914,-0.20245361,-0.030334473,-24.28125,-7.4375,-2.953125
293,1697617685,0.22338867,-0.22174072,-0.03765869,-16.046875,9.3125,-1.234375
294,1697617725,0.019042969,-0.15753174,0.1161499,-4.3125,21.4375,2.53125
295,1697617765,-0.26635742,-0.8023071,-0.4661255,34.921875,19.234375,-0.625
296,1697617805,0.45507812,-2.0,0.20355225,52.71875,43.25,-13.75
297,1697617845,0.32177734,-1.8748169,0.17913818,-9.609375,-25.46875,28.546875
298,1697617885,-0.07299805,-1.0403442,0.109558105,5.78125,14.46875,15.78125
299,1697617925,0.02319336,-0.8015747,0.02142334,-8.765625,4.390625,4.59375
300,1697617965,-0.13793945,-0.5083618,-0.089904785,-6.265625,18.90625,10.625
301,1697618005,0.041015625,-0.41168213,-0.0635376,-10.484375,1.28125,1.6875
302,1697618045,0.21362305,-0.20220947,-0.1375122,-14.625,-17.71875,-1.4375
303,1697618085,0.08935547,-0.13482666,0.04071045,0.515625,-15.28125,0.140625
304,1697618125,-0.2697754,-1.2698364,-0.47735596,25.953125,52.265625,-8.5625
305,1697618165,1.4267578,-2.0,0.44451904,8.125,-56.140625,-28.328125
306,1697618205,-0.06298828,-1.4468384,-0.15142822,-35.125,-32.21875,4.78125
307,1697618245,-0.14331055,-1.0720825,-0.093322754,19.65625,-32.65625,-15.0625
308,1697618285,0.024169922,-0.93218994,0.13079834,10.375,-1.125,-2.859375
309,1697618325,0.12084961,-0.47833252,-0.05279541,-26.640625,-18.1875,-0.171875
310,1697618365,0.118896484,-0.27642822,0.12445068,-5.625,-2.921875,-0.296875
311,1697618405,-0.0026855469,-0.4180298,0.018005371,-5.140625,3.640625,-1.921875
312,1697618445,-0.061523438,-0.33355713,-0.042541504,13.171875,17.03125,-1.0
313,1697618485,-0.28295898,-1.878479,-0.6411743,-7.1875,54.6875,-23.484375
314,1697618525,0.47094727,-2.0,0.10028076,30.234375,2.265625,40.359375
315,1697618565,-0.21728516,-1.1755981,-0.04815674,-6.296875,-11.203125,6.8125
316,1697618605,0.037353516,-0.95635986,0.11468506,-1.78125,31.140625,3.34375
317,1697618645,0.14453125,-0.47833252,-0.16925049,-12.6875,-0.796875,28.8125
318,1697618685,-0.20385742,-0.5276489,-0.15484619,2.734375,13.703125,13.71875
319,1697618725,0.3466797,-0.456604,-0.015686035,-8.5,-19.3125,-6.875
320,1697618765,0.12597656,-0.32159424,-0.10748291,-20.625,-40.421875,3.6875
321,1697618805,-0.083496094,-0.3411255,-0.22149658,13.515625,-4.734375,-4.0
322,1697618845,0.12207031,-1.9277954,-0.045715332,22.6875,65.1875,-42.03125
323,1697618885,0.8339844,-2.0,0.18963623,-12.109375,-65.234375,10.75
324,1697618925,-0.44433594,-1.2156372,-0.20928955,-11.640625,-32.96875,0.75
325,1697618965,-0.046875,-0.9241333,0.18939209,22.96875,-5.53125,-23.5625
326,1697619005,0.34887695,-0.8809204,0.16766357,-15.234375,-19.96875,5.1875
327,1697619045,-0.20629883,-0.331604,-0.035461426,-22.0625,-17.328125,4.171875
328,1697619085,0.07495117,-0.14605713,-0.019104004,-16.21875,14.78125,-9.109375
329,1697619125,0.23583984,-0.17388916,0.17596436,4.046875,20.984375,-3.4375
330,1697619165,-0.34228516,-0.9373169,-0.71881104,35.421875,-1.5,-11.125
331,1697619205,0.27319336,-2.0,0.17327881,57.953125,61.1875,-23.4375
332,1697619245,0.49804688,-1.9902954,0.27874756,5.6875,-14.21875,46.328125
333,1697619285,-0.24804688,-1.0386353,0.046569824,-2.234375,21.359375,12.78125
334,1697619325,0.083984375,-0.75616455,0.08148193,-3.1875,20.1875,7.546875
335,1697619365,0.022216797,-0.70098877,-0.11578369,0.828125,11.078125,29.109375
336,1697619405,0.064453125,-0.39385986,-0.13848877,-5.6875,-16.0625,2.390625
337,1697619445,0.049560547,-0.1506958,-0.06036377,-7.390625,-9.515625,-7.515625
338,1697619485,0.1315918,-0.2263794,-0.010314941,-6.84375,-8.5,-3.796875
339,1697619525,-0.037109375,-1.0530396,-0.5149536,26.953125,27.703125,-9.265625
340,1697619565,1.2729492,-2.0,0.14300537,39.453125,-32.453125,-33.0625
341,1697619605,-0.11401367,-1.6780396,-0.120910645,-51.859375,-55.953125,14.703125
342,1697619645,-0.24975586,-0.97003174,-0.16925049,24.140625,-7.921875,-20.25
343,1697619685,0.35351562,-0.9937134,0.12298584,2.96875,10.578125,-1.875
344,1697619725,0.25390625,-0.6018677,-0.051330566,-30.3125,-26.828125,8.046875
345,1697619765,-0.036865234,-0.11920166,0.059265137,-26.625,-9.46875,-1.671875
346,1697619805,0.083740234,-0.08477783,0.08929443,-11.71875,17.140625,-1.9375
347,1697619845,-0.27490234,-0.3447876,-0.4397583,45.015625,29.421875,-1.734375
348,1697619885,0.072753906,-2.0,-0.28204346,11.34375,79.09375,-15.546875
349,1697619925,0.21704102,-2.0,-0.04522705,-4.828125,-32.59375,31.8125
350,1697619965,-0.33325195,-1.1621704,-0.13726807,6.296875,23.328125,-5.46875
351,1697620005,0.27734375,-1.0462036,-0.011779785,-4.140625,23.40625,-0.4375
352,1697620045,0.13452148,-0.5183716,-0.08721924,-9.296875,6.59375,31.84375
353,1697620085,-0.3803711,-0.49176025,-0.16290283,-3.859375,-4.359375,6.28125
354,1697620125,0.18432617,-0.20806885,-0.085510254,-3.71875,-16.203125,0.765625
355,1697620165,0.20776367,-0.1843872,0.017028809,0.90625,-18.375,0.9375
356,1697620205,0.115234375,-0.40118408,-0.3164673,15.671875,-12.828125,-4.515625
357,1697620245,0.30200195,-1.9666138,0.15032959,39.53125,52.859375,-40.53125
358,1697620285,0.74243164,-2.0,0.12786865,-22.828125,-59.0,9.0625
359,1697620325,-0.43237305,-1.3972778,-0.109680176,-8.40625,-48.25,-14.8125
360,1697620365,-0.095703125,-1.0237427,0.06390381,26.046875,4.4375,-19.671875
361,1697620405,0.29492188,-0.73028564,0.14324951,-15.578125,2.03125,4.65625
362,1697620445,0.046875,-0.3418579,-0.0635376,-23.78125,-5.421875,2.421875
363,1697620485,0.21777344,-0.10699463,-0.06451416,-22.375,4.96875,-3.4375
364,1697620525,0.09277344,-0.051818848,0.1251831,0.53125,13.515625,3.265625
365,1697620565,-0.18017578,-0.78326416,-0.80010986,48.03125,3.09375,-1.265625
366,1697620605,0.4934082,-2.0,0.28851318,76.265625,40.5625,-19.296875
367,1697620645,0.26220703,-1.8294067,0.14813232,-16.75,-28.578125,35.875
368,1697620685,-0.2368164,-1.1621704,0.028747559,0.046875,24.78125,9.375
369,1697620725,0.22998047,-0.93927,-0.0068969727,-5.703125,14.265625,15.203125
370,1697620765,-0.09326172,-0.5811157,-0.26055908,-20.78125,3.015625,25.953125
371,1697620805,-0.021484375,-0.40948486,-0.061584473,-19.640625,-4.921875,-4.75
372,1697620845,0.02709961,-0.24908447,-0.13067627,-24.734375,-26.6875,-4.359375
373,1697620885,-0.044921875,-0.16290283,0.0014038086,-12.578125,-2.890625,-1.640625
374,1697620925,0.17553711,-0.81915283,-0.33966064,47.546875,24.90625,-11.171875
375,1697620965,1.4187012,-2.0,0.48846436,23.96875,-24.78125,-29.734375
376,1697621005,0.1809082,-1.822815,-0.0335083,-32.78125,-32.890625,11.03125
377,1697621045,-0.5048828,-1.0335083,-0.13140869,33.46875,-41.59375,-29.921875
378,1697621085,0.3173828,-1.1216431,0.12298584,9.640625,11.515625,-6.515625
379,1697621125,0.28393555,-0.611145,0.022155762,-23.515625,-30.515625,10.625
380,1697621165,-0.22241211,-0.21148682,-0.0178833,-24.828125,-10.875,-5.5
381,1697621205,0.08251953,-0.124816895,0.038513184,-20.984375,27.328125,-7.109375
382,1697621245,0.018066406,-0.06719971,0.12347412,4.46875,22.78125,-2.890625
383,1697621285,-0.3166504,-1.2703247,-0.74346924,30.59375,51.3125,-16.65625
384,1697621325,1.3093262,-2.0,0.058532715,23.65625,-39.765625,17.328125
385,1697621365,-0.22998047,-1.3230591,-0.03765869,-36.65625,-20.46875,32.421875
386,1697621405,-0.088134766,-1.0501099,0.053649902,-6.453125,19.5,-8.640625
387,1697621445,0.09277344,-0.815979,-0.050354004,6.609375,23.40625,21.984375
388,1697621485,-0.111083984,-0.5808716,-0.10992432,-9.765625,22.765625,27.5
389,1697621525,0.1550293,-0.17706299,-0.1272583,-15.140625,-16.4375,3.390625
390,1697621565,0.20800781,-0.051818848,0.035095215,-5.234375,-24.75,6.609375
391,1697621605,0.028564453,-0.22711182,-0.17633057,28.21875,-24.109375,-8.59375
392,1697621645,-0.31689453,-1.935852,-0.13922119,28.578125,99.40625,-40.21875
393,1697621685,1.3520508,-2.0,0.39398193,-9.625,-61.40625,-10.125
394,1697621725,-0.37963867,-1.305481,-0.19000244,-23.03125,-31.46875,7.171875
395,1697621765,-0.0625,-1.0125122,-0.00982666,37.953125,1.03125,-17.09375
396,1697621805,0.34399414,-0.9456177,0.18499756,-11.3125,-13.828125,1.421875
397,1697621845,0.10571289,-0.41192627,0.001159668,-28.421875,-30.640625,3.84375
398,1697621885,0.022949219,-0.09625244,-0.049621582,-30.5,-6.75,-0.6875
399,1697621925,-0.10668945,-0.16265869,0.022155762,-12.40625,20.625,-3.65625
400,1697621965,-0.014892578,-0.6616821,-0.2937622,31.484375,31.328125,-9.8125
401,1697622005,0.45458984,-2.0,0.03314209,45.59375,27.84375,-15.828125
402,1697622045,0.13183594,-1.8269653,0.061706543,-17.359375,-15.453125,26.59375
403,1697622085,-0.1977539,-1.2400513,0.023864746,4.078125,14.25,9.375
404,1697622125,0.2084961,-0.97247314,-0.031555176,6.25,16.765625,18.859375
405,1697622165,-0.12548828,-0.645813,0.029968262,-9.453125,8.046875,23.796875
406,1697622205,0.0009765625,-0.3640747,-0.04034424,-16.578125,-4.375,0.75
407,1697622245,0.2626953,-0.22564697,-0.19927979,-20.6875,-5.453125,-4.234375
408,1697622285,0.26635742,-0.05255127,-0.014953613,-16.890625,-27.515625,-6.328125
409,1697622325,0.046875,-0.6170044,-0.40411377,42.65625,-6.25,-8.328125
410,1697622365,0.40625,-2.0,0.2741089,67.40625,31.8125,-50.78125
411,1697622405,0.63623047,-2.0,0.10687256,-18.578125,-39.984375,11.21875
412,1697622445,-0.5085449,-1.2842407,-0.06378174,18.40625,-40.46875,-13.609375
413,1697622485,0.31445312,-1.0513306,0.13446045,1.609375,5.15625,-17.515625
414,1697622525,0.17651367,-0.62506104,-0.03326416,-26.03125,-30.515625,7.171875
415,1697622565,-0.1665039,-0.17755127,0.024841309,-25.203125,-13.0,0.0
416,1697622605,0.0690918,-0.097473145,-0.05206299,-22.9375,20.234375,-3.84375
417,1697622645,0.0053710938,0.019470215,0.07244873,0.609375,29.484375,6.046875
418,1697622685,-0.23095703,-1.0650024,-0.5845337,56.15625,47.265625,-1.765625
419,1697622725,1.375,-2.0,-0.09942627,29.15625,-37.234375,17.484375
420,1697622765,-0.34472656,-1.4558716,-0.1026001,-43.8125,-34.34375,25.28125
421,1697622805,-0.052734375,-1.1609497,0.094177246,5.078125,32.65625,-6.0625
422,1697622845,0.044189453,-0.8521118,-0.07720947,-2.015625,21.578125,29.484375
423,1697622885,-0.21313477,-0.5527954,-0.24493408,1.921875,19.890625,28.453125
424,1697622925,0.19897461,-0.112854004,-0.1350708,-2.96875,-6.3125,-2.65625
425,1697622965,0.26538086,-0.010803223,-0.097229004,-26.8125,-10.984375,0.15625
426,1697623005,0.14160156,-0.07208252,-0.13360596,7.734375,-12.546875,-5.234375
427,1697623045,-0.3125,-2.0,-0.101867676,21.71875,71.75,-39.625
428,1697623085,1.2060547,-2.0,0.40423584,-12.828125,-50.484375,-0.5
429,1697623125,-0.2758789,-1.6890259,-0.020080566,-17.359375,-32.34375,0.734375
430,1697623165,0.072753906,-1.2368774,0.07366943,30.296875,-15.765625,-32.640625
431,1697623205,0.092285156,-0.8882446,-0.058654785,-14.75,-23.671875,-1.90625
432,1697623245,0.12036133,-0.31744385,0.07977295,-31.8125,-7.78125,0.609375
433,1697623285,0.103759766,-0.14971924,-0.020568848,-27.40625,-7.03125,-9.109375
434,1697623325,0.0036621094,-0.034973145,0.15814209,-19.25,23.359375,-2.703125
435,1697623365,-0.18261719,-0.36602783,-0.5269165,42.125,27.234375,17.96875
436,1697623405,-0.038330078,-2.0,-0.19805908,45.375,67.0625,-13.03125
437,1697623445,0.32006836,-1.9717407,0.31536865,-7.0625,-31.3125,35.453125
438,1697623485,-0.39086914,-1.3047485,-0.117004395,1.109375,32.1875,13.921875
439,1697623525,0.25585938,-1.1751099,-0.09039307,8.25,45.78125,19.796875
440,1697623565,0.19628906,-0.7185669,-0.020324707,-17.578125,16.46875,34.40625
441,1697623605,0.060791016,-0.34674072,-0.18243408,-4.796875,-19.046875,-0.8125
442,1697623645,0.068847656,-0.097961426,-0.089904785,-3.03125,-32.546875,1.421875
443,1697623685,0.10913086,0.14569092,-0.07867432,-54.015625,-26.625,-5.953125
444,1697623725,0.16235352,-0.5120239,-0.35650635,42.015625,-1.75,-17.8125
445,1697623765,0.5292969,-2.0,0.3295288,74.75,42.140625,-39.65625
446,1697623805,0.4086914,-2.0,-0.10455322,-15.390625,-31.359375,6.65625
447,1697623845,-0.52246094,-1.2307739,-0.25543213,24.515625,-48.03125,-27.515625
448,1697623885,0.39038086,-1.2481079,0.046325684,-0.046875,-1.25,-10.125
449,1697623925,0.22680664,-0.567688,-0.007873535,-37.65625,-39.671875,8.78125
450,1697623965,-0.19702148,-0.011047363,0.007507324,-35.328125,-8.046875,-7.53125
451,1697624005,0.028564453,0.10418701,-0.007385254,-23.71875,27.921875,-4.609375
452,1697624045,-0.2421875,-0.13800049,-0.26446533,33.71875,41.46875,0.484375
453,1697624085,-0.15209961,-1.8394165,-0.45928955,34.0,80.265625,-24.828125
454,1697624125,0.55078125,-2.0,0.14959717,30.140625,-28.125,39.0
455,1697624165,-0.40844727,-1.3179321,-0.082092285,-21.375,-2.1875,12.734375
456,1697624205,0.107910156,-1.1358032,-0.049621582,6.578125,49.25,-0.921875
457,1697624245,0.18408203,-0.7617798,-0.13067627,15.53125,30.640625,34.359375
458,1697624285,-0.14550781,-0.42510986,-0.2288208,9.328125,5.59375,2.3125
459,1697624325,0.21606445,-0.18609619,-0.117248535,8.6875,-16.65625,-0.671875
460,1697624365,0.25683594,-0.058166504,-0.013977051,-21.265625,-11.359375,4.5
461,1697624405,0.087646484,-0.25787354,-0.25689697,-4.078125,-38.515625,-14.484375
462,1697624445,-0.10180664,-2.0,0.2008667,24.421875,49.15625,-29.484375
463,1697624485,0.7976074,-2.0,-0.06085205,-18.65625,-44.0625,-6.765625
464,1697624525,-0.19140625,-1.4854126,-0.108947754,-4.375,-14.0,-8.078125
465,1697624565,0.16064453,-1.2019653,0.10321045,8.578125,-27.859375,-23.703125
466,1697624605,0.14038086,-0.7444458,-0.07086182,-27.78125,-28.125,-2.25
467,1697624645,0.12475586,-0.34747314,0.06756592,-16.953125,-20.921875,6.3125
468,1697624685,-0.0041503906,-0.18048096,-0.020568848,-26.28125,-9.96875,-3.140625
469,1697624725,-0.043701172,0.019714355,-0.024719238,-19.671875,22.578125,-0.765625
470,1697624765,-0.17382812,-0.4607544,-0.44000244,46.859375,18.09375,-4.03125
471,1697624805,0.2697754,-2.0,0.06439209,61.328125,61.46875,-15.203125
472,1697624845,0.16381836,-1.8401489,-0.13433838,-14.625,-15.015625,35.265625
473,1697624885,-0.18701172,-1.2192993,-0.015930176,-4.984375,26.75,3.234375
474,1697624925,0.25610352,-0.97052,0.023864746,3.203125,25.59375,12.0
475,1697624965,-0.18164062,-0.6411743,-0.23614502,10.375,24.015625,22.65625
476,1697625005,0.09790039,-0.36138916,-0.043273926,6.09375,-13.765625,-0.875
477,1697625045,0.21069336,-0.15093994,-0.1272583,-20.5625,-13.515625,4.40625
478,1697625085,0.1303711,-0.11846924,0.008483887,-31.78125,-24.40625,4.765625
479,1697625125,0.107421875,-0.9505005,-0.38824463,22.09375,-4.171875,-23.359375
480,1697625165,0.9067383,-2.0,0.1720581,12.171875,-32.453125,-26.78125
481,1697625205,0.08300781,-1.878479,0.018493652,-24.96875,-39.828125,6.421875
482,1697625245,-0.4050293,-1.2058716,-0.09283447,11.421875,-27.21875,-21.890625
483,1697625285,0.30737305,-1.1060181,0.093933105,5.6875,11.03125,-7.9375
484,1697625325,0.26757812,-0.6387329,0.0368042,-30.65625,-27.671875,10.984375
485,1697625365,-0.07348633,-0.20635986,-0.090148926,-28.90625,-11.140625,-2.296875
486,1697625405,0.087402344,0.047302246,0.05731201,-15.359375,22.859375,-6.21875
487,1697625445,-0.06665039,-0.0134887695,0.059265137,15.09375,23.40625,-5.890625
488,1697625485,-0.23046875,-1.1514282,-0.4553833,37.203125,40.328125,-21.828125
489,1697625525,1.0297852,-2.0,-0.21905518,15.125,-44.515625,21.90625
490,1697625565,-0.1459961,-1.4016724,-0.019592285,-24.875,0.515625,28.140625
491,1697625605,0.053222656,-1.1963501,0.03656006,9.9375,28.0625,1.90625
492,1697625645,0.2175293,-0.833313,-0.01373291,4.859375,2.828125,22.671875
493,1697625685,-0.3125,-0.53302,-0.19390869,-1.890625,16.046875,23.375
494,1697625725,0.12060547,-0.25738525,-0.1506958,4.953125,-12.78125,1.375
495,1697625765,0.23657227,-0.09503174,-0.006652832,-11.328125,-16.8125,2.515625
496,1697625805,0.13305664,-0.10601807,-0.033996582,-7.734375,-15.390625,-7.578125
497,1697625845,-0.53027344,-1.9251099,-0.4055786,-5.390625,102.75,-20.46875
498,1697625885,1.3337402,-2.0,0.17572021,-18.28125,-64.046875,-26.5625
499,1697625925,-0.24487305,-1.7024536,-0.089416504,-16.359375,-15.84375,6.765625
500,1697625965,-0.19799805,-1.0515747,-0.06451416,14.375,-29.734375,-22.125
501,1697626005,0.3395996,-1.0401001,0.0848999,-4.421875,-13.703125,3.59375
502,1697626045,0.016845703,-0.49053955,-0.081848145,-20.609375,-20.65625,7.765625
503,1697626085,0.16894531,-0.22515869,0.050720215,-14.890625,-6.390625,-1.296875
504,1697626125,-0.01586914,-0.21417236,0.05291748,-13.0625,6.90625,-2.6875
505,1697626165,-0.24316406,0.008483887,0.06707764,18.953125,25.46875,-3.046875
506,1697626205,-0.19726562,-1.9802856,-1.0276489,4.328125,84.9375,-29.59375
507,1697626245,0.5283203,-2.0,0.31976318,13.078125,-39.40625,40.8125
508,1697626285,-0.38134766,-1.138977,-0.06378174,-13.15625,-13.296875,18.890625
509,1697626325,0.080078125,-1.0510864,0.06976318,-4.609375,35.96875,3.6875
510,1697626365,0.15014648,-0.76031494,-0.11480713,0.796875,16.015625,38.421875
511,1697626405,-0.068115234,-0.37994385,-0.21636963,-18.1875,-17.1875,11.703125
512,1697626445,0.12426758,-0.20196533,-0.13214111,-17.203125,-16.515625,-10.21875
513,1697626485,0.15844727,-0.315979,0.022155762,-15.015625,-0.828125,-3.890625
514,1697626525,0.095214844,-0.41949463,-0.36090088,20.328125,-4.34375,-2.1875
515,1697626565,0.19140625,-1.6123657,0.1708374,32.8125,55.234375,-33.109375
516,1697626605,0.857666,-2.0,0.38397217,-6.15625,-47.140625,17.4375
517,1697626645,-0.20263672,-1.4092407,-0.24517822,-9.71875,-47.5625,-12.546875
518,1697626685,-0.16601562,-0.93878174,0.13201904,6.1875,-11.40625,-27.59375
519,1697626725,0.41796875,-0.80426025,0.06878662,-24.65625,-16.96875,5.203125
520,1697626765,-0.08886719,-0.24371338,0.09051514,-11.921875,-17.5,5.015625
521,1697626805,-0.11669922,-0.15460205,-0.02130127,-14.390625,9.984375,-3.140625
522,1697626845,-0.049804688,-0.05670166,0.06732178,-6.0625,37.28125,4.796875
523,1697626885,-0.09301758,-0.72198486,-0.35113525,31.140625,21.921875,-1.890625
524,1697626925,0.50683594,-2.0,0.17523193,29.421875,2.984375,-14.9375
525,1697626965,0.11279297,-1.7893677,0.062438965,-17.765625,-14.984375,40.25
526,1697627005,-0.14086914,-1.1843872,-0.05645752,9.71875,29.0,-2.484375
527,1697627045,0.27197266,-1.0054321,0.025817871,15.453125,23.5,16.015625
528,1697627085,-0.14770508,-0.65997314,-0.09039307,-7.890625,7.203125,36.84375
529,1697627125,0.013916016,-0.34625244,-0.23565674,9.875,-13.078125,12.390625
530,1697627165,0.32373047,0.07220459,0.011657715,-26.5,-24.078125,7.3125
531,1697627205,0.2578125,0.18182373,-0.030578613,0.546875,-32.09375,3.65625
532,1697627245,-0.9868164,-2.0,-0.44903564,3.53125,89.359375,-32.03125
533,1697627285,1.6245117,-2.0,0.09075928,-7.796875,-34.515625,-19.46875
534,1697627325,-0.030761719,-1.640686,-0.09991455,-29.890625,-9.75,4.1875
535,1697627365,-0.012207031,-1.1436157,0.0018920898,13.09375,-46.71875,-18.265625
536,1697627405,0.30737305,-0.9680786,0.014587402,-10.125,-14.953125,-1.328125
537,1697627445,0.01171875,-0.40899658,0.08270264,-7.53125,-12.96875,2.4375
538,1697627485,-0.061279297,-0.253479,0.038513184,-28.640625,1.15625,-9.734375
539,1697627525,0.009277344,0.07293701,0.019958496,-22.109375,37.046875,-3.40625
540,1697627565,-0.09838867,-0.25958252,-0.4673462,27.65625,30.390625,3.96875
541,1697627605,-0.020263672,-2.0,-0.23443604,25.671875,43.46875,-10.71875
542,1697627645,0.13574219,-2.0,0.054382324,13.234375,-3.703125,26.203125
543,1697627685,-0.2355957,-1.33844,-0.035461426,-6.375,18.46875,1.421875
544,1697627725,0.24633789,-1.0759888,-0.070129395,4.625,28.703125,9.84375
545,1697627765,-0.048583984,-0.70147705,-0.028381348,-13.34375,-2.609375,35.25
546,1697627805,-0.15917969,-0.47125244,-0.24249268,-10.90625,-6.0625,-3.46875
547,1697627845,0.23144531,-0.113098145,-0.06451416,-25.109375,4.625,-0.484375
548,1697627885,0.23706055,0.105895996,0.035827637,-13.21875,0.59375,7.515625
549,1697627925,0.22460938,-0.50494385,-0.30792236,43.671875,0.828125,-8.09375
550,1697627965,0.7121582,-2.0,0.31243896,52.046875,24.71875,-27.984375
551,1697628005,0.46728516,-1.7901001,0.06976318,-6.8125,-39.4375,0.90625
552,1697628045,-0.3828125,-1.3914185,-0.17144775,8.390625,-53.6875,-20.234375
553,1697628085,0.18286133,-0.91534424,0.06365967,0.53125,-8.6875,-12.6875
554,1697628125,0.20092773,-0.69976807,-0.0076293945,-23.5,-34.015625,1.390625
555,1697628165,0.010253906,-0.36212158,-0.0015258789,-31.203125,-15.65625,-7.484375
556,1697628205,0.0012207031,0.02532959,0.050720215,-25.859375,13.046875,-6.53125
557,1697628245,-0.18383789,0.117126465,-0.023010254,9.15625,20.5625,-0.84375
558,1697628285,-0.16992188,-1.0317993,-0.33184814,55.5,54.265625,-17.046875
559,1697628325,1.0517578,-2.0,-0.19146729,12.796875,-36.1875,26.640625
560,1697628365,-0.12841797,-1.456604,0.02532959,-21.796875,-12.40625,20.875
561,1697628405,-0.12011719,-1.2178345,-0.014221191,6.90625,25.265625,-1.015625
562,1697628445,0.1887207,-0.7476196,-0.021057129,3.34375,22.84375,26.8125
563,1697628485,-0.05908203,-0.53741455,-0.1326294,-20.9375,8.359375,23.03125
564,1697628525,0.06274414,-0.16973877,-0.16656494,1.890625,-24.4375,-12.125
565,1697628565,0.38330078,0.051940918,-0.054260254,-18.625,-3.25,5.734375
566,1697628605,0.19116211,-0.11456299,-0.27838135,25.046875,-10.828125,-1.078125
567,1697628645,-0.29541016,-2.0,0.08929443,36.390625,67.578125,-35.71875
568,1697628685,1.2351074,-1.9231567,0.04876709,-21.703125,-60.96875,-10.5
569,1697628725,-0.22070312,-1.642395,-0.11138916,-10.578125,-27.984375,-2.53125
570,1697628765,0.03930664,-1.045227,0.053649902,15.390625,-17.359375,-18.34375
571,1697628805,0.13598633,-0.81085205,-0.01763916,-20.046875,-34.828125,2.8125
572,1697628845,0.0107421875,-0.37530518,-0.044006348,-22.78125,-8.640625,0.5
573,1697628885,0.053710938,-0.045715332,0.0602417,-29.515625,5.03125,-2.15625
574,1697628925,-0.1003418,0.14056396,0.06341553,-5.203125,26.40625,0.140625
575,1697628965,-0.16967773,-0.7341919,-0.7420044,51.78125,35.921875,-5.078125
576,1697629005,1.0234375,-2.0,0.2855835,72.953125,-23.84375,7.609375
577,1697629045,-0.06982422,-1.6939087,-0.17193604,-45.109375,-10.765625,28.484375
578,1697629085,-0.13891602,-1.0996704,-0.093322754,6.9375,21.0,-5.515625
579,1697629125,0.41796875,-1.0393677,-0.0025024414,16.4375,26.0625,24.34375
580,1697629165,-0.084472656,-0.5322876,-0.18951416,-28.90625,-23.40625,27.390625
581,1697629205,-0.10229492,-0.19805908,-0.081848145,-16.109375,-27.375,-11.46875
582,1697629245,0.06298828,-0.14630127,-0.06719971,-34.359375,7.578125,-1.890625
583,1697629285,0.22070312,-0.03717041,-0.10479736,4.625,-3.015625,-1.25
584,1697629325,0.006591797,-1.4334106,-0.2571411,38.234375,42.890625,-16.796875
585,1697629365,1.3447266,-2.0,0.17279053,3.65625,-46.875,-0.6875
586,1697629405,-0.23095703,-1.7144165,-0.15386963,-30.703125,-27.46875,2.03125
587,1697629445,-0.05029297,-1.1218872,0.08343506,17.640625,-19.53125,-20.84375
588,1697629485,0.42773438,-1.029602,0.13226318,-19.796875,-26.84375,-2.03125
589,1697629525,-0.020996094,-0.54156494,0.010192871,-21.9375,-32.875,-2.25
590,1697629565,-0.13452148,-0.19708252,-0.08282471,-34.21875,9.15625,-15.34375
591,1697629605,0.13769531,0.20941162,0.08538818,-24.671875,42.375,-4.8125
592,1697629645,-0.12060547,-0.20147705,-0.26983643,45.046875,14.65625,8.703125
593,1697629685,-0.3154297,-2.0,0.17352295,24.890625,66.34375,-42.4375
594,1697629725,0.515625,-1.8340454,-0.11920166,1.921875,-0.65625,32.625
595,1697629765,-0.58984375,-1.083313,-0.04840088,10.21875,10.328125,3.828125
596,1697629805,0.14379883,-0.9902954,0.03753662,10.15625,60.6875,14.328125
597,1697629845,0.32128906,-0.6409302,-0.12237549,-5.828125,21.71875,33.1875
598,1697629885,0.023925781,-0.3772583,-0.16241455,-27.1875,-33.75,-2.875
599,1697629925,0.12915039,-0.08404541,-0.085510254,-25.546875,-23.171875,-3.65625
600,1697629965,0.14819336,0.13397217,0.11981201,-4.1875,-30.0,-7.515625
601,1697630005,-0.32250977,-0.9871216,-0.6465454,52.15625,18.125,-16.75
602,1697630045,1.6276855,-2.0,0.31463623,38.8125,-45.09375,-12.875
603,1697630085,0.03540039,-1.7600708,-0.06060791,-36.5,-30.8125,11.015625
604,1697630125,-0.041015625,-1.2276001,-0.16925049,11.953125,-39.75,-29.296875
605,1697630165,0.21948242,-1.0171509,0.041931152,-9.671875,-23.203125,-1.578125
606,1697630205,0.025878906,-0.5420532,0.039733887,-23.3125,-28.765625,-1.046875
607,1697630245,-0.11450195,-0.23712158,-0.027648926,-29.40625,-7.421875,-6.375
608,1697630285,-0.029541016,0.024353027,-0.038146973,-26.4375,34.03125,-7.84375
609,1697630325,-0.04321289,0.12054443,-0.00982666,21.515625,44.71875,3.25
610,1697630365,0.05444336,-1.3023071,-0.60943604,74.515625,53.203125,-2.9375
611,1697630405,0.49169922,-2.0,0.1227417,3.21875,-51.890625,26.109375
612,1697630445,-0.38354492,-1.3623657,-0.0025024414,-29.84375,4.25,12.0625
613,1697630485,0.15893555,-1.1467896,0.014343262,5.453125,47.890625,8.65625
614,1697630525,0.3918457,-0.80914307,-0.05621338,-7.453125,2.671875,34.5625
615,1697630565,-0.40454102,-0.40264893,-0.19390869,-37.40625,-8.328125,-1.765625
616,1697630605,0.045410156,-0.24957275,-0.16949463,-26.5625,1.78125,-15.859375
617,1697630645,0.26538086,-0.14337158,0.0033569336,-18.984375,-4.5625,-2.4375
618,1697630685,0.16186523,-0.023986816,-0.12261963,32.671875,-14.40625,1.21875
619,1697630725,-0.38134766,-2.0,-0.082092285,38.125,109.953125,-8.703125
620,1697630765,1.0368652,-2.0,0.22161865,-18.5625,-66.328125,14.828125
621,1697630805,-0.06933594,-1.5349731,-0.16363525,-1.796875,-35.421875,-6.234375
622,1697630845,0.07543945,-1.0056763,0.11199951,4.390625,-12.890625,-13.203125
623,1697630885,0.42382812,-0.85235596,0.09588623,-17.328125,-32.359375,0.171875
624,1697630925,-0.012207031,-0.46759033,-0.08111572,-32.4375,-27.296875,4.71875
625,1697630965,-0.09301758,-0.054016113,-0.012268066,-38.03125,6.5625,-13.984375
626,1697631005,0.018066406,0.27679443,0.1671753,-16.359375,21.6875,-6.390625
627,1697631045,-0.3059082,-0.4578247,-0.5779419,71.09375,9.046875,9.203125
628,1697631085,0.68115234,-2.0,0.59246826,118.828125,50.203125,-31.796875
629,1697631125,0.24047852,-1.760315,0.13079834,-43.96875,-19.21875,23.21875
630,1697631165,-0.4099121,-1.227356,0.06488037,15.0625,30.28125,-9.640625
631,1697631205,0.2927246,-0.89068604,-0.01763916,-2.09375,31.25,9.625
632,1697631245,0.048583984,-0.5298462,-0.1572876,-15.21875,-3.203125,31.578125
633,1697631285,-0.038330078,-0.3887329,-0.12042236,-1.515625,-12.09375,-4.5625
634,1697631325,0.31982422,-0.03277588,0.005554199,-7.375,-14.25,1.046875
635,1697631365,0.22265625,0.031677246,-0.12677002,8.703125,-18.75,0.96875
636,1697631405,-0.6069336,-2.0,-0.32769775,11.75,84.640625,-12.421875
637,1697631445,1.4353027,-2.0,0.25872803,5.296875,-58.625,-13.625
638,1697631485,-0.24145508,-1.5303345,-0.25738525,-34.3125,-29.390625,5.34375
639,1697631525,-0.18676758,-1.0317993,0.10101318,23.265625,-8.09375,-19.328125
640,1697631565,0.40356445,-1.02594,0.051208496,-21.65625,-20.421875,-1.28125
641,1697631605,-0.103759766,-0.3225708,-0.023742676,-25.78125,-10.21875,2.328125
642,1697631645,-0.11425781,0.09906006,0.02557373,-38.703125,39.09375,-8.0
643,1697631685,0.07739258,0.1828003,0.098083496,-8.171875,37.734375,7.78125
644,1697631725,-0.16381836,-0.3887329,-0.68951416,70.3125,36.5,7.25
645,1697631765,0.8469238,-2.0,0.64227295,91.578125,25.765625,-23.953125
646,1697631805,-0.03955078,-2.0,-0.255188,-56.375,-35.921875,26.25
647,1697631845,-0.39648438,-1.177063,0.039489746,6.53125,22.171875,-5.9375
648,1697631885,0.30151367,-0.9241333,-0.06719971,8.140625,41.796875,15.640625
649,1697631925,0.091552734,-0.49517822,-0.0869751,-17.8125,8.4375,36.84375
650,1697631965,-0.09838867,-0.4109497,-0.21368408,-13.875,-8.765625,-4.015625
651,1697632005,0.41723633,-0.0869751,-0.042297363,-25.90625,-34.53125,3.828125
652,1697632045,0.14526367,0.18304443,0.0099487305,-2.890625,-44.4375,1.59375
653,1697632085,-0.41967773,-1.2918091,-0.70806885,49.859375,42.375,-16.453125
654,1697632125,1.2302246,-2.0,0.24041748,33.8125,-19.984375,-14.59375
655,1697632165,-0.14160156,-1.8262329,-0.10772705,-33.78125,-36.421875,16.984375
656,1697632205,-0.12963867,-1.2044067,-0.097717285,15.09375,-47.9375,-33.484375
657,1697632245,0.27416992,-1.0671997,0.055114746,-0.828125,-14.984375,-5.96875
658,1697632285,0.13671875,-0.5564575,-0.02178955,-32.5625,-20.484375,4.875
659,1697632325,-0.036132812,-0.11138916,0.06414795,-33.296875,-4.75,-9.546875
660,1697632365,0.008544922,0.094177246,-0.016906738,-23.375,15.171875,-0.21875
661,1697632405,-0.2487793,-0.03717041,-0.15826416,33.984375,12.1875,8.34375
662,1697632445,-0.5715332,-2.0,-0.7991333,21.890625,96.25,-32.0
663,1697632485,0.9916992,-2.0,-0.012023926,17.734375,-30.390625,37.484375
664,1697632525,-0.13427734,-1.1231079,-0.026428223,-34.28125,-15.515625,28.46875
665,1697632565,-0.1340332,-1.1970825,0.06072998,-3.734375,21.578125,3.421875
666,1697632605,0.09692383,-0.7210083,-0.08917236,-4.0,24.015625,22.40625
667,1697632645,-0.10229492,-0.38189697,-0.14776611,-32.734375,-2.8125,17.90625
668,1697632685,0.11230469,-0.19293213,-0.17388916,-30.0,-1.53125,-1.421875
669,1697632725,0.41088867,0.07977295,0.17303467,-13.578125,-30.3125,1.03125
670,1697632765,0.1352539,-0.45343018,-0.16851807,57.796875,-10.828125,-5.484375
671,1697632805,0.4482422,-2.0,0.31365967,43.796875,48.078125,-49.875
672,1697632845,0.87719727,-1.847229,0.3805542,-3.515625,-32.5625,16.203125
673,1697632885,-0.45483398,-1.4331665,-0.08135986,12.421875,-52.703125,-16.109375
674,1697632925,0.25561523,-1.201477,0.12689209,1.78125,6.734375,-23.03125
675,1697632965,0.32226562,-0.74835205,-0.03643799,-27.484375,-19.875,6.46875
676,1697633005,-0.1081543,-0.3899536,0.049743652,-34.140625,-2.4375,-7.75
677,1697633045,-0.0043945312,0.117126465,0.03314209,-36.171875,34.453125,-18.765625
678,1697633085,-0.09277344,0.2819214,0.04144287,4.859375,35.421875,5.296875
679,1697633125,-0.106933594,-0.8726196,-0.427063,49.90625,38.15625,-5.15625
680,1697633165,0.8166504,-2.0,-0.05670166,33.5,-58.46875,30.59375
681,1697633205,-0.23510742,-1.6126099,0.11590576,-15.765625,8.453125,19.078125
682,1697633245,-0.06201172,-1.4524536,-0.04815674,2.359375,36.84375,-3.4375
683,1697633285,0.45166016,-0.9439087,0.11859131,26.328125,36.453125,32.453125
684,1697633325,-0.15771484,-0.3796997,-0.25616455,-41.78125,-6.0625,23.46875
685,1697633365,-0.13989258,-0.19561768,-0.29156494,-22.421875,11.6875,-8.421875
686,1697633405,0.56396484,0.15716553,0.08514404,-17.609375,-20.734375,8.515625
687,1697633445,0.076416016,0.090270996,-0.10650635,39.140625,-32.859375,-10.3125
688,1697633485,-0.89086914,-2.0,-0.41607666,40.34375,129.07812,-33.96875
689,1697633525,1.8134766,-2.0,0.37835693,-23.171875,-92.109375,-8.4375
690,1697633565,-0.19238281,-1.4751587,-0.12188721,-10.640625,-22.171875,4.953125
691,1697633605,-0.20751953,-1.08844,-0.03643799,19.015625,-22.859375,-18.5
692,1697633645,0.35424805,-0.9793091,0.15032959,-6.4375,-15.6875,-1.4375
693,1697633685,0.15576172,-0.49517822,-0.047180176,-38.125,-21.09375,-0.734375
694,1697633725,-0.14257812,0.0836792,-0.06329346,-43.03125,16.390625,-7.328125
695,1697633765,-0.095703125,0.29364014,0.13470459,-4.765625,45.796875,-0.515625
696,1697633805,-0.059814453,-0.49005127,-0.52301025,69.59375,28.15625,0.34375
697,1697633845,0.3552246,-2.0,0.33807373,55.109375,31.796875,-30.640625
698,1697633885,0.30664062,-1.9712524,-0.11016846,-19.453125,-29.0625,35.359375
699,1697633925,-0.33398438,-1.1668091,-0.014709473,0.8125,4.578125,1.71875
700,1697633965,0.18579102,-0.97052,-0.05255127,4.078125,25.234375,8.671875
701,1697634005,0.11401367,-0.63067627,-0.07281494,-5.078125,1.9375,30.921875
702,1697634045,-0.2692871,-0.5444946,-0.15924072,-12.09375,0.3125,-2.5
703,1697634085,0.26586914,-0.18218994,-0.20440674,-24.828125,-9.21875,4.078125
704,1697634125,0.43115234,0.028259277,0.1437378,-14.90625,-40.265625,-0.828125
705,1697634165,-0.19702148,-1.0947876,-0.5022583,33.640625,-12.84375,-3.4375
706,1697634205,0.453125,-2.0,0.23846436,52.0,0.546875,-39.078125
707,1697634245,0.5280762,-1.7146606,-0.023498535,-26.625,-38.125,3.203125
708,1697634285,-0.4807129,-1.3604126,0.07879639,17.09375,-52.734375,-17.65625
709,1697634325,0.122558594,-1.0169067,0.08343506,-9.125,1.53125,-14.234375
710,1697634365,0.3564453,-0.66729736,0.093688965,-26.609375,-11.765625,12.0
711,1697634405,-0.08935547,-0.23223877,-0.24713135,-52.703125,-2.34375,1.453125
712,1697634445,-0.04296875,0.33392334,0.09051514,-29.3125,30.40625,-5.765625
713,1697634485,-0.005126953,0.17816162,0.042663574,37.421875,5.53125,4.40625
714,1697634525,-0.41210938,-1.859436,-0.88946533,64.125,89.578125,-16.109375
715,1697634565,1.1791992,-2.0,0.39959717,-12.296875,-86.359375,30.90625
716,1697634605,-0.3605957,-1.3831177,-0.022766113,-42.390625,-5.4375,25.15625
717,1697634645,-0.23583984,-0.98443604,0.070495605,17.984375,40.84375,-2.703125
718,1697634685,0.23706055,-0.6602173,-0.09552002,3.625,41.625,25.015625
719,1697634725,0.14648438,-0.3501587,-0.26763916,-12.953125,1.78125,14.28125
720,1697634765,0.23608398,-0.2979126,-0.13092041,-12.640625,-17.953125,3.328125
721,1697634805,0.23608398,-0.007873535,0.19525146,-10.03125,-39.6875,6.734375
722,1697634845,-0.07324219,-0.458313,-0.2588501,45.28125,-8.25,-17.671875
723,1697634885,0.38354492,-2.0,0.37347412,38.9375,40.0625,-45.640625
724,1697634925,0.5280762,-1.9695435,-0.014953613,-51.09375,-64.671875,-10.90625
725,1697634965,-0.36572266,-1.3137817,-0.015686035,24.921875,-25.609375,-9.78125
726,1697635005,-0.1027832,-1.034729,0.17840576,0.65625,8.28125,-13.921875
727,1697635045,0.23632812,-0.58184814,-0.022766113,-20.484375,-1.515625,-0.921875
728,1697635085,0.12158203,-0.36749268,0.031188965,-25.234375,12.65625,-8.453125
729,1697635125,0.046142578,0.07318115,0.026550293,-34.578125,29.71875,-4.4375
730,1697635165,-0.16430664,0.277771,-0.0056762695,20.203125,31.625,9.796875
731,1697635205,-0.107666016,-1.1585083,-0.52838135,68.203125,41.46875,-3.3125
732,1697635245,0.8972168,-2.0,-0.0635376,23.296875,-71.671875,32.96875
733,1697635285,-0.42456055,-1.3030396,-0.012756348,-26.1875,-13.890625,16.390625
734,1697635325,0.08227539,-1.2268677,-0.028869629,1.703125,36.265625,7.25
735,1697635365,0.20483398,-0.71954346,0.047058105,4.328125,10.140625,28.84375
736,1697635405,-0.18383789,-0.4492798,-0.12335205,-15.0,-0.59375,17.546875
737,1697635445,-0.010986328,-0.3821411,-0.15386963,-19.875,-13.765625,-4.640625
738,1697635485,0.27783203,-0.19268799,-0.012512207,-21.328125,-17.4375,-0.84375
739,1697635525,0.17822266,-0.20147705,-0.17706299,22.5,2.0,-4.53125
740,1697635565,-0.029296875,-1.6045532,-0.22442627,50.484375,48.765625,-20.71875
741,1697635605,1.0732422,-2.0,0.36810303,8.59375,-75.15625,-17.03125
742,1697635645,-0.32666016,-1.3416138,-0.20977783,-44.53125,-41.6875,15.171875
743,1697635685,0.0043945312,-1.0903931,-0.027404785,24.6875,-31.234375,-28.75
744,1697635725,0.2019043,-0.9841919,0.15081787,-10.25,-13.9375,0.15625
745,1697635765,-0.014160156,-0.5076294,0.006286621,-36.3125,-12.453125,0.03125
746,1697635805,0.12524414,-0.08380127,-0.21539307,-40.03125,15.28125,-18.421875
747,1697635845,0.09301758,0.26434326,0.20257568,-15.5625,32.796875,2.109375
748,1697635885,-0.15063477,-0.45928955,-0.30474854,63.59375,-21.703125,8.34375
749,1697635925,-0.6118164,-2.0,0.246521,28.28125,82.71875,-55.0625
750,1697635965,0.8220215,-2.0,0.38739014,15.859375,-25.15625,53.734375
751,1697636005,-0.4038086,-0.8135376,-0.15020752,-36.609375,-0.984375,29.40625
752,1697636045,-0.115478516,-0.8447876,0.010925293,-12.1875,32.625,-2.21875
753,1697636085,0.10864258,-0.75909424,-0.097473145,7.5625,28.984375,15.3125
754,1697636125,0.13720703,-0.598938,-0.11480713,-19.0625,1.4375,9.65625
755,1697636165,0.22607422,-0.018371582,-0.20367432,-40.421875,-31.21875,15.40625
756,1697636205,0.15185547,0.29632568,0.10003662,10.21875,-15.578125,5.5
757,1697636245,-0.22167969,-1.3245239,-0.456604,53.1875,37.453125,-19.078125
758,1697636285,0.99902344,-2.0,0.18792725,33.75,-53.734375,-41.890625
759,1697636325,0.0073242188,-1.4365845,-0.31744385,-80.5,-29.953125,3.078125
