,timestamp,accel_x,accel_y,accel_z,gyro_x,gyro_y,gyro_z
0,1697605965,-0.068359375,-0.43414307,0.098083496,-0.71875,23.296875,4.859375
1,1697606005,0.24780273,-0.31695557,0.12249756,4.546875,-3.34375,12.515625
2,1697606045,-0.24243164,-0.56134033,-0.04815674,33.46875,-12.90625,16.890625
3,1697606085,-0.4020996,-1.6655884,0.12200928,14.1875,37.953125,6.34375
4,1697606125,0.40161133,-1.750061,-0.2041626,-22.0625,0.859375,18.546875
5,1697606165,0.14038086,-1.6104126,-0.26641846,-7.265625,17.171875,16.328125
6,1697606205,0.3864746,-2.0,0.010925293,-7.046875,-27.546875,-17.625
7,1697606245,-0.03515625,-2.0,0.08831787,-4.75,-12.5625,-20.71875
8,1697606285,0.20776367,-1.4295044,-0.24835205,-2.34375,18.515625,-7.515625
9,1697606325,0.1394043,-0.73443604,-0.18780518,-16.625,-8.203125,-2.90625
10,1697606365,0.06201172,0.08880615,0.12957764,-45.59375,-29.375,-7.421875
11,1697606405,-0.4765625,0.5236206,-0.019348145,-27.75,4.921875,-4.671875
12,1697606445,-0.0007324219,0.14178467,0.0602417,15.9375,24.21875,-0.78125
13,1697606485,0.06298828,-0.062072754,0.08660889,22.71875,-6.609375,7.3125
14,1697606525,0.064453125,-0.13067627,0.0004272461,9.84375,-7.53125,-5.90625
15,1697606565,0.100097656,-0.43023682,-0.31524658,49.59375,-34.71875,-7.78125
16,1697606605,-0.7297363,-2.0,-0.3069458,-28.78125,22.5625,-7.5625
17,1697606645,-0.037841797,-2.0,0.090270996,23.96875,-39.125,-2.203125
18,1697606685,0.15649414,-1.2959595,0.18719482,12.0,36.671875,58.25
19,1697606725,-0.6933594,-0.73883057,-0.11480713,-9.53125,18.171875,5.953125
20,1697606765,0.16479492,-0.8115845,-0.16778564,9.046875,54.765625,-6.859375
21,1697606805,0.5588379,-0.2432251,-0.13995361,1.8125,0.15625,38.140625
22,1697606845,-0.24731445,-0.43634033,-0.3147583,35.171875,-15.21875,14.65625
23,1697606885,0.022460938,-0.7542114,-0.14654541,50.21875,15.578125,10.359375
24,1697606925,0.5187988,-0.61138916,-0.24542236,44.984375,-15.1875,37.4375
25,1697606965,-0.1171875,-0.6370239,-0.21124268,44.515625,-26.78125,38.78125
26,1697607005,0.1538086,-0.51641846,-0.021057129,41.8125,-1.1875,26.171875
27,1697607045,0.28442383,-0.44537354,-0.29595947,43.828125,-16.0625,41.484375
28,1697607085,0.03149414,-0.6448364,-0.28497314,46.203125,-14.84375,39.6875
29,1697607125,0.20166016,-0.7073364,-0.5420532,37.296875,9.296875,27.421875
30,1697607165,0.47436523,-0.8284302,-0.5444946,37.421875,-2.328125,24.703125
31,1697607205,0.48608398,-0.9368286,-0.7102661,19.9375,9.1875,24.9375
32,1697607245,0.56225586,-0.9331665,-0.6279907,13.609375,-8.40625,17.640625
33,1697607285,0.37158203,-0.78863525,-0.690979,26.8125,-0.25,13.46875
34,1697607325,0.48950195,-0.9663696,-0.6851196,2.703125,12.546875,14.421875
35,1697607365,0.73046875,-0.9224243,-0.69610596,-7.90625,3.171875,14.953125
36,1697607405,0.39404297,-0.7156372,-0.7095337,1.6875,-5.5,-5.265625
37,1697607445,0.51538086,-0.59210205,-0.7251587,-13.59375,-2.640625,-2.359375
38,1697607485,0.5397949,-0.8604126,-0.78692627,-17.90625,11.8125,-2.03125
39,1697607525,0.6491699,-0.8948364,-0.72442627,-22.578125,-11.59375,-8.875
40,1697607565,0.5812988,-1.0977173,-0.7481079,-26.734375,4.0625,-17.65625
41,1697607605,0.59765625,-1.0686646,-0.59747314,-27.328125,-11.203125,-28.21875
42,1697607645,0.40014648,-0.9385376,-0.47296143,-33.015625,-0.703125,-34.4375
43,1697607685,0.46606445,-0.7752075,-0.42315674,-42.359375,-6.40625,-32.875
44,1697607725,0.3088379,-0.72076416,-0.4241333,-49.296875,-7.046875,-35.453125
45,1697607765,0.2685547,-0.6460571,-0.35284424,-50.625,-5.78125,-34.1875
46,1697607805,0.23242188,-0.7354126,-0.29937744,-47.828125,-5.421875,-30.640625
47,1697607845,0.22949219,-0.81134033,-0.2185669,-42.421875,-4.390625,-29.53125
48,1697607885,0.17700195,-0.88116455,-0.1350708,-29.609375,-12.6875,-27.859375
49,1697607925,0.12451172,-1.0147095,-0.055725098,-26.15625,-13.546875,-29.640625
50,1697607965,-0.04272461,-1.0003052,0.13641357,-10.890625,-20.703125,-27.375
51,1697608005,-0.1418457,-1.006897,0.11590576,-11.65625,-9.578125,-13.296875
52,1697608045,-0.18188477,-0.92974854,0.113220215,-5.453125,-4.078125,-12.65625
53,1697608085,-0.07080078,-0.95318604,0.109313965,-7.671875,7.125,-1.234375
54,1697608125,-0.05078125,-0.9031372,0.05657959,2.46875,12.28125,3.15625
55,1697608165,0.111816406,-0.93536377,0.036315918,1.640625,9.65625,2.5625
56,1697608205,-0.020507812,-1.0598755,0.018249512,8.984375,-7.046875,3.65625
57,1697608245,-0.0012207031,-0.8855591,-0.02960205,9.078125,3.984375,-1.953125
58,1697608285,-0.008300781,-0.89801025,-0.055480957,11.390625,-11.984375,15.203125
59,1697608325,-0.03955078,-0.92633057,-0.034484863,20.671875,0.890625,9.796875
60,1697608365,0.030517578,-0.96759033,-0.015686035,14.796875,-5.59375,23.078125
61,1697608405,0.049804688,-0.9326782,-0.05279541,26.015625,3.6875,22.546875
62,1697608445,0.21386719,-0.8735962,-0.16436768,18.3125,1.4375,35.84375
63,1697608485,0.14526367,-0.81207275,-0.1921997,37.5,-5.359375,32.859375
64,1697608525,0.07006836,-0.9241333,-0.1765747,36.734375,-7.203125,38.203125
65,1697608565,0.22094727,-0.9480591,-0.17437744,40.1875,13.609375,43.140625
66,1697608605,0.26513672,-0.9902954,-0.26055908,41.578125,4.515625,48.703125
67,1697608645,0.25854492,-1.104065,-0.2949829,34.5625,16.875,38.265625
68,1697608685,0.56274414,-1.0498657,-0.5327759,21.609375,14.328125,36.984375
69,1697608725,0.7573242,-1.1253052,-0.954895,18.03125,28.796875,27.984375
70,1697608765,1.074707,-1.1262817,-0.9763794,15.875,2.234375,10.421875
71,1697608805,0.59521484,-1.1980591,-0.6721802,-1.40625,-22.53125,-20.453125
72,1697608845,0.39453125,-1.0664673,-0.6951294,-14.890625,-2.015625,-28.53125
73,1697608885,0.5073242,-1.1043091,-0.5869751,-22.921875,-4.90625,-24.734375
74,1697608925,0.50024414,-1.0501099,-0.5557251,-32.09375,5.203125,-34.5625
75,1697608965,0.43408203,-0.91119385,-0.3965454,-34.625,-3.5,-42.1875
76,1697609005,0.34570312,-0.8115845,-0.37921143,-49.046875,-4.828125,-41.421875
77,1697609045,0.2253418,-0.6963501,-0.2510376,-51.28125,-9.984375,-42.15625
78,1697609085,0.12133789,-0.5977173,-0.13116455,-45.265625,-6.390625,-37.90625
79,1697609125,-0.010253906,-0.50567627,-0.06378174,-39.109375,1.375,-33.875
80,1697609165,-0.10083008,-0.4512329,-0.06427002,-35.40625,15.546875,-26.359375
81,1697609205,-0.011474609,-0.32696533,0.07489014,-36.859375,25.484375,-19.0
82,1697609245,-0.03515625,-0.11138916,-0.059631348,-34.0625,14.0,-14.546875
83,1697609285,-0.006591797,-0.2510376,-0.054260254,-17.375,12.046875,-17.109375
84,1697609325,0.083984375,-1.1768188,-0.21392822,-22.0625,-6.546875,-27.265625
85,1697609365,0.04272461,-1.4834595,0.06512451,15.609375,7.890625,0.03125
86,1697609405,-0.041259766,-0.87286377,-0.25274658,7.53125,-12.375,8.0
87,1697609445,-0.14672852,-0.7124634,0.039245605,-4.515625,-7.734375,-13.578125
88,1697609485,0.04663086,-0.75323486,0.06097412,9.0625,15.359375,5.1875
89,1697609525,0.1743164,-0.4824829,-0.08331299,10.53125,4.6875,19.515625
90,1697609565,0.022460938,-0.14093018,0.032165527,20.171875,-1.03125,20.421875
91,1697609605,-0.15576172,-0.74176025,-0.23345947,30.234375,-14.640625,10.984375
92,1697609645,-0.14819336,-2.0,0.30096436,-31.5,59.9375,-18.765625
93,1697609685,0.3935547,-2.0,0.07537842,32.171875,11.65625,-10.609375
94,1697609725,-0.11645508,-2.0,-0.347229,-6.875,0.90625,23.9375
95,1697609765,0.018310547,-1.5366821,-0.23199463,46.4375,-25.0,-11.765625
96,1697609805,0.38476562,-0.78204346,-0.21221924,-16.828125,5.96875,23.734375
97,1697609845,-0.12182617,0.35198975,0.04559326,-43.421875,-36.921875,16.65625
98,1697609885,-0.30273438,0.61932373,-0.097717285,-3.28125,23.125,7.625
99,1697609925,0.20654297,0.00579834,0.06512451,36.5,5.640625,4.765625
100,1697609965,0.013183594,-0.300354,0.13079834,24.8125,-29.265625,-0.953125
101,1697610005,-0.14404297,-0.2029419,0.13665771,-0.015625,-22.34375,-14.515625
102,1697610045,0.0024414062,0.019958496,0.023376465,-5.390625,4.828125,-12.125
103,1697610085,0.1875,-0.28936768,-0.52545166,43.6875,-6.15625,14.75
104,1697610125,-0.32250977,-2.0,-0.9673462,3.359375,33.03125,2.8125
105,1697610165,0.3557129,-1.9785767,0.30462646,90.40625,-67.59375,11.0
106,1697610205,-0.20458984,-1.2781372,-0.7383423,-16.21875,19.703125,56.96875
107,1697610245,0.13623047,-1.3618774,-0.4048462,61.359375,9.671875,-2.390625
108,1697610285,0.6508789,-0.8970337,0.046325684,31.59375,-0.890625,46.078125
109,1697610325,-0.16503906,-0.3262329,-0.31134033,-6.015625,12.765625,57.75
110,1697610365,-0.015136719,-0.28448486,-0.27545166,52.71875,17.484375,31.625
111,1697610405,0.42529297,-0.37945557,-0.2366333,42.25,9.140625,43.5
112,1697610445,0.018310547,-0.19390869,-0.35845947,42.65625,-3.03125,41.640625
113,1697610485,0.13232422,-0.4439087,-0.38482666,64.53125,0.8125,31.109375
114,1697610525,0.3215332,-0.60235596,-0.66290283,47.921875,18.765625,43.625
115,1697610565,0.6921387,-0.6109009,-0.66656494,31.6875,3.1875,43.734375
116,1697610605,0.33789062,-0.8152466,-0.7949829,29.8125,-12.28125,20.84375
117,1697610645,0.79125977,-0.60235596,-0.84942627,17.0625,23.75,24.3125
118,1697610685,0.5444336,-0.67559814,-0.7842407,22.953125,-23.546875,21.296875
119,1697610725,0.39697266,-0.5549927,-1.0115356,16.625,4.65625,-12.203125
120,1697610765,0.765625,-0.616272,-0.8479614,-7.0625,-0.875,4.484375
121,1697610805,0.4736328,-0.55914307,-0.8008423,9.484375,-15.203125,-23.0
122,1697610845,0.5246582,-0.47662354,-0.864563,-18.09375,18.796875,8.375
123,1697610885,0.75341797,-0.35284424,-0.8411255,-12.1875,-7.84375,7.484375
124,1697610925,0.44702148,-0.44537354,-0.8262329,-16.5625,-7.65625,-17.140625
125,1697610965,0.6760254,-0.34796143,-0.78253174,-26.0,-2.015625,-5.859375
126,1697611005,0.52124023,-0.6375122,-0.66534424,-30.421875,-18.203125,-31.609375
127,1697611045,0.43847656,-0.66119385,-0.62872314,-45.1875,-7.65625,-43.4375
128,1697611085,0.5090332,-0.78009033,-0.6609497,-52.953125,-9.703125,-40.578125
129,1697611125,0.5488281,-1.0447388,-0.6668091,-51.578125,1.46875,-36.265625
130,1697611165,0.56811523,-1.2590942,-0.6140747,-51.734375,1.125,-27.8125
131,1697611205,0.45336914,-0.9417114,-0.4487915,-51.171875,-0.46875,-37.203125
132,1697611245,0.21923828,-0.6567993,-0.29229736,-54.1875,-3.390625,-44.671875
133,1697611285,0.06323242,-0.59161377,-0.21685791,-48.796875,2.75,-39.265625
134,1697611325,0.06665039,-0.6433716,-0.07598877,-29.578125,-0.6875,-29.078125
135,1697611365,0.059814453,-1.1426392,-0.15216064,-27.890625,4.921875,-14.359375
136,1697611405,0.2548828,-1.125061,-0.15460205,-33.75,10.8125,-25.171875
137,1697611445,0.29516602,-0.9849243,-0.18658447,-35.421875,-9.171875,-30.96875
138,1697611485,0.04321289,-0.80792236,-0.033996582,-32.8125,-24.28125,-32.4375
139,1697611525,-0.049072266,-0.6951294,0.031188965,-16.765625,-28.109375,-37.453125
140,1697611565,-0.060058594,-0.82110596,0.038024902,-17.828125,-12.515625,-23.9375
141,1697611605,-0.1315918,-0.9495239,0.0060424805,-2.6875,-7.765625,-11.25
142,1697611645,-0.07128906,-1.0874634,0.08099365,-3.09375,-14.921875,-6.296875
143,1697611685,-0.23413086,-0.9795532,0.08831787,-4.0,-10.203125,5.5
144,1697611725,-0.11035156,-0.96051025,0.17181396,3.453125,10.40625,4.453125
145,1697611765,-0.005859375,-0.91192627,0.06829834,-1.078125,8.125,11.859375
146,1697611805,-0.029296875,-0.9248657,0.015319824,9.46875,2.578125,7.140625
147,1697611845,-0.036621094,-0.9644165,0.01727295,10.078125,-4.59375,11.8125
148,1697611885,-0.06762695,-1.029602,0.038024902,21.328125,2.84375,10.546875
149,1697611925,0.0061035156,-0.95147705,0.010192871,11.109375,-6.78125,19.890625
150,1697611965,-0.099365234,-0.8674927,0.028259277,26.734375,-6.0625,19.4375
151,1697612005,0.07299805,-0.9397583,-0.03692627,22.109375,-1.859375,24.59375
152,1697612045,0.08911133,-0.93048096,-0.05987549,36.875,-13.1875,28.109375
153,1697612085,0.1159668,-0.96173096,-0.10308838,28.6875,-11.0625,31.84375
154,1697612125,0.09814453,-0.8821411,-0.1729126,43.734375,9.453125,37.546875
155,1697612165,0.33764648,-0.9624634,-0.2649536,39.1875,0.734375,38.609375
156,1697612205,0.11425781,-0.9780884,-0.25933838,43.34375,7.0,41.546875
157,1697612245,0.38891602,-0.80181885,-0.37408447,35.46875,3.765625,40.875
158,1697612285,0.18481445,-0.8440552,-0.33013916,39.703125,-2.046875,32.5
159,1697612325,0.43554688,-0.8533325,-0.47491455,32.359375,7.953125,34.34375
160,1697612365,0.43676758,-0.7498169,-0.51446533,32.359375,-5.3125,23.171875
161,1697612405,0.46533203,-0.8867798,-0.7515259,28.9375,6.828125,27.21875
162,1697612445,0.873291,-1.0122681,-0.91607666,12.859375,18.0,37.015625
163,1697612485,0.81469727,-1.1216431,-1.0293579,5.796875,6.140625,12.1875
164,1697612525,0.9250488,-1.038147,-0.92633057,-15.875,3.828125,3.734375
165,1697612565,0.6767578,-0.84942627,-0.8118286,-14.078125,-11.203125,-19.90625
166,1697612605,0.48583984,-0.79644775,-0.6970825,-21.015625,8.234375,-15.234375
167,1697612645,0.65112305,-0.9636841,-0.73223877,-32.078125,22.109375,-27.265625
168,1697612685,0.564209,-0.8640747,-0.6709595,-40.96875,-6.25,-43.15625
169,1697612725,0.38842773,-0.6921997,-0.47027588,-37.390625,-1.890625,-45.546875
170,1697612765,0.3239746,-0.69610596,-0.42266846,-43.828125,4.0,-35.90625
171,1697612805,0.24291992,-0.65704346,-0.26153564,-44.65625,-6.453125,-33.5
172,1697612845,0.13623047,-0.59454346,-0.29718018,-57.84375,-15.71875,-38.84375
173,1697612885,0.0031738281,-0.38897705,-0.058898926,-55.828125,-9.5,-46.21875
174,1697612925,-0.063964844,-0.27667236,-0.18170166,-53.828125,2.671875,-34.484375
175,1697612965,0.10131836,-0.253479,0.055114746,-33.5,11.875,-29.65625
176,1697613005,0.110839844,-0.4229126,0.055847168,-35.390625,-7.015625,-22.546875
177,1697613045,-0.1550293,-0.61505127,-0.2276001,-16.421875,-12.46875,-27.125
178,1697613085,0.15673828,-1.2007446,-0.21881104,-21.734375,36.984375,-27.46875
179,1697613125,0.33666992,-1.4651489,-0.1494751,-17.3125,12.71875,7.828125
180,1697613165,0.040283203,-0.65460205,-0.101379395,14.1875,-18.65625,-0.015625
181,1697613205,-0.110839844,-0.07672119,0.17572021,-10.484375,-19.640625,-9.328125
182,1697613245,-0.3630371,-0.15362549,-0.07940674,18.15625,-4.671875,-3.59375
183,1697613285,-0.13232422,-0.70977783,0.034851074,40.921875,31.609375,-2.0625
184,1697613325,-0.08959961,-2.0,0.16522217,-30.125,26.34375,1.96875
185,1697613365,0.103271484,-2.0,0.3505249,-4.671875,3.5,6.03125
186,1697613405,-0.29785156,-1.9666138,-0.27960205,4.828125,7.28125,-16.75
187,1697613445,0.14208984,-1.1951294,-0.3135376,16.546875,15.640625,-8.4375
188,1697613485,0.44433594,-0.29107666,-0.10430908,-18.234375,-24.203125,11.625
189,1697613525,0.099609375,0.3727417,-0.18463135,-27.1875,-53.0625,27.078125
190,1697613565,-0.7019043,0.41448975,0.048034668,21.390625,17.875,27.625
191,1697613605,0.15527344,-0.13336182,0.027526855,37.46875,24.90625,12.03125
192,1697613645,0.49975586,-0.25250244,0.15252686,11.234375,-22.28125,17.515625
193,1697613685,-0.13842773,-0.0095825195,0.0072631836,-11.1875,-73.828125,-6.6875
194,1697613725,-0.39233398,0.08026123,-0.23687744,24.46875,2.796875,-7.796875
195,1697613765,0.47998047,-0.6453247,-0.5930786,78.78125,58.515625,56.28125
196,1697613805,0.52978516,-2.0,-0.7803345,-5.171875,-14.640625,10.421875
197,1697613845,0.33666992,-1.4832153,0.062194824,29.390625,-3.71875,52.5
198,1697613885,-0.016113281,-0.86260986,-0.5942993,18.6875,41.015625,60.4375
199,1697613925,1.2128906,-1.4065552,-0.27105713,60.171875,13.015625,45.765625
200,1697613965,0.19824219,-0.70513916,-0.22320557,24.25,-62.09375,46.046875
201,1697614005,-0.4711914,-0.536438,-0.43389893,48.484375,24.484375,-4.234375
202,1697614045,0.92089844,-0.3814087,-0.39605713,16.59375,39.78125,59.421875
203,1697614085,0.45117188,-0.5130005,-0.538147,53.171875,-35.1875,44.09375
204,1697614125,0.023925781,-0.76885986,-0.32989502,33.984375,-6.390625,28.203125
205,1697614165,0.42236328,-0.87994385,-0.68829346,3.015625,34.921875,34.0
206,1697614205,0.9748535,-0.6914673,-0.59161377,-3.890625,9.703125,17.65625
207,1697614245,0.43774414,-0.76763916,-0.8206177,8.84375,-1.109375,-5.34375
208,1697614285,0.62890625,-0.45025635,-0.5774536,-5.703125,8.25,11.21875
209,1697614325,0.33520508,-0.7300415,-0.6370239,4.859375,-9.625,-9.0
210,1697614365,0.798584,-0.50787354,-0.7258911,-20.890625,18.75,-4.84375
211,1697614405,0.5461426,-0.7341919,-0.51812744,-17.796875,-31.921875,-24.203125
212,1697614445,0.4724121,-0.72735596,-0.6890259,-39.75,12.171875,-28.953125
213,1697614485,0.7097168,-0.6104126,-0.6152954,-31.671875,-8.34375,-18.65625
214,1697614525,0.4008789,-0.8328247,-0.59161377,-28.40625,-19.125,-40.03125
215,1697614565,0.46972656,-1.0108032,-0.4451294,-41.28125,-1.484375,-35.703125
216,1697614605,0.61376953,-1.0974731,-0.44683838,-40.359375,-7.234375,-26.546875
217,1697614645,0.41796875,-1.1445923,-0.3526001,-34.4375,-3.8125,-31.515625
218,1697614685,0.29174805,-1.0029907,-0.2625122,-20.765625,-6.625,-34.625
219,1697614725,0.06982422,-0.8831177,-0.19244385,-26.359375,2.0625,-32.78125
220,1697614765,0.12915039,-0.82159424,-0.1687622,-27.109375,9.875,-29.109375
221,1697614805,0.1887207,-0.8394165,-0.17803955,-28.265625,13.8125,-27.390625
222,1697614845,0.18066406,-0.9216919,-0.19342041,-28.28125,2.109375,-27.03125
223,1697614885,0.08496094,-0.9685669,-0.12994385,-21.09375,-5.984375,-27.828125
224,1697614925,0.011962891,-0.9512329,-0.051818848,-20.390625,-4.515625,-28.09375
225,1697614965,-0.059814453,-0.9771118,-0.037902832,-0.53125,2.28125,-10.46875
226,1697615005,0.0625,-0.7542114,-0.12872314,-5.4375,9.21875,-5.828125
227,1697615045,-0.053466797,-0.850647,-0.085754395,1.578125,12.140625,8.453125
228,1697615085,0.011230469,-0.9541626,-0.03765869,8.046875,7.1875,3.4375
229,1697615125,0.095703125,-0.99005127,-0.09576416,6.53125,2.03125,16.84375
230,1697615165,0.10058594,-0.96173096,-0.07476807,11.828125,-5.40625,15.828125
231,1697615205,0.05444336,-0.9314575,-0.042541504,7.359375,-10.1875,11.515625
232,1697615245,0.060546875,-0.94122314,-0.058654785,13.125,-10.265625,4.03125
233,1697615285,0.056640625,-0.88726807,-0.093811035,20.03125,6.078125,8.484375
234,1697615325,0.2409668,-0.95684814,-0.13433838,25.984375,6.59375,9.28125
235,1697615365,0.020507812,-0.85821533,-0.2000122,30.671875,-0.28125,24.625
236,1697615405,-0.012207031,-0.9595337,-0.24615479,45.75,10.953125,32.21875
237,1697615445,0.18188477,-0.90167236,-0.33770752,36.265625,17.1875,35.421875
238,1697615485,0.15161133,-0.8665161,-0.36431885,52.53125,11.40625,31.421875
239,1697615525,0.28442383,-1.0737915,-0.41680908,45.328125,1.984375,22.953125
240,1697615565,0.31079102,-1.0359497,-0.42242432,27.484375,-4.0625,16.0625
241,1697615605,0.3486328,-0.7398071,-0.71099854,15.828125,3.578125,16.375
242,1697615645,0.44433594,-1.0491333,-0.90802,21.6875,-1.53125,23.671875
243,1697615685,0.6513672,-1.1419067,-0.97857666,4.140625,4.703125,5.96875
244,1697615725,0.55029297,-1.1514282,-0.92974854,-9.34375,3.96875,7.578125
245,1697615765,0.56689453,-1.0193481,-0.75494385,-12.265625,-2.421875,-6.078125
246,1697615805,0.33325195,-0.78302,-0.645813,-12.703125,-20.484375,-24.984375
247,1697615845,0.3293457,-0.94854736,-0.7061157,-24.59375,1.6875,-25.96875
248,1697615885,0.49267578,-0.97662354,-0.5564575,-26.265625,-5.453125,-28.21875
249,1697615925,0.36254883,-0.9661255,-0.48516846,-37.96875,-10.546875,-25.765625
250,1697615965,0.1694336,-0.81573486,-0.40093994,-41.75,-7.03125,-22.96875
251,1697616005,0.18603516,-0.6934204,-0.3255005,-43.234375,3.0,-32.65625
252,1697616045,0.22363281,-0.70391846,-0.17852783,-42.265625,-10.390625,-28.21875
253,1697616085,0.057128906,-0.54815674,-0.09503174,-46.953125,-8.40625,-29.546875
254,1697616125,-0.044677734,-0.3040161,-0.007873535,-48.671875,-1.421875,-29.28125
255,1697616165,-0.0029296875,-0.06011963,-0.19390869,-48.375,12.546875,-20.96875
256,1697616205,0.14355469,-0.07281494,-0.10479736,-13.90625,11.875,-7.359375
257,1697616245,0.14355469,-0.34527588,-0.19293213,2.734375,-3.640625,3.65625
258,1697616285,0.09887695,-0.52130127,-0.17706299,4.296875,0.265625,-0.703125
259,1697616325,0.08520508,-0.44586182,-0.23736572,3.0625,-25.953125,-0.640625
260,1697616365,-0.29541016,-1.154602,-0.21295166,-2.109375,-5.09375,-7.34375
261,1697616405,0.20092773,-1.9419556,0.097839355,-13.171875,19.015625,-27.359375
262,1697616445,0.11621094,-2.0,0.043395996,-27.515625,1.625,5.796875
263,1697616485,0.0034179688,-2.0,-0.22540283,3.875,3.765625,-6.28125
264,1697616525,0.111572266,-2.0,-0.21295166,2.015625,-6.8125,-10.5
265,1697616565,0.20532227,-1.4317017,-0.12530518,20.34375,8.53125,3.625
266,1697616605,0.30810547,-0.58673096,-0.089904785,-21.46875,14.765625,16.5
267,1697616645,-0.24853516,0.5829468,0.01751709,-38.0625,-24.40625,-2.953125
268,1697616685,-0.20043945,0.32928467,0.018737793,-1.875,7.046875,3.515625
269,1697616725,-0.041015625,0.0045776367,0.06878662,29.96875,-3.109375,-4.078125
270,1697616765,-0.014892578,-0.14190674,0.0927124,15.453125,-1.015625,-1.25
271,1697616805,0.064941406,-0.054016113,-0.02960205,-3.359375,-3.296875,-5.9375
272,1697616845,-0.03930664,-0.12042236,-0.30499268,22.65625,-6.546875,0.53125
273,1697616885,-0.0034179688,-0.8777466,-0.46221924,59.34375,10.40625,10.28125
274,1697616925,0.58618164,-2.0,-0.64630127,13.734375,-1.296875,0.546875
275,1697616965,0.3713379,-1.3379517,0.4076538,21.0,-0.734375,59.703125
276,1697617005,-0.85668945,-0.93829346,-0.6824341,-1.984375,7.59375,17.34375
277,1697617045,0.37329102,-0.9429321,-0.2962036,80.78125,24.71875,-4.171875
278,1697617085,0.54907227,-0.88409424,-0.16656494,3.96875,-17.828125,49.796875
279,1697617125,-0.06738281,-0.7769165,-0.28790283,15.125,-6.0625,35.40625
280,1697617165,0.068359375,-0.6721802,-0.27301025,35.453125,-0.046875,25.4375
281,1697617205,0.2475586,-0.772522,-0.38116455,5.359375,-1.734375,21.6875
282,1697617245,0.2800293,-0.9343872,-0.5064087,4.390625,3.65625,1.359375
283,1697617285,0.46923828,-0.9678345,-0.43658447,-10.015625,-10.09375,9.359375
284,1697617325,0.1550293,-0.8447876,-0.6289673,-10.4375,-0.078125,2.53125
285,1697617365,0.5522461,-1.0249634,-0.3862915,-14.171875,-5.125,-3.953125
286,1697617405,0.2536621,-1.0515747,-0.522522,-27.375,3.515625,-7.71875
287,1697617445,0.4580078,-0.9036255,-0.5671997,-33.3125,3.953125,-13.265625
288,1697617485,0.25585938,-1.138977,-0.35528564,-20.1875,-9.078125,-23.21875
289,1697617525,0.28735352,-1.0667114,-0.29766846,-46.296875,-3.859375,-36.484375
290,1697617565,0.17114258,-1.4714966,-0.3640747,-42.140625,0.234375,-21.84375
291,1697617605,0.20629883,-1.5549927,-0.04547119,-24.203125,-0.265625,-20.234375
292,1697617645,-0.048583984,-1.1660767,0.10491943,-20.96875,13.546875,-12.578125
293,1697617685,0.09350586,-0.5964966,-0.023254395,-34.140625,16.765625,-12.53125
294,1697617725,0.051513672,-0.5940552,-0.054748535,-16.671875,6.28125,-12.328125
295,1697617765,0.08618164,-0.81207275,-0.06964111,-8.90625,1.9375,-15.5625
296,1697617805,0.04321289,-1.0300903,-0.026184082,-7.28125,-8.875,-11.75
297,1697617845,-0.009521484,-1.1275024,0.0016479492,-6.28125,1.40625,-9.0625
298,1697617885,0.026367188,-1.0872192,0.10272217,-6.375,-2.234375,-5.84375
299,1697617925,-0.05517578,-0.8789673,0.058044434,-3.234375,-6.328125,1.375
300,1697617965,-0.04296875,-0.784729,-0.006164551,5.65625,2.796875,3.875
301,1697618005,-0.01953125,-0.99786377,0.04949951,13.78125,0.09375,10.71875
302,1697618045,0.056884766,-1.0281372,0.012145996,14.53125,1.578125,8.84375
303,1697618085,0.011230469,-0.9368286,-0.03765869,32.5,10.65625,13.03125
304,1697618125,-0.010498047,-0.87677,-0.08135986,21.328125,13.296875,14.34375
305,1697618165,0.16357422,-1.0025024,-0.047180176,30.453125,1.0625,8.484375
306,1697618205,0.053955078,-0.8855591,-0.07550049,26.390625,1.6875,18.234375
307,1697618245,0.03491211,-0.7727661,-0.19976807,28.984375,-12.234375,27.625
308,1697618285,0.1274414,-0.92510986,-0.1963501,46.375,-5.5625,34.4375
309,1697618325,0.056152344,-0.9944458,-0.27471924,39.125,7.53125,31.28125
310,1697618365,0.28759766,-0.96881104,-0.32696533,42.59375,15.78125,25.640625
311,1697618405,0.23144531,-0.77838135,-0.3587036,34.859375,-3.703125,21.28125
312,1697618445,0.17553711,-0.82403564,-0.36065674,39.96875,-3.453125,18.28125
313,1697618485,0.2265625,-0.8052368,-0.4319458,44.828125,-15.015625,21.828125
314,1697618525,0.31567383,-1.0366821,-0.57940674,39.9375,6.671875,14.796875
315,1697618565,0.44873047,-0.8543091,-0.59625244,25.921875,0.375,8.5
316,1697618605,0.37573242,-0.9336548,-0.9290161,29.265625,5.375,7.453125
317,1697618645,0.545166,-0.9072876,-1.2278442,5.40625,17.859375,13.234375
318,1697618685,0.61279297,-1.133606,-1.0230103,-9.96875,6.375,4.015625
319,1697618725,0.5373535,-1.0435181,-0.892395,-25.171875,-1.578125,-18.796875
320,1697618765,0.47436523,-0.97442627,-0.8464966,-39.671875,-16.5,-33.421875
321,1697618805,0.43188477,-1.0286255,-0.7017212,-44.78125,-35.59375,-43.78125
322,1697618845,0.24389648,-1.0527954,-0.5120239,-39.734375,-12.703125,-34.6875
323,1697618885,0.19580078,-0.78741455,-0.53790283,-42.328125,5.578125,-25.140625
324,1697618925,0.21289062,-0.83795166,-0.3255005,-38.515625,20.796875,-15.0
325,1697618965,0.27172852,-0.84161377,-0.2546997,-41.765625,8.015625,-15.8125
326,1697619005,0.14404297,-0.6345825,-0.23590088,-47.4375,1.875,-23.375
327,1697619045,0.095703125,-0.4915161,-0.07525635,-48.546875,-5.0,-26.71875
328,1697619085,-0.039794922,-0.23736572,-0.059631348,-52.109375,-1.21875,-29.90625
329,1697619125,-0.06323242,-0.061340332,-0.003479004,-53.6875,15.171875,-38.46875
330,1697619165,0.053955078,0.07244873,-0.14752197,-27.28125,17.6875,-18.546875
331,1697619205,0.11987305,-0.2000122,-0.14337158,-0.953125,6.125,0.109375
332,1697619245,0.1652832,-0.48980713,-0.26593018,14.4375,-10.171875,4.984375
333,1697619285,0.037841797,-1.0032349,-0.037902832,13.984375,2.6875,5.046875
334,1697619325,0.026123047,-2.0,-0.009094238,-52.515625,19.015625,8.484375
335,1697619365,-0.0546875,-2.0,0.046813965,21.046875,53.40625,8.78125
336,1697619405,0.009521484,-2.0,-0.46002197,-6.78125,3.21875,-7.15625
337,1697619445,0.37768555,-1.8335571,-0.17803955,11.09375,-4.421875,7.984375
338,1697619485,-0.09350586,-0.944397,-0.2420044,22.671875,7.203125,0.375
339,1697619525,0.0390625,-0.10675049,0.06048584,-16.671875,8.84375,-1.953125
340,1697619565,0.0017089844,0.56707764,-0.024230957,-26.515625,4.03125,13.65625
341,1697619605,-0.061523438,0.29730225,0.039489746,19.15625,7.421875,21.5625
342,1697619645,-0.076171875,-0.19927979,0.101745605,37.796875,3.8125,10.359375
343,1697619685,0.028076172,-0.25177002,0.045837402,18.0,18.09375,-3.359375
344,1697619725,0.08496094,0.04095459,-0.07647705,14.59375,13.421875,-3.359375
345,1697619765,0.08911133,-0.47540283,-0.37139893,29.0,-4.78125,6.828125
346,1697619805,0.15332031,-2.0,-0.6572876,3.3125,-36.828125,1.03125
347,1697619845,0.2355957,-1.5186157,-0.2600708,66.5625,-29.53125,15.53125
348,1697619885,0.13598633,-1.1109009,-0.41290283,64.8125,59.375,29.125
349,1697619925,0.35913086,-0.7637329,-0.68951416,59.625,-6.46875,22.4375
350,1697619965,0.0847168,-0.84503174,-0.23394775,39.65625,-65.71875,29.65625
351,1697620005,0.008300781,-0.8274536,-0.36627197,40.328125,6.984375,37.921875
352,1697620045,0.022949219,-0.53009033,-0.704895,58.1875,16.3125,35.640625
353,1697620085,0.39575195,-0.6602173,-0.6616821,65.390625,28.28125,18.828125
354,1697620125,0.2319336,-1.0288696,-0.5757446,71.203125,10.90625,32.328125
355,1697620165,0.4326172,-0.72003174,-0.9038696,4.90625,10.703125,18.875
356,1697620205,0.34179688,-0.753479,-0.89312744,18.78125,-3.890625,4.78125
357,1697620245,0.38085938,-0.6831665,-0.7871704,11.84375,4.0,-0.828125
358,1697620285,0.23071289,-0.6502075,-0.9014282,-3.890625,-6.734375,-4.625
359,1697620325,0.4248047,-0.6741333,-0.8621216,-7.71875,-6.921875,5.0625
360,1697620365,0.1550293,-0.6453247,-0.723938,-11.84375,-14.5625,-11.46875
361,1697620405,0.2939453,-0.6814575,-0.736145,-28.625,12.140625,5.125
362,1697620445,0.3647461,-0.62286377,-0.70098877,-26.78125,9.765625,-7.96875
363,1697620485,0.35913086,-0.65826416,-0.6387329,-54.390625,6.78125,-15.828125
364,1697620525,0.43041992,-0.7119751,-0.7737427,-50.15625,1.03125,-20.890625
365,1697620565,0.39941406,-0.87506104,-0.82647705,-55.453125,-36.84375,-26.984375
366,1697620605,0.26391602,-1.303772,-0.78302,-42.640625,-41.5,-21.265625
367,1697620645,0.28759766,-1.1558228,-0.45196533,-35.46875,3.71875,-8.515625
368,1697620685,0.13452148,-0.85357666,-0.3184204,-28.484375,11.25,-8.484375
369,1697620725,0.13476562,-0.62457275,-0.18927002,-43.546875,4.4375,-19.21875
370,1697620765,0.15356445,-0.6091919,-0.08795166,-45.3125,-12.203125,-28.5
371,1697620805,0.11694336,-0.77349854,-0.1819458,-36.8125,-32.1875,-19.25
372,1697620845,0.041992188,-1.1091919,-0.12530518,-22.828125,-16.359375,-4.40625
373,1697620885,0.19970703,-1.1167603,-0.11480713,-19.296875,-5.3125,-4.015625
374,1697620925,0.106933594,-0.96051025,-0.11383057,2.0625,7.078125,-3.28125
375,1697620965,0.057617188,-0.82232666,-0.09161377,7.828125,10.453125,-5.890625
376,1697621005,0.17504883,-0.7769165,-0.08404541,17.796875,25.75,-2.21875
377,1697621045,0.1784668,-0.90802,-0.08282471,9.609375,-5.484375,-1.4375
378,1697621085,0.08959961,-0.90631104,-0.12896729,1.390625,-16.75,2.1875
379,1697621125,0.06298828,-0.92022705,-0.19903564,12.296875,-4.09375,12.0625
380,1697621165,0.15454102,-0.90289307,-0.20953369,26.375,11.375,15.171875
381,1697621205,0.1496582,-0.8374634,-0.18023682,33.28125,5.640625,10.875
382,1697621245,0.114746094,-0.9199829,-0.19439697,37.328125,11.84375,16.078125
383,1697621285,0.2644043,-0.80474854,-0.32232666,36.15625,-3.046875,18.28125
384,1697621325,0.040527344,-0.95147705,-0.27398682,46.234375,-0.84375,18.109375
385,1697621365,0.25976562,-0.90167236,-0.41827393,43.765625,7.421875,20.09375
386,1697621405,0.1899414,-0.9221802,-0.4319458,46.421875,0.015625,14.59375
387,1697621445,0.2692871,-0.77056885,-0.440979,39.3125,5.015625,15.34375
388,1697621485,0.24487305,-0.8587036,-0.5496216,39.6875,-2.78125,15.296875
389,1697621525,0.3791504,-0.93218994,-0.7163696,22.875,-8.640625,17.96875
390,1697621565,0.38623047,-1.0244751,-1.135315,35.78125,41.59375,17.515625
391,1697621605,0.5632324,-0.90289307,-1.2529907,5.640625,7.328125,6.671875
392,1697621645,0.5073242,-0.9324341,-1.1633911,-14.828125,0.359375,-1.75
393,1697621685,0.44921875,-0.92144775,-1.0623169,-22.484375,-16.25,-17.359375
394,1697621725,0.36450195,-0.88360596,-0.928772,-20.578125,-3.359375,-22.109375
395,1697621765,0.37670898,-0.8543091,-0.82037354,-33.28125,-24.578125,-18.875
396,1697621805,0.23144531,-0.9421997,-0.66363525,-47.21875,-24.609375,-18.703125
397,1697621845,0.27978516,-0.9019165,-0.54766846,-57.03125,-9.375,-20.296875
398,1697621885,0.18920898,-0.75665283,-0.39971924,-51.125,2.375,-25.0
399,1697621925,0.19824219,-0.61846924,-0.23468018,-47.390625,10.375,-29.15625
400,1697621965,0.1003418,-0.5654907,-0.18951416,-47.609375,3.1875,-29.671875
401,1697622005,0.059326172,-0.48468018,-0.097229004,-52.171875,-5.5,-25.09375
402,1697622045,0.10473633,-0.47052002,-0.19342041,-57.125,-17.4375,-20.0625
403,1697622085,-0.075927734,-0.32525635,0.05682373,-50.40625,-9.515625,-23.890625
404,1697622125,0.0009765625,-0.11016846,-0.11968994,-41.625,3.578125,-27.53125
405,1697622165,0.04248047,-0.32452393,-0.159729,-19.171875,-1.359375,-11.921875
406,1697622205,0.1171875,-0.75738525,-0.10455322,-0.578125,7.640625,11.59375
407,1697622245,0.103515625,-0.47711182,-0.32989502,9.734375,-0.1875,13.359375
408,1697622285,-0.11254883,-0.61553955,-0.11993408,45.828125,46.53125,4.203125
409,1697622325,-0.057373047,-1.6912231,0.030944824,9.8125,93.671875,6.15625
410,1697622365,0.2133789,-2.0,-0.17681885,5.578125,50.625,10.40625
411,1697622405,0.22143555,-2.0,-0.26226807,-49.265625,-46.015625,2.53125
412,1697622445,0.07495117,-2.0,-0.48565674,4.390625,-4.03125,8.171875
413,1697622485,0.047607422,-1.5186157,-0.32305908,13.0625,6.890625,-11.03125
414,1697622525,0.12963867,-0.78302,-0.348938,-11.0,-0.296875,-8.515625
415,1697622565,0.20019531,-0.032043457,0.13421631,-33.609375,-39.671875,-6.015625
416,1697622605,-0.05078125,0.4142456,-0.14727783,-27.71875,-17.828125,5.125
417,1697622645,-0.09716797,0.25604248,-0.0178833,7.109375,-11.25,11.515625
418,1697622685,-0.0625,-0.22662354,0.061706543,19.015625,-13.5,-1.328125
419,1697622725,0.032226562,-0.12823486,0.08270264,-2.515625,-14.625,-14.40625
420,1697622765,0.036376953,0.016052246,0.008972168,14.015625,-11.9375,-18.078125
421,1697622805,-0.056884766,-0.39556885,-0.32403564,47.59375,-23.234375,1.140625
422,1697622845,-0.19360352,-2.0,-0.6487427,-28.796875,-35.1875,28.953125
423,1697622885,0.13085938,-1.7153931,0.06561279,106.53125,24.90625,44.09375
424,1697622925,0.042236328,-1.1572876,-0.6165161,61.78125,83.25,17.71875
425,1697622965,0.44750977,-1.0327759,-0.55474854,35.296875,6.4375,29.734375
426,1697623005,0.088378906,-0.8242798,-0.21539307,30.375,-48.15625,27.71875
427,1697623045,-0.041992188,-0.5557251,-0.26324463,10.375,10.828125,35.734375
428,1697623085,0.14672852,-0.585022,-0.503479,48.8125,35.625,36.578125
429,1697623125,0.27954102,-0.5479126,-0.35821533,45.15625,21.953125,24.53125
430,1697623165,0.14648438,-0.67803955,-0.4985962,40.359375,13.609375,15.859375
431,1697623205,0.16870117,-0.7522583,-0.51690674,18.734375,11.09375,5.671875
432,1697623245,0.17895508,-0.7642212,-0.7293091,15.890625,20.34375,0.546875
433,1697623285,0.22045898,-0.7005005,-0.6646118,-11.046875,16.359375,-1.28125
434,1697623325,0.22875977,-0.7493286,-0.71588135,-5.703125,11.28125,-5.421875
435,1697623365,0.22949219,-0.6362915,-0.65704346,-20.546875,-4.375,-1.640625
436,1697623405,0.19140625,-0.7407837,-0.6253052,-10.296875,3.265625,-9.96875
437,1697623445,0.26293945,-0.91851807,-0.6983032,-30.640625,-15.9375,-14.703125
438,1697623485,0.2109375,-1.295227,-0.8123169,-27.953125,-15.765625,-28.703125
439,1697623525,0.27783203,-1.8128052,-1.3457642,-48.703125,-34.875,-5.21875
440,1697623565,0.32080078,-1.4649048,-0.6572876,-14.875,-10.125,1.90625
441,1697623605,0.1538086,-0.91778564,-0.074035645,-39.828125,16.3125,-7.390625
442,1697623645,0.22827148,-0.47003174,-0.054504395,-70.4375,-24.5625,-15.84375
443,1697623685,0.1015625,-0.44415283,-0.12384033,-55.265625,-58.90625,-21.328125
444,1697623725,-0.114746094,-0.6502075,-0.13555908,-32.796875,-60.328125,-30.09375
445,1697623765,0.004638672,-1.1030884,-0.09552002,-13.703125,-34.171875,-22.09375
446,1697623805,0.14892578,-1.3823853,-0.20172119,-14.75,-8.625,5.078125
447,1697623845,0.1887207,-1.1856079,0.020446777,-2.125,-4.265625,-5.71875
448,1697623885,0.04711914,-0.7764282,0.019226074,-11.78125,-13.890625,-10.78125
449,1697623925,-0.03515625,-0.6878052,-0.069885254,-2.828125,-18.140625,-24.0625
450,1697623965,-0.05029297,-0.9260864,0.005554199,8.828125,-13.078125,-11.46875
451,1697624005,0.08325195,-1.0379028,-0.1638794,7.265625,2.25,9.0625
452,1697624045,0.041992188,-1.0090942,-0.08013916,8.359375,-9.96875,1.015625
453,1697624085,-0.07739258,-0.9807739,-0.04840088,8.953125,-4.828125,6.890625
454,1697624125,0.03857422,-0.8814087,-0.020568848,12.359375,-1.0625,9.96875
455,1697624165,-0.040283203,-0.9805298,-0.089904785,17.921875,-1.03125,13.0
456,1697624205,0.107910156,-0.94000244,-0.15045166,21.03125,5.921875,25.90625
457,1697624245,0.08569336,-0.95513916,-0.124572754,25.328125,4.703125,27.203125
458,1697624285,0.23730469,-0.9429321,-0.17755127,22.75,0.203125,23.4375
459,1697624325,0.20922852,-0.8682251,-0.2119751,32.546875,-12.453125,26.34375
460,1697624365,0.16015625,-0.77667236,-0.26617432,32.859375,-5.828125,19.34375
461,1697624405,0.26782227,-0.9036255,-0.36871338,89.515625,60.65625,23.71875
462,1697624445,0.12060547,-0.60943604,-0.34283447,59.140625,10.46875,24.125
463,1697624485,0.2607422,-1.0879517,-0.64923096,59.171875,27.09375,37.625
464,1697624525,0.6928711,-1.1253052,-1.0974731,18.21875,18.765625,51.953125
465,1697624565,0.7758789,-1.098938,-1.1790161,9.015625,0.46875,17.375
466,1697624605,0.4716797,-1.0339966,-0.93463135,18.328125,6.640625,-10.609375
467,1697624645,0.6411133,-0.80670166,-0.95025635,-15.46875,5.359375,-6.453125
468,1697624685,0.4638672,-0.8584595,-0.84991455,-27.203125,-21.859375,-9.984375
469,1697624725,0.28344727,-0.94195557,-0.7149048,-28.25,-8.9375,-14.90625
470,1697624765,0.33496094,-0.9043579,-0.6421509,-32.953125,9.78125,-14.890625
471,1697624805,0.20483398,-0.97003174,-0.53009033,-40.28125,1.75,-18.015625
472,1697624845,0.2631836,-0.8101196,-0.44488525,-52.15625,-0.59375,-22.609375
473,1697624885,0.30078125,-0.66973877,-0.3706665,-45.125,11.09375,-24.359375
474,1697624925,0.21704102,-0.6211548,-0.28277588,-37.171875,11.03125,-29.015625
475,1697624965,0.14794922,-0.48858643,-0.2564087,-49.171875,8.46875,-24.375
476,1697625005,0.109375,-0.3982544,-0.19244385,-59.515625,-14.171875,-23.734375
477,1697625045,-0.005126953,-0.31036377,-0.012512207,-57.625,-7.390625,-30.5625
478,1697625085,-0.13500977,-0.29205322,-0.06036377,-53.640625,2.921875,-34.515625
479,1697625125,0.014404297,-0.50738525,-0.034240723,-32.328125,12.09375,-31.5625
480,1697625165,0.0546875,-0.944397,-0.19439697,-23.453125,14.03125,-12.28125
481,1697625205,0.21801758,-0.66778564,-0.13189697,10.375,23.4375,-6.734375
482,1697625245,0.22973633,-0.30523682,-0.20025635,-5.3125,-19.328125,5.328125
483,1697625285,-0.34838867,-0.44415283,-0.047668457,22.296875,53.28125,10.9375
484,1697625325,-0.05078125,-1.2896118,0.011657715,51.0,108.796875,3.96875
485,1697625365,0.053955078,-2.0,-0.28497314,11.453125,31.953125,3.953125
486,1697625405,0.09741211,-2.0,-0.19244385,-46.75,-63.578125,5.65625
487,1697625445,-0.019042969,-2.0,-0.2913208,-6.71875,-0.75,7.140625
488,1697625485,0.13623047,-1.5779419,-0.32476807,-5.34375,5.46875,-9.796875
489,1697625525,0.07006836,-0.86798096,-0.22564697,-3.5,1.84375,-2.8125
490,1697625565,0.16577148,-0.074279785,0.03387451,-38.390625,-18.65625,10.453125
491,1697625605,-0.21289062,0.4550171,-0.078186035,-44.75,-49.953125,4.3125
492,1697625645,-0.10839844,0.3546753,-0.05206299,9.953125,-28.421875,8.5625
493,1697625685,-0.09643555,-0.08721924,0.0026245117,25.84375,-17.09375,12.296875
494,1697625725,0.0063476562,-0.22320557,0.08856201,8.75,-9.578125,-7.15625
495,1697625765,0.092041016,-0.07598877,-0.016906738,20.703125,-3.203125,-15.09375
496,1697625805,0.01977539,-0.42608643,-0.2366333,63.65625,-1.140625,8.375
497,1697625845,-0.13623047,-2.0,-0.83013916,-17.890625,6.734375,46.0
498,1697625885,0.39160156,-1.9602661,0.1852417,90.5,49.375,42.609375
499,1697625925,-0.2614746,-1.333313,-0.49908447,43.09375,40.03125,2.109375
500,1697625965,0.4675293,-1.0525513,-0.5276489,21.421875,-4.171875,8.671875
501,1697626005,0.09716797,-1.0320435,-0.09112549,17.703125,-36.0,13.703125
502,1697626045,-0.16723633,-0.5335083,-0.22515869,-18.046875,-11.25,5.90625
503,1697626085,0.23095703,-0.29278564,-0.31085205,-6.75,-7.5625,22.765625
504,1697626125,-0.024414062,-0.28375244,0.008972168,33.609375,0.421875,19.765625
505,1697626165,-0.059326172,-0.38482666,-0.20343018,25.171875,10.921875,29.21875
506,1697626205,0.18676758,-0.54278564,-0.16705322,29.75,23.96875,43.78125
507,1697626245,0.060058594,-1.1682739,-0.51690674,23.125,24.25,6.671875
508,1697626285,0.34155273,-0.894104,-0.58917236,5.296875,54.3125,-9.5
509,1697626325,0.2446289,-0.94122314,-0.6621704,-16.046875,13.546875,-7.984375
510,1697626365,0.2746582,-1.0317993,-0.7151489,-21.828125,17.671875,-6.203125
511,1697626405,0.45239258,-1.8120728,-0.9319458,-36.6875,-3.6875,-18.875
512,1697626445,0.30273438,-2.0,-1.050354,-36.25,-55.71875,-14.484375
513,1697626485,-0.084228516,-1.3660278,-0.1951294,29.71875,26.90625,-7.90625
514,1697626525,-0.0107421875,-0.89849854,0.12542725,-51.671875,49.71875,15.46875
515,1697626565,0.3383789,-0.40216064,-0.14605713,-74.453125,-22.109375,4.203125
516,1697626605,0.00390625,-0.29107666,-0.1807251,-16.1875,-31.734375,-19.515625
517,1697626645,-0.049316406,-0.7263794,-0.18389893,6.515625,-19.75,-26.21875
518,1697626685,-0.013916016,-1.3230591,-0.24591064,16.59375,-0.875,-24.75
519,1697626725,0.1821289,-1.4048462,-0.35284424,-0.53125,0.34375,-3.953125
520,1697626765,0.028808594,-1.1072388,0.0028686523,-7.703125,-11.09375,-12.4375
521,1697626805,-0.075683594,-0.7788696,-0.11480713,-12.515625,-5.671875,1.28125
522,1697626845,0.12841797,-0.69317627,-0.23101807,-7.34375,-17.515625,0.921875
523,1697626885,-0.03491211,-0.8843384,-0.12799072,8.375,-13.296875,2.90625
524,1697626925,0.012451172,-1.1062622,-0.11529541,3.03125,-15.15625,-6.09375
525,1697626965,-0.045654297,-1.0545044,-0.16339111,7.46875,-0.171875,-3.515625
526,1697627005,0.032958984,-0.9546509,-0.17681885,16.375,15.21875,6.75
527,1697627045,0.12207031,-0.8418579,-0.18145752,13.3125,1.78125,9.875
528,1697627085,0.001953125,-0.8833618,-0.17852783,16.3125,-8.265625,2.953125
529,1697627125,0.021484375,-0.94073486,-0.22296143,17.890625,-6.265625,9.296875
530,1697627165,-0.021972656,-0.9819946,-0.22418213,24.03125,-2.546875,7.71875
531,1697627205,0.061035156,-0.9158325,-0.31329346,24.78125,10.28125,13.59375
532,1697627245,0.068359375,-0.881897,-0.30767822,33.453125,13.84375,12.59375
533,1697627285,0.021484375,-0.81451416,-0.34527588,34.421875,19.96875,21.984375
534,1697627325,0.12939453,-0.76446533,-0.3706665,30.984375,-2.015625,21.671875
535,1697627365,0.12939453,-0.815979,-0.44732666,41.53125,1.5625,24.109375
536,1697627405,0.06298828,-0.77349854,-0.4710083,47.328125,-1.53125,21.15625
537,1697627445,0.21362305,-0.85943604,-0.46368408,52.578125,4.453125,23.875
538,1697627485,0.11645508,-0.67803955,-0.7073364,46.65625,-5.59375,13.640625
539,1697627525,0.18774414,-0.76763916,-0.72979736,55.40625,14.421875,3.40625
540,1697627565,0.091552734,-0.83551025,-0.87872314,49.703125,56.375,1.125
541,1697627605,0.6135254,-0.71466064,-1.5501099,18.84375,34.53125,3.890625
542,1697627645,0.16967773,-0.70880127,-1.2026978,15.65625,-1.03125,-2.1875
543,1697627685,0.2565918,-0.8748169,-1.3291626,-7.46875,-33.640625,-11.828125
544,1697627725,0.018310547,-0.69317627,-1.1763306,-7.875,-18.125,-8.828125
545,1697627765,0.32128906,-0.77593994,-1.0864868,-23.15625,0.890625,0.890625
546,1697627805,0.23632812,-0.8399048,-0.9741821,-44.328125,-10.546875,-4.140625
547,1697627845,0.24829102,-0.7366333,-0.9104614,-49.96875,-11.1875,-12.390625
548,1697627885,0.1953125,-0.7385864,-0.6760864,-51.453125,-15.921875,-16.25
549,1697627925,0.107910156,-0.7595825,-0.59576416,-61.890625,-14.15625,-17.125
550,1697627965,0.12963867,-0.59576416,-0.45855713,-62.296875,-5.171875,-19.59375
551,1697628005,0.1796875,-0.60943604,-0.3821411,-59.5625,-11.9375,-10.5625
552,1697628045,0.053710938,-0.49420166,-0.25616455,-55.6875,-23.015625,-11.78125
553,1697628085,-0.016357422,-0.51226807,-0.20977783,-47.15625,-9.984375,-14.421875
554,1697628125,0.060791016,-0.4505005,-0.10992432,-43.140625,9.9375,-16.453125
555,1697628165,0.07299805,-0.28277588,-0.11212158,-50.75,6.078125,-20.34375
556,1697628205,0.047851562,-0.20172119,-0.1560669,-51.984375,-14.953125,-21.6875
557,1697628245,0.11352539,-0.506897,-0.22711182,-21.96875,-21.640625,-3.015625
558,1697628285,-0.030761719,-0.7529907,-0.21368408,-6.4375,-23.984375,10.921875
559,1697628325,-0.033935547,-0.22076416,-0.16607666,-0.359375,5.21875,6.734375
560,1697628365,-0.18603516,-0.5274048,0.08392334,24.53125,26.5625,1.921875
561,1697628405,-0.18188477,-1.6304321,-0.19415283,32.546875,104.484375,-8.921875
562,1697628445,0.6125488,-2.0,-0.52227783,-8.25,27.703125,-8.546875
563,1697628485,0.15820312,-2.0,-0.4331665,-19.3125,-9.4375,9.78125
564,1697628525,0.04272461,-2.0,-0.5935669,-27.5,-28.15625,4.234375
565,1697628565,0.08325195,-1.5142212,-0.36602783,26.984375,16.5,9.671875
566,1697628605,-0.033203125,-0.62164307,-0.14141846,-10.703125,28.625,5.078125
567,1697628645,0.2548828,0.19940186,0.11956787,-44.671875,-10.4375,1.140625
568,1697628685,-0.14990234,0.7262573,-0.15264893,-25.5625,-32.109375,11.890625
569,1697628725,-0.12792969,0.0993042,0.001159668,37.734375,-8.703125,13.484375
570,1697628765,-0.001953125,-0.42364502,0.09832764,33.671875,3.96875,-3.890625
571,1697628805,0.12036133,-0.08135986,-0.009094238,-21.921875,-25.84375,-14.609375
572,1697628845,-0.107177734,0.23577881,0.03778076,-9.65625,-31.109375,-0.703125
573,1697628885,-0.23046875,-0.40460205,-0.45074463,63.765625,-7.828125,6.1875
574,1697628925,0.5036621,-2.0,-1.0479126,77.84375,92.25,37.859375
575,1697628965,0.56811523,-1.8972778,-0.19073486,106.015625,-20.71875,-4.15625
576,1697629005,-0.13330078,-0.9180298,-0.5095825,40.90625,69.359375,28.078125
577,1697629045,0.2175293,-0.51690674,-0.66192627,30.046875,37.015625,36.984375
578,1697629085,0.30615234,-0.66070557,-0.49249268,49.703125,-31.234375,15.96875
579,1697629125,0.048828125,-0.6560669,-0.7295532,30.015625,-24.859375,29.828125
580,1697629165,-0.04711914,-0.5142212,-0.58135986,48.25,15.65625,16.15625
581,1697629205,0.08886719,-0.98394775,-0.76104736,75.203125,-4.640625,-8.4375
582,1697629245,0.26708984,-0.89508057,-0.6724243,40.3125,36.859375,-0.875
583,1697629285,0.41845703,-0.76226807,-0.9758911,25.03125,6.84375,11.03125
584,1697629325,0.13427734,-0.66485596,-0.91485596,0.4375,-19.3125,10.25
585,1697629365,0.2109375,-0.76568604,-0.98028564,-6.265625,-14.109375,14.515625
586,1697629405,0.12158203,-0.73638916,-1.0808716,-4.28125,-22.28125,14.34375
587,1697629445,0.29638672,-0.91119385,-1.0090942,3.828125,13.390625,-7.21875
588,1697629485,0.24072266,-0.7600708,-1.0093384,-11.328125,5.90625,0.140625
589,1697629525,0.23706055,-0.7258911,-0.86383057,-8.390625,13.640625,-0.046875
590,1697629565,0.33398438,-0.5557251,-0.7620239,-31.890625,0.171875,3.0
591,1697629605,0.17407227,-0.4656372,-0.6663208,-41.390625,-12.96875,-15.15625
592,1697629645,0.033203125,-0.42144775,-0.44903564,-36.4375,-13.5625,-24.953125
593,1697629685,0.118652344,-0.3809204,-0.40924072,-41.28125,0.28125,-23.1875
594,1697629725,0.06201172,-0.40997314,-0.3850708,-43.4375,-7.84375,-22.890625
595,1697629765,0.07495117,-0.52667236,-0.44708252,-47.78125,3.171875,-19.875
596,1697629805,0.1508789,-0.8135376,-0.6680298,-50.484375,-3.546875,-11.6875
597,1697629845,0.30200195,-1.2705688,-0.88946533,-35.75,-15.375,-1.75
598,1697629885,0.2824707,-1.9092407,-0.80303955,-24.65625,-36.796875,11.171875
599,1697629925,0.27441406,-1.2825317,-0.33746338,11.90625,17.6875,-8.09375
600,1697629965,0.07885742,-0.7756958,-0.23150635,-26.421875,2.703125,-14.3125
601,1697630005,0.17456055,-0.45587158,-0.18414307,-41.46875,-23.796875,-11.984375
602,1697630045,-0.10229492,-0.5647583,-0.04083252,-30.671875,-35.921875,-18.015625
603,1697630085,-0.16381836,-0.98321533,-0.09576416,-11.34375,-8.75,-19.640625
604,1697630125,0.103271484,-1.3352661,-0.36724854,-14.1875,-6.859375,-15.0
605,1697630165,0.15234375,-1.1367798,-0.34674072,-11.953125,-11.765625,-8.90625
606,1697630205,-0.045410156,-0.8501587,-0.1572876,-10.953125,2.96875,-13.96875
607,1697630245,0.038085938,-0.8303833,-0.077941895,-10.578125,26.234375,-13.59375
608,1697630285,0.12524414,-0.7871704,-0.1585083,-21.125,-11.546875,-0.546875
609,1697630325,-0.0031738281,-0.9104614,-0.12677002,-14.8125,-40.15625,13.671875
610,1697630365,-0.0390625,-1.0061646,-0.08502197,-9.515625,-22.21875,15.8125
611,1697630405,0.029052734,-0.9795532,-0.11798096,8.34375,-4.953125,11.765625
612,1697630445,0.09277344,-0.85528564,-0.17193604,18.078125,6.390625,9.453125
613,1697630485,0.07739258,-0.81256104,-0.16607666,21.296875,4.5,8.9375
614,1697630525,0.10083008,-0.8718872,-0.12188721,19.8125,0.0,12.28125
615,1697630565,0.08129883,-0.9104614,-0.11480713,22.578125,-5.140625,16.875
616,1697630605,0.13330078,-0.960022,-0.19415283,29.78125,-3.203125,25.65625
617,1697630645,0.057861328,-0.9192505,-0.2625122,40.453125,8.046875,27.3125
618,1697630685,0.12890625,-0.92266846,-0.2637329,49.890625,16.890625,29.953125
619,1697630725,0.19262695,-0.9541626,-0.34039307,41.34375,-6.5625,31.28125
620,1697630765,0.17333984,-1.1799927,-0.4212036,28.46875,-17.96875,31.59375
621,1697630805,0.59936523,-1.2737427,-0.66729736,19.0625,7.3125,31.640625
622,1697630845,0.67089844,-1.1253052,-1.0508423,9.53125,-1.640625,9.78125
623,1697630885,0.5263672,-1.0662231,-0.77716064,-8.078125,-6.40625,-14.734375
624,1697630925,0.48266602,-1.1121216,-0.71221924,-9.296875,12.375,-22.828125
625,1697630965,0.4921875,-1.0076294,-0.77130127,-19.28125,-8.078125,-14.390625
626,1697631005,0.34716797,-1.0603638,-0.5913696,-18.71875,-15.21875,-11.78125
627,1697631045,0.31201172,-1.0454712,-0.5635376,-29.984375,3.84375,-14.734375
628,1697631085,0.30541992,-0.97320557,-0.46832275,-28.875,20.671875,-23.78125
629,1697631125,0.3305664,-0.84942627,-0.37799072,-29.25,26.40625,-20.1875
630,1697631165,0.18383789,-0.6819458,-0.2630005,-39.34375,9.171875,-19.78125
631,1697631205,0.21386719,-0.57232666,-0.24176025,-47.34375,-4.46875,-18.375
632,1697631245,0.044189453,-0.48516846,-0.22955322,-47.25,-11.875,-15.375
633,1697631285,-0.06762695,-0.40924072,-0.04498291,-47.15625,-14.140625,-26.34375
634,1697631325,-0.083740234,-0.38604736,0.08929443,-38.921875,11.046875,-30.625
635,1697631365,-0.107666016,-0.18756104,-0.05303955,-41.453125,7.484375,-21.125
636,1697631405,0.072753906,-0.38311768,-0.14239502,-20.5,-22.015625,-4.296875
637,1697631445,0.07397461,-0.8562622,-0.27423096,5.9375,-43.40625,2.3125
638,1697631485,0.19018555,-0.4788208,-0.1765747,25.03125,-27.640625,-1.6875
639,1697631525,-0.21118164,-0.5108032,0.050231934,21.40625,19.46875,-18.828125
640,1697631565,-0.26489258,-1.4505005,-0.07232666,16.15625,89.734375,-21.78125
641,1697631605,0.17041016,-2.0,-0.3826294,-13.46875,37.546875,10.34375
642,1697631645,0.092041016,-2.0,-0.07989502,-19.203125,-30.484375,31.9375
643,1697631685,-0.0026855469,-1.4666138,-0.5198364,-0.125,6.625,12.25
644,1697631725,0.045898438,-0.78131104,-0.28790283,0.9375,7.640625,-4.265625
645,1697631765,0.15283203,-0.12872314,-0.011047363,-2.390625,12.796875,13.8125
646,1697631805,-0.09375,0.37005615,0.15203857,-8.046875,16.453125,8.9375
647,1697631845,-0.038330078,0.3156128,-0.010314941,20.21875,9.28125,14.234375
648,1697631885,-0.026611328,-0.13092041,0.058776855,35.421875,2.828125,13.34375
649,1697631925,-0.04736328,-0.24102783,0.11444092,18.03125,10.46875,-2.359375
650,1697631965,0.0009765625,-0.08502197,-0.08477783,27.6875,11.765625,-15.203125
651,1697632005,0.048583984,-0.4656372,-0.39727783,54.53125,39.46875,0.15625
652,1697632045,0.22851562,-2.0,-0.7979126,-5.703125,-25.390625,25.328125
653,1697632085,0.2097168,-1.6904907,-0.6729126,68.8125,53.109375,4.953125
654,1697632125,0.21118164,-0.90045166,-0.60601807,35.78125,22.578125,19.015625
655,1697632165,0.15844727,-0.94000244,-0.43902588,43.859375,-24.390625,-2.390625
656,1697632205,0.13671875,-0.96661377,-0.37921143,18.765625,-32.390625,30.8125
657,1697632245,0.08496094,-0.57159424,-0.6448364,27.171875,-17.4375,26.0
658,1697632285,0.043701172,-0.73638916,-0.59991455,37.5,-34.453125,5.34375
659,1697632325,0.13720703,-0.85040283,-0.35406494,41.15625,-33.578125,0.078125
660,1697632365,-0.17285156,-0.82525635,-0.56744385,10.65625,24.34375,13.203125
661,1697632405,0.44433594,-0.7383423,-0.706604,-6.375,22.265625,-0.578125
662,1697632445,0.115722656,-0.7127075,-0.53741455,-13.0,-9.234375,-0.375
663,1697632485,0.068847656,-0.7168579,-0.5706177,-19.734375,8.109375,-0.78125
664,1697632525,0.25830078,-0.76568604,-0.69366455,-27.03125,11.859375,10.46875
665,1697632565,0.17456055,-0.9990845,-0.59698486,-40.25,-6.53125,0.96875
666,1697632605,0.39038086,-1.4597778,-0.7515259,-36.234375,18.234375,2.703125
667,1697632645,0.59228516,-1.8213501,-1.0840454,-44.28125,-18.234375,-1.0625
668,1697632685,0.109375,-1.3823853,-0.3423462,-7.625,-19.890625,-35.09375
669,1697632725,0.07543945,-0.93341064,-0.0134887695,-24.59375,11.96875,-23.296875
670,1697632765,0.21826172,-0.5088501,-0.16558838,-48.546875,-4.1875,-15.171875
671,1697632805,0.07324219,-0.4890747,-0.031311035,-36.90625,-27.15625,-17.484375
672,1697632845,0.025390625,-0.72320557,-0.117004395,-19.46875,-20.25,-21.96875
673,1697632885,-0.009765625,-1.1604614,-0.22418213,-7.015625,-19.609375,-19.671875
674,1697632925,0.010986328,-1.234436,-0.39337158,-16.46875,-7.15625,4.453125
675,1697632965,-0.016357422,-1.0984497,-0.15655518,-1.453125,0.34375,-11.4375
676,1697633005,-0.022705078,-0.8789673,0.07293701,-5.890625,4.15625,-12.796875
677,1697633045,0.023925781,-0.81427,-0.070373535,-13.203125,-4.046875,-7.140625
678,1697633085,-0.01928711,-0.9439087,-0.10650635,-12.328125,-28.640625,1.09375
679,1697633125,-0.017578125,-0.9817505,-0.15435791,-12.203125,-28.75,6.34375
680,1697633165,-0.008300781,-1.029602,-0.121398926,-1.015625,-12.5,-0.625
681,1697633205,-0.022216797,-0.9697876,-0.054992676,7.234375,0.203125,-1.6875
682,1697633245,-0.02709961,-0.9421997,-0.0725708,17.640625,11.046875,2.234375
683,1697633285,0.07055664,-0.91534424,-0.08648682,13.3125,1.59375,9.21875
684,1697633325,0.040771484,-0.9595337,-0.11871338,15.03125,-3.875,12.671875
685,1697633365,0.0024414062,-0.94854736,-0.15533447,17.953125,-2.953125,13.75
686,1697633405,0.0061035156,-0.92559814,-0.18048096,37.21875,31.28125,17.46875
687,1697633445,0.16064453,-0.92803955,-0.25323486,31.46875,34.3125,22.421875
688,1697633485,0.041748047,-0.7671509,-0.2720337,38.703125,10.90625,13.6875
689,1697633525,0.07714844,-0.7317505,-0.25860596,43.921875,5.734375,21.6875
690,1697633565,0.048095703,-0.8814087,-0.33917236,57.296875,3.21875,17.453125
691,1697633605,0.14013672,-0.91290283,-0.5093384,55.96875,17.140625,19.109375
692,1697633645,0.119628906,-1.0254517,-0.67315674,42.375,25.359375,20.453125
693,1697633685,0.38671875,-1.1968384,-0.8406372,35.375,13.296875,21.203125
694,1697633725,0.25439453,-1.0698853,-1.1448364,10.140625,-0.828125,13.46875
695,1697633765,0.35424805,-1.0283813,-1.065979,-7.5,-9.296875,6.09375
696,1697633805,0.2915039,-0.9380493,-0.88116455,-0.828125,-1.84375,-9.96875
697,1697633845,0.36767578,-0.94317627,-0.95196533,-9.390625,-12.453125,-4.625
698,1697633885,0.25683594,-0.9714966,-0.77008057,-8.59375,-21.296875,-9.234375
699,1697633925,0.28051758,-1.006897,-0.7905884,-24.203125,-27.71875,-5.421875
700,1697633965,0.23168945,-0.92437744,-0.7095337,-34.453125,-18.203125,-12.71875
701,1697634005,0.21948242,-0.90753174,-0.55792236,-25.921875,23.046875,-24.484375
702,1697634045,0.14794922,-0.6616821,-0.4421997,-53.28125,9.515625,-26.609375
703,1697634085,0.13696289,-0.6165161,-0.31134033,-58.078125,-9.171875,-18.703125
704,1697634125,0.043701172,-0.49908447,-0.25616455,-62.375,-14.578125,-18.984375
705,1697634165,-0.047851562,-0.32525635,-0.13946533,-60.25,-1.78125,-24.734375
706,1697634205,0.068359375,-0.16143799,-0.21295166,-68.6875,7.03125,-17.0625
707,1697634245,-0.071777344,-0.03375244,-0.1375122,-52.046875,-0.9375,-16.71875
708,1697634285,0.07714844,-0.33746338,-0.17633057,-7.53125,4.734375,-0.234375
709,1697634325,0.059326172,-0.65826416,-0.1765747,2.875,8.28125,14.28125
710,1697634365,-0.016845703,-0.48394775,-0.12432861,12.28125,27.296875,-7.125
711,1697634405,-0.22631836,-0.59576416,-0.09112549,5.6875,56.53125,-20.359375
712,1697634445,0.23461914,-1.203186,-0.12188721,13.84375,54.25,-15.203125
713,1697634485,0.30273438,-2.0,-0.47198486,-18.09375,-71.8125,1.46875
714,1697634525,-0.1315918,-2.0,-0.11212158,-0.90625,-14.65625,27.953125
715,1697634565,-0.03515625,-1.9087524,-0.40289307,-4.5,11.203125,-10.53125
716,1697634605,0.10180664,-1.2720337,-0.333313,-15.078125,7.671875,-6.453125
717,1697634645,0.023925781,-0.4512329,-0.27008057,-26.4375,0.578125,9.828125
718,1697634685,-0.03955078,0.1708374,0.0914917,-46.875,-1.640625,3.140625
719,1697634725,-0.068115234,0.49139404,-0.030090332,-16.265625,-5.328125,1.78125
720,1697634765,-0.103027344,0.15496826,0.078063965,33.125,10.890625,7.734375
721,1697634805,-0.08251953,-0.24957275,0.16668701,30.703125,22.265625,2.578125
722,1697634845,0.1694336,-0.31036377,-0.070617676,-13.796875,7.359375,-16.21875
723,1697634885,0.04736328,-0.15411377,-0.28131104,10.390625,-10.078125,-16.203125
724,1697634925,-0.040771484,-0.7908325,-0.5654907,86.296875,18.59375,13.875
725,1697634965,0.063964844,-2.0,-1.0183716,39.71875,-97.171875,34.921875
726,1697635005,0.056884766,-1.7356567,0.11029053,51.875,50.265625,38.75
727,1697635045,-0.19824219,-0.7998657,-0.36431885,12.5625,19.203125,6.015625
728,1697635085,0.19335938,-0.75909424,-0.5039673,38.5625,20.40625,-0.84375
729,1697635125,0.12817383,-0.6592407,-0.44000244,27.34375,-6.796875,31.40625
730,1697635165,0.08129883,-0.7463989,-0.3255005,32.8125,-16.84375,15.078125
731,1697635205,0.10473633,-0.81695557,-0.52227783,33.828125,-8.546875,12.359375
732,1697635245,0.014892578,-0.8442993,-0.4282837,19.484375,9.609375,4.15625
733,1697635285,0.21044922,-0.90704346,-0.5979614,5.203125,10.1875,3.828125
734,1697635325,0.25708008,-0.7366333,-0.4619751,-5.09375,-8.0625,-13.203125
735,1697635365,-0.09448242,-0.78912354,-0.38116455,-13.34375,-20.6875,-2.65625
736,1697635405,0.016357422,-0.75909424,-0.52838135,-10.046875,7.453125,-2.9375
737,1697635445,0.13549805,-0.81256104,-0.6296997,-6.65625,10.375,1.640625
738,1697635485,0.07128906,-0.895813,-0.50860596,-31.9375,18.390625,0.234375
739,1697635525,0.28588867,-1.130188,-0.70758057,-34.375,5.578125,4.0625
740,1697635565,0.25268555,-1.5525513,-0.9536743,-34.296875,-19.9375,7.953125
741,1697635605,0.19091797,-2.0,-0.75982666,-7.734375,-39.25,-5.65625
742,1697635645,0.19995117,-1.2046509,-0.036193848,7.78125,24.828125,-17.46875
743,1697635685,0.27026367,-0.94976807,-0.07598877,-43.96875,18.328125,-21.640625
744,1697635725,0.13232422,-0.40216064,-0.2744751,-67.328125,-34.0,-15.59375
745,1697635765,-0.04711914,-0.27130127,-0.24639893,-34.421875,-45.140625,-14.6875
746,1697635805,-0.1027832,-0.7776489,-0.17193604,-3.765625,-9.984375,-9.828125
747,1697635845,0.010986328,-1.3928833,-0.2041626,7.09375,13.53125,-5.171875
748,1697635885,0.021972656,-1.3101196,-0.09283447,6.0,24.484375,-1.421875
749,1697635925,0.053955078,-1.0579224,0.014587402,1.546875,14.140625,-3.234375
750,1697635965,0.08862305,-0.8123169,-0.1296997,-10.34375,-9.828125,-0.265625
751,1697636005,0.03100586,-0.8308716,-0.16363525,-9.28125,-24.4375,2.375
752,1697636045,0.022705078,-0.9077759,-0.17510986,-8.703125,-33.734375,1.84375
753,1697636085,-0.009033203,-0.9417114,-0.14239502,0.703125,-18.765625,0.625
754,1697636125,-0.051757812,-0.9397583,-0.0491333,8.71875,1.015625,0.09375
755,1697636165,-0.020263672,-1.0339966,-0.061828613,20.671875,16.96875,11.0
756,1697636205,0.072021484,-0.96221924,-0.15557861,20.203125,10.015625,16.65625
757,1697636245,0.064453125,-0.909729,-0.22198486,24.265625,11.640625,18.1875
758,1697636285,0.07397461,-0.9302368,-0.24542236,29.734375,34.796875,12.765625
759,1697636325,0.115234375,-0.819397,-0.30767822,34.828125,20.71875,6.234375
