# Sensor type: 'Thingy'
# Activity type: Ascending stairs
# Activity subtype: Normal
# Subject id: s2021411
# Notes: 
timestamp,accel_x,accel_y,accel_z,gyro_x,gyro_y,gyro_z,mag_x,mag_y,mag_z
1696000842215,-1.046875,0.0146484375,-0.045898438,-2.46875,21.0,4.53125,0.0,0.0,0.0
1696000842233,-1.0048828,9.765625E-4,-0.053710938,-5.875,16.71875,10.8125,0.0,0.0,0.0
1696000842275,-1.0986328,-0.064453125,-0.06347656,-3.375,19.09375,11.125,0.0,0.0,0.0
1696000842315,-1.2138672,-0.17871094,-0.29101562,1.0625,1.28125,11.25,0.0,0.0,0.0
1696000842354,-1.2978516,0.051757812,-0.2734375,20.125,-0.0625,4.78125,0.0,0.0,0.0
1696000842396,-1.3027344,0.20019531,-0.52246094,-2.78125,-24.84375,-1.625,0.0,0.0,0.0
1696000842435,-1.1279297,0.3857422,-0.4638672,3.21875,-73.5,5.5,0.0,0.0,0.0
1696000842474,-1.1201172,0.2421875,-0.07519531,5.46875,-86.5,6.40625,0.0,0.0,0.0
1696000842515,-1.4150391,0.09277344,0.14453125,-5.03125,-144.28125,20.6875,-118.9375,21.8125,-37.25
1696000842554,-0.83496094,0.0029296875,-0.0859375,16.5,-107.0,51.8125,0.0,0.0,0.0
1696000842594,-0.74316406,0.2861328,0.09472656,9.75,-78.5625,54.28125,0.0,0.0,0.0
1696000842635,-0.48046875,0.19433594,0.16796875,4.375,-63.1875,37.65625,0.0,0.0,0.0
1696000842674,-0.5048828,-0.06347656,0.12695312,16.34375,-44.875,13.25,0.0,0.0,0.0
1696000842715,-0.5966797,-0.048828125,0.24316406,47.75,-28.5625,16.5,0.0,0.0,0.0
1696000842755,-0.8027344,0.28710938,0.34960938,42.03125,-13.375,9.28125,0.0,0.0,0.0
1696000842795,-0.875,0.3359375,0.3173828,38.96875,-30.40625,1.65625,0.0,0.0,0.0
1696000842835,-0.9199219,0.37597656,0.49804688,31.78125,22.34375,-5.90625,0.0,0.0,0.0
1696000842875,-1.2919922,0.2998047,0.38867188,4.3125,-5.0,-9.5,0.0,0.0,0.0
1696000842915,-1.3974609,0.38085938,0.3515625,1.6875,45.9375,15.5625,0.0,0.0,0.0
1696000842975,-1.3105469,0.3857422,0.078125,-11.75,36.125,-15.0,0.0,0.0,0.0
1696000842994,-1.0195312,0.107421875,-0.15234375,5.71875,47.53125,-35.21875,-117.4375,33.1875,-25.5625
1696000843034,-1.0048828,0.07128906,0.049804688,12.0625,67.8125,-29.90625,0.0,0.0,0.0
1696000843074,-0.9628906,0.2109375,0.0107421875,-2.53125,57.125,-35.21875,0.0,0.0,0.0
1696000843115,-0.82910156,0.203125,-0.053710938,-26.34375,52.1875,-43.9375,0.0,0.0,0.0
1696000843155,-0.73535156,0.06640625,-0.12402344,-31.21875,76.21875,-39.1875,0.0,0.0,0.0
1696000843195,-0.75390625,-0.08105469,-0.091796875,-20.59375,81.84375,-34.65625,0.0,0.0,0.0
1696000843235,-0.79785156,0.001953125,0.01953125,-2.40625,78.90625,-25.375,0.0,0.0,0.0
1696000843275,-0.7988281,0.043945312,-0.068359375,-17.71875,52.25,-16.09375,0.0,0.0,0.0
1696000843315,-0.8339844,-0.04296875,-0.15332031,-15.40625,52.96875,-7.3125,0.0,0.0,0.0
1696000843354,-1.0273438,0.0390625,0.0087890625,-13.625,39.46875,8.6875,0.0,0.0,0.0
1696000843395,-1.0263672,0.041992188,-0.11816406,-21.4375,26.25,3.71875,0.0,0.0,0.0
1696000843434,-1.3798828,-0.07519531,-0.23925781,-12.125,0.53125,11.3125,0.0,0.0,0.0
1696000843475,-1.4619141,-0.21875,-0.234375,15.0625,-6.34375,-10.96875,0.0,0.0,0.0
1696000843515,-1.3935547,0.24511719,-0.42578125,11.6875,-27.34375,-9.875,-121.9375,26.875,-45.0625
1696000843555,-1.1201172,0.33007812,-0.47753906,2.40625,-48.90625,1.96875,0.0,0.0,0.0
1696000843594,-0.9082031,0.20800781,-0.34179688,-6.125,-87.53125,5.6875,0.0,0.0,0.0
1696000843635,-1.2958984,0.08886719,0.19628906,15.65625,-151.6875,13.25,0.0,0.0,0.0
1696000843675,-0.9785156,0.18261719,-0.11816406,31.71875,-109.25,36.6875,0.0,0.0,0.0
1696000843733,-0.8457031,0.1953125,0.12011719,-0.875,-84.53125,56.34375,0.0,0.0,0.0
1696000843754,-0.83203125,0.095703125,0.125,13.21875,-110.3125,47.75,0.0,0.0,0.0
1696000843796,-0.5234375,0.0234375,0.0390625,14.5,-66.71875,31.75,0.0,0.0,0.0
1696000843835,-0.4892578,0.047851562,0.19335938,30.1875,-11.53125,15.8125,0.0,0.0,0.0
1696000843875,-0.64160156,0.2421875,0.2861328,27.375,-15.75,10.09375,0.0,0.0,0.0
1696000843915,-0.79589844,0.3017578,0.328125,25.1875,-2.21875,0.9375,0.0,0.0,0.0
1696000843956,-0.9667969,0.21582031,0.4892578,19.75,35.09375,-7.25,0.0,0.0,0.0
1696000843995,-1.1015625,0.35839844,0.5292969,17.4375,23.96875,-12.25,-117.875,33.8125,-17.4375
1696000844036,-1.2939453,0.37109375,0.29101562,12.96875,-36.3125,-27.03125,0.0,0.0,0.0
1696000844075,-1.4423828,0.47460938,0.30273438,-10.34375,40.34375,-0.71875,0.0,0.0,0.0
1696000844114,-1.1826172,0.15527344,-9.765625E-4,-21.375,52.3125,-15.5625,0.0,0.0,0.0
1696000844155,-0.7705078,0.024414062,-0.20996094,6.5625,56.3125,-25.5625,0.0,0.0,0.0
1696000844195,-1.0732422,0.32421875,0.021484375,1.75,79.9375,-33.5625,0.0,0.0,0.0
1696000844235,-1.0341797,0.14648438,-0.013671875,-39.9375,44.3125,-34.84375,0.0,0.0,0.0
1696000844274,-0.7011719,0.0625,-0.18066406,-32.5625,57.375,-41.6875,0.0,0.0,0.0
1696000844315,-0.7519531,0.0087890625,-0.06347656,-19.8125,81.78125,-33.8125,0.0,0.0,0.0
1696000844355,-0.8466797,0.083984375,-0.048828125,-24.125,63.65625,-25.5625,0.0,0.0,0.0
1696000844395,-0.8330078,-0.024414062,-0.09765625,-38.0625,50.28125,-15.5,0.0,0.0,0.0
1696000844435,-0.84472656,-0.08105469,-0.032226562,-28.21875,45.40625,3.125,0.0,0.0,0.0
1696000844495,-0.9111328,-0.080078125,-0.025390625,-16.125,46.6875,6.53125,0.0,0.0,0.0
1696000844514,-1.1259766,-0.026367188,-0.045898438,-24.4375,27.65625,3.78125,-126.125,23.75,-37.125
1696000844555,-1.0712891,0.091796875,-0.11328125,-16.125,13.1875,5.4375,0.0,0.0,0.0
1696000844594,-1.359375,-0.19238281,-0.29589844,-10.78125,7.4375,1.90625,0.0,0.0,0.0
1696000844634,-1.4638672,-0.032226562,-0.31445312,16.9375,-11.0,-8.09375,0.0,0.0,0.0
1696000844675,-1.4003906,0.22265625,-0.39746094,6.09375,-18.375,-11.78125,0.0,0.0,0.0
1696000844715,-1.1113281,0.20507812,-0.39160156,-2.53125,-36.75,4.34375,0.0,0.0,0.0
1696000844754,-0.91308594,0.28125,-0.15625,8.53125,-80.5625,10.9375,0.0,0.0,0.0
1696000844794,-1.1884766,0.1171875,0.125,4.0,-149.4375,14.15625,0.0,0.0,0.0
1696000844835,-1.0048828,0.06640625,-0.11621094,13.9375,-151.0,34.8125,0.0,0.0,0.0
1696000844875,-0.78808594,0.1328125,0.091796875,14.1875,-66.71875,51.46875,0.0,0.0,0.0
1696000844915,-0.6875,0.23144531,0.19824219,19.5625,-79.78125,46.46875,0.0,0.0,0.0
1696000844954,-0.5908203,0.047851562,0.07421875,-0.03125,-69.84375,27.09375,0.0,0.0,0.0
1696000844994,-0.4794922,0.10839844,0.21679688,19.3125,-18.75,17.78125,-118.9375,26.5625,-12.9375
1696000845035,-0.59765625,0.19921875,0.29492188,22.25,1.28125,17.59375,0.0,0.0,0.0
1696000845075,-0.7392578,0.22949219,0.43164062,26.90625,-22.34375,10.1875,0.0,0.0,0.0
1696000845114,-0.8730469,0.24609375,0.42773438,20.0625,12.0625,-15.4375,0.0,0.0,0.0
1696000845155,-1.3125,0.33496094,0.29785156,16.625,20.0625,-17.375,0.0,0.0,0.0
1696000845195,-1.28125,0.6035156,0.2265625,3.34375,-24.53125,-3.96875,0.0,0.0,0.0
1696000845255,-1.3662109,0.3359375,0.35546875,-47.09375,51.6875,-6.65625,0.0,0.0,0.0
1696000845275,-1.0761719,0.15625,-0.10058594,1.6875,38.875,-13.71875,0.0,0.0,0.0
1696000845315,-1.0517578,0.09765625,-0.1171875,24.75,52.59375,-28.6875,0.0,0.0,0.0
1696000845355,-1.0800781,0.15332031,-0.040039062,22.8125,56.75,-22.5,0.0,0.0,0.0
1696000845395,-0.85253906,0.19628906,-0.059570312,5.15625,55.90625,-26.53125,0.0,0.0,0.0
1696000845435,-0.81347656,0.14257812,-0.056640625,-16.8125,60.28125,-40.03125,0.0,0.0,0.0
1696000845475,-0.81933594,0.09375,9.765625E-4,-13.09375,71.40625,-35.8125,0.0,0.0,0.0
1696000845515,-0.7373047,-0.10058594,-0.10449219,-16.1875,77.09375,-29.09375,-124.9375,23.0,-29.625
1696000845555,-0.8466797,0.037109375,0.0107421875,-7.15625,72.1875,-18.25,0.0,0.0,0.0
1696000845595,-0.76953125,0.1484375,-0.09667969,-22.375,50.71875,-11.34375,0.0,0.0,0.0
1696000845636,-0.8535156,0.078125,-0.055664062,-34.5,55.40625,1.59375,0.0,0.0,0.0
1696000845675,-1.0673828,-0.15332031,-0.16308594,-26.21875,35.09375,8.625,0.0,0.0,0.0
1696000845715,-1.2958984,-0.037109375,-0.05078125,-13.09375,13.0625,5.5625,0.0,0.0,0.0
1696000845773,-1.328125,-0.3203125,-0.29101562,-8.3125,-0.3125,-6.78125,0.0,0.0,0.0
1696000845795,-1.3964844,0.09375,-0.32910156,27.5625,-16.625,-8.59375,0.0,0.0,0.0
1696000845835,-1.3173828,0.29589844,-0.49414062,1.625,-17.78125,-7.25,0.0,0.0,0.0
1696000845876,-1.0224609,0.31640625,-0.3623047,8.59375,-44.625,5.75,0.0,0.0,0.0
1696000845915,-1.0087891,0.3310547,-0.1875,9.5,-87.46875,17.34375,0.0,0.0,0.0
1696000845955,-1.1650391,0.013671875,0.0390625,-2.78125,-142.65625,15.9375,0.0,0.0,0.0
1696000846014,-0.99902344,0.1484375,-0.13378906,2.0625,-139.78125,31.75,-125.875,23.5625,-29.1875
1696000846034,-0.85058594,0.24121094,0.09765625,6.125,-86.25,50.96875,0.0,0.0,0.0
1696000846075,-0.640625,0.16503906,0.14648438,4.0,-74.78125,47.5625,0.0,0.0,0.0
1696000846133,-0.4375,0.02734375,0.1171875,0.03125,-55.5,28.03125,0.0,0.0,0.0
1696000846155,-0.5546875,0.111328125,0.22753906,15.21875,-15.9375,16.25,0.0,0.0,0.0
1696000846194,-0.6816406,0.23242188,0.31152344,15.46875,-1.71875,10.6875,0.0,0.0,0.0
1696000846235,-0.7558594,0.19238281,0.36914062,24.09375,-8.90625,8.1875,0.0,0.0,0.0
1696000846275,-0.9033203,0.32617188,0.4453125,20.78125,25.5625,-16.90625,0.0,0.0,0.0
1696000846315,-1.2783203,0.29492188,0.42871094,12.78125,-15.875,-18.1875,0.0,0.0,0.0
1696000846355,-1.2470703,0.4111328,0.26171875,12.3125,-8.96875,-3.84375,0.0,0.0,0.0
1696000846396,-1.2070312,0.37695312,0.31347656,-18.6875,48.6875,11.65625,0.0,0.0,0.0
1696000846435,-0.9873047,0.265625,-0.16015625,-4.53125,32.28125,-20.1875,0.0,0.0,0.0
1696000846475,-1.0878906,0.01171875,-0.0029296875,10.59375,60.0625,-26.0625,0.0,0.0,0.0
1696000846514,-1.0722656,0.10644531,0.0048828125,10.96875,43.6875,-23.78125,-124.8125,29.875,-18.9375
1696000846555,-0.99316406,0.22753906,-0.00390625,-8.21875,55.53125,-31.1875,0.0,0.0,0.0
1696000846596,-0.8300781,0.1796875,-0.024414062,-24.125,55.21875,-35.09375,0.0,0.0,0.0
1696000846636,-0.73339844,-0.001953125,-0.10058594,-25.40625,79.65625,-30.25,0.0,0.0,0.0
1696000846675,-0.65234375,0.018554688,-0.06933594,-25.0625,83.4375,-28.25,0.0,0.0,0.0
1696000846715,-0.7314453,0.09863281,0.024414062,-24.75,70.4375,-18.3125,0.0,0.0,0.0
1696000846774,-0.7285156,-0.01171875,-0.12207031,-32.9375,56.5,-8.28125,0.0,0.0,0.0
1696000846793,-0.98339844,-0.13964844,-0.08105469,-17.46875,59.3125,2.6875,0.0,0.0,0.0
1696000846835,-1.2675781,0.061523438,0.029296875,-4.84375,34.125,8.8125,0.0,0.0,0.0
1696000846875,-1.2636719,0.026367188,-0.15039062,-2.03125,8.28125,10.5625,0.0,0.0,0.0
1696000846915,-1.3583984,-0.15625,-0.27539062,11.875,-2.75,-2.875,0.0,0.0,0.0
1696000846955,-1.4121094,0.125,-0.28320312,26.21875,-14.34375,-4.1875,0.0,0.0,0.0
1696000846995,-1.3203125,0.21679688,-0.53125,-7.59375,-23.5625,1.15625,-130.0625,22.6875,-40.25
1696000847035,-0.90527344,0.19628906,-0.25878906,8.40625,-81.4375,14.84375,0.0,0.0,0.0
1696000847075,-1.0175781,0.18652344,-0.08300781,14.75,-123.71875,16.90625,0.0,0.0,0.0
1696000847115,-1.2138672,0.18457031,-0.064453125,-17.59375,-193.3125,16.3125,0.0,0.0,0.0
1696000847155,-0.9824219,0.08886719,0.068359375,16.34375,-67.28125,43.03125,0.0,0.0,0.0
1696000847195,-0.90234375,0.18261719,0.140625,17.0,-80.09375,48.59375,0.0,0.0,0.0
1696000847235,-0.6738281,0.08300781,0.24707031,-1.3125,-82.90625,25.9375,0.0,0.0,0.0
1696000847273,-0.5292969,0.0087890625,0.16308594,11.5,-35.09375,18.0625,0.0,0.0,0.0
1696000847315,-0.5292969,0.1640625,0.24511719,27.25,-13.25,30.28125,0.0,0.0,0.0
1696000847355,-0.58691406,0.22558594,0.3330078,25.0,-2.375,14.15625,0.0,0.0,0.0
1696000847395,-0.7783203,0.18554688,0.421875,21.59375,8.125,-14.34375,0.0,0.0,0.0
1696000847435,-1.0488281,0.34472656,0.42773438,27.625,18.0625,-21.96875,0.0,0.0,0.0
1696000847475,-1.4189453,0.4296875,0.5107422,12.125,-19.40625,-14.15625,0.0,0.0,0.0
1696000847535,-1.2236328,0.38476562,0.23339844,-12.40625,36.0,10.4375,-122.875,31.8125,-11.625
1696000847555,-1.2070312,0.3173828,0.25585938,17.25,33.4375,3.65625,0.0,0.0,0.0
1696000847594,-0.9736328,0.26367188,-0.15039062,18.03125,43.625,-20.8125,0.0,0.0,0.0
1696000847635,-0.9472656,0.11621094,-0.12695312,8.03125,60.28125,-31.71875,0.0,0.0,0.0
1696000847675,-0.95214844,0.18164062,-0.026367188,-16.03125,48.6875,-42.46875,0.0,0.0,0.0
1696000847714,-0.79296875,0.234375,-0.05859375,-27.0625,66.875,-44.53125,0.0,0.0,0.0
1696000847756,-0.7080078,0.13671875,-0.09765625,-35.25,79.875,-43.4375,0.0,0.0,0.0
1696000847795,-0.64746094,-0.055664062,-0.12109375,-25.0,77.03125,-37.71875,0.0,0.0,0.0
1696000847835,-0.73046875,0.030273438,-0.02734375,-17.34375,82.5625,-26.53125,0.0,0.0,0.0
1696000847876,-0.8378906,0.0546875,-0.041992188,-29.0625,62.375,-17.1875,0.0,0.0,0.0
1696000847915,-0.9667969,-0.041992188,-0.23828125,-27.5,47.34375,-8.28125,0.0,0.0,0.0
1696000847956,-1.2158203,-0.0546875,-0.03125,-19.625,21.78125,2.34375,0.0,0.0,0.0
1696000847995,-1.0693359,-0.08203125,0.072265625,-7.34375,-0.6875,5.875,-129.625,21.5,-34.125
1696000848035,-1.0292969,0.115234375,-0.02734375,-4.90625,6.46875,0.875,0.0,0.0,0.0
1696000848075,-1.3769531,-0.14941406,-0.31640625,0.78125,4.375,9.84375,0.0,0.0,0.0
1696000848116,-1.4101562,0.046875,-0.26367188,7.375,-11.0,-8.34375,0.0,0.0,0.0
1696000848154,-1.3984375,0.23242188,-0.4765625,-7.65625,-19.90625,-11.53125,0.0,0.0,0.0
1696000848196,-0.9707031,0.13671875,-0.38671875,14.4375,-54.625,5.625,0.0,0.0,0.0
1696000848235,-1.0361328,0.2265625,0.0126953125,16.9375,-85.21875,6.125,0.0,0.0,0.0
1696000848294,-1.1894531,0.06347656,0.0859375,5.46875,-185.125,13.9375,0.0,0.0,0.0
1696000848315,-1.0664062,0.11816406,0.022460938,28.71875,-97.84375,37.125,0.0,0.0,0.0
1696000848355,-0.8388672,0.18847656,0.119140625,24.5,-78.125,52.4375,0.0,0.0,0.0
1696000848396,-0.7167969,0.18261719,0.18359375,18.21875,-69.03125,41.9375,0.0,0.0,0.0
1696000848435,-0.5761719,0.064453125,0.107421875,22.4375,-63.96875,26.1875,0.0,0.0,0.0
1696000848475,-0.484375,0.15039062,0.1875,28.125,-31.1875,21.875,0.0,0.0,0.0
1696000848515,-0.6015625,0.21386719,0.3486328,24.09375,3.15625,17.09375,-115.375,29.875,-5.1875
1696000848555,-0.85253906,0.2421875,0.53515625,15.40625,16.71875,-9.625,0.0,0.0,0.0
1696000848595,-0.9560547,0.24316406,0.40820312,34.59375,-19.28125,-18.3125,0.0,0.0,0.0
1696000848636,-1.4521484,0.43847656,0.5498047,21.15625,8.71875,-11.71875,0.0,0.0,0.0
1696000848675,-1.3046875,0.4345703,0.22949219,-10.53125,-18.6875,-6.8125,0.0,0.0,0.0
1696000848716,-1.0644531,0.30371094,0.18164062,-15.40625,85.875,6.65625,0.0,0.0,0.0
1696000848755,-1.0166016,0.203125,-0.19628906,-8.21875,47.34375,-24.90625,0.0,0.0,0.0
1696000848795,-1.1464844,0.08203125,-0.001953125,-2.15625,73.90625,-18.65625,0.0,0.0,0.0
1696000848836,-0.9560547,0.10546875,0.017578125,-6.5625,53.59375,-21.09375,0.0,0.0,0.0
1696000848875,-0.85839844,0.12109375,9.765625E-4,-15.59375,63.15625,-36.5625,0.0,0.0,0.0
1696000848915,-0.76464844,0.119140625,0.0078125,-13.8125,74.03125,-40.9375,0.0,0.0,0.0
1696000848955,-0.7050781,-0.030273438,-0.021484375,-12.0625,83.375,-30.15625,0.0,0.0,0.0
1696000848995,-0.5810547,0.0048828125,-0.11230469,-8.3125,77.625,-24.90625,-123.125,23.4375,-20.1875
1696000849056,-0.6699219,0.14453125,0.09765625,-7.40625,73.90625,-22.5,0.0,0.0,0.0
1696000849074,-0.8642578,-0.078125,-0.2421875,-29.5,55.84375,-14.6875,0.0,0.0,0.0
1696000849116,-1.3710938,-0.072265625,-0.015625,-18.28125,36.125,3.71875,0.0,0.0,0.0
1696000849156,-1.2060547,-0.03515625,0.080078125,-13.5625,4.75,7.875,0.0,0.0,0.0
1696000849194,-1.1904297,-0.10546875,-0.14160156,-16.1875,-6.96875,5.1875,0.0,0.0,0.0
1696000849235,-1.4052734,-0.0546875,-0.26953125,13.34375,-6.59375,-3.03125,0.0,0.0,0.0
1696000849276,-1.4453125,0.2763672,-0.4658203,-4.46875,-11.96875,-5.59375,0.0,0.0,0.0
1696000849314,-1.203125,0.19335938,-0.3095703,14.875,-53.0625,10.4375,0.0,0.0,0.0
1696000849356,-0.9423828,0.018554688,-0.21777344,24.03125,-75.9375,5.8125,0.0,0.0,0.0
1696000849395,-1.1582031,0.15429688,-0.0126953125,5.15625,-170.1875,-5.0,0.0,0.0,0.0
1696000849434,-1.0439453,0.22949219,0.024414062,10.46875,-101.5625,27.71875,0.0,0.0,0.0
1696000849475,-0.8388672,0.13964844,0.10546875,7.46875,-105.53125,47.625,0.0,0.0,0.0
1696000849515,-0.63671875,0.05078125,0.07714844,4.75,-94.125,45.59375,-113.6875,23.75,-8.4375
1696000849555,-0.52246094,0.111328125,0.17285156,9.6875,-55.0,30.84375,0.0,0.0,0.0
1696000849595,-0.5605469,0.20019531,0.19238281,20.96875,-35.28125,23.5,0.0,0.0,0.0
1696000849635,-0.6357422,0.21777344,0.33398438,4.375,14.03125,17.84375,0.0,0.0,0.0
1696000849674,-0.8388672,0.14746094,0.38867188,4.6875,9.21875,2.09375,0.0,0.0,0.0
1696000849715,-0.9580078,0.27148438,0.453125,15.59375,6.09375,-3.71875,0.0,0.0,0.0
1696000849755,-1.2548828,0.3046875,0.3046875,13.59375,10.96875,-9.5,0.0,0.0,0.0
1696000849814,-1.4228516,0.49121094,0.28320312,-15.15625,-34.8125,-10.78125,0.0,0.0,0.0
1696000849834,-1.1367188,0.23242188,0.21484375,-27.3125,72.875,6.46875,0.0,0.0,0.0
1696000849875,-1.1416016,0.2548828,-0.08300781,-5.09375,40.15625,-21.53125,0.0,0.0,0.0
1696000849915,-1.0654297,0.12988281,-0.07714844,-2.96875,85.0625,-22.5625,0.0,0.0,0.0
1696000849954,-1.0058594,0.0546875,0.05078125,4.90625,64.1875,-16.78125,0.0,0.0,0.0
1696000849995,-0.8613281,0.16699219,-0.057617188,-12.0,63.59375,-27.40625,-112.9375,25.25,-12.0625
1696000850035,-0.8144531,0.15039062,0.018554688,-14.6875,68.34375,-33.1875,0.0,0.0,0.0
1696000850074,-0.68066406,0.03125,-0.0546875,-14.78125,77.9375,-31.78125,0.0,0.0,0.0
1696000850115,-0.6748047,-0.0234375,-0.095703125,-22.5625,72.25,-32.78125,0.0,0.0,0.0
1696000850155,-0.81640625,0.055664062,0.030273438,-15.59375,60.0625,-23.78125,0.0,0.0,0.0
1696000850195,-0.9042969,-0.00390625,-0.040039062,-32.0,55.78125,-17.6875,0.0,0.0,0.0
1696000850235,-1.0214844,-0.15917969,-0.08105469,-18.46875,41.75,-5.25,0.0,0.0,0.0
1696000850275,-1.1347656,0.0087890625,-0.0146484375,-4.65625,15.875,4.84375,0.0,0.0,0.0
1696000850315,-1.1982422,0.0029296875,-0.0234375,-13.5,9.9375,4.65625,0.0,0.0,0.0
1696000850355,-1.2939453,-0.18261719,-0.3935547,-5.03125,-2.875,0.75,0.0,0.0,0.0
1696000850395,-1.4277344,0.08203125,-0.2734375,21.53125,-9.40625,-5.84375,0.0,0.0,0.0
1696000850435,-1.2978516,0.28808594,-0.57128906,-3.1875,-25.8125,5.625,0.0,0.0,0.0
1696000850475,-0.95996094,0.2841797,-0.29101562,28.71875,-63.71875,18.75,0.0,0.0,0.0
1696000850515,-0.9511719,0.18066406,-0.040039062,18.21875,-100.34375,16.25,-116.5625,20.125,-25.4375
1696000850574,-1.0898438,0.11816406,-0.07714844,-15.21875,-196.0625,6.84375,0.0,0.0,0.0
1696000850594,-1.1142578,0.13183594,0.10644531,24.375,-87.59375,37.1875,0.0,0.0,0.0
1696000850634,-0.8261719,0.13867188,0.21484375,14.5,-63.0625,51.40625,0.0,0.0,0.0
1696000850675,-0.6230469,0.08203125,0.11035156,9.3125,-85.9375,37.96875,0.0,0.0,0.0
1696000850714,-0.5810547,0.09472656,0.13085938,17.125,-51.03125,21.625,0.0,0.0,0.0
1696000850755,-0.60839844,0.18457031,0.29589844,26.84375,-13.125,19.34375,0.0,0.0,0.0
1696000850795,-0.8017578,0.20996094,0.44140625,18.40625,-6.46875,16.90625,0.0,0.0,0.0
1696000850835,-0.71875,0.26367188,0.3984375,20.1875,-4.15625,-1.9375,0.0,0.0,0.0
1696000850877,-1.0273438,0.2763672,0.33203125,9.9375,34.96875,-17.5,0.0,0.0,0.0
1696000850916,-1.5087891,0.4482422,0.359375,-5.8125,-19.53125,-24.90625,0.0,0.0,0.0
1696000850955,-1.2685547,0.26464844,0.16308594,-28.59375,29.28125,3.125,0.0,0.0,0.0
1696000850995,-1.25,0.3076172,0.17285156,-7.09375,62.5,7.625,-106.9375,27.9375,-9.375
1696000851035,-1.1337891,0.34765625,-0.08984375,-9.375,51.09375,-27.15625,0.0,0.0,0.0
1696000851075,-0.9824219,-0.025390625,0.06640625,-4.125,64.09375,-28.6875,0.0,0.0,0.0
1696000851116,-0.9472656,0.078125,0.037109375,-6.5,54.1875,-27.59375,0.0,0.0,0.0
1696000851154,-0.93847656,0.140625,-0.02734375,-15.28125,56.8125,-29.59375,0.0,0.0,0.0
1696000851195,-0.7314453,0.11621094,-0.07324219,-24.6875,66.09375,-39.0625,0.0,0.0,0.0
1696000851235,-0.82421875,-0.07421875,-0.060546875,-14.375,79.46875,-33.3125,0.0,0.0,0.0
1696000851275,-0.7626953,0.036132812,-0.12597656,-5.03125,64.875,-20.9375,0.0,0.0,0.0
1696000851335,-0.75,0.095703125,-0.08886719,-22.0625,56.3125,-7.4375,0.0,0.0,0.0
1696000851355,-0.72265625,-0.064453125,-0.14550781,-26.03125,51.625,-2.25,0.0,0.0,0.0
1696000851394,-1.078125,-0.10839844,-0.16015625,-11.0625,49.3125,-0.125,0.0,0.0,0.0
1696000851435,-1.375,0.07128906,-0.0234375,-10.9375,9.75,10.5625,0.0,0.0,0.0
1696000851475,-1.2724609,-0.056640625,-0.034179688,-19.5,-1.65625,10.875,0.0,0.0,0.0
1696000851516,-1.3300781,-0.16699219,-0.33496094,2.65625,-7.15625,5.1875,-114.875,19.5625,-27.375
1696000851555,-1.4091797,0.16796875,-0.36132812,15.90625,-16.84375,-10.5625,0.0,0.0,0.0
1696000851594,-1.0810547,0.2109375,-0.63671875,-1.6875,-38.34375,-13.96875,0.0,0.0,0.0
1696000851636,-0.9042969,0.20117188,-0.2626953,25.4375,-70.5625,-2.0625,0.0,0.0,0.0
1696000851675,-1.0546875,0.12207031,-9.765625E-4,30.4375,-107.125,15.375,0.0,0.0,0.0
1696000851714,-1.0615234,0.08984375,-0.09082031,13.46875,-168.65625,28.15625,0.0,0.0,0.0
1696000851755,-0.9091797,0.10644531,0.12011719,30.8125,-79.21875,45.0625,0.0,0.0,0.0
1696000851795,-0.76660156,0.19433594,0.115234375,29.875,-81.3125,47.6875,0.0,0.0,0.0
1696000851835,-0.6123047,0.14257812,0.0703125,26.9375,-92.59375,37.4375,0.0,0.0,0.0
1696000851875,-0.5361328,0.08105469,0.16894531,9.0,-50.0,12.15625,0.0,0.0,0.0
1696000851915,-0.62402344,0.18652344,0.2783203,14.9375,-27.71875,11.0625,0.0,0.0,0.0
1696000851955,-0.7890625,0.24902344,0.40820312,3.09375,-4.9375,2.5625,0.0,0.0,0.0
1696000851995,-0.890625,0.24804688,0.46972656,4.375,6.34375,-1.625,-103.9375,28.375,-6.9375
1696000852035,-1.109375,0.15820312,0.5390625,22.75,19.15625,-8.71875,0.0,0.0,0.0
1696000852095,-1.2470703,0.34570312,0.45996094,27.5625,-27.09375,-1.28125,0.0,0.0,0.0
1696000852115,-1.3173828,0.37402344,0.14160156,-0.15625,2.375,10.15625,0.0,0.0,0.0
1696000852154,-1.1875,0.33789062,0.31835938,-13.15625,62.375,-3.28125,0.0,0.0,0.0
1696000852194,-1.0371094,0.22753906,-0.17871094,-5.15625,35.15625,-25.6875,0.0,0.0,0.0
1696000852235,-1.0849609,0.10546875,0.024414062,11.8125,70.84375,-32.65625,0.0,0.0,0.0
1696000852275,-0.9941406,0.08984375,0.040039062,11.3125,51.4375,-24.90625,0.0,0.0,0.0
1696000852314,-0.8154297,0.24414062,0.0029296875,-5.75,41.25,-33.5,0.0,0.0,0.0
1696000852356,-0.78515625,0.19238281,-0.0107421875,-12.0625,67.9375,-53.15625,0.0,0.0,0.0
1696000852396,-0.8623047,-0.08105469,-0.01953125,-16.0625,77.5625,-46.5625,0.0,0.0,0.0
1696000852435,-0.85839844,-0.09667969,-0.037109375,-4.65625,76.21875,-32.15625,0.0,0.0,0.0
1696000852475,-0.86621094,0.053710938,0.06347656,-6.96875,65.53125,-15.96875,0.0,0.0,0.0
1696000852514,-0.86328125,-0.01953125,-0.080078125,-23.03125,40.9375,-8.46875,-113.125,20.0,-21.6875
1696000852555,-0.9199219,-0.022460938,0.037109375,-21.625,34.84375,3.625,0.0,0.0,0.0
1696000852595,-1.0263672,-0.017578125,0.14355469,-31.34375,16.53125,3.0625,0.0,0.0,0.0
1696000852634,-1.2236328,-0.10644531,0.111328125,-41.46875,15.0625,2.21875,0.0,0.0,0.0
1696000852675,-1.2363281,-0.44433594,-0.20898438,-0.6875,15.375,-7.0625,0.0,0.0,0.0
1696000852715,-1.5693359,0.2578125,-0.41992188,12.375,5.96875,-6.28125,0.0,0.0,0.0
1696000852755,-1.5625,0.46875,-0.56933594,-12.96875,-3.0625,13.1875,0.0,0.0,0.0
1696000852795,-0.9863281,0.07910156,-0.41601562,-11.25,-33.21875,24.65625,0.0,0.0,0.0
1696000852854,-0.77734375,0.15527344,-0.28027344,10.21875,-65.9375,15.625,0.0,0.0,0.0
1696000852875,-1.1376953,-0.024414062,-0.20019531,13.84375,-85.625,38.59375,0.0,0.0,0.0
1696000852914,-0.7919922,0.15527344,-0.14941406,33.125,-49.875,46.03125,0.0,0.0,0.0
1696000852955,-0.5546875,0.21191406,-0.038085938,9.0625,-28.75,44.0625,0.0,0.0,0.0
1696000852995,-0.10546875,0.08496094,-0.15917969,17.375,-31.5625,26.75,-110.25,25.0625,-15.375
1696000853035,0.28027344,-0.0146484375,-0.0029296875,32.03125,-15.4375,2.5625,0.0,0.0,0.0
1696000853075,0.2421875,-0.16992188,0.15722656,51.0,35.15625,-13.40625,0.0,0.0,0.0
1696000853116,-0.5292969,-0.009765625,0.7714844,38.4375,13.59375,-18.78125,0.0,0.0,0.0
1696000853155,-2.0,0.375,0.3857422,92.4375,-372.8125,11.0,0.0,0.0,0.0
1696000853195,-2.0,0.43652344,0.41992188,-15.59375,-4.9375,-21.46875,0.0,0.0,0.0
1696000853235,-1.9882812,0.54785156,0.23144531,-9.78125,15.875,-1.46875,0.0,0.0,0.0
1696000853275,-2.0,0.3564453,0.5859375,-14.4375,56.21875,-0.125,0.0,0.0,0.0
1696000853315,-2.0,0.018554688,0.47070312,-24.625,104.125,-2.875,0.0,0.0,0.0
1696000853356,-2.0,0.21289062,0.89453125,-56.71875,194.3125,-45.78125,0.0,0.0,0.0
1696000853394,-1.7568359,0.048828125,-0.44433594,-56.84375,118.9375,-33.625,0.0,0.0,0.0
1696000853435,-0.80566406,0.7216797,-1.7470703,9.4375,-23.875,39.0625,0.0,0.0,0.0
1696000853475,0.84472656,-0.17480469,-0.9921875,32.3125,-99.8125,24.1875,0.0,0.0,0.0
1696000853515,1.2314453,0.11035156,0.041015625,47.71875,-125.0,-57.5625,-110.875,25.8125,-16.125
1696000853555,-1.6855469,-0.16796875,0.21777344,-40.78125,-150.28125,51.8125,0.0,0.0,0.0
1696000853615,-0.22070312,-0.057617188,0.56347656,15.40625,6.40625,14.71875,0.0,0.0,0.0
1696000853635,0.20019531,-0.07421875,0.4423828,-3.9375,62.375,28.5,0.0,0.0,0.0
1696000853675,0.27734375,-0.0234375,0.5722656,-2.96875,110.90625,-0.71875,0.0,0.0,0.0
1696000853716,0.26367188,-0.2734375,0.33496094,-5.75,42.71875,-2.875,0.0,0.0,0.0
1696000853755,0.046875,0.13476562,0.41308594,10.28125,-24.53125,15.5625,0.0,0.0,0.0
1696000853795,0.001953125,-0.10058594,-0.03515625,-31.15625,50.28125,-14.28125,0.0,0.0,0.0
1696000853836,-1.2763672,0.27929688,-0.20898438,9.5625,-79.96875,-28.5625,0.0,0.0,0.0
1696000853874,-0.77246094,-1.3466797,1.7841797,60.9375,4.375,-22.03125,0.0,0.0,0.0
1696000853915,-2.0,0.20800781,0.9238281,-67.40625,53.40625,-38.625,0.0,0.0,0.0
1696000853955,-2.0,-0.13867188,1.1464844,95.25,12.0625,-36.5,0.0,0.0,0.0
1696000853995,-1.5947266,-0.032226562,0.12011719,114.40625,55.96875,6.125,-99.0,22.6875,-53.3125
1696000854036,-1.0771484,0.5966797,0.17089844,62.71875,-22.28125,-8.71875,0.0,0.0,0.0
1696000854075,-0.47265625,0.48535156,-0.08105469,5.46875,-30.59375,11.90625,0.0,0.0,0.0
1696000854115,-0.5126953,0.20117188,0.0390625,2.34375,-62.15625,32.1875,0.0,0.0,0.0
1696000854155,-0.8798828,0.14453125,0.24316406,6.5,-51.9375,53.84375,0.0,0.0,0.0
1696000854195,-0.49023438,-0.034179688,0.20117188,-16.5,-18.1875,27.09375,0.0,0.0,0.0
1696000854235,-0.4716797,0.091796875,0.46289062,8.9375,-4.84375,-11.28125,0.0,0.0,0.0
1696000854275,-0.41015625,0.01953125,0.35839844,41.40625,-10.625,-14.8125,0.0,0.0,0.0
1696000854316,-0.83203125,0.22363281,0.4658203,50.03125,31.96875,-29.65625,0.0,0.0,0.0
1696000854376,-0.9082031,0.07324219,0.3544922,107.875,-24.0,-19.46875,0.0,0.0,0.0
1696000854395,-1.1162109,0.265625,0.67285156,77.78125,45.15625,-24.96875,0.0,0.0,0.0
1696000854435,-1.1748047,0.6220703,0.46972656,62.46875,30.375,-26.34375,0.0,0.0,0.0
1696000854474,-1.4716797,0.80078125,0.03515625,43.8125,3.96875,9.46875,0.0,0.0,0.0
1696000854515,-1.9667969,0.74609375,-0.61816406,-51.96875,9.5625,73.125,-98.875,33.1875,-52.6875
1696000854555,-1.4794922,0.16503906,0.095703125,-20.71875,12.25,44.125,0.0,0.0,0.0
1696000854594,-1.15625,-0.28710938,-0.66015625,-43.65625,-91.875,-45.21875,0.0,0.0,0.0
1696000854635,-1.4121094,0.3251953,-0.3701172,-93.53125,28.25,-37.90625,0.0,0.0,0.0
1696000854675,-0.78125,0.29492188,0.04296875,-63.875,61.15625,-51.4375,0.0,0.0,0.0
1696000854714,-0.7324219,-0.03515625,-0.12207031,-77.90625,61.15625,-59.75,0.0,0.0,0.0
1696000854756,-0.86621094,-0.09375,-0.25683594,-67.15625,71.78125,-43.625,0.0,0.0,0.0
1696000854794,-1.15625,0.08691406,-0.14355469,-45.875,32.09375,-5.84375,0.0,0.0,0.0
1696000854835,-0.6015625,0.08203125,-0.8623047,-60.03125,-11.25,9.34375,0.0,0.0,0.0
1696000854875,-0.13769531,0.16992188,-0.29882812,-30.71875,7.0,17.59375,0.0,0.0,0.0
1696000854915,0.30371094,0.045898438,0.32714844,-47.28125,-19.84375,30.65625,0.0,0.0,0.0
1696000854955,-0.30078125,-0.26464844,0.5058594,-66.75,27.8125,17.15625,0.0,0.0,0.0
1696000854995,-1.5566406,-0.05859375,-0.5859375,-9.3125,-97.59375,-4.5,-101.5625,21.1875,-51.8125
1696000855035,-2.0,0.6816406,1.4228516,14.0,-142.90625,-20.625,0.0,0.0,0.0
1696000855076,-2.0,0.24902344,0.19238281,-31.75,-1.90625,-8.65625,0.0,0.0,0.0
1696000855134,-2.0,0.74121094,0.5107422,-0.09375,44.4375,-5.78125,0.0,0.0,0.0
1696000855154,-2.0,0.08496094,0.6376953,-23.34375,77.375,-7.25,0.0,0.0,0.0
1696000855195,-2.0,0.20214844,0.2548828,-67.21875,131.21875,-22.28125,0.0,0.0,0.0
1696000855234,-0.3779297,0.171875,-1.4150391,12.90625,21.65625,30.15625,0.0,0.0,0.0
1696000855275,0.43945312,0.0546875,-1.3496094,7.125,-16.78125,31.0625,0.0,0.0,0.0
1696000855315,0.33007812,0.07519531,0.203125,107.46875,-246.96875,-8.15625,0.0,0.0,0.0
1696000855355,-0.0390625,-0.36816406,0.46777344,56.125,-193.5625,48.21875,0.0,0.0,0.0
1696000855416,-0.9609375,0.2548828,1.1152344,-16.625,-19.53125,39.4375,0.0,0.0,0.0
1696000855435,0.2763672,-0.29003906,0.5761719,-31.875,162.28125,20.6875,0.0,0.0,0.0
1696000855475,0.25878906,-0.11621094,0.74609375,-6.3125,22.6875,4.71875,0.0,0.0,0.0
1696000855515,-0.11816406,-0.125,0.10644531,-32.125,-84.0625,-69.8125,-96.875,23.4375,-49.125
1696000855555,0.3154297,-0.01953125,-0.76953125,-10.34375,-10.375,-41.96875,0.0,0.0,0.0
1696000855596,-0.00390625,0.047851562,-0.5595703,-53.8125,-4.84375,9.34375,0.0,0.0,0.0
1696000855635,-0.49316406,0.35058594,0.53515625,47.75,211.0,-28.4375,0.0,0.0,0.0
1696000855675,-2.0,-0.068359375,-0.5332031,251.8125,-450.15625,417.4375,0.0,0.0,0.0
1696000855715,-1.7724609,-0.15625,1.1074219,-121.71875,17.21875,-2.625,0.0,0.0,0.0
1696000855755,-2.0,0.17773438,0.8496094,22.8125,52.25,-35.75,0.0,0.0,0.0
1696000855795,-1.3808594,-0.061523438,-0.3955078,-20.90625,78.65625,9.78125,0.0,0.0,0.0
1696000855836,-0.86035156,0.31152344,0.22070312,51.25,46.125,16.625,0.0,0.0,0.0
1696000855895,-0.4501953,0.24023438,-0.005859375,42.9375,60.40625,18.9375,0.0,0.0,0.0
1696000855915,-0.45996094,0.10058594,0.16113281,33.1875,32.03125,21.4375,0.0,0.0,0.0
1696000855955,-0.40429688,-0.13964844,-0.15136719,37.15625,6.59375,3.5,0.0,0.0,0.0
1696000855995,-0.22265625,0.10839844,-0.29589844,40.375,21.46875,-25.9375,-99.0,20.875,-60.625
1696000856037,-1.2294922,0.3701172,-0.00390625,41.125,-1.96875,-19.8125,0.0,0.0,0.0
1696000856075,-1.6708984,-0.12402344,-0.02734375,7.3125,-3.3125,24.375,0.0,0.0,0.0
1696000856116,-1.1201172,-0.013671875,0.20996094,-1.71875,-18.9375,-6.8125,0.0,0.0,0.0
1696000856155,-1.1152344,0.19726562,0.0703125,-14.375,25.75,-34.78125,0.0,0.0,0.0
1696000856195,-1.15625,-0.14160156,-0.083984375,-22.0625,55.65625,-28.625,0.0,0.0,0.0
1696000856236,-0.93847656,0.07324219,0.21386719,-18.8125,59.9375,-30.9375,0.0,0.0,0.0
1696000856275,-0.8613281,-0.034179688,0.09667969,-34.09375,37.15625,-14.625,0.0,0.0,0.0
1696000856316,-0.68847656,-0.16894531,-0.022460938,-29.25,36.84375,-9.4375,0.0,0.0,0.0
1696000856355,-0.9902344,-0.036132812,0.16601562,-19.75,19.84375,5.0625,0.0,0.0,0.0
1696000856395,-0.9326172,-0.11621094,0.09667969,-15.03125,6.71875,14.15625,0.0,0.0,0.0
1696000856436,-0.94140625,-0.13378906,0.107421875,-12.65625,1.59375,18.125,0.0,0.0,0.0
1696000856476,-1.1171875,-0.078125,0.08105469,-2.96875,28.9375,11.53125,0.0,0.0,0.0
1696000856514,-1.3388672,-0.28320312,-0.18847656,11.875,36.5,-3.34375,-103.1875,16.6875,-70.125
1696000856556,-1.6435547,0.032226562,-0.30664062,16.5625,23.1875,2.8125,0.0,0.0,0.0
1696000856595,-1.7792969,0.1796875,-0.50390625,19.5625,-15.21875,18.5,0.0,0.0,0.0
1696000856655,-1.0839844,0.15039062,-0.48339844,27.3125,-44.0,12.875,0.0,0.0,0.0
1696000856675,-1.0097656,0.3125,-0.16894531,39.09375,-97.90625,10.75,0.0,0.0,0.0
1696000856715,-1.3173828,0.2578125,-0.03125,29.53125,-156.5625,35.65625,0.0,0.0,0.0
1696000856754,-1.0810547,0.16601562,-0.025390625,-3.125,-160.40625,53.21875,0.0,0.0,0.0
1696000856795,-0.8154297,0.15820312,0.028320312,-9.1875,-121.78125,59.75,0.0,0.0,0.0
1696000856835,-0.4501953,0.13085938,0.115234375,-1.1875,-68.625,46.59375,0.0,0.0,0.0
1696000856875,-0.55859375,0.06347656,0.20117188,1.5,-29.5,17.34375,0.0,0.0,0.0
1696000856915,-0.6513672,0.020507812,0.22851562,19.09375,34.21875,4.9375,0.0,0.0,0.0
1696000856955,-0.52441406,0.3017578,0.375,23.59375,-1.09375,-1.8125,0.0,0.0,0.0
1696000856996,-0.5996094,0.15820312,0.41601562,31.59375,-50.53125,9.34375,-94.8125,26.125,-53.1875
1696000857036,-0.69921875,0.048828125,0.39941406,37.03125,-0.6875,-12.75,0.0,0.0,0.0
1696000857075,-1.3017578,0.34375,0.23925781,20.90625,14.28125,-41.625,0.0,0.0,0.0
1696000857116,-1.7548828,0.7939453,0.33398438,-4.71875,-78.1875,-1.6875,0.0,0.0,0.0
1696000857155,-1.1962891,0.2685547,0.02734375,-40.75,94.0,-8.78125,0.0,0.0,0.0
1696000857195,-1.2402344,0.23632812,-0.21386719,8.28125,44.5625,-18.90625,0.0,0.0,0.0
1696000857235,-1.0771484,0.23632812,-0.08886719,12.5625,81.59375,-29.84375,0.0,0.0,0.0
1696000857295,-0.9511719,-0.0048828125,0.09765625,3.40625,90.4375,-25.25,0.0,0.0,0.0
1696000857314,-0.7783203,0.09765625,-0.001953125,-3.8125,55.78125,-55.15625,0.0,0.0,0.0
1696000857355,-0.67285156,0.04296875,0.016601562,2.46875,95.875,-45.46875,0.0,0.0,0.0
1696000857415,-0.61328125,-0.06542969,-0.09765625,-13.6875,96.65625,-42.09375,0.0,0.0,0.0
1696000857434,-0.7832031,0.18652344,0.07519531,-15.84375,97.53125,-32.21875,0.0,0.0,0.0
1696000857474,-0.8105469,-0.013671875,-0.022460938,-29.125,55.21875,-11.90625,0.0,0.0,0.0
1696000857515,-0.9472656,-0.10839844,-0.08300781,-22.125,42.09375,-2.8125,-101.5625,20.875,-68.4375
1696000857555,-1.2070312,0.0068359375,-0.036132812,-19.5625,16.40625,3.78125,0.0,0.0,0.0
1696000857595,-1.2089844,-0.10449219,-0.107421875,-16.5625,-15.875,10.875,0.0,0.0,0.0
1696000857634,-1.4394531,-0.39257812,-0.45703125,5.46875,-24.25,-1.75,0.0,0.0,0.0
1696000857675,-1.5908203,0.3310547,-0.484375,12.1875,-18.8125,-6.28125,0.0,0.0,0.0
1696000857715,-1.3798828,0.31933594,-0.38964844,-14.4375,-28.15625,6.34375,0.0,0.0,0.0
1696000857755,-1.0029297,0.21386719,-0.21582031,-6.4375,-103.875,27.78125,0.0,0.0,0.0
1696000857795,-1.2460938,-0.0703125,0.119140625,10.53125,-186.53125,29.78125,0.0,0.0,0.0
1696000857835,-0.83203125,0.13085938,-0.13964844,30.6875,-82.15625,52.6875,0.0,0.0,0.0
1696000857875,-0.5644531,0.23339844,-0.016601562,9.5625,-64.34375,63.25,0.0,0.0,0.0
1696000857915,-0.4873047,0.24121094,0.13378906,7.46875,-61.71875,54.21875,0.0,0.0,0.0
1696000857955,-0.5214844,0.038085938,0.13183594,2.21875,-16.78125,35.53125,0.0,0.0,0.0
1696000857996,-0.49121094,0.09375,0.20019531,12.375,-14.34375,16.84375,-95.375,27.5,-51.5
1696000858036,-0.5908203,0.30664062,0.38183594,4.3125,-0.0625,15.5625,0.0,0.0,0.0
1696000858075,-1.0087891,0.2705078,0.5126953,6.1875,31.25,-6.46875,0.0,0.0,0.0
1696000858115,-1.2802734,0.3544922,0.6064453,7.96875,0.40625,-21.0,0.0,0.0,0.0
1696000858175,-1.7451172,0.53125,0.53515625,-17.25,-81.84375,-39.0625,0.0,0.0,0.0
1696000858195,-1.2490234,0.32714844,0.30078125,4.25,55.03125,17.40625,0.0,0.0,0.0
1696000858235,-1.1865234,0.09667969,-0.017578125,-8.9375,49.625,-27.75,0.0,0.0,0.0
1696000858274,-1.1064453,0.09472656,-0.21875,14.9375,45.78125,-45.15625,0.0,0.0,0.0
1696000858315,-1.0019531,0.24316406,0.18164062,2.96875,100.53125,-34.71875,0.0,0.0,0.0
1696000858356,-0.94140625,0.07910156,-0.04296875,-33.34375,36.1875,-49.3125,0.0,0.0,0.0
1696000858395,-0.42382812,0.0078125,-0.07519531,-12.59375,96.625,-51.1875,0.0,0.0,0.0
1696000858435,-0.6425781,-0.07519531,-0.14257812,-9.4375,109.25,-46.875,0.0,0.0,0.0
1696000858476,-0.6777344,0.12988281,-0.11230469,-16.6875,100.28125,-28.875,0.0,0.0,0.0
1696000858515,-0.69140625,0.061523438,-0.05859375,-38.1875,57.96875,-9.34375,-100.5,20.125,-66.0625
1696000858554,-0.74316406,-0.107421875,-0.1640625,-25.53125,51.125,-2.3125,0.0,0.0,0.0
1696000858595,-1.3398438,0.041992188,-0.08691406,-24.5,22.09375,1.15625,0.0,0.0,0.0
1696000858636,-1.5009766,-0.11328125,0.005859375,-33.84375,-10.75,5.1875,0.0,0.0,0.0
1696000858675,-1.3759766,-0.4296875,-0.46289062,22.3125,-18.375,-5.125,0.0,0.0,0.0
1696000858716,-1.5185547,0.453125,-0.6777344,27.4375,-31.3125,7.46875,0.0,0.0,0.0
1696000858755,-1.1679688,0.29101562,-0.41601562,17.375,-42.3125,18.25,0.0,0.0,0.0
1696000858794,-0.94921875,0.125,-0.2763672,8.40625,-114.9375,28.6875,0.0,0.0,0.0
1696000858836,-1.1435547,0.12695312,-0.14453125,-4.0625,-176.09375,17.53125,0.0,0.0,0.0
1696000858875,-0.83203125,0.18066406,-0.08496094,8.53125,-118.65625,45.46875,0.0,0.0,0.0
1696000858935,-0.7236328,0.05078125,-0.018554688,-6.1875,-61.03125,52.6875,0.0,0.0,0.0
1696000858955,-0.4794922,0.10253906,0.1328125,8.9375,-22.90625,41.9375,0.0,0.0,0.0
1696000858994,-0.39257812,0.078125,0.07714844,12.65625,-29.625,29.0,-94.625,27.5,-50.1875
1696000859035,-0.4951172,0.16992188,0.28027344,24.15625,-37.90625,12.53125,0.0,0.0,0.0
1696000859076,-0.7294922,0.24414062,0.39257812,24.8125,-7.5,11.4375,0.0,0.0,0.0
1696000859116,-1.2470703,0.265625,0.4580078,24.375,21.96875,-7.8125,0.0,0.0,0.0
1696000859153,-1.5,0.34765625,0.20996094,31.15625,-64.46875,-16.40625,0.0,0.0,0.0
1696000859195,-1.8105469,0.5810547,0.32617188,-18.6875,20.6875,0.875,0.0,0.0,0.0
1696000859235,-1.234375,0.19921875,0.03515625,-7.84375,65.125,-19.09375,0.0,0.0,0.0
1696000859275,-1.0107422,0.119140625,-0.20019531,6.875,53.21875,-39.0625,0.0,0.0,0.0
1696000859315,-0.99902344,0.25878906,-0.0029296875,-7.96875,107.84375,-36.0,0.0,0.0,0.0
1696000859355,-0.953125,-9.765625E-4,0.057617188,-44.59375,64.75,-40.8125,0.0,0.0,0.0
1696000859394,-0.5175781,0.03125,-0.17480469,-21.03125,88.84375,-42.21875,0.0,0.0,0.0
1696000859435,-0.46679688,-0.059570312,-0.13085938,-15.84375,88.84375,-38.125,0.0,0.0,0.0
1696000859475,-0.51464844,0.11230469,-0.16308594,-14.5,93.75,-34.71875,0.0,0.0,0.0
1696000859514,-0.7607422,0.076171875,-0.103515625,-32.3125,62.5,-26.0,-102.3125,22.375,-61.375
1696000859555,-1.0722656,-0.103515625,-0.19628906,-40.1875,48.34375,-5.59375,0.0,0.0,0.0
1696000859595,-1.3652344,-0.08886719,0.12988281,-25.21875,13.65625,11.375,0.0,0.0,0.0
1696000859634,-1.1445312,-0.13574219,-0.06933594,-9.59375,-6.65625,2.6875,0.0,0.0,0.0
1696000859695,-1.5107422,-0.083984375,-0.3544922,13.21875,-4.90625,-2.5625,0.0,0.0,0.0
1696000859714,-1.5175781,0.10839844,-0.5,27.0625,-10.1875,-5.25,0.0,0.0,0.0
1696000859754,-1.4003906,0.3330078,-0.61816406,-5.625,-36.15625,9.78125,0.0,0.0,0.0
1696000859795,-0.9267578,0.27929688,-0.28515625,12.65625,-91.4375,21.375,0.0,0.0,0.0
1696000859835,-0.9453125,-0.026367188,0.06738281,27.25,-148.9375,27.0625,0.0,0.0,0.0
1696000859875,-0.83496094,0.11425781,-0.31640625,8.09375,-173.59375,29.6875,0.0,0.0,0.0
1696000859915,-0.7373047,0.09863281,0.032226562,21.21875,-66.0625,53.125,0.0,0.0,0.0
1696000859955,-0.69921875,0.036132812,0.0703125,23.34375,-40.96875,41.21875,0.0,0.0,0.0
1696000859994,-0.5986328,0.068359375,0.123046875,29.03125,-90.28125,33.09375,-94.8125,26.125,-49.5625
1696000860035,-0.62402344,0.17382812,0.16699219,20.71875,-41.03125,13.75,0.0,0.0,0.0
1696000860075,-0.5546875,0.25683594,0.29003906,38.5625,-1.96875,13.1875,0.0,0.0,0.0
1696000860115,-0.9873047,0.18261719,0.5625,14.375,-6.78125,0.625,0.0,0.0,0.0
1696000860155,-1.0810547,0.27929688,0.5136719,15.90625,-0.5625,-15.3125,0.0,0.0,0.0
1696000860196,-1.75,0.390625,0.55859375,7.65625,-52.1875,-27.15625,0.0,0.0,0.0
1696000860235,-1.2734375,0.35546875,0.39453125,-16.25,69.875,15.03125,0.0,0.0,0.0
1696000860275,-1.3222656,0.3125,9.765625E-4,-6.5625,52.40625,-29.46875,0.0,0.0,0.0
1696000860315,-1.1142578,0.20214844,-0.13085938,3.21875,52.375,-34.65625,0.0,0.0,0.0
1696000860355,-0.99121094,0.028320312,0.04296875,9.9375,85.1875,-29.15625,0.0,0.0,0.0
1696000860394,-0.84765625,0.037109375,9.765625E-4,0.71875,55.71875,-33.6875,0.0,0.0,0.0
1696000860455,-0.77734375,0.091796875,-0.10253906,-7.84375,88.0625,-41.875,0.0,0.0,0.0
1696000860475,-0.4921875,-0.09765625,-0.04296875,-0.6875,82.15625,-39.96875,0.0,0.0,0.0
1696000860516,-0.4580078,-0.00390625,-0.24804688,-0.8125,106.125,-39.96875,-101.6875,23.3125,-58.6875
1696000860555,-0.7890625,0.22460938,0.0390625,-17.96875,95.21875,-28.1875,0.0,0.0,0.0
1696000860595,-0.8486328,-0.0048828125,-0.28710938,-38.40625,50.90625,-16.90625,0.0,0.0,0.0
1696000860635,-1.3359375,-0.038085938,0.03125,-25.46875,27.8125,4.09375,0.0,0.0,0.0
1696000860675,-1.2578125,-0.1484375,0.0068359375,-17.3125,-3.25,2.75,0.0,0.0,0.0
1696000860715,-1.4697266,-0.01953125,-0.31054688,-6.375,-10.125,2.03125,0.0,0.0,0.0
1696000860755,-1.4355469,-0.07910156,-0.40722656,29.28125,-14.53125,3.25,0.0,0.0,0.0
1696000860796,-1.3964844,0.33691406,-0.6933594,7.125,-38.8125,9.71875,0.0,0.0,0.0
1696000860835,-1.0214844,0.32617188,-0.4892578,18.53125,-71.53125,24.59375,0.0,0.0,0.0
1696000860875,-0.9716797,0.12207031,-0.1484375,-2.90625,-104.0,21.375,0.0,0.0,0.0
1696000860915,-1.2021484,0.11816406,-0.052734375,2.1875,-179.9375,26.5,0.0,0.0,0.0
1696000860955,-0.671875,0.14746094,-0.115234375,5.40625,-114.09375,54.5625,0.0,0.0,0.0
1696000860995,-0.66503906,0.02734375,0.0146484375,14.0,-58.25,56.21875,-97.1875,24.5,-52.5625
1696000861035,-0.51660156,0.03125,0.115234375,23.59375,-66.59375,37.0625,0.0,0.0,0.0
1696000861075,-0.5390625,0.12597656,0.18554688,19.5,-37.84375,29.78125,0.0,0.0,0.0
1696000861116,-0.6279297,0.19921875,0.2265625,19.4375,-33.9375,14.40625,0.0,0.0,0.0
1696000861155,-0.82910156,0.21484375,0.34765625,19.75,9.21875,2.5,0.0,0.0,0.0
1696000861215,-1.0292969,0.32910156,0.44335938,21.15625,2.375,-15.5,0.0,0.0,0.0
1696000861235,-1.0683594,0.37890625,0.29101562,16.21875,8.46875,-7.3125,0.0,0.0,0.0
1696000861275,-1.3427734,0.30566406,0.16699219,-4.84375,-50.71875,-7.6875,0.0,0.0,0.0
1696000861314,-1.2285156,0.40234375,0.23339844,-23.59375,34.46875,16.84375,0.0,0.0,0.0
1696000861355,-1.3330078,0.375,0.005859375,-3.375,57.5625,-17.25,0.0,0.0,0.0
1696000861395,-1.2167969,0.19238281,-0.02734375,-3.875,68.34375,-33.5,0.0,0.0,0.0
1696000861434,-1.0400391,0.041015625,0.03125,-0.4375,79.53125,-30.9375,0.0,0.0,0.0
1696000861476,-0.9003906,0.0625,-0.07910156,-19.0625,62.75,-41.8125,0.0,0.0,0.0
1696000861536,-0.85839844,0.09765625,-0.020507812,-15.90625,72.125,-46.5,-99.875,24.0625,-55.875
1696000861554,-0.53222656,-0.034179688,-0.09667969,-13.09375,87.15625,-39.96875,0.0,0.0,0.0
1696000861594,-0.5859375,0.00390625,-0.15039062,-21.21875,106.5,-41.8125,0.0,0.0,0.0
1696000861635,-0.70703125,0.076171875,0.043945312,-20.78125,98.0,-22.9375,0.0,0.0,0.0
1696000861674,-0.6748047,0.04296875,-0.14453125,-38.90625,56.3125,-11.71875,0.0,0.0,0.0
1696000861716,-0.87402344,-0.05859375,-0.23535156,-24.5,37.40625,-2.625,0.0,0.0,0.0
1696000861756,-1.3134766,-0.0048828125,0.047851562,-30.71875,19.40625,-2.6875,0.0,0.0,0.0
1696000861794,-1.3701172,-0.16503906,-0.28515625,-15.21875,-16.84375,7.625,0.0,0.0,0.0
1696000861835,-1.4130859,-0.10546875,-0.29101562,19.6875,-16.0,-1.09375,0.0,0.0,0.0
1696000861875,-1.4853516,0.16894531,-0.4814453,20.125,-17.59375,2.5,0.0,0.0,0.0
1696000861914,-1.2089844,0.11425781,-0.5576172,10.96875,-32.28125,9.78125,0.0,0.0,0.0
1696000861975,-0.8964844,0.2421875,-0.40234375,23.96875,-104.375,20.6875,0.0,0.0,0.0
1696000861994,-1.1162109,0.203125,0.047851562,10.28125,-137.65625,19.46875,-100.8125,19.375,-64.25
1696000862034,-1.0078125,0.17285156,-0.29785156,12.59375,-176.65625,33.28125,0.0,0.0,0.0
1696000862075,-0.921875,0.10546875,0.061523438,-3.5625,-86.875,47.6875,0.0,0.0,0.0
1696000862115,-0.7167969,0.13671875,0.10449219,-12.53125,-44.75,41.5,0.0,0.0,0.0
1696000862157,-0.5029297,0.06542969,0.14550781,-0.8125,-45.53125,35.96875,0.0,0.0,0.0
1696000862196,-0.515625,-0.0087890625,0.064453125,6.875,-27.09375,27.53125,0.0,0.0,0.0
1696000862235,-0.5361328,0.18652344,0.31347656,19.25,-17.28125,27.78125,0.0,0.0,0.0
1696000862275,-0.8232422,0.25585938,0.41796875,19.875,-12.03125,8.6875,0.0,0.0,0.0
1696000862315,-1.0810547,0.3076172,0.5800781,6.9375,-11.84375,-26.125,0.0,0.0,0.0
1696000862354,-1.3574219,0.38964844,0.25195312,9.9375,-22.84375,-29.21875,0.0,0.0,0.0
1696000862395,-1.7089844,0.33496094,0.3642578,-20.78125,41.5625,6.96875,0.0,0.0,0.0
1696000862434,-1.1884766,0.20703125,0.11230469,4.0625,59.25,-8.65625,0.0,0.0,0.0
1696000862475,-1.1396484,0.12109375,-0.24316406,4.1875,30.03125,-29.21875,0.0,0.0,0.0
1696000862516,-1.0146484,0.11035156,-0.020507812,11.375,71.21875,-28.1875,-96.875,23.75,-52.25
1696000862555,-0.93652344,0.03515625,-0.038085938,3.875,48.21875,-23.625,0.0,0.0,0.0
1696000862595,-0.8613281,0.115234375,-0.125,-10.875,62.375,-37.84375,0.0,0.0,0.0
1696000862635,-0.7763672,-0.018554688,-0.072265625,-7.96875,89.90625,-32.34375,0.0,0.0,0.0
1696000862675,-0.5878906,0.07421875,-0.18457031,-11.9375,92.71875,-33.9375,0.0,0.0,0.0
1696000862736,-0.6845703,0.049804688,-0.064453125,-24.0625,84.40625,-27.09375,0.0,0.0,0.0
1696000862755,-0.73339844,0.041015625,-0.14355469,-33.84375,66.8125,-15.0625,0.0,0.0,0.0
1696000862796,-0.8730469,-0.068359375,-0.2607422,-22.5625,50.46875,-5.78125,0.0,0.0,0.0
1696000862836,-1.3554688,0.0146484375,0.0126953125,-19.0,22.5,-5.4375,0.0,0.0,0.0
1696000862875,-1.3896484,-0.24023438,-0.18457031,-17.53125,-11.65625,0.1875,0.0,0.0,0.0
1696000862915,-1.421875,-0.26171875,-0.44140625,12.90625,-25.09375,-0.40625,0.0,0.0,0.0
1696000862955,-1.4521484,0.19628906,-0.6591797,35.375,-28.75,8.84375,0.0,0.0,0.0
1696000862995,-1.1064453,0.27246094,-0.41796875,21.59375,-30.34375,18.125,-102.0,18.625,-66.625
1696000863035,-0.82421875,0.20898438,-0.24707031,11.28125,-111.40625,26.75,0.0,0.0,0.0
1696000863075,-1.0498047,0.032226562,0.024414062,7.78125,-169.8125,13.3125,0.0,0.0,0.0
1696000863115,-1.015625,0.16601562,-0.076171875,29.34375,-94.0,38.03125,0.0,0.0,0.0
1696000863155,-0.6455078,0.15332031,0.0126953125,12.375,-86.75,51.8125,0.0,0.0,0.0
1696000863195,-0.69921875,0.1015625,0.12988281,-2.40625,-62.8125,42.25,0.0,0.0,0.0
1696000863235,-0.5449219,0.033203125,0.038085938,5.65625,-42.3125,22.65625,0.0,0.0,0.0
1696000863275,-0.50097656,0.12207031,0.19238281,19.75,-31.0625,16.84375,0.0,0.0,0.0
1696000863315,-0.78808594,0.27246094,0.44921875,17.375,16.59375,14.53125,0.0,0.0,0.0
1696000863355,-1.0957031,0.28320312,0.51171875,16.09375,13.84375,-7.3125,0.0,0.0,0.0
1696000863396,-1.3789062,0.28320312,0.28808594,16.03125,-15.5625,-20.3125,0.0,0.0,0.0
1696000863435,-1.2568359,0.47070312,-0.018554688,-34.03125,-53.71875,-19.34375,0.0,0.0,0.0
1696000863495,-1.1142578,0.24609375,0.10449219,-16.5,102.03125,-5.1875,0.0,0.0,0.0
1696000863515,-1.2666016,0.10839844,-0.16699219,17.8125,21.0,-26.40625,-93.875,27.8125,-49.125
1696000863555,-1.0302734,0.11328125,-0.23339844,11.4375,82.34375,-26.53125,0.0,0.0,0.0
1696000863595,-0.96875,0.11621094,0.056640625,5.53125,78.53125,-21.65625,0.0,0.0,0.0
1696000863635,-0.84277344,0.17773438,-0.0546875,-19.875,65.90625,-48.21875,0.0,0.0,0.0
1696000863675,-0.6308594,-0.0078125,-0.061523438,-9.3125,76.84375,-37.46875,0.0,0.0,0.0
1696000863716,-0.5253906,-0.12988281,-0.1875,-31.40625,95.875,-36.6875,0.0,0.0,0.0
1696000863755,-0.6074219,0.051757812,-0.076171875,-10.15625,114.0625,-21.53125,0.0,0.0,0.0
1696000863795,-0.7685547,0.15722656,-0.1015625,-32.0,75.75,-16.46875,0.0,0.0,0.0
1696000863835,-1.1230469,-0.03515625,-0.21777344,-40.125,45.46875,-8.53125,0.0,0.0,0.0
1696000863875,-1.4609375,-0.13671875,0.01953125,-43.96875,19.09375,-3.78125,0.0,0.0,0.0
1696000863914,-1.3017578,-0.06347656,-0.06933594,-21.5625,-15.875,4.21875,0.0,0.0,0.0
1696000863954,-1.4091797,-0.16601562,-0.34277344,14.5625,-20.21875,2.625,0.0,0.0,0.0
1696000863996,-1.2792969,0.23046875,-0.69628906,1.75,-26.25,7.6875,-103.1875,19.25,-65.125
1696000864034,-1.0351562,0.25,-0.38964844,14.1875,-59.09375,17.34375,0.0,0.0,0.0
1696000864075,-1.0302734,0.171875,-0.25585938,15.34375,-132.15625,18.0,0.0,0.0,0.0
1696000864115,-1.2138672,0.12597656,-0.103515625,-13.9375,-210.8125,9.84375,0.0,0.0,0.0
1696000864155,-1.1044922,0.13769531,-0.024414062,16.75,-71.65625,34.0,0.0,0.0,0.0
1696000864195,-0.7714844,0.1875,0.13867188,-5.28125,-60.25,60.5625,0.0,0.0,0.0
1696000864255,-0.61621094,0.10546875,0.08496094,-10.53125,-55.96875,39.5625,0.0,0.0,0.0
1696000864274,-0.41992188,0.048828125,0.15429688,2.65625,-34.90625,30.59375,0.0,0.0,0.0
1696000864314,-0.4794922,0.14648438,0.19824219,27.75,-9.40625,30.71875,0.0,0.0,0.0
1696000864355,-0.83984375,0.14941406,0.49316406,21.46875,0.3125,8.1875,0.0,0.0,0.0
1696000864395,-1.0117188,0.22851562,0.47460938,33.71875,-37.71875,-6.28125,0.0,0.0,0.0
1696000864435,-1.1630859,0.53125,0.34179688,33.71875,-78.5,-30.9375,0.0,0.0,0.0
1696000864476,-1.484375,0.36523438,0.125,-2.46875,16.65625,-7.8125,0.0,0.0,0.0
1696000864516,-1.1542969,0.28515625,0.056640625,15.40625,60.28125,-20.9375,-95.6875,26.0,-46.25
1696000864555,-1.1279297,0.111328125,-0.11621094,27.8125,37.09375,-39.125,0.0,0.0,0.0
1696000864595,-1.0273438,-0.001953125,-0.07128906,26.71875,59.625,-37.53125,0.0,0.0,0.0
1696000864635,-0.9970703,0.22070312,-0.0107421875,11.625,66.875,-34.65625,0.0,0.0,0.0
1696000864675,-0.9628906,0.18945312,-0.08300781,-7.78125,47.46875,-29.53125,0.0,0.0,0.0
1696000864715,-0.6123047,0.01171875,-0.15234375,-10.46875,91.84375,-32.875,0.0,0.0,0.0
1696000864755,-0.68066406,-0.02734375,-0.01953125,-24.3125,103.6875,-38.03125,0.0,0.0,0.0
1696000864795,-0.6464844,0.06347656,-0.02734375,-27.5625,79.09375,-28.125,0.0,0.0,0.0
1696000864836,-0.6904297,-0.005859375,-0.053710938,-34.9375,57.0,-15.6875,0.0,0.0,0.0
1696000864875,-0.7919922,-0.13476562,-0.029296875,-26.5,70.0,-7.8125,0.0,0.0,0.0
1696000864914,-1.2695312,-0.08203125,0.06347656,-13.34375,32.40625,1.65625,0.0,0.0,0.0
1696000864955,-1.5234375,-0.18652344,-0.18261719,-9.96875,9.625,6.59375,0.0,0.0,0.0
1696000865015,-1.5136719,0.017578125,-0.34570312,28.21875,-6.46875,-0.96875,-103.8125,18.625,-65.3125
1696000865034,-1.609375,0.2626953,-0.6201172,12.1875,-26.75,15.9375,0.0,0.0,0.0
1696000865075,-1.1464844,0.11816406,-0.5126953,23.28125,-52.125,19.0,0.0,0.0,0.0
1696000865114,-0.890625,0.25878906,-0.32128906,18.65625,-98.09375,22.65625,0.0,0.0,0.0
1696000865155,-1.1796875,0.1796875,0.0078125,5.96875,-197.21875,19.90625,0.0,0.0,0.0
1696000865196,-1.1103516,0.11621094,-0.140625,17.75,-92.15625,41.5,0.0,0.0,0.0
1696000865235,-0.6064453,0.016601562,0.038085938,1.0625,-61.59375,61.78125,0.0,0.0,0.0
1696000865275,-0.55371094,0.19824219,0.15039062,0.03125,-56.96875,41.4375,0.0,0.0,0.0
1696000865315,-0.51660156,0.080078125,0.111328125,2.125,-44.9375,23.625,0.0,0.0,0.0
1696000865355,-0.48339844,0.045898438,0.20703125,17.125,-21.96875,13.9375,0.0,0.0,0.0
1696000865395,-0.7246094,0.20410156,0.375,25.90625,18.125,16.4375,0.0,0.0,0.0
1696000865435,-0.9140625,0.2578125,0.41992188,34.875,-20.625,-1.875,0.0,0.0,0.0
1696000865475,-1.1933594,0.42871094,0.4033203,34.28125,-21.90625,-19.15625,0.0,0.0,0.0
1696000865516,-1.2773438,0.6982422,-0.018554688,-11.375,-82.34375,-24.46875,-96.3125,27.3125,-46.4375
1696000865555,-1.2949219,0.265625,0.10839844,-15.96875,71.59375,-20.3125,0.0,0.0,0.0
1696000865595,-0.9472656,-0.07910156,-0.2529297,2.21875,44.84375,-23.0625,0.0,0.0,0.0
1696000865635,-1.046875,0.17871094,-0.11425781,6.5,55.59375,-31.1875,0.0,0.0,0.0
1696000865675,-1.1230469,0.24804688,0.08496094,-21.25,77.03125,-27.875,0.0,0.0,0.0
1696000865715,-0.9433594,0.12890625,-0.1484375,-35.59375,44.78125,-38.375,0.0,0.0,0.0
1696000865775,-0.5908203,-0.0390625,-0.08300781,-29.8125,94.84375,-40.75,0.0,0.0,0.0
1696000865795,-0.65722656,-0.005859375,-0.13964844,-26.5625,107.28125,-48.40625,0.0,0.0,0.0
1696000865835,-0.74609375,0.041015625,-0.028320312,-23.21875,80.625,-34.34375,0.0,0.0,0.0
1696000865876,-0.73339844,0.051757812,-0.1015625,-42.3125,56.9375,-19.53125,0.0,0.0,0.0
1696000865915,-0.8388672,-0.17675781,-0.28222656,-34.8125,45.71875,3.1875,0.0,0.0,0.0
1696000865956,-1.1728516,-0.19140625,0.057617188,-21.21875,21.34375,10.15625,0.0,0.0,0.0
1696000865995,-1.2880859,-0.17285156,0.041015625,-4.53125,-9.90625,2.5625,-105.3125,17.5625,-64.875
1696000866036,-1.3974609,-0.25195312,-0.35351562,6.6875,-19.78125,-5.96875,0.0,0.0,0.0
1696000866075,-1.6230469,0.25683594,-0.46875,-1.1875,-10.8125,-2.96875,0.0,0.0,0.0
1696000866114,-1.3095703,0.27441406,-0.6279297,-1.1875,-27.34375,12.28125,0.0,0.0,0.0
1696000866155,-0.82421875,0.16992188,-0.4580078,16.5,-52.8125,27.09375,0.0,0.0,0.0
1696000866195,-0.97265625,0.16992188,-0.20898438,19.3125,-80.03125,20.03125,0.0,0.0,0.0
1696000866237,-1.2265625,0.29101562,-0.24511719,-10.78125,-111.21875,36.3125,0.0,0.0,0.0
1696000866277,-0.7246094,0.265625,-0.19628906,-17.59375,-41.625,48.28125,0.0,0.0,0.0
1696000866314,-0.44726562,0.055664062,-0.0390625,-8.5625,-12.34375,47.875,0.0,0.0,0.0
1696000866354,-0.1640625,0.036132812,-0.103515625,7.125,1.53125,20.53125,0.0,0.0,0.0
1696000866396,-0.048828125,0.01953125,0.107421875,32.4375,-17.15625,-3.84375,0.0,0.0,0.0
1696000866434,-0.005859375,-0.001953125,0.032226562,61.125,-6.96875,7.9375,0.0,0.0,0.0
1696000866475,-0.16601562,-0.060546875,0.45214844,72.59375,41.9375,25.40625,0.0,0.0,0.0
1696000866535,-1.7548828,0.28320312,0.08203125,0.03125,-185.125,-8.78125,-103.0625,26.3125,-54.375
1696000866555,-2.0,0.68359375,0.6660156,62.84375,-154.5,-28.0,0.0,0.0,0.0
1696000866595,-2.0,0.19824219,0.19433594,-32.6875,71.78125,-30.625,0.0,0.0,0.0
1696000866634,-2.0,0.8964844,0.60546875,-22.125,81.53125,-10.1875,0.0,0.0,0.0
1696000866675,-2.0,0.22460938,0.78125,-85.09375,160.15625,-44.90625,0.0,0.0,0.0
1696000866714,-2.0,-0.2578125,-0.47851562,-68.3125,130.78125,-45.46875,0.0,0.0,0.0
1696000866755,-0.06738281,0.6503906,-1.6816406,11.28125,34.46875,16.84375,0.0,0.0,0.0
1696000866795,0.7675781,0.2763672,-1.0498047,-15.15625,27.53125,37.375,0.0,0.0,0.0
1696000866835,0.98339844,0.038085938,0.14453125,41.25,-200.875,-11.65625,0.0,0.0,0.0
1696000866876,-0.3876953,-0.10839844,0.6230469,80.84375,-144.46875,49.5,0.0,0.0,0.0
1696000866915,-0.99902344,0.009765625,0.99609375,-40.0625,41.0,42.4375,0.0,0.0,0.0
1696000866955,0.3876953,-0.049804688,0.46484375,-40.78125,113.03125,9.90625,0.0,0.0,0.0
1696000866995,-0.08691406,-0.083984375,0.5097656,19.5625,6.28125,-1.6875,-98.6875,25.6875,-47.3125
1696000867035,-0.049804688,-0.05859375,0.43847656,-22.0,-1.78125,-28.3125,0.0,0.0,0.0
1696000867075,-0.00390625,-0.25097656,-0.49121094,-45.3125,6.8125,6.90625,0.0,0.0,0.0
1696000867115,0.6142578,-0.18554688,-0.10449219,35.5,43.5625,5.375,0.0,0.0,0.0
1696000867155,-0.3359375,0.38671875,-0.9111328,-132.40625,79.9375,-46.4375,0.0,0.0,0.0
1696000867196,-2.0,1.7529297,-0.35839844,110.6875,-411.25,282.28125,0.0,0.0,0.0
1696000867235,-1.6611328,-0.86621094,0.8984375,-72.0,35.34375,-8.90625,0.0,0.0,0.0
1696000867296,-1.8173828,-0.11035156,0.2421875,80.59375,13.65625,-22.875,0.0,0.0,0.0
1696000867314,-1.6953125,0.31445312,-0.08496094,74.5,-26.9375,-4.1875,0.0,0.0,0.0
1696000867355,-0.90722656,0.6123047,0.16210938,84.3125,-16.5,15.5625,0.0,0.0,0.0
1696000867396,-0.5625,0.19824219,-0.17089844,42.03125,-17.9375,40.59375,0.0,0.0,0.0
1696000867435,-0.41601562,0.053710938,0.16503906,-5.46875,-49.09375,69.03125,0.0,0.0,0.0
1696000867475,-0.8730469,0.25,0.25390625,8.46875,10.125,40.09375,0.0,0.0,0.0
1696000867516,-0.7519531,0.17480469,0.60253906,-23.40625,117.84375,22.46875,-99.125,26.5625,-52.125
1696000867556,-0.85058594,0.35839844,0.52734375,-26.28125,15.0625,-0.34375,0.0,0.0,0.0
1696000867595,-0.8330078,0.36816406,0.48632812,10.53125,-48.40625,-17.5,0.0,0.0,0.0
1696000867636,-1.4267578,0.69140625,-0.10253906,-53.75,-42.625,-36.84375,0.0,0.0,0.0
1696000867676,-1.1230469,0.2421875,-0.083984375,-104.75,48.21875,0.125,0.0,0.0,0.0
1696000867715,-0.7529297,-0.26953125,-0.31640625,-58.25,20.0625,-37.53125,0.0,0.0,0.0
1696000867756,-0.8720703,-0.0146484375,-0.17675781,-5.34375,98.0,-28.375,0.0,0.0,0.0
1696000867795,-1.3349609,0.265625,0.36523438,-5.75,82.875,-15.8125,0.0,0.0,0.0
1696000867835,-0.8339844,0.022460938,-0.0087890625,-24.6875,70.125,-50.28125,0.0,0.0,0.0
1696000867875,-0.41992188,0.051757812,-0.123046875,-41.28125,49.75,-32.40625,0.0,0.0,0.0
1696000867915,-0.62597656,0.0625,-0.13964844,-45.125,60.28125,-5.125,0.0,0.0,0.0
1696000867955,-1.0830078,0.06347656,0.18554688,-79.1875,26.0625,17.90625,0.0,0.0,0.0
1696000867995,-1.0478516,-0.31445312,-0.14355469,-93.71875,5.125,11.46875,-104.125,15.0625,-66.625
1696000868055,-1.0849609,-0.0546875,0.06640625,-60.5625,6.28125,9.78125,0.0,0.0,0.0
1696000868075,-1.1220703,-0.07421875,-0.20800781,-35.3125,13.46875,-8.0,0.0,0.0,0.0
1696000868116,-1.4599609,-0.12988281,-0.6542969,26.09375,-15.5,-33.1875,0.0,0.0,0.0
1696000868155,-1.2246094,0.2763672,-0.7675781,71.3125,-30.40625,-54.1875,0.0,0.0,0.0
1696000868195,-1.4042969,1.1748047,-0.33691406,120.03125,-64.53125,-18.1875,0.0,0.0,0.0
1696000868235,-1.5341797,0.3388672,-0.46875,11.09375,-124.03125,43.46875,0.0,0.0,0.0
1696000868276,-0.93652344,0.0029296875,-0.24609375,23.09375,-44.3125,53.65625,0.0,0.0,0.0
1696000868316,-0.5996094,0.15429688,-0.1328125,9.6875,-78.8125,50.1875,0.0,0.0,0.0
1696000868355,-0.07421875,0.13769531,-0.24707031,67.53125,-40.15625,15.8125,0.0,0.0,0.0
1696000868395,0.20703125,-0.23925781,-0.0126953125,59.3125,-13.3125,-3.96875,0.0,0.0,0.0
1696000868434,0.27734375,-0.041992188,0.33691406,88.65625,-48.34375,-35.09375,0.0,0.0,0.0
1696000868476,-0.28222656,0.07421875,0.68066406,54.34375,-52.75,-20.625,0.0,0.0,0.0
1696000868515,-1.7207031,0.2109375,0.48828125,44.34375,-197.34375,-10.3125,-98.5625,23.5625,-48.8125
1696000868555,-2.0,0.033203125,0.50097656,103.90625,-40.40625,22.90625,0.0,0.0,0.0
1696000868595,-2.0,0.8173828,0.5644531,-21.9375,79.21875,-29.15625,0.0,0.0,0.0
1696000868634,-2.0,0.23339844,0.53515625,-46.71875,85.75,-17.625,0.0,0.0,0.0
1696000868675,-2.0,0.26464844,0.6582031,-61.625,138.125,1.0,0.0,0.0,0.0
1696000868714,-2.0,0.125,0.55078125,-77.65625,170.71875,-30.6875,0.0,0.0,0.0
1696000868754,-0.6435547,0.026367188,-0.7109375,2.59375,81.09375,8.25,0.0,0.0,0.0
1696000868815,0.58496094,0.22558594,-1.3193359,-33.96875,38.5,4.59375,0.0,0.0,0.0
1696000868834,0.10058594,0.10546875,-0.61035156,48.9375,-42.125,25.71875,0.0,0.0,0.0
1696000868875,0.92285156,0.3173828,1.2392578,149.4375,-79.84375,-21.90625,0.0,0.0,0.0
1696000868915,-1.2587891,-0.375,0.38183594,-80.78125,-37.375,-3.65625,0.0,0.0,0.0
1696000868955,0.18457031,-0.18457031,0.4033203,-41.46875,66.21875,6.125,0.0,0.0,0.0
1696000868993,0.53515625,-0.14648438,0.40429688,-53.8125,52.78125,14.90625,-97.1875,20.875,-52.5625
1696000869036,0.21777344,0.083984375,-0.15527344,-23.65625,-22.46875,-32.71875,0.0,0.0,0.0
1696000869075,-0.061523438,0.0546875,-0.390625,2.71875,-18.625,-22.09375,0.0,0.0,0.0
1696000869115,-0.099609375,0.043945312,-0.78125,-7.90625,6.8125,-13.78125,0.0,0.0,0.0
1696000869155,-0.076171875,-0.056640625,-0.60058594,-22.78125,35.625,26.6875,0.0,0.0,0.0
1696000869195,-1.2255859,0.296875,-1.0976562,-75.53125,84.71875,0.25,0.0,0.0,0.0
1696000869235,-2.0,-1.1748047,0.88183594,-118.1875,-145.75,-16.59375,0.0,0.0,0.0
1696000869275,-1.0546875,0.25683594,0.76953125,-29.1875,-74.90625,-46.5,0.0,0.0,0.0
1696000869314,-1.6455078,0.059570312,0.26953125,75.96875,-16.5625,2.21875,0.0,0.0,0.0
1696000869355,-1.6455078,0.39746094,0.030273438,16.40625,-0.625,20.625,0.0,0.0,0.0
1696000869395,-0.5185547,0.45117188,0.06347656,35.4375,18.78125,40.34375,0.0,0.0,0.0
1696000869434,-0.74316406,0.29296875,0.59375,-30.0625,24.53125,12.65625,0.0,0.0,0.0
1696000869475,-0.5097656,-0.3984375,0.051757812,-23.09375,23.0,12.71875,0.0,0.0,0.0
1696000869515,-0.07421875,-0.20800781,0.4189453,50.375,0.125,-15.4375,-102.4375,23.3125,-59.4375
1696000869576,-0.3623047,0.26464844,-0.11425781,12.59375,-6.34375,-72.375,0.0,0.0,0.0
1696000869595,-2.0,0.2783203,-0.08886719,28.90625,-74.03125,-9.9375,0.0,0.0,0.0
1696000869634,-1.3134766,0.07714844,0.22363281,2.84375,35.46875,-23.5,0.0,0.0,0.0
1696000869675,-1.0849609,0.12695312,-0.0859375,15.28125,59.5,-34.84375,0.0,0.0,0.0
1696000869715,-1.2089844,-0.08886719,-0.08496094,6.875,91.3125,-32.53125,0.0,0.0,0.0
1696000869755,-1.0302734,0.13085938,0.06738281,-13.875,97.40625,-31.0625,0.0,0.0,0.0
1696000869795,-0.61621094,0.05078125,0.009765625,-24.5625,59.0,-23.78125,0.0,0.0,0.0
1696000869835,-0.7392578,-0.087890625,0.08691406,-22.5,62.3125,-1.21875,0.0,0.0,0.0
1696000869876,-0.9042969,-0.25,-0.1953125,-3.625,36.0,20.5625,0.0,0.0,0.0
1696000869916,-1.2607422,0.08203125,0.047851562,-4.90625,20.3125,15.4375,0.0,0.0,0.0
1696000869955,-1.5634766,-0.5185547,-0.390625,18.09375,-1.09375,12.40625,0.0,0.0,0.0
1696000869996,-1.703125,0.42773438,-0.39160156,27.375,-22.84375,6.28125,-104.6875,18.5,-74.625
1696000870035,-1.3632812,0.09082031,-0.6357422,8.03125,-13.625,7.875,0.0,0.0,0.0
1696000870075,-0.99902344,0.20800781,-0.37597656,41.46875,-103.9375,25.03125,0.0,0.0,0.0
1696000870115,-1.2880859,0.26757812,-0.037109375,51.78125,-185.6875,26.3125,0.0,0.0,0.0
1696000870155,-1.4599609,0.203125,-0.14550781,40.125,-212.71875,53.96875,0.0,0.0,0.0
1696000870195,-0.76953125,0.18847656,0.021484375,20.71875,-75.625,66.0625,0.0,0.0,0.0
1696000870235,-0.6347656,0.23632812,0.10839844,6.1875,-62.4375,51.46875,0.0,0.0,0.0
1696000870275,-0.4970703,0.07519531,0.001953125,-1.84375,2.5,21.0,0.0,0.0,0.0
1696000870335,-0.32714844,0.009765625,0.20800781,5.28125,28.75,14.53125,0.0,0.0,0.0
1696000870355,-0.4609375,0.0859375,0.39257812,9.3125,11.03125,8.625,0.0,0.0,0.0
1696000870394,-0.36035156,0.16992188,0.3720703,27.875,-55.90625,3.90625,0.0,0.0,0.0
1696000870436,-0.8701172,0.20507812,0.38964844,27.6875,-10.3125,-19.40625,0.0,0.0,0.0
1696000870475,-1.3388672,0.31152344,0.03125,31.90625,-59.625,-27.59375,0.0,0.0,0.0
1696000870515,-1.9931641,0.7080078,0.24023438,-26.46875,5.0625,26.3125,-93.3125,29.125,-50.625
1696000870555,-1.0097656,0.2578125,0.17285156,-37.875,104.46875,-10.375,0.0,0.0,0.0
1696000870596,-1.0605469,0.06542969,-0.11328125,4.5,56.8125,-25.75,0.0,0.0,0.0
1696000870635,-1.0957031,0.17773438,0.076171875,-14.84375,115.09375,-29.71875,0.0,0.0,0.0
1696000870675,-1.0771484,0.055664062,0.0859375,-43.90625,79.03125,-42.90625,0.0,0.0,0.0
1696000870715,-0.41503906,0.0126953125,-0.19726562,-9.3125,78.59375,-44.53125,0.0,0.0,0.0
1696000870755,-0.7216797,-0.09082031,-0.1328125,-5.625,117.90625,-42.71875,0.0,0.0,0.0
1696000870794,-0.6953125,0.099609375,0.051757812,5.34375,104.0625,-31.71875,0.0,0.0,0.0
1696000870835,-0.6220703,0.08300781,0.044921875,-25.34375,73.40625,-13.46875,0.0,0.0,0.0
1696000870876,-0.89160156,-0.23925781,-0.38183594,-24.0625,45.71875,1.03125,0.0,0.0,0.0
1696000870914,-1.5644531,0.0234375,0.1328125,6.4375,61.40625,8.84375,0.0,0.0,0.0
1696000870956,-1.3408203,-0.051757812,0.0703125,-7.15625,-17.84375,3.25,0.0,0.0,0.0
1696000870995,-1.5039062,0.087890625,-0.42578125,7.84375,-12.65625,2.375,-102.125,21.5,-72.8125
1696000871033,-1.5283203,0.072265625,-0.46191406,40.1875,-20.53125,0.0625,0.0,0.0,0.0
1696000871095,-1.0712891,0.5058594,-0.60546875,-9.5,-48.96875,-1.03125,0.0,0.0,0.0
1696000871136,-0.9863281,0.5253906,-0.31933594,9.0,-123.65625,26.625,0.0,0.0,0.0
1696000871155,-0.9941406,-0.056640625,0.15917969,-14.90625,-176.34375,11.375,0.0,0.0,0.0
1696000871195,-0.7841797,0.06542969,-0.44726562,3.5625,-149.46875,30.40625,0.0,0.0,0.0
1696000871236,-0.6826172,0.14355469,0.115234375,22.25,-53.21875,72.8125,0.0,0.0,0.0
1696000871274,-0.5263672,0.12597656,0.18359375,20.0,-38.28125,45.25,0.0,0.0,0.0
1696000871316,-0.5888672,0.19433594,0.0390625,8.46875,-32.59375,27.90625,0.0,0.0,0.0
1696000871354,-0.5800781,0.26171875,0.22070312,-1.84375,-2.03125,4.46875,0.0,0.0,0.0
1696000871394,-0.93066406,0.27539062,0.47460938,4.0625,30.15625,8.0625,0.0,0.0,0.0
1696000871435,-0.96875,0.2734375,0.50878906,11.8125,-14.53125,-1.46875,0.0,0.0,0.0
1696000871475,-1.3330078,0.28320312,-0.00390625,-12.90625,-28.09375,-21.34375,0.0,0.0,0.0
1696000871516,-2.0,0.48535156,0.24121094,-24.75,21.59375,-13.28125,-95.6875,27.5,-52.25
1696000871555,-0.9941406,0.19433594,-0.036132812,-4.40625,68.78125,-18.90625,0.0,0.0,0.0
1696000871595,-0.95996094,0.0048828125,-0.24902344,18.34375,35.15625,-32.09375,0.0,0.0,0.0
1696000871635,-1.1464844,0.26464844,0.001953125,3.21875,76.46875,-29.09375,0.0,0.0,0.0
1696000871675,-1.0166016,0.1953125,0.021484375,-26.625,56.5625,-39.125,0.0,0.0,0.0
1696000871716,-0.59765625,-0.00390625,-0.11425781,-25.78125,86.0,-46.1875,0.0,0.0,0.0
1696000871756,-0.7050781,-0.19238281,-0.18164062,-19.0625,107.59375,-36.4375,0.0,0.0,0.0
1696000871795,-0.69921875,0.076171875,-0.07519531,0.09375,97.28125,-25.5625,0.0,0.0,0.0
1696000871855,-0.6982422,0.13378906,-0.07324219,-20.28125,82.09375,-15.0625,0.0,0.0,0.0
1696000871874,-0.7167969,-0.08691406,-0.10449219,-23.40625,58.15625,-11.28125,0.0,0.0,0.0
1696000871914,-1.0625,-0.021484375,0.04296875,-5.09375,36.78125,0.9375,0.0,0.0,0.0
1696000871954,-1.4453125,0.0068359375,0.04296875,-16.125,7.4375,-0.0625,0.0,0.0,0.0
1696000871994,-1.6445312,-0.5683594,-0.7607422,2.53125,-31.9375,8.0,-104.875,18.3125,-73.125
1696000872035,-1.484375,0.40527344,-0.5878906,31.53125,-36.15625,4.34375,0.0,0.0,0.0
1696000872076,-0.9941406,0.38476562,-0.5644531,25.4375,-52.3125,17.71875,0.0,0.0,0.0
1696000872115,-1.0390625,0.26953125,-0.3466797,9.3125,-124.40625,20.28125,0.0,0.0,0.0
1696000872155,-1.2744141,0.1484375,-0.053710938,-16.4375,-178.65625,18.625,0.0,0.0,0.0
1696000872195,-0.83496094,0.13769531,-0.31054688,5.96875,-106.625,40.15625,0.0,0.0,0.0
1696000872235,-0.7216797,0.08105469,0.016601562,-2.40625,-73.1875,61.71875,0.0,0.0,0.0
1696000872276,-0.5253906,0.19628906,0.19921875,5.15625,-54.625,46.8125,0.0,0.0,0.0
1696000872316,-0.5332031,0.0625,0.0234375,4.625,-26.625,21.0,0.0,0.0,0.0
1696000872355,-0.5527344,0.06542969,0.16308594,21.59375,11.84375,14.53125,0.0,0.0,0.0
1696000872395,-0.7470703,0.26367188,0.3310547,30.0625,1.6875,14.65625,0.0,0.0,0.0
1696000872435,-0.98828125,0.21484375,0.37597656,38.1875,-14.15625,-8.90625,0.0,0.0,0.0
1696000872475,-1.2373047,0.3779297,0.24414062,44.28125,-68.5625,-21.0,0.0,0.0,0.0
1696000872516,-1.3457031,0.56152344,-0.059570312,-8.625,-72.9375,-11.53125,-97.5,26.75,-50.4375
1696000872555,-1.2099609,0.19824219,0.06640625,-41.28125,98.9375,-18.0625,0.0,0.0,0.0
1696000872614,-0.9609375,0.09375,-0.21972656,-2.21875,31.4375,-25.125,0.0,0.0,0.0
1696000872635,-1.0810547,0.17871094,-0.09082031,-12.40625,70.125,-34.59375,0.0,0.0,0.0
1696000872674,-1.0107422,0.13574219,0.111328125,-28.15625,71.28125,-29.21875,0.0,0.0,0.0
1696000872715,-0.9560547,0.10449219,-0.078125,-47.9375,52.0625,-34.96875,0.0,0.0,0.0
1696000872755,-0.72265625,-0.018554688,-0.07714844,-31.53125,91.0625,-30.6875,0.0,0.0,0.0
1696000872795,-0.6845703,-0.111328125,-0.140625,-20.40625,100.28125,-30.4375,0.0,0.0,0.0
1696000872836,-0.73828125,0.10546875,-0.08984375,-17.65625,91.59375,-21.21875,0.0,0.0,0.0
1696000872875,-0.7763672,0.15625,0.020507812,-36.46875,58.46875,-13.53125,0.0,0.0,0.0
1696000872916,-0.9082031,-0.15917969,-0.04296875,-36.78125,60.0625,-5.71875,0.0,0.0,0.0
1696000872955,-1.109375,-0.103515625,-0.04296875,-5.59375,42.53125,5.9375,0.0,0.0,0.0
1696000872995,-1.4755859,0.0546875,0.17382812,-12.90625,16.46875,17.90625,-103.9375,15.625,-72.1875
1696000873035,-1.4892578,-0.3515625,-0.59765625,6.25,-33.40625,9.96875,0.0,0.0,0.0
1696000873075,-1.5888672,0.18847656,-0.4501953,46.78125,-42.4375,1.71875,0.0,0.0,0.0
1696000873115,-1.0292969,0.38867188,-0.64160156,29.28125,-41.28125,16.71875,0.0,0.0,0.0
1696000873156,-0.92089844,0.31347656,-0.296875,36.53125,-104.6875,30.96875,0.0,0.0,0.0
1696000873194,-1.1025391,9.765625E-4,0.17578125,29.8125,-186.96875,26.9375,0.0,0.0,0.0
1696000873236,-0.82421875,0.21875,-0.22363281,9.3125,-95.65625,37.96875,0.0,0.0,0.0
1696000873275,-0.67871094,0.053710938,0.04296875,-2.90625,-59.21875,47.8125,0.0,0.0,0.0
1696000873314,-0.59765625,0.17675781,0.18945312,9.125,-53.53125,34.0,0.0,0.0,0.0
1696000873375,-0.49316406,0.09667969,0.044921875,8.6875,-15.375,20.46875,0.0,0.0,0.0
1696000873395,-0.5527344,0.21484375,0.1640625,14.875,6.65625,13.3125,0.0,0.0,0.0
1696000873434,-0.8105469,0.2763672,0.33984375,15.84375,24.59375,14.09375,0.0,0.0,0.0
1696000873475,-1.0273438,0.31054688,0.5449219,16.40625,3.71875,-4.25,0.0,0.0,0.0
1696000873514,-1.4101562,0.3798828,0.41015625,20.0,-81.96875,-24.96875,-100.375,25.375,-54.8125
1696000873554,-1.7753906,0.3876953,0.5673828,-20.53125,9.09375,-3.21875,0.0,0.0,0.0
1696000873595,-1.2119141,0.21972656,0.0625,6.6875,59.75,-21.71875,0.0,0.0,0.0
1696000873635,-1.0849609,0.064453125,-0.16796875,24.03125,41.75,-33.6875,0.0,0.0,0.0
1696000873675,-1.1259766,0.14355469,0.08203125,28.53125,77.625,-29.65625,0.0,0.0,0.0
1696000873715,-1.0517578,0.15722656,-0.026367188,1.25,57.5625,-33.625,0.0,0.0,0.0
1696000873756,-0.73046875,0.17675781,-0.09667969,-11.5,76.15625,-47.53125,0.0,0.0,0.0
1696000873794,-0.5605469,0.026367188,-0.103515625,-14.75,107.90625,-34.53125,0.0,0.0,0.0
1696000873835,-0.6376953,0.048828125,-0.16210938,-22.5,109.1875,-30.625,0.0,0.0,0.0
1696000873876,-0.6875,0.099609375,-0.06542969,-34.875,91.0625,-14.6875,0.0,0.0,0.0
1696000873915,-0.7285156,-0.064453125,-0.0146484375,-52.15625,67.0625,-4.3125,0.0,0.0,0.0
1696000873955,-1.0244141,-0.15039062,-0.0859375,-40.0625,40.21875,-4.9375,0.0,0.0,0.0
1696000873995,-1.5537109,-0.060546875,-0.056640625,-25.53125,6.9375,-1.875,-104.125,19.0625,-74.4375
1696000874035,-1.5898438,-0.5214844,-0.37695312,6.375,-16.90625,-6.78125,0.0,0.0,0.0
1696000874075,-1.5292969,0.39160156,-0.4873047,35.1875,-38.09375,2.375,0.0,0.0,0.0
1696000874135,-1.0605469,0.33007812,-0.6015625,27.4375,-46.9375,19.53125,0.0,0.0,0.0
1696000874155,-0.9238281,0.29492188,-0.2626953,20.1875,-115.59375,19.1875,0.0,0.0,0.0
1696000874195,-1.1210938,0.1015625,0.076171875,1.4375,-216.0625,6.46875,0.0,0.0,0.0
1696000874235,-1.0292969,0.10644531,-0.15527344,27.125,-97.96875,35.34375,0.0,0.0,0.0
1696000874275,-0.5908203,0.14550781,-0.0029296875,7.84375,-64.40625,58.1875,0.0,0.0,0.0
1696000874315,-0.63378906,0.08984375,0.12988281,-1.3125,-45.28125,45.1875,0.0,0.0,0.0
1696000874355,-0.4609375,0.12207031,-0.041992188,23.09375,-64.28125,19.78125,0.0,0.0,0.0
1696000874395,-0.36328125,0.27539062,0.26464844,15.0,-16.5625,18.25,0.0,0.0,0.0
1696000874435,-0.9189453,0.18261719,0.55566406,7.59375,60.59375,5.5,0.0,0.0,0.0
1696000874475,-1.1494141,0.24316406,0.6230469,17.0,11.34375,1.28125,0.0,0.0,0.0
1696000874515,-1.2353516,0.40722656,-0.091796875,30.25,-83.875,-14.625,-98.5625,27.3125,-55.25
1696000874555,-1.6074219,0.46289062,-0.064453125,-15.84375,-10.4375,-23.375,0.0,0.0,0.0
1696000874595,-0.9736328,0.32226562,0.16699219,-6.4375,97.84375,-15.625,0.0,0.0,0.0
1696000874635,-0.9824219,-0.013671875,-0.29492188,7.125,33.0625,-27.15625,0.0,0.0,0.0
1696000874675,-1.1914062,0.33789062,-0.033203125,-2.71875,81.09375,-30.625,0.0,0.0,0.0
1696000874715,-1.2197266,0.24902344,0.05078125,-47.5,81.59375,-39.53125,0.0,0.0,0.0
1696000874755,-0.67871094,0.0048828125,-0.125,-42.6875,95.5625,-42.96875,0.0,0.0,0.0
1696000874794,-0.6113281,-0.24023438,-0.032226562,-31.8125,108.625,-36.375,0.0,0.0,0.0
1696000874835,-0.546875,0.08203125,-0.16113281,-14.125,104.0,-32.15625,0.0,0.0,0.0
1696000874894,-0.72558594,0.18652344,-0.09082031,-22.96875,82.21875,-10.0,0.0,0.0,0.0
1696000874915,-0.7285156,0.038085938,-0.20117188,-36.78125,53.21875,-6.9375,0.0,0.0,0.0
1696000874955,-1.3007812,0.036132812,0.0126953125,-32.5625,26.125,6.84375,0.0,0.0,0.0
1696000874995,-1.4658203,-0.15527344,-0.028320312,-29.5625,-3.0,2.625,-102.875,19.25,-73.5625
1696000875036,-1.4111328,-0.57128906,-0.54296875,9.4375,-12.53125,-3.46875,0.0,0.0,0.0
1696000875075,-1.5751953,0.40722656,-0.5439453,34.46875,-16.90625,12.46875,0.0,0.0,0.0
1696000875115,-1.0566406,0.3154297,-0.6376953,20.375,-34.90625,26.5,0.0,0.0,0.0
1696000875155,-0.92089844,0.23144531,-0.38867188,20.125,-118.78125,32.53125,0.0,0.0,0.0
1696000875196,-1.0019531,0.15234375,0.07128906,15.65625,-171.28125,10.6875,0.0,0.0,0.0
1696000875235,-0.85546875,0.14257812,-0.26660156,-14.78125,-177.5,22.71875,0.0,0.0,0.0
1696000875275,-0.6953125,0.072265625,-0.0068359375,8.09375,-84.0625,62.21875,0.0,0.0,0.0
1696000875315,-0.67871094,0.13476562,0.21386719,9.75,-35.96875,41.4375,0.0,0.0,0.0
1696000875355,-0.6113281,0.25,-0.009765625,12.0,-49.5625,33.28125,0.0,0.0,0.0
1696000875395,-0.5683594,0.203125,0.21484375,15.125,7.3125,1.28125,0.0,0.0,0.0
1696000875436,-0.86328125,0.22167969,0.39160156,26.65625,41.1875,7.21875,0.0,0.0,0.0
1696000875475,-1.1640625,0.23242188,0.57421875,35.375,8.0625,8.3125,0.0,0.0,0.0
1696000875515,-1.1484375,0.13085938,0.11035156,34.9375,-58.78125,-19.21875,-98.875,26.5625,-55.5625
1696000875555,-1.7978516,0.484375,0.1015625,-13.6875,-48.78125,-23.6875,0.0,0.0,0.0
1696000875595,-0.9501953,0.14355469,-0.083984375,-31.09375,89.53125,-20.9375,0.0,0.0,0.0
1696000875655,-0.90234375,0.040039062,-0.38183594,19.25,40.40625,-19.59375,0.0,0.0,0.0
1696000875675,-1.2119141,0.328125,0.064453125,-1.25,104.53125,-28.75,0.0,0.0,0.0
1696000875714,-0.9423828,0.15722656,0.055664062,-32.125,68.21875,-41.9375,0.0,0.0,0.0
1696000875755,-0.4326172,0.0,-0.05859375,-26.03125,99.59375,-46.5625,0.0,0.0,0.0
1696000875795,-0.49804688,-0.15429688,-0.16894531,-20.09375,102.78125,-39.53125,0.0,0.0,0.0
1696000875835,-0.70410156,0.119140625,-0.06640625,-5.6875,107.0625,-24.28125,0.0,0.0,0.0
1696000875875,-0.7451172,0.19335938,-0.09375,-27.78125,69.3125,-17.5,0.0,0.0,0.0
1696000875915,-0.92578125,-0.109375,-0.3203125,-37.9375,50.96875,-7.875,0.0,0.0,0.0
1696000875956,-1.4726562,-0.16796875,-0.109375,-13.4375,30.6875,6.25,0.0,0.0,0.0
1696000875995,-1.4189453,0.087890625,0.08886719,2.28125,-8.1875,5.75,-103.0625,18.625,-74.4375
1696000876035,-1.4599609,-0.32617188,-0.6376953,17.625,-18.9375,-1.34375,0.0,0.0,0.0
1696000876074,-1.4287109,0.3330078,-0.63964844,32.5625,-38.9375,18.875,0.0,0.0,0.0
1696000876116,-1.1123047,0.3642578,-0.51660156,26.15625,-61.40625,28.375,0.0,0.0,0.0
1696000876157,-0.9746094,0.296875,-0.23535156,14.6875,-131.125,25.40625,0.0,0.0,0.0
1696000876194,-1.171875,0.21386719,-0.12402344,-13.75,-176.78125,19.40625,0.0,0.0,0.0
1696000876235,-0.7841797,0.16308594,-0.19824219,-0.875,-127.625,52.9375,0.0,0.0,0.0
1696000876275,-0.6923828,0.083984375,-0.05859375,-13.09375,-56.84375,66.15625,0.0,0.0,0.0
1696000876314,-0.4814453,0.23242188,0.14453125,6.6875,-38.53125,37.4375,0.0,0.0,0.0
1696000876355,-0.6328125,0.15429688,0.060546875,1.0,-9.90625,21.90625,0.0,0.0,0.0
1696000876415,-0.4794922,0.15917969,0.08984375,5.09375,-7.40625,4.9375,0.0,0.0,0.0
1696000876434,-0.6386719,0.25195312,0.24804688,7.90625,17.375,9.09375,0.0,0.0,0.0
1696000876476,-0.9375,0.15625,0.47265625,19.5,40.34375,0.0625,0.0,0.0,0.0
1696000876514,-1.4658203,0.20605469,0.16210938,22.625,-51.03125,-14.03125,-99.4375,26.3125,-55.4375
1696000876556,-1.4785156,0.72265625,0.11816406,-7.84375,-54.375,-29.53125,0.0,0.0,0.0
1696000876595,-0.96191406,0.265625,0.12988281,-35.4375,60.59375,-18.65625,0.0,0.0,0.0
1696000876634,-1.1113281,0.20898438,-0.18554688,3.40625,7.125,-26.96875,0.0,0.0,0.0
1696000876676,-1.1552734,0.15917969,-0.111328125,-2.78125,70.1875,-28.5625,0.0,0.0,0.0
1696000876715,-1.1269531,0.11425781,-0.0703125,-14.375,64.8125,-30.75,0.0,0.0,0.0
1696000876755,-0.83691406,0.1875,-0.09863281,-27.75,60.28125,-48.8125,0.0,0.0,0.0
1696000876795,-0.7314453,0.034179688,-0.06640625,-26.5,81.71875,-45.03125,0.0,0.0,0.0
1696000876835,-0.5488281,-0.12402344,-0.16210938,-18.65625,92.53125,-36.1875,0.0,0.0,0.0
1696000876875,-0.72753906,0.025390625,-0.07519531,0.34375,90.9375,-20.5625,0.0,0.0,0.0
1696000876915,-0.76171875,0.15820312,-0.043945312,-23.15625,57.5,-11.46875,0.0,0.0,0.0
1696000876955,-0.7919922,-0.043945312,-0.26367188,-30.125,47.53125,11.65625,0.0,0.0,0.0
1696000876995,-0.94140625,-0.23632812,-0.0029296875,-15.03125,18.0,26.9375,-104.6875,17.0,-69.375
1696000877036,-1.2421875,0.051757812,-0.08105469,-1.3125,13.25,10.8125,0.0,0.0,0.0
1696000877075,-1.5478516,-0.19921875,-0.359375,8.15625,-4.90625,5.0,0.0,0.0,0.0
1696000877115,-1.6708984,0.09375,-0.35058594,27.3125,-13.375,-10.25,0.0,0.0,0.0
1696000877174,-1.1816406,0.31152344,-0.7011719,20.71875,-23.75,10.8125,0.0,0.0,0.0
1696000877194,-0.99902344,0.19335938,-0.33398438,32.4375,-70.125,25.8125,0.0,0.0,0.0
1696000877235,-0.9794922,0.22851562,-0.17578125,26.46875,-123.1875,21.25,0.0,0.0,0.0
1696000877274,-1.0957031,0.21582031,-0.07421875,-5.9375,-170.65625,18.4375,0.0,0.0,0.0
1696000877315,-0.85253906,0.14648438,-0.15136719,8.40625,-96.5,45.46875,0.0,0.0,0.0
1696000877356,-0.74316406,0.09082031,-0.021484375,-0.40625,-70.0,59.09375,0.0,0.0,0.0
1696000877395,-0.7089844,0.20703125,0.07128906,5.46875,-74.53125,28.03125,0.0,0.0,0.0
1696000877435,-0.57910156,0.01171875,-0.052734375,20.0625,-2.4375,18.0,0.0,0.0,0.0
1696000877475,-0.3486328,0.20898438,0.22753906,22.8125,29.65625,14.78125,0.0,0.0,0.0
1696000877516,-0.58984375,0.23828125,0.3779297,4.3125,64.4375,-1.75,-98.6875,26.75,-51.1875
1696000877557,-1.0986328,0.10839844,0.56933594,11.4375,32.9375,-20.8125,0.0,0.0,0.0
1696000877595,-1.7802734,0.23144531,0.20410156,23.40625,-97.40625,-17.03125,0.0,0.0,0.0
1696000877636,-1.6621094,0.5361328,0.1796875,-10.28125,-20.03125,-16.90625,0.0,0.0,0.0
1696000877676,-0.88183594,0.28515625,0.03515625,-10.84375,109.96875,2.625,0.0,0.0,0.0
1696000877715,-1.1210938,0.22558594,-0.20410156,14.25,-14.90625,-25.0,0.0,0.0,0.0
1696000877755,-1.0478516,0.19726562,-0.12207031,-13.625,72.5625,-25.625,0.0,0.0,0.0
1696000877796,-1.046875,0.078125,0.0078125,-18.53125,69.75,-26.53125,0.0,0.0,0.0
1696000877835,-0.8847656,0.1484375,-0.068359375,-36.40625,55.40625,-46.5625,0.0,0.0,0.0
1696000877875,-0.6533203,-0.01171875,-0.034179688,-22.25,83.84375,-46.125,0.0,0.0,0.0
1696000877935,-0.61328125,-0.15917969,-0.18261719,-17.65625,90.03125,-44.4375,0.0,0.0,0.0
1696000877955,-0.72558594,0.109375,-0.057617188,3.6875,96.4375,-25.0,0.0,0.0,0.0
1696000877996,-0.7294922,0.13867188,-0.12011719,-28.15625,55.96875,-18.78125,-101.6875,19.25,-64.125
1696000878036,-0.80371094,-0.068359375,-0.23242188,-28.21875,47.46875,-9.21875,0.0,0.0,0.0
1696000878075,-1.1396484,-0.1328125,0.046875,-16.4375,39.3125,11.90625,0.0,0.0,0.0
1696000878114,-1.4169922,-0.080078125,-0.07421875,-14.78125,12.125,8.90625,0.0,0.0,0.0
1696000878155,-1.5751953,-0.064453125,-0.45507812,2.59375,-18.0625,12.03125,0.0,0.0,0.0
1696000878195,-1.3574219,0.043945312,-0.29882812,32.8125,-27.46875,0.875,0.0,0.0,0.0
1696000878236,-1.1542969,0.44628906,-0.6621094,13.28125,-52.8125,14.78125,0.0,0.0,0.0
1696000878276,-0.9267578,0.41210938,-0.31640625,21.875,-103.21875,28.5,0.0,0.0,0.0
1696000878316,-1.0654297,0.0048828125,0.049804688,9.3125,-156.625,21.375,0.0,0.0,0.0
1696000878354,-1.0039062,0.20117188,-0.16992188,-6.9375,-182.6875,18.5,0.0,0.0,0.0
1696000878396,-0.8203125,0.140625,0.040039062,0.28125,-87.34375,57.9375,0.0,0.0,0.0
1696000878435,-0.6230469,0.1015625,0.19433594,7.125,-65.0,57.5625,0.0,0.0,0.0
1696000878474,-0.69140625,0.17382812,0.115234375,-0.34375,-62.1875,30.78125,0.0,0.0,0.0
1696000878516,-0.6035156,0.16210938,0.22167969,6.9375,-12.03125,9.71875,-95.6875,24.5,-48.375
1696000878555,-0.5517578,0.27539062,0.2548828,16.75,21.40625,18.75,0.0,0.0,0.0
1696000878595,-0.7705078,0.18457031,0.39648438,11.8125,51.5625,-2.75,0.0,0.0,0.0
1696000878635,-1.0546875,0.20214844,0.578125,21.46875,19.03125,-12.5,0.0,0.0,0.0
1696000878695,-1.5039062,0.31445312,0.14648438,23.59375,-48.78125,-18.90625,0.0,0.0,0.0
1696000878714,-1.5859375,0.62402344,0.17773438,-33.40625,-21.0,-15.375,0.0,0.0,0.0
1696000878755,-0.9707031,0.2734375,0.044921875,-24.0,92.09375,-18.25,0.0,0.0,0.0
1696000878794,-1.0966797,0.13574219,-0.22265625,7.25,12.625,-33.875,0.0,0.0,0.0
1696000878834,-1.1484375,0.21875,-0.028320312,-1.84375,84.21875,-31.375,0.0,0.0,0.0
1696000878875,-1.0517578,0.0029296875,0.001953125,-11.0625,59.375,-33.9375,0.0,0.0,0.0
1696000878915,-0.90527344,0.103515625,-0.0703125,-15.90625,66.28125,-58.84375,0.0,0.0,0.0
1696000878955,-0.6376953,0.056640625,0.01953125,-12.21875,93.0,-52.3125,0.0,0.0,0.0
1696000878996,-0.5439453,-0.1015625,-0.25097656,-18.03125,88.125,-40.15625,-101.125,20.0,-57.375
1696000879035,-0.67285156,0.15039062,-0.041992188,-0.625,88.0625,-14.34375,0.0,0.0,0.0
1696000879074,-0.7080078,0.06542969,-0.053710938,-26.5,64.03125,-10.0,0.0,0.0,0.0
1696000879116,-0.84277344,-0.13867188,-0.22167969,-24.6875,44.0,2.21875,0.0,0.0,0.0
1696000879156,-1.4150391,-0.10058594,0.041015625,-13.28125,16.03125,7.46875,0.0,0.0,0.0
1696000879195,-1.3779297,-0.022460938,0.0234375,-34.09375,-13.875,5.625,0.0,0.0,0.0
1696000879235,-1.2431641,-0.49609375,-0.40625,18.40625,-23.1875,1.46875,0.0,0.0,0.0
1696000879275,-1.4726562,0.48632812,-0.48339844,29.21875,-20.75,15.15625,0.0,0.0,0.0
1696000879313,-1.2275391,0.22753906,-0.65234375,-22.78125,-21.125,22.21875,0.0,0.0,0.0
1696000879353,-1.0332031,0.07324219,-0.5048828,-8.9375,-55.84375,37.25,0.0,0.0,0.0
1696000879395,-1.0029297,0.2841797,-0.3466797,-10.53125,-35.09375,11.1875,0.0,0.0,0.0
