,timestamp,accel_x,accel_y,accel_z,gyro_x,gyro_y,gyro_z
0,1697605965,-0.16772461,-0.97247314,-0.17803955,-1.75,1.046875,0.203125
1,1697606005,-0.17651367,-0.9524536,-0.19024658,-0.484375,0.734375,0.0
2,1697606045,-0.17993164,-0.9680786,-0.19146729,0.609375,1.21875,0.234375
3,1697606085,-0.17089844,-0.9758911,-0.19268799,-0.484375,0.984375,0.171875
4,1697606125,-0.1743164,-0.9607544,-0.17218018,0.546875,1.609375,0.78125
5,1697606165,-0.18969727,-0.97662354,-0.19366455,-0.171875,0.984375,1.21875
6,1697606205,-0.18041992,-0.9807739,-0.19146729,-0.34375,0.4375,0.734375
7,1697606245,-0.1616211,-0.95440674,-0.19854736,-0.46875,1.671875,0.3125
8,1697606285,-0.1772461,-0.986145,-0.19171143,-0.328125,1.484375,1.21875
9,1697606325,-0.16259766,-0.95562744,-0.20709229,0.71875,0.8125,0.296875
10,1697606365,-0.17822266,-0.97784424,-0.19073486,1.546875,-0.5,0.109375
11,1697606405,-0.17895508,-0.97857666,-0.18634033,1.21875,0.625,0.625
12,1697606445,-0.16137695,-0.9690552,-0.20709229,-0.640625,0.609375,0.328125
13,1697606485,-0.15698242,-0.9529419,-0.19537354,-0.1875,0.515625,0.109375
14,1697606525,-0.17456055,-0.96221924,-0.19293213,1.78125,0.171875,0.484375
15,1697606565,-0.17797852,-0.98223877,-0.20245361,-0.546875,0.34375,0.421875
16,1697606605,-0.18310547,-0.9758911,-0.19561768,0.15625,0.125,-0.046875
17,1697606645,-0.18334961,-0.97979736,-0.19171143,0.359375,0.375,1.140625
18,1697606685,-0.1887207,-0.97198486,-0.18658447,-0.078125,-0.484375,1.0
19,1697606725,-0.18164062,-0.96759033,-0.19537354,-0.09375,-0.28125,0.71875
20,1697606765,-0.16870117,-0.9692993,-0.20904541,-0.671875,-0.0625,0.640625
21,1697606805,-0.1652832,-0.956604,-0.21392822,0.21875,-0.4375,0.75
22,1697606845,-0.16870117,-0.96832275,-0.20977783,-0.59375,0.46875,0.703125
23,1697606885,-0.1652832,-0.96173096,-0.21026611,0.421875,0.421875,0.703125
24,1697606925,-0.16064453,-0.96343994,-0.20050049,0.328125,0.21875,1.21875
25,1697606965,-0.16210938,-0.9649048,-0.19561768,-0.03125,-0.109375,0.609375
26,1697607005,-0.15649414,-0.96099854,-0.22003174,-0.46875,1.265625,0.390625
27,1697607045,-0.16967773,-0.987854,-0.20831299,-0.890625,0.515625,0.625
28,1697607085,-0.15576172,-0.9456177,-0.2185669,-0.546875,1.0,0.03125
29,1697607125,-0.1665039,-0.96099854,-0.20684814,0.453125,-0.171875,0.15625
30,1697607165,-0.15576172,-0.9702759,-0.20709229,0.328125,1.015625,0.78125
31,1697607205,-0.16088867,-0.96417236,-0.20855713,-1.40625,1.046875,0.328125
32,1697607245,-0.16357422,-0.9656372,-0.21539307,-0.5,0.703125,0.15625
33,1697607285,-0.16430664,-0.97198486,-0.18902588,-0.078125,-0.140625,-0.0625
34,1697607325,-0.1665039,-0.96759033,-0.20050049,-1.359375,0.921875,0.21875
35,1697607365,-0.17138672,-0.9644165,-0.20098877,-0.28125,1.203125,0.4375
36,1697607405,-0.17675781,-0.97003174,-0.20220947,0.3125,0.8125,1.21875
37,1697607445,-0.16870117,-0.97076416,-0.19854736,-0.21875,0.078125,0.875
38,1697607485,-0.16308594,-0.9702759,-0.21051025,0.203125,0.53125,0.890625
39,1697607525,-0.16333008,-0.96588135,-0.20269775,0.359375,0.296875,0.796875
40,1697607565,-0.16552734,-0.9636841,-0.21539307,0.65625,0.140625,0.3125
41,1697607605,-0.15600586,-0.9619751,-0.22198486,0.4375,0.3125,0.640625
42,1697607645,-0.16894531,-0.9758911,-0.21490479,0.03125,0.53125,0.921875
43,1697607685,-0.16113281,-0.97662354,-0.20904541,-0.125,0.546875,0.671875
44,1697607725,-0.15966797,-0.9570923,-0.23638916,0.3125,1.125,0.6875
45,1697607765,-0.15283203,-0.9663696,-0.17584229,1.53125,-0.328125,0.859375
46,1697607805,-0.1550293,-0.9697876,-0.22198486,-1.421875,2.109375,0.84375
47,1697607845,-0.16381836,-0.9570923,-0.22271729,0.8125,-0.21875,0.046875
48,1697607885,-0.15234375,-0.9837036,-0.19024658,0.875,0.109375,0.21875
49,1697607925,-0.15991211,-0.9680786,-0.21026611,0.75,1.390625,1.484375
50,1697607965,-0.15478516,-0.960022,-0.2185669,-0.5625,0.78125,1.015625
51,1697608005,-0.15527344,-0.9714966,-0.21002197,-0.296875,0.171875,0.40625
52,1697608045,-0.16186523,-0.96343994,-0.22271729,-0.96875,1.1875,0.671875
53,1697608085,-0.15722656,-0.9680786,-0.21783447,-0.453125,0.609375,0.328125
54,1697608125,-0.1459961,-0.96954346,-0.21148682,-0.21875,0.234375,0.0
55,1697608165,-0.14990234,-0.96466064,-0.21588135,-0.609375,0.75,0.515625
56,1697608205,-0.15698242,-0.9644165,-0.21173096,-0.828125,1.015625,0.5625
57,1697608245,-0.15625,-0.96221924,-0.2210083,-0.796875,0.71875,0.109375
58,1697608285,-0.1550293,-0.9644165,-0.22052002,-0.515625,1.25,0.625
59,1697608325,-0.15112305,-0.958313,-0.21710205,0.921875,0.78125,0.53125
60,1697608365,-0.15356445,-0.96710205,-0.21173096,0.0625,0.28125,0.21875
61,1697608405,-0.15600586,-0.960022,-0.21905518,0.265625,0.71875,0.28125
62,1697608445,-0.15063477,-0.96661377,-0.23858643,0.25,1.09375,-0.078125
63,1697608485,-0.16113281,-0.9685669,-0.19122314,1.421875,-0.09375,0.421875
64,1697608525,-0.15112305,-0.9668579,-0.255188,-2.265625,1.90625,-0.03125
65,1697608565,-0.14208984,-0.95635986,-0.2276001,0.578125,0.84375,0.171875
66,1697608605,-0.15771484,-0.96661377,-0.2053833,0.421875,-0.109375,0.0625
67,1697608645,-0.15893555,-0.9678345,-0.22467041,-1.46875,0.65625,0.0
68,1697608685,-0.15185547,-0.9619751,-0.22467041,-0.828125,1.015625,-0.09375
69,1697608725,-0.15551758,-0.9668579,-0.22979736,-0.828125,0.5625,0.28125
70,1697608765,-0.15795898,-0.973938,-0.2041626,-0.765625,0.5625,0.359375
71,1697608805,-0.15576172,-0.9656372,-0.22833252,-1.328125,1.328125,0.546875
72,1697608845,-0.14916992,-0.95635986,-0.20831299,-1.09375,0.734375,0.203125
73,1697608885,-0.15600586,-0.9631958,-0.21368408,-0.953125,0.359375,0.0625
74,1697608925,-0.15966797,-0.9668579,-0.22027588,-1.140625,0.71875,0.09375
75,1697608965,-0.1574707,-0.9644165,-0.21417236,-0.53125,0.484375,-0.1875
76,1697609005,-0.16357422,-0.96343994,-0.20904541,-0.359375,0.828125,0.0625
77,1697609045,-0.15917969,-0.9578247,-0.21295166,0.015625,0.4375,0.03125
78,1697609085,-0.15991211,-0.97052,-0.21783447,-0.453125,0.828125,0.09375
79,1697609125,-0.16210938,-0.9741821,-0.21343994,-0.078125,1.3125,0.78125
80,1697609165,-0.1616211,-0.96661377,-0.23394775,0.390625,0.625,0.234375
81,1697609205,-0.15234375,-0.9678345,-0.18804932,1.75,-0.21875,0.28125
82,1697609245,-0.15185547,-0.9685669,-0.2564087,-1.796875,2.59375,0.765625
83,1697609285,-0.15917969,-0.9573364,-0.22857666,1.3125,0.421875,-0.109375
84,1697609325,-0.1550293,-0.97735596,-0.20635986,0.78125,0.359375,0.234375
85,1697609365,-0.1586914,-0.97052,-0.22662354,-0.671875,1.171875,0.9375
86,1697609405,-0.15917969,-0.9558716,-0.22003174,-0.890625,0.984375,0.21875
87,1697609445,-0.15209961,-0.96710205,-0.22735596,-0.359375,-0.375,-0.453125
88,1697609485,-0.1550293,-0.975647,-0.2144165,-0.53125,0.609375,0.59375
89,1697609525,-0.15820312,-0.9651489,-0.22564697,-0.8125,0.890625,0.6875
90,1697609565,-0.15991211,-0.954895,-0.20758057,-0.53125,0.390625,0.1875
91,1697609605,-0.15136719,-0.96539307,-0.22198486,-0.65625,0.375,0.21875
92,1697609645,-0.15551758,-0.96759033,-0.22564697,-0.296875,0.546875,0.40625
93,1697609685,-0.16040039,-0.9690552,-0.2185669,-0.125,0.703125,0.484375
94,1697609725,-0.15722656,-0.9668579,-0.22296143,-0.453125,0.046875,0.09375
95,1697609765,-0.15307617,-0.96539307,-0.2210083,-0.15625,0.703125,0.203125
96,1697609805,-0.15844727,-0.96710205,-0.22467041,-0.46875,0.828125,0.28125
97,1697609845,-0.15600586,-0.9668579,-0.21734619,-0.46875,0.171875,0.046875
98,1697609885,-0.15917969,-0.97003174,-0.22442627,-0.171875,0.25,-0.015625
99,1697609925,-0.14868164,-0.95391846,-0.1963501,0.1875,0.203125,0.296875
100,1697609965,-0.16430664,-0.98150635,-0.23590088,-1.84375,1.4375,0.359375
101,1697610005,-0.1574707,-0.9534302,-0.21783447,1.21875,0.484375,0.171875
102,1697610045,-0.1550293,-0.96661377,-0.21270752,0.234375,0.109375,0.09375
103,1697610085,-0.16064453,-0.97613525,-0.22320557,-0.34375,0.84375,0.515625
104,1697610125,-0.15625,-0.9492798,-0.22003174,-0.140625,1.46875,0.46875
105,1697610165,-0.16308594,-0.97076416,-0.22564697,-0.328125,0.4375,0.21875
106,1697610205,-0.15063477,-0.9729614,-0.21417236,-0.359375,1.0,0.6875
107,1697610245,-0.15307617,-0.958313,-0.22515869,-0.8125,1.3125,0.671875
108,1697610285,-0.16137695,-0.9590454,-0.2300415,-0.671875,0.734375,0.09375
109,1697610325,-0.15332031,-0.9763794,-0.21929932,-0.671875,0.375,0.140625
110,1697610365,-0.15722656,-0.96539307,-0.22393799,-0.875,0.875,0.28125
111,1697610405,-0.15429688,-0.9624634,-0.2263794,-0.515625,0.5625,0.359375
112,1697610445,-0.15942383,-0.96588135,-0.22296143,-0.28125,0.703125,0.25
113,1697610485,-0.15844727,-0.9602661,-0.21954346,-0.5625,0.59375,0.046875
114,1697610525,-0.15527344,-0.96466064,-0.21954346,-0.203125,0.71875,0.34375
115,1697610565,-0.15429688,-0.9697876,-0.22149658,-0.546875,0.71875,0.46875
116,1697610605,-0.15649414,-0.9614868,-0.22125244,-0.15625,0.671875,0.21875
117,1697610645,-0.15722656,-0.956604,-0.21710205,-0.03125,0.65625,0.40625
118,1697610685,-0.15209961,-0.96221924,-0.21759033,0.1875,0.28125,0.0625
119,1697610725,-0.16040039,-0.9734497,-0.24005127,-1.140625,1.234375,-0.171875
120,1697610765,-0.15917969,-0.9680786,-0.21343994,0.578125,0.375,-0.03125
121,1697610805,-0.14550781,-0.9541626,-0.23516846,-2.109375,1.9375,-0.0625
122,1697610845,-0.16552734,-0.95635986,-0.23077393,0.375,0.515625,-0.375
123,1697610885,-0.1616211,-0.9837036,-0.20587158,0.1875,0.71875,-0.21875
124,1697610925,-0.16064453,-0.9561157,-0.22491455,-1.1875,1.359375,0.203125
125,1697610965,-0.16308594,-0.96099854,-0.21905518,-0.9375,0.984375,0.046875
126,1697611005,-0.16918945,-0.96661377,-0.22442627,-0.375,0.5,0.296875
127,1697611045,-0.16772461,-0.9771118,-0.21173096,-0.53125,0.71875,0.390625
128,1697611085,-0.1586914,-0.96759033,-0.21759033,-1.40625,1.046875,0.328125
129,1697611125,-0.16552734,-0.9578247,-0.22076416,-1.109375,0.390625,-0.03125
130,1697611165,-0.16040039,-0.9717407,-0.21514893,-0.546875,1.21875,0.21875
131,1697611205,-0.15893555,-0.9639282,-0.222229,-0.75,0.734375,0.265625
132,1697611245,-0.15966797,-0.9702759,-0.22027588,-0.65625,1.078125,0.5625
133,1697611285,-0.16601562,-0.9619751,-0.21929932,-0.109375,1.15625,0.5
134,1697611325,-0.15917969,-0.9697876,-0.21759033,-0.609375,0.578125,0.40625
135,1697611365,-0.1640625,-0.9636841,-0.2197876,0.03125,0.96875,0.328125
136,1697611405,-0.1616211,-0.96661377,-0.2197876,-0.90625,0.859375,0.421875
137,1697611445,-0.16357422,-0.96466064,-0.21417236,-0.40625,1.046875,0.0625
138,1697611485,-0.15795898,-0.96954346,-0.2197876,-0.078125,0.765625,0.59375
139,1697611525,-0.1652832,-0.96710205,-0.21929932,-0.625,0.8125,0.484375
140,1697611565,-0.16259766,-0.9585571,-0.21832275,-0.21875,1.46875,0.609375
141,1697611605,-0.16357422,-0.96710205,-0.22467041,-0.359375,0.5,0.125
142,1697611645,-0.1484375,-0.95513916,-0.18585205,0.6875,0.375,0.234375
143,1697611685,-0.16210938,-0.9771118,-0.25177002,-1.828125,2.734375,0.859375
144,1697611725,-0.16333008,-0.9558716,-0.21929932,1.203125,0.53125,0.09375
145,1697611765,-0.15649414,-0.96710205,-0.20391846,0.171875,0.40625,-0.03125
146,1697611805,-0.15966797,-0.97052,-0.21905518,-0.390625,1.421875,0.515625
147,1697611845,-0.16503906,-0.9553833,-0.2197876,-0.21875,1.265625,0.625
148,1697611885,-0.16894531,-0.96417236,-0.22369385,-0.453125,0.421875,0.203125
149,1697611925,-0.15966797,-0.9639282,-0.21514893,-0.171875,0.609375,0.28125
150,1697611965,-0.15649414,-0.9714966,-0.22540283,-0.765625,1.234375,0.890625
151,1697612005,-0.15917969,-0.95269775,-0.22149658,-0.46875,0.859375,0.25
152,1697612045,-0.1508789,-0.9685669,-0.21124268,-0.515625,-0.0625,0.09375
153,1697612085,-0.15917969,-0.9656372,-0.22320557,-0.328125,0.953125,0.625
154,1697612125,-0.1628418,-0.96588135,-0.21954346,-0.203125,0.8125,0.65625
155,1697612165,-0.16235352,-0.9656372,-0.22076416,-0.578125,0.3125,0.5
156,1697612205,-0.15405273,-0.9678345,-0.22198486,-0.765625,0.65625,0.640625
157,1697612245,-0.15917969,-0.96759033,-0.2210083,-0.0625,0.6875,0.625
158,1697612285,-0.16040039,-0.9624634,-0.21881104,-0.734375,0.53125,0.4375
159,1697612325,-0.16235352,-0.9673462,-0.21368408,-0.390625,0.5,0.265625
160,1697612365,-0.15771484,-0.9727173,-0.22052002,-0.40625,0.4375,0.34375
161,1697612405,-0.15942383,-0.9680786,-0.2156372,-0.28125,0.765625,0.40625
162,1697612445,-0.15844727,-0.9685669,-0.21661377,-0.09375,0.9375,0.265625
163,1697612485,-0.15844727,-0.96759033,-0.22076416,-0.34375,0.671875,0.359375
164,1697612525,-0.15332031,-0.97662354,-0.2300415,-0.28125,0.75,0.5
165,1697612565,-0.1550293,-0.9602661,-0.22491455,-0.046875,0.953125,0.359375
166,1697612605,-0.16333008,-0.9717407,-0.23101807,-0.453125,1.03125,0.375
167,1697612645,-0.15478516,-0.95928955,-0.18927002,0.796875,-0.21875,0.328125
168,1697612685,-0.16040039,-0.9751587,-0.25030518,-2.09375,2.390625,0.828125
169,1697612725,-0.16870117,-0.95977783,-0.22662354,0.625,0.515625,0.140625
170,1697612765,-0.15478516,-0.97003174,-0.20684814,0.515625,0.171875,-0.015625
171,1697612805,-0.15429688,-0.9639282,-0.21685791,-0.328125,0.984375,0.421875
172,1697612845,-0.16455078,-0.9649048,-0.22076416,-0.546875,1.171875,0.34375
173,1697612885,-0.16113281,-0.9619751,-0.22125244,-0.59375,0.734375,-0.078125
174,1697612925,-0.15332031,-0.9614868,-0.22174072,-0.3125,0.71875,0.46875
175,1697612965,-0.15551758,-0.975647,-0.22930908,-1.140625,1.546875,0.78125
176,1697613005,-0.15625,-0.95684814,-0.22589111,-1.28125,0.953125,0.015625
177,1697613045,-0.1550293,-0.9595337,-0.20098877,-0.953125,0.765625,0.25
178,1697613085,-0.1665039,-0.9768677,-0.21221924,-0.546875,0.765625,0.4375
179,1697613125,-0.15698242,-0.9612427,-0.21343994,-0.6875,0.40625,0.046875
180,1697613165,-0.15307617,-0.97003174,-0.2197876,-0.484375,0.90625,0.25
181,1697613205,-0.16503906,-0.9680786,-0.22198486,-1.0,0.5625,0.171875
182,1697613245,-0.15527344,-0.9692993,-0.21539307,-0.171875,0.59375,0.140625
183,1697613285,-0.16015625,-0.9585571,-0.21173096,0.109375,0.859375,0.5625
184,1697613325,-0.16357422,-0.9729614,-0.22442627,-0.328125,0.421875,0.25
185,1697613365,-0.16357422,-0.96221924,-0.2144165,-0.0625,0.59375,-0.125
186,1697613405,-0.15673828,-0.96173096,-0.22076416,0.0625,0.90625,0.75
187,1697613445,-0.15942383,-0.9768677,-0.21685791,0.15625,0.296875,0.4375
188,1697613485,-0.16113281,-0.9651489,-0.22320557,0.0,0.765625,0.328125
189,1697613525,-0.15966797,-0.96661377,-0.22320557,-0.546875,0.984375,0.78125
190,1697613565,-0.16210938,-0.9661255,-0.23028564,-0.59375,0.9375,0.578125
191,1697613605,-0.1538086,-0.95318604,-0.18536377,0.5,0.8125,0.828125
192,1697613645,-0.16430664,-0.9834595,-0.25299072,-1.9375,1.875,0.578125
193,1697613685,-0.15478516,-0.9661255,-0.21514893,0.953125,0.25,0.0625
194,1697613725,-0.15576172,-0.9680786,-0.20880127,0.21875,0.6875,-0.03125
195,1697613765,-0.15136719,-0.9656372,-0.22296143,-0.234375,1.375,0.8125
196,1697613805,-0.15917969,-0.9614868,-0.2288208,0.03125,1.453125,0.765625
197,1697613845,-0.16186523,-0.9680786,-0.222229,0.140625,0.703125,0.109375
198,1697613885,-0.15991211,-0.9607544,-0.22564697,-0.3125,0.375,0.03125
199,1697613925,-0.15454102,-0.9776001,-0.22955322,-0.9375,1.046875,0.484375
200,1697613965,-0.1640625,-0.9624634,-0.22125244,-1.03125,0.828125,0.078125
201,1697614005,-0.15356445,-0.9534302,-0.22149658,-0.34375,0.328125,0.109375
202,1697614045,-0.15991211,-0.98394775,-0.22369385,-0.90625,0.578125,0.359375
203,1697614085,-0.15893555,-0.96099854,-0.22149658,-0.34375,1.140625,0.3125
204,1697614125,-0.16064453,-0.95880127,-0.22735596,-0.84375,1.015625,0.359375
205,1697614165,-0.16259766,-0.9692993,-0.20977783,-0.5625,0.640625,0.125
206,1697614205,-0.15600586,-0.9529419,-0.22369385,-0.546875,1.25,0.4375
207,1697614245,-0.15307617,-0.9619751,-0.22369385,-0.75,0.53125,0.0
208,1697614285,-0.15649414,-0.9631958,-0.21466064,-0.140625,0.71875,0.359375
209,1697614325,-0.15771484,-0.958313,-0.22467041,-0.640625,0.890625,0.109375
210,1697614365,-0.15966797,-0.9649048,-0.20953369,-0.109375,0.40625,0.15625
211,1697614405,-0.1640625,-0.960022,-0.2210083,-0.484375,1.0625,0.25
212,1697614445,-0.16259766,-0.9570923,-0.22027588,-0.125,0.421875,0.046875
213,1697614485,-0.1508789,-0.96759033,-0.22540283,-1.046875,0.765625,-0.1875
214,1697614525,-0.15576172,-0.95880127,-0.19683838,1.640625,0.6875,0.109375
215,1697614565,-0.15991211,-0.95977783,-0.2468872,-1.484375,1.25,0.03125
216,1697614605,-0.16137695,-0.96466064,-0.22833252,0.796875,0.546875,-0.109375
217,1697614645,-0.16113281,-0.96954346,-0.21051025,0.890625,0.90625,-0.09375
218,1697614685,-0.16137695,-0.9673462,-0.22857666,-0.65625,1.0625,0.46875
219,1697614725,-0.1574707,-0.9678345,-0.2263794,0.0,1.34375,0.390625
220,1697614765,-0.16357422,-0.96466064,-0.22076416,-0.875,0.75,0.203125
221,1697614805,-0.16137695,-0.9614868,-0.21661377,0.0625,0.703125,0.03125
222,1697614845,-0.16308594,-0.9697876,-0.2263794,-0.46875,0.640625,0.09375
223,1697614885,-0.16699219,-0.9663696,-0.22955322,-1.203125,1.546875,0.484375
224,1697614925,-0.16503906,-0.96343994,-0.22076416,-0.390625,1.0625,0.34375
225,1697614965,-0.15698242,-0.96710205,-0.22052002,-0.1875,0.546875,0.359375
226,1697615005,-0.15917969,-0.9644165,-0.22149658,0.0,1.21875,0.515625
227,1697615045,-0.16479492,-0.96099854,-0.22979736,-0.734375,0.796875,-0.109375
228,1697615085,-0.15942383,-0.9607544,-0.22052002,-0.390625,0.96875,0.28125
229,1697615125,-0.15942383,-0.9663696,-0.21466064,-0.34375,0.984375,0.078125
230,1697615165,-0.16699219,-0.96051025,-0.23077393,-0.75,0.8125,0.078125
231,1697615205,-0.16992188,-0.97076416,-0.2185669,-0.84375,0.5625,0.046875
232,1697615245,-0.16137695,-0.9602661,-0.22076416,-0.40625,1.25,0.015625
233,1697615285,-0.16552734,-0.9663696,-0.21612549,-0.421875,0.890625,0.296875
234,1697615325,-0.16235352,-0.9624634,-0.22174072,-0.296875,0.953125,0.234375
235,1697615365,-0.16821289,-0.9692993,-0.22906494,0.15625,0.703125,0.28125
236,1697615405,-0.16040039,-0.95758057,-0.19171143,0.53125,0.46875,0.0625
237,1697615445,-0.17578125,-0.9771118,-0.23809814,-1.5,1.6875,0.4375
238,1697615485,-0.16137695,-0.9492798,-0.22296143,-0.0625,0.203125,-0.421875
239,1697615525,-0.1616211,-0.95977783,-0.20904541,0.328125,0.828125,-0.09375
240,1697615565,-0.16967773,-0.9771118,-0.22247314,0.140625,0.609375,-0.078125
241,1697615605,-0.16674805,-0.95880127,-0.22369385,-0.546875,1.4375,0.21875
242,1697615645,-0.17016602,-0.96466064,-0.22564697,-0.0625,1.0625,0.203125
243,1697615685,-0.16894531,-0.96661377,-0.22174072,0.015625,0.390625,0.0625
244,1697615725,-0.17041016,-0.96588135,-0.22174072,-0.359375,0.84375,0.59375
245,1697615765,-0.17260742,-0.9631958,-0.22564697,-1.15625,1.125,0.515625
246,1697615805,-0.16772461,-0.95684814,-0.222229,-0.3125,-0.0625,0.078125
247,1697615845,-0.17138672,-0.9751587,-0.22393799,-0.21875,0.578125,0.25
248,1697615885,-0.1730957,-0.956604,-0.23370361,-0.6875,1.5625,0.75
249,1697615925,-0.16186523,-0.958313,-0.22833252,-0.21875,0.46875,0.4375
250,1697615965,-0.16723633,-0.9639282,-0.22198486,-0.171875,0.921875,0.765625
251,1697616005,-0.17114258,-0.9585571,-0.22467041,-0.609375,1.1875,0.40625
252,1697616045,-0.1640625,-0.9644165,-0.2288208,-1.75,0.625,0.078125
253,1697616085,-0.16455078,-0.9602661,-0.222229,0.4375,1.078125,0.71875
254,1697616125,-0.16992188,-0.9631958,-0.23223877,-0.28125,0.265625,0.25
255,1697616165,-0.171875,-0.9685669,-0.22418213,-0.984375,0.546875,0.265625
256,1697616205,-0.16723633,-0.95758057,-0.22784424,0.46875,1.015625,0.609375
257,1697616245,-0.15942383,-0.9702759,-0.22857666,-0.828125,0.84375,0.15625
258,1697616285,-0.16137695,-0.9627075,-0.2078247,1.109375,0.265625,0.21875
259,1697616325,-0.16455078,-0.9546509,-0.23956299,-2.296875,2.28125,0.6875
260,1697616365,-0.17895508,-0.96221924,-0.22613525,1.90625,0.484375,0.140625
261,1697616405,-0.16210938,-0.9727173,-0.21466064,1.03125,0.265625,0.359375
262,1697616445,-0.16577148,-0.9690552,-0.22833252,-0.609375,1.3125,0.765625
263,1697616485,-0.17358398,-0.96173096,-0.23199463,0.421875,1.609375,0.671875
264,1697616525,-0.16308594,-0.96588135,-0.23248291,-0.921875,0.25,0.03125
265,1697616565,-0.1640625,-0.9636841,-0.222229,0.25,0.890625,0.609375
266,1697616605,-0.16894531,-0.9692993,-0.24029541,-0.84375,1.515625,0.734375
267,1697616645,-0.15844727,-0.9578247,-0.23077393,-1.328125,1.21875,-0.1875
268,1697616685,-0.15991211,-0.9639282,-0.21490479,-0.421875,0.203125,-0.28125
269,1697616725,-0.17138672,-0.9685669,-0.21905518,-0.578125,0.828125,0.671875
270,1697616765,-0.17407227,-0.95758057,-0.23492432,-0.84375,1.0,0.34375
271,1697616805,-0.1694336,-0.9690552,-0.21832275,-0.171875,0.421875,0.515625
272,1697616845,-0.16503906,-0.96099854,-0.22418213,-0.59375,0.59375,0.484375
273,1697616885,-0.16967773,-0.95513916,-0.22540283,-0.140625,0.890625,0.46875
274,1697616925,-0.16577148,-0.97076416,-0.22564697,-0.09375,0.359375,0.328125
275,1697616965,-0.1665039,-0.95758057,-0.22735596,-0.09375,0.671875,0.71875
276,1697617005,-0.17260742,-0.9697876,-0.2366333,-0.5625,0.421875,0.40625
277,1697617045,-0.16723633,-0.9649048,-0.22589111,0.109375,0.375,0.3125
278,1697617085,-0.16577148,-0.9612427,-0.23077393,-0.28125,1.53125,0.40625
279,1697617125,-0.16772461,-0.9714966,-0.22271729,0.734375,0.34375,0.171875
280,1697617165,-0.15893555,-0.95269775,-0.24078369,-0.71875,1.5625,0.46875
281,1697617205,-0.1694336,-0.9631958,-0.23052979,-0.046875,0.328125,0.21875
282,1697617245,-0.16748047,-0.97540283,-0.22589111,-0.46875,0.609375,0.21875
283,1697617285,-0.17114258,-0.9636841,-0.24639893,-1.296875,0.15625,-0.453125
284,1697617325,-0.1574707,-0.96051025,-0.22711182,-1.78125,1.921875,-0.0625
285,1697617365,-0.17480469,-0.95196533,-0.22857666,-0.578125,0.359375,-0.71875
286,1697617405,-0.16748047,-0.9768677,-0.222229,-2.203125,0.09375,-0.984375
287,1697617445,-0.15795898,-0.9639282,-0.2156372,-2.984375,2.6875,0.328125
288,1697617485,-0.1875,-0.9463501,-0.22442627,-1.765625,0.59375,0.09375
289,1697617525,-0.16577148,-0.9612427,-0.20513916,-2.90625,0.28125,0.03125
290,1697617565,-0.16674805,-0.96051025,-0.206604,-2.046875,0.96875,0.296875
291,1697617605,-0.18310547,-0.97247314,-0.21759033,-0.75,1.1875,0.296875
292,1697617645,-0.1616211,-0.97613525,-0.20953369,-0.953125,1.234375,0.09375
293,1697617685,-0.16821289,-0.9627075,-0.19537354,0.015625,1.171875,0.53125
294,1697617725,-0.1784668,-0.9624634,-0.21929932,-0.421875,0.125,0.296875
295,1697617765,-0.1730957,-0.9780884,-0.20123291,-1.03125,0.578125,0.5625
296,1697617805,-0.17871094,-0.95147705,-0.22320557,0.046875,0.859375,0.1875
297,1697617845,-0.16772461,-0.95977783,-0.2107544,-0.078125,0.359375,0.53125
298,1697617885,-0.16967773,-0.97369385,-0.21612549,0.890625,0.78125,1.125
299,1697617925,-0.17285156,-0.9607544,-0.2234497,0.1875,0.578125,0.234375
300,1697617965,-0.16357422,-0.95977783,-0.18927002,0.765625,0.453125,0.6875
301,1697618005,-0.17700195,-0.9805298,-0.23468018,-1.53125,1.5,0.703125
302,1697618045,-0.17114258,-0.95806885,-0.21514893,0.5625,-0.171875,0.109375
303,1697618085,-0.16064453,-0.97369385,-0.20318604,0.15625,0.8125,0.71875
304,1697618125,-0.17089844,-0.97125244,-0.21270752,0.171875,1.109375,0.796875
305,1697618165,-0.17578125,-0.960022,-0.22662354,-0.5625,0.3125,0.09375
306,1697618205,-0.16088867,-0.9651489,-0.21905518,-0.65625,1.046875,0.421875
307,1697618245,-0.17285156,-0.9639282,-0.21099854,0.28125,0.84375,0.53125
308,1697618285,-0.17749023,-0.9758911,-0.22662354,0.015625,0.21875,0.6875
309,1697618325,-0.14916992,-0.9714966,-0.22467041,-1.5,0.546875,0.390625
310,1697618365,-0.17138672,-0.9512329,-0.21246338,0.015625,1.578125,0.546875
311,1697618405,-0.16967773,-0.97198486,-0.22467041,0.203125,-0.234375,0.171875
312,1697618445,-0.15625,-0.97613525,-0.2078247,-0.203125,0.796875,0.484375
313,1697618485,-0.1628418,-0.9595337,-0.22613525,-0.609375,1.1875,0.578125
314,1697618525,-0.17236328,-0.97369385,-0.22027588,-0.890625,0.453125,0.234375
315,1697618565,-0.16259766,-0.9663696,-0.21661377,-0.28125,1.125,0.359375
316,1697618605,-0.16992188,-0.9573364,-0.2197876,-0.6875,0.59375,0.3125
317,1697618645,-0.1640625,-0.96539307,-0.2210083,-1.125,0.625,0.203125
318,1697618685,-0.15649414,-0.96881104,-0.21051025,-0.328125,0.546875,0.5625
319,1697618725,-0.17529297,-0.9651489,-0.2197876,0.15625,0.671875,0.484375
320,1697618765,-0.16552734,-0.9685669,-0.22296143,-0.515625,0.484375,0.515625
321,1697618805,-0.16333008,-0.96954346,-0.2288208,0.078125,0.484375,0.0625
322,1697618845,-0.16601562,-0.956604,-0.1885376,0.578125,0.21875,0.203125
323,1697618885,-0.17163086,-0.97369385,-0.24786377,-1.84375,2.09375,0.875
324,1697618925,-0.15942383,-0.96539307,-0.22247314,1.015625,0.15625,-0.046875
325,1697618965,-0.1652832,-0.9649048,-0.20367432,0.53125,1.09375,0.40625
326,1697619005,-0.16748047,-0.97125244,-0.23175049,-0.421875,0.59375,0.578125
327,1697619045,-0.16235352,-0.9595337,-0.21539307,-0.59375,1.40625,0.546875
328,1697619085,-0.17675781,-0.9678345,-0.22515869,-0.28125,0.390625,0.28125
329,1697619125,-0.16845703,-0.9661255,-0.21539307,0.3125,0.671875,0.578125
330,1697619165,-0.16210938,-0.9692993,-0.22418213,-0.703125,1.28125,1.0
331,1697619205,-0.16455078,-0.9602661,-0.22589111,-0.921875,0.5625,0.375
332,1697619245,-0.16503906,-0.9673462,-0.20904541,-0.3125,0.59375,0.5
333,1697619285,-0.16723633,-0.9663696,-0.2234497,-0.9375,0.78125,0.828125
334,1697619325,-0.16455078,-0.9668579,-0.21392822,-0.84375,0.6875,0.453125
335,1697619365,-0.16552734,-0.9636841,-0.2197876,-0.8125,1.09375,0.46875
336,1697619405,-0.16040039,-0.95684814,-0.22467041,-1.390625,0.828125,0.28125
337,1697619445,-0.16235352,-0.9746704,-0.21466064,-1.078125,0.65625,0.40625
338,1697619485,-0.16333008,-0.97125244,-0.21685791,-1.234375,0.59375,0.203125
339,1697619525,-0.16259766,-0.96881104,-0.21368408,-2.0625,0.328125,-0.03125
340,1697619565,-0.16503906,-0.96759033,-0.21368408,-1.0625,0.875,0.28125
341,1697619605,-0.16235352,-0.9656372,-0.20489502,-0.953125,0.578125,0.5
342,1697619645,-0.16479492,-0.972229,-0.20806885,-1.5625,0.9375,0.375
343,1697619685,-0.16748047,-0.95806885,-0.20587158,-0.640625,1.0,0.71875
344,1697619725,-0.1628418,-0.9649048,-0.21466064,-1.6875,1.265625,0.421875
345,1697619765,-0.16625977,-0.9788208,-0.18902588,-0.0625,0.515625,0.1875
346,1697619805,-0.15795898,-0.95025635,-0.23175049,-3.46875,2.03125,0.5
347,1697619845,-0.16381836,-0.97076416,-0.21466064,-0.703125,0.875,-0.03125
348,1697619885,-0.16137695,-0.98028564,-0.19293213,0.546875,0.984375,0.453125
349,1697619925,-0.16210938,-0.96539307,-0.20587158,-1.484375,1.6875,0.59375
350,1697619965,-0.16772461,-0.96295166,-0.20611572,-0.578125,0.9375,0.171875
351,1697620005,-0.16430664,-0.97540283,-0.20587158,-0.4375,0.921875,0.5
352,1697620045,-0.16503906,-0.9656372,-0.19830322,-0.421875,0.78125,0.546875
353,1697620085,-0.16674805,-0.9734497,-0.21221924,-1.78125,1.25,0.53125
354,1697620125,-0.16455078,-0.96417236,-0.21417236,-1.25,1.09375,0.390625
355,1697620165,-0.16259766,-0.9692993,-0.18927002,-0.953125,0.796875,0.40625
356,1697620205,-0.1628418,-0.9714966,-0.20269775,-1.59375,1.0625,0.515625
357,1697620245,-0.16503906,-0.9717407,-0.2041626,-1.390625,0.796875,0.59375
358,1697620285,-0.15917969,-0.96954346,-0.1897583,-1.0625,0.59375,0.09375
359,1697620325,-0.1665039,-0.9678345,-0.19903564,-2.109375,0.546875,-0.03125
360,1697620365,-0.15527344,-0.9702759,-0.18609619,-1.40625,1.203125,0.171875
361,1697620405,-0.16845703,-0.9717407,-0.18756104,-1.203125,0.65625,0.390625
362,1697620445,-0.16088867,-0.97613525,-0.19390869,-1.0625,0.765625,0.484375
363,1697620485,-0.16601562,-0.96710205,-0.19244385,-0.6875,0.703125,0.359375
364,1697620525,-0.1628418,-0.9741821,-0.18927002,-0.5,0.828125,0.40625
365,1697620565,-0.15966797,-0.9702759,-0.18389893,-0.421875,-0.015625,0.140625
366,1697620605,-0.16015625,-0.9639282,-0.19244385,-1.59375,1.15625,0.265625
367,1697620645,-0.1706543,-0.98638916,-0.19464111,-0.484375,1.0,0.046875
368,1697620685,-0.16040039,-0.9627075,-0.19146729,-0.046875,0.359375,0.328125
369,1697620725,-0.15942383,-0.9673462,-0.18634033,-0.109375,-0.046875,-0.03125
370,1697620765,-0.16601562,-0.97662354,-0.18609619,1.0625,0.703125,0.375
371,1697620805,-0.17089844,-0.9656372,-0.19122314,0.28125,0.15625,0.203125
372,1697620845,-0.15673828,-0.96588135,-0.20367432,0.890625,0.21875,0.15625
373,1697620885,-0.16870117,-0.9697876,-0.20367432,1.09375,-0.15625,0.15625
374,1697620925,-0.16015625,-0.97442627,-0.1873169,0.75,0.765625,0.828125
375,1697620965,-0.16479492,-0.96661377,-0.20245361,0.625,0.78125,0.765625
376,1697621005,-0.16308594,-0.9585571,-0.2000122,0.078125,0.171875,0.046875
377,1697621045,-0.16430664,-0.9714966,-0.20172119,-0.03125,0.03125,0.21875
378,1697621085,-0.1574707,-0.9717407,-0.20318604,0.75,0.171875,0.375
379,1697621125,-0.1628418,-0.97003174,-0.20684814,0.453125,0.0625,0.25
380,1697621165,-0.15942383,-0.9639282,-0.2041626,0.671875,0.5,0.359375
381,1697621205,-0.16186523,-0.96954346,-0.21221924,0.75,0.34375,0.46875
382,1697621245,-0.15454102,-0.9692993,-0.206604,0.859375,0.71875,0.390625
383,1697621285,-0.16357422,-0.9636841,-0.21539307,-0.03125,1.015625,0.25
384,1697621325,-0.15722656,-0.9644165,-0.20953369,0.0625,0.203125,0.03125
385,1697621365,-0.16381836,-0.96588135,-0.2156372,0.0,0.546875,0.296875
386,1697621405,-0.15771484,-0.97125244,-0.20245361,0.3125,0.234375,-0.0625
387,1697621445,-0.16967773,-0.96539307,-0.21246338,-0.9375,1.34375,0.125
388,1697621485,-0.17041016,-0.97613525,-0.2078247,0.640625,-0.125,-0.171875
389,1697621525,-0.15527344,-0.9607544,-0.21929932,-1.28125,1.265625,0.328125
390,1697621565,-0.1665039,-0.9673462,-0.22027588,1.25,0.15625,-0.09375
391,1697621605,-0.16333008,-0.9636841,-0.20831299,1.734375,1.09375,0.734375
392,1697621645,-0.15771484,-0.9558716,-0.22833252,-0.09375,0.859375,0.359375
393,1697621685,-0.16235352,-0.96588135,-0.2197876,0.25,1.359375,0.375
394,1697621725,-0.16772461,-0.97125244,-0.21832275,-0.375,0.8125,0.234375
395,1697621765,-0.15722656,-0.96539307,-0.21148682,-0.765625,0.203125,-0.0625
396,1697621805,-0.16503906,-0.96759033,-0.21514893,-1.34375,1.265625,0.4375
397,1697621845,-0.17211914,-0.9573364,-0.22735596,-1.546875,0.640625,-0.125
398,1697621885,-0.15991211,-0.9746704,-0.20245361,-0.15625,0.65625,0.171875
399,1697621925,-0.16430664,-0.96417236,-0.21490479,-0.390625,0.78125,0.5
400,1697621965,-0.1628418,-0.9661255,-0.21710205,-0.15625,0.78125,0.34375
401,1697622005,-0.16064453,-0.96588135,-0.22198486,0.09375,0.84375,0.421875
402,1697622045,-0.16992188,-0.96466064,-0.22003174,-0.40625,1.03125,0.546875
403,1697622085,-0.16357422,-0.96417236,-0.22247314,0.109375,0.734375,0.265625
404,1697622125,-0.16015625,-0.9690552,-0.22027588,-0.03125,0.734375,0.453125
405,1697622165,-0.16748047,-0.9710083,-0.2156372,-0.234375,0.84375,0.578125
406,1697622205,-0.16357422,-0.958313,-0.22076416,-0.03125,0.53125,0.5
407,1697622245,-0.16137695,-0.9697876,-0.21099854,0.265625,-0.09375,0.375
408,1697622285,-0.1652832,-0.9636841,-0.22686768,-0.625,1.484375,0.6875
409,1697622325,-0.16894531,-0.9780884,-0.21124268,0.515625,0.3125,0.296875
410,1697622365,-0.15185547,-0.95269775,-0.23028564,-1.921875,1.375,0.375
411,1697622405,-0.17236328,-0.96661377,-0.23858643,-0.359375,0.453125,0.171875
412,1697622445,-0.15625,-0.97247314,-0.21002197,0.328125,1.125,0.53125
413,1697622485,-0.1640625,-0.9627075,-0.22467041,-0.75,1.640625,0.734375
414,1697622525,-0.16235352,-0.9561157,-0.22833252,-0.953125,1.203125,0.46875
415,1697622565,-0.16064453,-0.97052,-0.21343994,-0.484375,0.75,0.3125
416,1697622605,-0.16357422,-0.96588135,-0.21783447,-0.4375,0.953125,0.5625
417,1697622645,-0.1640625,-0.9649048,-0.21612549,-1.6875,1.203125,0.578125
418,1697622685,-0.16674805,-0.96173096,-0.22369385,-1.78125,1.171875,0.328125
419,1697622725,-0.15332031,-0.97857666,-0.20904541,-0.84375,0.734375,0.484375
420,1697622765,-0.1574707,-0.97979736,-0.15679932,-2.328125,0.703125,0.15625
421,1697622805,-0.15966797,-0.9763794,-0.15362549,-2.140625,0.828125,-0.078125
422,1697622845,-0.15332031,-0.9776001,-0.14630127,-0.8125,-0.078125,0.421875
423,1697622885,-0.15307617,-0.9702759,-0.16192627,0.1875,0.8125,0.25
424,1697622925,-0.16113281,-0.972229,-0.1531372,1.5625,0.6875,0.421875
425,1697622965,-0.1550293,-0.98516846,-0.15582275,1.921875,1.0,0.65625
426,1697623005,-0.16333008,-0.98150635,-0.16217041,2.46875,0.609375,0.5
427,1697623045,-0.15527344,-0.9898071,-0.17486572,1.5625,0.15625,0.03125
428,1697623085,-0.14428711,-0.9702759,-0.1362915,2.625,0.015625,-0.0625
429,1697623125,-0.16821289,-0.9727173,-0.18365479,-0.421875,1.390625,0.125
430,1697623165,-0.1574707,-0.973938,-0.16143799,2.078125,0.359375,0.21875
431,1697623205,-0.16381836,-0.972229,-0.16900635,2.609375,-1.34375,-0.78125
432,1697623245,-0.1665039,-0.9758911,-0.17852783,2.4375,-0.71875,-0.65625
433,1697623285,-0.16601562,-0.9783325,-0.17071533,1.546875,0.734375,-0.1875
434,1697623325,-0.16503906,-0.9734497,-0.19049072,1.125,0.0,0.03125
435,1697623365,-0.16772461,-0.96881104,-0.17803955,2.03125,-0.25,0.109375
436,1697623405,-0.1694336,-0.9783325,-0.19122314,0.71875,0.28125,0.25
437,1697623445,-0.16259766,-0.975647,-0.19293213,-0.03125,0.859375,-0.203125
438,1697623485,-0.16235352,-0.97076416,-0.17974854,0.703125,0.203125,-0.015625
439,1697623525,-0.16430664,-0.97540283,-0.18487549,0.984375,0.328125,0.40625
440,1697623565,-0.16455078,-0.9639282,-0.18707275,0.875,0.078125,0.296875
441,1697623605,-0.16186523,-0.9668579,-0.19952393,0.6875,-0.34375,-0.28125
442,1697623645,-0.16040039,-0.96881104,-0.1975708,0.53125,-0.75,-0.59375
443,1697623685,-0.17382812,-0.9714966,-0.19366455,1.234375,-0.203125,-0.046875
444,1697623725,-0.17041016,-0.9644165,-0.19342041,-0.015625,-0.71875,-0.265625
445,1697623765,-0.1640625,-0.9590454,-0.20318604,0.765625,-0.328125,0.109375
446,1697623805,-0.16552734,-0.9768677,-0.19927979,2.40625,-0.453125,0.5
447,1697623845,-0.15356445,-0.95196533,-0.21246338,1.28125,-0.265625,0.296875
448,1697623885,-0.17480469,-0.98394775,-0.21002197,1.578125,0.265625,0.3125
449,1697623925,-0.1550293,-0.95098877,-0.22174072,0.15625,-0.484375,-0.078125
450,1697623965,-0.17016602,-0.9692993,-0.20709229,0.671875,0.625,0.4375
451,1697624005,-0.1616211,-0.97076416,-0.2144165,0.359375,1.203125,0.78125
452,1697624045,-0.16430664,-0.96466064,-0.21295166,-0.21875,1.8125,0.828125
453,1697624085,-0.1706543,-0.9553833,-0.2144165,0.0,0.359375,0.03125
454,1697624125,-0.15625,-0.9729614,-0.21246338,-1.25,1.359375,0.28125
455,1697624165,-0.16748047,-0.9673462,-0.21685791,-0.75,3.21875,0.984375
456,1697624205,-0.16845703,-0.9644165,-0.21221924,0.734375,1.4375,0.46875
457,1697624245,-0.16186523,-0.9624634,-0.20904541,0.21875,1.21875,0.65625
458,1697624285,-0.16333008,-0.97320557,-0.2119751,-0.40625,1.328125,0.609375
459,1697624325,-0.16967773,-0.9619751,-0.21490479,0.03125,1.375,0.359375
460,1697624365,-0.16186523,-0.9680786,-0.22613525,0.203125,1.15625,0.375
461,1697624405,-0.16455078,-0.9729614,-0.22320557,0.125,0.9375,-0.046875
462,1697624445,-0.17114258,-0.97003174,-0.15167236,-0.109375,0.359375,0.3125
463,1697624485,-0.17456055,-0.97076416,-0.15899658,1.4375,-0.078125,0.0
464,1697624525,-0.17114258,-0.9697876,-0.14703369,1.6875,-0.3125,0.375
465,1697624565,-0.17114258,-0.9783325,-0.16241455,1.359375,0.15625,0.46875
466,1697624605,-0.18139648,-0.9668579,-0.16583252,1.75,0.65625,0.171875
467,1697624645,-0.1730957,-0.98394775,-0.1585083,0.765625,0.03125,-0.03125
468,1697624685,-0.16723633,-0.97735596,-0.16314697,1.25,0.375,0.21875
469,1697624725,-0.17456055,-0.9710083,-0.1609497,2.328125,0.65625,0.734375
470,1697624765,-0.18359375,-0.96881104,-0.17584229,1.71875,0.21875,0.484375
471,1697624805,-0.18041992,-0.9763794,-0.1729126,1.625,-0.0625,0.203125
472,1697624845,-0.16479492,-0.97540283,-0.1741333,1.734375,0.703125,0.6875
473,1697624885,-0.18139648,-0.9783325,-0.17681885,1.9375,0.40625,0.3125
474,1697624925,-0.1743164,-0.9631958,-0.16583252,0.953125,-0.546875,0.125
475,1697624965,-0.17382812,-0.99224854,-0.19586182,0.15625,1.140625,0.4375
476,1697625005,-0.16601562,-0.95562744,-0.17877197,1.765625,0.546875,0.21875
477,1697625045,-0.17749023,-0.9663696,-0.18511963,1.890625,-0.03125,0.28125
478,1697625085,-0.17944336,-0.99884033,-0.1741333,0.6875,0.484375,0.453125
479,1697625125,-0.16772461,-0.96466064,-0.190979,-0.421875,0.765625,0.125
480,1697625165,-0.17944336,-0.9692993,-0.19561768,-0.453125,0.484375,0.25
481,1697625205,-0.17041016,-0.975647,-0.19439697,-0.484375,-0.15625,-0.125
482,1697625245,-0.17089844,-0.9651489,-0.17803955,0.46875,0.8125,0.28125
483,1697625285,-0.17993164,-0.97003174,-0.2029419,-0.421875,0.1875,0.71875
484,1697625325,-0.16748047,-0.9734497,-0.19317627,0.15625,0.1875,0.03125
485,1697625365,-0.17333984,-0.96759033,-0.19146729,0.453125,0.53125,0.25
486,1697625405,-0.17529297,-0.9714966,-0.1987915,0.453125,0.4375,0.609375
487,1697625445,-0.17602539,-0.97198486,-0.19854736,0.359375,-0.078125,0.140625
488,1697625485,-0.16381836,-0.96881104,-0.19976807,0.109375,0.375,0.1875
489,1697625525,-0.17089844,-0.97247314,-0.19195557,0.984375,0.65625,0.515625
490,1697625565,-0.17651367,-0.97052,-0.20196533,0.328125,0.46875,0.390625
491,1697625605,-0.17407227,-0.96710205,-0.20465088,0.28125,0.109375,0.09375
492,1697625645,-0.17358398,-0.97052,-0.21221924,0.703125,0.828125,0.09375
493,1697625685,-0.16748047,-0.96051025,-0.18170166,1.0625,0.203125,0.765625
494,1697625725,-0.17089844,-0.97735596,-0.23223877,-0.890625,2.234375,1.0625
495,1697625765,-0.17553711,-0.95806885,-0.20758057,1.28125,0.21875,0.046875
496,1697625805,-0.17407227,-0.972229,-0.20123291,0.34375,0.453125,0.140625
497,1697625845,-0.17089844,-0.975647,-0.21661377,0.375,1.5,0.34375
498,1697625885,-0.17333984,-0.960022,-0.21636963,-0.71875,1.453125,0.125
499,1697625925,-0.17773438,-0.96759033,-0.20513916,-0.484375,0.671875,0.234375
500,1697625965,-0.17285156,-0.96661377,-0.20977783,-0.421875,0.59375,0.15625
501,1697626005,-0.17016602,-0.9697876,-0.20831299,-1.296875,0.625,0.1875
502,1697626045,-0.16723633,-0.97198486,-0.21246338,-0.234375,1.046875,0.109375
503,1697626085,-0.1796875,-0.9663696,-0.20318604,-0.40625,0.671875,0.078125
504,1697626125,-0.17382812,-0.9668579,-0.20489502,-0.859375,0.484375,0.21875
505,1697626165,-0.17114258,-0.9673462,-0.21636963,0.515625,1.09375,0.515625
506,1697626205,-0.17407227,-0.9631958,-0.20928955,0.234375,0.578125,0.28125
507,1697626245,-0.18286133,-0.96661377,-0.20635986,0.265625,0.953125,0.234375
508,1697626285,-0.17163086,-0.9661255,-0.21051025,0.796875,1.140625,0.6875
509,1697626325,-0.17333984,-0.96343994,-0.21173096,0.75,0.859375,0.484375
510,1697626365,-0.17553711,-0.9614868,-0.20831299,0.0,0.828125,0.328125
511,1697626405,-0.17919922,-0.958313,-0.22857666,0.640625,1.046875,0.15625
512,1697626445,-0.16894531,-0.9663696,-0.1873169,1.4375,-0.03125,0.421875
513,1697626485,-0.17285156,-0.9727173,-0.24468994,-2.046875,1.65625,0.015625
514,1697626525,-0.16894531,-0.9553833,-0.21759033,0.265625,1.09375,-0.375
515,1697626565,-0.16967773,-0.9673462,-0.20562744,-0.078125,0.34375,-0.0625
516,1697626605,-0.16967773,-0.97491455,-0.22808838,-2.515625,0.4375,-0.296875
517,1697626645,-0.17578125,-0.94854736,-0.2053833,1.5,1.375,-0.65625
518,1697626685,-0.18359375,-0.96588135,-0.2185669,-2.140625,-0.21875,-0.25
519,1697626725,-0.19165039,-0.9692993,-0.20587158,-2.09375,0.53125,-0.265625
520,1697626765,-0.17407227,-0.95098877,-0.21807861,-2.140625,1.3125,-0.015625
521,1697626805,-0.17529297,-0.9690552,-0.20733643,-3.1875,1.15625,0.890625
522,1697626845,-0.1850586,-0.9678345,-0.19390869,-2.03125,1.0,0.515625
523,1697626885,-0.19384766,-0.9631958,-0.21221924,-2.65625,0.359375,0.421875
524,1697626925,-0.18261719,-0.9697876,-0.19659424,-2.046875,1.234375,0.578125
525,1697626965,-0.17602539,-0.95977783,-0.19927979,-2.171875,1.71875,0.28125
526,1697627005,-0.18457031,-0.96295166,-0.19732666,-1.171875,0.4375,0.171875
527,1697627045,-0.17358398,-0.9854126,-0.190979,-2.875,1.65625,1.203125
528,1697627085,-0.16992188,-0.9614868,-0.19903564,-2.421875,1.5625,0.46875
529,1697627125,-0.18408203,-0.9649048,-0.19317627,-3.15625,0.734375,0.0625
530,1697627165,-0.17358398,-0.9663696,-0.15557861,-1.875,-0.984375,-0.03125
531,1697627205,-0.16821289,-0.9841919,-0.1987915,-2.96875,2.796875,0.4375
532,1697627245,-0.18261719,-0.9522095,-0.16778564,-0.21875,0.921875,0.234375
533,1697627285,-0.18334961,-0.972229,-0.16851807,-1.34375,-0.53125,0.28125
534,1697627325,-0.17456055,-0.96832275,-0.19195557,0.171875,0.59375,0.078125
535,1697627365,-0.1730957,-0.9649048,-0.18145752,1.25,1.109375,0.484375
536,1697627405,-0.18579102,-0.9636841,-0.18951416,2.125,0.25,0.265625
537,1697627445,-0.17333984,-0.9692993,-0.17388916,1.90625,-0.46875,0.046875
538,1697627485,-0.17919922,-0.9776001,-0.19976807,0.96875,1.265625,0.734375
539,1697627525,-0.18408203,-0.95880127,-0.19732666,0.71875,0.984375,0.078125
540,1697627565,-0.18457031,-0.96588135,-0.18414307,0.90625,-0.125,0.328125
541,1697627605,-0.1665039,-0.97052,-0.19830322,1.03125,-0.140625,0.65625
542,1697627645,-0.16967773,-0.9702759,-0.20147705,1.078125,0.796875,0.578125
543,1697627685,-0.18481445,-0.9697876,-0.2000122,1.203125,0.640625,0.703125
544,1697627725,-0.1772461,-0.97076416,-0.19415283,0.4375,0.40625,0.578125
545,1697627765,-0.17993164,-0.9702759,-0.1963501,0.609375,1.015625,0.421875
546,1697627805,-0.17236328,-0.9553833,-0.21343994,0.0,0.546875,0.171875
547,1697627845,-0.17553711,-0.96832275,-0.21270752,0.484375,0.890625,0.234375
548,1697627885,-0.16723633,-0.97491455,-0.1765747,1.828125,-0.09375,0.15625
549,1697627925,-0.17773438,-0.9536743,-0.23272705,-1.71875,2.828125,0.609375
550,1697627965,-0.17626953,-0.9710083,-0.20709229,0.265625,0.1875,-0.296875
551,1697628005,-0.17626953,-0.9727173,-0.19122314,0.625,0.640625,0.28125
552,1697628045,-0.17358398,-0.9717407,-0.21295166,-0.046875,1.3125,0.390625
553,1697628085,-0.17944336,-0.96099854,-0.21148682,-0.671875,1.5,0.390625
554,1697628125,-0.18261719,-0.97198486,-0.21466064,0.203125,0.4375,0.625
555,1697628165,-0.17089844,-0.9795532,-0.20367432,-0.09375,0.796875,0.578125
556,1697628205,-0.1809082,-0.95513916,-0.20831299,-0.3125,1.109375,0.265625
557,1697628245,-0.1772461,-0.96221924,-0.2119751,-1.296875,0.640625,0.34375
558,1697628285,-0.17993164,-0.96588135,-0.20172119,-0.28125,0.8125,0.171875
559,1697628325,-0.1665039,-0.96295166,-0.21099854,0.09375,0.25,0.1875
560,1697628365,-0.18139648,-0.96539307,-0.21270752,-0.015625,1.046875,0.5625
561,1697628405,-0.17602539,-0.9602661,-0.21221924,-0.546875,0.5,0.15625
562,1697628445,-0.17260742,-0.9619751,-0.20928955,0.421875,0.484375,0.28125
563,1697628485,-0.18286133,-0.9673462,-0.21392822,0.484375,0.9375,0.734375
564,1697628525,-0.18359375,-0.9619751,-0.21221924,0.15625,0.453125,0.375
565,1697628565,-0.16601562,-0.9631958,-0.2107544,-0.71875,0.34375,0.1875
566,1697628605,-0.18774414,-0.99542236,-0.21734619,-0.40625,1.15625,0.859375
567,1697628645,-0.17358398,-0.9505005,-0.21661377,-1.0625,0.203125,0.046875
568,1697628685,-0.17651367,-0.96343994,-0.20831299,-0.125,0.234375,0.296875
569,1697628725,-0.18676758,-0.9627075,-0.21466064,1.34375,0.5625,0.3125
570,1697628765,-0.17480469,-0.9651489,-0.18218994,1.8125,1.171875,0.40625
571,1697628805,-0.17138672,-0.97125244,-0.175354,1.828125,0.359375,0.375
572,1697628845,-0.17749023,-0.9710083,-0.19708252,0.421875,0.828125,0.328125
573,1697628885,-0.16723633,-0.96173096,-0.20172119,-0.15625,0.734375,0.03125
574,1697628925,-0.17797852,-0.9685669,-0.19903564,0.5625,0.3125,-0.171875
575,1697628965,-0.1850586,-0.9807739,-0.1987915,0.390625,0.890625,0.25
576,1697629005,-0.17089844,-0.96881104,-0.19000244,0.203125,0.78125,-0.03125
577,1697629045,-0.17700195,-0.96539307,-0.19049072,-0.015625,0.671875,0.28125
578,1697629085,-0.18115234,-0.9710083,-0.19537354,-0.046875,0.75,0.40625
579,1697629125,-0.17504883,-0.96539307,-0.20050049,0.109375,0.9375,0.265625
580,1697629165,-0.17236328,-0.9673462,-0.19610596,0.375,0.765625,0.28125
581,1697629205,-0.17700195,-0.9614868,-0.20196533,0.28125,0.84375,0.203125
582,1697629245,-0.1743164,-0.9692993,-0.20098877,0.296875,0.78125,0.453125
583,1697629285,-0.18066406,-0.9780884,-0.20465088,1.140625,0.421875,0.59375
584,1697629325,-0.1640625,-0.9656372,-0.18414307,-1.03125,0.53125,0.453125
585,1697629365,-0.18237305,-0.98443604,-0.23199463,-1.015625,1.953125,0.515625
586,1697629405,-0.18041992,-0.9434204,-0.19659424,0.0,0.703125,-0.203125
587,1697629445,-0.17895508,-0.9702759,-0.20025635,0.578125,0.0,0.09375
588,1697629485,-0.17529297,-0.9768677,-0.206604,0.921875,0.5,0.140625
589,1697629525,-0.17919922,-0.95880127,-0.20050049,-0.78125,0.96875,0.375
590,1697629565,-0.17333984,-0.9636841,-0.20928955,0.0,0.609375,0.359375
591,1697629605,-0.16992188,-0.9783325,-0.19586182,0.015625,-0.09375,0.421875
592,1697629645,-0.17480469,-0.9636841,-0.21002197,-0.78125,1.015625,0.359375
593,1697629685,-0.18408203,-0.9612427,-0.20709229,-0.71875,0.625,0.125
594,1697629725,-0.17504883,-0.97247314,-0.20684814,-0.359375,0.3125,0.296875
595,1697629765,-0.17407227,-0.9602661,-0.20611572,-0.34375,0.296875,0.25
596,1697629805,-0.17944336,-0.9673462,-0.20684814,0.4375,0.421875,0.578125
597,1697629845,-0.1809082,-0.9751587,-0.21246338,-0.0625,0.296875,0.234375
598,1697629885,-0.1821289,-0.9627075,-0.20758057,-0.390625,0.625,0.421875
599,1697629925,-0.17480469,-0.9627075,-0.20074463,0.296875,0.25,0.546875
600,1697629965,-0.17749023,-0.960022,-0.22613525,-0.0625,0.96875,0.234375
601,1697630005,-0.17919922,-0.98101807,-0.19122314,1.0625,-0.125,0.515625
602,1697630045,-0.16723633,-0.9517212,-0.22906494,-2.546875,1.328125,0.140625
603,1697630085,-0.17651367,-0.96466064,-0.21295166,1.234375,0.828125,0.125
604,1697630125,-0.1706543,-0.9692993,-0.2041626,0.984375,0.828125,0.5625
605,1697630165,-0.18115234,-0.9697876,-0.21612549,-0.453125,1.359375,0.6875
606,1697630205,-0.17675781,-0.9631958,-0.20733643,0.09375,0.859375,0.46875
607,1697630245,-0.1796875,-0.9578247,-0.20758057,0.1875,0.265625,0.296875
608,1697630285,-0.16723633,-0.9746704,-0.21636963,-0.734375,1.265625,0.734375
609,1697630325,-0.17138672,-0.9619751,-0.20953369,-0.671875,0.96875,0.25
610,1697630365,-0.17553711,-0.9692993,-0.20733643,-1.109375,0.59375,0.296875
611,1697630405,-0.17626953,-0.9668579,-0.21295166,-0.671875,0.375,0.125
612,1697630445,-0.16821289,-0.96539307,-0.20733643,-0.046875,1.046875,0.390625
613,1697630485,-0.1796875,-0.9702759,-0.21612549,-0.5,0.59375,0.328125
614,1697630525,-0.17651367,-0.96173096,-0.20880127,-0.140625,0.703125,0.390625
615,1697630565,-0.1730957,-0.9619751,-0.21368408,-0.140625,0.984375,0.40625
616,1697630605,-0.1784668,-0.96881104,-0.22711182,0.375,0.84375,0.1875
617,1697630645,-0.1665039,-0.960022,-0.18756104,-0.46875,-0.1875,0.171875
618,1697630685,-0.17700195,-0.97784424,-0.24737549,-1.671875,2.0625,0.671875
619,1697630725,-0.17895508,-0.95025635,-0.20489502,0.1875,0.890625,-0.015625
620,1697630765,-0.17578125,-0.975647,-0.20709229,-0.125,0.15625,0.328125
621,1697630805,-0.17456055,-0.9734497,-0.21417236,-0.796875,1.046875,0.46875
622,1697630845,-0.18066406,-0.95098877,-0.21051025,-0.703125,1.640625,0.296875
623,1697630885,-0.1850586,-0.96173096,-0.22296143,-0.796875,0.296875,0.1875
624,1697630925,-0.1665039,-0.9834595,-0.19268799,-0.296875,0.75,0.609375
625,1697630965,-0.17602539,-0.96099854,-0.21905518,-1.125,1.3125,0.40625
626,1697631005,-0.1796875,-0.96661377,-0.21246338,-1.765625,0.4375,0.15625
627,1697631045,-0.1743164,-0.9656372,-0.20318604,-0.1875,0.75,0.296875
628,1697631085,-0.1821289,-0.9651489,-0.21881104,-0.609375,0.4375,0.5
629,1697631125,-0.18457031,-0.96539307,-0.21295166,-0.546875,1.0,0.484375
630,1697631165,-0.17041016,-0.96051025,-0.21490479,0.109375,0.53125,0.265625
631,1697631205,-0.17504883,-0.9624634,-0.2053833,-0.28125,0.578125,0.3125
632,1697631245,-0.17749023,-0.9663696,-0.22467041,-0.0625,0.90625,0.46875
633,1697631285,-0.17285156,-0.95806885,-0.22662354,0.109375,0.9375,0.140625
634,1697631325,-0.16967773,-0.9656372,-0.17852783,0.609375,-0.234375,0.421875
635,1697631365,-0.17333984,-0.9678345,-0.25030518,-2.5625,1.875,0.421875
636,1697631405,-0.17260742,-0.95684814,-0.21221924,0.890625,0.734375,0.109375
637,1697631445,-0.17675781,-0.9768677,-0.19683838,-0.328125,1.09375,0.484375
638,1697631485,-0.17895508,-0.9644165,-0.222229,-0.734375,0.8125,0.25
639,1697631525,-0.17919922,-0.96661377,-0.21612549,-1.828125,1.015625,0.546875
640,1697631565,-0.19213867,-0.9846802,-0.21246338,-1.046875,2.296875,1.0
641,1697631605,-0.18261719,-0.95806885,-0.1831665,0.53125,0.71875,0.234375
642,1697631645,-0.18017578,-0.9636841,-0.17462158,-0.421875,0.28125,0.40625
643,1697631685,-0.18457031,-0.9746704,-0.1843872,0.1875,1.171875,0.625
644,1697631725,-0.17895508,-0.9663696,-0.18658447,-0.8125,1.4375,0.71875
645,1697631765,-0.18945312,-0.9673462,-0.1975708,-0.515625,0.453125,0.171875
646,1697631805,-0.18530273,-0.98272705,-0.17364502,-0.453125,0.125,0.265625
647,1697631845,-0.17919922,-0.9746704,-0.17828369,-0.640625,1.578125,1.0625
648,1697631885,-0.18969727,-0.97442627,-0.1897583,-1.171875,0.859375,0.515625
649,1697631925,-0.17651367,-0.972229,-0.17584229,-0.890625,0.296875,0.265625
650,1697631965,-0.18286133,-0.9680786,-0.1873169,-0.953125,1.140625,0.703125
651,1697632005,-0.18481445,-0.9651489,-0.19024658,0.125,0.234375,0.25
652,1697632045,-0.19018555,-0.9690552,-0.18243408,-1.109375,0.71875,0.421875
653,1697632085,-0.18457031,-0.9595337,-0.1819458,0.203125,0.359375,0.3125
654,1697632125,-0.17773438,-0.9668579,-0.1807251,0.140625,0.859375,0.4375
655,1697632165,-0.18261719,-0.97125244,-0.18267822,0.40625,0.46875,0.4375
656,1697632205,-0.19311523,-0.9768677,-0.17633057,-0.46875,0.21875,0.328125
657,1697632245,-0.17041016,-0.9627075,-0.18389893,-1.421875,1.03125,0.671875
658,1697632285,-0.18945312,-0.98443604,-0.18511963,-0.765625,0.84375,0.765625
659,1697632325,-0.17163086,-0.9522095,-0.1873169,-0.421875,0.5,0.015625
660,1697632365,-0.17749023,-0.97247314,-0.18658447,-0.203125,-0.015625,0.265625
661,1697632405,-0.1850586,-0.9824829,-0.17706299,0.359375,0.953125,0.453125
662,1697632445,-0.17578125,-0.9668579,-0.1873169,-0.46875,1.421875,0.859375
663,1697632485,-0.17871094,-0.9614868,-0.19049072,-0.796875,0.375,0.0
664,1697632525,-0.1796875,-0.972229,-0.1687622,0.0625,0.796875,0.140625
665,1697632565,-0.17822266,-0.9751587,-0.19171143,-0.4375,1.296875,0.703125
666,1697632605,-0.17919922,-0.975647,-0.1807251,-1.15625,1.234375,0.3125
667,1697632645,-0.17578125,-0.96588135,-0.1765747,0.09375,0.953125,0.5625
668,1697632685,-0.19140625,-0.9768677,-0.17852783,-1.9375,0.453125,0.25
669,1697632725,-0.17602539,-0.9690552,-0.18023682,-0.6875,0.734375,0.25
670,1697632765,-0.1743164,-0.9673462,-0.17974854,-0.90625,0.859375,0.265625
671,1697632805,-0.18603516,-0.97125244,-0.18048096,-0.359375,0.609375,0.453125
672,1697632845,-0.1772461,-0.9727173,-0.17633057,-0.234375,0.5625,0.21875
673,1697632885,-0.18310547,-0.9714966,-0.18023682,-1.640625,0.875,0.484375
674,1697632925,-0.18334961,-0.96221924,-0.17364502,-0.515625,0.34375,0.1875
675,1697632965,-0.17626953,-0.9673462,-0.1975708,-1.0625,0.453125,0.015625
676,1697633005,-0.18725586,-0.9927368,-0.15679932,0.125,-0.171875,0.25
677,1697633045,-0.171875,-0.9475708,-0.20343018,-2.25,1.875,0.03125
678,1697633085,-0.18457031,-0.97198486,-0.18170166,1.03125,0.5625,0.15625
679,1697633125,-0.1772461,-0.98028564,-0.16412354,0.546875,0.21875,0.296875
680,1697633165,-0.17504883,-0.9690552,-0.17779541,-0.734375,1.21875,0.46875
681,1697633205,-0.18237305,-0.96466064,-0.18267822,-0.390625,1.1875,0.5
682,1697633245,-0.1821289,-0.9729614,-0.1765747,-0.796875,0.328125,0.265625
683,1697633285,-0.18066406,-0.97979736,-0.17120361,-0.515625,0.703125,0.5
684,1697633325,-0.17773438,-0.96221924,-0.19659424,0.65625,0.765625,-0.203125
685,1697633365,-0.19213867,-0.9663696,-0.1807251,1.109375,1.609375,0.40625
686,1697633405,-0.1965332,-0.9673462,-0.19024658,0.59375,-0.109375,-0.65625
687,1697633445,-0.18798828,-0.97442627,-0.18658447,-0.890625,1.390625,0.328125
688,1697633485,-0.18969727,-0.9561157,-0.18658447,0.625,1.671875,0.40625
689,1697633525,-0.18774414,-0.9690552,-0.19073486,-0.875,0.390625,0.1875
690,1697633565,-0.18066406,-0.9746704,-0.18634033,-0.71875,0.65625,0.640625
691,1697633605,-0.18554688,-0.96466064,-0.20513916,-0.03125,0.71875,0.265625
692,1697633645,-0.18676758,-0.97052,-0.19488525,-0.546875,-0.234375,-0.234375
693,1697633685,-0.2006836,-0.96539307,-0.17584229,1.390625,1.375,0.265625
694,1697633725,-0.19555664,-0.97320557,-0.21588135,-0.84375,0.703125,0.234375
695,1697633765,-0.17456055,-0.9690552,-0.1885376,0.484375,1.40625,0.5
696,1697633805,-0.19360352,-0.95391846,-0.18804932,0.625,1.109375,0.734375
697,1697633845,-0.18896484,-0.9570923,-0.20733643,-0.984375,0.921875,-0.171875
698,1697633885,-0.1887207,-0.99102783,-0.15777588,2.28125,-0.09375,0.4375
699,1697633925,-0.18041992,-0.9553833,-0.23052979,-2.125,1.953125,0.390625
700,1697633965,-0.19360352,-0.9507446,-0.19683838,0.84375,1.171875,0.15625
701,1697634005,-0.19165039,-0.9846802,-0.19024658,1.890625,0.671875,0.8125
702,1697634045,-0.18115234,-0.97052,-0.20391846,-0.703125,1.015625,0.328125
703,1697634085,-0.19140625,-0.96417236,-0.19488525,0.9375,1.640625,0.953125
704,1697634125,-0.1850586,-0.96588135,-0.20147705,-0.5,0.46875,0.265625
705,1697634165,-0.19555664,-0.97247314,-0.20562744,-0.203125,0.453125,0.421875
706,1697634205,-0.19067383,-0.9636841,-0.20806885,-0.015625,1.140625,0.484375
707,1697634245,-0.19384766,-0.96466064,-0.19805908,-0.328125,0.34375,-0.09375
708,1697634285,-0.1899414,-0.973938,-0.19781494,-0.40625,0.8125,0.65625
709,1697634325,-0.1850586,-0.9685669,-0.21173096,-1.78125,1.46875,0.84375
710,1697634365,-0.18115234,-0.9651489,-0.2029419,-1.640625,0.859375,0.28125
711,1697634405,-0.1862793,-0.96221924,-0.19171143,-0.375,1.28125,0.46875
712,1697634445,-0.18823242,-0.9746704,-0.2000122,-2.234375,0.359375,0.390625
713,1697634485,-0.18408203,-0.96954346,-0.18707275,-3.953125,1.53125,0.390625
714,1697634525,-0.18823242,-0.9624634,-0.18243408,-1.34375,-0.09375,-0.0625
715,1697634565,-0.1899414,-0.95806885,-0.19561768,-2.046875,1.859375,0.3125
716,1697634605,-0.19506836,-0.99957275,-0.17633057,-3.125,1.78125,0.921875
717,1697634645,-0.16870117,-0.94610596,-0.19952393,-4.71875,2.078125,0.15625
718,1697634685,-0.18017578,-0.9631958,-0.1795044,-1.84375,1.046875,0.21875
719,1697634725,-0.19213867,-0.9805298,-0.1651001,-2.078125,1.578125,0.625
720,1697634765,-0.18676758,-0.9661255,-0.17486572,-2.203125,1.15625,-0.125
721,1697634805,-0.19995117,-0.96832275,-0.17803955,-1.890625,1.078125,-0.125
722,1697634845,-0.18969727,-0.9819946,-0.1560669,-2.1875,0.28125,-0.09375
723,1697634885,-0.18774414,-0.97857666,-0.17095947,-2.75,1.5625,0.234375
724,1697634925,-0.19555664,-0.9649048,-0.16412354,-2.0625,1.6875,-0.234375
725,1697634965,-0.18017578,-0.98028564,-0.15216064,-3.453125,0.828125,0.3125
726,1697635005,-0.18920898,-0.97076416,-0.16070557,-3.3125,-0.0625,0.328125
727,1697635045,-0.19433594,-0.96295166,-0.15460205,-0.59375,1.515625,0.46875
728,1697635085,-0.20483398,-0.9841919,-0.15557861,-0.5625,0.375,0.265625
729,1697635125,-0.18579102,-0.975647,-0.15802002,-2.484375,0.75,0.234375
730,1697635165,-0.19116211,-0.96539307,-0.14727783,-0.0625,1.078125,0.578125
731,1697635205,-0.19604492,-0.9793091,-0.15948486,0.21875,-0.234375,0.34375
732,1697635245,-0.18798828,-0.9678345,-0.13067627,-0.21875,-0.296875,0.359375
733,1697635285,-0.19433594,-0.98394775,-0.175354,-1.125,1.625,0.5625
734,1697635325,-0.1887207,-0.96710205,-0.1519165,1.125,-0.015625,0.265625
735,1697635365,-0.18554688,-0.9639282,-0.15704346,1.875,0.1875,0.390625
736,1697635405,-0.19433594,-0.9727173,-0.15655518,1.453125,0.71875,0.421875
737,1697635445,-0.18652344,-0.9727173,-0.15557861,0.734375,0.796875,0.390625
738,1697635485,-0.19482422,-0.9697876,-0.16290283,1.828125,0.53125,0.03125
739,1697635525,-0.18701172,-0.98223877,-0.1609497,0.578125,-0.3125,0.21875
740,1697635565,-0.18530273,-0.96881104,-0.16265869,0.765625,0.765625,0.46875
741,1697635605,-0.18969727,-0.96173096,-0.17779541,1.71875,1.046875,0.546875
742,1697635645,-0.19506836,-0.9741821,-0.1663208,1.0,0.328125,0.59375
743,1697635685,-0.18139648,-0.97052,-0.17852783,0.34375,0.15625,0.171875
744,1697635725,-0.18432617,-0.9702759,-0.17266846,1.34375,1.0,0.671875
745,1697635765,-0.18554688,-0.96539307,-0.18292236,1.328125,0.46875,0.6875
746,1697635805,-0.19384766,-0.9729614,-0.17706299,0.5,0.421875,0.4375
747,1697635845,-0.19165039,-0.96588135,-0.17315674,0.859375,0.96875,0.5625
748,1697635885,-0.20166016,-0.96759033,-0.18951416,1.3125,0.015625,0.34375
749,1697635925,-0.17822266,-0.96343994,-0.17047119,0.171875,-0.1875,0.609375
750,1697635965,-0.18041992,-0.98223877,-0.21246338,-1.09375,2.234375,0.9375
751,1697636005,-0.1743164,-0.95635986,-0.17437744,1.3125,0.578125,0.21875
752,1697636045,-0.19433594,-0.9685669,-0.17633057,1.03125,-0.21875,0.3125
753,1697636085,-0.18286133,-0.98028564,-0.19000244,0.40625,1.21875,0.875
754,1697636125,-0.1875,-0.9624634,-0.19464111,-0.125,1.65625,0.953125
755,1697636165,-0.18310547,-0.9690552,-0.19317627,1.234375,1.40625,1.203125
756,1697636205,-0.1821289,-0.96832275,-0.18121338,0.8125,0.5625,0.6875
757,1697636245,-0.17675781,-0.97003174,-0.20245361,0.046875,1.8125,0.9375
758,1697636285,-0.18310547,-0.9624634,-0.19952393,0.359375,1.390625,0.53125
759,1697636325,-0.18286133,-0.9788208,-0.19293213,0.4375,0.609375,0.84375
