,timestamp,accel_x,accel_y,accel_z,gyro_x,gyro_y,gyro_z
0,1697605965,-0.6513672,-0.14746094,0.23144531,-48.40625,-6.4375,3.78125
1,1697606005,-0.6826172,-0.3125,0.3515625,-13.125,40.625,16.34375
2,1697606045,-1.0683594,-0.95996094,0.26464844,-91.25,23.90625,2.8125
3,1697606085,-0.88183594,-0.5810547,0.6376953,-106.9375,-16.9375,35.34375
4,1697606125,-0.77734375,-0.6640625,0.3017578,-93.0625,-37.375,20.9375
5,1697606165,-0.42773438,-0.72265625,0.018554688,-141.21875,-28.28125,7.6875
6,1697606205,-0.63183594,-0.8095703,0.31445312,-86.96875,-5.15625,36.3125
7,1697606245,-1.1054688,-0.89941406,0.21875,-80.0,-22.0625,45.15625
8,1697606285,-0.78808594,-0.51660156,0.16601562,-91.0625,-12.71875,35.15625
9,1697606325,-1.1113281,-0.7128906,0.14257812,-93.1875,-27.5625,50.0
10,1697606365,-0.87109375,-0.6845703,0.1328125,-129.9375,-42.03125,40.21875
11,1697606405,-0.63378906,-0.7529297,0.005859375,-103.3125,-28.28125,46.9375
12,1697606445,-0.60058594,-0.80566406,0.20507812,-114.875,-26.9375,33.8125
13,1697606485,-0.7265625,-0.5595703,0.4453125,-136.15625,-35.5,21.78125
14,1697606525,-0.5810547,-0.53027344,0.30078125,-122.6875,-85.53125,2.875
15,1697606565,-0.45898438,-0.6269531,0.21582031,-110.78125,-152.875,-32.71875
16,1697606605,-1.0810547,-0.3984375,0.34277344,-125.3125,-281.71875,-55.90625
17,1697606645,-1.4667969,-0.39160156,0.4716797,-165.46875,-287.03125,-44.875
18,1697606685,-1.3232422,-0.82714844,-0.12207031,-10.625,-209.6875,-14.59375
19,1697606725,-1.4755859,-1.4990234,0.1328125,-144.34375,-211.46875,-33.5625
20,1697606765,-0.64941406,-0.51171875,0.09863281,-115.84375,-122.21875,-4.9375
21,1697606805,-0.3017578,-0.56933594,0.0703125,-86.65625,-57.78125,27.28125
22,1697606845,-0.2529297,-0.21289062,0.06738281,-104.71875,-16.5,66.46875
23,1697606885,-0.25097656,0.028320312,0.032226562,-94.09375,-39.8125,35.46875
24,1697606925,-0.18066406,-0.38085938,0.3173828,-48.9375,9.75,15.5625
25,1697606965,-0.0546875,-0.7734375,-0.38476562,-93.4375,-54.28125,3.65625
26,1697607005,-1.109375,-1.0478516,-0.20019531,-193.90625,-27.25,-52.75
27,1697607045,-2.0,-0.9042969,0.8417969,-309.0,-66.5625,48.15625
28,1697607085,-1.4736328,-0.265625,-0.3251953,-65.375,-91.28125,13.5625
29,1697607125,-1.3125,-0.9091797,-0.22265625,-163.3125,-90.46875,68.84375
30,1697607165,-0.8720703,-0.8564453,-0.31640625,-159.65625,-73.5,73.125
31,1697607205,-0.51660156,-1.1328125,-0.3154297,-178.40625,-76.125,52.78125
32,1697607245,-0.16113281,-1.0908203,0.12207031,-192.5,-92.5,41.3125
33,1697607285,-0.3544922,-0.4033203,0.28515625,-164.375,-125.03125,23.6875
34,1697607325,-0.26367188,-0.35253906,-0.18652344,-111.75,-137.0,15.3125
35,1697607365,-0.25878906,-0.25,-0.12109375,-178.34375,-203.46875,-11.40625
36,1697607405,-0.84375,-0.15234375,-0.028320312,-194.5625,-267.0625,-23.5625
37,1697607445,-1.9111328,-0.76171875,0.0,-215.3125,-328.09375,-50.0
38,1697607485,-1.9199219,-0.7207031,0.22070312,-243.34375,-222.4375,30.03125
39,1697607525,-1.1894531,-0.8183594,0.23046875,-107.34375,-164.59375,21.1875
40,1697607565,-1.1152344,-0.5732422,0.2841797,-161.8125,-152.75,72.3125
41,1697607605,-0.9794922,-0.13867188,0.018554688,-109.84375,-128.25,95.03125
42,1697607645,-0.7636719,-0.140625,0.017578125,7.9375,-94.9375,84.78125
43,1697607685,-0.6386719,-0.7636719,0.072265625,-103.75,-118.5,102.21875
44,1697607725,-0.54296875,-0.60546875,0.24511719,-130.90625,-109.84375,82.625
45,1697607765,-0.48632812,-0.73339844,-0.041015625,-58.53125,-83.71875,56.6875
46,1697607805,-0.4873047,-0.6953125,0.609375,-107.34375,-43.125,62.0625
47,1697607845,-0.7753906,-0.40429688,0.5703125,-63.84375,-45.5,38.09375
48,1697607885,-0.6386719,-0.62109375,0.40429688,-79.875,-41.78125,34.0
49,1697607925,-0.7451172,-0.52734375,0.52246094,-85.75,-37.5,24.03125
50,1697607965,-0.5761719,-0.48632812,0.52441406,-67.25,-27.4375,19.71875
51,1697608005,-0.6484375,-0.4873047,0.5644531,-74.40625,-27.8125,24.34375
52,1697608045,-0.6201172,-0.44921875,0.35058594,-62.5625,-18.78125,17.09375
53,1697608085,-0.6279297,-0.49804688,0.45214844,-77.6875,-6.1875,12.09375
54,1697608125,-0.66015625,-0.4345703,0.58691406,-69.375,-7.34375,10.75
55,1697608165,-0.5732422,-0.5566406,0.41503906,-51.125,-11.9375,9.6875
56,1697608205,-0.7548828,-0.34472656,0.6357422,-45.46875,-11.5,-0.3125
57,1697608245,-1.4697266,-0.36914062,1.0849609,-1.53125,-8.6875,-13.4375
58,1697608285,-0.875,-0.7685547,-0.22851562,-74.09375,-90.4375,-15.8125
59,1697608325,-0.796875,-0.31933594,0.25878906,-31.5,-81.21875,17.28125
60,1697608365,-0.77246094,-1.0253906,0.06347656,-72.5625,-52.875,-18.25
61,1697608405,-0.8359375,-0.57128906,0.3671875,-19.78125,-62.59375,-11.21875
62,1697608445,-0.6640625,-0.4140625,0.34765625,-44.84375,-45.875,-12.15625
63,1697608485,-0.5683594,-0.63183594,0.35253906,-37.21875,-68.9375,-16.46875
64,1697608525,-0.5205078,-0.7734375,0.21875,-37.90625,-79.1875,-17.40625
65,1697608565,-0.5439453,-0.5498047,0.5,7.03125,-83.28125,-27.65625
66,1697608605,-0.3544922,-0.39453125,0.4658203,30.46875,-80.0,-45.78125
67,1697608645,-0.33398438,-0.6699219,0.47070312,51.28125,-83.53125,-42.25
68,1697608685,-0.47460938,-0.61035156,0.609375,37.0,-77.1875,-42.96875
69,1697608725,-0.4189453,-0.62109375,0.68652344,54.03125,-70.40625,-43.40625
70,1697608765,-0.4248047,-0.60839844,0.62109375,24.71875,-70.15625,-51.625
71,1697608805,-0.3779297,-0.5048828,0.7421875,8.0625,-81.375,-41.375
72,1697608845,-0.27148438,-0.6152344,0.7402344,2.25,-76.375,-40.46875
73,1697608885,-0.23046875,-0.6699219,0.77441406,7.6875,-74.0,-39.0
74,1697608925,-0.28515625,-0.5957031,0.75683594,24.125,-74.84375,-35.90625
75,1697608965,-0.095703125,-0.60839844,0.8144531,32.40625,-75.71875,-27.15625
76,1697609005,-0.09472656,-0.6074219,0.90722656,37.71875,-72.59375,-31.375
77,1697609045,-0.034179688,-0.5205078,0.8808594,60.125,-71.1875,-24.125
78,1697609085,0.10253906,-0.5917969,1.0390625,39.1875,-66.5625,-22.21875
79,1697609125,0.21972656,-0.6376953,0.9785156,27.34375,-63.75,-20.75
80,1697609165,0.2861328,-0.5527344,1.0644531,33.46875,-47.28125,-16.1875
81,1697609205,0.24414062,-0.6376953,1.0722656,5.8125,-35.0625,-15.875
82,1697609245,0.23046875,-0.5996094,1.0947266,11.0625,-20.59375,-11.96875
83,1697609285,0.28320312,-0.5966797,1.1318359,-9.28125,-7.15625,-7.5
84,1697609325,0.21972656,-0.54785156,1.0644531,-8.90625,6.125,0.0
85,1697609365,0.3046875,-0.57910156,1.1142578,-19.40625,21.9375,11.09375
86,1697609405,0.3125,-0.6591797,1.0537109,-22.75,41.15625,18.3125
87,1697609445,0.21386719,-0.6113281,1.0439453,-29.46875,54.84375,20.03125
88,1697609485,0.115234375,-0.67871094,1.0283203,-35.09375,64.65625,26.96875
89,1697609525,-0.044921875,-0.6435547,0.9658203,-33.0,71.9375,33.4375
90,1697609565,-0.1171875,-0.6660156,1.0019531,-33.875,74.125,40.53125
91,1697609605,-0.16210938,-0.69921875,0.875,-35.03125,76.9375,45.65625
92,1697609645,-0.20410156,-0.703125,0.8769531,-32.59375,79.6875,52.375
93,1697609685,-0.27441406,-0.7128906,0.7910156,-25.8125,80.78125,56.8125
94,1697609725,-0.2763672,-0.6503906,0.7783203,-17.21875,83.28125,62.9375
95,1697609765,-0.41210938,-0.63671875,0.71191406,-12.5625,87.5,68.1875
96,1697609805,-0.5126953,-0.6171875,0.68652344,-15.125,94.03125,72.4375
97,1697609845,-0.51660156,-0.5283203,0.5488281,-14.28125,103.84375,71.15625
98,1697609885,-0.5097656,-0.53515625,0.4921875,-19.71875,102.8125,72.5
99,1697609925,-0.41601562,-0.42089844,0.35742188,-9.8125,102.5625,77.625
100,1697609965,-0.35351562,-0.37402344,0.31347656,-8.46875,96.90625,69.53125
101,1697610005,-0.40039062,-0.47265625,0.35839844,-11.71875,91.84375,59.1875
102,1697610045,-0.5800781,-0.56152344,0.36816406,-32.21875,63.09375,23.75
103,1697610085,-0.7050781,-0.3779297,0.4716797,-7.0,26.71875,4.40625
104,1697610125,-0.93652344,-0.0390625,0.5029297,25.09375,24.03125,-8.96875
105,1697610165,-0.91308594,-0.38183594,0.39453125,-38.5625,-11.3125,-1.84375
106,1697610205,-0.98339844,-0.3466797,0.3203125,-44.25,-34.15625,15.875
107,1697610245,-0.89941406,-0.46484375,0.375,-43.9375,-31.34375,14.15625
108,1697610285,-0.8486328,-0.41503906,0.40820312,-48.5625,-31.875,19.09375
109,1697610325,-0.8222656,-0.5029297,0.38183594,-70.0625,-39.8125,20.4375
110,1697610365,-0.77441406,-0.38964844,0.45898438,-52.1875,-39.875,20.25
111,1697610405,-0.82910156,-0.23046875,0.37109375,-37.96875,-40.3125,31.84375
112,1697610445,-0.82910156,-0.15820312,0.43945312,-19.21875,-33.78125,36.4375
113,1697610485,-0.8027344,-0.72558594,0.33789062,-88.8125,-32.9375,8.90625
114,1697610525,-0.8203125,-0.6435547,0.3251953,-120.15625,-61.25,17.625
115,1697610565,-0.7392578,-0.6123047,0.34570312,-104.65625,-67.65625,8.0
116,1697610605,-0.53027344,-0.8574219,0.19921875,-110.78125,-56.0625,12.5
117,1697610645,-0.77246094,-0.8574219,0.41992188,-73.78125,-35.3125,-15.75
118,1697610685,-0.5966797,-0.3173828,0.20898438,-20.875,-56.125,2.3125
119,1697610725,-0.65527344,-0.7949219,0.09472656,-100.21875,-52.65625,-0.625
120,1697610765,-0.7675781,-0.453125,0.55078125,-52.46875,-72.78125,-9.65625
121,1697610805,-0.39160156,-1.0185547,0.19238281,-110.03125,-73.09375,5.75
122,1697610845,-0.44628906,-1.0605469,0.3125,13.6875,-26.875,-23.4375
123,1697610885,-0.75,-0.34765625,0.63671875,13.25,-24.875,-17.34375
124,1697610925,-0.5761719,-1.0585938,0.6142578,-7.9375,-39.28125,-26.25
125,1697610965,-0.5644531,-0.26757812,0.20019531,17.34375,-12.90625,17.5625
126,1697611005,-0.5683594,-1.0009766,0.6845703,15.15625,-18.34375,-8.25
127,1697611045,-0.5175781,-0.5,0.5859375,46.9375,-5.21875,21.40625
128,1697611085,-0.4609375,-0.46679688,0.49609375,26.4375,-8.03125,33.5625
129,1697611125,-0.4345703,-0.8359375,0.69628906,36.3125,-7.78125,36.8125
130,1697611165,-0.54785156,-0.6826172,0.6455078,56.40625,-3.09375,20.25
131,1697611205,-0.32421875,-0.453125,0.5019531,60.0625,9.3125,17.75
132,1697611245,-0.50683594,-0.49414062,0.5908203,21.375,21.5625,4.28125
133,1697611285,-0.42382812,-0.48535156,0.5673828,3.1875,40.875,0.71875
134,1697611325,-0.8720703,-0.64160156,0.7373047,3.5,48.3125,26.1875
135,1697611365,-1.3261719,-0.95703125,0.6875,45.34375,32.375,68.46875
136,1697611405,-1.09375,-0.3935547,0.234375,85.46875,-22.25,104.6875
137,1697611445,-0.43652344,0.11230469,-0.034179688,3.3125,-21.09375,102.28125
138,1697611485,-0.4765625,-0.17773438,-0.36035156,-19.65625,49.71875,83.0
139,1697611525,-0.7910156,-0.08300781,-0.20996094,-30.625,139.875,74.8125
140,1697611565,-1.1464844,-0.01953125,-0.16015625,-80.625,170.625,102.71875
141,1697611605,-1.1123047,0.36914062,-0.048828125,-88.5,160.90625,149.34375
142,1697611645,-1.2714844,0.45214844,-0.029296875,-195.625,118.375,223.4375
143,1697611685,-1.3144531,0.2607422,0.076171875,-191.40625,119.125,241.03125
144,1697611725,-1.3027344,0.0107421875,-0.16699219,-131.59375,102.4375,193.71875
145,1697611765,-1.2226562,-0.01171875,-0.119140625,-58.78125,80.46875,87.09375
146,1697611805,-0.92285156,-0.18652344,-0.07519531,-30.3125,166.96875,60.3125
147,1697611845,-1.0205078,0.17773438,-0.06542969,-15.5625,111.53125,111.8125
148,1697611885,-0.8730469,0.8017578,0.140625,11.53125,86.8125,111.875
149,1697611925,-0.81933594,0.67871094,-0.19628906,-48.875,69.1875,42.65625
150,1697611965,-0.73828125,0.53125,-0.3251953,-68.53125,54.65625,35.8125
151,1697612005,-0.7363281,0.51464844,-0.26757812,-33.1875,45.5625,38.6875
152,1697612045,-0.73046875,0.78808594,-0.22167969,-31.0625,50.03125,55.28125
153,1697612085,-0.75,0.89941406,-0.21582031,30.46875,47.6875,32.46875
154,1697612125,-0.6455078,0.5703125,-0.4560547,2.5625,13.46875,28.8125
155,1697612165,-0.6982422,0.6826172,-0.42773438,-19.34375,14.625,18.1875
156,1697612205,-0.73535156,0.98828125,-0.1953125,-19.65625,36.34375,15.5625
157,1697612245,-0.79589844,0.7792969,-0.48339844,32.28125,-5.59375,-7.25
158,1697612285,-0.8642578,0.8574219,-0.43847656,0.625,-0.28125,-23.875
159,1697612325,-0.7998047,0.85253906,-0.484375,-20.0625,-8.09375,-21.5625
160,1697612365,-0.6904297,0.91796875,-0.3173828,-19.84375,-2.65625,-20.5625
161,1697612405,-0.7675781,0.8144531,-0.50683594,8.125,-11.5,-25.75
162,1697612445,-0.7861328,0.89160156,-0.36328125,-35.09375,4.5625,-25.09375
163,1697612485,-0.7236328,0.8623047,-0.25390625,10.8125,14.5625,-28.625
164,1697612525,-0.76171875,0.85058594,-0.25,1.34375,-15.84375,-20.375
165,1697612565,-0.7451172,0.67578125,-0.37597656,3.71875,-16.875,-20.875
166,1697612605,-0.7265625,0.6464844,-0.40820312,-2.1875,-10.09375,-21.4375
167,1697612645,-0.75390625,0.60839844,-0.3408203,13.625,0.53125,-21.5625
168,1697612685,-0.7294922,0.640625,-0.25683594,-22.5,-1.3125,-23.625
169,1697612725,-0.7626953,0.5439453,-0.22265625,24.46875,-9.0,-23.6875
170,1697612765,-0.7128906,0.5957031,-0.37304688,15.375,-13.625,-24.84375
171,1697612805,-0.78125,0.51660156,-0.32421875,19.71875,-14.625,-22.71875
172,1697612845,-0.7109375,0.5449219,-0.23242188,12.28125,3.5,-25.46875
173,1697612885,-0.72265625,0.42089844,-0.30078125,28.8125,-11.125,-26.78125
174,1697612925,-0.78222656,0.4013672,-0.2998047,25.46875,-10.65625,-31.3125
175,1697612965,-0.8876953,0.3671875,-0.23242188,15.3125,-21.75,-39.125
176,1697613005,-0.9765625,0.4140625,-0.13769531,18.3125,-38.34375,-39.25
177,1697613045,-1.0615234,0.45117188,-0.024414062,13.6875,-84.875,-31.5625
178,1697613085,-1.0185547,0.3701172,-0.009765625,34.375,-131.9375,-29.78125
179,1697613125,-0.82421875,0.31347656,-0.15234375,29.84375,-138.21875,-35.84375
180,1697613165,-0.73535156,0.26757812,-0.4453125,138.6875,-98.53125,-20.5625
181,1697613205,-0.62402344,0.10253906,-0.20996094,176.75,-54.15625,-5.0
182,1697613245,-1.3154297,0.0107421875,0.27246094,76.125,-85.21875,-21.4375
183,1697613285,-1.5380859,0.24316406,-0.032226562,118.59375,-113.4375,-57.375
184,1697613325,-1.6220703,0.2265625,0.21386719,72.9375,-143.28125,-69.71875
185,1697613365,-1.4423828,0.37402344,0.23632812,149.96875,-179.96875,-92.84375
186,1697613405,-1.5263672,-0.015625,0.15332031,108.09375,-241.0,-87.84375
187,1697613445,-1.2578125,0.15625,0.24316406,150.6875,-226.28125,-98.5
188,1697613485,-0.7138672,0.1796875,-0.30078125,155.03125,-219.28125,-28.9375
189,1697613525,-0.65722656,0.3125,0.10449219,91.75,-203.59375,-10.6875
190,1697613565,-0.23925781,0.061523438,-0.018554688,54.5,-163.59375,-0.5625
191,1697613605,-0.3408203,0.07519531,0.080078125,-18.125,-78.46875,-27.90625
192,1697613645,-0.017578125,-0.109375,0.23535156,-42.15625,10.40625,-51.40625
193,1697613685,-0.97265625,0.23339844,1.1318359,-95.21875,37.25,-70.1875
194,1697613725,-1.2099609,0.037109375,1.3623047,-20.1875,4.0,-51.625
195,1697613765,-0.74609375,-0.265625,0.9003906,5.0,-24.9375,-76.0
196,1697613805,-0.8613281,-0.03125,0.6826172,28.21875,-6.375,-80.625
197,1697613845,-0.9121094,0.13183594,0.72265625,32.53125,5.03125,-45.59375
198,1697613885,-0.7109375,-0.068359375,0.74316406,9.96875,7.59375,-28.5
199,1697613925,-0.6796875,-0.14257812,0.8417969,5.375,7.71875,-25.34375
200,1697613965,-0.703125,-0.09277344,0.8535156,-0.46875,8.40625,-28.6875
201,1697614005,-0.6689453,0.018554688,0.6796875,-1.03125,9.84375,-30.6875
202,1697614045,-0.70996094,-0.08984375,0.6591797,-25.09375,21.75,-27.15625
203,1697614085,-0.63964844,0.03125,0.7392578,-10.375,7.21875,-22.46875
204,1697614125,-0.6142578,-0.09082031,0.8125,-14.34375,6.75,-15.6875
205,1697614165,-0.5654297,-0.087890625,0.7285156,-23.375,11.125,-20.6875
206,1697614205,-0.73828125,-0.32617188,0.8378906,-38.4375,5.40625,-24.90625
207,1697614245,-0.6660156,-0.34277344,0.68652344,-11.34375,14.5625,-34.375
208,1697614285,-0.7167969,-0.36816406,0.83203125,16.0,-0.40625,-29.0
209,1697614325,-0.74121094,-0.3623047,0.90527344,20.03125,7.28125,-25.28125
210,1697614365,-0.7519531,-0.39941406,0.7939453,20.8125,41.15625,-23.3125
211,1697614405,-0.78027344,-0.4296875,0.87109375,19.90625,60.15625,-29.65625
212,1697614445,-0.7675781,-0.4501953,0.82421875,26.3125,52.21875,-33.75
213,1697614485,-0.41308594,-0.51171875,0.58496094,46.625,57.46875,-64.53125
214,1697614525,-0.45117188,-0.55566406,0.69140625,89.4375,79.0625,-90.03125
215,1697614565,-0.6064453,-0.6074219,0.34277344,52.1875,105.5625,-100.28125
216,1697614605,-0.61621094,-0.50097656,0.45214844,41.4375,103.78125,-105.84375
217,1697614645,-0.50683594,-0.3203125,-0.068359375,-10.25,169.34375,-107.78125
218,1697614685,-1.1923828,-0.28710938,0.10546875,12.875,240.75,-69.53125
219,1697614725,-1.5283203,-0.671875,0.10058594,152.03125,192.65625,-28.6875
220,1697614765,-0.6464844,-0.5283203,-0.13671875,128.71875,183.4375,-82.34375
221,1697614805,-0.4951172,-0.21191406,0.3359375,131.53125,59.78125,-24.125
222,1697614845,-0.37597656,0.080078125,0.2890625,188.84375,75.96875,-14.21875
223,1697614885,-1.6337891,-0.6074219,0.28320312,202.59375,70.96875,-56.34375
224,1697614925,-1.2304688,-0.4345703,-0.06738281,131.21875,40.5625,-2.03125
225,1697614965,-0.8046875,-0.41796875,0.16796875,90.46875,54.34375,-13.1875
226,1697615005,-0.8417969,-0.8027344,0.0126953125,168.09375,78.9375,5.96875
227,1697615045,-0.85253906,-0.4609375,0.29003906,115.3125,102.5625,-9.9375
228,1697615085,-0.8251953,-0.5683594,0.080078125,132.09375,80.78125,-2.03125
229,1697615125,-0.796875,-0.4951172,0.06933594,137.59375,95.0,-4.9375
230,1697615165,-0.92285156,-0.3779297,0.16699219,115.4375,69.0625,-12.6875
231,1697615205,-0.85546875,-0.38964844,-0.16113281,88.625,68.15625,-12.625
232,1697615245,-0.95703125,-0.24609375,0.27148438,64.71875,70.34375,-7.9375
233,1697615285,-0.8847656,-0.59277344,-0.13085938,78.0625,55.8125,1.71875
234,1697615325,-0.9765625,-0.31152344,0.17089844,67.28125,66.5,-1.78125
235,1697615365,-0.80859375,-0.4716797,-0.044921875,39.5625,55.28125,2.375
236,1697615405,-0.89746094,-0.45117188,0.04296875,52.1875,61.25,-0.6875
237,1697615445,-0.9160156,-0.375,0.08300781,46.21875,47.34375,7.5625
238,1697615485,-0.8925781,-0.41015625,-0.0087890625,18.875,47.53125,7.125
239,1697615525,-0.83984375,-0.5390625,-0.001953125,11.53125,42.8125,12.03125
240,1697615565,-0.8330078,-0.5566406,0.020507812,3.0,41.90625,9.40625
241,1697615605,-0.8251953,-0.5078125,0.2265625,28.625,34.40625,10.0625
242,1697615645,-0.8046875,-0.56347656,0.24902344,40.71875,12.1875,8.1875
243,1697615685,-0.81152344,-0.7675781,0.34375,60.84375,-20.71875,-4.875
244,1697615725,-1.1494141,-0.63183594,0.13085938,121.09375,-89.5,-22.875
245,1697615765,-1.4267578,-0.29492188,0.5175781,98.09375,-154.25,-29.25
246,1697615805,-1.5449219,0.12109375,-0.064453125,58.65625,-153.71875,-6.09375
247,1697615845,-1.4238281,-0.30664062,0.7792969,11.3125,-112.21875,-19.15625
248,1697615885,-1.4882812,-0.4736328,0.08300781,-130.1875,-111.25,0.59375
249,1697615925,-0.8828125,-0.7128906,0.30859375,-64.5,-57.59375,-53.96875
250,1697615965,-0.625,-0.21875,0.30664062,-9.5625,-10.96875,-29.40625
251,1697616005,-0.20703125,0.016601562,0.24511719,-11.28125,48.125,-13.96875
252,1697616045,-0.18554688,0.23144531,0.20214844,-4.3125,106.1875,7.03125
253,1697616085,-0.56640625,-0.24707031,0.41601562,-16.09375,68.5,-2.625
254,1697616125,-0.42871094,-0.65234375,0.8173828,-12.9375,-26.53125,-17.875
255,1697616165,-0.3017578,-0.21484375,-0.9316406,-208.3125,131.1875,-2.0625
256,1697616205,-1.765625,-0.3828125,-1.0625,4.59375,-115.3125,8.65625
257,1697616245,-1.1064453,-0.18359375,-0.8310547,-77.8125,-32.8125,-3.125
258,1697616285,-1.5507812,-1.2451172,-0.4970703,-48.625,31.21875,43.625
259,1697616325,-0.9082031,-0.6464844,0.29785156,19.1875,125.59375,36.875
260,1697616365,-1.2773438,-0.3466797,0.24121094,-6.03125,132.59375,26.25
261,1697616405,-0.9941406,-0.3564453,0.6777344,-114.8125,28.0,29.78125
262,1697616445,-0.42285156,-0.4873047,0.57714844,-72.3125,-0.6875,50.71875
263,1697616485,-0.23046875,-0.765625,0.38183594,-3.46875,-98.40625,42.53125
264,1697616525,-0.28320312,-0.2998047,0.6044922,3.5,-156.21875,-3.84375
265,1697616565,-0.9482422,-0.43359375,-0.4580078,236.8125,-105.75,-22.40625
266,1697616605,-1.6230469,-1.4023438,0.7861328,46.53125,-142.5,-127.625
267,1697616645,-2.0,-0.8251953,0.49804688,-189.03125,-150.46875,-54.375
268,1697616685,-0.703125,-0.5332031,0.041992188,-47.34375,-61.75,-47.90625
269,1697616725,-0.56347656,-0.74316406,0.16894531,133.5,55.09375,-55.84375
270,1697616765,-0.32421875,-0.25097656,0.087890625,141.3125,125.875,-29.71875
271,1697616805,-0.29785156,-0.41796875,-0.35058594,164.5,173.90625,15.4375
272,1697616845,-0.7246094,0.15917969,-0.09277344,165.40625,139.125,11.53125
273,1697616885,-0.53027344,0.10058594,0.8535156,172.25,52.78125,-11.125
274,1697616925,-0.63378906,0.36914062,-0.23046875,-62.96875,-60.75,3.40625
275,1697616965,-1.7177734,-1.1074219,-1.7421875,-105.09375,-91.59375,-7.09375
276,1697617005,-0.62402344,-1.1416016,-0.046875,119.9375,-43.84375,28.6875
277,1697617045,-1.2333984,-1.1386719,0.2607422,105.15625,86.40625,-1.15625
278,1697617085,-1.0966797,-0.24902344,0.15820312,140.15625,156.34375,-13.625
279,1697617125,-1.0332031,-0.171875,0.5390625,39.25,125.46875,-3.71875
280,1697617165,-0.7998047,-0.5488281,0.4375,39.6875,80.71875,14.875
281,1697617205,-0.53027344,-0.6425781,0.5019531,26.0625,39.34375,20.1875
282,1697617245,-0.3232422,-0.49414062,0.44921875,125.0625,1.5625,16.0
283,1697617285,-0.5683594,-0.0078125,0.15234375,254.09375,-89.25,21.0625
284,1697617325,-1.5039062,-1.3789062,-0.5214844,310.1875,-94.875,-38.8125
285,1697617365,-1.78125,-1.6845703,-0.026367188,17.53125,-124.1875,-99.3125
286,1697617405,-1.7978516,-0.34375,0.3173828,26.6875,-116.1875,-127.0625
287,1697617445,-0.6699219,-0.6933594,-0.1796875,49.375,-12.40625,-143.96875
288,1697617485,-0.8857422,-1.0322266,0.033203125,151.375,79.75,-83.1875
289,1697617525,-0.78515625,-0.9902344,-0.3388672,127.5,160.4375,-131.34375
290,1697617565,-0.7001953,0.3330078,-0.5332031,217.96875,169.96875,-59.875
291,1697617605,-0.83203125,0.15527344,0.01171875,213.375,186.6875,-61.84375
292,1697617645,-0.95214844,0.12890625,0.5908203,185.6875,166.90625,-22.03125
293,1697617685,-0.8222656,-0.10449219,0.6611328,113.21875,50.625,-32.71875
294,1697617725,-0.07910156,-0.8330078,-0.123046875,-3.03125,-44.03125,-51.625
295,1697617765,-2.0,-1.3808594,0.045898438,-34.125,23.84375,-95.15625
296,1697617805,-0.6142578,-0.06738281,1.5019531,-36.375,77.1875,-27.71875
297,1697617845,-1.4052734,-0.09863281,-0.036132812,268.75,18.71875,-5.625
298,1697617885,-0.9951172,-0.46972656,-0.24414062,115.3125,48.6875,13.90625
299,1697617925,-0.88183594,-0.7246094,0.16894531,87.21875,129.71875,6.59375
300,1697617965,-0.9589844,-0.26757812,0.055664062,163.46875,147.75,-5.8125
301,1697618005,-0.92285156,-0.15625,0.072265625,35.46875,104.40625,5.375
302,1697618045,-0.7919922,-0.38964844,0.103515625,21.375,84.5625,-1.71875
303,1697618085,-0.6279297,-0.4736328,0.33496094,35.96875,111.71875,8.53125
304,1697618125,-0.7832031,-0.78222656,0.2548828,46.6875,71.0625,8.96875
305,1697618165,-1.0175781,-0.54003906,0.46777344,80.28125,54.34375,0.3125
306,1697618205,-1.09375,-0.8808594,0.22363281,112.25,-34.40625,-1.40625
307,1697618245,-1.1650391,-0.7480469,0.5703125,192.5625,-116.3125,-25.9375
308,1697618285,-1.5546875,0.14355469,-0.3779297,232.1875,-219.6875,-46.8125
309,1697618325,-0.9375,-0.9277344,0.45214844,-73.71875,-89.75,-60.96875
310,1697618365,-1.3457031,-0.83496094,0.18457031,-12.5,-88.15625,-48.46875
311,1697618405,-0.890625,-0.5566406,0.103515625,21.125,-28.78125,-50.40625
312,1697618445,-0.703125,-0.08984375,0.18164062,75.03125,-4.1875,-65.96875
313,1697618485,-0.31445312,-0.13183594,0.15820312,47.625,59.96875,-58.40625
314,1697618525,-0.21875,-0.109375,0.16015625,-1.53125,90.5,-6.34375
315,1697618565,-0.74902344,0.01171875,0.3544922,78.375,106.46875,48.40625
316,1697618605,-0.9375,-0.41015625,0.9892578,98.46875,67.90625,-8.96875
317,1697618645,-1.0820312,-0.37597656,-0.15527344,-149.59375,-76.5,-41.9375
318,1697618685,-0.94140625,-0.734375,-0.087890625,-7.6875,-44.84375,4.34375
319,1697618725,-0.8408203,-0.29101562,-0.66308594,101.6875,18.28125,12.5625
320,1697618765,-1.2236328,-0.8652344,0.018554688,65.1875,53.9375,16.96875
321,1697618805,-1.1132812,-0.3203125,0.1171875,34.8125,113.3125,8.53125
322,1697618845,-1.0449219,-0.49023438,0.02734375,62.75,120.75,21.46875
323,1697618885,-0.84375,-0.13574219,0.18554688,-21.34375,99.46875,23.75
324,1697618925,-0.7138672,-0.38085938,0.08886719,-36.90625,75.28125,24.21875
325,1697618965,-0.68847656,-0.39941406,0.29492188,-74.625,64.90625,22.40625
326,1697619005,-0.6894531,-0.73046875,0.4921875,-52.25,44.59375,24.84375
327,1697619045,-0.80371094,-0.75878906,0.5644531,10.5,20.125,11.84375
328,1697619085,-1.0,-0.7373047,0.0,131.65625,-50.625,12.5625
329,1697619125,-1.2685547,-0.6064453,0.87109375,168.46875,-145.40625,-28.5
330,1697619165,-1.3662109,-0.5029297,-0.5732422,245.5625,-204.5625,-54.6875
331,1697619205,-1.1015625,-1.0,0.41992188,-237.71875,-83.15625,-61.90625
332,1697619245,-1.2685547,-0.61328125,-0.09667969,-10.78125,-88.15625,-49.1875
333,1697619285,-0.9746094,-0.36914062,0.22460938,66.28125,-5.53125,-47.5
334,1697619325,-0.57910156,-0.055664062,0.24902344,-1.40625,14.6875,-69.9375
335,1697619365,-0.3798828,-0.18847656,0.0546875,-13.40625,56.5,-51.9375
336,1697619405,-0.3486328,-0.24316406,-0.14257812,21.125,66.0,10.4375
337,1697619445,-0.8457031,-0.04296875,0.34277344,112.8125,58.75,42.1875
338,1697619485,-0.90527344,-0.4111328,1.1416016,117.5625,38.84375,3.0
339,1697619525,-0.55078125,-0.5996094,-0.0068359375,-135.0,-58.75,-76.25
340,1697619565,-1.7412109,-1.0957031,-0.13085938,-109.0625,-28.40625,-30.53125
341,1697619605,-0.5888672,0.42089844,0.40625,-48.15625,-6.6875,5.96875
342,1697619645,-1.4482422,-0.9003906,0.078125,62.75,40.375,38.15625
343,1697619685,-0.8125,-0.4716797,0.171875,-80.375,9.375,5.96875
344,1697619725,-0.9404297,-0.70703125,0.12207031,9.53125,39.21875,13.71875
345,1697619765,-0.9267578,-0.37695312,0.23144531,57.75,62.53125,14.84375
346,1697619805,-0.90234375,-0.22753906,0.2626953,-21.84375,35.5,17.9375
347,1697619845,-0.75097656,-0.45703125,0.11621094,-9.03125,38.90625,18.3125
348,1697619885,-0.80566406,-0.56933594,0.2109375,-52.0,18.21875,12.3125
349,1697619925,-0.81152344,-0.3984375,0.22070312,-52.25,10.65625,16.21875
350,1697619965,-0.83984375,-0.35058594,0.2421875,-44.0,-0.03125,22.9375
351,1697620005,-0.8808594,-0.5,0.109375,-53.28125,2.34375,23.5625
352,1697620045,-0.75390625,-0.5498047,0.0029296875,-36.375,10.71875,30.03125
353,1697620085,-0.7548828,-0.48046875,0.0546875,-72.625,-3.8125,28.75
354,1697620125,-0.82421875,-0.42285156,0.12988281,-92.40625,4.84375,21.53125
355,1697620165,-1.0654297,-0.5566406,0.20703125,-69.5625,-14.25,15.875
356,1697620205,-1.0546875,-0.7626953,0.16894531,-38.875,-36.09375,4.21875
357,1697620245,-0.8720703,-0.111328125,0.059570312,-59.125,-21.75,16.21875
358,1697620285,-0.8203125,0.4765625,-0.13378906,-6.875,9.96875,50.46875
359,1697620325,-1.1464844,0.22070312,-0.10253906,40.71875,12.65625,78.84375
360,1697620365,-1.0742188,-0.5498047,-0.22363281,48.59375,62.09375,91.625
361,1697620405,-1.0117188,-0.296875,-0.08300781,59.5625,99.8125,57.6875
362,1697620445,-1.2070312,-0.12695312,0.018554688,32.125,109.53125,45.15625
363,1697620485,-1.1630859,-0.047851562,-0.076171875,-31.96875,95.78125,24.84375
364,1697620525,-0.7480469,0.15527344,-0.22363281,-0.40625,133.875,18.125
365,1697620565,-0.91308594,-0.15234375,0.00390625,18.9375,108.125,69.5625
366,1697620605,-0.9667969,-0.21875,-0.33691406,-45.59375,113.5625,13.59375
367,1697620645,-0.8144531,-0.021484375,-0.19335938,9.34375,67.59375,16.40625
368,1697620685,-0.9824219,-0.11621094,-0.2763672,-34.0,52.21875,18.3125
369,1697620725,-0.4638672,-0.40234375,-0.4423828,21.84375,80.34375,-3.0625
370,1697620765,-1.2890625,-0.048828125,-0.46679688,12.09375,69.0625,30.15625
371,1697620805,-0.95996094,-0.0859375,-0.5048828,29.90625,66.4375,8.46875
372,1697620845,-0.86035156,0.12402344,-0.72753906,43.59375,44.71875,16.0625
373,1697620885,-0.640625,-0.32910156,-0.81933594,26.0,46.78125,0.71875
374,1697620925,-0.7792969,-0.12597656,-0.6972656,23.4375,40.625,4.28125
375,1697620965,-0.79296875,0.08984375,-0.72558594,-52.59375,1.5625,40.15625
376,1697621005,-0.69628906,0.4296875,-0.6269531,-159.46875,-20.40625,79.53125
377,1697621045,-0.70214844,0.4765625,-0.4560547,-204.40625,-40.0,135.5625
378,1697621085,-1.0742188,0.06933594,-0.38476562,-215.75,-133.28125,95.21875
379,1697621125,-0.63183594,0.034179688,-0.34277344,-7.5625,-139.1875,33.9375
380,1697621165,-0.375,0.109375,-0.52246094,-36.8125,7.34375,0.125
381,1697621205,-0.4482422,0.34765625,-0.8642578,-79.03125,-42.15625,17.46875
382,1697621245,-0.6425781,0.19726562,-0.66015625,-59.4375,16.75,25.75
383,1697621285,-0.8388672,0.2919922,-0.33789062,-31.78125,6.6875,36.0625
384,1697621325,-0.80566406,0.5957031,-0.30664062,-89.71875,101.34375,72.03125
385,1697621365,-0.9951172,0.94628906,-0.23242188,-81.34375,68.9375,46.9375
386,1697621405,-0.8183594,0.8046875,0.01171875,107.0,102.3125,34.65625
387,1697621445,-0.93652344,0.43554688,-0.3173828,32.84375,-44.46875,15.1875
388,1697621485,-0.80566406,0.59375,-0.515625,133.25,22.625,17.5625
389,1697621525,-0.8046875,0.625,-0.75390625,-15.0625,-1.8125,25.3125
390,1697621565,-0.65234375,0.6328125,-0.6533203,36.5,24.3125,27.84375
391,1697621605,-0.6660156,0.6113281,-0.54589844,-11.65625,28.09375,18.625
392,1697621645,-0.7128906,0.7011719,-0.5683594,3.84375,25.4375,18.0
393,1697621685,-0.6386719,0.8076172,-0.5566406,-36.375,26.53125,24.65625
394,1697621725,-0.67089844,0.71191406,-0.5126953,9.96875,13.59375,21.84375
395,1697621765,-0.63378906,0.72753906,-0.57714844,4.53125,-8.625,21.0
396,1697621805,-0.79296875,0.6435547,-0.67871094,-6.46875,-5.21875,14.78125
397,1697621845,-0.5,0.5058594,-0.66308594,113.78125,-4.0625,-1.90625
398,1697621885,-0.63378906,0.6513672,-0.90722656,-50.78125,-9.25,-13.125
399,1697621925,-0.7578125,0.7421875,-0.67089844,-105.09375,-4.0,-16.25
400,1697621965,-0.6591797,0.7783203,-0.40625,-69.9375,-3.15625,-19.09375
401,1697622005,-0.65234375,0.8964844,-0.47558594,-11.96875,-12.84375,-20.875
402,1697622045,-0.6591797,0.7480469,-0.5136719,33.6875,-18.59375,-24.1875
403,1697622085,-0.75878906,0.6796875,-0.5498047,9.40625,-31.78125,-23.0
404,1697622125,-0.74316406,0.65234375,-0.5175781,-14.75,-24.03125,-22.71875
405,1697622165,-0.7314453,0.6220703,-0.43554688,3.3125,-17.25,-23.4375
406,1697622205,-0.6464844,0.65722656,-0.49316406,9.96875,-16.3125,-25.15625
407,1697622245,-0.7607422,0.61816406,-0.46191406,-5.96875,-31.28125,-29.40625
408,1697622285,-0.7607422,0.63671875,-0.4267578,-21.84375,-23.59375,-31.75
409,1697622325,-0.86816406,0.6201172,-0.40722656,-21.65625,-36.21875,-34.90625
410,1697622365,-0.7001953,0.5703125,-0.33398438,-19.84375,-23.65625,-25.75
411,1697622405,-0.7265625,0.56640625,-0.31640625,-7.9375,-34.6875,-19.71875
412,1697622445,-0.75683594,0.48632812,-0.2783203,10.0625,-47.8125,-12.6875
413,1697622485,-0.6582031,0.4609375,-0.5361328,236.46875,-18.53125,-10.375
414,1697622525,-0.7207031,0.14355469,-0.5390625,188.3125,-18.8125,-8.96875
415,1697622565,-1.0078125,0.06347656,-0.89941406,189.09375,90.71875,-60.0
416,1697622605,-0.8486328,0.40429688,1.1660156,288.59375,474.15625,-174.0
417,1697622645,-0.7988281,-0.42773438,-0.6875,-239.125,-47.875,-80.9375
418,1697622685,-0.40820312,0.26464844,-0.3466797,118.59375,8.09375,-82.21875
419,1697622725,-0.72753906,-0.013671875,-0.7548828,-39.375,-36.34375,-30.75
420,1697622765,-0.5966797,0.19628906,-0.5126953,-8.53125,-25.34375,-20.4375
421,1697622805,-0.9013672,0.2578125,-0.62890625,-43.3125,-32.5625,10.4375
422,1697622845,-0.9199219,0.28027344,-0.609375,-26.125,-24.375,8.65625
423,1697622885,-1.0615234,-0.17871094,-0.71484375,29.0,-9.0,-7.03125
424,1697622925,-0.98535156,0.07421875,-0.68066406,-68.0625,-49.65625,11.90625
425,1697622965,-1.1259766,0.26367188,-0.33789062,-52.65625,-57.34375,14.71875
426,1697623005,-0.7832031,0.15722656,-0.49414062,-48.03125,-73.28125,-10.125
427,1697623045,-0.75,0.20019531,-0.41503906,57.8125,-23.96875,-10.9375
428,1697623085,-1.0195312,-0.23046875,-0.30078125,78.375,-17.25,1.03125
429,1697623125,-1.0878906,-0.07421875,-0.13769531,33.46875,-37.375,4.5
430,1697623165,-0.96484375,-0.0048828125,-0.17675781,0.5625,-61.5625,-20.5625
431,1697623205,-1.0244141,-0.10546875,-0.23828125,38.34375,-98.65625,-9.15625
432,1697623245,-1.0820312,-0.16699219,-0.23144531,41.03125,-112.625,-16.65625
433,1697623285,-1.1757812,-0.17089844,-0.068359375,36.9375,-107.4375,-22.9375
434,1697623325,-1.0751953,-0.171875,-0.07910156,20.625,-103.71875,-43.53125
435,1697623365,-1.0302734,-0.20019531,-0.13671875,28.625,-83.03125,-50.34375
436,1697623405,-0.99902344,-0.29296875,0.09277344,63.0,-85.90625,-53.90625
437,1697623445,-1.0380859,-0.4033203,0.05078125,39.0625,-101.90625,-75.625
438,1697623485,-0.9375,-0.41601562,-0.103515625,48.53125,-83.65625,-82.03125
439,1697623525,-0.94628906,-0.51953125,0.09472656,36.4375,-58.0,-95.65625
440,1697623565,-0.82128906,-0.4345703,-0.034179688,46.53125,-16.21875,-104.0625
441,1697623605,-0.7734375,-0.42773438,-0.08300781,59.40625,-5.8125,-108.875
442,1697623645,-0.92578125,-0.6201172,0.20019531,78.25,74.96875,-121.875
443,1697623685,-0.6748047,-0.27539062,0.09667969,126.21875,20.125,-81.78125
444,1697623725,-0.9658203,-0.50097656,0.19921875,107.5625,61.1875,-61.90625
445,1697623765,-0.5839844,-0.31152344,0.0390625,123.90625,43.6875,-29.84375
446,1697623805,-0.49804688,-0.32910156,0.1171875,128.90625,47.40625,4.15625
447,1697623845,-0.765625,-0.28710938,0.20898438,180.90625,58.8125,7.3125
448,1697623885,-0.7861328,-0.6044922,0.19042969,192.28125,62.46875,-37.1875
449,1697623925,-0.46289062,-0.4580078,0.16015625,102.71875,53.125,-51.03125
450,1697623965,-1.2939453,-0.15820312,1.0332031,187.6875,89.21875,-51.28125
451,1697624005,-0.984375,-1.4619141,-0.18945312,186.40625,12.59375,-45.15625
452,1697624045,-0.71875,-0.72753906,-0.26171875,119.625,30.625,-34.5625
453,1697624085,-1.2216797,-0.7792969,-0.09277344,217.71875,117.59375,-26.4375
454,1697624125,-1.1005859,-0.5498047,0.087890625,183.96875,111.96875,-16.90625
455,1697624165,-0.9921875,-0.29296875,0.04296875,159.84375,130.78125,-14.28125
456,1697624205,-0.8359375,-0.27148438,0.0126953125,152.78125,146.34375,4.9375
457,1697624245,-0.74609375,-0.5488281,-0.001953125,130.25,121.84375,3.0
458,1697624285,-0.7783203,-0.6542969,0.049804688,111.8125,103.59375,4.03125
459,1697624325,-0.7763672,-0.60839844,0.16796875,122.4375,93.59375,8.71875
460,1697624365,-0.7910156,-0.5566406,0.1796875,156.1875,50.625,5.125
461,1697624405,-0.9189453,-0.57128906,0.3232422,192.4375,3.03125,-12.5
462,1697624445,-1.0615234,-0.4716797,0.26367188,155.34375,-120.5625,-48.03125
463,1697624485,-1.2460938,-0.0234375,0.07910156,138.5,-149.625,-76.1875
464,1697624525,-1.2773438,-0.6845703,0.19238281,32.65625,-34.625,-113.34375
465,1697624565,-1.4492188,-0.86035156,0.15527344,50.0,-34.03125,-80.03125
466,1697624605,-1.2177734,-0.93066406,0.23242188,-18.125,-7.59375,-103.75
467,1697624645,-0.89746094,-0.51660156,0.14941406,114.15625,45.75,-117.4375
468,1697624685,-0.4970703,-0.055664062,0.18652344,81.0,65.71875,-78.875
469,1697624725,-0.46875,0.17773438,0.123046875,65.375,70.09375,-25.21875
470,1697624765,-0.11035156,0.34375,0.0107421875,34.0625,52.34375,1.9375
471,1697624805,-0.12890625,-0.3828125,0.4658203,-56.09375,50.9375,-25.5
472,1697624845,-0.52734375,-0.734375,0.6699219,29.0625,57.96875,-37.78125
473,1697624885,-2.0,0.20703125,2.0,-43.28125,-64.3125,66.28125
474,1697624925,-0.9326172,0.14453125,-0.47753906,-106.3125,-14.0,10.5
475,1697624965,-1.5644531,-1.3261719,-0.0546875,45.96875,53.5,61.65625
476,1697625005,-0.9277344,-0.62109375,0.24316406,38.875,106.1875,45.34375
477,1697625045,-1.0996094,-0.44628906,0.28222656,19.21875,110.625,41.375
478,1697625085,-0.5957031,-0.2841797,0.5683594,-55.78125,69.96875,52.3125
479,1697625125,-0.39160156,-0.54589844,0.27539062,-59.375,43.3125,42.53125
480,1697625165,-0.6298828,-0.64160156,0.578125,-21.21875,-43.3125,12.625
481,1697625205,-0.546875,-0.23535156,0.65234375,37.40625,-128.9375,1.59375
482,1697625245,-0.8544922,-0.3046875,-0.40039062,129.78125,-204.3125,7.6875
483,1697625285,-1.5,-1.3535156,0.65625,158.625,-190.40625,-128.3125
484,1697625325,-2.0,-1.0,0.82714844,-286.1875,-162.8125,-37.34375
485,1697625365,-0.78222656,-0.3544922,-0.23046875,-82.5625,-44.03125,-32.59375
486,1697625405,-0.62402344,-0.73339844,0.1640625,141.65625,29.03125,-11.125
487,1697625445,-0.51171875,-0.4814453,0.13671875,32.96875,91.15625,-20.4375
488,1697625485,-0.18261719,-0.041015625,-0.0048828125,76.96875,114.96875,14.34375
489,1697625525,-0.703125,0.22558594,0.06640625,123.59375,94.625,43.03125
490,1697625565,-0.421875,0.0625,0.8408203,143.375,82.5625,0.5625
491,1697625605,-0.9248047,-0.35839844,-0.50097656,-170.46875,-106.65625,-50.21875
492,1697625645,-1.2255859,-1.0068359,0.036132812,-60.0,-44.71875,-21.0
493,1697625685,-0.95996094,-1.0224609,-0.21484375,182.75,40.125,34.84375
494,1697625725,-1.4199219,-0.86328125,-0.009765625,181.09375,169.71875,0.59375
495,1697625765,-1.2460938,-0.22558594,0.20019531,117.875,174.71875,-5.25
496,1697625805,-1.0927734,-0.31640625,0.42285156,42.625,121.75,7.03125
497,1697625845,-0.734375,-0.46875,0.3984375,47.5625,79.75,13.5
498,1697625885,-0.33496094,-0.30078125,0.5419922,72.5625,40.375,11.71875
499,1697625925,-0.28710938,-0.56347656,0.3701172,85.53125,-22.5625,3.71875
500,1697625965,-0.5419922,-0.13476562,0.52734375,128.25,-99.75,-21.71875
501,1697626005,-1.2021484,-0.79589844,-0.63671875,297.625,-83.09375,-48.90625
502,1697626045,-1.7226562,-1.4980469,0.2109375,-18.0,-108.78125,-88.5625
503,1697626085,-2.0,-0.7529297,0.31054688,-94.40625,-65.46875,-105.90625
504,1697626125,-0.7939453,-0.37695312,-0.15527344,5.625,16.34375,-100.40625
505,1697626165,-0.9423828,-0.8457031,0.14648438,145.9375,100.25,-58.0
506,1697626205,-0.5078125,-0.5830078,-0.21191406,109.6875,138.21875,-65.90625
507,1697626245,-0.4814453,0.24609375,-0.2734375,136.71875,148.59375,-14.78125
508,1697626285,-0.8486328,0.3203125,0.08984375,197.5625,113.8125,15.5
509,1697626325,-0.47460938,0.28808594,1.1123047,192.4375,46.65625,9.40625
510,1697626365,-0.31445312,-0.4658203,-0.0546875,-73.96875,-125.6875,-60.5625
511,1697626405,-1.9511719,-1.4902344,0.57910156,137.8125,-49.03125,-18.6875
512,1697626445,-0.76464844,-0.0859375,-0.3466797,165.28125,26.28125,-23.0625
513,1697626485,-1.6044922,-0.64453125,0.0390625,136.84375,96.96875,-7.875
514,1697626525,-1.1689453,-0.45117188,0.13476562,84.1875,102.375,1.53125
515,1697626565,-1.0332031,-0.22949219,0.18457031,68.84375,90.78125,12.15625
516,1697626605,-0.7402344,-0.15722656,0.22851562,81.125,96.21875,14.71875
517,1697626645,-0.5410156,-0.3125,0.296875,23.375,66.4375,12.4375
518,1697626685,-0.6660156,-0.49804688,0.32421875,15.03125,72.53125,14.15625
519,1697626725,-0.6191406,-0.7080078,0.29785156,21.125,51.71875,19.34375
520,1697626765,-0.83984375,-0.83984375,0.4033203,63.1875,52.46875,3.46875
521,1697626805,-0.83691406,-0.70996094,0.3017578,112.5,33.34375,-0.84375
522,1697626845,-1.1572266,-0.87109375,0.4560547,151.375,-7.53125,-10.875
523,1697626885,-1.5117188,-0.50878906,0.32910156,162.0625,-139.3125,-34.78125
524,1697626925,-1.3789062,0.087890625,0.061523438,98.09375,-152.375,-60.625
525,1697626965,-0.9863281,-0.71875,-0.1328125,-75.25,-77.1875,-89.34375
526,1697627005,-0.875,-1.0410156,0.35546875,56.71875,-25.25,-93.375
527,1697627045,-0.8232422,-0.9091797,-0.08300781,107.78125,38.0,-114.5625
528,1697627085,-0.8232422,-0.31152344,-0.021484375,155.46875,49.46875,-119.375
529,1697627125,-0.7939453,-0.11621094,0.09472656,175.0,71.625,-109.5
530,1697627165,-0.7753906,0.15234375,0.10058594,136.375,70.09375,-73.71875
531,1697627205,-0.6269531,0.16015625,0.28027344,32.59375,70.84375,-37.46875
532,1697627245,-0.6767578,-0.74902344,0.41015625,-18.96875,71.4375,-5.6875
533,1697627285,-0.93359375,-0.8574219,0.37890625,45.59375,67.71875,15.375
534,1697627325,-0.6933594,-0.52441406,0.5761719,76.125,67.34375,-6.03125
535,1697627365,-0.58496094,-0.46875,0.5419922,-62.4375,39.46875,-11.65625
536,1697627405,-0.54785156,-0.4501953,0.045898438,22.65625,27.375,2.3125
537,1697627445,-1.4511719,-0.86621094,0.96191406,46.09375,-30.78125,42.125
538,1697627485,-0.4560547,0.60253906,0.46679688,10.9375,8.28125,34.125
539,1697627525,-1.4560547,-0.49609375,-0.14648438,-17.9375,3.28125,48.75
540,1697627565,-0.8613281,-0.84765625,0.06542969,44.8125,57.71875,36.125
541,1697627605,-0.91503906,-0.53515625,0.1015625,88.75,105.1875,15.5
542,1697627645,-1.0009766,-0.2861328,0.13574219,80.34375,126.625,8.71875
543,1697627685,-0.91503906,-0.25976562,0.16601562,-14.6875,90.71875,18.625
544,1697627725,-0.81933594,-0.46679688,0.09472656,-0.0625,97.3125,16.34375
545,1697627765,-0.87402344,-0.37597656,0.32910156,-5.0625,90.65625,15.375
546,1697627805,-0.5419922,-0.5410156,0.17382812,-18.25,54.40625,15.9375
547,1697627845,-0.56640625,-0.7060547,0.29589844,9.46875,31.03125,9.75
548,1697627885,-1.1328125,-0.8144531,0.28515625,83.875,-0.59375,-15.125
549,1697627925,-1.21875,-0.50097656,0.2734375,170.96875,-57.21875,-33.8125
550,1697627965,-1.859375,-0.43652344,-0.4580078,196.65625,-190.8125,-63.125
551,1697628005,-2.0,0.016601562,0.56152344,-60.0625,-171.78125,-4.875
552,1697628045,-1.9101562,-0.296875,0.10253906,-261.09375,-211.15625,-14.84375
553,1697628085,-0.9550781,-0.28808594,-0.2607422,-138.59375,-117.03125,-34.59375
554,1697628125,-0.546875,-0.39941406,0.12402344,-80.75,-66.125,-21.71875
555,1697628165,-0.5253906,-0.40722656,0.087890625,-18.78125,-7.71875,-48.53125
556,1697628205,-0.15136719,0.546875,-0.10253906,-10.75,2.34375,-4.28125
557,1697628245,0.13671875,0.19824219,-0.033203125,38.71875,38.78125,14.34375
558,1697628285,-0.203125,-0.50097656,0.4423828,103.34375,62.28125,11.71875
559,1697628325,-0.5751953,-1.1474609,1.4453125,13.96875,-78.03125,-45.34375
560,1697628365,-2.0,-0.6171875,2.0,-176.4375,-85.28125,-21.96875
561,1697628405,-0.44335938,0.7841797,-0.29101562,-61.625,37.15625,-140.5
562,1697628445,-1.3349609,-0.9716797,0.75390625,-85.25,-147.78125,-142.875
563,1697628485,-1.0136719,-0.10253906,0.28808594,161.4375,-110.625,-23.75
564,1697628525,0.4111328,0.0107421875,0.48535156,9.34375,-73.875,-46.28125
565,1697628565,-1.3310547,-1.4619141,0.34472656,51.71875,-81.8125,-19.15625
566,1697628605,0.06933594,0.13476562,0.34960938,98.34375,-63.9375,-11.15625
567,1697628645,-0.50390625,-0.68652344,0.66503906,2.03125,-95.4375,-1.78125
568,1697628685,-0.19042969,-0.66503906,0.89746094,67.75,-94.5,-31.9375
569,1697628725,-0.58203125,-0.7919922,0.7451172,63.84375,-131.1875,-43.53125
570,1697628765,-0.1015625,-0.25878906,0.75,62.375,-106.28125,-31.9375
571,1697628805,-0.22558594,-0.5996094,0.9638672,41.875,-107.375,-17.59375
572,1697628845,-0.10449219,-0.4111328,1.2480469,35.34375,-92.5,-14.46875
573,1697628885,0.13964844,-0.546875,1.2578125,-3.65625,-70.03125,-32.46875
574,1697628925,0.0107421875,-0.5996094,1.53125,14.96875,-47.03125,-32.71875
575,1697628965,-0.00390625,-0.52441406,1.53125,-1.75,-3.4375,-15.5
576,1697629005,-0.06640625,-0.6816406,1.7011719,-6.28125,52.40625,13.4375
577,1697629045,0.056640625,-0.7988281,1.5283203,-4.09375,82.90625,19.28125
578,1697629085,0.103515625,-0.4609375,1.1777344,1.71875,94.28125,31.0
579,1697629125,-0.0078125,-0.4892578,1.0117188,-15.0,117.09375,34.25
580,1697629165,-0.08886719,-0.46679688,0.96191406,-33.6875,128.8125,29.65625
581,1697629205,-0.17675781,-0.5654297,0.8330078,-33.125,134.90625,34.90625
582,1697629245,-0.28808594,-0.6640625,0.7714844,-44.0,134.0625,21.375
583,1697629285,-0.359375,-0.6767578,0.8671875,-30.09375,138.46875,31.4375
584,1697629325,-0.44140625,-0.7626953,0.73339844,-14.65625,148.65625,57.96875
585,1697629365,-0.6591797,-0.5546875,0.7607422,22.78125,184.59375,67.25
586,1697629405,-1.1826172,-0.8925781,0.71972656,41.4375,202.90625,51.5625
587,1697629445,-2.0,-1.2324219,0.57128906,121.71875,194.25,-70.625
588,1697629485,-1.4628906,-0.53222656,0.45507812,142.34375,197.53125,-24.28125
589,1697629525,-0.60839844,0.16894531,0.056640625,86.5625,125.875,-16.3125
590,1697629565,-0.18359375,-0.06347656,-0.060546875,47.96875,75.40625,-3.84375
591,1697629605,0.14648438,-0.005859375,-0.1484375,64.09375,65.21875,-6.03125
592,1697629645,0.07714844,0.15820312,0.060546875,88.15625,56.125,-27.03125
593,1697629685,-0.14550781,0.14355469,-0.12890625,42.5625,-7.90625,-11.65625
594,1697629725,-0.18945312,0.10546875,-0.020507812,27.0,-33.125,-4.8125
595,1697629765,-0.17773438,0.083984375,0.21484375,91.75,-7.09375,-2.625
596,1697629805,-0.15234375,-0.0234375,0.06542969,42.5625,-78.34375,4.34375
597,1697629845,-0.22070312,-0.024414062,0.04296875,38.15625,-103.4375,-0.90625
598,1697629885,-0.4716797,0.37304688,0.31445312,82.65625,-123.3125,-48.21875
599,1697629925,-0.55859375,-0.49316406,-1.3916016,-78.3125,-161.21875,-78.90625
600,1697629965,-2.0,-2.0,2.0,-142.6875,-172.09375,-86.5
601,1697630005,-1.1103516,-0.111328125,1.5263672,-57.0,-152.9375,-103.875
602,1697630045,-0.5576172,-0.6933594,0.64160156,-95.28125,-28.53125,-95.34375
603,1697630085,-0.7011719,-1.1074219,0.9667969,-64.3125,-58.875,-95.09375
604,1697630125,-0.09277344,-0.92578125,0.61328125,9.40625,-40.4375,-62.9375
605,1697630165,-0.2841797,-0.9238281,0.6923828,6.90625,-17.0625,-83.5625
606,1697630205,-0.18066406,-0.4453125,0.875,6.96875,-24.625,-30.28125
607,1697630245,-0.3232422,-0.8076172,0.7626953,3.25,-41.03125,-33.28125
608,1697630285,-0.14257812,-0.62109375,0.71191406,39.125,-50.3125,-17.53125
609,1697630325,-0.17773438,-0.53222656,0.6689453,48.96875,-59.65625,2.75
610,1697630365,-0.048828125,-0.7236328,0.6464844,36.9375,-64.59375,-0.6875
611,1697630405,-0.09472656,-0.67089844,0.8017578,19.40625,-60.5625,-4.59375
612,1697630445,-0.34375,-0.82714844,1.1640625,4.46875,-38.71875,2.0625
613,1697630485,-0.53027344,-0.9589844,1.5117188,23.03125,-14.875,46.03125
614,1697630525,-0.67578125,-1.2041016,1.7021484,40.96875,38.53125,100.8125
615,1697630565,-1.3242188,-0.8300781,1.7597656,121.78125,92.5,137.9375
616,1697630605,-0.91308594,-0.5654297,1.6083984,142.84375,123.5,170.96875
617,1697630645,-0.3203125,-0.24121094,0.74609375,139.40625,166.28125,191.65625
618,1697630685,0.22363281,-0.3408203,-0.07910156,139.03125,153.15625,146.0
619,1697630725,0.40820312,0.08886719,-0.3623047,35.59375,177.59375,66.03125
620,1697630765,-0.15820312,0.049804688,-0.63378906,-44.625,216.875,8.59375
621,1697630805,-0.39453125,0.52734375,-0.24609375,-76.15625,250.15625,41.625
622,1697630845,-0.9814453,0.26367188,-0.46972656,-72.125,243.25,133.25
623,1697630885,-0.5654297,0.24902344,0.036132812,-18.84375,252.71875,177.3125
624,1697630925,-0.38671875,0.1796875,-0.09082031,-52.59375,252.21875,162.78125
625,1697630965,-0.3935547,-0.01171875,-0.25878906,-138.375,286.78125,76.0625
626,1697631005,-1.2666016,0.087890625,-0.8251953,-33.25,242.78125,58.34375
627,1697631045,-1.0498047,0.66308594,-0.021484375,482.96875,-30.84375,59.09375
628,1697631085,-1.1914062,0.07128906,-0.11230469,23.1875,76.03125,-34.25
629,1697631125,-0.78222656,0.359375,-1.1298828,-243.9375,-12.0,2.0
630,1697631165,-0.63964844,0.8076172,-1.1386719,-196.40625,19.375,-7.5625
631,1697631205,-1.6542969,0.7324219,-1.0,-89.90625,-95.84375,75.125
632,1697631245,-1.2509766,0.6015625,-0.28320312,144.46875,220.625,52.3125
633,1697631285,-0.7246094,0.30371094,-0.32714844,114.25,74.4375,51.8125
634,1697631325,-0.34570312,0.24316406,-0.6220703,-13.1875,58.9375,31.5625
635,1697631365,-0.9355469,0.27246094,-0.8984375,-22.875,-12.1875,19.21875
636,1697631405,-0.72265625,0.4638672,-0.8964844,1.46875,55.9375,27.34375
637,1697631445,-0.82128906,0.6777344,-0.71191406,-49.4375,43.4375,26.0625
638,1697631485,-0.8925781,0.8935547,-0.5439453,3.375,41.40625,17.46875
639,1697631525,-0.64941406,0.58691406,-0.7363281,-45.78125,-5.53125,28.6875
640,1697631565,-0.70703125,0.5361328,-0.84472656,-20.5625,-14.0,24.90625
641,1697631605,-0.43652344,0.30273438,-0.6845703,121.28125,10.21875,21.59375
642,1697631645,-0.484375,0.37109375,-0.9248047,33.28125,-6.5,-0.78125
643,1697631685,-0.6767578,0.35253906,-0.9814453,-66.9375,-43.25,-22.46875
644,1697631725,-0.83496094,0.7001953,-0.9121094,-131.71875,-27.6875,-29.1875
645,1697631765,-0.71972656,0.9033203,-0.7011719,-83.5,-0.59375,-25.03125
646,1697631805,-0.83203125,0.69628906,-0.6308594,51.75,-30.71875,-48.78125
647,1697631845,-1.0244141,1.0576172,-0.9199219,-142.5625,-55.625,-31.5625
648,1697631885,-1.4853516,1.0976562,-0.6503906,-184.8125,-95.1875,-19.21875
649,1697631925,-1.2226562,0.9433594,-0.35742188,-68.84375,-50.5,21.25
650,1697631965,-1.0732422,0.70996094,-0.3701172,-59.0625,-95.0,17.6875
651,1697632005,-0.89746094,0.4482422,-0.20703125,30.53125,-177.9375,8.1875
652,1697632045,-0.83691406,0.5136719,-0.34277344,267.84375,-64.84375,15.0625
653,1697632085,-0.95703125,-0.21289062,1.1181641,499.15625,-388.15625,-100.84375
654,1697632125,-0.8076172,0.2685547,-0.9863281,-14.28125,-267.78125,-200.125
655,1697632165,-0.31640625,0.2939453,-0.5703125,-37.84375,-455.59375,-155.09375
656,1697632205,0.36523438,0.42578125,-0.6796875,-6.71875,-402.1875,-164.375
657,1697632245,0.040039062,0.19335938,-0.671875,-91.0625,-453.40625,-58.0
658,1697632285,-0.1640625,0.034179688,-0.38964844,-165.65625,-424.03125,-112.375
659,1697632325,-0.34960938,-0.11425781,0.17285156,-163.1875,-271.6875,-93.1875
660,1697632365,0.03515625,0.15234375,-0.1484375,-130.1875,-121.5,-57.9375
661,1697632405,-1.3496094,-1.8730469,1.0419922,-93.5,-105.5625,-9.78125
662,1697632445,-0.86035156,-0.66503906,2.0,-69.875,-49.15625,-55.59375
663,1697632485,-0.40039062,-0.3623047,2.0,-9.21875,-102.625,-29.375
664,1697632525,0.17675781,-0.60058594,1.2763672,-12.75,2.21875,-3.34375
665,1697632565,0.21972656,-0.9033203,1.703125,-41.1875,84.03125,2.375
666,1697632605,0.3408203,-0.71777344,1.0566406,-97.59375,101.34375,-58.78125
667,1697632645,0.15332031,-0.2890625,0.89746094,-79.59375,205.21875,-82.09375
668,1697632685,-0.11425781,-0.5878906,1.1376953,-24.65625,139.875,16.59375
669,1697632725,-0.49804688,-0.69628906,0.99902344,-31.125,101.84375,51.9375
670,1697632765,-0.23535156,-0.66796875,0.828125,-53.40625,113.5,85.75
671,1697632805,-0.58496094,-0.83691406,0.8417969,-68.71875,117.78125,77.5
672,1697632845,-0.8984375,-0.78222656,0.77246094,-42.96875,129.5,105.96875
673,1697632885,-0.8535156,-0.3857422,0.53515625,-42.03125,153.65625,156.75
674,1697632925,-2.0,-0.859375,0.17871094,35.03125,179.96875,118.71875
675,1697632965,-1.0898438,-0.54589844,0.20800781,113.96875,123.8125,35.8125
676,1697633005,0.22363281,0.032226562,0.3095703,-8.125,181.5,62.0625
677,1697633045,0.23632812,0.11328125,0.1796875,2.09375,99.875,27.9375
678,1697633085,-0.24414062,0.0390625,0.32714844,110.53125,38.125,-1.03125
679,1697633125,-0.2109375,-0.07519531,-0.11425781,-48.21875,15.96875,-2.125
680,1697633165,-0.087890625,0.01171875,0.06640625,-0.3125,-26.15625,-5.0625
681,1697633205,-0.034179688,-0.0009765625,0.20117188,26.375,-10.40625,-2.4375
682,1697633245,-0.12597656,-0.1171875,-0.028320312,54.21875,-11.375,-2.875
683,1697633285,-0.047851562,-0.07910156,0.030273438,31.375,-19.6875,-7.5
684,1697633325,-0.15039062,0.0,-0.16113281,-46.25,-43.84375,-20.5
685,1697633365,-0.140625,0.060546875,-0.18457031,-20.3125,-46.21875,-29.25
686,1697633405,-0.71777344,-0.13671875,0.099609375,-28.5,-15.15625,-53.59375
687,1697633445,-2.0,-0.3466797,0.16601562,45.96875,15.0,-48.9375
688,1697633485,-1.2822266,-0.8154297,-1.4150391,-575.375,-156.53125,-95.71875
689,1697633525,-1.3271484,-0.5986328,-0.15332031,-70.71875,-51.25,-53.09375
690,1697633565,-0.23925781,-0.81347656,0.41015625,25.28125,-99.09375,-120.1875
691,1697633605,-1.34375,-1.2138672,0.60839844,33.21875,-112.875,-77.875
692,1697633645,-0.43554688,-0.27246094,0.045898438,62.4375,-142.5,-63.25
693,1697633685,0.7285156,-0.5800781,0.5810547,4.46875,-37.25,-76.96875
694,1697633725,-1.0351562,-0.4970703,0.68066406,29.65625,-44.78125,-58.21875
695,1697633765,0.0126953125,-1.3242188,0.9355469,51.21875,-61.6875,-13.6875
696,1697633805,-0.6591797,-0.9824219,0.9970703,4.59375,-50.6875,-18.5625
697,1697633845,-0.6816406,-1.3466797,1.328125,19.125,-11.375,23.6875
698,1697633885,-1.2822266,-1.1943359,1.5546875,42.25,18.78125,86.65625
699,1697633925,-1.3867188,-1.2548828,1.5751953,101.875,61.625,138.0
700,1697633965,-0.9042969,-1.0371094,1.2480469,175.0625,102.375,208.75
701,1697634005,0.0029296875,-0.25097656,0.33398438,181.34375,150.25,223.03125
702,1697634045,0.41210938,-0.375,-0.16699219,136.59375,112.46875,133.0
703,1697634085,1.0712891,0.25097656,-1.1044922,8.625,159.6875,27.71875
704,1697634125,0.0107421875,0.2734375,-0.92578125,-94.53125,200.71875,58.84375
705,1697634165,-0.39941406,0.5419922,-0.4296875,-28.125,255.84375,119.625
706,1697634205,-0.43066406,0.23046875,-0.31347656,-49.625,345.5625,261.59375
707,1697634245,-0.31054688,0.064453125,-0.2939453,-82.375,288.96875,241.09375
708,1697634285,-0.8203125,0.046875,-0.39160156,-117.71875,366.71875,182.0
709,1697634325,-1.3710938,0.82128906,-0.8300781,339.1875,141.03125,112.59375
710,1697634365,-0.95996094,0.6015625,-0.3154297,197.625,102.8125,-3.90625
711,1697634405,-0.7470703,-0.31835938,-0.47265625,-79.09375,12.71875,-20.75
712,1697634445,-0.5761719,0.38476562,-0.9736328,-92.28125,-92.8125,-45.0
713,1697634485,-0.70410156,1.0087891,-1.2285156,-237.46875,-7.59375,-6.90625
714,1697634525,-1.4287109,1.4384766,-1.1337891,-177.3125,0.53125,73.96875
715,1697634565,-1.7041016,0.7138672,-0.70703125,86.8125,120.625,79.21875
716,1697634605,-0.9941406,0.75878906,-0.06640625,164.375,95.6875,62.6875
717,1697634645,-0.4951172,0.7578125,-0.53125,-85.3125,-8.03125,37.90625
718,1697634685,-0.5888672,0.37597656,-0.80859375,-27.6875,-23.21875,16.0625
719,1697634725,-1.1787109,1.5361328,-0.73339844,234.3125,155.0625,7.875
720,1697634765,-0.72265625,0.6777344,-1.0078125,219.375,86.03125,17.34375
721,1697634805,-0.3310547,0.31445312,-1.15625,69.21875,31.65625,10.1875
722,1697634845,-0.5605469,0.17675781,-1.0292969,-40.15625,-82.1875,-40.15625
723,1697634885,-0.7988281,0.47460938,-1.0136719,-223.1875,-130.40625,-57.125
724,1697634925,-1.0888672,1.0498047,-0.4892578,-399.28125,-12.3125,-59.4375
725,1697634965,-0.61035156,0.90722656,-0.5878906,12.28125,-44.71875,-15.5
726,1697635005,-1.1630859,0.6464844,-0.6669922,52.0,-59.125,-26.125
727,1697635045,-0.99316406,0.94921875,-0.7792969,-144.59375,-46.21875,-5.9375
728,1697635085,-1.1328125,1.1699219,-0.8310547,-160.34375,-34.40625,37.59375
729,1697635125,-1.1484375,0.6123047,-0.4345703,42.375,-17.53125,32.40625
730,1697635165,-0.86328125,0.18261719,-0.025390625,87.84375,-95.96875,11.96875
731,1697635205,-0.9042969,0.41308594,0.08886719,158.28125,-69.96875,24.46875
732,1697635245,-1.0292969,0.43066406,-0.3125,204.65625,-213.78125,-101.125
733,1697635285,-0.4423828,0.4736328,-0.01953125,27.65625,-323.625,-179.5625
734,1697635325,-0.7158203,0.2578125,-0.8935547,76.59375,-313.125,-154.25
735,1697635365,-0.4296875,-0.33203125,-0.6142578,102.71875,-450.40625,-227.3125
736,1697635405,-0.099609375,0.8300781,-0.9794922,89.78125,-411.96875,-156.9375
737,1697635445,0.4296875,-0.107421875,-0.31445312,-22.15625,-450.40625,-43.21875
738,1697635485,-0.072265625,0.056640625,-0.2607422,-39.1875,-371.1875,-94.78125
739,1697635525,-0.17480469,-0.20214844,0.0390625,-80.25,-247.40625,-75.1875
740,1697635565,0.06933594,-0.0234375,-0.8066406,-71.15625,-103.1875,-62.9375
741,1697635605,-0.49609375,-1.3037109,0.75097656,-151.46875,-151.6875,-13.0625
742,1697635645,0.068359375,-1.2734375,2.0,-139.75,-9.25,-81.1875
743,1697635685,-0.5419922,-1.265625,2.0,-95.5625,-10.90625,-59.09375
744,1697635725,-0.3125,-1.1484375,1.6494141,-63.40625,30.65625,-93.875
745,1697635765,0.23046875,-0.5419922,1.3457031,-19.78125,82.0,-43.46875
746,1697635805,0.0029296875,-0.4892578,0.9814453,-25.8125,108.5625,-15.5
747,1697635845,0.16015625,-0.5683594,0.9160156,-39.90625,129.78125,-22.875
748,1697635885,-0.1015625,-0.41503906,0.91308594,-30.6875,115.21875,33.5
749,1697635925,-0.51660156,-0.45214844,0.9902344,-62.75,107.28125,35.8125
750,1697635965,-0.61035156,-0.92089844,0.9326172,-95.34375,99.15625,50.46875
751,1697636005,-0.765625,-0.8359375,0.91796875,-52.0,123.3125,87.78125
752,1697636045,-0.6455078,-0.5654297,0.9267578,-39.375,137.0,115.125
753,1697636085,-0.7597656,-0.5214844,0.21777344,-37.28125,149.1875,140.3125
754,1697636125,-2.0,-0.7998047,-0.14648438,-28.3125,113.75,340.09375
755,1697636165,-0.49414062,-0.33496094,0.3984375,-13.84375,125.53125,-21.4375
756,1697636205,0.39160156,-0.11816406,0.07324219,8.5,71.6875,44.84375
757,1697636245,0.1796875,0.10449219,0.12402344,1.90625,53.9375,24.21875
758,1697636285,-0.20019531,-0.009765625,0.046875,50.4375,42.15625,-11.34375
759,1697636325,-0.07421875,0.055664062,-0.13085938,-28.0,18.28125,-0.96875
