timestamp,accel_x,accel_y,accel_z,gyro_x,gyro_y,gyro_z,mag_x,mag_y,mag_z
1695671709149,-0.46875,-0.07714844,1.0029297,-30.5,-108.84375,2.75,0.0,0.0,0.0
1695671709189,-0.33789062,-0.13964844,1.0058594,-30.8125,-90.1875,7.34375,-61.625,-38.1875,-73.5625
1695671709229,-0.2998047,-0.15917969,1.1513672,-33.625,-69.90625,-6.78125,0.0,0.0,0.0
1695671709269,-0.29296875,-0.21484375,1.2041016,-9.75,-59.40625,-10.375,0.0,0.0,0.0
1695671709309,-0.2265625,-0.055664062,1.2480469,2.46875,-53.4375,-14.59375,0.0,0.0,0.0
1695671709349,-0.18945312,-0.15234375,1.1298828,-5.03125,-16.5625,-11.28125,0.0,0.0,0.0
1695671709389,-0.14355469,-0.20507812,1.1103516,8.0625,-7.71875,-14.75,0.0,0.0,0.0
1695671709429,-0.13671875,-0.14648438,0.99316406,1.96875,2.46875,-10.0,0.0,0.0,0.0
1695671709469,-0.18359375,-0.12011719,0.9707031,11.375,-6.25,-2.9375,0.0,0.0,0.0
1695671709509,-0.19335938,-0.12695312,1.0058594,8.9375,-9.625,-1.71875,0.0,0.0,0.0
1695671709549,-0.17578125,-0.08496094,1.0058594,7.90625,-17.375,0.0,0.0,0.0,0.0
1695671709589,-0.15917969,-0.109375,1.0625,2.78125,-9.90625,0.96875,0.0,0.0,0.0
1695671709629,-0.14550781,-0.09863281,1.0410156,2.84375,1.84375,-0.3125,0.0,0.0,0.0
1695671709669,-0.15429688,-0.11328125,1.0380859,1.59375,9.90625,-0.53125,-54.625,-35.0625,-77.3125
1695671709709,-0.14160156,-0.12011719,1.0234375,2.78125,8.375,0.6875,0.0,0.0,0.0
1695671709749,-0.16210938,-0.12597656,0.9921875,2.46875,5.46875,2.25,0.0,0.0,0.0
1695671709789,-0.17382812,-0.12402344,0.9980469,2.28125,5.46875,2.5625,0.0,0.0,0.0
1695671709829,-0.19433594,-0.09765625,1.0126953,2.78125,4.84375,2.1875,0.0,0.0,0.0
1695671709869,-0.20019531,-0.08203125,0.99902344,2.53125,3.625,1.40625,0.0,0.0,0.0
1695671709909,-0.20019531,-0.08105469,1.0009766,1.25,4.71875,-1.09375,0.0,0.0,0.0
1695671709949,-0.21289062,-0.091796875,0.9941406,0.03125,5.09375,-1.46875,0.0,0.0,0.0
1695671709989,-0.20214844,-0.08496094,0.984375,0.375,3.6875,-1.40625,0.0,0.0,0.0
1695671710029,-0.20605469,-0.09667969,0.99902344,1.4375,3.5,-0.71875,0.0,0.0,0.0
1695671710069,-0.20898438,-0.09765625,1.0078125,1.84375,1.0,-0.1875,0.0,0.0,0.0
1695671710109,-0.21191406,-0.08984375,0.99121094,1.78125,2.84375,1.15625,0.0,0.0,0.0
1695671710149,-0.22167969,-0.08984375,0.99609375,2.78125,1.0625,1.28125,0.0,0.0,0.0
1695671710189,-0.21777344,-0.08691406,0.9863281,2.03125,0.5625,1.15625,-55.9375,-35.375,-77.3125
1695671710229,-0.21582031,-0.0703125,0.984375,1.90625,0.8125,1.03125,0.0,0.0,0.0
1695671710269,-0.2109375,-0.07910156,0.99609375,1.65625,0.09375,1.40625,0.0,0.0,0.0
1695671710309,-0.22558594,-0.07519531,0.9941406,1.65625,-1.0625,1.28125,0.0,0.0,0.0
1695671710349,-0.21582031,-0.0859375,0.98828125,1.0,-0.8125,1.09375,0.0,0.0,0.0
1695671710389,-0.21972656,-0.07421875,1.0009766,2.53125,-2.28125,1.21875,0.0,0.0,0.0
1695671710429,-0.20410156,-0.08300781,0.98535156,2.53125,-3.6875,1.78125,0.0,0.0,0.0
1695671710469,-0.20117188,-0.07910156,0.9785156,1.96875,-2.21875,1.96875,0.0,0.0,0.0
1695671710509,-0.18457031,-0.0703125,0.99121094,3.0,-4.4375,3.4375,0.0,0.0,0.0
1695671710549,-0.18457031,-0.072265625,0.9951172,4.0625,-5.65625,4.34375,0.0,0.0,0.0
1695671710589,-0.17285156,-0.06933594,0.9970703,5.40625,-6.0,4.65625,0.0,0.0,0.0
1695671710629,-0.16113281,-0.087890625,0.99121094,6.375,-8.15625,6.53125,0.0,0.0,0.0
1695671710669,-0.109375,-0.03515625,0.95996094,11.0,-20.65625,10.25,-54.875,-34.625,-76.6875
1695671710709,-0.140625,-0.07519531,1.0498047,2.59375,-19.0,11.34375,0.0,0.0,0.0
1695671710749,-0.12597656,-0.056640625,1.0449219,-12.625,-41.34375,6.34375,0.0,0.0,0.0
1695671710789,-0.095703125,-0.044921875,1.0742188,-18.46875,-22.8125,2.03125,0.0,0.0,0.0
1695671710829,-0.07519531,-0.06933594,1.1181641,-9.5625,-10.34375,1.03125,0.0,0.0,0.0
1695671710869,-0.09472656,-0.095703125,1.0917969,-6.375,-1.5625,-0.78125,0.0,0.0,0.0
1695671710909,-0.14160156,-0.091796875,1.1425781,2.09375,22.84375,-0.90625,0.0,0.0,0.0
1695671710949,-0.16210938,-0.07910156,1.1347656,5.21875,32.875,3.375,0.0,0.0,0.0
1695671710989,-0.19628906,-0.111328125,1.1201172,11.9375,45.4375,3.3125,0.0,0.0,0.0
1695671711029,-0.25195312,-0.06347656,1.1347656,12.65625,52.6875,1.34375,0.0,0.0,0.0
1695671711069,-0.25097656,-0.043945312,1.0966797,15.28125,63.375,-0.0625,0.0,0.0,0.0
1695671711109,-0.2861328,-0.052734375,1.1025391,14.71875,76.5,2.03125,0.0,0.0,0.0
1695671711149,-0.33789062,-0.053710938,1.0908203,15.71875,89.875,2.625,0.0,0.0,0.0
1695671711189,-0.41210938,-0.030273438,1.0488281,16.625,106.28125,2.03125,-60.4375,-37.625,-69.9375
1695671711229,-0.46289062,-0.048828125,1.0068359,20.53125,121.25,4.9375,0.0,0.0,0.0
1695671711269,-0.55566406,-0.043945312,0.9316406,22.78125,125.5625,9.59375,0.0,0.0,0.0
1695671711309,-0.5996094,-0.033203125,0.85546875,30.1875,125.53125,5.1875,0.0,0.0,0.0
1695671711349,-0.6464844,0.024414062,0.7685547,24.9375,134.90625,9.65625,0.0,0.0,0.0
1695671711389,-0.75390625,0.07128906,0.6425781,24.8125,145.59375,18.625,0.0,0.0,0.0
1695671711429,-0.7246094,0.107421875,0.56347656,27.90625,149.375,20.28125,0.0,0.0,0.0
1695671711469,-0.75878906,0.06640625,0.4248047,27.0625,145.21875,25.9375,0.0,0.0,0.0
1695671711509,-0.7714844,0.10449219,0.3642578,32.75,123.3125,26.75,0.0,0.0,0.0
1695671711549,-0.7480469,0.19238281,0.29492188,13.15625,106.71875,16.71875,0.0,0.0,0.0
1695671711589,-0.625,0.068359375,0.13476562,-3.28125,94.625,4.28125,0.0,0.0,0.0
1695671711629,-0.6748047,0.15917969,0.03515625,-3.09375,95.5,2.8125,0.0,0.0,0.0
1695671711669,-0.74609375,0.15332031,0.0126953125,7.40625,60.75,1.03125,-77.25,-31.75,-109.125
1695671711709,-1.140625,0.1875,-0.0107421875,12.09375,36.28125,0.25,0.0,0.0,0.0
1695671711749,-1.0585938,0.21484375,0.057617188,2.09375,18.15625,-2.875,0.0,0.0,0.0
1695671711789,-1.0341797,0.11230469,0.024414062,-2.84375,8.75,-5.125,0.0,0.0,0.0
1695671711829,-0.99902344,0.12597656,0.040039062,14.3125,8.8125,-1.59375,0.0,0.0,0.0
1695671711869,-0.97558594,0.16601562,0.05078125,29.625,10.09375,5.75,0.0,0.0,0.0
1695671711909,-1.0458984,0.15917969,0.001953125,16.9375,10.53125,-0.125,0.0,0.0,0.0
1695671711949,-0.9794922,0.123046875,0.017578125,23.28125,4.0625,-0.53125,0.0,0.0,0.0
1695671711989,-1.0087891,0.099609375,0.0390625,32.25,-1.125,-0.1875,0.0,0.0,0.0
1695671712029,-1.0019531,0.0068359375,0.040039062,38.53125,-11.09375,0.5,0.0,0.0,0.0
1695671712069,-0.9951172,0.043945312,0.015625,41.9375,-0.75,-3.59375,0.0,0.0,0.0
1695671712109,-1.0410156,0.060546875,0.057617188,62.9375,0.03125,-4.625,0.0,0.0,0.0
1695671712149,-1.0253906,0.09277344,0.061523438,65.21875,6.0,-9.6875,0.0,0.0,0.0
1695671712189,-1.0166016,0.08105469,0.068359375,61.53125,2.59375,-7.1875,-76.375,-33.6875,-115.375
1695671712229,-0.99316406,0.08203125,0.05859375,63.3125,2.90625,-5.125,0.0,0.0,0.0
1695671712269,-1.0,0.10449219,0.056640625,57.15625,0.9375,-6.34375,0.0,0.0,0.0
1695671712309,-0.9980469,0.083984375,0.095703125,55.5,-0.71875,-4.21875,0.0,0.0,0.0
1695671712349,-0.984375,0.10058594,0.0390625,53.84375,-2.0625,3.1875,0.0,0.0,0.0
1695671712389,-1.0458984,0.119140625,0.072265625,54.09375,-4.625,7.4375,0.0,0.0,0.0
1695671712429,-0.984375,0.078125,0.06542969,48.96875,-3.34375,8.71875,0.0,0.0,0.0
1695671712469,-1.0410156,0.025390625,0.036132812,38.90625,-3.09375,8.0,0.0,0.0,0.0
1695671712509,-1.0136719,0.033203125,0.044921875,35.46875,8.625,6.0,0.0,0.0,0.0
1695671712549,-1.0341797,0.046875,0.061523438,38.15625,1.0625,8.84375,0.0,0.0,0.0
1695671712589,-1.2490234,-0.0703125,0.061523438,50.0625,-9.8125,10.125,0.0,0.0,0.0
1695671712629,-1.1796875,0.028320312,-0.078125,77.15625,-35.375,-6.9375,0.0,0.0,0.0
1695671712669,-1.0419922,0.19824219,-0.029296875,96.53125,-74.4375,-4.9375,-76.9375,-41.375,-112.875
1695671712709,-0.93847656,0.22753906,-0.083984375,93.96875,-117.65625,-3.59375,0.0,0.0,0.0
1695671712749,-0.9667969,0.3251953,0.059570312,47.875,-140.15625,-19.09375,0.0,0.0,0.0
1695671712789,-1.0361328,0.2939453,0.056640625,48.96875,-109.65625,-16.40625,0.0,0.0,0.0
1695671712829,-1.0419922,0.14257812,0.19140625,68.8125,-98.1875,-8.28125,0.0,0.0,0.0
1695671712869,-0.84277344,0.19238281,0.14453125,58.90625,-78.59375,-23.25,0.0,0.0,0.0
1695671712909,-0.9824219,0.1875,0.21875,70.6875,-68.15625,-29.53125,0.0,0.0,0.0
1695671712949,-0.95703125,0.17480469,0.3173828,77.40625,-68.28125,-31.90625,0.0,0.0,0.0
1695671712989,-0.7919922,0.06542969,0.2548828,83.53125,-58.375,-23.96875,0.0,0.0,0.0
1695671713029,-0.73828125,0.24023438,0.17675781,79.125,-55.875,-31.5,0.0,0.0,0.0
1695671713069,-0.7109375,0.3125,0.3330078,48.125,-51.84375,-34.96875,0.0,0.0,0.0
1695671713109,-0.8125,0.20800781,0.24902344,29.6875,-60.875,-30.375,0.0,0.0,0.0
1695671713149,-0.5410156,0.17089844,0.3095703,20.03125,-68.40625,-27.15625,0.0,0.0,0.0
1695671713189,-0.75,0.16113281,0.29589844,-7.78125,-49.96875,-31.0,-70.1875,-45.25,-78.0625
1695671713229,-0.7519531,0.20898438,0.47460938,-7.1875,-70.46875,-32.40625,0.0,0.0,0.0
1695671713269,-0.6582031,-0.048828125,0.7265625,-16.8125,-97.75,-13.46875,0.0,0.0,0.0
1695671713309,-0.63964844,-0.11035156,0.70410156,-18.15625,-105.9375,-27.40625,0.0,0.0,0.0
1695671713349,-0.64160156,0.13671875,0.7265625,-11.9375,-121.3125,-17.15625,0.0,0.0,0.0
1695671713389,-0.5498047,-0.016601562,0.7705078,-22.5,-99.8125,-11.84375,0.0,0.0,0.0
1695671713429,-0.6269531,-0.033203125,0.8691406,-30.1875,-106.65625,-24.28125,0.0,0.0,0.0
1695671713469,-0.48632812,0.052734375,0.91308594,-15.375,-111.25,-13.59375,0.0,0.0,0.0
1695671713509,-0.45214844,0.038085938,0.9941406,-31.09375,-104.78125,-2.875,0.0,0.0,0.0
1695671713549,-0.4013672,-0.0146484375,1.0244141,-33.3125,-106.34375,-6.28125,0.0,0.0,0.0
1695671713589,-0.34472656,-0.03515625,1.0683594,-24.875,-113.1875,-2.5,0.0,0.0,0.0
1695671713629,-0.25,0.026367188,1.0830078,-21.84375,-112.9375,1.71875,0.0,0.0,0.0
1695671713669,-0.14257812,-0.08105469,1.0292969,-27.75,-112.28125,3.25,-40.625,-58.9375,-56.9375
1695671713709,-0.020507812,-0.10839844,1.0791016,-34.28125,-116.65625,1.71875,0.0,0.0,0.0
1695671713749,0.140625,-0.13183594,1.0351562,-25.1875,-117.78125,-2.0,0.0,0.0,0.0
1695671713789,0.20605469,-0.14746094,1.125,-38.84375,-107.15625,-5.4375,0.0,0.0,0.0
1695671713829,0.23632812,-0.21289062,1.0410156,-29.40625,-102.09375,-10.5625,0.0,0.0,0.0
1695671713869,0.29589844,-0.16699219,0.9824219,-28.1875,-100.0625,-4.625,0.0,0.0,0.0
1695671713909,0.33789062,-0.2109375,0.9580078,-38.96875,-93.59375,3.4375,0.0,0.0,0.0
1695671713949,0.46875,-0.3095703,0.90625,-43.8125,-82.84375,10.5,0.0,0.0,0.0
1695671713989,0.5029297,-0.31152344,0.94921875,-44.96875,-74.5625,18.375,0.0,0.0,0.0
1695671714029,0.53222656,-0.3828125,0.9355469,-44.21875,-66.0,13.96875,0.0,0.0,0.0
1695671714069,0.5410156,-0.39941406,0.8574219,-40.25,-57.28125,8.6875,0.0,0.0,0.0
1695671714109,0.56152344,-0.4189453,0.8417969,-45.34375,-48.375,5.75,0.0,0.0,0.0
1695671714149,0.6044922,-0.47558594,0.78808594,-46.5,-42.625,-0.71875,0.0,0.0,0.0
1695671714189,0.6123047,-0.484375,0.7871094,-41.84375,-39.03125,-5.3125,-16.0625,-71.5,-67.5625
1695671714229,0.61816406,-0.45117188,0.7607422,-41.4375,-22.96875,-11.21875,0.0,0.0,0.0
1695671714269,0.65234375,-0.45214844,0.75683594,-39.40625,-21.03125,-11.28125,0.0,0.0,0.0
1695671714309,0.6347656,-0.4765625,0.7451172,-26.65625,-17.5625,-9.40625,0.0,0.0,0.0
1695671714349,0.6328125,-0.47460938,0.68847656,-19.21875,-20.1875,-9.875,0.0,0.0,0.0
1695671714389,0.55566406,-0.45898438,0.61816406,-17.4375,-31.09375,-6.84375,0.0,0.0,0.0
1695671714429,0.61621094,-0.4423828,0.6855469,-19.875,-31.28125,-5.375,0.0,0.0,0.0
1695671714469,0.6357422,-0.4736328,0.58496094,-17.3125,-52.34375,-0.96875,0.0,0.0,0.0
1695671714509,0.66308594,-0.4658203,0.53808594,-16.59375,-50.4375,4.03125,0.0,0.0,0.0
1695671714549,0.7519531,-0.5361328,0.55859375,-27.09375,-52.21875,9.46875,0.0,0.0,0.0
1695671714589,0.7783203,-0.66796875,0.4765625,-19.15625,-45.5625,8.71875,0.0,0.0,0.0
1695671714629,0.7890625,-0.5517578,0.29882812,-2.0625,-32.4375,2.625,0.0,0.0,0.0
1695671714669,0.75683594,-0.5576172,0.3125,4.0,-31.15625,6.59375,-10.9375,-73.1875,-84.5
1695671714709,0.70703125,-0.52246094,0.2578125,5.21875,-6.4375,-4.6875,0.0,0.0,0.0
1695671714749,0.83496094,-0.51171875,0.29003906,14.375,43.59375,-7.625,0.0,0.0,0.0
1695671714789,0.8076172,-0.5673828,0.4482422,11.375,88.96875,-14.65625,0.0,0.0,0.0
1695671714829,0.8066406,-0.45507812,0.46484375,12.65625,106.09375,-29.34375,0.0,0.0,0.0
1695671714869,0.67578125,-0.42089844,0.7080078,1.71875,141.15625,-27.53125,0.0,0.0,0.0
1695671714909,0.5654297,-0.36523438,0.7236328,10.40625,123.0,-27.53125,0.0,0.0,0.0
1695671714949,0.52441406,-0.45898438,0.69628906,15.40625,91.9375,-23.375,0.0,0.0,0.0
1695671714989,0.5488281,-0.3642578,0.71972656,20.15625,63.8125,-23.75,0.0,0.0,0.0
1695671715029,0.49804688,-0.3203125,0.88964844,13.15625,83.9375,-14.9375,0.0,0.0,0.0
1695671715069,0.4658203,-0.40429688,0.8066406,11.875,62.09375,-1.21875,0.0,0.0,0.0
1695671715109,0.41210938,-0.40039062,0.74902344,8.9375,62.28125,-10.1875,0.0,0.0,0.0
1695671715149,0.2890625,-0.33007812,1.0087891,5.28125,46.59375,-2.0,0.0,0.0,0.0
1695671715189,0.34179688,-0.3798828,0.8769531,5.9375,5.28125,-3.84375,-16.9375,-67.1875,-71.125
1695671715229,0.37109375,-0.33789062,0.9316406,8.125,27.0625,1.40625,0.0,0.0,0.0
1695671715269,0.33203125,-0.3984375,0.88671875,3.625,28.53125,0.5,0.0,0.0,0.0
1695671715309,0.32617188,-0.36621094,0.96972656,18.8125,38.90625,-9.34375,0.0,0.0,0.0
1695671715349,0.35351562,-0.4013672,0.8691406,14.84375,25.59375,-11.65625,0.0,0.0,0.0
1695671715389,0.30273438,-0.2578125,0.9199219,21.3125,36.46875,-13.46875,0.0,0.0,0.0
1695671715429,0.3076172,-0.2607422,0.96484375,14.125,37.0625,-2.0625,0.0,0.0,0.0
1695671715469,0.26953125,-0.2939453,0.8691406,15.03125,48.96875,4.875,0.0,0.0,0.0
1695671715509,0.3623047,-0.33007812,0.86328125,5.9375,64.46875,0.0,0.0,0.0,0.0
1695671715549,0.20703125,-0.3154297,0.77734375,3.625,79.9375,-4.8125,0.0,0.0,0.0
1695671715589,0.20410156,-0.22753906,0.9169922,-0.46875,97.875,-2.8125,0.0,0.0,0.0
1695671715629,-0.005859375,-0.3486328,0.9189453,-15.0,90.84375,16.0625,0.0,0.0,0.0
1695671715669,-0.0625,-0.21386719,1.0058594,6.5,71.5,11.1875,-29.25,-65.8125,-66.625
1695671715709,-0.11816406,-0.36914062,0.984375,2.9375,71.375,24.46875,0.0,0.0,0.0
1695671715749,-0.12207031,-0.25,0.9785156,5.625,57.46875,7.5625,0.0,0.0,0.0
1695671715789,-0.4580078,-0.25390625,1.0888672,34.09375,12.25,30.71875,0.0,0.0,0.0
1695671715829,-0.203125,-0.23046875,1.1376953,14.0,-31.09375,-5.0,0.0,0.0,0.0
1695671715869,0.001953125,-0.29101562,0.80371094,-15.375,-7.96875,-11.34375,0.0,0.0,0.0
1695671715909,-0.0234375,-0.20703125,0.92871094,-2.59375,11.0,-10.75,0.0,0.0,0.0
1695671715949,-0.13476562,-0.24023438,1.0634766,-3.65625,8.5,-7.0,0.0,0.0,0.0
1695671715989,-0.1015625,-0.2841797,1.0009766,-5.34375,-0.09375,-2.9375,0.0,0.0,0.0
1695671716029,-0.091796875,-0.27734375,0.96191406,-6.3125,-0.40625,-0.78125,0.0,0.0,0.0
1695671716069,-0.18847656,-0.3310547,0.9921875,-9.125,4.53125,-1.03125,0.0,0.0,0.0
1695671716109,-0.14746094,-0.26367188,0.9746094,-0.09375,0.8125,-6.71875,0.0,0.0,0.0
1695671716149,-0.15332031,-0.30371094,0.9716797,4.78125,-5.15625,-5.375,0.0,0.0,0.0
1695671716189,-0.10546875,-0.19921875,0.9765625,0.5,-10.78125,-12.5,-34.375,-63.875,-66.375
1695671716229,-0.14160156,-0.23339844,0.98535156,-8.09375,-8.34375,-10.0625,0.0,0.0,0.0
1695671716269,-0.072265625,-0.25,0.91796875,-13.90625,-4.125,-10.8125,0.0,0.0,0.0
1695671716309,-0.09082031,-0.29882812,0.9794922,-13.59375,2.09375,-9.34375,0.0,0.0,0.0
1695671716349,-0.12207031,-0.2841797,0.9863281,-20.5625,3.9375,-15.25,0.0,0.0,0.0
1695671716389,-0.07324219,-0.37304688,0.9824219,-17.0,3.09375,-12.09375,0.0,0.0,0.0
1695671716429,-0.06640625,-0.31054688,0.9248047,-15.84375,11.1875,-16.34375,0.0,0.0,0.0
1695671716469,-0.13085938,-0.4267578,0.9863281,-13.53125,9.125,-9.6875,0.0,0.0,0.0
1695671716509,-0.043945312,-0.4501953,0.9746094,-15.25,5.28125,-11.71875,0.0,0.0,0.0
1695671716549,-0.123046875,-0.5205078,0.9628906,-6.5625,1.375,-6.90625,0.0,0.0,0.0
1695671716589,-0.07421875,-0.28515625,0.8652344,5.5,-8.9375,-14.875,0.0,0.0,0.0
1695671716629,-0.11425781,-0.27148438,0.98046875,-3.9375,-11.1875,-3.59375,0.0,0.0,0.0
1695671716669,-0.0546875,-0.22949219,0.8984375,-21.34375,-8.8125,-9.8125,-31.1875,-67.4375,-65.75
1695671716709,-0.072265625,-0.3466797,0.94921875,-25.6875,-6.6875,-8.59375,0.0,0.0,0.0
1695671716749,-0.07128906,-0.38085938,0.9199219,-32.75,-9.3125,-16.46875,0.0,0.0,0.0
1695671716789,-0.09667969,-0.4453125,0.9453125,-24.03125,-14.375,-12.375,0.0,0.0,0.0
1695671716829,-0.005859375,-0.5439453,0.85839844,-34.40625,-17.25,-16.71875,0.0,0.0,0.0
1695671716869,0.28515625,-0.49414062,0.9560547,-13.84375,-3.75,-6.40625,0.0,0.0,0.0
1695671716909,-0.09765625,-0.46289062,0.83984375,2.78125,9.0,6.84375,0.0,0.0,0.0
1695671716949,0.09375,-0.5810547,0.89160156,4.71875,8.6875,6.59375,0.0,0.0,0.0
1695671716989,0.034179688,-0.46289062,0.97265625,11.75,6.6875,-0.3125,0.0,0.0,0.0
1695671717029,-0.05859375,-0.5800781,0.91015625,12.21875,5.71875,3.0,0.0,0.0,0.0
1695671717069,-0.055664062,-0.48828125,0.8779297,12.46875,5.34375,-1.59375,0.0,0.0,0.0
1695671717109,-0.057617188,-0.3701172,0.89941406,21.625,1.625,-1.40625,0.0,0.0,0.0
1695671717149,-0.036132812,-0.40820312,0.94433594,15.9375,1.84375,2.3125,0.0,0.0,0.0
1695671717189,-0.038085938,-0.41796875,0.9296875,16.4375,6.3125,5.125,-28.5,-69.4375,-67.5625
1695671717229,-0.034179688,-0.35058594,0.9394531,16.6875,8.9375,4.21875,0.0,0.0,0.0
1695671717269,-0.07519531,-0.31835938,0.9375,11.625,7.90625,3.78125,0.0,0.0,0.0
1695671717309,-0.080078125,-0.3125,0.92089844,3.6875,6.875,2.6875,0.0,0.0,0.0
1695671717349,-0.051757812,-0.37109375,0.9248047,-1.4375,9.625,3.71875,0.0,0.0,0.0
1695671717389,-0.06347656,-0.41015625,0.91796875,1.1875,11.5,5.75,0.0,0.0,0.0
1695671717429,-0.08691406,-0.4267578,0.9814453,2.21875,9.84375,4.34375,0.0,0.0,0.0
1695671717469,-0.1171875,-0.37402344,0.9511719,0.625,4.59375,1.03125,0.0,0.0,0.0
1695671717509,-0.119140625,-0.41992188,0.90625,-0.84375,4.375,-0.78125,0.0,0.0,0.0
1695671717549,-0.11425781,-0.38183594,0.9160156,4.21875,2.53125,-1.15625,0.0,0.0,0.0
1695671717589,-0.09472656,-0.38671875,0.95410156,5.34375,2.28125,1.40625,0.0,0.0,0.0
1695671717629,-0.103515625,-0.3828125,0.95703125,4.28125,0.6875,1.03125,0.0,0.0,0.0
1695671717669,-0.09277344,-0.3642578,0.93066406,2.875,1.4375,-0.25,-31.375,-67.3125,-65.625
1695671717709,-0.09375,-0.3515625,0.9482422,-0.15625,-0.15625,0.125,0.0,0.0,0.0
1695671717749,-0.09765625,-0.3720703,0.93847656,-0.21875,1.0,0.90625,0.0,0.0,0.0
1695671717789,-0.099609375,-0.38085938,0.9550781,0.75,1.5625,1.34375,0.0,0.0,0.0
1695671717829,-0.11425781,-0.36621094,0.94921875,0.09375,0.5625,0.375,0.0,0.0,0.0
1695671717869,-0.10253906,-0.37304688,0.9511719,0.9375,-0.03125,0.4375,0.0,0.0,0.0
1695671717909,-0.087890625,-0.37304688,0.9482422,-0.09375,0.53125,-0.25,0.0,0.0,0.0
1695671717949,-0.10253906,-0.36914062,0.9453125,0.625,0.15625,0.125,0.0,0.0,0.0
1695671717989,-0.103515625,-0.37597656,0.94628906,0.25,0.21875,0.5625,0.0,0.0,0.0
1695671718029,-0.099609375,-0.37695312,0.9472656,0.6875,0.34375,0.4375,0.0,0.0,0.0
1695671718069,-0.10644531,-0.3701172,0.953125,1.3125,0.21875,0.375,0.0,0.0,0.0
1695671718109,-0.10253906,-0.36914062,0.9423828,0.5625,0.53125,-0.1875,0.0,0.0,0.0
1695671718149,-0.091796875,-0.37109375,0.95214844,0.375,0.6875,0.1875,0.0,0.0,0.0
1695671718189,-0.10253906,-0.37109375,0.9394531,-0.84375,-0.53125,0.0625,-31.1875,-66.4375,-67.375
1695671718229,-0.10058594,-0.3671875,0.953125,0.3125,0.40625,0.375,0.0,0.0,0.0
1695671718269,-0.107421875,-0.36621094,0.94433594,-0.09375,0.34375,0.4375,0.0,0.0,0.0
1695671718309,-0.09863281,-0.3720703,0.9501953,-0.15625,0.03125,0.4375,0.0,0.0,0.0
1695671718349,-0.107421875,-0.37109375,0.94628906,-0.28125,0.40625,0.125,0.0,0.0,0.0
1695671718389,-0.10644531,-0.36523438,0.95214844,-0.71875,0.34375,0.0,0.0,0.0,0.0
1695671718429,-0.10449219,-0.37109375,0.9453125,-0.15625,-0.15625,0.3125,0.0,0.0,0.0
1695671718469,-0.10253906,-0.36035156,0.95214844,-0.46875,0.28125,-0.0625,0.0,0.0,0.0
1695671718509,-0.09472656,-0.37597656,0.92871094,0.75,0.09375,0.5,0.0,0.0,0.0
1695671718549,-0.107421875,-0.36816406,0.9472656,0.5625,0.40625,0.25,0.0,0.0,0.0
1695671718589,-0.107421875,-0.3701172,0.9501953,0.5625,0.53125,-0.125,0.0,0.0,0.0
1695671718629,-0.115234375,-0.36328125,0.9472656,-0.09375,0.40625,-0.25,0.0,0.0,0.0
1695671718669,-0.119140625,-0.36328125,0.9423828,-1.5625,-1.75,-0.46875,-32.375,-66.5625,-66.625
1695671718709,-0.08984375,-0.36621094,0.94433594,-1.4375,-3.03125,-0.65625,0.0,0.0,0.0
1695671718749,-0.10546875,-0.3544922,0.9355469,-1.9375,-1.375,-1.46875,0.0,0.0,0.0
1695671718789,-0.11230469,-0.35839844,0.95214844,-5.90625,-2.0,-2.1875,0.0,0.0,0.0
1695671718829,-0.08105469,-0.37109375,0.9482422,-7.25,-0.65625,-2.8125,0.0,0.0,0.0
1695671718869,-0.09667969,-0.3798828,0.9501953,-8.09375,1.0625,-2.875,0.0,0.0,0.0
1695671718909,-0.12109375,-0.34277344,0.92578125,-7.65625,-2.53125,-3.21875,0.0,0.0,0.0
1695671718949,-0.14550781,-0.39160156,0.92285156,-13.59375,-6.3125,-1.71875,0.0,0.0,0.0
1695671718989,-0.08691406,-0.51660156,0.99609375,-10.125,-9.375,1.84375,0.0,0.0,0.0
1695671719029,-0.046875,-0.4189453,0.9277344,-4.9375,-12.375,-8.125,0.0,0.0,0.0
1695671719069,-0.099609375,-0.42089844,0.95410156,-12.5,-18.71875,-7.5,0.0,0.0,0.0
1695671719109,-0.0078125,-0.48535156,0.9550781,-7.71875,-17.0,-6.9375,0.0,0.0,0.0
1695671719149,-0.055664062,-0.4580078,0.88964844,-4.875,-19.6875,-6.09375,0.0,0.0,0.0
1695671719189,-0.032226562,-0.41992188,0.9091797,0.9375,-19.4375,-4.5,-28.375,-68.5,-67.6875
1695671719229,-0.0146484375,-0.39257812,0.8847656,-0.84375,-16.03125,-4.03125,0.0,0.0,0.0
1695671719269,0.034179688,-0.39746094,0.9189453,5.28125,-12.46875,0.4375,0.0,0.0,0.0
1695671719309,-0.013671875,-0.39941406,0.90234375,6.84375,-4.71875,4.78125,0.0,0.0,0.0
1695671719349,0.10449219,-0.4609375,0.9707031,7.21875,3.375,10.0,0.0,0.0,0.0
1695671719389,0.04296875,-0.40820312,0.93066406,12.34375,4.53125,10.25,0.0,0.0,0.0
1695671719429,0.07714844,-0.4482422,0.95214844,13.25,10.34375,11.96875,0.0,0.0,0.0
1695671719469,-0.016601562,-0.4501953,0.94140625,14.1875,6.6875,3.90625,0.0,0.0,0.0
1695671719509,0.09765625,-0.41503906,0.9501953,25.59375,2.21875,1.96875,0.0,0.0,0.0
1695671719549,-0.01953125,-0.27539062,0.8730469,22.25,0.875,2.625,0.0,0.0,0.0
1695671719589,0.08984375,-0.41308594,0.953125,24.8125,13.75,8.1875,0.0,0.0,0.0
1695671719629,-0.009765625,-0.3408203,0.93652344,25.53125,16.15625,12.28125,0.0,0.0,0.0
1695671719669,-0.091796875,-0.3359375,1.0136719,27.0625,17.4375,9.03125,-28.375,-65.6875,-63.625
1695671719709,-0.10644531,-0.20703125,0.94921875,23.28125,10.90625,6.71875,0.0,0.0,0.0
1695671719749,-0.18847656,-0.2939453,1.0693359,10.53125,4.90625,12.53125,0.0,0.0,0.0
1695671719789,-0.09667969,-0.21875,0.9658203,9.90625,-4.25,6.96875,0.0,0.0,0.0
1695671719829,-0.07910156,-0.21191406,0.9785156,12.09375,0.46875,7.03125,0.0,0.0,0.0
1695671719869,-0.14648438,-0.28515625,0.9921875,3.875,5.34375,7.03125,0.0,0.0,0.0
1695671719909,-0.06933594,-0.21484375,0.96875,2.34375,2.46875,2.25,0.0,0.0,0.0
1695671719949,-0.12109375,-0.2578125,1.0283203,7.09375,4.0625,10.0,0.0,0.0,0.0
1695671719989,-0.12207031,-0.26171875,0.9902344,-0.40625,-0.65625,3.1875,0.0,0.0,0.0
1695671720029,-0.109375,-0.25195312,1.0048828,8.4375,-0.34375,6.90625,0.0,0.0,0.0
1695671720069,-0.125,-0.27148438,0.9921875,-1.6875,-2.21875,2.1875,0.0,0.0,0.0
1695671720109,-0.1328125,-0.23339844,1.0029297,2.28125,-6.875,4.53125,0.0,0.0,0.0
1695671720149,-0.10839844,-0.24609375,1.0048828,0.375,-14.0,4.65625,0.0,0.0,0.0
1695671720189,-0.08886719,-0.24414062,1.0117188,1.1875,-22.5,4.78125,-30.75,-65.375,-62.0
1695671720229,-0.037109375,-0.28808594,1.03125,3.5625,-23.03125,5.3125,0.0,0.0,0.0
1695671720269,-0.12597656,-0.25878906,1.0556641,-1.25,-44.21875,-4.21875,0.0,0.0,0.0
1695671720309,-0.049804688,-0.2685547,1.0527344,5.28125,-74.4375,-7.125,0.0,0.0,0.0
1695671720349,0.076171875,-0.21484375,0.9746094,23.15625,-98.78125,3.78125,0.0,0.0,0.0
1695671720389,0.1328125,-0.16796875,0.9980469,17.46875,-108.1875,19.28125,0.0,0.0,0.0
1695671720429,0.109375,-0.20703125,0.9638672,-2.125,-104.34375,26.4375,0.0,0.0,0.0
1695671720469,0.26660156,-0.11425781,0.8486328,-0.03125,-88.34375,23.5,0.0,0.0,0.0
1695671720509,0.3310547,-0.21582031,0.8408203,-22.0,-81.9375,35.65625,0.0,0.0,0.0
1695671720549,0.390625,-0.21582031,0.89941406,-16.75,-81.09375,34.3125,0.0,0.0,0.0
1695671720589,0.39941406,-0.2890625,0.88964844,-40.875,-69.25,39.375,0.0,0.0,0.0
1695671720629,0.4921875,-0.33691406,0.7265625,-30.8125,-58.3125,42.125,0.0,0.0,0.0
1695671720669,0.5136719,-0.47851562,0.8408203,-31.15625,-39.78125,37.59375,-16.0625,-67.9375,-65.125
1695671720709,0.46972656,-0.37890625,0.76171875,-27.4375,-26.53125,27.40625,0.0,0.0,0.0
1695671720749,0.46972656,-0.40527344,0.7597656,-36.59375,-10.96875,24.78125,0.0,0.0,0.0
1695671720789,0.46777344,-0.3798828,0.84277344,-52.71875,-9.125,22.59375,0.0,0.0,0.0
1695671720829,0.53222656,-0.4794922,0.72753906,-37.34375,-27.25,20.03125,0.0,0.0,0.0
1695671720869,0.56933594,-0.5136719,0.6904297,-42.875,-27.125,14.40625,0.0,0.0,0.0
1695671720909,0.55566406,-0.54003906,0.6455078,-27.1875,-36.90625,13.1875,0.0,0.0,0.0
1695671720949,0.5625,-0.59277344,0.59472656,-26.59375,-34.53125,8.4375,0.0,0.0,0.0
1695671720989,0.6191406,-0.70996094,0.6279297,-1.6875,-32.5625,11.46875,0.0,0.0,0.0
1695671721029,0.6640625,-0.66308594,0.39160156,34.6875,-2.09375,24.1875,0.0,0.0,0.0
1695671721069,0.58984375,-0.60546875,0.67871094,41.53125,69.0625,19.28125,0.0,0.0,0.0
1695671721109,0.31933594,-0.33984375,1.0683594,21.75,70.15625,11.40625,0.0,0.0,0.0
1695671721149,0.3720703,-0.6357422,0.7470703,48.84375,-16.375,30.40625,0.0,0.0,0.0
1695671721189,0.40234375,-0.76660156,0.7089844,71.75,10.84375,14.96875,-22.8125,-72.5625,-71.75
1695671721229,0.4873047,-0.4423828,0.6230469,41.71875,5.34375,-2.5,0.0,0.0,0.0
1695671721269,0.39746094,-0.54296875,0.7548828,15.78125,25.40625,5.9375,0.0,0.0,0.0
1695671721309,0.42578125,-0.5908203,0.8076172,25.53125,0.34375,-4.75,0.0,0.0,0.0
1695671721349,0.39941406,-0.43359375,0.7685547,19.0625,-28.59375,-25.25,0.0,0.0,0.0
1695671721389,0.38671875,-0.31933594,0.703125,2.09375,-29.625,-34.0,0.0,0.0,0.0
1695671721429,0.42773438,-0.3330078,0.7832031,-2.84375,-9.4375,-22.625,0.0,0.0,0.0
1695671721469,0.5361328,-0.3828125,0.9921875,-10.84375,1.90625,-19.28125,0.0,0.0,0.0
1695671721509,0.5253906,-0.359375,1.1806641,2.15625,3.5625,-28.1875,0.0,0.0,0.0
1695671721549,0.5517578,-0.2734375,1.1933594,39.28125,42.8125,-25.15625,0.0,0.0,0.0
1695671721589,0.51953125,-0.3046875,1.1435547,51.96875,65.46875,-13.25,0.0,0.0,0.0
1695671721629,0.4375,-0.20996094,1.1660156,57.625,97.375,0.625,0.0,0.0,0.0
1695671721669,0.33007812,-0.2265625,1.2265625,48.3125,106.59375,14.65625,-22.8125,-64.4375,-60.5
1695671721709,0.2919922,-0.2998047,1.1152344,58.25,100.625,13.5625,0.0,0.0,0.0
1695671721749,0.22363281,-0.20410156,1.0351562,62.28125,101.96875,7.625,0.0,0.0,0.0
1695671721789,0.16894531,-0.08496094,0.98339844,55.25,101.21875,6.28125,0.0,0.0,0.0
1695671721829,0.12792969,-0.08691406,0.93066406,38.59375,107.4375,10.125,0.0,0.0,0.0
1695671721869,0.02734375,-0.12402344,0.99316406,24.125,112.03125,2.1875,0.0,0.0,0.0
1695671721909,-0.07324219,-0.080078125,1.0224609,26.5625,96.03125,-14.34375,0.0,0.0,0.0
1695671721949,-0.16992188,-0.07714844,1.0224609,32.75,100.84375,-15.625,0.0,0.0,0.0
1695671721989,-0.27734375,0.026367188,0.984375,35.0,100.625,-14.03125,0.0,0.0,0.0
1695671722029,-0.36328125,0.041992188,0.9794922,23.34375,98.1875,-8.34375,0.0,0.0,0.0
1695671722069,-0.44140625,-0.0126953125,0.9277344,26.5,114.34375,1.40625,0.0,0.0,0.0
1695671722109,-0.4951172,0.028320312,0.92089844,22.96875,108.125,3.125,0.0,0.0,0.0
1695671722149,-0.52734375,0.026367188,0.8623047,22.53125,108.5625,5.4375,0.0,0.0,0.0
1695671722189,-0.5449219,0.044921875,0.8183594,22.78125,114.34375,9.03125,-57.3125,-48.5625,-64.5625
1695671722229,-0.5917969,0.034179688,0.8046875,26.3125,115.09375,13.0,0.0,0.0,0.0
1695671722269,-0.62402344,0.01171875,0.7451172,30.46875,115.875,13.8125,0.0,0.0,0.0
1695671722309,-0.6074219,0.053710938,0.7080078,32.78125,119.03125,13.8125,0.0,0.0,0.0
1695671722349,-0.64941406,0.06347656,0.6279297,19.96875,118.1875,9.96875,0.0,0.0,0.0
1695671722389,-0.6894531,0.046875,0.5517578,16.375,113.8125,6.59375,0.0,0.0,0.0
1695671722429,-0.7265625,0.052734375,0.5253906,27.0625,113.0,-1.21875,0.0,0.0,0.0
1695671722469,-0.73828125,0.017578125,0.48828125,27.1875,107.5,-3.90625,0.0,0.0,0.0
1695671722509,-0.75878906,-0.0126953125,0.38085938,32.96875,88.15625,-3.78125,0.0,0.0,0.0
1695671722549,-0.65234375,0.10644531,0.22851562,17.65625,82.71875,-11.28125,0.0,0.0,0.0
1695671722589,-0.7480469,0.203125,0.25195312,9.46875,81.8125,6.21875,0.0,0.0,0.0
1695671722629,-0.64453125,0.17675781,-0.001953125,12.78125,81.875,10.3125,0.0,0.0,0.0
1695671722669,-0.87597656,0.14257812,-0.068359375,18.75,72.34375,12.34375,-78.0,-42.6875,-92.3125
1695671722709,-1.1679688,0.20703125,-0.21679688,34.125,47.875,2.6875,0.0,0.0,0.0
1695671722749,-1.2480469,0.28710938,-0.2109375,34.125,26.59375,-1.65625,0.0,0.0,0.0
1695671722789,-1.0273438,0.45703125,-0.12695312,18.9375,3.8125,0.25,0.0,0.0,0.0
1695671722829,-0.94628906,0.36328125,-0.06738281,-30.1875,-5.34375,-5.1875,0.0,0.0,0.0
1695671722869,-0.9628906,0.18847656,-0.020507812,-46.125,-9.1875,-9.15625,0.0,0.0,0.0
1695671722909,-0.9941406,0.111328125,-0.0078125,-33.625,-4.65625,-8.25,0.0,0.0,0.0
1695671722949,-1.0058594,0.16015625,-0.017578125,-19.8125,-1.125,-2.6875,0.0,0.0,0.0
1695671722989,-0.99902344,0.21777344,-0.037109375,-17.6875,1.0625,-0.1875,0.0,0.0,0.0
1695671723029,-0.98828125,0.24316406,-0.046875,-24.625,0.28125,-0.90625,0.0,0.0,0.0
1695671723069,-1.0068359,0.21679688,-0.052734375,-31.65625,0.8125,-0.46875,0.0,0.0,0.0
1695671723109,-1.0322266,0.20410156,-0.091796875,-35.6875,-6.3125,0.96875,0.0,0.0,0.0
1695671723149,-1.0556641,0.265625,-0.040039062,-42.75,-19.8125,0.875,0.0,0.0,0.0
1695671723189,-1.0341797,0.24121094,-0.001953125,-51.375,-36.21875,10.375,-78.3125,-43.75,-97.375
1695671723229,-0.9873047,0.19921875,0.1171875,-59.625,-35.5,17.65625,0.0,0.0,0.0
1695671723269,-0.9814453,0.2109375,0.14550781,-50.03125,-16.375,24.71875,0.0,0.0,0.0
1695671723309,-0.8720703,0.21289062,0.10253906,-55.9375,4.0,26.96875,0.0,0.0,0.0
1695671723349,-0.9765625,0.24804688,0.08300781,-48.9375,10.09375,35.03125,0.0,0.0,0.0
1695671723389,-0.9589844,0.34277344,0.04296875,-45.75,20.09375,38.09375,0.0,0.0,0.0
1695671723429,-0.9160156,0.20800781,0.15136719,-59.125,24.9375,34.5,0.0,0.0,0.0
1695671723469,-0.88183594,0.39648438,0.043945312,-93.65625,45.25,21.25,0.0,0.0,0.0
1695671723509,-0.92089844,0.27441406,0.061523438,-118.5,42.3125,20.21875,0.0,0.0,0.0
1695671723549,-0.95214844,0.19433594,0.18066406,-150.625,43.90625,6.46875,0.0,0.0,0.0
1695671723589,-0.8886719,0.15625,0.22753906,-148.90625,44.46875,-2.8125,0.0,0.0,0.0
1695671723629,-1.1074219,0.234375,0.1953125,-137.5625,45.8125,-12.09375,0.0,0.0,0.0
1695671723669,-1.2890625,0.30078125,0.030273438,-127.40625,24.0,-13.125,-78.75,-37.75,-105.9375
1695671723709,-0.78515625,0.043945312,-0.115234375,-101.96875,27.0625,4.28125,0.0,0.0,0.0
1695671723749,-1.0244141,0.07714844,-0.0703125,-70.40625,13.28125,15.5625,0.0,0.0,0.0
1695671723789,-1.2578125,0.051757812,0.0029296875,-159.84375,18.8125,-8.46875,0.0,0.0,0.0
1695671723829,-0.9980469,0.15625,-0.038085938,-196.8125,34.09375,-21.46875,0.0,0.0,0.0
1695671723869,-1.0039062,0.1015625,-0.06640625,-216.84375,53.6875,-2.5625,0.0,0.0,0.0
1695671723909,-0.99316406,0.01953125,-0.11816406,-196.9375,46.34375,21.6875,0.0,0.0,0.0
1695671723949,-1.0341797,-0.01171875,-0.013671875,-185.40625,37.8125,17.53125,0.0,0.0,0.0
1695671723989,-1.0009766,0.05859375,-0.029296875,-201.53125,22.96875,3.46875,0.0,0.0,0.0
1695671724029,-1.0234375,0.0009765625,-0.103515625,-189.5,-11.3125,14.90625,0.0,0.0,0.0
1695671724069,-0.95410156,-0.2548828,-0.2841797,-152.5,-70.65625,51.15625,0.0,0.0,0.0
1695671724109,-1.1699219,0.15722656,0.20996094,-121.1875,-53.25,47.5,0.0,0.0,0.0
1695671724149,-0.9794922,0.26464844,0.20019531,-188.875,12.71875,51.6875,0.0,0.0,0.0
1695671724189,-0.8720703,0.21289062,0.25390625,-206.9375,28.15625,69.78125,-75.4375,-20.9375,-100.875
1695671724229,-0.8828125,0.0859375,0.1484375,-207.25,52.40625,67.5,0.0,0.0,0.0
1695671724269,-0.8798828,0.033203125,0.14941406,-177.09375,75.15625,56.03125,0.0,0.0,0.0
1695671724309,-0.9736328,0.09667969,0.23144531,-165.6875,81.8125,46.75,0.0,0.0,0.0
1695671724349,-0.9628906,0.3125,0.31640625,-203.90625,87.90625,22.34375,0.0,0.0,0.0
1695671724389,-1.2236328,0.2841797,0.32421875,-220.375,62.09375,18.8125,0.0,0.0,0.0
1695671724429,-1.1230469,0.09472656,0.00390625,-188.53125,16.75,22.84375,0.0,0.0,0.0
1695671724469,-0.7080078,-0.17089844,-0.13378906,-184.625,36.28125,6.84375,0.0,0.0,0.0
1695671724509,-1.0322266,0.11816406,0.038085938,-110.625,27.8125,5.75,0.0,0.0,0.0
1695671724549,-1.1455078,0.19238281,0.036132812,-171.90625,30.1875,11.25,0.0,0.0,0.0
1695671724589,-1.1220703,0.03125,-0.025390625,-238.9375,44.875,2.875,0.0,0.0,0.0
1695671724629,-0.93359375,-0.12792969,-0.020507812,-214.9375,50.03125,1.78125,0.0,0.0,0.0
1695671724669,-1.0351562,-0.01171875,-0.080078125,-172.84375,43.71875,12.28125,-73.1875,-20.6875,-87.0625
1695671724709,-1.0625,-0.0703125,0.09472656,-185.71875,44.15625,12.34375,0.0,0.0,0.0
1695671724749,-1.0517578,-0.087890625,0.02734375,-191.3125,35.0,8.5625,0.0,0.0,0.0
1695671724789,-0.98046875,0.028320312,0.038085938,-197.625,27.0625,2.4375,0.0,0.0,0.0
1695671724829,-1.0703125,-0.1640625,-0.04296875,-190.53125,12.125,25.75,0.0,0.0,0.0
1695671724869,-1.0195312,-0.09765625,-0.23925781,-171.4375,-26.09375,38.46875,0.0,0.0,0.0
1695671724909,-1.0146484,0.20703125,0.09863281,-151.71875,-57.15625,48.28125,0.0,0.0,0.0
1695671724949,-1.0205078,0.12011719,0.099609375,-178.09375,-29.9375,53.53125,0.0,0.0,0.0
1695671724989,-0.9814453,0.03125,0.12109375,-173.9375,4.71875,57.25,0.0,0.0,0.0
1695671725029,-0.9345703,0.16601562,0.13964844,-197.4375,29.03125,54.3125,0.0,0.0,0.0
1695671725069,-0.89160156,0.10449219,0.11328125,-184.65625,47.625,62.3125,0.0,0.0,0.0
1695671725109,-1.0107422,0.03515625,0.13964844,-173.0625,73.21875,56.875,0.0,0.0,0.0
1695671725149,-0.92578125,0.1015625,0.13574219,-191.25,95.90625,40.34375,0.0,0.0,0.0
1695671725189,-1.1025391,0.21386719,0.08984375,-178.15625,105.75,29.3125,-76.1875,-39.25,-83.75
1695671725229,-1.2763672,0.1640625,0.14648438,-208.09375,74.4375,-7.5625,0.0,0.0,0.0
1695671725269,-1.1416016,0.07324219,-0.009765625,-184.125,36.15625,-20.625,0.0,0.0,0.0
1695671725309,-0.82714844,-0.12695312,-0.07421875,-125.84375,24.375,-9.875,0.0,0.0,0.0
1695671725349,-1.0732422,0.17285156,-0.029296875,-107.21875,1.84375,17.46875,0.0,0.0,0.0
1695671725389,-1.1513672,0.030273438,-0.0146484375,-178.1875,17.0625,11.46875,0.0,0.0,0.0
1695671725429,-1.0576172,-0.043945312,-0.06542969,-200.40625,18.53125,-1.53125,0.0,0.0,0.0
1695671725469,-0.94433594,-0.041015625,0.018554688,-193.71875,32.875,-0.78125,0.0,0.0,0.0
1695671725509,-1.0908203,-0.047851562,0.06640625,-178.25,12.59375,11.71875,0.0,0.0,0.0
1695671725549,-1.0732422,0.0126953125,0.013671875,-177.21875,15.59375,19.78125,0.0,0.0,0.0
1695671725589,-1.0087891,-0.024414062,-0.02734375,-177.28125,14.375,24.65625,0.0,0.0,0.0
1695671725629,-1.015625,-0.13769531,-0.09863281,-136.625,-12.59375,32.0,0.0,0.0,0.0
1695671725669,-1.0888672,0.021484375,-0.0546875,-90.25,-27.1875,29.125,-79.0625,-40.625,-106.25
1695671725709,-1.0087891,0.24804688,0.107421875,-119.4375,-20.28125,39.1875,0.0,0.0,0.0
1695671725749,-0.92578125,0.2578125,0.2607422,-169.09375,-4.0625,42.71875,0.0,0.0,0.0
1695671725789,-0.9433594,0.13085938,0.19140625,-194.875,5.09375,51.65625,0.0,0.0,0.0
1695671725829,-0.84472656,-0.026367188,0.21679688,-157.625,26.9375,73.4375,0.0,0.0,0.0
1695671725869,-0.8310547,0.032226562,0.1953125,-150.125,52.03125,62.25,0.0,0.0,0.0
1695671725909,-0.9824219,0.13671875,0.34179688,-137.5625,70.71875,52.5,0.0,0.0,0.0
1695671725949,-0.97558594,0.31152344,0.115234375,-157.09375,100.6875,41.5625,0.0,0.0,0.0
1695671725989,-0.984375,0.25195312,0.2705078,-213.65625,103.1875,12.15625,0.0,0.0,0.0
1695671726029,-1.3457031,0.17871094,0.35742188,-240.65625,80.46875,2.625,0.0,0.0,0.0
1695671726069,-1.1210938,-0.044921875,0.029296875,-197.375,49.65625,-15.5,0.0,0.0,0.0
1695671726109,-0.56347656,-0.09375,-0.25,-98.78125,22.96875,1.40625,0.0,0.0,0.0
1695671726149,-1.2822266,0.12207031,0.07714844,-59.0625,1.625,10.1875,0.0,0.0,0.0
1695671726189,-1.1845703,0.13671875,-0.060546875,-190.21875,25.90625,-3.15625,-74.125,-19.1875,-108.375
1695671726229,-0.9980469,-0.018554688,-0.09277344,-229.84375,34.28125,-9.5625,0.0,0.0,0.0
1695671726269,-0.9736328,-0.021484375,-0.0068359375,-187.40625,27.3125,10.375,0.0,0.0,0.0
1695671726309,-1.0263672,-0.07910156,-0.06542969,-156.40625,19.5,21.0625,0.0,0.0,0.0
1695671726349,-1.0507812,-0.005859375,0.05078125,-187.34375,20.96875,10.875,0.0,0.0,0.0
1695671726389,-0.9921875,0.0859375,0.018554688,-198.84375,11.875,17.28125,0.0,0.0,0.0
1695671726429,-1.1220703,-0.068359375,-0.05859375,-191.03125,-0.03125,32.96875,0.0,0.0,0.0
1695671726469,-1.0351562,-0.06738281,-0.20800781,-168.0,-29.9375,49.4375,0.0,0.0,0.0
1695671726509,-0.984375,0.15527344,0.19824219,-166.1875,-40.8125,52.875,0.0,0.0,0.0
1695671726549,-1.0195312,0.16601562,0.13964844,-206.65625,-6.25,64.34375,0.0,0.0,0.0
1695671726589,-0.8701172,0.09765625,0.17871094,-219.59375,23.09375,67.09375,0.0,0.0,0.0
1695671726629,-0.9326172,0.001953125,0.078125,-222.15625,34.21875,63.46875,0.0,0.0,0.0
1695671726669,-0.9355469,-0.03515625,0.140625,-200.53125,67.28125,67.875,-69.4375,-19.75,-81.375
1695671726709,-1.0908203,0.15136719,0.33789062,-191.6875,71.25,63.1875,0.0,0.0,0.0
1695671726749,-1.0185547,0.23535156,0.1953125,-188.5625,76.6875,61.46875,0.0,0.0,0.0
1695671726789,-0.86328125,0.17675781,0.16699219,-190.46875,98.65625,50.53125,0.0,0.0,0.0
1695671726829,-0.95703125,0.20703125,0.17285156,-201.75,91.75,26.375,0.0,0.0,0.0
1695671726869,-1.1474609,0.119140625,0.15234375,-191.15625,58.5625,11.0625,0.0,0.0,0.0
1695671726909,-1.1542969,-0.046875,-0.16113281,-170.8125,33.21875,-14.71875,0.0,0.0,0.0
1695671726949,-1.0019531,0.06933594,-0.025390625,-151.09375,20.21875,-8.78125,0.0,0.0,0.0
1695671726989,-0.96875,0.15039062,-0.12109375,-204.625,26.28125,8.1875,0.0,0.0,0.0
1695671727029,-1.1669922,-0.046875,0.005859375,-225.1875,36.03125,13.1875,0.0,0.0,0.0
1695671727069,-1.1015625,-0.1953125,-0.0703125,-222.9375,43.59375,7.5625,0.0,0.0,0.0
1695671727109,-1.0195312,-0.033203125,0.049804688,-186.3125,40.96875,14.78125,0.0,0.0,0.0
1695671727149,-1.046875,-0.03125,0.076171875,-165.875,36.84375,18.4375,0.0,0.0,0.0
1695671727189,-1.0146484,-0.005859375,0.020507812,-166.25,42.75,15.625,-77.125,-43.3125,-87.375
1695671727229,-0.9824219,-0.08203125,0.07421875,-162.75,44.53125,23.8125,0.0,0.0,0.0
1695671727269,-1.1103516,-0.10253906,-0.022460938,-141.875,12.0,34.0,0.0,0.0,0.0
1695671727309,-0.95703125,0.07128906,0.044921875,-97.6875,-32.25,47.84375,0.0,0.0,0.0
1695671727349,-1.0400391,0.19824219,0.19238281,-131.875,-20.96875,28.875,0.0,0.0,0.0
1695671727389,-0.984375,0.051757812,0.10449219,-109.84375,-31.40625,19.53125,0.0,0.0,0.0
1695671727429,-0.99609375,0.21777344,0.45410156,-83.0625,-25.1875,26.90625,0.0,0.0,0.0
1695671727469,-0.90722656,0.19921875,0.32226562,-98.6875,0.09375,28.625,0.0,0.0,0.0
1695671727509,-0.828125,0.0107421875,0.28515625,-94.03125,18.09375,18.8125,0.0,0.0,0.0
1695671727549,-0.9238281,0.17382812,0.2841797,-52.15625,21.15625,12.28125,0.0,0.0,0.0
1695671727589,-0.8574219,0.21875,0.3154297,-47.09375,33.21875,5.5,0.0,0.0,0.0
1695671727629,-0.9238281,0.17480469,0.29785156,-51.84375,38.3125,0.4375,0.0,0.0,0.0
1695671727669,-1.0146484,0.16503906,0.29492188,-39.59375,44.28125,-0.78125,-78.875,-42.5625,-97.25
1695671727709,-1.0664062,0.16699219,0.25683594,-33.0,31.03125,-6.03125,0.0,0.0,0.0
1695671727749,-0.98535156,0.08300781,0.23535156,-13.34375,12.46875,-6.03125,0.0,0.0,0.0
1695671727789,-0.94140625,0.036132812,0.18554688,14.96875,1.25,-12.75,0.0,0.0,0.0
1695671727829,-1.0302734,0.07421875,0.12109375,45.5,-4.25,-16.59375,0.0,0.0,0.0
1695671727869,-1.0273438,0.16503906,0.16308594,59.34375,-11.9375,-12.03125,0.0,0.0,0.0
1695671727909,-1.0117188,0.0068359375,0.16210938,72.40625,-6.625,-8.25,0.0,0.0,0.0
1695671727949,-0.9736328,0.0107421875,0.11425781,86.15625,-1.6875,-6.34375,0.0,0.0,0.0
1695671727989,-1.0439453,-0.036132812,0.107421875,124.03125,-4.625,-1.21875,0.0,0.0,0.0
1695671728029,-1.0615234,-0.037109375,0.13671875,129.0,-8.6875,-14.9375,0.0,0.0,0.0
1695671728069,-1.0302734,0.0048828125,0.12011719,129.78125,-3.9375,-15.125,0.0,0.0,0.0
1695671728109,-1.0234375,-0.09277344,0.06542969,150.21875,-5.96875,-5.5625,0.0,0.0,0.0
1695671728149,-1.0087891,-0.020507812,0.016601562,163.15625,-7.28125,-1.28125,0.0,0.0,0.0
1695671728189,-1.0625,-0.017578125,-0.029296875,154.0625,-10.40625,7.09375,-78.3125,-43.4375,-93.0625
1695671728229,-1.0742188,-0.056640625,-0.09667969,159.75,-24.5625,6.84375,0.0,0.0,0.0
1695671728269,-1.0722656,0.0087890625,-0.11035156,160.84375,-48.125,1.03125,0.0,0.0,0.0
1695671728309,-1.0478516,0.14941406,-0.19042969,159.5,-72.71875,-20.875,0.0,0.0,0.0
1695671728349,-1.2265625,0.37109375,0.107421875,136.9375,-114.40625,-36.90625,0.0,0.0,0.0
1695671728389,-0.94628906,0.1484375,0.27148438,148.46875,-147.375,-10.0,0.0,0.0,0.0
1695671728429,-1.1328125,0.083984375,0.22460938,142.90625,-100.1875,-22.9375,0.0,0.0,0.0
1695671728469,-0.9394531,0.068359375,0.29296875,190.6875,-80.1875,-44.71875,0.0,0.0,0.0
1695671728509,-0.8466797,0.03515625,0.23046875,188.375,-59.71875,-60.71875,0.0,0.0,0.0
1695671728549,-0.98339844,0.068359375,0.20214844,188.625,-29.4375,-80.0625,0.0,0.0,0.0
1695671728589,-1.0732422,0.087890625,0.25390625,167.0625,-10.53125,-83.625,0.0,0.0,0.0
1695671728629,-0.89746094,0.14648438,0.11328125,156.75,-7.34375,-92.71875,0.0,0.0,0.0
1695671728669,-0.6015625,0.15039062,0.13183594,153.34375,5.71875,-71.28125,-71.5625,-28.3125,-76.6875
1695671728709,-0.8652344,0.25097656,-0.015625,95.1875,40.0,-36.96875,0.0,0.0,0.0
1695671728749,-1.7832031,0.2841797,-0.016601562,141.875,31.65625,10.625,0.0,0.0,0.0
1695671728789,-1.03125,-0.28125,0.08300781,148.03125,1.8125,-14.21875,0.0,0.0,0.0
1695671728829,-0.7578125,-0.42285156,0.029296875,181.65625,24.25,-31.0,0.0,0.0,0.0
1695671728869,-1.0927734,-0.15820312,0.030273438,237.21875,-16.15625,-20.75,0.0,0.0,0.0
1695671728909,-1.0410156,0.20410156,0.01953125,214.75,-4.90625,-21.96875,0.0,0.0,0.0
1695671728949,-1.0078125,0.0546875,0.009765625,163.0,0.625,-9.34375,0.0,0.0,0.0
1695671728989,-1.0175781,-0.04296875,-0.005859375,174.03125,-10.03125,2.9375,0.0,0.0,0.0
1695671729029,-1.0126953,-0.12207031,-0.036132812,185.5,-12.96875,9.40625,0.0,0.0,0.0
1695671729069,-1.0712891,-0.08886719,-0.09375,179.90625,-7.0,6.21875,0.0,0.0,0.0
1695671729109,-1.0751953,-0.0009765625,-0.13085938,174.03125,-26.28125,-5.78125,0.0,0.0,0.0
1695671729149,-1.0791016,0.18945312,-0.05078125,173.90625,-50.25,-14.28125,0.0,0.0,0.0
1695671729189,-1.3046875,0.3515625,0.14941406,146.1875,-110.75,-26.1875,-70.9375,-14.9375,-100.875
1695671729229,-1.1279297,0.2109375,0.0546875,153.71875,-125.71875,-32.53125,0.0,0.0,0.0
1695671729269,-0.9746094,0.091796875,0.2578125,155.46875,-108.6875,-27.65625,0.0,0.0,0.0
1695671729309,-1.0078125,0.053710938,0.11230469,199.59375,-91.71875,-31.375,0.0,0.0,0.0
1695671729349,-0.9091797,0.0390625,0.16210938,190.28125,-71.9375,-46.0625,0.0,0.0,0.0
1695671729389,-0.8457031,0.09277344,0.18066406,179.03125,-46.0,-65.96875,0.0,0.0,0.0
1695671729429,-0.9941406,0.107421875,0.15234375,155.84375,-15.34375,-64.5,0.0,0.0,0.0
1695671729469,-0.94921875,0.015625,0.20019531,146.75,-10.09375,-67.9375,0.0,0.0,0.0
1695671729509,-0.7890625,0.115234375,0.028320312,144.90625,19.9375,-76.84375,0.0,0.0,0.0
1695671729549,-1.0136719,0.20507812,-0.0107421875,108.96875,3.03125,-40.28125,0.0,0.0,0.0
1695671729589,-1.1435547,0.50097656,0.016601562,165.65625,29.15625,1.96875,0.0,0.0,0.0
1695671729629,-1.203125,-0.23144531,-0.016601562,130.6875,-10.65625,20.875,0.0,0.0,0.0
1695671729669,-0.9394531,-0.11230469,0.17480469,187.65625,24.0625,-37.09375,-78.0,-28.3125,-109.6875
1695671729709,-0.8935547,0.020507812,0.09863281,205.09375,0.9375,-18.78125,0.0,0.0,0.0
1695671729749,-1.0654297,0.0625,0.08984375,205.90625,-11.75,-8.84375,0.0,0.0,0.0
1695671729789,-1.0966797,0.032226562,0.076171875,162.9375,3.875,-2.1875,0.0,0.0,0.0
1695671729829,-0.99902344,-0.06347656,0.001953125,157.1875,-0.09375,4.59375,0.0,0.0,0.0
1695671729869,-1.0058594,-0.083984375,-0.0009765625,166.40625,-16.625,11.71875,0.0,0.0,0.0
1695671729909,-1.0761719,-0.0625,-0.049804688,164.875,-10.65625,8.96875,0.0,0.0,0.0
1695671729949,-1.0859375,-0.009765625,-0.1328125,155.53125,-26.03125,1.34375,0.0,0.0,0.0
1695671729989,-1.1484375,0.125,-0.26464844,157.25,-57.78125,-15.25,0.0,0.0,0.0
1695671730029,-0.9921875,0.5019531,0.043945312,132.28125,-74.3125,-36.625,0.0,0.0,0.0
1695671730069,-1.0673828,0.26171875,0.095703125,121.65625,-111.25,-15.875,0.0,0.0,0.0
1695671730109,-1.0527344,0.16210938,0.34179688,123.5625,-110.09375,-6.71875,0.0,0.0,0.0
1695671730149,-1.1044922,0.016601562,0.35351562,148.6875,-97.4375,-20.5625,0.0,0.0,0.0
1695671730189,-0.88671875,0.11035156,0.22070312,145.78125,-81.21875,-44.625,-74.6875,-41.5,-89.75
1695671730229,-0.8183594,0.12597656,0.19824219,157.84375,-53.8125,-63.59375,0.0,0.0,0.0
1695671730269,-0.96875,-0.0087890625,0.29003906,161.09375,-26.59375,-63.09375,0.0,0.0,0.0
1695671730309,-1.0009766,0.06933594,0.21386719,158.78125,-12.59375,-78.0625,0.0,0.0,0.0
1695671730349,-0.7988281,0.22167969,0.13867188,165.375,-5.15625,-79.59375,0.0,0.0,0.0
1695671730389,-0.8300781,0.013671875,0.046875,119.21875,-15.21875,-37.53125,0.0,0.0,0.0
1695671730429,-1.1757812,0.4736328,-0.076171875,138.5,57.34375,-16.84375,0.0,0.0,0.0
1695671730469,-1.4091797,0.0546875,0.05078125,209.96875,-34.21875,37.53125,0.0,0.0,0.0
1695671730509,-0.7636719,-0.049804688,0.28808594,152.71875,3.1875,-32.09375,0.0,0.0,0.0
1695671730549,-0.8886719,-0.0703125,0.13964844,128.3125,14.625,-37.34375,0.0,0.0,0.0
1695671730589,-1.1298828,-0.1484375,0.10253906,188.0,-9.96875,-17.875,0.0,0.0,0.0
1695671730629,-1.0615234,0.08105469,0.07714844,186.90625,9.5625,-10.375,0.0,0.0,0.0
1695671730669,-0.9980469,0.005859375,-0.01171875,182.625,-4.96875,0.375,-74.875,-30.125,-82.875
1695671730709,-0.9824219,-0.0234375,-0.0126953125,169.6875,-8.28125,5.375,0.0,0.0,0.0
1695671730749,-1.1123047,-0.11230469,-0.05859375,164.75,2.46875,2.4375,0.0,0.0,0.0
1695671730789,-1.1152344,-0.05859375,-0.13476562,166.9375,-12.53125,1.28125,0.0,0.0,0.0
1695671730829,-1.2050781,0.0625,-0.33203125,167.0,-54.15625,-10.5,0.0,0.0,0.0
1695671730869,-0.9345703,0.4375,-0.078125,145.21875,-96.96875,-39.53125,0.0,0.0,0.0
1695671730909,-0.8847656,0.40625,0.2734375,134.25,-99.34375,-28.125,0.0,0.0,0.0
1695671730949,-1.2597656,0.20996094,0.27929688,127.875,-120.53125,-15.125,0.0,0.0,0.0
1695671730989,-1.1777344,0.05078125,0.24121094,145.59375,-96.46875,-12.25,0.0,0.0,0.0
1695671731029,-0.82910156,0.08203125,0.25195312,137.46875,-76.28125,-42.84375,0.0,0.0,0.0
1695671731069,-0.82128906,0.09765625,0.23925781,126.84375,-38.96875,-56.40625,0.0,0.0,0.0
1695671731109,-0.80078125,0.087890625,0.23632812,157.0,-20.125,-77.375,0.0,0.0,0.0
1695671731149,-0.78222656,0.016601562,0.25976562,147.90625,-5.15625,-77.3125,0.0,0.0,0.0
1695671731189,-0.73535156,0.20703125,0.09375,139.90625,0.9375,-55.78125,-71.125,-18.5625,-86.75
1695671731229,-1.7236328,0.4765625,-0.068359375,135.21875,12.0,-9.5625,0.0,0.0,0.0
1695671731269,-0.9765625,0.11230469,0.17089844,157.84375,-5.71875,17.21875,0.0,0.0,0.0
1695671731309,-0.98828125,-0.22265625,0.12402344,138.15625,23.28125,-20.75,0.0,0.0,0.0
1695671731349,-1.0009766,-0.125,0.10546875,186.1875,13.6875,-16.21875,0.0,0.0,0.0
1695671731389,-1.0,-0.11035156,0.08984375,191.25,1.5625,-21.46875,0.0,0.0,0.0
1695671731429,-1.0410156,0.032226562,0.103515625,192.53125,-2.09375,-14.40625,0.0,0.0,0.0
1695671731469,-0.9628906,0.033203125,-0.032226562,197.71875,-13.09375,-7.25,0.0,0.0,0.0
1695671731509,-1.0175781,0.064453125,0.068359375,213.875,-22.25,1.84375,0.0,0.0,0.0
1695671731549,-1.0810547,-0.087890625,-0.01953125,189.15625,-22.3125,1.09375,0.0,0.0,0.0
1695671731589,-1.0878906,-0.15722656,-0.10839844,183.3125,-24.5625,-3.90625,0.0,0.0,0.0
1695671731629,-1.0917969,-0.09667969,-0.12207031,189.28125,-30.1875,-1.875,0.0,0.0,0.0
1695671731669,-1.0605469,0.041992188,-0.25,190.28125,-54.78125,-0.59375,-72.75,-21.5625,-113.75
1695671731709,-1.0820312,0.103515625,-0.2919922,202.0625,-74.375,-17.375,0.0,0.0,0.0
1695671731749,-1.0117188,0.4951172,0.10546875,149.4375,-79.375,-29.09375,0.0,0.0,0.0
1695671731789,-1.0380859,0.25195312,0.15332031,161.53125,-135.71875,-12.6875,0.0,0.0,0.0
1695671731829,-0.99316406,0.059570312,0.2548828,152.5625,-115.09375,-26.65625,0.0,0.0,0.0
1695671731869,-1.0087891,0.08203125,0.18847656,160.1875,-91.46875,-51.5,0.0,0.0,0.0
1695671731909,-0.9550781,0.083984375,0.21582031,166.65625,-61.5625,-56.4375,0.0,0.0,0.0
1695671731949,-0.8330078,0.12890625,0.20117188,173.59375,-29.875,-64.5625,0.0,0.0,0.0
1695671731989,-0.9316406,0.076171875,0.171875,154.6875,2.65625,-69.15625,0.0,0.0,0.0
1695671732029,-1.0869141,0.13378906,0.20117188,155.59375,0.6875,-63.03125,0.0,0.0,0.0
1695671732069,-0.85058594,0.2841797,0.087890625,151.375,9.65625,-69.15625,0.0,0.0,0.0
1695671732109,-0.77441406,0.11816406,0.20507812,133.6875,-6.25,-40.34375,0.0,0.0,0.0
1695671732149,-0.93652344,0.25976562,-0.0146484375,92.0625,12.84375,-25.375,0.0,0.0,0.0
1695671732189,-1.4794922,0.24023438,0.0078125,145.59375,22.1875,12.6875,-78.625,-45.125,-100.375
1695671732229,-1.0136719,-0.05859375,-0.030273438,123.9375,-10.09375,4.53125,0.0,0.0,0.0
1695671732269,-0.84472656,-0.03515625,0.038085938,112.21875,5.46875,-13.96875,0.0,0.0,0.0
1695671732309,-1.1064453,0.021484375,0.14941406,103.34375,-7.0,-14.28125,0.0,0.0,0.0
1695671732349,-1.0117188,0.1484375,0.06738281,87.0,4.25,-18.0,0.0,0.0,0.0
1695671732389,-1.03125,0.020507812,0.09765625,73.875,12.25,-10.75,0.0,0.0,0.0
1695671732429,-1.0078125,0.076171875,0.01171875,65.09375,7.71875,-1.40625,0.0,0.0,0.0
1695671732469,-1.0029297,0.13574219,-0.0126953125,64.03125,11.6875,8.5,0.0,0.0,0.0
1695671732509,-1.0166016,0.15820312,-0.080078125,47.9375,8.875,7.375,0.0,0.0,0.0
1695671732549,-1.0117188,0.23828125,-0.15820312,40.3125,-17.3125,9.71875,0.0,0.0,0.0
1695671732589,-0.9511719,0.31640625,-0.18066406,21.8125,-49.65625,3.375,0.0,0.0,0.0
1695671732629,-0.5673828,0.18164062,0.07324219,0.3125,-105.0625,-5.96875,0.0,0.0,0.0
1695671732669,-0.3154297,-0.21875,0.41601562,-4.0,-100.3125,-18.1875,-76.9375,-43.75,-90.9375
1695671732709,-0.91796875,-0.13671875,0.51953125,-33.96875,-104.65625,-38.15625,0.0,0.0,0.0
1695671732749,-0.8339844,0.038085938,0.7558594,71.6875,-124.84375,-28.625,0.0,0.0,0.0
1695671732789,-0.8388672,0.2578125,0.9589844,-12.5625,-84.625,-47.90625,0.0,0.0,0.0
1695671732829,-1.4130859,-0.037109375,0.84765625,-11.46875,-72.3125,-3.53125,0.0,0.0,0.0
1695671732869,-1.7626953,0.12011719,1.0429688,11.125,2.71875,0.4375,0.0,0.0,0.0
1695671732909,-1.8134766,0.22753906,1.0527344,13.15625,91.03125,16.0625,0.0,0.0,0.0
1695671732949,-1.796875,0.16113281,0.7324219,13.3125,164.46875,23.25,0.0,0.0,0.0
1695671732989,-1.6914062,0.38183594,0.08984375,-25.4375,219.5625,21.5625,0.0,0.0,0.0
1695671733029,-0.9794922,0.2529297,-0.12792969,3.1875,119.28125,28.75,0.0,0.0,0.0
1695671733069,-0.21582031,0.119140625,-0.15136719,-5.09375,74.4375,18.125,0.0,0.0,0.0
1695671733109,0.31152344,0.13671875,-0.09375,18.09375,30.59375,21.96875,0.0,0.0,0.0
1695671733149,0.0048828125,-0.025390625,-0.05078125,4.71875,-6.625,22.09375,0.0,0.0,0.0
1695671733189,-0.24121094,0.029296875,-0.05078125,4.125,-27.375,7.875,-79.1875,-42.875,-92.125
1695671733229,-0.125,0.06738281,-0.055664062,1.71875,-53.75,-4.21875,0.0,0.0,0.0
1695671733269,-0.033203125,0.013671875,-0.09472656,-3.34375,-70.90625,-10.0625,0.0,0.0,0.0
1695671733309,-0.2919922,0.052734375,0.265625,-9.875,-111.125,-29.09375,0.0,0.0,0.0
1695671733349,-1.6347656,0.04296875,0.4716797,-3.46875,-177.09375,-54.5625,0.0,0.0,0.0
1695671733389,-1.2451172,0.13769531,0.73339844,8.5,-123.4375,-55.78125,0.0,0.0,0.0
1695671733429,-1.5498047,0.4013672,0.6015625,-31.59375,-37.03125,-3.09375,0.0,0.0,0.0
1695671733469,-1.7763672,0.07128906,1.2109375,-22.1875,-20.40625,11.90625,0.0,0.0,0.0
1695671733509,-2.0,-0.19726562,1.1806641,18.34375,-12.1875,8.6875,0.0,0.0,0.0
1695671733549,-1.890625,0.18164062,1.1582031,21.75,84.25,18.625,0.0,0.0,0.0
1695671733589,-1.9013672,0.46777344,0.7363281,2.46875,141.03125,31.6875,0.0,0.0,0.0
1695671733629,-1.5556641,0.3486328,0.21484375,14.1875,158.71875,54.8125,0.0,0.0,0.0
1695671733669,-0.70214844,0.10546875,0.055664062,-20.96875,132.46875,33.875,-76.625,-44.8125,-88.875
1695671733709,0.17285156,-0.12890625,-0.05078125,-53.25,93.40625,21.90625,0.0,0.0,0.0
1695671733749,0.2861328,0.056640625,-0.36035156,5.6875,29.3125,23.375,0.0,0.0,0.0
1695671733789,-0.0703125,-0.048828125,0.12695312,14.71875,-12.96875,8.90625,0.0,0.0,0.0
1695671733829,-0.26953125,-0.048828125,0.1171875,4.0,-31.78125,-10.90625,0.0,0.0,0.0
1695671733869,-0.00390625,0.15625,-0.23339844,2.28125,-37.75,-10.1875,0.0,0.0,0.0
1695671733909,0.0546875,0.025390625,-0.15722656,25.96875,-44.84375,1.28125,0.0,0.0,0.0
1695671733949,-0.107421875,0.087890625,-0.052734375,-4.5,-51.90625,-7.625,0.0,0.0,0.0
1695671733989,-0.8876953,-0.05859375,-0.040039062,-30.5625,-116.96875,-64.8125,0.0,0.0,0.0
1695671734029,-2.0,0.6855469,1.4658203,12.78125,-212.0,-56.34375,0.0,0.0,0.0
1695671734069,-0.07421875,-0.23339844,0.44726562,8.1875,-91.78125,-19.21875,0.0,0.0,0.0
1695671734109,-1.9755859,0.23535156,1.2841797,-2.3125,-91.46875,5.5,0.0,0.0,0.0
1695671734149,-1.7685547,0.022460938,1.3486328,-58.625,-33.90625,-1.46875,0.0,0.0,0.0
1695671734189,-1.5771484,-0.1484375,1.3818359,-2.71875,64.0,10.75,-68.875,-48.125,-74.625
1695671734229,-1.8925781,-0.013671875,1.2480469,14.4375,108.71875,23.125,0.0,0.0,0.0
1695671734269,-2.0,0.4375,0.55078125,32.25,157.5,46.21875,0.0,0.0,0.0
1695671734309,-1.3046875,0.29882812,0.20703125,80.71875,145.53125,20.03125,0.0,0.0,0.0
1695671734349,-0.40234375,0.32128906,-0.15527344,1.53125,170.6875,-4.9375,0.0,0.0,0.0
1695671734389,0.11035156,0.10546875,-0.22363281,-19.3125,86.46875,4.9375,0.0,0.0,0.0
1695671734429,0.15332031,0.15136719,-0.203125,7.09375,12.46875,23.8125,0.0,0.0,0.0
1695671734469,-0.109375,-0.026367188,-0.0087890625,10.875,-4.5625,6.65625,0.0,0.0,0.0
1695671734509,-0.12792969,-0.08203125,0.055664062,1.0,-30.0,-22.21875,0.0,0.0,0.0
1695671734549,-0.0546875,-0.09667969,-0.09082031,-7.5625,-42.34375,-24.09375,0.0,0.0,0.0
1695671734589,-0.04296875,-0.0087890625,-0.099609375,3.3125,-30.96875,-17.21875,0.0,0.0,0.0
1695671734629,-0.23925781,0.0234375,-0.0625,-4.375,-16.09375,-12.3125,0.0,0.0,0.0
1695671734669,-0.6542969,0.09472656,0.043945312,-7.59375,-92.5,-43.03125,-79.1875,-44.375,-91.875
1695671734709,-2.0,0.6777344,0.72558594,57.09375,-235.3125,-42.96875,0.0,0.0,0.0
1695671734749,0.041015625,0.46191406,0.85546875,-28.90625,-166.0625,-52.65625,0.0,0.0,0.0
1695671734789,-2.0,0.16796875,1.4365234,-78.46875,-98.59375,12.40625,0.0,0.0,0.0
1695671734829,-1.2832031,-0.40820312,1.0654297,-22.375,-77.90625,-1.75,0.0,0.0,0.0
1695671734869,-1.5351562,0.18652344,1.1328125,37.375,-6.625,-1.03125,0.0,0.0,0.0
1695671734909,-1.4775391,0.06640625,1.3085938,-0.09375,56.3125,9.03125,0.0,0.0,0.0
1695671734949,-1.6542969,0.091796875,1.1552734,-2.25,114.28125,42.0,0.0,0.0,0.0
1695671734989,-1.8330078,0.06738281,0.61328125,49.46875,169.9375,54.375,0.0,0.0,0.0
1695671735029,-1.2128906,0.296875,0.017578125,56.84375,202.125,5.6875,0.0,0.0,0.0
1695671735069,-0.52441406,0.0625,-0.00390625,42.75,149.75,27.09375,0.0,0.0,0.0
1695671735109,0.00390625,0.16601562,-0.23828125,22.40625,102.03125,20.625,0.0,0.0,0.0
1695671735149,0.08984375,0.00390625,-0.044921875,8.4375,-21.75,2.09375,0.0,0.0,0.0
1695671735189,-0.15527344,0.08203125,0.13378906,24.6875,-46.1875,-2.25,-79.625,-42.875,-96.1875
1695671735229,0.0126953125,-0.087890625,-0.068359375,12.34375,3.09375,-16.53125,0.0,0.0,0.0
1695671735269,-0.06542969,-0.009765625,-0.0087890625,2.03125,-20.40625,-14.40625,0.0,0.0,0.0
1695671735309,-0.13476562,-0.041015625,0.076171875,-10.125,-19.875,-12.8125,0.0,0.0,0.0
1695671735349,-0.21875,-0.06542969,0.01171875,28.875,-58.9375,-16.59375,0.0,0.0,0.0
1695671735389,-1.0371094,0.107421875,0.3330078,14.96875,-105.1875,-49.0625,0.0,0.0,0.0
1695671735429,-2.0,-0.109375,-0.35839844,108.53125,-108.0,-28.8125,0.0,0.0,0.0
1695671735469,-1.1621094,0.22070312,0.6621094,2.65625,-115.09375,-2.4375,0.0,0.0,0.0
1695671735509,-1.7431641,0.27734375,0.5419922,-5.21875,-44.40625,3.0,0.0,0.0,0.0
1695671735549,-1.6113281,0.22460938,0.5410156,-31.78125,-45.125,-5.96875,0.0,0.0,0.0
1695671735589,-1.4677734,0.08203125,0.6308594,-54.1875,33.65625,7.15625,0.0,0.0,0.0
1695671735629,-1.1171875,-0.05859375,0.5029297,0.625,27.1875,9.90625,0.0,0.0,0.0
1695671735669,-1.0029297,0.10644531,0.4501953,12.65625,51.0625,14.34375,-73.1875,-47.5,-79.5625
1695671735709,-0.88183594,0.18359375,0.39257812,3.4375,59.40625,22.15625,0.0,0.0,0.0
1695671735749,-0.76953125,0.09667969,0.3154297,-5.21875,63.4375,25.03125,0.0,0.0,0.0
1695671735789,-0.75390625,0.047851562,0.25195312,-23.0,72.78125,17.78125,0.0,0.0,0.0
1695671735829,-0.78515625,0.087890625,0.27246094,-18.65625,70.21875,15.6875,0.0,0.0,0.0
1695671735869,-0.83691406,0.09765625,0.17675781,-27.09375,69.71875,11.28125,0.0,0.0,0.0
1695671735909,-0.9589844,0.087890625,0.1015625,-24.625,61.5,6.90625,0.0,0.0,0.0
1695671735949,-0.9814453,0.16015625,0.099609375,-19.3125,57.21875,10.5,0.0,0.0,0.0
1695671735989,-0.94921875,0.14648438,0.016601562,-15.96875,42.9375,11.0625,0.0,0.0,0.0
1695671736029,-0.90527344,0.09667969,-0.041015625,1.1875,28.84375,11.28125,0.0,0.0,0.0
1695671736069,-0.9892578,0.14453125,-0.06542969,6.3125,25.125,6.40625,0.0,0.0,0.0
1695671736109,-1.0703125,0.19726562,-0.06933594,1.59375,13.03125,-1.59375,0.0,0.0,0.0
1695671736149,-1.0439453,0.20410156,-0.053710938,-13.71875,-0.03125,-6.15625,0.0,0.0,0.0
1695671736189,-0.9736328,0.203125,-0.040039062,-15.0,-4.0625,-0.84375,-79.1875,-42.875,-98.625
1695671736229,-0.9716797,0.14648438,-0.01171875,-13.71875,-4.0625,0.625,0.0,0.0,0.0
1695671736269,-0.97265625,0.11816406,-0.0048828125,2.59375,-2.65625,-2.0625,0.0,0.0,0.0
1695671736309,-1.0234375,0.14746094,-0.021484375,9.65625,5.15625,-6.34375,0.0,0.0,0.0
1695671736349,-0.9951172,0.18652344,-0.064453125,17.0,3.375,-0.84375,0.0,0.0,0.0
1695671736389,-1.0166016,0.24804688,-0.044921875,16.3125,2.21875,0.5625,0.0,0.0,0.0
1695671736429,-0.9824219,0.22070312,-0.0390625,4.28125,-0.71875,-4.6875,0.0,0.0,0.0
1695671736469,-1.0263672,0.18945312,-0.061523438,-2.53125,-2.15625,-6.15625,0.0,0.0,0.0
1695671736509,-1.0019531,0.18945312,-0.037109375,-1.0625,-4.96875,-1.65625,0.0,0.0,0.0
1695671736549,-0.9873047,0.15820312,-0.041992188,-7.3125,-1.8125,-1.71875,0.0,0.0,0.0
1695671736589,-1.0107422,0.12207031,0.0009765625,-3.53125,-0.875,-5.78125,0.0,0.0,0.0
1695671736629,-1.0273438,0.13769531,-0.026367188,4.71875,-3.09375,-6.9375,0.0,0.0,0.0
1695671736669,-1.0078125,0.14746094,-0.005859375,7.40625,-8.625,-4.21875,-78.75,-46.3125,-99.5
1695671736709,-0.9794922,0.12988281,0.0107421875,8.375,-6.25,-5.0625,0.0,0.0,0.0
1695671736749,-1.0087891,0.125,-0.021484375,12.78125,-1.25,-7.25,0.0,0.0,0.0
1695671736789,-1.0351562,0.14550781,-0.046875,18.03125,-5.34375,-1.15625,0.0,0.0,0.0
1695671736829,-0.9746094,0.17773438,0.03515625,10.40625,-3.5625,2.4375,0.0,0.0,0.0
1695671736869,-1.0205078,0.12207031,-0.015625,-1.25,-0.34375,-1.15625,0.0,0.0,0.0
1695671736909,-0.98046875,0.08203125,-0.016601562,-4.75,-0.9375,-1.65625,0.0,0.0,0.0
1695671736949,-1.0068359,0.06542969,-0.01953125,-3.46875,1.0,-0.59375,0.0,0.0,0.0
1695671736989,-1.0097656,0.057617188,-0.026367188,-1.375,2.78125,0.1875,0.0,0.0,0.0
1695671737029,-1.0068359,0.059570312,0.021484375,4.0,4.78125,1.21875,0.0,0.0,0.0
1695671737069,-1.0097656,0.06640625,-0.005859375,0.6875,4.90625,1.71875,0.0,0.0,0.0
1695671737109,-1.0263672,0.05078125,-0.0009765625,3.4375,4.84375,0.75,0.0,0.0,0.0
1695671737149,-1.0253906,0.051757812,-0.017578125,5.15625,2.59375,0.5625,0.0,0.0,0.0
1695671737189,-1.0302734,0.07324219,-0.009765625,9.46875,1.3125,0.3125,-77.6875,-45.875,-97.125
1695671737229,-1.03125,0.076171875,-0.030273438,12.65625,1.625,2.1875,0.0,0.0,0.0
1695671737269,-1.0175781,0.07910156,-0.046875,12.84375,2.40625,2.9375,0.0,0.0,0.0
1695671737309,-1.0205078,0.08300781,-0.03515625,14.84375,2.03125,3.90625,0.0,0.0,0.0
1695671737349,-1.0205078,0.10839844,-0.048828125,15.21875,0.875,5.0625,0.0,0.0,0.0
1695671737389,-1.0195312,0.12890625,-0.06933594,12.78125,1.0625,3.84375,0.0,0.0,0.0
1695671737429,-1.0302734,0.12597656,-0.053710938,11.96875,-1.9375,3.90625,0.0,0.0,0.0
1695671737469,-1.0390625,0.13378906,-0.07324219,6.5625,-5.78125,2.9375,0.0,0.0,0.0
1695671737509,-1.0136719,0.13378906,-0.053710938,4.96875,-9.1875,4.21875,0.0,0.0,0.0
1695671737549,-0.98046875,0.115234375,-0.043945312,5.09375,-7.78125,4.78125,0.0,0.0,0.0
1695671737589,-0.9638672,0.08203125,-0.0146484375,13.8125,-3.9375,4.65625,0.0,0.0,0.0
1695671737629,-1.0175781,0.10644531,-0.0146484375,24.3125,-1.1875,1.53125,0.0,0.0,0.0
1695671737669,-1.0351562,0.171875,-0.038085938,29.25,-2.90625,5.0625,-77.6875,-44.8125,-95.75
1695671737709,-0.99316406,0.19335938,-0.04296875,21.5,-2.53125,7.21875,0.0,0.0,0.0
1695671737749,-0.9580078,0.20898438,-0.060546875,4.59375,-1.5625,5.9375,0.0,0.0,0.0
1695671737789,-0.9794922,0.19335938,-0.038085938,-2.84375,-0.59375,-2.0,0.0,0.0,0.0
1695671737829,-0.99609375,0.1640625,0.0078125,-2.0625,-1.4375,-0.84375,0.0,0.0,0.0
1695671737869,-1.0166016,0.20410156,-0.0078125,1.4375,0.75,-0.78125,0.0,0.0,0.0
1695671737909,-0.9824219,0.203125,-0.00390625,7.78125,-2.65625,2.15625,0.0,0.0,0.0
1695671737949,-1.0009766,0.19628906,-0.0087890625,10.65625,-2.40625,0.8125,0.0,0.0,0.0
1695671737989,-1.0029297,0.19238281,0.025390625,10.21875,-2.46875,-1.40625,0.0,0.0,0.0
1695671738029,-0.9980469,0.15429688,-0.0087890625,16.0625,-0.53125,-4.9375,0.0,0.0,0.0
1695671738069,-1.0019531,0.22460938,-0.02734375,17.40625,1.1875,-7.25,0.0,0.0,0.0
1695671738109,-0.9951172,0.28125,-0.05859375,12.78125,3.5,-2.1875,0.0,0.0,0.0
1695671738149,-1.0107422,0.27441406,-0.041015625,10.75,0.5625,5.5625,0.0,0.0,0.0
1695671738189,-1.0039062,0.25,-0.046875,-4.0,1.4375,4.21875,-75.875,-42.6875,-96.0625
1695671738229,-1.0019531,0.22949219,-0.043945312,-9.3125,0.53125,3.3125,0.0,0.0,0.0
1695671738269,-0.9814453,0.1953125,-0.030273438,-9.4375,3.8125,2.8125,0.0,0.0,0.0
1695671738309,-1.0009766,0.203125,-0.046875,-10.125,4.0625,0.875,0.0,0.0,0.0
1695671738349,-1.0009766,0.19238281,-0.048828125,-11.9375,2.59375,0.125,0.0,0.0,0.0
1695671738389,-0.9921875,0.1875,-0.044921875,-10.53125,1.1875,-1.34375,0.0,0.0,0.0
1695671738429,-1.0244141,0.21582031,-0.061523438,-15.3125,2.03125,-0.53125,0.0,0.0,0.0
1695671738469,-0.9873047,0.17480469,-0.08984375,-17.1875,1.0,0.0,0.0,0.0,0.0
1695671738509,-0.99121094,0.16210938,-0.036132812,-17.5,1.5625,-0.71875,0.0,0.0,0.0
1695671738549,-1.0136719,0.11425781,-0.048828125,-17.8125,-1.125,-2.3125,0.0,0.0,0.0
1695671738589,-1.0205078,0.11230469,-0.049804688,-15.53125,0.5625,-4.34375,0.0,0.0,0.0
1695671738629,-1.0175781,0.14648438,-0.055664062,-17.5,-0.71875,-4.4375,0.0,0.0,0.0
1695671738669,-0.99902344,0.099609375,-0.028320312,-16.28125,-1.9375,-2.6875,-78.0,-44.8125,-97.125
1695671738709,-1.0146484,0.107421875,0.0068359375,-13.53125,0.28125,-0.125,0.0,0.0,0.0
1695671738749,-1.0146484,0.10644531,-0.0078125,-8.84375,0.53125,-0.1875,0.0,0.0,0.0
1695671738789,-1.0302734,0.11328125,-0.0146484375,-2.40625,-3.875,-1.40625,0.0,0.0,0.0
1695671738829,-1.0556641,0.1484375,-0.013671875,-2.25,-7.25,-2.25,0.0,0.0,0.0
1695671738869,-1.0146484,0.15234375,-0.036132812,-10.28125,-17.1875,-2.8125,0.0,0.0,0.0
1695671738909,-0.9785156,0.16113281,-0.0390625,-13.53125,-13.9375,-7.4375,0.0,0.0,0.0
1695671738949,-1.0146484,0.13574219,0.0146484375,-12.5,-12.59375,-4.28125,0.0,0.0,0.0
1695671738989,-1.0068359,0.103515625,0.046875,-13.15625,-9.6875,0.375,0.0,0.0,0.0
1695671739029,-0.9902344,0.10253906,0.06347656,-7.96875,-8.21875,2.3125,0.0,0.0,0.0
1695671739069,-0.9980469,0.08105469,0.053710938,-3.59375,-6.0,6.21875,0.0,0.0,0.0
1695671739109,-0.9921875,0.08886719,0.037109375,-0.90625,-3.375,9.09375,0.0,0.0,0.0
1695671739149,-0.97753906,0.123046875,0.028320312,-1.875,0.21875,4.34375,0.0,0.0,0.0
1695671739189,-0.98046875,0.11328125,0.032226562,-3.875,-0.59375,0.625,-78.875,-45.125,-94.5625
1695671739229,-0.99902344,0.12890625,0.061523438,-6.375,-2.40625,-1.03125,0.0,0.0,0.0
1695671739269,-1.0410156,0.10644531,0.0546875,-6.75,-3.75,-1.75,0.0,0.0,0.0
1695671739309,-1.0283203,0.11816406,0.068359375,-1.0625,-2.96875,-0.25,0.0,0.0,0.0
