# Sensor type: Respeck
# Activity type: Standing
# Activity subtype: Eating
# Subject id: s2517267
# Notes: 
timestamp,accel_x,accel_y,accel_z,gyro_x,gyro_y,gyro_z
1696265258132,-0.07080078,-0.9524536,0.24505615,-6.5625,-0.390625,1.8125
1696265258161,-0.0703125,-0.9668579,0.27581787,-5.1875,-1.203125,1.296875
1696265258206,-0.07543945,-0.972229,0.28485107,-2.625,-1.6875,0.796875
1696265258251,-0.064697266,-0.9522095,0.2616577,-3.0,-3.09375,0.15625
1696265258281,-0.051757812,-0.9529419,0.25457764,-2.796875,-3.28125,-0.5
1696265258326,-0.044677734,-0.95635986,0.25506592,-2.984375,-3.484375,-0.640625
1696265258372,-0.041503906,-0.9639282,0.26312256,-4.734375,-7.046875,0.46875
1696265258401,-0.0769043,-0.95562744,0.27386475,-7.671875,-8.640625,2.296875
1696265258446,-0.08154297,-0.9343872,0.28729248,-7.515625,-7.421875,2.3125
1696265258476,-0.09301758,-0.93829346,0.29315186,-8.34375,-7.75,1.015625
1696265258521,-0.1081543,-0.925354,0.30194092,-9.0,-7.828125,0.0625
1696265258566,-0.09667969,-0.92755127,0.3163452,-5.75,-7.484375,0.734375
1696265258595,-0.1015625,-0.9373169,0.31585693,-5.828125,-7.40625,0.28125
1696265258642,-0.09863281,-0.92510986,0.31170654,-5.859375,-7.28125,0.171875
1696265258687,-0.10620117,-0.9146118,0.33563232,-5.265625,-6.75,-0.265625
1696265258717,-0.08618164,-0.92144775,0.33172607,-4.65625,-6.5,-1.046875
1696265258761,-0.07910156,-0.93829346,0.3319702,-3.953125,-7.203125,-1.015625
1696265258807,-0.10131836,-0.9229126,0.33929443,-5.671875,-6.75,0.234375
1696265258837,-0.12670898,-0.9182739,0.34539795,-6.71875,-5.890625,0.734375
1696265258882,-0.14111328,-0.91363525,0.35614014,-3.890625,-4.609375,0.390625
1696265258911,-0.14575195,-0.9026489,0.36175537,-4.359375,-4.640625,-0.265625
1696265258956,-0.1262207,-0.9077759,0.3678589,-3.34375,-4.640625,-0.984375
1696265259002,-0.10546875,-0.91729736,0.3768921,-1.546875,-4.15625,-0.859375
1696265259032,-0.107421875,-0.91534424,0.3583374,-1.046875,-4.09375,-0.0625
1696265259076,-0.12133789,-0.8999634,0.35858154,-0.890625,-3.03125,0.8125
1696265259122,-0.14428711,-0.9116821,0.3793335,0.234375,-2.515625,0.421875
1696265259151,-0.14746094,-0.9248657,0.35931396,-0.328125,-2.625,-0.1875
1696265259197,-0.12670898,-0.91973877,0.36102295,-0.703125,-2.3125,-1.1875
1696265259227,-0.1171875,-0.928772,0.36468506,2.9375,-1.75,-1.078125
1696265259272,-0.11767578,-0.9116821,0.3595581,1.65625,-0.4375,-0.609375
1696265259317,-0.12597656,-0.9204712,0.3414917,1.96875,-1.0,-0.75
1696265259346,-0.11767578,-0.9209595,0.3517456,2.703125,-0.90625,-0.328125
1696265259393,-0.119140625,-0.9089966,0.3475952,1.640625,0.28125,0.0625
1696265259437,-0.12841797,-0.93218994,0.3546753,1.21875,0.90625,1.265625
1696265259467,-0.12792969,-0.92022705,0.354187,0.421875,1.125,1.546875
1696265259511,-0.123535156,-0.9092407,0.338562,1.453125,-0.578125,-0.4375
1696265259587,-0.115722656,-0.9258423,0.34588623,2.46875,0.46875,-0.453125
1696265259591,-0.12158203,-0.93292236,0.34100342,2.375,-0.296875,0.921875
1696265259632,-0.12475586,-0.92315674,0.3217163,1.28125,-0.484375,0.734375
1696265259661,-0.11791992,-0.9234009,0.32366943,1.390625,-0.859375,-0.390625
1696265259706,-0.11743164,-0.9302368,0.3307495,2.25,-0.546875,0.375
1696265259751,-0.125,-0.9397583,0.32025146,0.21875,0.34375,0.421875
1696265259781,-0.13110352,-0.93341064,0.32855225,0.640625,0.5625,0.25
1696265259826,-0.12768555,-0.9224243,0.31536865,0.609375,-0.265625,-0.21875
1696265259872,-0.11791992,-0.9209595,0.3126831,0.53125,-0.671875,-1.234375
1696265259902,-0.119384766,-0.9368286,0.31854248,0.140625,-0.015625,-0.765625
1696265259946,-0.123046875,-0.9338989,0.3168335,0.875,0.109375,-0.46875
1696265259976,-0.12646484,-0.9336548,0.30999756,0.59375,-0.390625,-0.34375
1696265260023,-0.12817383,-0.93707275,0.30755615,0.09375,0.0625,-0.6875
1696265260067,-0.125,-0.92755127,0.3126831,0.515625,0.125,-0.4375
1696265260097,-0.12207031,-0.9429321,0.30755615,0.0,0.109375,-0.515625
1696265260141,-0.11303711,-0.9290161,0.3060913,-2.015625,0.484375,-0.765625
1696265260187,-0.12182617,-0.93170166,0.31829834,-1.1875,0.65625,-0.734375
1696265260216,-0.1262207,-0.9258423,0.31414795,-0.9375,0.859375,-0.515625
1696265260261,-0.12060547,-0.9290161,0.30999756,-1.71875,0.609375,-1.0
1696265260306,-0.123291016,-0.93585205,0.31195068,-1.375,0.21875,-0.9375
1696265260339,-0.12573242,-0.9402466,0.31976318,-1.53125,0.171875,-0.640625
1696265260382,-0.12011719,-0.92559814,0.3131714,-1.75,0.46875,-0.65625
1696265260414,-0.1274414,-0.92852783,0.31756592,-1.34375,0.484375,-0.875
1696265260456,-0.11987305,-0.92437744,0.31610107,-1.109375,-0.015625,-0.5
1696265260502,-0.119628906,-0.9234009,0.32196045,-1.78125,0.21875,-1.03125
1696265260533,-0.13061523,-0.93292236,0.31829834,-1.640625,0.046875,-0.765625
1696265260577,-0.12890625,-0.93096924,0.32757568,-1.3125,0.125,-0.59375
1696265260622,-0.125,-0.9324341,0.32611084,-1.1875,0.359375,-0.46875
1696265260654,-0.12451172,-0.93707275,0.31878662,-1.875,0.09375,-0.71875
1696265260697,-0.1262207,-0.92193604,0.33392334,-1.171875,0.328125,-0.453125
1696265260775,-0.12890625,-0.93585205,0.3222046,-0.65625,0.5625,-0.265625
1696265260777,-0.11694336,-0.91851807,0.3222046,-2.484375,0.046875,-0.5
1696265260817,-0.12060547,-0.92926025,0.3283081,-2.234375,0.765625,-0.953125
1696265260846,-0.1328125,-0.9299927,0.3336792,-0.328125,0.390625,-0.171875
1696265260895,-0.118652344,-0.92071533,0.33392334,-1.578125,0.328125,-0.34375
1696265260937,-0.118896484,-0.92926025,0.32684326,-1.140625,0.296875,-0.5
1696265260967,-0.122802734,-0.9295044,0.3366089,-0.921875,0.265625,-0.296875
1696265261011,-0.12695312,-0.92388916,0.33563232,-1.0625,0.21875,-0.546875
1696265261057,-0.12988281,-0.9295044,0.3300171,-1.453125,0.203125,-0.828125
1696265261086,-0.13256836,-0.92388916,0.33099365,-0.796875,0.46875,-0.375
1696265261134,-0.12084961,-0.92437744,0.3287964,-1.03125,-0.046875,-0.328125
1696265261161,-0.12207031,-0.92315674,0.3390503,-1.203125,0.359375,-0.5
1696265261207,-0.12524414,-0.9282837,0.3312378,-1.171875,0.609375,-0.734375
1696265261254,-0.12084961,-0.92852783,0.33294678,-0.765625,0.71875,-0.328125
1696265261282,-0.13354492,-0.9204712,0.3348999,-1.15625,0.3125,-0.234375
1696265261327,-0.12597656,-0.9273071,0.32928467,-1.609375,0.625,-0.296875
1696265261374,-0.11694336,-0.9265747,0.34344482,-0.765625,0.40625,-0.53125
1696265261402,-0.13085938,-0.9282837,0.34197998,-0.9375,0.1875,0.046875
1696265261447,-0.1184082,-0.92022705,0.32855225,-3.15625,0.390625,-0.625
1696265261491,-0.1237793,-0.928772,0.34954834,-2.03125,1.015625,-0.8125
1696265261522,-0.12402344,-0.9241333,0.34417725,-0.765625,0.734375,-0.03125
1696265261568,-0.12719727,-0.923645,0.35198975,-2.234375,0.34375,-0.53125
1696265261596,-0.12646484,-0.92681885,0.34661865,-1.40625,0.515625,-0.46875
1696265261642,-0.12207031,-0.91778564,0.3444214,-1.578125,0.9375,-0.296875
1696265261687,-0.12915039,-0.91607666,0.34246826,-2.21875,1.21875,-0.859375
1696265261717,-0.12597656,-0.9265747,0.3475952,-1.75,1.078125,-0.71875
1696265261761,-0.119140625,-0.9155884,0.3468628,-1.375,0.984375,-0.390625
1696265261808,-0.12133789,-0.9199829,0.35247803,-1.859375,0.921875,-0.625
1696265261837,-0.118896484,-0.9182739,0.35858154,-1.921875,1.203125,-0.78125
1696265261882,-0.12182617,-0.91973877,0.35809326,-1.4375,1.1875,-0.859375
1696265261927,-0.12915039,-0.9151001,0.35858154,-1.375,0.71875,-0.53125
1696265261957,-0.119384766,-0.91851807,0.3612671,-1.390625,0.625,-0.546875
1696265262002,-0.122802734,-0.9204712,0.35931396,-1.046875,0.40625,-0.421875
1696265262031,-0.12182617,-0.91119385,0.3710327,-0.265625,0.109375,-0.546875
1696265262076,-0.1381836,-0.9229126,0.35809326,0.34375,-0.28125,-0.078125
1696265262122,-0.119140625,-0.9085083,0.35565186,0.203125,-0.78125,-0.59375
1696265262152,-0.1159668,-0.9273071,0.3529663,0.515625,-0.1875,-0.71875
1696265262196,-0.12597656,-0.9209595,0.35638428,0.9375,0.203125,-0.171875
1696265262242,-0.13085938,-0.91412354,0.3529663,0.421875,-0.140625,-0.515625
1696265262272,-0.12988281,-0.92193604,0.355896,0.546875,-0.1875,-0.09375
1696265262317,-0.114990234,-0.9192505,0.35198975,0.921875,-0.03125,-0.296875
1696265262346,-0.11791992,-0.9155884,0.3480835,1.421875,0.015625,-0.4375
1696265262392,-0.13256836,-0.92803955,0.3463745,1.5,-0.078125,0.125
1696265262436,-0.13061523,-0.9209595,0.34002686,1.578125,-0.46875,0.28125
1696265262466,-0.12084961,-0.9216919,0.3444214,1.953125,-0.671875,-0.046875
1696265262511,-0.115722656,-0.92144775,0.33416748,1.78125,-0.078125,0.125
1696265262557,-0.12768555,-0.9273071,0.3270874,1.4375,-0.390625,-0.046875
1696265262586,-0.13061523,-0.9282837,0.32928467,1.328125,-0.015625,-0.265625
1696265262632,-0.12548828,-0.92022705,0.32684326,1.5,0.125,-0.421875
1696265262676,-0.12451172,-0.9234009,0.32391357,1.203125,0.640625,-0.328125
1696265262707,-0.119140625,-0.9356079,0.31829834,1.109375,0.203125,0.046875
1696265262751,-0.122558594,-0.93341064,0.3168335,2.625,-0.140625,0.40625
1696265262781,-0.123046875,-0.92755127,0.3048706,0.0625,0.0,-0.015625
1696265262826,-0.12670898,-0.9360962,0.31707764,1.28125,0.5625,-0.109375
1696265262872,-0.13134766,-0.93634033,0.31243896,3.203125,0.46875,1.125
1696265262916,-0.115478516,-0.9282837,0.30023193,1.09375,-0.6875,-0.28125
1696265262946,-0.115722656,-0.9390259,0.29241943,0.484375,-0.21875,-0.1875
1696265262992,-0.11669922,-0.9373169,0.30389404,1.34375,0.453125,0.28125
1696265263022,-0.111572266,-0.94000244,0.3114624,2.78125,1.515625,-0.015625
1696265263066,-0.123535156,-0.9463501,0.31219482,5.796875,3.46875,0.53125
1696265263096,-0.12597656,-0.9500122,0.29608154,7.609375,3.96875,1.25
1696265263142,-0.10522461,-0.98638916,0.26019287,4.46875,5.671875,4.203125
1696265263187,-0.08984375,-0.9246216,0.24700928,-1.171875,0.015625,-0.078125
1696265263216,-0.07373047,-0.92193604,0.2526245,-3.875,-0.3125,-1.796875
1696265263262,-0.08862305,-0.9468384,0.276062,-4.03125,0.21875,-0.890625
1696265263307,-0.107666016,-0.9619751,0.28216553,-6.015625,-0.328125,0.78125
1696265263336,-0.11303711,-0.9402466,0.30438232,-5.15625,-0.078125,-0.46875
1696265263382,-0.10620117,-0.92755127,0.2970581,-3.109375,-0.6875,-1.5
1696265263426,-0.11279297,-0.9331665,0.28704834,-5.15625,-0.046875,-0.53125
1696265263456,-0.107666016,-0.94244385,0.31951904,-3.15625,-0.296875,-0.640625
1696265263501,-0.111572266,-0.94317627,0.3131714,-2.78125,0.53125,-0.4375
1696265263533,-0.095214844,-0.93634033,0.30950928,-1.625,0.40625,-0.875
1696265263576,-0.099853516,-0.9260864,0.3085327,-2.890625,-0.078125,-0.890625
1696265263621,-0.09838867,-0.9277954,0.3114624,-1.9375,-0.25,-0.8125
1696265263654,-0.09692383,-0.94122314,0.3151245,-1.15625,-0.734375,-1.1875
1696265263697,-0.10571289,-0.9446411,0.32073975,-1.765625,-0.53125,-1.5
1696265263741,-0.095214844,-0.9380493,0.3180542,-0.90625,-1.625,-0.734375
1696265263773,-0.107177734,-0.9314575,0.30804443,-2.203125,-1.046875,-0.546875
1696265263816,-0.11645508,-0.93292236,0.3156128,-1.390625,-1.1875,0.015625
1696265263861,-0.11791992,-0.9324341,0.3270874,-1.640625,-1.046875,-0.359375
1696265263894,-0.10668945,-0.9343872,0.32659912,-1.0,-0.734375,-0.453125
1696265263936,-0.10644531,-0.93536377,0.32196045,-0.9375,0.359375,-0.796875
1696265263966,-0.115478516,-0.92559814,0.31878662,-0.65625,-0.359375,-0.84375
1696265264013,-0.122802734,-0.93951416,0.31854248,-1.515625,0.015625,-0.5
1696265264072,-0.118652344,-0.9348755,0.3300171,0.953125,0.5625,-0.59375
1696265264087,-0.12792969,-0.9373169,0.32073975,-0.15625,0.125,0.5625
1696265264132,-0.115478516,-0.9199829,0.31072998,-2.8125,1.34375,-1.140625
1696265264176,-0.1315918,-0.93634033,0.32147217,0.78125,1.921875,-0.0625
1696265264208,-0.12475586,-0.9290161,0.32318115,0.71875,1.734375,0.265625
1696265264254,-0.12451172,-0.9299927,0.32611084,-0.75,2.390625,-0.828125
1696265264281,-0.111816406,-0.9397583,0.3163452,0.71875,2.25,-1.375
1696265264327,-0.10229492,-0.93634033,0.31121826,0.5,2.421875,-1.265625
1696265264374,-0.10107422,-0.9326782,0.30828857,-0.484375,2.359375,-1.3125
1696265264402,-0.103027344,-0.9356079,0.31488037,-0.3125,2.09375,-1.375
1696265264446,-0.09423828,-0.9331665,0.30462646,-0.4375,1.296875,-0.984375
1696265264495,-0.09765625,-0.93707275,0.3131714,-1.6875,0.453125,-1.28125
1696265264522,-0.095947266,-0.9365845,0.32147217,-2.46875,0.109375,-1.5625
1696265264566,-0.103515625,-0.9302368,0.3234253,-1.65625,-0.875,-1.53125
1696265264614,-0.10839844,-0.928772,0.31365967,-3.4375,-1.828125,-0.828125
1696265264641,-0.10668945,-0.925354,0.32806396,-4.046875,-2.5,-1.109375
1696265264687,-0.11425781,-0.9326782,0.33587646,-2.90625,-2.859375,-0.390625
1696265264717,-0.12036133,-0.92071533,0.3475952,-4.40625,-3.828125,0.0
1696265264761,-0.1574707,-0.93096924,0.34857178,-4.640625,-4.65625,0.75
1696265264807,-0.140625,-0.9260864,0.35516357,-5.890625,-3.53125,-0.015625
1696265264837,-0.15478516,-0.9077759,0.36053467,-3.640625,0.5,-1.234375
1696265264882,-0.1394043,-0.9182739,0.36761475,-0.859375,0.484375,-0.109375
1696265264927,-0.13476562,-0.9216919,0.35272217,-2.296875,0.390625,-0.15625
1696265264957,-0.12817383,-0.9151001,0.35931396,-0.9375,1.515625,-0.6875
1696265265003,-0.13256836,-0.9155884,0.3517456,-1.53125,1.328125,-0.578125
1696265265048,-0.12719727,-0.90802,0.35198975,-2.953125,2.265625,-1.09375
1696265265077,-0.122558594,-0.90631104,0.36517334,-1.984375,2.171875,-2.171875
1696265265122,-0.11816406,-0.91412354,0.36761475,-2.109375,2.21875,-1.921875
1696265265152,-0.12011719,-0.9143677,0.3678589,-1.734375,1.1875,-0.84375
1696265265196,-0.1274414,-0.909729,0.3649292,-1.953125,1.75,-0.03125
1696265265242,-0.12573242,-0.92144775,0.36175537,-1.28125,1.828125,-0.1875
1696265265272,-0.11328125,-0.91363525,0.3690796,-0.875,1.296875,-0.78125
1696265265317,-0.11230469,-0.90460205,0.371521,-0.265625,1.984375,-1.4375
1696265265362,-0.10913086,-0.911438,0.36419678,0.515625,0.9375,-0.125
1696265265391,-0.10595703,-0.91534424,0.3619995,-0.734375,0.609375,0.40625
1696265265436,-0.118896484,-0.91070557,0.3661499,0.390625,-0.390625,-0.125
1696265265466,-0.12792969,-0.90997314,0.3673706,-0.421875,0.21875,-0.40625
1696265265512,-0.11303711,-0.9199829,0.3739624,1.171875,0.375,-0.5625
1696265265557,-0.12548828,-0.9312134,0.3649292,-0.0625,-0.28125,-0.234375
1696265265587,-0.11791992,-0.9143677,0.35687256,-2.5625,0.015625,-1.34375
1696265265631,-0.11791992,-0.90997314,0.3661499,-1.28125,-0.078125,-0.171875
1696265265676,-0.12573242,-0.9158325,0.3678589,-1.625,-0.4375,1.078125
1696265265707,-0.1274414,-0.9212036,0.3673706,-1.8125,-0.828125,-0.140625
1696265265751,-0.11279297,-0.9209595,0.37127686,-0.234375,-0.734375,-0.53125
1696265265797,-0.10229492,-0.89141846,0.36175537,-1.78125,-0.640625,-0.609375
1696265265826,-0.115478516,-0.89849854,0.36956787,-1.21875,-0.75,-0.078125
1696265265872,-0.12133789,-0.93096924,0.37347412,-0.328125,-0.359375,0.671875
1696265265902,-0.12426758,-0.91851807,0.3678589,-1.296875,-1.078125,0.53125
1696265265946,-0.11328125,-0.90826416,0.37493896,-1.328125,-0.4375,-0.34375
1696265265992,-0.10913086,-0.9014282,0.3788452,-0.34375,-0.171875,-0.296875
1696265266022,-0.12866211,-0.9180298,0.3703003,-0.59375,0.34375,1.125
1696265266067,-0.12817383,-0.9229126,0.38104248,0.5625,0.6875,0.875
1696265266112,-0.12939453,-0.9138794,0.37200928,0.84375,1.140625,0.765625
1696265266142,-0.12792969,-0.9055786,0.37200928,0.90625,0.921875,1.859375
1696265266187,-0.123291016,-0.9194946,0.37005615,1.578125,2.328125,1.1875
1696265266217,-0.11035156,-0.9248657,0.36346436,1.890625,2.953125,0.265625
1696265266261,-0.0925293,-0.90997314,0.36468506,-0.078125,2.78125,-0.71875
1696265266307,-0.08862305,-0.913147,0.35247803,-0.75,2.34375,-1.625
1696265266341,-0.09399414,-0.92022705,0.3703003,0.296875,1.109375,0.03125
1696265266382,-0.103759766,-0.9295044,0.3480835,-3.0625,-0.890625,0.515625
1696265266426,-0.07446289,-0.91607666,0.34906006,-3.8125,-0.171875,-1.4375
1696265266457,-0.099609375,-0.9187622,0.3632202,-3.109375,-0.21875,-0.03125
1696265266502,-0.099853516,-0.89678955,0.3661499,-4.140625,-2.21875,1.75
1696265266546,-0.09790039,-0.91656494,0.3690796,-2.9375,-1.0,1.703125
1696265266576,-0.10864258,-0.91485596,0.37493896,-1.84375,-0.53125,2.28125
1696265266622,-0.10546875,-0.909729,0.37615967,0.25,-0.1875,2.09375
1696265266655,-0.09765625,-0.9067993,0.36639404,-0.40625,0.640625,0.8125
1696265266697,-0.092285156,-0.9043579,0.38031006,-0.546875,-0.078125,1.390625
1696265266742,-0.09448242,-0.91363525,0.3776245,-0.453125,0.28125,0.828125
1696265266772,-0.10913086,-0.9168091,0.3793335,-0.359375,0.375,-0.109375
1696265266817,-0.09277344,-0.9089966,0.38519287,1.71875,0.59375,-1.296875
1696265266862,-0.08178711,-0.9155884,0.37542725,2.90625,0.25,-2.09375
1696265266895,-0.07324219,-0.9209595,0.37078857,3.265625,-0.015625,-2.671875
1696265266936,-0.06323242,-0.91241455,0.3678589,2.625,-1.984375,-2.796875
1696265266982,-0.07861328,-0.9277954,0.34710693,0.375,-3.3125,-0.859375
1696265267013,-0.09667969,-0.9273071,0.3529663,0.25,-4.5,0.65625
1696265267057,-0.114746094,-0.9234009,0.355896,-1.078125,-3.59375,0.421875
1696265267089,-0.123046875,-0.92437744,0.35516357,-0.578125,-3.6875,0.328125
1696265267140,-0.115722656,-0.9199829,0.35125732,-0.4375,-2.453125,0.953125
1696265267177,-0.10473633,-0.9143677,0.3637085,-0.5,-1.84375,1.125
1696265267207,-0.11669922,-0.9282837,0.3612671,1.078125,-1.5625,1.140625
1696265267253,-0.10864258,-0.9192505,0.3463745,-0.328125,-0.71875,-1.015625
1696265267296,-0.10595703,-0.9092407,0.3529663,0.5,0.90625,-2.46875
1696265267327,-0.1184082,-0.9277954,0.354187,2.828125,0.078125,0.140625
1696265267373,-0.11279297,-0.9234009,0.35321045,2.296875,-0.734375,0.15625
1696265267401,-0.1015625,-0.9194946,0.34222412,2.375,-0.1875,-1.09375
1696265267446,-0.111083984,-0.928772,0.33685303,2.296875,-0.046875,-0.609375
1696265267494,-0.11303711,-0.9234009,0.33319092,2.375,-0.1875,-0.25
1696265267522,-0.10888672,-0.9343872,0.3319702,2.671875,0.328125,-0.765625
1696265267567,-0.107421875,-0.9397583,0.32904053,3.609375,0.625,0.0
1696265267613,-0.10522461,-0.93829346,0.31756592,3.140625,-0.40625,0.203125
1696265267656,-0.09887695,-0.9224243,0.3204956,2.828125,0.40625,-0.9375
1696265267686,-0.09643555,-0.93048096,0.31243896,2.328125,0.484375,-0.65625
1696265267732,-0.110839844,-0.9417114,0.3048706,1.4375,0.28125,0.265625
1696265267761,-0.111083984,-0.93634033,0.30169678,1.9375,0.390625,0.28125
1696265267808,-0.10620117,-0.93048096,0.29437256,2.25,0.703125,-0.859375
1696265267836,-0.08935547,-0.93707275,0.29437256,1.3125,0.609375,-1.28125
1696265267881,-0.095947266,-0.9434204,0.28826904,1.28125,0.1875,-1.03125
1696265267928,-0.10546875,-0.9421997,0.29144287,0.859375,-0.34375,-0.046875
1696265267956,-0.10595703,-0.9385376,0.2929077,0.3125,-0.390625,0.0625
1696265268002,-0.1081543,-0.9434204,0.2826538,1.5,-0.3125,-0.140625
1696265268046,-0.10107422,-0.9324341,0.2850952,1.6875,-0.671875,0.03125
1696265268094,-0.107177734,-0.9397583,0.2789917,-0.53125,-0.09375,0.453125
1696265268122,-0.12011719,-0.9404907,0.28338623,-0.09375,0.4375,0.65625
1696265268167,-0.111328125,-0.9495239,0.28094482,0.453125,0.875,-0.34375
1696265268196,-0.08959961,-0.9380493,0.27459717,-0.4375,1.046875,-1.765625
1696265268242,-0.1027832,-0.9487915,0.27972412,-1.375,0.921875,-0.9375
1696265268316,-0.103515625,-0.9468384,0.28656006,-0.0625,0.546875,-0.53125
1696265268319,-0.10522461,-0.93878174,0.28070068,-0.734375,0.359375,-0.859375
1696265268361,-0.11376953,-0.9439087,0.27752686,-0.9375,0.3125,-0.84375
1696265268393,-0.1015625,-0.94317627,0.28704834,0.359375,0.046875,-0.59375
1696265268437,-0.10083008,-0.944397,0.27557373,-1.359375,0.0625,-0.4375
1696265268482,-0.10888672,-0.94659424,0.28363037,-0.796875,0.25,-0.5625
1696265268511,-0.111083984,-0.9404907,0.2802124,-1.015625,-0.28125,-0.734375
1696265268558,-0.107666016,-0.9324341,0.28216553,-1.515625,0.0625,-0.71875
1696265268587,-0.10522461,-0.94732666,0.2819214,-2.625,0.5,-0.859375
1696265268631,-0.095703125,-0.9326782,0.28704834,-2.515625,0.390625,-0.953125
1696265268677,-0.10644531,-0.9429321,0.2855835,-3.203125,0.578125,-0.96875
1696265268707,-0.10522461,-0.9351196,0.2982788,-3.0,0.40625,-0.796875
1696265268752,-0.11401367,-0.94244385,0.291687,-3.296875,0.078125,-0.84375
1696265268796,-0.11450195,-0.9380493,0.3048706,-0.890625,0.25,-0.9375
1696265268826,-0.10644531,-0.93927,0.29364014,-3.65625,0.40625,-0.984375
1696265268872,-0.10449219,-0.9295044,0.3036499,-3.453125,0.875,-1.4375
1696265268917,-0.12011719,-0.93707275,0.31658936,-1.828125,0.90625,-0.40625
1696265268947,-0.11206055,-0.93048096,0.3163452,-1.828125,0.09375,-0.609375
1696265268992,-0.107910156,-0.93292236,0.3060913,-2.15625,0.296875,-1.171875
1696265269022,-0.107666016,-0.93878174,0.30584717,-1.90625,0.125,-0.5
1696265269067,-0.11328125,-0.9385376,0.31463623,-2.125,0.296875,-0.4375
1696265269111,-0.115478516,-0.92755127,0.31414795,-2.21875,0.984375,-1.03125
1696265269142,-0.11791992,-0.9360962,0.3151245,-1.859375,0.953125,-0.765625
1696265269187,-0.111816406,-0.92803955,0.32000732,-1.515625,0.234375,-0.5625
1696265269231,-0.11328125,-0.9221802,0.3204956,-2.09375,0.59375,-0.609375
1696265269261,-0.11694336,-0.94000244,0.3217163,-1.15625,0.890625,-0.75
1696265269307,-0.11279297,-0.92926025,0.3209839,-0.828125,0.59375,-0.59375
1696265269336,-0.115234375,-0.92926025,0.32366943,-1.5,0.765625,-0.453125
1696265269381,-0.118896484,-0.9265747,0.32928467,-1.078125,0.5625,-0.421875
1696265269426,-0.111816406,-0.9314575,0.32513428,-0.90625,0.078125,-0.25
1696265269457,-0.11767578,-0.9338989,0.32904053,-1.484375,0.5625,-0.328125
1696265269501,-0.115722656,-0.9312134,0.32635498,-1.546875,0.265625,-0.078125
1696265269547,-0.11450195,-0.93218994,0.3180542,-2.5,0.640625,-0.484375
1696265269577,-0.106933594,-0.9260864,0.34173584,-0.515625,0.984375,-0.78125
1696265269622,-0.1171875,-0.94073486,0.32489014,-1.421875,0.296875,0.0625
1696265269666,-0.10449219,-0.90753174,0.3241577,-3.609375,1.1875,-0.578125
1696265269696,-0.11376953,-0.9277954,0.3439331,-1.046875,1.171875,0.109375
1696265269742,-0.12719727,-0.942688,0.33514404,-0.078125,0.375,0.5
1696265269774,-0.110839844,-0.92559814,0.33709717,-1.546875,0.109375,-0.53125
1696265269817,-0.09887695,-0.92681885,0.3397827,-1.1875,0.53125,-0.234375
1696265269861,-0.10620117,-0.92144775,0.33807373,-1.328125,0.703125,0.5625
1696265269895,-0.10498047,-0.91656494,0.3348999,-2.265625,0.890625,0.109375
1696265269936,-0.11254883,-0.93292236,0.3378296,-2.203125,2.25,-0.28125
1696265269982,-0.109375,-0.9260864,0.3456421,-1.859375,2.28125,-0.21875
1696265270015,-0.10083008,-0.9212036,0.33685303,-2.703125,1.4375,0.421875
1696265270056,-0.10546875,-0.92681885,0.35247803,-2.140625,2.796875,0.0
1696265270102,-0.10205078,-0.9224243,0.35150146,-2.59375,2.796875,-0.65625
1696265270133,-0.10595703,-0.93096924,0.34906006,-2.21875,2.296875,-0.21875
1696265270176,-0.10620117,-0.91070557,0.35247803,-2.90625,2.25,-0.15625
1696265270206,-0.08984375,-0.91729736,0.36151123,-2.265625,1.96875,-0.625
1696265270255,-0.107421875,-0.9182739,0.35784912,-1.609375,1.4375,-0.265625
1696265270296,-0.10424805,-0.91485596,0.36834717,-1.703125,0.890625,-0.578125
1696265270326,-0.10107422,-0.9212036,0.36419678,-1.90625,0.234375,-0.828125
1696265270373,-0.095947266,-0.9077759,0.3678589,-1.15625,0.5625,-0.609375
1696265270416,-0.1015625,-0.92144775,0.3678589,-1.0625,0.296875,-0.15625
1696265270446,-0.0949707,-0.9151001,0.3595581,-2.84375,0.625,-1.90625
1696265270494,-0.10449219,-0.9241333,0.37615967,-2.53125,1.328125,-0.90625
1696265270522,-0.107177734,-0.9199829,0.37738037,-1.0,0.171875,-0.59375
1696265270567,-0.10229492,-0.9163208,0.37078857,-2.28125,0.421875,-1.265625
1696265270613,-0.100097656,-0.91607666,0.37738037,-1.1875,0.9375,-0.9375
1696265270642,-0.091308594,-0.90704346,0.3793335,-0.875,0.3125,-0.375
1696265270687,-0.1027832,-0.9175415,0.37713623,-1.828125,0.65625,-0.84375
1696265270734,-0.10986328,-0.9187622,0.37860107,-0.890625,0.421875,-0.71875
1696265270761,-0.099609375,-0.91363525,0.37713623,-0.578125,0.546875,-0.859375
1696265270807,-0.10229492,-0.909729,0.3756714,-0.828125,0.25,-0.234375
1696265270882,-0.10961914,-0.91070557,0.3776245,-1.296875,-0.578125,-0.234375
1696265270884,-0.107666016,-0.91192627,0.37908936,-0.796875,-0.234375,-0.71875
1696265270927,-0.111328125,-0.9138794,0.38104248,-0.046875,-0.59375,-0.671875
1696265270957,-0.10986328,-0.9109497,0.37786865,0.5625,-1.53125,-0.6875
1696265271001,-0.10595703,-0.90997314,0.37054443,0.609375,-1.671875,-0.28125
1696265271047,-0.107666016,-0.90460205,0.38104248,0.796875,-0.21875,-0.6875
1696265271076,-0.11352539,-0.909729,0.37078857,1.84375,-1.65625,-0.609375
1696265271123,-0.1171875,-0.9121704,0.37542725,2.71875,-3.875,-0.09375
1696265271167,-0.12158203,-0.90753174,0.37738037,3.34375,-4.78125,-0.46875
1696265271196,-0.123291016,-0.9265747,0.35150146,0.640625,-1.40625,-1.421875
1696265271242,-0.091552734,-0.9302368,0.34710693,1.40625,0.140625,-2.09375
1696265271287,-0.09790039,-0.92755127,0.35760498,1.671875,0.515625,-0.59375
1696265271317,-0.12036133,-0.92266846,0.34979248,2.640625,-0.1875,0.859375
1696265271361,-0.13061523,-0.91607666,0.3324585,3.46875,-1.78125,1.046875
1696265271436,-0.119384766,-0.92559814,0.33758545,3.21875,-1.328125,0.203125
1696265271440,-0.11376953,-0.9319458,0.33392334,2.21875,0.0,0.125
1696265271482,-0.10180664,-0.93048096,0.33587646,1.65625,-0.015625,0.515625
1696265271511,-0.1081543,-0.9265747,0.32684326,1.109375,0.09375,-0.21875
1696265271557,-0.12133789,-0.9248657,0.3319702,1.734375,0.0,0.0
1696265271602,-0.119628906,-0.9290161,0.3192749,1.78125,-0.328125,0.28125
1696265271631,-0.114990234,-0.9319458,0.32000732,1.421875,-0.375,-0.125
1696265271677,-0.119384766,-0.9282837,0.3180542,1.15625,0.0,-0.65625
1696265271707,-0.114990234,-0.92559814,0.31463623,0.796875,-0.203125,-0.6875
1696265271752,-0.11791992,-0.9312134,0.31463623,1.328125,-0.0625,-0.375
1696265271796,-0.11669922,-0.9378052,0.31170654,1.1875,0.203125,-0.484375
1696265271827,-0.111328125,-0.9356079,0.30316162,0.875,0.140625,-0.5
1696265271871,-0.10888672,-0.9312134,0.30413818,0.421875,0.1875,-0.640625
1696265271916,-0.1081543,-0.93878174,0.30389404,0.59375,0.109375,-0.765625
1696265271946,-0.10644531,-0.925354,0.30877686,1.84375,-0.171875,-0.546875
1696265271992,-0.114990234,-0.9451294,0.29364014,-0.078125,-0.171875,-0.28125
1696265272036,-0.11645508,-0.93927,0.29803467,-0.828125,0.15625,-0.84375
1696265272068,-0.13208008,-0.9378052,0.3065796,1.21875,0.15625,-0.109375
1696265272112,-0.111572266,-0.9265747,0.29486084,1.453125,-0.25,0.015625
1696265272141,-0.11328125,-0.9429321,0.28240967,0.5625,-0.46875,-0.390625
1696265272186,-0.110839844,-0.94000244,0.28533936,0.8125,-0.828125,0.125
1696265272231,-0.10888672,-0.942688,0.29241943,-0.140625,-0.765625,0.15625
1696265272261,-0.11303711,-0.9343872,0.28460693,-1.296875,0.15625,-0.71875
1696265272307,-0.11621094,-0.9385376,0.28778076,-0.90625,0.09375,-0.609375
1696265272351,-0.11328125,-0.93536377,0.28607178,-1.828125,0.03125,-0.671875
1696265272381,-0.11450195,-0.9343872,0.293396,-1.921875,0.125,-0.5
1696265272427,-0.115234375,-0.9336548,0.29510498,-2.359375,0.328125,-0.46875
1696265272456,-0.11376953,-0.9299927,0.30047607,-1.828125,0.625,-0.71875
1696265272502,-0.119140625,-0.93927,0.29656982,-2.09375,0.921875,-0.46875
1696265272546,-0.1159668,-0.9338989,0.3036499,-1.671875,0.484375,-0.609375
1696265272576,-0.107910156,-0.9290161,0.307312,-1.65625,0.546875,-0.53125
1696265272622,-0.11376953,-0.9326782,0.3024292,-1.9375,0.703125,-0.328125
1696265272666,-0.115722656,-0.92852783,0.31488037,-0.453125,0.328125,-0.328125
1696265272696,-0.12597656,-0.95391846,0.30194092,-1.65625,0.5,0.125
1696265272742,-0.10473633,-0.928772,0.3048706,-2.296875,0.71875,-1.03125
1696265272787,-0.107666016,-0.9365845,0.31170654,-1.4375,1.46875,-0.734375
1696265272816,-0.12207031,-0.94073486,0.31365967,-0.3125,0.875,0.375
1696265272862,-0.11743164,-0.93536377,0.32000732,-1.421875,-0.015625,-0.25
1696265272895,-0.1105957,-0.9368286,0.31414795,-0.4375,0.515625,-0.71875
1696265272936,-0.109375,-0.93463135,0.3126831,-1.34375,0.734375,-0.265625
1696265272982,-0.11694336,-0.9295044,0.3078003,-1.65625,0.828125,-0.078125
1696265273013,-0.110839844,-0.92852783,0.32318115,-1.234375,0.828125,-0.40625
1696265273056,-0.11767578,-0.9390259,0.31610107,-0.96875,0.59375,-0.296875
1696265273102,-0.107177734,-0.93218994,0.31072998,-1.3125,0.359375,0.1875
1696265273134,-0.11767578,-0.92633057,0.31878662,-1.15625,0.703125,-0.203125
1696265273176,-0.10620117,-0.928772,0.31488037,-1.0,0.59375,-0.609375
1696265273221,-0.11352539,-0.9265747,0.31463623,-0.640625,0.21875,-0.15625
1696265273255,-0.1081543,-0.92974854,0.3156128,-0.984375,-0.125,-0.015625
1696265273311,-0.103271484,-0.9246216,0.31707764,-0.5625,-0.015625,-0.21875
1696265273327,-0.11279297,-0.9319458,0.31292725,-1.21875,0.109375,-0.09375
1696265273371,-0.111816406,-0.9224243,0.32611084,-1.234375,0.421875,-0.25
1696265273416,-0.123291016,-0.9463501,0.31097412,-0.953125,0.21875,0.0625
1696265273448,-0.10595703,-0.927063,0.32147217,-1.6875,0.734375,-1.03125
1696265273495,-0.107666016,-0.92974854,0.31951904,-2.3125,1.8125,-0.875
1696265273536,-0.111083984,-0.92633057,0.3283081,-0.234375,0.53125,0.75
1696265273567,-0.107421875,-0.93096924,0.32611084,-1.234375,0.015625,0.125
1696265273611,-0.10229492,-0.9336548,0.32269287,-0.25,0.390625,-0.53125
1696265273642,-0.103759766,-0.93292236,0.32269287,-0.40625,-0.21875,-0.15625
1696265273686,-0.09741211,-0.9221802,0.32269287,-0.6875,0.09375,0.015625
1696265273733,-0.10839844,-0.9282837,0.32025146,-0.921875,-0.078125,0.640625
1696265273761,-0.1159668,-0.9338989,0.33050537,-0.5625,0.3125,0.53125
1696265273807,-0.1027832,-0.93585205,0.32757568,-0.359375,0.25,-0.28125
1696265273854,-0.095214844,-0.9314575,0.32366943,-1.15625,0.484375,-0.53125
1696265273881,-0.1027832,-0.92803955,0.32757568,-0.625,0.609375,0.078125
1696265273928,-0.10668945,-0.927063,0.32318115,-1.03125,0.1875,0.046875
1696265274003,-0.10839844,-0.92852783,0.32269287,-1.0625,0.625,0.0
1696265274005,-0.103027344,-0.93341064,0.3258667,-0.75,0.890625,-0.265625
1696265274047,-0.09692383,-0.9295044,0.3234253,-0.375,0.28125,-0.359375
1696265274079,-0.099365234,-0.9324341,0.3283081,-1.25,0.34375,0.015625
1696265274122,-0.10424805,-0.9326782,0.3258667,-1.828125,0.34375,0.3125
1696265274166,-0.10449219,-0.9319458,0.33172607,-0.140625,0.40625,0.015625
1696265274196,-0.09448242,-0.92926025,0.32757568,-0.890625,0.515625,-0.484375
1696265274242,-0.088134766,-0.9212036,0.31829834,-2.84375,1.125,-0.8125
1696265274287,-0.10058594,-0.9351196,0.3319702,-0.5625,0.6875,0.890625
1696265274316,-0.10131836,-0.9258423,0.33831787,-0.921875,-0.3125,0.1875
1696265274361,-0.103027344,-0.93048096,0.3307495,-1.171875,0.234375,-0.25
1696265274407,-0.09790039,-0.9338989,0.32440186,-0.734375,0.21875,0.203125
1696265274436,-0.087402344,-0.9265747,0.33416748,-1.125,0.515625,-0.453125
1696265274481,-0.09399414,-0.9290161,0.3295288,-1.75,0.484375,0.046875
1696265274511,-0.09765625,-0.9348755,0.3390503,-1.140625,0.5625,0.265625
1696265274556,-0.09423828,-0.928772,0.33831787,-1.28125,0.65625,0.0625
1696265274602,-0.095458984,-0.9378052,0.32928467,-1.453125,0.6875,-0.15625
1696265274632,-0.09057617,-0.9324341,0.33465576,-1.40625,0.5625,-0.375
1696265274677,-0.091308594,-0.9273071,0.33953857,-1.671875,0.53125,-0.234375
1696265274723,-0.09082031,-0.92388916,0.33880615,-1.078125,0.84375,-0.375
1696265274751,-0.09692383,-0.92755127,0.3348999,-2.125,0.484375,-0.28125
1696265274796,-0.092041016,-0.92681885,0.34320068,-1.703125,1.046875,-0.46875
1696265274827,-0.088378906,-0.9277954,0.33880615,-1.640625,0.859375,-0.640625
1696265274872,-0.092041016,-0.93096924,0.33465576,-2.796875,0.640625,-0.9375
1696265274917,-0.08886719,-0.92266846,0.3378296,-3.859375,0.296875,-1.203125
1696265274946,-0.08618164,-0.92437744,0.3505249,-2.34375,0.046875,-1.140625
1696265274992,-0.092285156,-0.92388916,0.34735107,-3.078125,0.15625,-1.109375
1696265275036,-0.08154297,-0.9180298,0.34710693,-4.671875,-0.078125,-1.359375
1696265275067,-0.09667969,-0.923645,0.36932373,-2.703125,-0.328125,-0.03125
1696265275112,-0.10131836,-0.9187622,0.36566162,-1.703125,-1.359375,-0.40625
1696265275157,-0.096191406,-0.92071533,0.36590576,-2.015625,-1.140625,-0.90625
1696265275186,-0.09423828,-0.913147,0.37054443,-1.203125,-0.96875,-0.375
1696265275231,-0.091552734,-0.90753174,0.3703003,-1.3125,-0.9375,-0.109375
1696265275262,-0.11279297,-0.91729736,0.36663818,-2.59375,0.171875,-0.09375
1696265275306,-0.11425781,-0.91412354,0.3805542,-0.84375,0.703125,0.0625
1696265275352,-0.111328125,-0.9265747,0.36566162,-0.9375,0.375,-0.625
1696265275381,-0.08666992,-0.9212036,0.37908936,-0.9375,1.3125,-1.75
1696265275427,-0.09277344,-0.9121704,0.37005615,-3.09375,0.765625,-0.625
1696265275471,-0.1003418,-0.8987427,0.3866577,-2.734375,0.296875,-0.0625
1696265275502,-0.114990234,-0.91363525,0.3908081,-0.359375,0.53125,-0.9375
1696265275547,-0.107666016,-0.9151001,0.37591553,0.203125,0.046875,-1.96875
1696265275576,-0.10986328,-0.9092407,0.38104248,0.609375,-0.015625,-2.203125
1696265275622,-0.09399414,-0.9053345,0.37371826,1.5625,0.53125,-1.5625
1696265275666,-0.1081543,-0.91119385,0.36883545,1.8125,-0.109375,-0.703125
1696265275696,-0.123046875,-0.9241333,0.36468506,0.078125,-1.203125,-0.4375
1696265275742,-0.095214844,-0.9229126,0.37713623,2.15625,-0.984375,-1.046875
1696265275787,-0.10522461,-0.9192505,0.3595581,2.203125,-0.921875,-0.9375
1696265275816,-0.08862305,-0.9036255,0.3517456,-0.265625,-0.375,-1.734375
1696265275861,-0.1027832,-0.9067993,0.37005615,0.484375,0.25,-1.953125
1696265275907,-0.13378906,-0.9314575,0.36102295,0.671875,-0.75,-0.53125
1696265275936,-0.1159668,-0.91851807,0.3624878,0.71875,-2.078125,-0.703125
1696265275982,-0.099121094,-0.92022705,0.35980225,1.15625,-1.390625,-1.359375
1696265276014,-0.10864258,-0.91656494,0.35101318,0.734375,-1.484375,-0.5
1696265276056,-0.115722656,-0.92193604,0.35638428,0.515625,-1.734375,-0.640625
1696265276102,-0.12207031,-0.92193604,0.3554077,0.5,-1.484375,-0.84375
1696265276133,-0.12207031,-0.9194946,0.34710693,1.640625,-2.046875,-0.578125
1696265276177,-0.12597656,-0.9151001,0.34613037,0.65625,-1.859375,-0.34375
1696265276221,-0.12426758,-0.91412354,0.34979248,1.375,-0.828125,-0.25
1696265276253,-0.13793945,-0.9314575,0.33441162,1.734375,-0.546875,-0.375
1696265276296,-0.12646484,-0.9365845,0.33758545,2.921875,-0.25,0.171875
1696265276341,-0.119384766,-0.9224243,0.3336792,2.53125,1.21875,0.265625
1696265276373,-0.11987305,-0.91973877,0.32489014,2.484375,0.78125,0.234375
1696265276416,-0.12451172,-0.92510986,0.31951904,2.125,0.625,0.59375
1696265276447,-0.12084961,-0.93634033,0.31292725,0.109375,1.125,0.21875
1696265276493,-0.11303711,-0.9378052,0.3234253,1.234375,0.859375,-0.546875
1696265276536,-0.13061523,-0.93048096,0.31488037,0.765625,0.796875,0.140625
1696265276567,-0.11743164,-0.9133911,0.3102417,-1.453125,0.578125,0.078125
1696265276611,-0.12548828,-0.940979,0.3143921,-0.46875,1.515625,0.796875
1696265276656,-0.12719727,-0.93292236,0.32025146,-0.359375,1.125,1.46875
1696265276687,-0.11791992,-0.9307251,0.31219482,-2.09375,1.703125,0.375
1696265276732,-0.11010742,-0.9319458,0.31341553,-2.15625,2.03125,0.546875
1696265276762,-0.10180664,-0.92071533,0.32635498,-1.625,2.0625,1.25
1696265276807,-0.111328125,-0.92974854,0.32635498,-1.84375,2.734375,0.84375
1696265276853,-0.12011719,-0.9302368,0.3139038,-0.109375,2.75,0.15625
1696265276881,-0.09448242,-0.92559814,0.32269287,-0.265625,2.15625,-0.703125
1696265276927,-0.07373047,-0.9385376,0.3180542,-0.296875,0.71875,-1.015625
1696265276974,-0.08154297,-0.94122314,0.3312378,0.453125,0.53125,-0.578125
1696265277001,-0.08325195,-0.9421997,0.3241577,1.25,-0.75,-0.78125
1696265277046,-0.067871094,-0.93048096,0.31341553,1.75,-0.828125,-1.640625
1696265277122,-0.07324219,-0.93536377,0.30926514,-0.328125,-2.671875,-0.28125
1696265277124,-0.10522461,-0.92755127,0.30316162,-1.734375,-4.0625,1.421875
1696265277166,-0.11230469,-0.9302368,0.30926514,-3.40625,-3.734375,2.484375
1696265277198,-0.10620117,-0.9229126,0.33758545,-1.578125,-4.015625,2.28125
1696265277242,-0.12158203,-0.944397,0.31365967,-3.109375,-3.4375,2.625
1696265277287,-0.09448242,-0.92315674,0.3283081,-3.8125,-2.5,0.390625
1696265277317,-0.099365234,-0.9265747,0.3283081,-3.515625,-0.5,0.796875
1696265277363,-0.11376953,-0.9221802,0.3295288,-1.46875,-0.609375,2.125
1696265277407,-0.111816406,-0.9326782,0.34173584,-1.328125,0.203125,0.40625
1696265277436,-0.103271484,-0.925354,0.34002686,-0.703125,2.265625,-0.484375
1696265277481,-0.09863281,-0.92974854,0.3307495,-0.734375,1.53125,-0.671875
1696265277512,-0.10668945,-0.92755127,0.32928467,-2.328125,2.578125,-1.65625
1696265277557,-0.092285156,-0.9338989,0.33587646,-0.4375,2.34375,-1.28125
1696265277601,-0.088378906,-0.94000244,0.33099365,-1.9375,2.921875,-0.96875
1696265277631,-0.08642578,-0.92559814,0.33514404,-1.71875,3.125,-1.78125
1696265277676,-0.09472656,-0.9221802,0.3378296,-2.1875,3.125,-1.546875
1696265277722,-0.09277344,-0.91851807,0.34124756,-1.5,2.734375,-1.625
1696265277751,-0.09375,-0.9307251,0.34368896,-1.015625,2.828125,-1.59375
1696265277797,-0.09008789,-0.92510986,0.3373413,-0.96875,2.34375,-1.4375
1696265277842,-0.076660156,-0.9299927,0.33953857,-1.25,2.046875,-1.921875
1696265277872,-0.080322266,-0.91290283,0.34710693,-1.015625,2.3125,-2.0625
1696265277917,-0.10180664,-0.9373169,0.3427124,-0.171875,1.421875,-0.859375
1696265277948,-0.09448242,-0.925354,0.34100342,-2.140625,1.515625,-1.0
1696265277992,-0.08325195,-0.92388916,0.34710693,-1.65625,2.109375,-2.25
1696265278037,-0.09643555,-0.92071533,0.3456421,-1.5,1.1875,-1.28125
1696265278066,-0.08984375,-0.91412354,0.3517456,-0.875,0.03125,-0.859375
1696265278112,-0.08227539,-0.9312134,0.35516357,-1.375,-0.484375,-0.71875
1696265278156,-0.087646484,-0.9390259,0.35003662,-2.171875,-1.15625,0.375
1696265278186,-0.09448242,-0.9143677,0.35101318,-1.78125,-2.5625,-0.078125
1696265278232,-0.09741211,-0.92022705,0.36053467,-2.796875,-1.125,0.03125
1696265278276,-0.10668945,-0.92437744,0.37127686,-1.671875,-0.4375,0.703125
1696265278306,-0.09448242,-0.9116821,0.3619995,-2.75,-0.3125,0.15625
1696265278351,-0.103515625,-0.9224243,0.3673706,-3.125,1.65625,-0.0625
1696265278381,-0.10864258,-0.90826416,0.3703003,-1.84375,0.9375,-1.0625
1696265278426,-0.095458984,-0.9104614,0.36395264,-1.59375,1.859375,-1.171875
1696265278471,-0.10058594,-0.91607666,0.37469482,-2.421875,1.84375,-0.6875
1696265278501,-0.103027344,-0.9138794,0.3727417,-1.46875,0.71875,-0.5625
1696265278547,-0.11254883,-0.9194946,0.37176514,-1.484375,1.328125,-0.84375
1696265278591,-0.095214844,-0.9092407,0.37982178,0.0,0.828125,-1.5
1696265278622,-0.09326172,-0.9158325,0.36175537,-1.5625,0.296875,-0.734375
1696265278666,-0.09692383,-0.913147,0.369812,-2.296875,1.6875,-1.03125
1696265278697,-0.103515625,-0.9168091,0.38787842,-1.046875,0.96875,-0.140625
1696265278742,-0.10229492,-0.90411377,0.38519287,-0.59375,0.40625,-0.65625
1696265278786,-0.10498047,-0.89678955,0.37982178,0.328125,-0.296875,-1.453125
1696265278816,-0.09790039,-0.93170166,0.37835693,1.5,-0.703125,-0.40625
1696265278861,-0.099609375,-0.9168091,0.3764038,1.640625,-1.75,0.296875
1696265278906,-0.08862305,-0.89923096,0.37005615,1.828125,-1.59375,-0.703125
1696265278936,-0.09375,-0.92437744,0.3678589,2.609375,-0.546875,-0.3125
1696265278981,-0.099853516,-0.9290161,0.35760498,1.5625,-1.171875,0.3125
1696265279027,-0.10180664,-0.92437744,0.35931396,1.890625,-1.609375,-0.59375
1696265279056,-0.10839844,-0.9036255,0.35614014,1.90625,-0.796875,-0.328125
1696265279102,-0.111328125,-0.9248657,0.34295654,2.0,-0.59375,0.375
1696265279133,-0.09082031,-0.9390259,0.34613037,1.25,-0.34375,-0.609375
1696265279176,-0.09643555,-0.9163208,0.3505249,1.671875,-0.484375,-1.0
1696265279221,-0.111572266,-0.9246216,0.33099365,0.5625,-0.59375,-0.8125
1696265279253,-0.114746094,-0.9312134,0.32806396,0.546875,-0.953125,-0.765625
1696265279297,-0.11303711,-0.91851807,0.34906006,0.3125,-0.109375,-0.234375
1696265279341,-0.115722656,-0.9324341,0.3348999,1.90625,-0.1875,-0.03125
1696265279371,-0.103271484,-0.93536377,0.33148193,0.609375,-0.484375,-0.09375
1696265279416,-0.096191406,-0.9168091,0.33709717,-0.6875,0.21875,-1.375
1696265279462,-0.11450195,-0.93048096,0.33636475,1.453125,1.03125,-0.40625
1696265279495,-0.114746094,-0.9265747,0.33099365,1.828125,-0.1875,0.09375
1696265279537,-0.1171875,-0.9312134,0.3300171,0.96875,0.046875,-0.65625
1696265279568,-0.11230469,-0.93756104,0.32489014,0.875,0.25,-0.703125
1696265279615,-0.11401367,-0.9194946,0.32025146,0.203125,0.359375,-0.546875
1696265279656,-0.11010742,-0.93536377,0.32269287,0.734375,0.484375,-1.15625
1696265279687,-0.109375,-0.9385376,0.3241577,1.203125,0.375,-0.234375
1696265279734,-0.103271484,-0.92926025,0.31658936,1.34375,-0.109375,0.046875
1696265279776,-0.099365234,-0.9258423,0.31854248,0.4375,0.046875,-0.6875
1696265279808,-0.114990234,-0.93585205,0.30755615,0.328125,0.109375,-0.484375
1696265279855,-0.11352539,-0.94244385,0.31341553,-0.625,0.15625,-0.3125
1696265279881,-0.106933594,-0.9338989,0.30999756,-1.03125,0.546875,-0.234375
1696265279927,-0.099121094,-0.9351196,0.31781006,-1.375,0.484375,-0.65625
1696265279974,-0.10180664,-0.93292236,0.31219482,-1.375,0.25,-0.53125
1696265280003,-0.111816406,-0.9282837,0.3180542,-1.328125,0.203125,-0.4375
1696265280046,-0.11401367,-0.93463135,0.32684326,-0.234375,-0.046875,0.0
1696265280091,-0.1184082,-0.93585205,0.30633545,-1.171875,0.265625,-0.234375
1696265280121,-0.09106445,-0.91607666,0.3131714,-2.1875,0.828125,-0.96875
1696265280167,-0.107910156,-0.93878174,0.31463623,-1.984375,1.1875,-0.3125
1696265280241,-0.11987305,-0.9324341,0.32684326,-0.828125,0.171875,0.46875
1696265280243,-0.10644531,-0.9312134,0.32196045,-1.84375,0.1875,-0.90625
1696265280288,-0.103759766,-0.9307251,0.324646,-0.390625,0.34375,-0.671875
1696265280316,-0.103515625,-0.9307251,0.31951904,-0.890625,0.046875,0.25
1696265280362,-0.10644531,-0.9224243,0.32513428,-1.75,0.203125,-0.59375
1696265280407,-0.11767578,-0.9351196,0.32366943,-0.65625,0.4375,-0.046875
1696265280437,-0.10668945,-0.9365845,0.31707764,-0.84375,-0.234375,0.453125
1696265280482,-0.095214844,-0.92681885,0.32440186,-1.46875,0.1875,-0.625
1696265280527,-0.10083008,-0.9221802,0.32904053,-1.1875,0.734375,-0.453125
1696265280556,-0.11254883,-0.9331665,0.3270874,-1.40625,-0.125,0.296875
1696265280602,-0.103027344,-0.9338989,0.3336792,-1.203125,0.171875,-0.71875
1696265280632,-0.09716797,-0.92437744,0.33172607,-1.96875,0.515625,-0.84375
1696265280677,-0.107910156,-0.92852783,0.32781982,-1.875,0.59375,0.0625
1696265280723,-0.1105957,-0.9351196,0.33050537,-1.96875,0.8125,0.046875
1696265280751,-0.10546875,-0.92755127,0.33172607,-2.734375,0.90625,-0.625
1696265280797,-0.09350586,-0.91607666,0.34320068,-1.84375,1.421875,-0.5625
1696265280843,-0.10961914,-0.944397,0.33441162,-1.484375,1.21875,-0.046875
1696265280871,-0.09765625,-0.92559814,0.33758545,-3.375,0.90625,-1.109375
1696265280916,-0.08935547,-0.9216919,0.34295654,-3.453125,1.984375,-1.5625
1696265280963,-0.10498047,-0.92559814,0.35321045,-0.78125,1.3125,0.0625
1696265280991,-0.10986328,-0.9209595,0.34906006,-2.015625,0.8125,-0.4375
1696265281036,-0.10058594,-0.91851807,0.35980225,-1.90625,1.671875,-1.046875
1696265281066,-0.10083008,-0.9290161,0.3517456,-1.25,1.203125,-1.171875
1696265281112,-0.09301758,-0.91900635,0.3493042,-1.9375,1.0625,-1.09375
1696265281156,-0.1003418,-0.9260864,0.3505249,-2.453125,1.34375,-0.6875
1696265281188,-0.10424805,-0.9163208,0.36175537,-1.546875,0.84375,-0.4375
1696265281232,-0.10424805,-0.9143677,0.35394287,-1.609375,0.703125,-0.609375
1696265281276,-0.09741211,-0.9151001,0.35565186,-2.1875,1.0625,-0.9375
1696265281306,-0.10131836,-0.923645,0.36102295,-1.515625,0.75,-1.140625
1696265281351,-0.10644531,-0.9192505,0.35369873,-1.484375,1.015625,-0.828125
1696265281397,-0.09741211,-0.9194946,0.35784912,-1.640625,0.40625,-0.390625
1696265281427,-0.1081543,-0.91729736,0.3607788,-1.984375,0.40625,-0.375
1696265281471,-0.10498047,-0.9163208,0.36883545,-0.75,0.640625,-0.4375
1696265281502,-0.11303711,-0.91607666,0.36566162,-1.28125,0.90625,-0.125
1696265281547,-0.10668945,-0.9143677,0.36444092,-1.453125,0.703125,-0.59375
1696265281592,-0.10131836,-0.9204712,0.36297607,-0.921875,0.984375,-1.125
1696265281621,-0.10522461,-0.90826416,0.37347412,-0.328125,0.328125,-0.390625
1696265281667,-0.11010742,-0.92559814,0.37005615,-0.734375,-0.484375,0.328125
1696265281712,-0.096191406,-0.9133911,0.37078857,-1.421875,-0.09375,-1.046875
1696265281742,-0.11450195,-0.91729736,0.36956787,0.4375,-0.03125,-0.546875
1696265281786,-0.110839844,-0.91900635,0.36932373,1.609375,-0.734375,0.15625
1696265281817,-0.09643555,-0.9146118,0.3661499,1.6875,-1.078125,-0.484375
1696265281862,-0.10253906,-0.91656494,0.35321045,1.34375,-0.484375,0.140625
1696265281907,-0.10546875,-0.9258423,0.36029053,1.890625,-0.765625,0.421875
1696265281936,-0.096191406,-0.92022705,0.3534546,1.90625,-0.8125,-0.5
1696265281981,-0.104003906,-0.9299927,0.34783936,1.140625,-0.71875,-0.75
1696265282027,-0.10620117,-0.9260864,0.35321045,1.671875,-1.1875,0.046875
1696265282057,-0.10644531,-0.92315674,0.34588623,0.984375,-1.515625,0.4375
1696265282102,-0.11376953,-0.93218994,0.34320068,1.5625,-0.84375,0.109375
1696265282147,-0.10864258,-0.9282837,0.33538818,1.921875,-0.671875,-0.375
1696265282176,-0.10644531,-0.92266846,0.3348999,1.5,-1.0625,-0.203125
1696265282221,-0.10839844,-0.92559814,0.3319702,1.21875,-0.65625,-0.125
1696265282253,-0.104003906,-0.93170166,0.32635498,1.5,-0.234375,-0.40625
1696265282296,-0.10913086,-0.9273071,0.32757568,1.375,-0.234375,-0.34375
1696265282342,-0.1105957,-0.92974854,0.32366943,0.890625,-0.078125,-0.265625
1696265282375,-0.10180664,-0.93463135,0.32757568,1.28125,-0.25,-0.125
1696265282416,-0.107421875,-0.94122314,0.3204956,0.671875,0.453125,-0.25
1696265282461,-0.10498047,-0.9216919,0.32733154,1.171875,-0.078125,0.0
1696265282491,-0.1081543,-0.93218994,0.3114624,2.0625,-0.171875,-0.109375
1696265282536,-0.09863281,-0.93463135,0.3060913,-0.375,0.3125,-0.234375
1696265282581,-0.09667969,-0.9324341,0.3156128,-0.46875,0.90625,-0.71875
1696265282614,-0.12011719,-0.9336548,0.31854248,1.859375,-0.140625,0.390625
1696265282656,-0.103759766,-0.9302368,0.3053589,0.65625,-0.359375,-0.171875
1696265282686,-0.095947266,-0.9338989,0.30511475,0.015625,-0.703125,-0.71875
1696265282735,-0.10083008,-0.93707275,0.3151245,1.078125,-0.46875,-0.3125
1696265282776,-0.09887695,-0.92633057,0.30096436,-0.453125,-0.84375,0.21875
1696265282807,-0.09863281,-0.9273071,0.30511475,-1.3125,-0.296875,-0.328125
1696265282854,-0.10620117,-0.9378052,0.30340576,-1.171875,0.34375,-0.1875
1696265282896,-0.10595703,-0.93878174,0.30804443,-1.8125,0.078125,-0.234375
1696265282926,-0.10668945,-0.9373169,0.30828857,-1.59375,0.34375,-0.40625
1696265282973,-0.09790039,-0.927063,0.3156128,-2.140625,0.515625,-0.453125
1696265283001,-0.10839844,-0.9302368,0.31121826,-1.953125,0.75,-0.65625
1696265283047,-0.10449219,-0.940979,0.31365967,-2.09375,0.625,-0.515625
1696265283093,-0.11328125,-0.9368286,0.31951904,-2.484375,0.421875,-0.53125
1696265283122,-0.10058594,-0.9314575,0.32147217,-1.9375,0.90625,-0.8125
1696265283168,-0.11035156,-0.928772,0.31219482,-2.0,0.75,-0.578125
1696265283213,-0.110839844,-0.9378052,0.31658936,-2.296875,0.265625,-0.296875
1696265283242,-0.10864258,-0.93536377,0.32147217,-1.875,0.625,-0.390625
1696265283287,-0.10595703,-0.9224243,0.3295288,-1.203125,1.0625,-0.65625
1696265283335,-0.111083984,-0.9397583,0.31781006,-0.328125,0.8125,-0.1875
1696265283362,-0.09838867,-0.92144775,0.31854248,-2.5,1.3125,-0.9375
1696265283407,-0.09472656,-0.9258423,0.3258667,-1.96875,2.0625,-1.34375
1696265283436,-0.11743164,-0.9360962,0.34100342,-0.28125,1.71875,-0.09375
1696265283481,-0.111328125,-0.9260864,0.33563232,-0.96875,1.484375,-0.53125
1696265283527,-0.10058594,-0.92755127,0.32562256,-1.671875,1.375,-0.671875
1696265283556,-0.10083008,-0.9417114,0.33392334,-0.875,1.515625,-0.546875
1696265283601,-0.10131836,-0.92852783,0.33685303,-1.140625,1.484375,-0.609375
1696265283647,-0.099121094,-0.9187622,0.33563232,-2.078125,1.75,-0.796875
1696265283676,-0.103515625,-0.92633057,0.3366089,-1.09375,1.515625,-0.625
1696265283721,-0.1015625,-0.928772,0.33514404,-0.96875,1.25,-0.3125
1696265283751,-0.092041016,-0.9234009,0.33172607,-1.375,1.234375,-0.71875
1696265283798,-0.09057617,-0.9282837,0.33343506,-1.484375,0.515625,-0.484375
1696265283842,-0.09741211,-0.92437744,0.33294678,-1.328125,0.828125,-0.125
1696265283871,-0.09375,-0.9216919,0.33880615,-1.421875,0.046875,0.109375
1696265283916,-0.09692383,-0.9258423,0.3366089,-1.71875,0.0625,0.328125
1696265283962,-0.09301758,-0.92803955,0.3361206,-1.484375,0.234375,-0.03125
1696265283991,-0.095214844,-0.9258423,0.34100342,-1.40625,0.046875,-0.21875
1696265284036,-0.095214844,-0.91656494,0.35198975,-1.71875,0.421875,0.03125
1696265284082,-0.095703125,-0.9314575,0.34710693,-1.671875,0.625,-0.140625
1696265284111,-0.09887695,-0.9277954,0.340271,-1.96875,0.96875,-0.53125
1696265284157,-0.09838867,-0.9146118,0.35369873,-1.421875,1.1875,-0.46875
1696265284186,-0.10620117,-0.925354,0.34344482,-2.484375,0.8125,-0.140625
1696265284232,-0.0925293,-0.9168091,0.35198975,-3.90625,1.671875,-1.5625
1696265284276,-0.1015625,-0.92803955,0.35980225,-1.859375,2.28125,-0.84375
1696265284307,-0.11010742,-0.9102173,0.36932373,-1.171875,1.40625,-0.203125
1696265284367,-0.091308594,-0.91851807,0.36297607,-1.375,1.5625,-1.09375
1696265284397,-0.091552734,-0.9307251,0.36029053,-0.765625,2.125,-1.328125
1696265284426,-0.09008789,-0.9241333,0.3554077,0.140625,1.75,-1.328125
1696265284472,-0.083740234,-0.90753174,0.3534546,-1.15625,1.625,-1.75
1696265284547,-0.08203125,-0.92022705,0.35443115,-1.21875,1.75,-1.8125
1696265284550,-0.0871582,-0.9229126,0.35882568,-0.703125,0.6875,-1.265625
1696265284591,-0.08886719,-0.9168091,0.35760498,-1.6875,-0.21875,-1.140625
1696265284621,-0.09448242,-0.9158325,0.3583374,-2.265625,0.140625,-0.953125
1696265284666,-0.09863281,-0.9277954,0.36761475,-2.296875,-0.328125,-0.578125
1696265284713,-0.10180664,-0.92071533,0.37005615,-2.46875,-0.078125,-0.796875
1696265284742,-0.09814453,-0.9121704,0.3673706,-2.359375,-0.640625,-0.921875
1696265284787,-0.10253906,-0.9146118,0.37249756,-1.6875,-0.796875,-1.140625
1696265284832,-0.09667969,-0.91607666,0.37078857,-0.609375,-1.578125,-0.59375
1696265284862,-0.100097656,-0.90948486,0.37078857,0.609375,-1.9375,-0.6875
1696265284907,-0.1003418,-0.91534424,0.36883545,1.171875,-1.6875,-0.328125
1696265284936,-0.123535156,-0.913147,0.36712646,1.46875,-2.453125,0.296875
1696265284982,-0.1184082,-0.91534424,0.37542725,2.484375,-2.65625,0.65625
1696265285027,-0.12084961,-0.92437744,0.3607788,2.234375,-2.515625,0.828125
1696265285056,-0.106933594,-0.9104614,0.3517456,1.828125,-1.640625,-0.78125
1696265285101,-0.11401367,-0.9194946,0.34661865,2.203125,-0.46875,-0.421875
1696265285147,-0.123535156,-0.927063,0.35516357,2.671875,-0.640625,-0.09375
1696265285176,-0.114746094,-0.9229126,0.34490967,2.328125,-0.21875,-0.640625
1696265285222,-0.1027832,-0.9248657,0.3366089,1.921875,-0.140625,-0.84375
1696265285267,-0.11987305,-0.9282837,0.34222412,1.6875,0.15625,-0.75
1696265285297,-0.12133789,-0.9258423,0.32904053,1.21875,-0.015625,-0.234375
1696265285341,-0.1171875,-0.9175415,0.34075928,0.921875,0.390625,-0.296875
1696265285371,-0.111572266,-0.9248657,0.32806396,1.671875,0.90625,-0.53125
1696265285416,-0.10424805,-0.9302368,0.3139038,1.546875,0.0625,-0.4375
1696265285462,-0.10620117,-0.9312134,0.3300171,1.15625,-0.34375,-0.265625
1696265285494,-0.10083008,-0.93096924,0.32928467,1.53125,0.171875,0.125
1696265285536,-0.107177734,-0.9343872,0.31610107,2.0625,0.0,0.1875
1696265285582,-0.114746094,-0.9314575,0.31341553,1.265625,-0.6875,0.140625
1696265285613,-0.09692383,-0.9365845,0.31121826,1.234375,-1.171875,0.140625
1696265285657,-0.099609375,-0.9480591,0.31243896,0.40625,-0.984375,0.71875
1696265285701,-0.10253906,-0.9368286,0.31170654,-0.171875,-1.84375,0.390625
1696265285733,-0.10986328,-0.93170166,0.3085327,-0.171875,-2.09375,-0.234375
1696265285776,-0.12060547,-0.9331665,0.32122803,2.15625,-1.59375,0.0625
1696265285807,-0.12451172,-0.94122314,0.29608154,1.453125,-1.625,0.65625
1696265285853,-0.11206055,-0.9368286,0.2921753,-1.6875,-1.328125,0.171875
1696265285896,-0.10913086,-0.93707275,0.307312,-1.046875,-0.234375,-0.1875
1696265285927,-0.12475586,-0.9307251,0.30584717,-0.453125,-0.390625,0.4375
1696265285974,-0.10888672,-0.9282837,0.2982788,-2.140625,-0.171875,-0.28125
1696265286017,-0.111816406,-0.93096924,0.29974365,-2.25,0.109375,-0.375
1696265286046,-0.11206055,-0.9390259,0.31243896,-0.734375,0.046875,0.625
1696265286094,-0.10449219,-0.9180298,0.307312,-1.09375,0.234375,0.21875
1696265286121,-0.119628906,-0.92633057,0.31732178,-0.78125,1.25,-0.921875
1696265286166,-0.12060547,-0.94488525,0.31414795,1.1875,1.8125,-0.4375
1696265286212,-0.115478516,-0.954895,0.307312,0.203125,1.859375,-0.34375
1696265286256,-0.103759766,-0.93707275,0.30194092,-0.734375,2.265625,-1.0
1696265286287,-0.103271484,-0.9290161,0.29901123,-0.78125,2.46875,-0.96875
1696265286334,-0.1081543,-0.94000244,0.307312,-1.1875,2.3125,-1.0625
1696265286362,-0.0949707,-0.9390259,0.31170654,-1.71875,2.15625,-1.375
1696265286407,-0.10229492,-0.9343872,0.31781006,-1.203125,1.734375,-1.390625
1696265286452,-0.1003418,-0.92926025,0.30389404,-0.921875,1.234375,-1.3125
1696265286482,-0.10595703,-0.93414307,0.29901123,-1.390625,1.0,-1.28125
1696265286527,-0.09863281,-0.9331665,0.32025146,-0.828125,0.859375,-0.859375
1696265286556,-0.10449219,-0.9421997,0.3053589,-0.4375,0.28125,-0.140625
1696265286602,-0.09643555,-0.9378052,0.2982788,-2.703125,0.53125,-0.953125
1696265286647,-0.100097656,-0.93096924,0.31488037,-2.359375,0.859375,-0.984375
1696265286676,-0.1237793,-0.9331665,0.3241577,-1.046875,0.359375,0.1875
1696265286722,-0.107910156,-0.9385376,0.30926514,-2.21875,-0.40625,-0.546875
1696265286767,-0.10180664,-0.9338989,0.3192749,-1.203125,0.015625,-0.75
1696265286797,-0.11230469,-0.93292236,0.3143921,-1.234375,-0.15625,-0.21875
1696265286842,-0.10620117,-0.9194946,0.31707764,-1.421875,-0.546875,-0.078125
1696265286871,-0.11791992,-0.9326782,0.3192749,-1.953125,-0.125,-0.1875
1696265286917,-0.12841797,-0.9324341,0.322937,-1.265625,0.09375,0.390625
1696265286962,-0.107421875,-0.92755127,0.3156128,-1.390625,0.1875,-0.140625
1696265286992,-0.10107422,-0.92803955,0.32391357,-1.8125,0.828125,-0.671875
1696265287037,-0.10546875,-0.9290161,0.32611084,-2.0,0.734375,-0.28125
1696265287082,-0.10864258,-0.9241333,0.3222046,-2.375,0.4375,0.5
1696265287111,-0.10498047,-0.93170166,0.3366089,-2.28125,1.015625,0.0625
1696265287157,-0.11206055,-0.92803955,0.33270264,-1.28125,0.734375,-0.28125
1696265287202,-0.10131836,-0.9246216,0.3319702,-1.5625,0.5625,-0.078125
1696265287232,-0.09814453,-0.9312134,0.33221436,-2.734375,1.609375,-0.3125
1696265287295,-0.09838867,-0.9204712,0.34857178,-1.5625,1.34375,0.65625
1696265287307,-0.103027344,-0.93634033,0.33587646,-2.46875,0.890625,1.046875
1696265287351,-0.0871582,-0.91973877,0.3366089,-4.015625,1.53125,-0.765625
1696265287397,-0.10449219,-0.9246216,0.3529663,-2.234375,2.078125,0.25
1696265287426,-0.103027344,-0.9277954,0.354187,-1.765625,1.40625,0.484375
1696265287471,-0.08984375,-0.9209595,0.35272217,-1.609375,1.25,-1.0625
1696265287517,-0.09643555,-0.9224243,0.34246826,-1.53125,1.171875,-0.359375
1696265287546,-0.0949707,-0.92266846,0.35931396,-1.171875,1.34375,-0.046875
1696265287591,-0.09106445,-0.9151001,0.3546753,-1.8125,1.859375,-1.234375
1696265287667,-0.095214844,-0.928772,0.35784912,-1.515625,1.625,-0.6875
1696265287671,-0.1027832,-0.91900635,0.3554077,-1.71875,0.765625,-0.09375
1696265287712,-0.095947266,-0.9246216,0.35858154,-1.640625,1.46875,-1.171875
1696265287741,-0.09765625,-0.9194946,0.355896,-1.796875,1.671875,-1.25
1696265287786,-0.10498047,-0.92266846,0.35638428,-2.0,0.75,-1.0
1696265287832,-0.08935547,-0.92071533,0.3632202,-0.96875,-0.109375,-1.71875
1696265287862,-0.08544922,-0.91290283,0.3632202,-1.484375,-0.703125,-1.828125
1696265287907,-0.08935547,-0.91412354,0.3624878,-1.390625,-1.15625,-1.171875
1696265287952,-0.10864258,-0.92633057,0.35858154,-1.09375,-1.734375,-0.40625
1696265287982,-0.10668945,-0.9168091,0.371521,0.796875,-2.4375,-0.609375
1696265288027,-0.11694336,-0.9216919,0.35906982,1.484375,-2.09375,-0.609375
1696265288057,-0.1027832,-0.91192627,0.34979248,0.6875,-1.125,-0.953125
1696265288101,-0.10205078,-0.91778564,0.35931396,0.5625,0.140625,-0.625
1696265288147,-0.12817383,-0.93536377,0.36346436,2.0625,-0.328125,0.125
1696265288176,-0.11376953,-0.9194946,0.35247803,1.625,-1.015625,-0.6875
1696265288221,-0.10083008,-0.91656494,0.34735107,2.0,-0.546875,-1.015625
1696265288267,-0.1015625,-0.9143677,0.34344482,1.984375,-0.75,-0.265625
1696265288297,-0.10668945,-0.9209595,0.3414917,1.90625,-0.765625,-0.09375
1696265288341,-0.119384766,-0.928772,0.34197998,1.546875,-0.09375,-0.25
1696265288386,-0.114990234,-0.93414307,0.33416748,2.484375,-0.375,-0.328125
1696265288416,-0.107177734,-0.9241333,0.3204956,0.640625,-0.625,0.015625
1696265288461,-0.103271484,-0.91729736,0.33319092,0.71875,0.046875,-0.515625
1696265288494,-0.110839844,-0.9314575,0.32147217,0.875,0.515625,-0.234375
1696265288536,-0.114990234,-0.9312134,0.3300171,1.3125,-0.484375,0.0
1696265288582,-0.110839844,-0.9326782,0.32659912,1.125,-0.515625,-0.046875
1696265288612,-0.11206055,-0.92852783,0.31903076,0.828125,0.125,-0.28125
1696265288657,-0.10986328,-0.93048096,0.3143921,0.234375,0.140625,-0.25
1696265288701,-0.10595703,-0.9314575,0.3270874,1.453125,0.0,-0.09375
1696265288735,-0.11450195,-0.93463135,0.29901123,-1.453125,0.3125,-0.109375
1696265288776,-0.09350586,-0.9260864,0.3151245,-3.0625,0.25,-1.171875
1696265288822,-0.11401367,-0.9326782,0.32025146,-1.28125,0.8125,-0.5625
1696265288853,-0.1081543,-0.9307251,0.3222046,-1.21875,-0.09375,0.296875
1696265288911,-0.09375,-0.93096924,0.31732178,-2.8125,-0.671875,-0.5625
1696265288928,-0.08886719,-0.92755127,0.31878662,-2.0625,-1.65625,-0.234375
1696265288973,-0.09667969,-0.92559814,0.32684326,-1.3125,-2.0625,0.3125
1696265289017,-0.1171875,-0.93096924,0.32855225,-2.890625,-1.78125,0.40625
1696265289047,-0.125,-0.92803955,0.34075928,-2.15625,-2.4375,0.90625
1696265289094,-0.10961914,-0.9224243,0.3439331,-1.734375,-1.6875,-0.40625
1696265289136,-0.10839844,-0.9360962,0.34368896,-0.859375,-1.203125,-0.8125
1696265289167,-0.1303711,-0.9216919,0.340271,-1.390625,-0.6875,0.5
1696265289217,-0.12719727,-0.92193604,0.33587646,-2.75,0.328125,0.671875
1696265289242,-0.13256836,-0.9421997,0.33685303,-2.515625,1.53125,-0.140625
1696265289287,-0.118652344,-0.9265747,0.3475952,-1.78125,2.078125,-0.3125
1696265289347,-0.106933594,-0.923645,0.3414917,-3.609375,2.265625,-0.78125
1696265289362,-0.10229492,-0.92510986,0.3517456,-2.734375,1.625,-1.4375
1696265289406,-0.12158203,-0.92681885,0.34906006,-1.703125,0.625,-1.609375
1696265289455,-0.10668945,-0.91656494,0.34490967,-4.078125,1.234375,-2.375
1696265289481,-0.12084961,-0.91607666,0.3517456,-2.75,3.171875,-2.4375
1696265289527,-0.1274414,-0.9180298,0.36224365,-0.546875,2.4375,-0.921875
1696265289573,-0.11206055,-0.9234009,0.3649292,-0.8125,2.296875,-0.984375
1696265289602,-0.09057617,-0.911438,0.35858154,-0.53125,0.8125,-0.90625
1696265289647,-0.087646484,-0.91656494,0.35247803,-0.96875,0.515625,-0.796875
1696265289677,-0.10083008,-0.93170166,0.34222412,-1.921875,0.078125,-1.15625
1696265289721,-0.115722656,-0.9312134,0.35809326,-1.390625,-0.984375,-0.484375
1696265289767,-0.11669922,-0.91192627,0.3619995,-0.765625,-0.515625,-0.828125
1696265289797,-0.115722656,-0.9151001,0.35150146,-1.53125,-0.375,-0.171875
1696265289842,-0.118652344,-0.9060669,0.3624878,-0.828125,-0.359375,0.671875
1696265289886,-0.11816406,-0.92193604,0.3595581,-0.875,0.40625,0.984375
1696265289917,-0.11450195,-0.9182739,0.37078857,0.359375,0.90625,0.421875
1696265289962,-0.12011719,-0.9146118,0.36810303,0.640625,1.859375,0.765625
1696265289992,-0.114746094,-0.91192627,0.35150146,-1.03125,1.1875,-0.1875
1696265290037,-0.09448242,-0.91119385,0.36761475,-0.015625,1.59375,-0.796875
1696265290082,-0.11621094,-0.93585205,0.35858154,-1.515625,1.078125,0.109375
1696265290111,-0.10839844,-0.91485596,0.3607788,-3.6875,1.328125,-0.9375
1696265290156,-0.103515625,-0.9158325,0.36566162,-3.484375,2.015625,-1.453125
1696265290201,-0.12890625,-0.9072876,0.3727417,-2.375,1.1875,0.25
1696265290232,-0.12133789,-0.9024048,0.37493896,-3.4375,0.984375,-0.328125
1696265290276,-0.103027344,-0.90997314,0.38079834,-4.03125,1.453125,-1.640625
1696265290322,-0.10668945,-0.9121704,0.38250732,-3.515625,-0.03125,-0.890625
1696265290352,-0.11254883,-0.90460205,0.38739014,-3.421875,2.78125,-1.5625
1696265290396,-0.13085938,-0.8936157,0.39569092,-1.4375,3.078125,-1.234375
1696265290427,-0.1274414,-0.8855591,0.38568115,-0.328125,3.28125,-1.125
1696265290471,-0.10498047,-0.90631104,0.3912964,2.015625,4.78125,-2.390625
1696265290518,-0.08300781,-0.94610596,0.37957764,5.6875,4.015625,-3.5
1696265290546,-0.07470703,-0.9326782,0.37908936,5.578125,2.96875,-4.234375
1696265290592,-0.05419922,-0.8928833,0.34417725,2.1875,-2.65625,-0.984375
1696265290636,-0.072265625,-0.92266846,0.35125732,-0.21875,-2.296875,-0.90625
1696265290667,-0.10839844,-0.9417114,0.34857178,-0.296875,-1.59375,1.421875
1696265290712,-0.12841797,-0.9319458,0.3546753,-3.1875,-4.0625,2.765625
1696265290786,-0.10888672,-0.91070557,0.36468506,-3.703125,-4.953125,2.703125
1696265290789,-0.11279297,-0.91534424,0.36810303,-3.90625,-5.125,3.296875
1696265290832,-0.12158203,-0.92071533,0.36395264,-4.46875,-3.890625,2.734375
1696265290861,-0.12133789,-0.91363525,0.3842163,-3.09375,-2.40625,1.65625
1696265290907,-0.13598633,-0.90631104,0.39398193,-1.78125,-1.890625,0.8125
1696265290952,-0.13256836,-0.90093994,0.37957764,-0.859375,-1.03125,-0.453125
1696265290982,-0.1274414,-0.9026489,0.38323975,0.609375,0.109375,-0.546875
1696265291027,-0.12670898,-0.9175415,0.38275146,0.46875,0.78125,-0.6875
1696265291071,-0.122558594,-0.9065552,0.37347412,0.265625,0.203125,-1.203125
1696265291101,-0.12768555,-0.9053345,0.39178467,3.03125,1.078125,-1.421875
1696265291147,-0.123291016,-0.9212036,0.37054443,3.390625,1.1875,-1.390625
1696265291176,-0.1184082,-0.92559814,0.3583374,2.53125,1.328125,-1.796875
1696265291221,-0.10180664,-0.90875244,0.355896,2.15625,2.3125,-1.703125
1696265291267,-0.103027344,-0.9138794,0.3463745,1.921875,2.390625,-2.359375
1696265291296,-0.12719727,-0.9368286,0.3414917,2.234375,1.78125,-1.296875
1696265291342,-0.11401367,-0.92633057,0.35784912,1.515625,2.015625,-0.96875
1696265291386,-0.09106445,-0.9143677,0.34661865,1.96875,2.84375,-0.671875
1696265291417,-0.092041016,-0.9163208,0.33392334,1.78125,2.890625,-0.890625
1696265291461,-0.09423828,-0.91192627,0.35150146,2.015625,1.765625,-0.390625
1696265291506,-0.11376953,-0.93878174,0.33416748,2.421875,0.4375,0.859375
1696265291536,-0.096191406,-0.93341064,0.32611084,0.5625,1.109375,-0.359375
1696265291581,-0.084228516,-0.93170166,0.3300171,1.125,0.4375,-0.8125
1696265291614,-0.1105957,-0.9326782,0.32733154,1.140625,-1.140625,1.015625
1696265291658,-0.092041016,-0.9319458,0.33050537,1.125,-1.875,1.03125
1696265291701,-0.08666992,-0.9307251,0.3283081,0.21875,-2.703125,0.984375
1696265291731,-0.10522461,-0.93536377,0.3283081,0.359375,-3.109375,1.484375
1696265291777,-0.11352539,-0.9180298,0.32000732,0.796875,-2.46875,0.984375
1696265291822,-0.119140625,-0.92974854,0.3234253,1.25,-2.53125,1.109375
1696265291854,-0.11352539,-0.9314575,0.31976318,0.734375,-1.9375,0.890625
1696265291897,-0.09790039,-0.9246216,0.3192749,0.984375,-1.75,-0.28125
1696265291942,-0.111816406,-0.92633057,0.31170654,0.96875,-1.0,0.125
1696265291973,-0.12060547,-0.9314575,0.309021,0.03125,-1.296875,-0.546875
1696265292017,-0.109375,-0.93218994,0.3163452,-0.109375,-0.71875,-1.234375
1696265292047,-0.10571289,-0.9331665,0.31195068,-0.0625,-0.203125,-1.25
1696265292093,-0.111083984,-0.9385376,0.30828857,-1.25,0.265625,-1.125
1696265292137,-0.11669922,-0.93096924,0.31756592,-1.765625,0.6875,-0.984375
1696265292167,-0.11401367,-0.9348755,0.32635498,0.46875,0.765625,-1.0625
1696265292214,-0.11425781,-0.9385376,0.30413818,-2.234375,1.125,-1.296875
1696265292256,-0.10864258,-0.9282837,0.31658936,-2.296875,1.71875,-2.15625
1696265292287,-0.115722656,-0.9331665,0.32855225,-0.296875,1.609375,-1.03125
1696265292334,-0.111328125,-0.93218994,0.32806396,-0.71875,0.296875,-0.609375
1696265292362,-0.11669922,-0.93878174,0.31951904,-1.875,0.125,-0.625
1696265292407,-0.107666016,-0.94073486,0.32000732,-1.296875,0.171875,-0.8125
1696265292455,-0.103027344,-0.9290161,0.32855225,-1.484375,-0.015625,-1.0625
1696265292482,-0.1171875,-0.92437744,0.32269287,-1.671875,0.15625,-0.09375
1696265292527,-0.12231445,-0.9429321,0.3307495,-0.5,-0.15625,0.609375
1696265292573,-0.11401367,-0.9295044,0.32611084,-0.640625,-0.625,-0.734375
1696265292602,-0.119140625,-0.9234009,0.3217163,-1.125,-0.203125,-0.671875
1696265292647,-0.1159668,-0.93096924,0.3204956,-0.828125,-0.0625,0.15625
1696265292693,-0.13378906,-0.93585205,0.3217163,-1.015625,0.015625,0.0
1696265292721,-0.118896484,-0.923645,0.33026123,-0.953125,0.28125,-0.140625
1696265292767,-0.111572266,-0.9290161,0.32904053,-0.71875,0.40625,0.125
1696265292797,-0.119384766,-0.94122314,0.32366943,-1.390625,1.0625,0.046875
1696265292841,-0.12036133,-0.9163208,0.3366089,-0.375,0.546875,-0.625
1696265292887,-0.12573242,-0.9307251,0.32073975,-0.1875,0.859375,0.34375
1696265292916,-0.10668945,-0.9204712,0.31292725,-1.203125,2.078125,-0.765625
1696265292962,-0.103515625,-0.93707275,0.32513428,0.515625,2.0625,-0.5
1696265293008,-0.119384766,-0.93829346,0.32000732,0.234375,1.640625,0.75
1696265293036,-0.11352539,-0.9338989,0.32366943,-1.359375,0.734375,0.296875
1696265293083,-0.10424805,-0.92315674,0.32513428,-0.328125,1.3125,-0.625
1696265293112,-0.11694336,-0.9348755,0.324646,-0.390625,1.3125,-0.078125
1696265293156,-0.10546875,-0.925354,0.32806396,-1.328125,1.265625,-0.1875
1696265293201,-0.10083008,-0.93829346,0.33270264,-0.203125,0.8125,-0.4375
1696265293232,-0.103759766,-0.93170166,0.32122803,-0.796875,0.6875,0.125
1696265293277,-0.1027832,-0.92633057,0.32977295,-1.046875,0.609375,0.03125
1696265293322,-0.11303711,-0.93414307,0.3270874,-1.53125,0.8125,-0.265625
1696265293352,-0.107910156,-0.92803955,0.3319702,-1.671875,1.09375,-0.796875
1696265293397,-0.10229492,-0.92755127,0.32635498,-1.28125,1.0625,-1.296875
1696265293442,-0.10571289,-0.9331665,0.33538818,-0.875,1.140625,-1.25
1696265293472,-0.100097656,-0.9290161,0.33221436,-1.21875,0.671875,-1.390625
1696265293517,-0.09838867,-0.93292236,0.33319092,-1.59375,0.859375,-0.625
1696265293546,-0.10131836,-0.9234009,0.33148193,-1.5,0.71875,-1.4375
1696265293591,-0.10644531,-0.92388916,0.3361206,-1.0,-0.0625,-1.25
1696265293637,-0.11743164,-0.93951416,0.32904053,-2.03125,-0.046875,-0.25
1696265293667,-0.103759766,-0.91778564,0.32977295,-3.25,0.6875,-2.0
1696265293712,-0.107910156,-0.9229126,0.34710693,-1.90625,1.78125,-1.671875
1696265293756,-0.12036133,-0.9248657,0.34735107,-0.765625,1.203125,-0.703125
1696265293786,-0.11328125,-0.9182739,0.3451538,-0.96875,0.75,-1.46875
1696265293831,-0.10546875,-0.9380493,0.3373413,0.53125,1.28125,-0.9375
1696265293876,-0.103271484,-0.92681885,0.33587646,0.21875,1.0625,0.328125
1696265293907,-0.11328125,-0.9168091,0.33636475,-1.09375,1.40625,-0.109375
1696265293955,-0.12182617,-0.92266846,0.34881592,-0.5,2.078125,-1.453125
1696265293981,-0.12231445,-0.9221802,0.3287964,-0.640625,2.296875,-1.46875
1696265294027,-0.11010742,-0.9155884,0.34344482,-1.25,1.9375,-1.359375
1696265294071,-0.109375,-0.9192505,0.3439331,-0.796875,2.4375,-1.1875
1696265294102,-0.10839844,-0.9246216,0.3414917,-0.03125,1.5,-0.78125
1696265294147,-0.11816406,-0.91973877,0.3451538,-0.46875,2.21875,-0.640625
1696265294193,-0.111083984,-0.9077759,0.34222412,-1.109375,2.171875,-0.9375
1696265294221,-0.115722656,-0.92193604,0.34002686,-1.125,2.4375,-0.921875
1696265294267,-0.1262207,-0.9273071,0.3439331,-0.8125,2.59375,-0.9375
1696265294296,-0.119628906,-0.9295044,0.3505249,-0.546875,2.765625,-1.171875
1696265294342,-0.10986328,-0.9234009,0.35101318,-0.375,3.140625,-1.296875
1696265294386,-0.10546875,-0.9126587,0.338562,-0.734375,3.0,-1.234375
1696265294416,-0.11230469,-0.9331665,0.34246826,-0.046875,2.28125,-1.09375
1696265294461,-0.09765625,-0.92755127,0.33392334,-1.328125,1.890625,-1.109375
1696265294506,-0.096191406,-0.9212036,0.33953857,-1.46875,1.921875,-1.34375
1696265294552,-0.11376953,-0.92633057,0.3468628,0.046875,1.671875,0.046875
1696265294582,-0.1184082,-0.9234009,0.3456421,-0.21875,0.78125,-0.265625
1696265294627,-0.10888672,-0.9204712,0.34417725,-0.09375,0.09375,-1.015625
1696265294656,-0.095947266,-0.92852783,0.33758545,0.5625,-0.0625,-0.875
1696265294701,-0.09643555,-0.92926025,0.34490967,1.109375,-0.484375,-0.578125
1696265294732,-0.10644531,-0.9234009,0.33221436,0.625,-1.078125,-0.203125
1696265294777,-0.11816406,-0.9258423,0.3307495,1.234375,-1.53125,-0.453125
1696265294821,-0.114746094,-0.9343872,0.33099365,1.515625,-1.5625,-0.40625
1696265294854,-0.111816406,-0.93463135,0.32635498,1.78125,-1.328125,-0.21875
1696265294896,-0.095947266,-0.92803955,0.31951904,1.03125,-0.40625,-0.65625
1696265294942,-0.107421875,-0.92559814,0.31878662,1.171875,-0.703125,-0.625
1696265294973,-0.11206055,-0.9307251,0.31585693,0.6875,-0.25,-0.90625
1696265295017,-0.115722656,-0.9380493,0.31610107,0.484375,-0.578125,-0.78125
1696265295062,-0.11303711,-0.9331665,0.31243896,0.984375,-0.59375,-0.375
1696265295094,-0.110839844,-0.93414307,0.31781006,0.8125,-0.484375,-0.46875
1696265295137,-0.11376953,-0.93292236,0.30975342,0.375,-0.171875,-0.96875
1696265295167,-0.11621094,-0.93634033,0.30804443,0.859375,-0.375,-0.546875
1696265295214,-0.123291016,-0.9390259,0.30804443,0.609375,-0.140625,-0.203125
1696265295256,-0.123046875,-0.9290161,0.31219482,1.140625,-0.234375,-0.140625
1696265295287,-0.11621094,-0.94415283,0.30438232,1.28125,-0.1875,-0.078125
1696265295335,-0.10961914,-0.9282837,0.29437256,-0.921875,0.109375,-0.125
1696265295377,-0.11376953,-0.94000244,0.30706787,-0.140625,0.765625,-0.75
1696265295407,-0.123535156,-0.9417114,0.31585693,1.34375,0.234375,0.234375
1696265295452,-0.114990234,-0.93292236,0.29534912,0.640625,-0.234375,-0.078125
1696265295481,-0.10888672,-0.94122314,0.29803467,0.34375,0.015625,-0.640625
1696265295528,-0.12011719,-0.93878174,0.3012085,1.03125,-0.015625,-0.234375
1696265295572,-0.11230469,-0.92852783,0.29266357,0.625,-0.375,-0.296875
1696265295603,-0.11401367,-0.93951416,0.29779053,0.15625,0.453125,-0.484375
1696265295647,-0.114746094,-0.9421997,0.29193115,0.8125,0.078125,-0.28125
1696265295692,-0.10986328,-0.93756104,0.29559326,-0.140625,-0.25,-0.15625
1696265295722,-0.114746094,-0.93463135,0.29486084,-0.03125,-0.078125,-0.4375
1696265295767,-0.1171875,-0.94488525,0.29559326,-0.234375,-0.0625,-0.296875
1696265295813,-0.11230469,-0.94366455,0.28851318,-0.5,0.109375,-0.171875
1696265295842,-0.10864258,-0.9417114,0.2909546,-0.9375,0.296875,-0.203125
1696265295887,-0.11694336,-0.9365845,0.29193115,-0.9375,0.359375,-0.34375
1696265295917,-0.11010742,-0.94195557,0.2904663,-0.96875,0.171875,-0.15625
1696265295962,-0.10913086,-0.93756104,0.29901123,-1.046875,0.40625,-0.265625
1696265296007,-0.1105957,-0.9429321,0.29656982,-0.828125,0.265625,-0.078125
1696265296038,-0.11450195,-0.9378052,0.2909546,-0.984375,0.296875,-0.21875
1696265296083,-0.114990234,-0.94195557,0.28826904,-1.390625,0.484375,-0.28125
1696265296128,-0.115234375,-0.9356079,0.2994995,-0.171875,0.46875,-0.484375
1696265296157,-0.11621094,-0.94659424,0.28240967,-0.671875,0.453125,-0.21875
1696265296201,-0.10522461,-0.92852783,0.28631592,-2.828125,1.0,-0.921875
1696265296232,-0.114746094,-0.94415283,0.2982788,-1.140625,1.15625,-0.890625
1696265296277,-0.11352539,-0.93927,0.30926514,-0.34375,0.328125,0.15625
1696265296321,-0.1105957,-0.93951416,0.29681396,-1.390625,0.484375,-0.65625
1696265296352,-0.110839844,-0.93634033,0.29266357,-0.84375,0.15625,-0.75
1696265296397,-0.11206055,-0.9390259,0.30194092,-0.359375,-0.125,-0.359375
1696265296441,-0.110839844,-0.9290161,0.29071045,-1.25,-0.140625,-0.515625
1696265296472,-0.118652344,-0.93634033,0.30096436,-0.71875,0.203125,-0.546875
1696265296516,-0.115722656,-0.93707275,0.2987671,-0.328125,0.03125,-0.09375
1696265296562,-0.11328125,-0.94000244,0.30023193,-0.859375,0.046875,-0.34375
1696265296591,-0.11303711,-0.9348755,0.3007202,-0.96875,0.21875,-0.671875
1696265296637,-0.114990234,-0.93829346,0.29901123,-0.984375,0.328125,-0.46875
1696265296667,-0.11645508,-0.9326782,0.2999878,-0.765625,0.375,-0.359375
1696265296712,-0.115234375,-0.9326782,0.3024292,-0.84375,0.1875,-0.53125
1696265296757,-0.115234375,-0.93878174,0.30413818,-0.5,0.359375,-0.296875
1696265296787,-0.11816406,-0.940979,0.29925537,-0.765625,0.390625,-0.421875
1696265296832,-0.10961914,-0.9326782,0.3007202,-0.796875,0.484375,-0.421875
1696265296878,-0.114990234,-0.9404907,0.30389404,-0.578125,0.625,-0.546875
1696265296907,-0.10986328,-0.93878174,0.29681396,-0.75,0.921875,-0.515625
1696265296952,-0.11035156,-0.93756104,0.30267334,-1.1875,0.890625,-0.515625
1696265296997,-0.114746094,-0.93756104,0.30413818,-0.03125,0.859375,-0.671875
1696265297027,-0.10473633,-0.93707275,0.291687,-0.859375,0.390625,0.0
1696265297072,-0.10668945,-0.9351196,0.3007202,-2.453125,1.078125,-0.9375
1696265297102,-0.12597656,-0.9456177,0.309021,-0.359375,0.9375,0.25
1696265297147,-0.119140625,-0.92510986,0.30999756,-0.390625,0.203125,0.03125
1696265297192,-0.11376953,-0.9397583,0.29632568,-0.921875,0.390625,-0.53125
1696265297223,-0.11010742,-0.9348755,0.30511475,-0.765625,0.265625,-0.078125
1696265297267,-0.111328125,-0.9312134,0.3060913,-0.609375,0.703125,-0.09375
1696265297312,-0.115234375,-0.9314575,0.29925537,-1.578125,0.734375,-0.65625
1696265297341,-0.11303711,-0.93463135,0.31195068,-0.21875,0.609375,-0.40625
1696265297387,-0.115478516,-0.9360962,0.30633545,-0.390625,0.796875,0.078125
1696265297416,-0.099609375,-0.9260864,0.30413818,-0.5625,0.578125,-0.09375
1696265297461,-0.11401367,-0.9360962,0.30511475,0.25,0.84375,-0.171875
1696265297506,-0.111328125,-0.9348755,0.30511475,-0.203125,0.9375,0.75
1696265297537,-0.106933594,-0.9302368,0.30218506,0.078125,1.78125,0.03125
1696265297581,-0.110839844,-0.9326782,0.30023193,0.171875,1.78125,-0.296875
1696265297626,-0.106933594,-0.93707275,0.30023193,-0.34375,2.484375,0.09375
1696265297656,-0.10498047,-0.9373169,0.30950928,-0.484375,2.578125,0.296875
1696265297701,-0.11206055,-0.93096924,0.30169678,-0.40625,3.21875,-0.28125
1696265297747,-0.11621094,-0.92755127,0.30755615,-0.671875,3.5,0.1875
1696265297777,-0.1027832,-0.93048096,0.3048706,0.140625,3.875,-0.171875
1696265297821,-0.09106445,-0.9290161,0.3060913,0.28125,4.3125,-0.21875
1696265297854,-0.09301758,-0.9480591,0.29412842,1.25,4.09375,-0.203125
1696265297897,-0.08203125,-0.9397583,0.2904663,-0.421875,4.0,-0.578125
1696265297941,-0.08569336,-0.9470825,0.29656982,0.421875,4.015625,-0.328125
1696265297973,-0.10864258,-0.94976807,0.3053589,1.90625,3.671875,0.90625
1696265298016,-0.087402344,-0.93927,0.29266357,1.265625,2.609375,0.15625
1696265298062,-0.072021484,-0.9421997,0.28948975,1.3125,3.09375,-0.09375
1696265298091,-0.07714844,-0.94537354,0.2826538,1.28125,2.875,0.6875
1696265298136,-0.079589844,-0.93927,0.28289795,0.609375,2.921875,0.1875
1696265298182,-0.08203125,-0.94659424,0.2892456,0.53125,3.6875,0.234375
1696265298214,-0.08618164,-0.94073486,0.28778076,1.5,3.921875,-0.34375
1696265298256,-0.079589844,-0.94488525,0.27557373,1.125,3.625,-0.640625
1696265298286,-0.07495117,-0.94537354,0.27996826,1.546875,3.640625,-0.953125
1696265298333,-0.07299805,-0.954895,0.27508545,2.0625,2.828125,-0.375
1696265298376,-0.072509766,-0.942688,0.27703857,2.5,2.21875,-0.109375
1696265298407,-0.07836914,-0.94976807,0.26776123,3.078125,2.15625,-0.1875
1696265298455,-0.075927734,-0.9385376,0.2616577,4.140625,1.703125,-0.28125
1696265298496,-0.06665039,-0.94976807,0.25115967,4.796875,1.515625,-0.328125
1696265298526,-0.072509766,-0.95318604,0.23577881,4.21875,2.21875,-0.390625
1696265298577,-0.067871094,-0.9534302,0.23895264,3.625,3.515625,-0.46875
1696265298602,-0.06762695,-0.9649048,0.22991943,3.515625,3.609375,-0.390625
1696265298647,-0.068603516,-0.95196533,0.22625732,2.984375,3.765625,-0.234375
1696265298694,-0.05834961,-0.9751587,0.21844482,4.609375,3.484375,-0.03125
1696265298721,-0.057861328,-0.96710205,0.20819092,2.578125,2.484375,-0.09375
1696265298767,-0.05859375,-0.9602661,0.21258545,2.28125,2.75,0.5625
1696265298811,-0.072021484,-0.96759033,0.2164917,3.015625,2.25,1.265625
1696265298842,-0.06958008,-0.9710083,0.20697021,4.0,1.25,0.203125
1696265298887,-0.06225586,-0.9685669,0.18865967,3.6875,1.40625,-0.03125
1696265298933,-0.04736328,-0.96759033,0.18914795,3.859375,2.140625,0.34375
1696265298962,-0.03857422,-0.9573364,0.17913818,3.171875,1.9375,0.3125
1696265299008,-0.041015625,-0.9578247,0.17816162,2.1875,1.46875,0.265625
1696265299037,-0.04272461,-0.98150635,0.17938232,1.046875,1.171875,0.125
1696265299081,-0.041259766,-0.98931885,0.18255615,1.15625,-0.046875,0.03125
1696265299126,-0.047851562,-0.9819946,0.18890381,-0.171875,-0.359375,0.046875
