# Sensor type: Thingy
# Activity type: Standing
# Activity subtype: Normal
# Subject id: s2517267
# Notes: 
timestamp,accel_x,accel_y,accel_z,gyro_x,gyro_y,gyro_z,mag_x,mag_y,mag_z
1695837545463,-0.068359375,0.99121094,0.022460938,0.5625,-0.1875,0.90625,6.625,48.3125,-36.6875
1695837545504,-0.07128906,0.99316406,0.0126953125,0.75,-0.96875,0.8125,0.0,0.0,0.0
1695837545543,-0.0703125,0.9863281,0.013671875,0.6875,-0.96875,0.5625,0.0,0.0,0.0
1695837545583,-0.0625,0.9951172,0.018554688,0.5,-1.34375,0.875,0.0,0.0,0.0
1695837545623,-0.061523438,0.9970703,0.0146484375,0.5,-2.25,0.96875,0.0,0.0,0.0
1695837545663,-0.068359375,0.9902344,0.01953125,0.375,-2.875,0.8125,0.0,0.0,0.0
1695837545704,-0.0625,0.9902344,0.017578125,-0.03125,-4.28125,0.875,0.0,0.0,0.0
1695837545743,-0.05859375,0.984375,0.013671875,0.03125,-4.9375,0.6875,0.0,0.0,0.0
1695837545784,-0.057617188,0.9863281,0.0048828125,-0.34375,-5.3125,1.09375,0.0,0.0,0.0
1695837545824,-0.056640625,0.98828125,0.017578125,-0.71875,-5.90625,1.15625,0.0,0.0,0.0
1695837545863,-0.057617188,0.98535156,0.005859375,-1.1875,-7.875,0.8125,0.0,0.0,0.0
1695837545904,-0.052734375,0.9951172,0.026367188,-1.3125,-9.34375,1.09375,0.0,0.0,0.0
1695837545945,-0.06542969,0.9980469,0.01171875,-0.78125,-10.5625,1.15625,8.25,47.4375,-37.125
1695837545984,-0.057617188,0.99902344,0.0087890625,-0.15625,-12.4375,1.59375,0.0,0.0,0.0
1695837546024,-0.059570312,1.0019531,0.0146484375,0.25,-13.0,2.09375,0.0,0.0,0.0
1695837546064,-0.07324219,0.9951172,0.029296875,0.6875,-14.09375,2.1875,0.0,0.0,0.0
1695837546104,-0.07421875,0.99316406,0.025390625,-0.09375,-15.1875,1.53125,0.0,0.0,0.0
1695837546146,-0.06640625,0.9941406,0.029296875,-1.125,-14.21875,0.875,0.0,0.0,0.0
1695837546184,-0.061523438,0.9970703,0.03515625,-1.25,-14.15625,0.96875,0.0,0.0,0.0
1695837546224,-0.06542969,1.0078125,0.040039062,-0.84375,-13.0625,1.21875,0.0,0.0,0.0
1695837546265,-0.05078125,1.0029297,0.041992188,0.09375,-11.53125,1.40625,0.0,0.0,0.0
1695837546304,-0.06347656,0.9941406,0.030273438,0.21875,-10.3125,0.90625,0.0,0.0,0.0
1695837546345,-0.060546875,0.99316406,0.040039062,0.15625,-8.25,1.53125,0.0,0.0,0.0
1695837546384,-0.052734375,1.0029297,0.055664062,0.15625,-7.5625,1.65625,0.0,0.0,0.0
1695837546424,-0.048828125,0.9941406,0.026367188,0.4375,-7.8125,1.53125,0.0,0.0,0.0
1695837546464,-0.043945312,0.9951172,0.034179688,0.8125,-8.0,1.71875,9.3125,47.4375,-40.5625
1695837546505,-0.06640625,0.99121094,0.040039062,1.3125,-6.96875,2.15625,0.0,0.0,0.0
1695837546544,-0.059570312,0.9951172,0.032226562,1.5,-6.40625,1.65625,0.0,0.0,0.0
1695837546585,-0.0546875,0.9951172,0.033203125,1.375,-5.6875,0.5625,0.0,0.0,0.0
1695837546624,-0.051757812,0.9980469,0.030273438,0.4375,-4.9375,0.1875,0.0,0.0,0.0
1695837546665,-0.046875,0.9902344,0.028320312,-0.15625,-2.6875,0.625,0.0,0.0,0.0
1695837546705,-0.041992188,0.9970703,0.01953125,-0.03125,-1.59375,0.4375,0.0,0.0,0.0
1695837546747,-0.036132812,0.9980469,0.030273438,0.5625,-0.625,0.125,0.0,0.0,0.0
1695837546785,-0.041015625,0.99609375,0.01953125,0.5625,0.375,0.125,0.0,0.0,0.0
1695837546823,-0.041992188,0.9970703,0.038085938,0.3125,0.4375,0.1875,0.0,0.0,0.0
1695837546865,-0.049804688,1.0029297,0.026367188,0.21875,0.84375,0.0,0.0,0.0,0.0
1695837546905,-0.053710938,0.9892578,0.041992188,0.375,1.84375,-0.1875,0.0,0.0,0.0
1695837546944,-0.049804688,1.0,0.01953125,1.25,3.1875,0.125,10.1875,46.8125,-39.0625
1695837546987,-0.046875,0.9970703,0.032226562,1.65625,3.25,0.375,0.0,0.0,0.0
1695837547025,-0.046875,1.0009766,0.024414062,1.84375,2.25,0.25,0.0,0.0,0.0
1695837547065,-0.036132812,0.99609375,0.032226562,1.78125,0.96875,0.5,0.0,0.0,0.0
1695837547104,-0.043945312,0.99316406,0.0146484375,1.71875,0.0,0.6875,0.0,0.0,0.0
1695837547144,-0.03125,0.9970703,0.024414062,2.28125,-0.5,0.625,0.0,0.0,0.0
1695837547184,-0.041015625,1.0,0.028320312,2.65625,-0.71875,0.75,0.0,0.0,0.0
1695837547225,-0.034179688,0.9980469,0.015625,3.0625,-1.09375,0.6875,0.0,0.0,0.0
1695837547264,-0.034179688,0.99902344,0.01953125,2.71875,-1.03125,0.96875,0.0,0.0,0.0
1695837547304,-0.041015625,0.9863281,0.0146484375,1.71875,-1.28125,0.6875,0.0,0.0,0.0
1695837547345,-0.037109375,0.9902344,0.0068359375,1.3125,-0.625,0.375,0.0,0.0,0.0
1695837547384,-0.041015625,1.0,0.005859375,1.1875,-0.5625,0.125,0.0,0.0,0.0
1695837547424,-0.041992188,0.99316406,0.020507812,0.625,-0.5,0.375,0.0,0.0,0.0
1695837547463,-0.034179688,0.99609375,0.001953125,0.625,0.3125,0.5625,10.375,46.6875,-39.9375
1695837547503,-0.03515625,0.9980469,-0.00390625,1.125,0.375,0.6875,0.0,0.0,0.0
1695837547544,-0.03515625,0.9980469,-0.00390625,0.875,0.65625,0.625,0.0,0.0,0.0
1695837547584,-0.017578125,0.9902344,0.0107421875,0.8125,-0.25,0.625,0.0,0.0,0.0
1695837547625,-0.033203125,0.9951172,0.001953125,0.625,-1.15625,0.75,0.0,0.0,0.0
1695837547665,-0.030273438,0.99902344,0.009765625,0.6875,-1.59375,0.75,0.0,0.0,0.0
1695837547704,-0.03515625,0.99316406,0.01171875,0.75,-1.84375,0.6875,0.0,0.0,0.0
1695837547745,-0.032226562,1.0,0.0087890625,0.6875,-2.125,0.8125,0.0,0.0,0.0
1695837547784,-0.028320312,1.0009766,0.0068359375,0.9375,-1.90625,0.8125,0.0,0.0,0.0
1695837547825,-0.03515625,0.9980469,0.0068359375,0.75,-2.0625,0.6875,0.0,0.0,0.0
1695837547864,-0.040039062,0.9951172,0.01953125,0.4375,-2.4375,0.6875,0.0,0.0,0.0
1695837547904,-0.03515625,1.0068359,-0.005859375,0.375,-2.5625,0.4375,0.0,0.0,0.0
1695837547955,-0.029296875,0.99902344,9.765625E-4,0.5625,-1.78125,0.1875,12.3125,47.5625,-39.8125
1695837547984,-0.02734375,0.99121094,0.001953125,0.15625,-1.09375,0.3125,0.0,0.0,0.0
1695837548024,-0.029296875,0.9951172,9.765625E-4,0.15625,-0.65625,0.4375,0.0,0.0,0.0
1695837548065,-0.024414062,1.0068359,-0.00390625,0.15625,-0.4375,0.4375,0.0,0.0,0.0
1695837548104,-0.021484375,1.0019531,0.0107421875,0.09375,0.1875,0.3125,0.0,0.0,0.0
1695837548144,-0.01171875,0.99316406,0.0107421875,0.09375,-0.625,0.0,0.0,0.0,0.0
1695837548184,-0.022460938,0.99121094,0.00390625,0.15625,-2.125,0.3125,0.0,0.0,0.0
1695837548224,-0.034179688,1.0,0.0068359375,-0.03125,-2.375,0.25,0.0,0.0,0.0
1695837548266,-0.032226562,0.9921875,0.0126953125,0.03125,-1.90625,0.125,0.0,0.0,0.0
1695837548304,-0.02734375,0.98339844,0.0,0.25,-1.78125,0.0,0.0,0.0,0.0
1695837548344,-0.029296875,1.0,-9.765625E-4,0.15625,-1.40625,-0.0625,0.0,0.0,0.0
1695837548384,-0.02734375,0.9980469,9.765625E-4,0.15625,-0.625,-0.1875,0.0,0.0,0.0
1695837548424,-0.024414062,0.99121094,0.0107421875,0.09375,-0.84375,-0.1875,0.0,0.0,0.0
1695837548464,-0.028320312,0.9941406,0.0107421875,0.09375,-0.65625,-0.3125,10.9375,46.8125,-41.4375
1695837548505,-0.021484375,0.99121094,0.005859375,0.09375,-0.4375,-0.3125,0.0,0.0,0.0
1695837548544,-0.026367188,1.0029297,0.0029296875,-0.09375,-0.375,-0.1875,0.0,0.0,0.0
1695837548585,-0.03125,0.9970703,0.0126953125,0.03125,-0.5625,-0.46875,0.0,0.0,0.0
1695837548624,-0.03125,0.9951172,0.0126953125,0.15625,-0.25,-0.4375,0.0,0.0,0.0
1695837548664,-0.01953125,0.99316406,9.765625E-4,0.15625,-0.625,-0.46875,0.0,0.0,0.0
1695837548704,-0.029296875,0.9980469,-0.0029296875,0.21875,0.0,-0.375,0.0,0.0,0.0
1695837548745,-0.02734375,1.0009766,0.013671875,0.09375,-0.1875,-0.4375,0.0,0.0,0.0
1695837548784,-0.028320312,0.9921875,0.0048828125,0.09375,-0.375,-0.71875,0.0,0.0,0.0
1695837548824,-0.02734375,0.9921875,0.0,0.03125,-0.5,-0.78125,0.0,0.0,0.0
1695837548864,-0.02734375,0.9941406,0.0068359375,-0.34375,-0.71875,-0.90625,0.0,0.0,0.0
1695837548904,-0.03125,1.0009766,0.0068359375,-0.15625,-0.71875,-0.65625,0.0,0.0,0.0
1695837548945,-0.036132812,0.9951172,0.0068359375,0.03125,-0.375,-0.65625,11.875,47.125,-41.3125
1695837548984,-0.033203125,0.9941406,0.00390625,0.15625,-0.1875,-0.53125,0.0,0.0,0.0
1695837549023,-0.037109375,0.99316406,0.0146484375,-0.09375,0.0625,-0.84375,0.0,0.0,0.0
1695837549065,-0.032226562,1.0009766,0.0068359375,-0.40625,0.625,-0.78125,0.0,0.0,0.0
1695837549104,-0.030273438,0.9921875,0.0126953125,-0.46875,0.375,-0.65625,0.0,0.0,0.0
1695837549144,-0.03125,0.9970703,-0.0048828125,-0.78125,0.3125,-0.65625,0.0,0.0,0.0
1695837549185,-0.037109375,1.0029297,0.0048828125,-0.59375,-0.1875,-0.78125,0.0,0.0,0.0
1695837549225,-0.029296875,1.0039062,0.0,-0.46875,-0.5625,-0.53125,0.0,0.0,0.0
1695837549265,-0.033203125,0.99902344,0.00390625,0.03125,0.0625,-0.46875,0.0,0.0,0.0
1695837549305,-0.036132812,0.99902344,0.01171875,0.21875,0.25,-0.375,0.0,0.0,0.0
1695837549344,-0.038085938,0.9970703,0.005859375,0.25,-0.4375,-0.375,0.0,0.0,0.0
1695837549385,-0.026367188,0.9951172,0.013671875,0.15625,-0.4375,-0.4375,0.0,0.0,0.0
1695837549424,-0.032226562,1.0009766,0.0146484375,0.03125,-0.5625,-0.4375,0.0,0.0,0.0
1695837549464,-0.03515625,0.99609375,0.0234375,0.15625,-0.65625,-0.25,10.9375,48.0625,-41.75
1695837549505,-0.0390625,1.0009766,0.013671875,0.25,-0.625,-0.25,0.0,0.0,0.0
1695837549544,-0.03125,1.0009766,0.021484375,0.25,-0.375,-0.1875,0.0,0.0,0.0
1695837549585,-0.03125,0.99121094,0.0068359375,0.15625,-0.375,0.0,0.0,0.0,0.0
1695837549626,-0.03515625,1.0009766,0.0107421875,0.15625,-0.5625,-0.375,0.0,0.0,0.0
1695837549665,-0.033203125,0.99902344,0.0029296875,0.3125,-0.375,-0.0625,0.0,0.0,0.0
1695837549704,-0.032226562,1.0009766,0.017578125,0.21875,-0.4375,-0.1875,0.0,0.0,0.0
1695837549745,-0.03515625,0.9941406,0.00390625,0.21875,-0.375,-0.125,0.0,0.0,0.0
1695837549785,-0.025390625,0.99121094,-0.0087890625,0.25,-0.90625,0.0,0.0,0.0,0.0
1695837549823,-0.032226562,0.9863281,0.0087890625,0.3125,-0.65625,0.125,0.0,0.0,0.0
1695837549866,-0.032226562,0.99609375,0.0048828125,0.3125,-0.625,0.0,0.0,0.0,0.0
1695837549904,-0.040039062,0.99609375,0.00390625,0.25,-0.78125,0.0625,0.0,0.0,0.0
1695837549944,-0.033203125,1.0009766,0.0068359375,0.25,-0.90625,0.1875,10.0625,47.125,-41.0
1695837549986,-0.036132812,0.99316406,0.005859375,0.25,-0.78125,0.1875,0.0,0.0,0.0
1695837550025,-0.034179688,0.9921875,0.0107421875,0.5625,-0.5625,0.125,0.0,0.0,0.0
1695837550064,-0.029296875,0.99902344,0.013671875,0.375,-0.71875,0.1875,0.0,0.0,0.0
1695837550107,-0.026367188,0.9970703,0.009765625,0.375,-0.65625,0.125,0.0,0.0,0.0
1695837550144,-0.03515625,0.9941406,0.0,0.4375,-1.21875,0.1875,0.0,0.0,0.0
1695837550184,-0.040039062,0.99902344,0.009765625,0.4375,-0.96875,0.4375,0.0,0.0,0.0
1695837550227,-0.030273438,0.99902344,9.765625E-4,0.6875,-0.96875,0.25,0.0,0.0,0.0
1695837550265,-0.0234375,0.9921875,0.0107421875,0.75,-0.625,0.25,0.0,0.0,0.0
1695837550304,-0.02734375,1.0,0.016601562,0.625,-0.4375,0.0625,0.0,0.0,0.0
1695837550344,-0.028320312,0.9980469,0.024414062,0.375,-0.84375,0.0,0.0,0.0,0.0
1695837550384,-0.024414062,0.99902344,-0.0078125,0.25,-1.09375,0.0625,0.0,0.0,0.0
1695837550424,-0.032226562,0.99902344,0.001953125,0.09375,-1.28125,-0.25,0.0,0.0,0.0
1695837550464,-0.036132812,0.98535156,-0.005859375,0.375,-0.78125,-0.0625,10.1875,46.5625,-40.4375
1695837550504,-0.029296875,0.9980469,9.765625E-4,0.15625,-0.625,-0.25,0.0,0.0,0.0
1695837550544,-0.02734375,0.99609375,0.005859375,0.15625,-0.5,-0.125,0.0,0.0,0.0
1695837550584,-0.030273438,0.99609375,0.0029296875,0.21875,-0.71875,0.0625,0.0,0.0,0.0
1695837550624,-0.026367188,0.9902344,-0.0087890625,-0.09375,-0.375,-0.0625,0.0,0.0,0.0
1695837550664,-0.025390625,0.9902344,0.0,-0.03125,-0.0625,0.0,0.0,0.0,0.0
1695837550704,-0.0234375,0.9902344,0.0078125,-0.84375,-0.90625,0.0625,0.0,0.0,0.0
1695837550744,-0.021484375,0.9941406,9.765625E-4,-0.96875,-1.71875,-0.0625,0.0,0.0,0.0
1695837550784,-0.028320312,0.9951172,0.0087890625,-0.96875,-1.59375,0.0,0.0,0.0,0.0
1695837550824,-0.03515625,0.99902344,0.009765625,-0.90625,-1.71875,0.0625,0.0,0.0,0.0
1695837550864,-0.032226562,0.9951172,0.0,-0.84375,-1.53125,0.125,0.0,0.0,0.0
1695837550904,-0.0234375,0.9951172,0.005859375,-1.25,-1.59375,0.0,0.0,0.0,0.0
1695837550945,-0.03125,0.9921875,0.005859375,-1.4375,-1.46875,-0.0625,12.625,47.75,-42.0625
1695837550985,-0.041015625,1.0,0.0234375,-1.03125,-1.09375,0.0,0.0,0.0,0.0
1695837551024,-0.030273438,0.9873047,0.024414062,-0.71875,-0.84375,-0.0625,0.0,0.0,0.0
1695837551065,-0.024414062,1.0039062,0.0078125,0.25,-0.125,-0.1875,0.0,0.0,0.0
1695837551103,-0.020507812,1.0,0.028320312,0.8125,-0.3125,-0.59375,0.0,0.0,0.0
1695837551144,-0.0234375,0.99316406,0.024414062,0.21875,-0.1875,-0.71875,0.0,0.0,0.0
1695837551184,-0.0234375,0.9980469,0.028320312,-0.53125,1.03125,-0.4375,0.0,0.0,0.0
1695837551225,-0.026367188,1.0009766,0.0078125,0.21875,1.84375,-0.90625,0.0,0.0,0.0
1695837551265,-0.020507812,0.99316406,0.021484375,0.8125,1.65625,-1.21875,0.0,0.0,0.0
1695837551305,-0.028320312,1.0048828,0.017578125,0.6875,2.375,-0.90625,0.0,0.0,0.0
1695837551344,-0.033203125,0.9941406,0.026367188,0.75,2.625,-1.03125,0.0,0.0,0.0
1695837551385,-0.034179688,0.9941406,0.0048828125,1.25,3.34375,-1.03125,0.0,0.0,0.0
1695837551424,-0.0390625,1.0019531,0.0029296875,1.65625,3.46875,-1.03125,0.0,0.0,0.0
1695837551465,-0.037109375,1.0087891,0.015625,1.84375,3.34375,-0.84375,11.125,47.75,-41.0
1695837551504,-0.021484375,0.9921875,0.0146484375,2.59375,4.46875,-0.96875,0.0,0.0,0.0
1695837551544,-0.033203125,0.9980469,0.0048828125,2.28125,5.84375,-1.09375,0.0,0.0,0.0
1695837551585,-0.022460938,0.99121094,0.005859375,2.09375,4.28125,-1.15625,0.0,0.0,0.0
1695837551624,-0.0107421875,0.99609375,0.0048828125,1.65625,2.5625,-1.15625,0.0,0.0,0.0
1695837551665,-0.022460938,1.0029297,-0.001953125,1.84375,1.71875,-0.84375,0.0,0.0,0.0
1695837551704,-0.033203125,1.0,-0.021484375,2.15625,2.5625,-0.53125,0.0,0.0,0.0
1695837551744,-0.034179688,0.99902344,-0.016601562,3.0625,2.1875,-0.59375,0.0,0.0,0.0
1695837551785,-0.033203125,0.9970703,-0.020507812,2.59375,1.34375,-0.90625,0.0,0.0,0.0
1695837551824,-0.0146484375,0.99121094,-0.021484375,2.03125,0.5,-0.90625,0.0,0.0,0.0
1695837551865,-0.017578125,0.9921875,-0.0078125,0.5,-1.65625,-0.96875,0.0,0.0,0.0
1695837551904,-0.024414062,1.0058594,-0.001953125,0.09375,-4.09375,-1.09375,0.0,0.0,0.0
1695837551944,-0.0390625,1.0068359,-0.0087890625,-0.34375,-5.4375,-1.40625,10.1875,47.5625,-40.875
1695837551984,-0.043945312,1.0068359,-0.0126953125,0.4375,-4.9375,-1.59375,0.0,0.0,0.0
1695837552024,-0.0546875,1.0283203,-0.024414062,0.625,-5.8125,-1.875,0.0,0.0,0.0
1695837552065,-0.045898438,0.9980469,0.001953125,1.25,-3.46875,-1.03125,0.0,0.0,0.0
1695837552104,-0.06347656,0.9941406,-0.0029296875,1.0625,3.78125,1.65625,0.0,0.0,0.0
1695837552144,-0.051757812,0.96972656,0.005859375,-0.84375,9.75,3.90625,0.0,0.0,0.0
1695837552185,-0.049804688,0.9482422,-0.01953125,3.75,4.40625,2.9375,0.0,0.0,0.0
1695837552224,-0.028320312,0.98828125,0.0078125,4.71875,-5.1875,0.375,0.0,0.0,0.0
1695837552266,-0.0087890625,0.9707031,0.025390625,1.65625,-6.21875,-1.34375,0.0,0.0,0.0
1695837552304,-0.05859375,0.9765625,0.013671875,-0.46875,-13.25,-2.0,0.0,0.0,0.0
1695837552344,-0.045898438,0.96972656,-0.037109375,-2.375,-15.25,0.0,0.0,0.0,0.0
1695837552385,-0.06347656,1.0283203,-0.05859375,-1.1875,-5.8125,2.8125,0.0,0.0,0.0
1695837552424,-0.022460938,1.0371094,-0.022460938,4.21875,-3.90625,1.65625,0.0,0.0,0.0
1695837552464,-0.046875,0.9951172,-0.001953125,4.59375,-5.96875,0.3125,10.5,45.5,-41.75
1695837552504,-0.048828125,0.9970703,0.0146484375,0.5625,-5.0,0.375,0.0,0.0,0.0
1695837552544,-0.052734375,0.9980469,-0.021484375,-0.03125,-3.0,0.96875,0.0,0.0,0.0
1695837552584,-0.064453125,0.9921875,-0.016601562,2.875,-0.90625,0.625,0.0,0.0,0.0
1695837552631,-0.037109375,1.0039062,-0.034179688,5.875,2.6875,-0.53125,0.0,0.0,0.0
1695837552665,-0.034179688,1.0019531,-0.037109375,5.4375,4.15625,0.625,0.0,0.0,0.0
1695837552703,-0.024414062,0.9892578,-0.0234375,4.84375,1.9375,0.0625,0.0,0.0,0.0
1695837552744,-0.038085938,0.9921875,-0.041992188,3.6875,2.4375,0.4375,0.0,0.0,0.0
1695837552784,-0.057617188,0.9736328,-0.072265625,5.5625,1.90625,-0.53125,0.0,0.0,0.0
1695837552824,-0.0048828125,1.0302734,-0.068359375,5.15625,1.78125,-1.40625,0.0,0.0,0.0
1695837552865,-0.0087890625,0.984375,-0.046875,3.25,3.28125,0.6875,0.0,0.0,0.0
1695837552904,-0.0234375,0.9951172,-0.04296875,-0.28125,-0.1875,1.21875,0.0,0.0,0.0
1695837552944,-0.0087890625,0.9814453,-0.07128906,-0.90625,-3.59375,1.46875,9.75,46.5625,-42.1875
1695837552986,-0.024414062,0.98339844,-0.049804688,1.1875,-3.59375,1.65625,0.0,0.0,0.0
1695837553024,-0.018554688,0.9716797,-0.041992188,1.71875,-0.96875,1.03125,0.0,0.0,0.0
1695837553063,-0.037109375,1.0019531,-0.046875,0.15625,0.65625,1.59375,0.0,0.0,0.0
1695837553106,-0.036132812,0.99121094,-0.04296875,1.0,1.78125,0.96875,0.0,0.0,0.0
1695837553144,-0.0107421875,0.99316406,-0.053710938,-1.3125,0.4375,1.90625,0.0,0.0,0.0
1695837553184,-0.0029296875,0.9941406,-0.04296875,-3.875,-1.53125,2.8125,0.0,0.0,0.0
1695837553225,-0.03125,0.99902344,-0.055664062,-4.0,-3.53125,2.875,0.0,0.0,0.0
1695837553264,-0.036132812,0.9951172,-0.04296875,-4.25,-5.375,2.4375,0.0,0.0,0.0
1695837553303,-0.029296875,1.0019531,-0.057617188,-4.1875,-6.40625,2.3125,0.0,0.0,0.0
1695837553344,-0.022460938,1.0,-0.048828125,-4.25,-9.09375,2.1875,0.0,0.0,0.0
1695837553384,-0.020507812,0.98828125,-0.046875,-4.375,-9.15625,2.1875,0.0,0.0,0.0
1695837553424,-0.013671875,0.9863281,-0.034179688,-4.4375,-9.875,2.6875,0.0,0.0,0.0
1695837553465,-0.017578125,1.0,-0.034179688,-4.375,-8.375,3.0,13.625,44.875,-43.4375
1695837553504,-0.018554688,0.9902344,-0.015625,-5.09375,-7.8125,3.0625,0.0,0.0,0.0
1695837553544,-0.020507812,0.9980469,-0.030273438,-5.78125,-8.0625,2.5,0.0,0.0,0.0
1695837553584,0.001953125,1.0039062,-0.0107421875,-6.5625,-9.875,2.5625,0.0,0.0,0.0
1695837553625,-0.001953125,0.9902344,0.0,-6.28125,-12.28125,3.0625,0.0,0.0,0.0
1695837553663,-0.0068359375,0.9951172,-0.005859375,-5.90625,-11.28125,3.0,0.0,0.0,0.0
1695837553703,-0.01953125,1.0,-0.0068359375,-6.15625,-9.28125,3.1875,0.0,0.0,0.0
1695837553745,-0.0048828125,0.9951172,0.001953125,-6.21875,-7.5,3.65625,0.0,0.0,0.0
1695837553785,-0.01171875,0.9951172,0.0,-6.8125,-7.15625,4.03125,0.0,0.0,0.0
1695837553825,0.020507812,0.9892578,0.024414062,-5.34375,-8.125,4.03125,0.0,0.0,0.0
1695837553865,0.028320312,1.0087891,0.032226562,0.25,-10.5625,2.3125,0.0,0.0,0.0
1695837553904,0.034179688,0.98828125,0.07421875,3.875,-10.6875,1.71875,0.0,0.0,0.0
1695837553944,0.049804688,0.9970703,0.068359375,2.71875,-8.90625,4.78125,13.0625,46.5625,-43.5625
1695837553984,0.045898438,1.0,0.060546875,3.0625,-11.71875,7.8125,0.0,0.0,0.0
1695837554024,0.0087890625,0.99609375,0.044921875,4.34375,-10.5,6.40625,0.0,0.0,0.0
1695837554064,0.009765625,1.0107422,0.022460938,4.65625,-6.03125,3.46875,0.0,0.0,0.0
1695837554104,0.005859375,0.9873047,0.001953125,2.15625,2.4375,3.1875,0.0,0.0,0.0
1695837554144,0.0234375,0.9970703,0.005859375,-0.84375,10.125,-0.0625,0.0,0.0,0.0
1695837554185,0.064453125,0.99121094,0.013671875,-1.125,7.6875,-5.0,0.0,0.0,0.0
1695837554224,0.09277344,1.0107422,0.040039062,-1.03125,11.28125,-6.03125,0.0,0.0,0.0
1695837554264,0.07519531,0.9980469,0.017578125,-3.21875,8.96875,-4.875,0.0,0.0,0.0
1695837554303,0.036132812,0.9970703,0.022460938,-4.0,7.3125,-1.75,0.0,0.0,0.0
1695837554344,0.05078125,1.0107422,0.018554688,3.0625,5.625,-0.90625,0.0,0.0,0.0
1695837554384,0.06738281,0.98046875,0.034179688,2.78125,5.90625,-0.78125,0.0,0.0,0.0
1695837554425,0.037109375,0.9902344,0.047851562,-0.40625,3.84375,-1.75,0.0,0.0,0.0
1695837554465,-0.005859375,0.9902344,-0.01171875,-1.3125,5.96875,-3.03125,12.3125,47.3125,-41.4375
1695837554504,-0.009765625,0.99316406,-0.017578125,1.25,10.9375,-4.03125,0.0,0.0,0.0
1695837554545,0.02734375,0.9970703,0.001953125,1.71875,9.09375,-3.53125,0.0,0.0,0.0
1695837554584,0.040039062,1.0009766,0.02734375,1.96875,3.28125,-3.0,0.0,0.0,0.0
1695837554624,0.0234375,0.9902344,0.009765625,1.5,3.84375,-2.125,0.0,0.0,0.0
1695837554664,-0.024414062,0.98535156,-0.001953125,-0.09375,4.15625,-1.65625,0.0,0.0,0.0
1695837554704,-0.013671875,0.99902344,-0.00390625,-0.09375,2.6875,-2.9375,0.0,0.0,0.0
1695837554744,-0.0087890625,1.0,0.001953125,1.3125,1.21875,-3.59375,0.0,0.0,0.0
1695837554784,0.00390625,0.9921875,0.009765625,0.875,2.4375,-2.9375,0.0,0.0,0.0
1695837554824,-0.0087890625,1.0078125,0.0029296875,0.15625,3.96875,-2.125,0.0,0.0,0.0
1695837554864,-0.0087890625,0.9824219,0.0,0.21875,3.34375,-2.125,0.0,0.0,0.0
1695837554904,-0.0048828125,0.9980469,0.0029296875,0.375,3.28125,-2.125,0.0,0.0,0.0
1695837554945,-0.0068359375,0.99902344,0.001953125,0.375,4.46875,-2.0,11.6875,48.3125,-42.8125
1695837554984,-0.005859375,1.0,-0.0078125,0.25,2.6875,-1.8125,0.0,0.0,0.0
1695837555024,-0.0087890625,0.98828125,0.013671875,-0.21875,0.5,-1.15625,0.0,0.0,0.0
1695837555064,-0.01171875,0.9921875,0.0087890625,-0.46875,-0.25,-0.84375,0.0,0.0,0.0
1695837555105,-0.030273438,0.99902344,0.005859375,-0.46875,0.84375,-0.71875,0.0,0.0,0.0
1695837555145,-0.018554688,1.0019531,-0.0126953125,-0.90625,0.84375,-0.71875,0.0,0.0,0.0
1695837555184,-0.021484375,1.0019531,0.009765625,-0.34375,2.3125,0.0625,0.0,0.0,0.0
1695837555225,-0.0078125,1.0019531,0.015625,0.25,0.375,-0.3125,0.0,0.0,0.0
1695837555264,-0.01171875,0.99609375,0.0078125,0.25,1.21875,-0.375,0.0,0.0,0.0
1695837555304,-0.0078125,0.99609375,0.018554688,-0.46875,0.375,-0.46875,0.0,0.0,0.0
1695837555344,-0.015625,1.0039062,0.005859375,-0.46875,-0.3125,-0.46875,0.0,0.0,0.0
1695837555384,-0.0068359375,0.99609375,9.765625E-4,-0.53125,-0.65625,-0.46875,0.0,0.0,0.0
1695837555425,-0.0126953125,0.9941406,0.0146484375,-0.65625,-0.84375,-0.3125,0.0,0.0,0.0
1695837555464,-0.013671875,0.9892578,9.765625E-4,-0.59375,-0.90625,-0.46875,12.3125,48.0625,-42.1875
1695837555505,-0.021484375,0.9941406,0.0234375,-0.34375,-0.71875,-0.3125,0.0,0.0,0.0
1695837555544,-0.005859375,1.0029297,0.015625,-0.15625,-1.09375,-0.46875,0.0,0.0,0.0
1695837555584,-0.0068359375,1.0068359,0.0087890625,-0.03125,-0.3125,0.0625,0.0,0.0,0.0
1695837555624,-0.0048828125,0.99609375,0.0126953125,0.21875,0.1875,0.25,0.0,0.0,0.0
1695837555664,-0.009765625,0.99121094,-0.0048828125,0.09375,1.15625,0.0,0.0,0.0,0.0
1695837555704,-0.0107421875,0.9970703,0.01171875,0.03125,0.96875,-0.53125,0.0,0.0,0.0
1695837555744,0.0068359375,1.0009766,0.016601562,-0.65625,-0.3125,-0.65625,0.0,0.0,0.0
1695837555785,-0.0068359375,0.9951172,0.032226562,-1.125,-1.71875,-0.59375,0.0,0.0,0.0
1695837555824,-0.016601562,0.99609375,0.00390625,-0.65625,-1.78125,-0.53125,0.0,0.0,0.0
1695837555866,-0.0107421875,0.99902344,0.0107421875,0.25,-0.96875,-0.71875,0.0,0.0,0.0
1695837555906,-0.009765625,0.9941406,0.021484375,0.4375,0.25,-0.1875,0.0,0.0,0.0
1695837555943,-0.005859375,0.99902344,0.01953125,0.03125,-0.625,-0.65625,11.125,46.6875,-42.6875
1695837555985,-0.005859375,0.99316406,0.022460938,-0.34375,-0.25,-0.59375,0.0,0.0,0.0
1695837556024,-0.00390625,0.99609375,0.017578125,-0.34375,-0.78125,-0.96875,0.0,0.0,0.0
1695837556064,-0.0078125,1.0058594,0.034179688,-0.21875,-0.90625,-0.78125,0.0,0.0,0.0
1695837556105,-0.009765625,0.98535156,0.009765625,-0.15625,-0.3125,-0.59375,0.0,0.0,0.0
1695837556144,-0.018554688,0.99609375,0.013671875,-0.34375,-0.1875,-0.65625,0.0,0.0,0.0
1695837556184,-0.0107421875,0.9970703,0.01171875,-0.28125,-0.25,-0.71875,0.0,0.0,0.0
1695837556227,-0.022460938,1.0019531,0.030273438,-0.28125,0.0,-0.71875,0.0,0.0,0.0
1695837556264,-0.0087890625,0.9980469,0.017578125,-0.15625,-0.25,-0.84375,0.0,0.0,0.0
1695837556304,-0.0126953125,0.99121094,0.022460938,0.25,-0.1875,-0.78125,0.0,0.0,0.0
1695837556346,-0.01953125,0.99316406,0.025390625,0.25,-0.375,-0.53125,0.0,0.0,0.0
1695837556384,-0.01953125,0.9980469,0.009765625,0.09375,-0.375,-0.53125,0.0,0.0,0.0
1695837556424,-0.021484375,0.9970703,0.01953125,-0.09375,-0.5625,-0.59375,0.0,0.0,0.0
1695837556465,-0.015625,0.9951172,0.018554688,0.21875,0.0625,-0.65625,12.3125,48.0625,-39.8125
1695837556504,-0.0146484375,0.99316406,0.013671875,0.21875,-0.3125,-0.71875,0.0,0.0,0.0
1695837556543,-0.015625,0.9951172,0.024414062,0.25,-0.625,-0.53125,0.0,0.0,0.0
1695837556584,-0.009765625,0.9970703,0.01171875,0.3125,-0.125,-0.375,0.0,0.0,0.0
1695837556625,-0.028320312,0.99609375,0.0107421875,0.3125,-0.5,-0.4375,0.0,0.0,0.0
1695837556663,-0.0107421875,0.9892578,0.01953125,0.15625,-1.03125,-0.375,0.0,0.0,0.0
1695837556704,-0.015625,1.0058594,0.0107421875,0.25,-0.78125,-0.0625,0.0,0.0,0.0
1695837556745,-0.0234375,1.0,0.015625,0.3125,-1.09375,-0.1875,0.0,0.0,0.0
1695837556783,-0.021484375,0.9980469,0.01171875,0.375,-0.625,-0.1875,0.0,0.0,0.0
1695837556824,-0.022460938,0.99316406,0.021484375,0.375,-0.625,-0.1875,0.0,0.0,0.0
1695837556865,-0.009765625,0.99121094,0.0126953125,0.3125,-1.09375,-0.3125,0.0,0.0,0.0
1695837556904,-0.020507812,0.98828125,0.0234375,-0.03125,-1.46875,-0.59375,0.0,0.0,0.0
1695837556945,-0.01171875,0.9941406,0.018554688,-0.03125,-1.34375,-0.90625,11.25,46.25,-40.875
1695837556984,-0.0078125,0.99902344,0.017578125,-0.40625,-1.71875,-0.78125,0.0,0.0,0.0
1695837557025,-0.0146484375,0.99902344,0.029296875,0.09375,-0.5,0.125,0.0,0.0,0.0
1695837557064,-0.01171875,0.99121094,0.0068359375,0.75,-0.4375,-0.0625,0.0,0.0,0.0
1695837557104,-0.005859375,0.99609375,0.013671875,1.0,-0.5625,-0.0625,0.0,0.0,0.0
1695837557144,-0.017578125,1.0,0.0126953125,0.6875,-0.375,0.0625,0.0,0.0,0.0
1695837557184,-0.01953125,0.9892578,0.016601562,0.21875,-0.625,-0.125,0.0,0.0,0.0
1695837557225,-0.021484375,0.9970703,0.009765625,0.3125,-0.3125,-0.25,0.0,0.0,0.0
1695837557265,-0.015625,0.9970703,0.0048828125,0.375,-0.5625,-0.46875,0.0,0.0,0.0
1695837557304,-0.0146484375,1.0019531,0.0048828125,0.15625,-0.5625,-0.1875,0.0,0.0,0.0
1695837557344,-0.018554688,0.9902344,9.765625E-4,0.25,-0.25,0.0625,0.0,0.0,0.0
1695837557384,-0.018554688,0.9951172,-0.0087890625,0.5,-0.25,-0.125,0.0,0.0,0.0
1695837557424,-0.022460938,0.99902344,0.021484375,0.375,0.4375,-0.125,0.0,0.0,0.0
1695837557464,-0.013671875,0.99609375,0.0126953125,0.09375,0.0625,-0.25,11.6875,46.25,-43.25
1695837557505,-0.017578125,1.0078125,0.01171875,-0.03125,-0.5,-0.375,0.0,0.0,0.0
1695837557544,-0.015625,0.98339844,0.016601562,0.15625,-0.375,-0.375,0.0,0.0,0.0
1695837557584,-0.017578125,0.99902344,0.009765625,0.15625,-0.84375,-0.3125,0.0,0.0,0.0
1695837557624,-0.013671875,0.99902344,0.005859375,0.15625,-0.65625,-0.3125,0.0,0.0,0.0
1695837557665,-0.024414062,1.0009766,0.0048828125,-0.125,-0.28125,-0.1875,0.0,0.0,0.0
1695837557703,-0.015625,1.0,0.024414062,-0.125,-0.21875,-0.125,0.0,0.0,0.0
1695837557744,-0.01953125,0.99902344,0.009765625,-0.375,-0.34375,0.0625,0.0,0.0,0.0
1695837557784,-0.025390625,0.9951172,0.0126953125,0.0625,0.625,0.0,0.0,0.0,0.0
1695837557824,-0.025390625,0.9902344,0.02734375,-0.125,0.15625,0.0,0.0,0.0,0.0
1695837557864,-0.0126953125,0.9980469,0.0107421875,-0.0625,0.28125,0.125,0.0,0.0,0.0
1695837557905,-0.018554688,1.0029297,0.0126953125,-0.0625,0.21875,0.1875,0.0,0.0,0.0
1695837557945,-0.021484375,0.9921875,0.01171875,0.0625,0.34375,0.1875,12.625,47.125,-41.3125
1695837557984,-0.024414062,0.9892578,0.0126953125,-0.125,0.28125,0.3125,0.0,0.0,0.0
1695837558024,-0.0234375,1.0,0.018554688,0.0625,0.34375,0.0625,0.0,0.0,0.0
1695837558063,-0.017578125,0.99902344,0.0234375,-0.125,-0.15625,0.1875,0.0,0.0,0.0
1695837558105,-0.018554688,0.9980469,0.0029296875,-0.0625,0.40625,0.375,0.0,0.0,0.0
1695837558144,-0.015625,0.99121094,0.0107421875,-0.0625,-0.71875,0.0,0.0,0.0,0.0
1695837558185,-0.020507812,1.0,9.765625E-4,-0.0625,0.09375,0.25,0.0,0.0,0.0
1695837558224,-0.025390625,0.99902344,0.005859375,-0.0625,0.15625,0.375,0.0,0.0,0.0
1695837558264,-0.01953125,1.0048828,0.018554688,-0.125,0.28125,0.4375,0.0,0.0,0.0
1695837558305,-0.017578125,0.9951172,0.00390625,-0.125,-0.03125,0.25,0.0,0.0,0.0
1695837558344,-0.01953125,1.0009766,0.016601562,-0.0625,0.40625,0.5,0.0,0.0,0.0
1695837558384,-0.029296875,0.9980469,0.0087890625,-0.0625,0.5625,0.375,0.0,0.0,0.0
1695837558424,-0.009765625,0.9970703,0.01171875,0.0625,0.5625,0.4375,0.0,0.0,0.0
1695837558464,-0.018554688,0.99902344,0.0107421875,0.0,0.34375,0.4375,11.875,46.375,-41.0
1695837558505,-0.013671875,0.99609375,0.013671875,0.125,0.21875,0.5,0.0,0.0,0.0
1695837558544,-0.021484375,1.0,0.0068359375,0.0,-0.09375,0.3125,0.0,0.0,0.0
1695837558584,-0.01953125,0.9921875,0.022460938,0.125,1.0,0.3125,0.0,0.0,0.0
1695837558625,-0.01171875,0.99121094,0.0107421875,-0.0625,-0.03125,0.0625,0.0,0.0,0.0
1695837558664,-0.013671875,0.99902344,0.034179688,-0.0625,0.625,0.3125,0.0,0.0,0.0
1695837558704,-0.01953125,0.9951172,0.0126953125,-0.125,-0.21875,0.1875,0.0,0.0,0.0
1695837558745,-0.017578125,1.0,0.016601562,0.0,0.34375,0.0,0.0,0.0,0.0
1695837558784,-0.018554688,0.99609375,0.017578125,-0.1875,-0.28125,0.125,0.0,0.0,0.0
1695837558825,-0.018554688,0.9980469,0.024414062,-0.125,-0.09375,0.25,0.0,0.0,0.0
1695837558864,-0.022460938,1.0019531,0.022460938,0.0625,-0.03125,0.25,0.0,0.0,0.0
1695837558905,-0.0068359375,0.9902344,0.009765625,0.1875,0.40625,0.3125,0.0,0.0,0.0
1695837558943,-0.013671875,0.9921875,0.022460938,0.0625,-0.46875,0.1875,0.0,0.0,0.0
1695837558985,-0.013671875,0.99609375,0.037109375,0.0,0.28125,0.3125,12.0,45.0625,-41.1875
1695837559024,-0.005859375,0.98828125,0.025390625,-0.25,-0.53125,-0.125,0.0,0.0,0.0
1695837559064,-0.016601562,0.99609375,0.0146484375,-0.125,0.03125,0.0625,0.0,0.0,0.0
1695837559107,-0.024414062,0.9921875,0.0068359375,-0.0625,-0.28125,0.0625,0.0,0.0,0.0
1695837559145,-0.021484375,1.0009766,0.0068359375,-0.0625,0.09375,0.125,0.0,0.0,0.0
1695837559185,-0.0146484375,0.9902344,0.0087890625,0.0625,0.5625,0.125,0.0,0.0,0.0
1695837559225,-0.020507812,0.99902344,0.016601562,-0.125,-0.28125,0.0625,0.0,0.0,0.0
1695837559264,-0.0087890625,0.9970703,0.013671875,-0.1875,0.15625,0.0,0.0,0.0,0.0
1695837559304,-0.018554688,0.9970703,0.0126953125,-0.125,0.03125,0.0625,0.0,0.0,0.0
1695837559344,-0.013671875,0.99121094,0.0107421875,-0.0625,0.28125,0.125,0.0,0.0,0.0
1695837559384,-0.0087890625,0.9941406,0.021484375,-0.1875,-0.21875,-0.1875,0.0,0.0,0.0
1695837559423,-0.018554688,0.9951172,0.0029296875,-0.125,-0.09375,0.0,0.0,0.0,0.0
1695837559465,-0.009765625,0.9902344,0.01171875,-0.1875,0.09375,-0.0625,12.125,45.625,-40.25
1695837559503,-0.020507812,0.9941406,-0.0048828125,-0.0625,0.03125,-0.0625,0.0,0.0,0.0
1695837559544,-0.021484375,1.0009766,0.016601562,-0.25,-0.09375,-0.125,0.0,0.0,0.0
1695837559588,-0.01953125,0.99609375,0.0078125,-0.4375,-0.15625,0.0,0.0,0.0,0.0
1695837559624,-0.0126953125,0.9980469,0.0107421875,-0.3125,0.09375,-0.1875,0.0,0.0,0.0
1695837559663,-0.01953125,0.9951172,0.013671875,-0.59375,-0.09375,-0.25,0.0,0.0,0.0
1695837559704,-0.01171875,0.9951172,0.00390625,-0.4375,0.03125,-0.3125,0.0,0.0,0.0
1695837559744,-0.01953125,0.99902344,0.01953125,-0.25,0.09375,-0.25,0.0,0.0,0.0
1695837559783,-0.015625,0.9892578,0.01171875,-0.0625,0.5,0.0,0.0,0.0,0.0
1695837559823,-0.018554688,0.9980469,0.009765625,-0.25,-0.09375,-0.0625,0.0,0.0,0.0
1695837559864,-0.0087890625,1.0019531,0.026367188,-0.1875,0.09375,0.0,0.0,0.0,0.0
1695837559905,-0.017578125,0.9951172,0.01953125,-0.3125,-0.21875,0.125,0.0,0.0,0.0
1695837559945,-0.018554688,0.99902344,0.03125,-0.1875,0.03125,-0.0625,0.0,0.0,0.0
1695837559985,-0.018554688,1.0019531,0.021484375,-0.4375,-0.71875,-0.25,11.875,46.375,-42.375
1695837560024,-0.025390625,1.0048828,0.009765625,0.0,0.40625,0.125,0.0,0.0,0.0
1695837560065,-0.028320312,1.0087891,0.0029296875,-0.125,-0.40625,-0.0625,0.0,0.0,0.0
1695837560104,-0.025390625,0.9892578,0.026367188,-0.0625,0.34375,0.0,0.0,0.0,0.0
1695837560144,-0.0234375,0.9921875,0.01171875,-0.0625,0.40625,0.1875,0.0,0.0,0.0
1695837560185,-0.0234375,0.99609375,0.0126953125,-0.0625,0.34375,0.0625,0.0,0.0,0.0
1695837560224,-0.020507812,0.9941406,0.016601562,-0.125,0.03125,0.0625,0.0,0.0,0.0
1695837560265,-0.029296875,0.9980469,0.024414062,-0.0625,0.40625,0.125,0.0,0.0,0.0
1695837560305,-0.01171875,0.9970703,0.021484375,-0.125,-0.15625,0.0625,0.0,0.0,0.0
1695837560345,-0.020507812,0.99902344,0.0234375,0.0,0.4375,0.25,0.0,0.0,0.0
1695837560385,-0.021484375,0.9980469,0.01171875,-0.125,-0.40625,0.0,0.0,0.0,0.0
1695837560424,-0.018554688,0.9921875,0.01953125,0.125,0.625,0.375,0.0,0.0,0.0
1695837560464,-0.017578125,0.9892578,0.0107421875,-0.125,-0.46875,0.125,11.25,48.0625,-40.4375
1695837560504,-0.0146484375,0.99316406,0.0126953125,0.25,0.40625,0.1875,0.0,0.0,0.0
1695837560544,-0.0087890625,0.9941406,0.013671875,-0.125,-0.21875,0.125,0.0,0.0,0.0
1695837560584,-0.0234375,0.99609375,0.016601562,-0.0625,0.5625,0.1875,0.0,0.0,0.0
1695837560624,-0.0126953125,0.9970703,0.0126953125,-0.25,0.21875,0.0625,0.0,0.0,0.0
1695837560665,-0.017578125,0.9921875,0.021484375,0.0,0.40625,0.1875,0.0,0.0,0.0
1695837560704,-0.0146484375,0.9951172,0.016601562,-0.1875,-0.03125,0.0,0.0,0.0,0.0
1695837560744,-0.0146484375,0.99902344,0.0,-0.125,-0.15625,0.0625,0.0,0.0,0.0
1695837560784,-0.01953125,0.984375,0.02734375,-0.1875,-0.34375,0.125,0.0,0.0,0.0
1695837560824,-0.0234375,0.9951172,9.765625E-4,-0.125,-0.09375,0.0625,0.0,0.0,0.0
1695837560864,-0.021484375,0.9980469,0.00390625,-0.25,-0.53125,-0.125,0.0,0.0,0.0
1695837560905,-0.016601562,0.9921875,0.009765625,-0.25,0.34375,-0.125,0.0,0.0,0.0
1695837560944,-0.032226562,0.9941406,0.0146484375,-0.125,0.03125,-0.0625,0.0,0.0,0.0
1695837560985,-0.0146484375,0.99609375,0.022460938,-0.3125,0.28125,-0.0625,12.3125,48.0625,-41.1875
1695837561024,-0.021484375,1.0019531,0.01171875,-0.125,0.5625,-0.0625,0.0,0.0,0.0
1695837561064,-0.018554688,0.9902344,0.00390625,-0.0625,0.40625,0.0625,0.0,0.0,0.0
1695837561105,-0.01171875,0.98828125,0.024414062,-0.125,0.03125,-0.0625,0.0,0.0,0.0
1695837561144,-0.015625,0.99902344,0.018554688,-0.125,0.5,-0.1875,0.0,0.0,0.0
1695837561184,-0.018554688,1.0048828,0.017578125,-0.125,-0.09375,-0.25,0.0,0.0,0.0
1695837561226,-0.024414062,0.99902344,0.018554688,-0.125,0.5625,0.0,0.0,0.0,0.0
1695837561265,-0.01953125,0.9951172,0.0107421875,-0.1875,0.09375,-0.1875,0.0,0.0,0.0
1695837561305,-0.024414062,0.99902344,0.024414062,0.0,0.5,-0.125,0.0,0.0,0.0
1695837561344,-0.0146484375,1.0029297,0.00390625,0.0,0.625,-0.0625,0.0,0.0,0.0
1695837561384,-0.024414062,0.99316406,0.0107421875,-0.25,-0.09375,-0.0625,0.0,0.0,0.0
1695837561424,-0.015625,0.9941406,0.0146484375,-0.1875,0.21875,-0.1875,0.0,0.0,0.0
1695837561464,-0.024414062,0.99609375,0.0068359375,-0.4375,0.09375,-0.0625,11.6875,46.8125,-40.125
1695837561504,-0.0234375,1.0019531,0.016601562,-0.4375,0.28125,0.1875,0.0,0.0,0.0
1695837561544,-0.024414062,0.9951172,0.01171875,-0.375,-0.15625,-0.125,0.0,0.0,0.0
1695837561584,-0.02734375,0.9921875,0.017578125,-0.125,0.28125,0.09375,0.0,0.0,0.0
1695837561625,-0.024414062,0.9921875,0.005859375,0.0,-0.40625,0.03125,0.0,0.0,0.0
1695837561664,-0.020507812,0.9921875,0.0068359375,-0.125,-0.03125,0.34375,0.0,0.0,0.0
1695837561705,-0.024414062,0.99316406,0.01171875,-0.25,-0.28125,0.21875,0.0,0.0,0.0
1695837561745,-0.02734375,0.99609375,0.02734375,-0.3125,-0.28125,0.09375,0.0,0.0,0.0
1695837561785,-0.022460938,0.99609375,9.765625E-4,-0.25,-0.21875,-0.03125,0.0,0.0,0.0
1695837561824,-0.018554688,1.0,-0.001953125,-0.25,-0.09375,0.03125,0.0,0.0,0.0
1695837561865,-0.025390625,1.0009766,0.0146484375,-0.1875,-0.03125,0.15625,0.0,0.0,0.0
1695837561905,-0.015625,0.99609375,0.018554688,-0.1875,-0.28125,0.21875,0.0,0.0,0.0
1695837561944,-0.024414062,0.9941406,0.001953125,-0.375,-0.09375,0.21875,0.0,0.0,0.0
1695837561985,-0.01953125,0.9970703,0.0087890625,-0.1875,-0.15625,0.15625,11.875,45.9375,-41.625
1695837562024,-0.0146484375,0.9951172,0.01171875,-0.25,-0.21875,0.21875,0.0,0.0,0.0
1695837562064,-0.025390625,0.99121094,0.034179688,0.0,-0.15625,0.15625,0.0,0.0,0.0
1695837562107,-0.018554688,0.9951172,0.0,-0.125,-0.28125,-0.09375,0.0,0.0,0.0
1695837562143,-0.020507812,0.9941406,0.021484375,0.0625,0.34375,0.15625,0.0,0.0,0.0
1695837562183,-0.013671875,0.9980469,0.022460938,-0.125,-0.5,-0.03125,0.0,0.0,0.0
1695837562224,-0.01171875,0.9921875,0.025390625,0.0,0.21875,0.15625,0.0,0.0,0.0
1695837562264,-0.013671875,0.9970703,0.020507812,0.0,-0.09375,0.09375,0.0,0.0,0.0
1695837562303,-0.01171875,0.9941406,0.015625,0.1875,0.15625,0.03125,0.0,0.0,0.0
1695837562345,-0.018554688,0.99121094,0.021484375,0.0625,0.15625,0.03125,0.0,0.0,0.0
1695837562384,-0.020507812,0.9980469,0.0068359375,-0.25,-0.28125,0.15625,0.0,0.0,0.0
1695837562424,-0.015625,0.9970703,0.028320312,-0.375,-0.21875,0.09375,0.0,0.0,0.0
1695837562466,-0.022460938,1.0009766,0.018554688,-0.125,-0.4375,-0.03125,11.375,47.4375,-41.3125
1695837562504,-0.01953125,0.9941406,0.020507812,0.0625,-0.21875,-0.03125,0.0,0.0,0.0
1695837562544,-0.020507812,1.0009766,0.016601562,0.0625,-0.03125,-0.09375,0.0,0.0,0.0
1695837562586,-0.020507812,0.9951172,0.025390625,0.0,-0.15625,-0.21875,0.0,0.0,0.0
1695837562624,-0.020507812,0.9902344,0.016601562,-0.0625,-0.34375,-0.15625,0.0,0.0,0.0
1695837562663,-0.025390625,0.99121094,0.013671875,0.125,0.28125,-0.09375,0.0,0.0,0.0
1695837562705,-0.029296875,0.99609375,0.016601562,0.25,-0.03125,-0.21875,0.0,0.0,0.0
1695837562744,-0.021484375,0.9941406,0.013671875,0.125,0.40625,0.09375,0.0,0.0,0.0
1695837562784,-0.018554688,0.9980469,0.016601562,0.0625,0.15625,0.03125,0.0,0.0,0.0
1695837562824,-0.020507812,0.9951172,0.015625,0.125,0.46875,0.15625,0.0,0.0,0.0
1695837562864,-0.022460938,0.9921875,0.0107421875,0.0625,0.40625,0.09375,0.0,0.0,0.0
1695837562903,-0.015625,0.99121094,0.01953125,0.0625,0.53125,0.34375,0.0,0.0,0.0
1695837562945,-0.01953125,0.9941406,0.01171875,0.125,0.21875,0.21875,0.0,0.0,0.0
1695837562984,-0.029296875,0.99609375,0.0068359375,-0.1875,-0.21875,0.34375,12.75,46.8125,-40.875
1695837563024,-0.0234375,1.0029297,0.0107421875,0.0625,-0.03125,0.40625,0.0,0.0,0.0
1695837563065,-0.0234375,0.99902344,0.016601562,0.0,-0.28125,0.28125,0.0,0.0,0.0
1695837563106,-0.025390625,0.9970703,0.013671875,0.0625,-0.40625,0.40625,0.0,0.0,0.0
1695837563144,-0.032226562,0.9941406,9.765625E-4,-0.1875,-0.75,0.40625,0.0,0.0,0.0
1695837563184,-0.026367188,0.9951172,0.018554688,0.0,-0.34375,0.46875,0.0,0.0,0.0
1695837563224,-0.028320312,0.9941406,0.024414062,0.0,-0.34375,0.40625,0.0,0.0,0.0
1695837563264,-0.020507812,0.9873047,0.0107421875,-0.1875,-0.09375,0.40625,0.0,0.0,0.0
1695837563304,-0.025390625,0.99902344,0.020507812,-0.125,-0.28125,0.34375,0.0,0.0,0.0
1695837563345,-0.0234375,0.984375,0.018554688,0.0,-0.09375,0.40625,0.0,0.0,0.0
1695837563385,-0.01171875,1.0009766,0.016601562,0.125,-0.21875,0.59375,0.0,0.0,0.0
1695837563424,-0.01953125,0.9863281,0.009765625,0.0,-0.21875,0.65625,0.0,0.0,0.0
1695837563465,-0.0234375,0.9970703,0.029296875,-0.125,-0.625,0.40625,11.6875,46.8125,-41.75
1695837563504,-0.018554688,1.0029297,0.01953125,-0.125,-0.34375,0.46875,0.0,0.0,0.0
1695837563544,-0.0126953125,0.99316406,0.0146484375,0.0,-0.15625,0.46875,0.0,0.0,0.0
1695837563584,-0.0126953125,0.99316406,0.036132812,0.0625,-0.21875,0.46875,0.0,0.0,0.0
1695837563624,-0.018554688,0.99609375,0.013671875,0.125,0.84375,0.53125,0.0,0.0,0.0
1695837563665,-0.03125,0.9941406,0.0107421875,0.0,-0.03125,0.28125,0.0,0.0,0.0
1695837563704,-0.022460938,0.99609375,0.030273438,0.125,0.71875,0.46875,0.0,0.0,0.0
1695837563744,-0.0126953125,0.9980469,0.015625,0.0,0.03125,0.21875,0.0,0.0,0.0
1695837563784,-0.021484375,0.9951172,0.0146484375,0.1875,0.59375,0.34375,0.0,0.0,0.0
1695837563824,-0.03125,1.0009766,0.033203125,0.0625,0.34375,0.28125,0.0,0.0,0.0
1695837563864,-0.024414062,0.9921875,0.024414062,0.125,0.46875,0.21875,0.0,0.0,0.0
1695837563905,-0.013671875,0.9941406,0.015625,0.0625,0.34375,0.09375,0.0,0.0,0.0
1695837563944,-0.024414062,0.99902344,0.016601562,0.3125,0.46875,0.34375,0.0,0.0,0.0
1695837563984,-0.029296875,1.0029297,0.0068359375,0.0625,0.21875,0.28125,11.875,47.125,-41.3125
1695837564025,-0.0126953125,0.9951172,0.028320312,0.0,0.15625,0.15625,0.0,0.0,0.0
1695837564064,-0.025390625,0.9921875,0.030273438,0.0625,0.15625,0.09375,0.0,0.0,0.0
1695837564105,-0.01953125,0.9951172,0.01953125,-0.0625,0.09375,0.15625,0.0,0.0,0.0
1695837564144,-0.020507812,0.9951172,0.0126953125,0.125,-0.09375,0.28125,0.0,0.0,0.0
1695837564184,-0.024414062,0.9951172,0.0107421875,0.0,-0.09375,0.28125,0.0,0.0,0.0
1695837564225,-0.020507812,0.9951172,0.0107421875,0.125,0.03125,0.46875,0.0,0.0,0.0
1695837564264,-0.015625,0.9951172,0.022460938,0.125,-0.03125,0.21875,0.0,0.0,0.0
1695837564304,-0.015625,0.9921875,0.0087890625,0.25,0.40625,0.34375,0.0,0.0,0.0
1695837564344,-0.017578125,0.9970703,0.021484375,-0.0625,-0.34375,0.34375,0.0,0.0,0.0
1695837564385,-0.025390625,1.0,0.017578125,0.0625,-0.09375,0.21875,0.0,0.0,0.0
1695837564425,-0.01953125,0.9824219,0.024414062,0.0,-0.28125,0.46875,0.0,0.0,0.0
1695837564464,-0.018554688,0.9970703,0.0107421875,0.0625,0.53125,0.40625,12.125,46.375,-41.3125
1695837564504,-0.026367188,1.0009766,0.021484375,0.125,0.21875,0.34375,0.0,0.0,0.0
1695837564544,-0.026367188,0.9980469,0.0146484375,0.3125,0.78125,0.53125,0.0,0.0,0.0
1695837564584,-0.026367188,1.0,0.024414062,0.1875,0.59375,0.53125,0.0,0.0,0.0
1695837564624,-0.022460938,0.9941406,0.016601562,0.1875,0.03125,0.46875,0.0,0.0,0.0
1695837564665,-0.015625,1.0009766,0.022460938,0.25,0.71875,0.59375,0.0,0.0,0.0
1695837564704,-0.018554688,0.9970703,0.0087890625,0.375,-0.09375,0.40625,0.0,0.0,0.0
1695837564745,-0.022460938,0.99902344,0.021484375,0.25,0.15625,0.59375,0.0,0.0,0.0
1695837564784,-0.025390625,1.0039062,0.001953125,0.4375,0.03125,0.65625,0.0,0.0,0.0
1695837564824,-0.015625,0.99316406,0.0068359375,0.5,-0.09375,0.78125,0.0,0.0,0.0
1695837564865,-0.026367188,0.9921875,0.025390625,0.25,0.09375,0.8125,0.0,0.0,0.0
1695837564905,-0.0126953125,0.9970703,0.0107421875,0.375,-0.5,0.53125,0.0,0.0,0.0
1695837564944,-0.01953125,0.98828125,0.021484375,0.0625,-0.15625,0.46875,0.0,0.0,0.0
1695837564985,-0.0234375,1.0058594,0.0029296875,-0.1875,-0.75,0.53125,10.8125,45.9375,-40.25
1695837565025,-0.0234375,0.99609375,0.013671875,0.0625,0.28125,0.53125,0.0,0.0,0.0
1695837565063,-0.025390625,0.9980469,0.0234375,0.1875,0.40625,0.59375,0.0,0.0,0.0
1695837565106,-0.02734375,0.98828125,0.0146484375,0.375,0.28125,0.71875,0.0,0.0,0.0
1695837565145,-0.024414062,0.99902344,0.025390625,0.375,0.21875,0.59375,0.0,0.0,0.0
1695837565184,-0.017578125,1.0009766,0.017578125,0.1875,0.15625,0.46875,0.0,0.0,0.0
1695837565227,-0.018554688,0.98535156,0.0146484375,0.1875,0.34375,0.34375,0.0,0.0,0.0
1695837565264,-0.026367188,1.0029297,0.0068359375,0.0,-0.21875,0.46875,0.0,0.0,0.0
1695837565304,-0.01953125,0.9951172,0.013671875,0.125,-0.03125,0.53125,0.0,0.0,0.0
1695837565345,-0.020507812,0.9892578,0.0107421875,0.3125,-0.4375,0.34375,0.0,0.0,0.0
1695837565385,-0.015625,0.99316406,0.013671875,0.4375,0.21875,0.59375,0.0,0.0,0.0
1695837565423,-0.020507812,0.99316406,0.01171875,0.4375,0.28125,0.34375,0.0,0.0,0.0
1695837565464,-0.0078125,0.9980469,0.015625,0.5625,0.65625,0.40625,13.0625,47.3125,-42.1875
1695837565505,-0.015625,0.9941406,0.0146484375,0.25,-0.15625,0.40625,0.0,0.0,0.0
1695837565545,-0.024414062,0.9941406,0.0126953125,0.375,-0.03125,0.53125,0.0,0.0,0.0
1695837565586,-0.0146484375,0.9941406,0.0048828125,0.4375,0.46875,0.40625,0.0,0.0,0.0
1695837565623,-0.015625,0.98828125,0.0107421875,0.3125,0.21875,0.40625,0.0,0.0,0.0
1695837565664,-0.015625,0.9980469,0.013671875,0.4375,0.78125,0.53125,0.0,0.0,0.0
1695837565707,-0.025390625,0.9892578,0.018554688,0.125,0.03125,0.28125,0.0,0.0,0.0
1695837565744,-0.015625,0.99902344,0.0048828125,0.125,0.15625,0.40625,0.0,0.0,0.0
1695837565784,-0.021484375,0.9921875,0.013671875,0.0625,-0.15625,0.46875,0.0,0.0,0.0
1695837565828,-0.015625,0.99316406,0.01171875,0.1875,0.40625,0.40625,0.0,0.0,0.0
1695837565865,-0.013671875,0.9921875,0.026367188,-0.125,-0.5,0.21875,0.0,0.0,0.0
1695837565904,-0.015625,1.0058594,0.017578125,-0.0625,-0.09375,0.59375,0.0,0.0,0.0
1695837565944,-0.020507812,0.9951172,-0.00390625,0.25,0.28125,0.40625,0.0,0.0,0.0
1695837565984,-0.0146484375,1.0029297,0.00390625,0.25,0.03125,0.21875,10.9375,47.5625,-40.4375
1695837566024,-0.0234375,0.9951172,0.0107421875,0.25,0.34375,0.46875,0.0,0.0,0.0
1695837566069,-0.01953125,0.99316406,0.0078125,0.125,-0.03125,0.34375,0.0,0.0,0.0
1695837566104,-0.018554688,0.99609375,0.0029296875,0.125,0.21875,0.28125,0.0,0.0,0.0
1695837566144,-0.01953125,0.99121094,0.009765625,0.125,0.28125,0.53125,0.0,0.0,0.0
1695837566184,-0.0087890625,1.0,0.01953125,0.0625,0.09375,0.28125,0.0,0.0,0.0
1695837566224,-0.022460938,0.99121094,0.017578125,-0.125,0.09375,0.46875,0.0,0.0,0.0
1695837566264,-0.0234375,1.0,0.025390625,0.25,0.71875,0.34375,0.0,0.0,0.0
1695837566304,-0.015625,0.99121094,0.00390625,-0.125,-0.03125,0.28125,0.0,0.0,0.0
1695837566345,-0.0234375,0.99609375,0.017578125,0.0625,0.53125,0.28125,0.0,0.0,0.0
1695837566385,-0.021484375,0.9863281,0.016601562,0.125,0.34375,0.28125,0.0,0.0,0.0
1695837566424,-0.015625,0.984375,0.018554688,0.0625,-0.21875,0.15625,0.0,0.0,0.0
1695837566465,-0.0087890625,0.99121094,0.00390625,0.0625,0.28125,0.40625,10.5,48.0625,-40.4375
1695837566504,-0.026367188,0.98828125,0.0078125,0.0,-0.09375,0.21875,0.0,0.0,0.0
1695837566544,-0.017578125,0.99609375,0.0068359375,0.0625,0.21875,0.28125,0.0,0.0,0.0
1695837566585,-0.017578125,0.99316406,0.022460938,0.0,-0.21875,0.40625,0.0,0.0,0.0
1695837566624,-0.024414062,0.99121094,0.0107421875,0.1875,0.21875,0.21875,0.0,0.0,0.0
1695837566664,-0.0234375,0.984375,0.016601562,-0.1875,0.03125,0.03125,0.0,0.0,0.0
1695837566704,-0.021484375,0.9892578,0.0068359375,0.0625,0.34375,0.15625,0.0,0.0,0.0
1695837566744,-0.015625,1.0048828,0.009765625,-0.1875,-0.21875,0.28125,0.0,0.0,0.0
1695837566785,-0.0068359375,1.0029297,0.01171875,0.0,0.03125,0.15625,0.0,0.0,0.0
1695837566824,-0.017578125,0.9970703,0.0048828125,0.0625,0.15625,0.34375,0.0,0.0,0.0
1695837566864,-0.015625,0.98535156,0.015625,0.0,-0.15625,0.34375,0.0,0.0,0.0
1695837566904,-0.026367188,0.9921875,0.0068359375,0.0,0.09375,0.28125,0.0,0.0,0.0
1695837566944,-0.024414062,0.9892578,0.0126953125,0.125,-0.28125,0.15625,0.0,0.0,0.0
1695837566984,-0.018554688,0.99121094,0.0146484375,-0.1875,0.21875,0.40625,10.1875,46.5625,-41.75
1695837567025,-0.02734375,1.0039062,-9.765625E-4,-0.0625,0.09375,0.15625,0.0,0.0,0.0
1695837567064,-0.025390625,0.99609375,0.0107421875,-0.125,0.28125,0.28125,0.0,0.0,0.0
1695837567105,-0.018554688,0.9980469,0.00390625,0.0625,0.28125,0.21875,0.0,0.0,0.0
1695837567144,-0.021484375,0.9970703,0.00390625,0.125,0.78125,0.21875,0.0,0.0,0.0
1695837567185,-0.018554688,0.9921875,-0.0029296875,0.0,0.40625,0.15625,0.0,0.0,0.0
1695837567225,-0.024414062,0.99121094,0.018554688,0.0625,0.28125,0.21875,0.0,0.0,0.0
1695837567264,-0.01171875,0.9902344,0.00390625,-0.125,0.15625,0.28125,0.0,0.0,0.0
1695837567305,-0.024414062,1.0009766,0.0078125,0.0625,0.34375,0.34375,0.0,0.0,0.0
1695837567344,-0.013671875,0.9921875,0.01171875,0.0625,0.21875,0.15625,0.0,0.0,0.0
1695837567384,-0.0146484375,0.9951172,0.0146484375,-0.125,-0.09375,0.34375,0.0,0.0,0.0
1695837567425,-0.024414062,0.9980469,0.013671875,0.0625,-0.03125,0.46875,0.0,0.0,0.0
1695837567465,-0.009765625,0.99316406,0.0068359375,-0.0625,0.09375,0.21875,10.375,46.6875,-41.3125
1695837567505,-0.0234375,0.9941406,0.016601562,0.0625,0.09375,0.28125,0.0,0.0,0.0
1695837567544,-0.032226562,0.99121094,0.009765625,0.125,0.28125,0.34375,0.0,0.0,0.0
1695837567584,-0.024414062,0.9951172,0.0078125,0.1875,0.15625,0.28125,0.0,0.0,0.0
1695837567624,-0.026367188,1.0058594,0.001953125,0.0,-0.03125,0.34375,0.0,0.0,0.0
1695837567664,-0.0126953125,0.9941406,0.017578125,0.0,0.03125,0.21875,0.0,0.0,0.0
1695837567705,-0.015625,1.0019531,0.017578125,0.0,-0.15625,0.21875,0.0,0.0,0.0
1695837567744,-0.021484375,0.99316406,0.001953125,0.3125,0.21875,0.59375,0.0,0.0,0.0
1695837567784,-0.01171875,1.0,0.009765625,0.25,-0.09375,0.28125,0.0,0.0,0.0
1695837567825,-0.01953125,1.0,0.01171875,0.0,-0.28125,0.34375,0.0,0.0,0.0
1695837567865,-0.026367188,0.9970703,0.021484375,-0.0625,-0.03125,0.28125,0.0,0.0,0.0
1695837567905,-0.018554688,0.9951172,0.0087890625,0.0,-0.15625,0.28125,0.0,0.0,0.0
1695837567944,-0.015625,0.98535156,0.01171875,0.125,0.65625,0.46875,0.0,0.0,0.0
1695837567986,-0.020507812,0.9902344,0.0234375,0.125,0.34375,0.34375,12.0,46.8125,-39.8125
1695837568024,-0.01953125,0.9980469,0.01953125,0.0625,0.59375,0.40625,0.0,0.0,0.0
1695837568064,-0.033203125,0.9970703,0.016601562,0.0625,0.65625,0.40625,0.0,0.0,0.0
1695837568105,-0.0234375,0.9970703,0.025390625,0.1875,0.21875,0.28125,0.0,0.0,0.0
1695837568144,-0.025390625,0.9970703,0.0068359375,0.25,0.59375,0.34375,0.0,0.0,0.0
1695837568183,-0.01953125,1.0019531,0.024414062,-0.125,-0.09375,0.28125,0.0,0.0,0.0
1695837568226,-0.025390625,0.99902344,-9.765625E-4,0.1875,0.59375,0.46875,0.0,0.0,0.0
1695837568264,-0.0234375,1.0,-0.013671875,0.125,-0.34375,0.21875,0.0,0.0,0.0
1695837568304,-0.020507812,0.9980469,0.0126953125,-0.0625,-0.09375,0.53125,0.0,0.0,0.0
1695837568346,-0.01953125,0.99316406,0.01171875,0.0,-0.09375,0.28125,0.0,0.0,0.0
1695837568384,-0.016601562,0.99902344,0.013671875,0.125,-0.15625,0.28125,0.0,0.0,0.0
1695837568424,-0.01953125,1.0048828,0.017578125,0.0,0.09375,0.53125,0.0,0.0,0.0
1695837568464,-0.0107421875,0.99902344,0.01171875,0.0,-0.15625,0.28125,10.8125,46.375,-41.3125
1695837568505,-0.018554688,0.9941406,0.0078125,0.0625,0.28125,0.28125,0.0,0.0,0.0
1695837568543,-0.021484375,0.9921875,0.01171875,-0.0625,-0.15625,0.21875,0.0,0.0,0.0
1695837568585,-0.022460938,0.99609375,0.013671875,0.0,-0.09375,0.40625,0.0,0.0,0.0
1695837568625,-0.022460938,0.99316406,0.015625,0.125,0.28125,0.40625,0.0,0.0,0.0
1695837568663,-0.013671875,1.0039062,0.026367188,0.1875,0.15625,0.40625,0.0,0.0,0.0
1695837568706,-0.017578125,0.9980469,0.015625,0.0625,0.15625,0.40625,0.0,0.0,0.0
1695837568744,-0.018554688,0.9951172,0.0126953125,0.0,-0.21875,0.28125,0.0,0.0,0.0
1695837568783,-0.015625,0.9892578,0.0146484375,0.0,0.03125,0.34375,0.0,0.0,0.0
1695837568827,-0.015625,1.0019531,0.0078125,-0.25,-0.09375,0.34375,0.0,0.0,0.0
1695837568865,-0.0078125,0.99902344,0.0087890625,0.0,0.15625,0.34375,0.0,0.0,0.0
1695837568904,-0.02734375,0.9941406,0.0087890625,-0.0625,0.15625,0.34375,0.0,0.0,0.0
1695837568944,-0.025390625,0.9970703,0.0107421875,0.125,0.09375,0.21875,0.0,0.0,0.0
1695837568985,-0.021484375,0.9951172,0.016601562,0.0,0.34375,0.21875,11.6875,45.8125,-42.5
1695837569023,-0.022460938,0.9892578,0.009765625,0.0625,0.40625,0.15625,0.0,0.0,0.0
1695837569065,-0.013671875,1.0009766,0.01953125,0.125,0.09375,0.21875,0.0,0.0,0.0
1695837569104,-0.015625,1.0009766,0.009765625,0.0,0.09375,0.21875,0.0,0.0,0.0
1695837569144,-0.017578125,0.9970703,0.029296875,0.1875,-0.03125,0.21875,0.0,0.0,0.0
1695837569184,-0.013671875,1.0,0.01953125,0.0,-0.09375,0.34375,0.0,0.0,0.0
1695837569224,-0.015625,0.9902344,0.0029296875,0.0625,0.34375,0.28125,0.0,0.0,0.0
1695837569264,-0.016601562,1.0019531,0.017578125,0.0,-0.03125,0.21875,0.0,0.0,0.0
1695837569305,-0.021484375,0.9921875,0.025390625,-0.0625,-0.09375,0.34375,0.0,0.0,0.0
1695837569344,-0.021484375,0.9970703,0.018554688,0.0,-0.03125,0.28125,0.0,0.0,0.0
1695837569384,-0.024414062,0.9921875,0.0048828125,0.0625,-0.03125,0.21875,0.0,0.0,0.0
1695837569424,-0.024414062,0.98828125,0.016601562,-0.1875,-0.34375,0.03125,0.0,0.0,0.0
1695837569464,-0.016601562,0.9970703,0.017578125,-0.25,0.03125,0.21875,13.8125,49.0625,-41.75
1695837569505,-0.0234375,0.9941406,0.015625,-0.125,0.21875,0.21875,0.0,0.0,0.0
1695837569544,-0.025390625,0.9970703,0.021484375,0.125,0.21875,0.21875,0.0,0.0,0.0
1695837569584,-0.01953125,0.9970703,0.01953125,-0.125,0.34375,0.46875,0.0,0.0,0.0
1695837569624,-0.026367188,0.9951172,0.030273438,0.0625,-0.03125,0.03125,0.0,0.0,0.0
1695837569664,-0.018554688,0.9951172,0.017578125,-0.0625,0.28125,0.28125,0.0,0.0,0.0
1695837569704,-0.024414062,0.9921875,0.021484375,-0.125,0.28125,0.28125,0.0,0.0,0.0
1695837569744,-0.025390625,1.0029297,0.016601562,-0.125,-0.34375,0.15625,0.0,0.0,0.0
1695837569784,-0.02734375,0.99316406,0.0126953125,-0.125,0.09375,0.21875,0.0,0.0,0.0
1695837569824,-0.020507812,0.9980469,0.017578125,0.0,0.34375,0.21875,0.0,0.0,0.0
1695837569864,-0.0234375,1.0019531,0.016601562,0.0625,0.34375,0.15625,0.0,0.0,0.0
1695837569904,-0.02734375,0.99316406,0.0068359375,-0.125,0.21875,0.15625,0.0,0.0,0.0
1695837569944,-0.024414062,0.99609375,0.015625,-0.1875,0.21875,0.21875,0.0,0.0,0.0
1695837569984,-0.013671875,0.9970703,0.0068359375,-0.0625,0.15625,0.28125,12.0,46.25,-40.875
1695837570025,-0.0234375,0.99902344,0.015625,-0.25,0.09375,0.09375,0.0,0.0,0.0
1695837570064,-0.01953125,1.0058594,0.024414062,-0.1875,-0.09375,0.21875,0.0,0.0,0.0
1695837570104,-0.017578125,0.99121094,0.01953125,0.0,0.09375,0.21875,0.0,0.0,0.0
1695837570145,-0.02734375,0.99902344,0.0078125,-0.125,0.09375,0.15625,0.0,0.0,0.0
1695837570184,-0.01953125,0.9970703,0.0107421875,0.0625,0.46875,0.28125,0.0,0.0,0.0
1695837570225,-0.03125,0.99609375,0.016601562,0.0625,0.15625,0.21875,0.0,0.0,0.0
1695837570264,-0.021484375,0.9951172,0.0087890625,-0.125,0.15625,0.21875,0.0,0.0,0.0
1695837570304,-0.022460938,0.9951172,0.0078125,0.0,-0.15625,0.28125,0.0,0.0,0.0
1695837570344,-0.0146484375,0.99609375,0.021484375,-0.25,-0.21875,0.21875,0.0,0.0,0.0
1695837570385,-0.0234375,1.0029297,0.009765625,-0.0625,0.03125,0.21875,0.0,0.0,0.0
1695837570424,-0.026367188,0.9941406,0.018554688,0.0625,0.21875,0.21875,0.0,0.0,0.0
1695837570464,-0.016601562,1.0009766,0.0126953125,0.125,0.28125,0.28125,11.6875,46.25,-42.5
1695837570504,-0.0234375,0.99316406,0.0078125,0.25,0.40625,0.40625,0.0,0.0,0.0
1695837570544,-0.024414062,0.9970703,0.016601562,0.0,0.03125,0.40625,0.0,0.0,0.0
1695837570584,-0.018554688,0.99902344,0.021484375,0.125,-0.15625,0.40625,0.0,0.0,0.0
1695837570624,-0.028320312,0.99121094,0.028320312,0.0,-0.5,0.34375,0.0,0.0,0.0
1695837570664,-0.022460938,0.99316406,0.01171875,0.1875,0.34375,0.53125,0.0,0.0,0.0
1695837570704,-0.022460938,1.0019531,0.028320312,0.3125,0.40625,0.46875,0.0,0.0,0.0
1695837570744,-0.0234375,0.9902344,0.016601562,0.3125,0.53125,0.53125,0.0,0.0,0.0
1695837570784,-0.0146484375,0.9980469,0.025390625,0.375,0.53125,0.53125,0.0,0.0,0.0
1695837570825,-0.024414062,0.99121094,0.0126953125,0.4375,0.46875,0.46875,0.0,0.0,0.0
1695837570865,-0.022460938,0.9951172,0.009765625,0.375,0.46875,0.28125,0.0,0.0,0.0
1695837570904,-0.022460938,0.9951172,0.017578125,0.3125,0.03125,0.46875,0.0,0.0,0.0
1695837570944,-0.034179688,0.9941406,0.028320312,0.0625,0.03125,0.53125,0.0,0.0,0.0
1695837570985,-0.02734375,0.9970703,0.0087890625,0.625,0.28125,0.65625,11.125,47.4375,-41.625
1695837571025,-0.022460938,0.9970703,0.0078125,0.125,0.09375,0.46875,0.0,0.0,0.0
1695837571065,-0.0234375,0.9951172,0.009765625,0.125,-0.03125,0.59375,0.0,0.0,0.0
1695837571106,-0.026367188,0.98828125,0.009765625,0.1875,0.28125,0.59375,0.0,0.0,0.0
1695837571144,-0.032226562,0.99316406,0.024414062,0.1875,-0.03125,0.46875,0.0,0.0,0.0
1695837571185,-0.022460938,1.0029297,0.017578125,0.1875,0.03125,0.53125,0.0,0.0,0.0
1695837571227,-0.0068359375,1.0009766,0.009765625,0.125,-0.03125,0.53125,0.0,0.0,0.0
1695837571264,-0.028320312,0.9921875,0.01171875,0.1875,-0.03125,0.40625,0.0,0.0,0.0
1695837571303,-0.01953125,0.9980469,0.0107421875,0.125,-0.09375,0.34375,0.0,0.0,0.0
1695837571346,-0.015625,0.9951172,0.00390625,0.0,-0.09375,0.53125,0.0,0.0,0.0
1695837571385,-0.015625,0.99902344,0.0087890625,0.25,-0.09375,0.46875,0.0,0.0,0.0
1695837571424,-0.01171875,0.9980469,0.0068359375,0.3125,0.15625,0.53125,0.0,0.0,0.0
1695837571465,-0.017578125,0.9951172,0.018554688,0.3125,-0.21875,0.46875,10.375,45.625,-41.0
1695837571504,-0.018554688,0.99316406,0.013671875,0.125,-0.03125,0.71875,0.0,0.0,0.0
1695837571544,-0.0234375,0.9970703,0.022460938,0.1875,-0.03125,0.21875,0.0,0.0,0.0
1695837571585,-0.022460938,0.9941406,0.0146484375,0.125,0.21875,0.34375,0.0,0.0,0.0
1695837571624,-0.0234375,0.9970703,0.00390625,0.0625,0.09375,0.46875,0.0,0.0,0.0
1695837571663,-0.01953125,0.9892578,0.036132812,0.3125,0.28125,0.28125,0.0,0.0,0.0
1695837571704,-0.02734375,0.9941406,-0.001953125,0.125,0.59375,0.40625,0.0,0.0,0.0
1695837571744,-0.021484375,0.99902344,0.01171875,0.4375,0.15625,0.21875,0.0,0.0,0.0
1695837571784,-0.026367188,0.99902344,0.0146484375,0.3125,0.65625,0.40625,0.0,0.0,0.0
1695837571829,-0.0087890625,0.99121094,0.017578125,0.25,0.15625,0.28125,0.0,0.0,0.0
1695837571864,-0.020507812,1.0029297,0.013671875,0.125,0.21875,0.40625,0.0,0.0,0.0
1695837571904,-0.02734375,0.9902344,0.02734375,0.1875,0.09375,0.34375,0.0,0.0,0.0
1695837571945,-0.020507812,0.9921875,0.0048828125,0.25,-0.03125,0.03125,0.0,0.0,0.0
1695837571984,-0.021484375,0.99609375,0.0234375,0.25,0.53125,0.28125,11.375,47.75,-41.3125
1695837572024,-0.03125,1.0019531,0.026367188,-0.0625,-0.15625,0.34375,0.0,0.0,0.0
1695837572064,-0.022460938,1.0029297,0.02734375,0.0625,-0.09375,0.21875,0.0,0.0,0.0
1695837572105,-0.02734375,0.99316406,0.013671875,0.25,0.40625,0.28125,0.0,0.0,0.0
1695837572144,-0.028320312,0.9970703,0.0078125,0.0625,0.03125,0.15625,0.0,0.0,0.0
1695837572184,-0.015625,1.0,0.013671875,-0.125,0.03125,0.21875,0.0,0.0,0.0
1695837572224,-0.01953125,1.0,0.01171875,-0.1875,0.15625,0.21875,0.0,0.0,0.0
1695837572265,-0.015625,0.9970703,0.024414062,0.0,-0.09375,0.03125,0.0,0.0,0.0
1695837572304,-0.024414062,0.9941406,0.005859375,0.1875,0.28125,0.28125,0.0,0.0,0.0
1695837572345,-0.0234375,1.0029297,0.0087890625,-0.0625,-0.21875,0.34375,0.0,0.0,0.0
1695837572385,-0.018554688,0.9921875,0.017578125,-0.0625,-0.03125,0.15625,0.0,0.0,0.0
1695837572424,-0.016601562,0.9921875,0.018554688,-0.0625,-0.28125,0.09375,0.0,0.0,0.0
1695837572464,-0.018554688,1.0009766,0.013671875,-0.25,-0.03125,0.28125,11.6875,46.8125,-39.8125
1695837572504,-0.022460938,0.99121094,0.0146484375,-0.1875,-0.28125,0.21875,0.0,0.0,0.0
1695837572544,-0.021484375,1.0019531,0.0087890625,0.0625,0.15625,0.34375,0.0,0.0,0.0
1695837572584,-0.026367188,1.0009766,0.017578125,0.0,0.03125,0.09375,0.0,0.0,0.0
1695837572624,-0.015625,0.99121094,0.01171875,0.0,0.46875,0.34375,0.0,0.0,0.0
1695837572664,-0.020507812,0.9980469,0.021484375,0.0625,0.34375,0.21875,0.0,0.0,0.0
1695837572704,-0.024414062,0.9921875,0.0087890625,-0.125,0.03125,0.15625,0.0,0.0,0.0
1695837572745,-0.009765625,1.0009766,0.017578125,0.0625,0.15625,0.09375,0.0,0.0,0.0
1695837572784,-0.017578125,0.9951172,0.013671875,0.0625,0.15625,0.28125,0.0,0.0,0.0
1695837572825,-0.03125,0.9970703,0.0234375,0.0,0.09375,0.21875,0.0,0.0,0.0
1695837572864,-0.020507812,0.9902344,0.015625,0.1875,-0.09375,0.28125,0.0,0.0,0.0
1695837572904,-0.016601562,0.9951172,0.01953125,0.125,0.21875,0.34375,0.0,0.0,0.0
1695837572944,-0.024414062,0.99609375,0.005859375,0.0,-0.03125,0.15625,0.0,0.0,0.0
1695837572983,-0.02734375,0.9951172,0.01171875,0.0,0.03125,0.09375,11.375,48.9375,-41.625
1695837573024,-0.021484375,0.9941406,0.0078125,-0.1875,-0.03125,0.21875,0.0,0.0,0.0
1695837573064,-0.020507812,1.0068359,0.015625,-0.125,-0.09375,0.09375,0.0,0.0,0.0
1695837573104,-0.01171875,0.9970703,0.028320312,0.0,-0.03125,0.15625,0.0,0.0,0.0
1695837573144,-0.021484375,1.0068359,0.026367188,0.0625,0.34375,0.21875,0.0,0.0,0.0
1695837573183,-0.0146484375,0.99121094,0.0107421875,-0.25,-0.75,-0.03125,0.0,0.0,0.0
1695837573225,-0.020507812,0.99902344,0.02734375,0.0625,0.21875,0.15625,0.0,0.0,0.0
1695837573263,-0.030273438,0.9951172,0.022460938,-0.125,-0.5,0.09375,0.0,0.0,0.0
1695837573304,-0.028320312,1.0097656,0.0126953125,-0.125,-0.03125,0.09375,0.0,0.0,0.0
1695837573344,-0.016601562,1.0039062,0.016601562,0.0625,0.15625,0.03125,0.0,0.0,0.0
1695837573384,-0.020507812,0.9980469,0.0146484375,-0.25,0.15625,0.09375,0.0,0.0,0.0
1695837573425,-0.017578125,0.9951172,-0.001953125,-0.0625,0.34375,-0.03125,0.0,0.0,0.0
1695837573464,-0.026367188,0.99121094,0.0146484375,0.0,0.53125,0.09375,10.1875,46.8125,-40.875
1695837573504,-0.022460938,0.9892578,0.0087890625,-0.1875,-0.09375,0.09375,0.0,0.0,0.0
1695837573545,-0.021484375,0.9970703,0.021484375,-0.25,0.03125,0.09375,0.0,0.0,0.0
1695837573584,-0.028320312,0.99609375,0.01171875,-0.1875,0.09375,0.15625,0.0,0.0,0.0
1695837573624,-0.02734375,1.0048828,0.018554688,-0.1875,-0.28125,0.09375,0.0,0.0,0.0
1695837573665,-0.022460938,1.0,0.01953125,-0.0625,-0.5,0.03125,0.0,0.0,0.0
1695837573704,-0.026367188,1.0029297,0.0146484375,-0.0625,0.46875,0.28125,0.0,0.0,0.0
1695837573744,-0.0234375,0.99121094,0.026367188,0.0,-0.15625,0.09375,0.0,0.0,0.0
1695837573784,-0.021484375,1.0039062,0.016601562,-0.0625,0.03125,0.03125,0.0,0.0,0.0
1695837573824,-0.024414062,0.9980469,0.0068359375,0.0625,0.21875,0.34375,0.0,0.0,0.0
1695837573864,-0.021484375,0.99316406,0.00390625,-0.1875,-0.21875,-0.03125,0.0,0.0,0.0
1695837573904,-0.021484375,0.9951172,0.024414062,-0.1875,0.03125,0.09375,0.0,0.0,0.0
1695837573944,-0.025390625,1.0019531,0.033203125,0.0625,0.03125,0.15625,0.0,0.0,0.0
1695837573985,-0.029296875,0.9921875,0.030273438,0.0625,0.03125,0.15625,12.0,45.5,-41.4375
1695837574024,-0.026367188,0.9951172,0.0068359375,-0.0625,-0.09375,0.34375,0.0,0.0,0.0
1695837574065,-0.02734375,0.99609375,0.024414062,0.0,-0.03125,0.21875,0.0,0.0,0.0
1695837574106,-0.016601562,1.0,0.015625,0.0,-0.28125,0.21875,0.0,0.0,0.0
1695837574144,-0.02734375,0.9941406,0.032226562,0.0625,-0.21875,0.34375,0.0,0.0,0.0
1695837574184,-0.025390625,0.9970703,0.01171875,0.125,0.34375,0.28125,0.0,0.0,0.0
1695837574225,-0.030273438,0.98828125,0.0068359375,0.125,0.03125,0.21875,0.0,0.0,0.0
1695837574264,-0.022460938,1.0048828,0.016601562,0.0,0.21875,0.34375,0.0,0.0,0.0
1695837574304,-0.030273438,0.98828125,0.028320312,0.0,0.34375,0.46875,0.0,0.0,0.0
1695837574351,-0.028320312,0.9951172,0.025390625,0.0625,0.34375,0.21875,0.0,0.0,0.0
1695837574385,-0.032226562,1.0,0.018554688,0.0625,0.34375,0.21875,0.0,0.0,0.0
1695837574424,-0.029296875,0.99609375,0.0126953125,0.0625,0.21875,0.28125,0.0,0.0,0.0
1695837574465,-0.030273438,0.9951172,0.024414062,0.0625,0.34375,0.40625,10.0625,45.3125,-41.0
1695837574504,-0.026367188,0.9951172,0.0068359375,0.0625,-0.09375,0.15625,0.0,0.0,0.0
1695837574545,-0.026367188,0.99902344,0.018554688,0.0625,0.15625,0.21875,0.0,0.0,0.0
1695837574584,-0.026367188,0.9970703,0.0390625,0.0,0.09375,0.40625,0.0,0.0,0.0
1695837574625,-0.025390625,0.9892578,0.022460938,0.0,0.09375,0.28125,0.0,0.0,0.0
1695837574663,-0.026367188,0.99609375,0.01953125,0.0625,0.40625,0.34375,0.0,0.0,0.0
1695837574706,-0.01953125,1.0097656,0.018554688,0.3125,0.03125,0.28125,0.0,0.0,0.0
1695837574745,-0.021484375,0.99121094,0.026367188,0.1875,-0.28125,0.21875,0.0,0.0,0.0
1695837574784,-0.032226562,0.99902344,0.0234375,0.0,-0.15625,0.46875,0.0,0.0,0.0
1695837574827,-0.029296875,0.9951172,0.02734375,0.0,-0.4375,0.34375,0.0,0.0,0.0
1695837574865,-0.020507812,1.0078125,0.025390625,0.3125,-0.03125,0.46875,0.0,0.0,0.0
1695837574904,-0.026367188,0.9951172,0.01953125,0.0625,-0.5,0.46875,0.0,0.0,0.0
1695837574947,-0.03125,0.9951172,0.026367188,0.1875,-0.625,0.46875,0.0,0.0,0.0
1695837574984,-0.032226562,0.984375,0.0,0.0625,-0.09375,0.59375,11.875,47.75,-40.5625
1695837575023,-0.015625,0.9951172,0.017578125,0.0,-0.5625,0.40625,0.0,0.0,0.0
1695837575065,-0.015625,0.9902344,0.022460938,0.0,-0.40625,0.21875,0.0,0.0,0.0
1695837575104,-0.029296875,1.0019531,0.037109375,0.0,-0.15625,0.46875,0.0,0.0,0.0
1695837575144,-0.0234375,0.99609375,0.021484375,0.0,-0.40625,0.21875,0.0,0.0,0.0
1695837575184,-0.025390625,0.9980469,0.020507812,-0.0625,-0.15625,0.40625,0.0,0.0,0.0
1695837575225,-0.029296875,1.0,0.028320312,0.1875,0.34375,0.59375,0.0,0.0,0.0
1695837575263,-0.030273438,0.9980469,0.026367188,0.0625,0.34375,0.46875,0.0,0.0,0.0
1695837575305,-0.020507812,1.0,0.03125,0.3125,0.21875,0.59375,0.0,0.0,0.0
1695837575344,-0.0234375,0.9951172,0.021484375,0.125,0.15625,0.46875,0.0,0.0,0.0
1695837575384,-0.030273438,0.9892578,0.015625,0.0,0.03125,0.53125,0.0,0.0,0.0
1695837575425,-0.025390625,0.9921875,0.036132812,0.1875,-0.03125,0.46875,0.0,0.0,0.0
1695837575465,-0.036132812,0.99902344,0.0107421875,0.1875,0.21875,0.46875,11.875,45.625,-41.0
1695837575503,-0.029296875,0.99316406,0.017578125,0.1875,0.28125,0.59375,0.0,0.0,0.0
1695837575544,-0.022460938,1.0,0.0078125,0.25,0.34375,0.46875,0.0,0.0,0.0
1695837575584,-0.025390625,0.99316406,0.009765625,0.1875,-0.03125,0.46875,0.0,0.0,0.0
1695837575625,-0.01953125,1.0,0.01953125,-0.1875,-0.03125,0.46875,0.0,0.0,0.0
1695837575664,-0.015625,0.99121094,0.0126953125,0.0,-0.09375,0.34375,0.0,0.0,0.0
1695837575704,-0.025390625,0.9980469,0.01953125,0.1875,0.15625,0.46875,0.0,0.0,0.0
1695837575745,-0.0234375,0.9951172,0.0146484375,0.125,-0.09375,0.46875,0.0,0.0,0.0
1695837575784,-0.029296875,0.99121094,0.017578125,0.3125,0.21875,0.40625,0.0,0.0,0.0
1695837575825,-0.0234375,0.9970703,0.025390625,-0.125,0.125,-0.03125,0.0,0.0,0.0
1695837575863,-0.026367188,0.9921875,0.026367188,-0.125,-0.0625,-0.21875,0.0,0.0,0.0
1695837575904,-0.034179688,0.99316406,0.028320312,0.125,0.0,-0.09375,0.0,0.0,0.0
1695837575945,-0.020507812,0.9892578,0.022460938,-0.0625,0.0,-0.09375,0.0,0.0,0.0
1695837575984,-0.029296875,0.99121094,0.016601562,0.1875,0.40625,-0.09375,11.25,47.5625,-42.1875
1695837576024,-0.026367188,0.99316406,0.0107421875,-0.0625,0.125,-0.09375,0.0,0.0,0.0
1695837576064,-0.025390625,0.9941406,0.032226562,0.0625,0.1875,-0.03125,0.0,0.0,0.0
1695837576104,-0.029296875,0.99609375,0.029296875,0.1875,0.21875,-0.15625,0.0,0.0,0.0
1695837576144,-0.032226562,0.99902344,0.028320312,0.0625,0.0625,-0.09375,0.0,0.0,0.0
1695837576184,-0.026367188,0.9980469,0.030273438,0.1875,0.59375,0.03125,0.0,0.0,0.0
1695837576223,-0.03125,1.0029297,0.0234375,0.1875,0.46875,-0.03125,0.0,0.0,0.0
1695837576264,-0.0234375,0.9951172,0.020507812,0.0625,0.1875,-0.15625,0.0,0.0,0.0
1695837576304,-0.032226562,1.0009766,0.026367188,0.0,0.34375,-0.03125,0.0,0.0,0.0
1695837576344,-0.020507812,0.98535156,0.017578125,0.1875,0.34375,0.03125,0.0,0.0,0.0
1695837576384,-0.022460938,1.0068359,0.01171875,0.0625,0.0625,-0.03125,0.0,0.0,0.0
1695837576425,-0.021484375,0.9941406,0.0107421875,0.0625,-0.0625,-0.34375,0.0,0.0,0.0
1695837576464,-0.02734375,0.9951172,0.015625,-0.0625,0.0,0.03125,11.875,47.125,-41.0
1695837576505,-0.022460938,0.9970703,0.02734375,-0.125,0.125,-0.03125,0.0,0.0,0.0
1695837576545,-0.017578125,0.9863281,0.037109375,-0.125,0.0625,-0.09375,0.0,0.0,0.0
1695837576585,-0.018554688,0.9863281,0.016601562,0.3125,0.21875,0.03125,0.0,0.0,0.0
1695837576625,-0.024414062,0.9921875,0.028320312,-0.125,0.0625,0.09375,0.0,0.0,0.0
1695837576664,-0.024414062,0.99316406,0.016601562,0.125,-0.125,0.03125,0.0,0.0,0.0
1695837576704,-0.02734375,1.0019531,0.0087890625,0.125,0.1875,0.09375,0.0,0.0,0.0
1695837576743,-0.015625,0.9970703,0.024414062,0.0,-0.0625,0.03125,0.0,0.0,0.0
1695837576784,-0.03125,0.9980469,0.017578125,0.0,0.1875,0.09375,0.0,0.0,0.0
1695837576824,-0.022460938,0.99316406,0.017578125,0.1875,0.40625,0.09375,0.0,0.0,0.0
1695837576865,-0.025390625,0.99121094,0.030273438,-0.125,0.125,-0.09375,0.0,0.0,0.0
1695837576905,-0.02734375,1.0019531,0.0029296875,-0.0625,0.34375,-0.03125,0.0,0.0,0.0
1695837576945,-0.026367188,0.99609375,0.015625,0.0625,0.53125,0.15625,0.0,0.0,0.0
1695837576984,-0.028320312,0.99121094,0.022460938,-0.125,0.0625,-0.09375,10.8125,46.6875,-42.0625
1695837577025,-0.024414062,0.9921875,0.013671875,0.0,0.125,0.09375,0.0,0.0,0.0
1695837577064,-0.017578125,0.9970703,0.01953125,0.125,0.0625,-0.03125,0.0,0.0,0.0
1695837577104,-0.029296875,0.9970703,0.025390625,0.0,-0.3125,0.03125,0.0,0.0,0.0
1695837577145,-0.01953125,0.9980469,0.0107421875,-0.0625,-0.0625,0.15625,0.0,0.0,0.0
1695837577184,-0.025390625,1.0,0.022460938,0.0,-0.0625,0.09375,0.0,0.0,0.0
1695837577226,-0.02734375,0.98535156,0.0107421875,0.25,0.0625,-0.03125,0.0,0.0,0.0
1695837577265,-0.028320312,0.9980469,0.025390625,-0.0625,-0.1875,0.09375,0.0,0.0,0.0
1695837577305,-0.01953125,0.99316406,0.022460938,0.3125,0.1875,-0.03125,0.0,0.0,0.0
1695837577344,-0.029296875,0.99609375,0.015625,0.0625,-0.125,0.09375,0.0,0.0,0.0
1695837577384,-0.0146484375,0.9980469,0.015625,0.0625,0.0,-0.09375,0.0,0.0,0.0
1695837577425,-0.02734375,1.0048828,0.0146484375,0.125,0.46875,-0.03125,0.0,0.0,0.0
1695837577464,-0.018554688,0.99902344,0.030273438,0.5,0.40625,0.03125,11.125,46.6875,-41.625
1695837577504,-0.01171875,1.0009766,0.018554688,0.375,0.53125,0.21875,0.0,0.0,0.0
1695837577544,-0.020507812,1.0087891,0.0234375,0.25,0.1875,0.09375,0.0,0.0,0.0
1695837577584,-0.020507812,0.9824219,0.028320312,0.3125,0.21875,-0.21875,0.0,0.0,0.0
1695837577624,-0.021484375,0.9921875,0.016601562,0.125,0.40625,-0.21875,0.0,0.0,0.0
1695837577663,-0.018554688,1.0039062,0.0126953125,-0.0625,0.125,-0.21875,0.0,0.0,0.0
1695837577706,-0.024414062,0.9980469,0.034179688,0.25,0.21875,-0.21875,0.0,0.0,0.0
1695837577744,-0.021484375,0.98535156,0.0126953125,0.125,0.59375,0.03125,0.0,0.0,0.0
1695837577783,-0.018554688,0.98828125,0.028320312,0.125,0.40625,-0.09375,0.0,0.0,0.0
1695837577826,-0.024414062,1.0019531,0.022460938,0.0625,0.125,-0.09375,0.0,0.0,0.0
1695837577864,-0.013671875,0.9970703,0.017578125,-0.0625,0.40625,-0.15625,0.0,0.0,0.0
1695837577903,-0.025390625,0.9921875,0.0107421875,0.0625,0.125,-0.21875,0.0,0.0,0.0
1695837577947,-0.0234375,0.9980469,0.016601562,0.0625,0.0625,-0.15625,0.0,0.0,0.0
1695837577984,-0.028320312,1.0029297,0.021484375,-0.0625,0.125,0.03125,10.9375,46.25,-41.4375
1695837578024,-0.01953125,0.99121094,0.01953125,0.1875,-0.25,-0.09375,0.0,0.0,0.0
1695837578063,-0.03515625,0.99609375,0.0107421875,-0.1875,0.21875,-0.28125,0.0,0.0,0.0
1695837578103,-0.024414062,0.99121094,0.0126953125,-0.0625,0.21875,-0.34375,0.0,0.0,0.0
1695837578144,-0.01953125,0.9980469,0.024414062,-0.34375,0.0625,-0.21875,0.0,0.0,0.0
1695837578184,-0.020507812,0.99902344,0.028320312,-0.0625,0.125,-0.34375,0.0,0.0,0.0
1695837578224,-0.029296875,0.9892578,0.013671875,-0.125,0.125,-0.40625,0.0,0.0,0.0
1695837578264,-0.020507812,0.9970703,0.033203125,-0.25,0.0,-0.28125,0.0,0.0,0.0
1695837578305,-0.022460938,0.9970703,0.021484375,-0.125,-0.125,-0.28125,0.0,0.0,0.0
1695837578344,-0.021484375,0.9951172,0.024414062,-0.125,-0.5,-0.34375,0.0,0.0,0.0
1695837578384,-0.021484375,1.0058594,0.013671875,-0.1875,-0.0625,-0.09375,0.0,0.0,0.0
1695837578424,-0.0234375,0.9951172,0.024414062,-0.125,-0.0625,-0.21875,0.0,0.0,0.0
1695837578465,-0.029296875,0.99902344,0.030273438,-0.3125,-0.25,-0.28125,11.875,47.125,-42.0625
1695837578504,-0.0234375,0.9892578,0.01953125,-0.125,0.125,-0.28125,0.0,0.0,0.0
1695837578543,-0.02734375,0.9951172,0.03515625,-0.0625,0.0625,-0.34375,0.0,0.0,0.0
1695837578585,-0.018554688,0.99609375,0.021484375,-0.1875,0.125,-0.21875,0.0,0.0,0.0
1695837578624,-0.024414062,0.9980469,0.022460938,-0.1875,0.28125,-0.21875,0.0,0.0,0.0
1695837578664,-0.015625,0.9970703,0.026367188,0.125,0.65625,-0.34375,0.0,0.0,0.0
1695837578704,-0.021484375,0.99121094,0.025390625,-0.1875,0.59375,-0.09375,0.0,0.0,0.0
1695837578744,-0.01171875,0.99902344,0.021484375,-0.125,0.0625,-0.15625,0.0,0.0,0.0
1695837578784,-0.021484375,0.9941406,0.0234375,-0.34375,-0.9375,-0.40625,0.0,0.0,0.0
1695837578824,-0.021484375,0.9941406,0.024414062,-0.125,-0.375,-0.15625,0.0,0.0,0.0
1695837578864,-0.020507812,1.0,0.021484375,-0.3125,-0.6875,-0.28125,0.0,0.0,0.0
1695837578905,-0.03125,1.0078125,0.0234375,0.0,0.1875,-0.15625,0.0,0.0,0.0
1695837578945,-0.02734375,1.0009766,0.0126953125,-0.0625,0.1875,-0.15625,0.0,0.0,0.0
1695837578984,-0.021484375,1.0009766,0.0087890625,-0.25,0.125,-0.28125,11.125,48.1875,-40.5625
1695837579025,-0.0107421875,1.0097656,0.0087890625,-0.0625,0.1875,-0.40625,0.0,0.0,0.0
1695837579064,-0.0234375,0.99902344,9.765625E-4,-0.125,0.21875,-0.34375,0.0,0.0,0.0
1695837579104,-0.020507812,0.9902344,0.0234375,-0.125,-0.1875,-0.40625,0.0,0.0,0.0
1695837579145,-0.0234375,0.99609375,0.029296875,-0.125,-0.1875,-0.21875,0.0,0.0,0.0
1695837579185,-0.021484375,0.99121094,0.015625,-0.25,-0.25,-0.21875,0.0,0.0,0.0
1695837579224,-0.02734375,0.9863281,0.02734375,0.0625,-0.4375,-0.21875,0.0,0.0,0.0
1695837579264,-0.021484375,0.9941406,0.028320312,-0.125,-0.4375,-0.40625,0.0,0.0,0.0
1695837579304,-0.024414062,0.99609375,0.03125,-0.34375,-0.5625,-0.28125,0.0,0.0,0.0
1695837579345,-0.024414062,0.9941406,0.009765625,-0.125,-0.625,-0.40625,0.0,0.0,0.0
1695837579384,-0.03125,0.99121094,0.0126953125,-0.125,-0.125,-0.34375,0.0,0.0,0.0
1695837579425,-0.028320312,1.0009766,0.015625,-0.25,0.34375,-0.40625,0.0,0.0,0.0
1695837579464,-0.030273438,0.99609375,0.0234375,-0.1875,0.46875,-0.65625,10.1875,46.25,-41.4375
1695837579504,-0.0146484375,0.99609375,0.026367188,-0.25,0.84375,-0.78125,0.0,0.0,0.0
1695837579545,-0.021484375,1.0029297,0.018554688,-0.46875,1.21875,-0.65625,0.0,0.0,0.0
1695837579584,-0.0234375,0.99121094,0.0048828125,-0.1875,0.96875,-0.78125,0.0,0.0,0.0
1695837579625,-0.03125,0.9951172,0.0078125,-0.40625,1.28125,-0.71875,0.0,0.0,0.0
1695837579664,-0.032226562,0.99609375,0.016601562,-0.46875,1.28125,-0.90625,0.0,0.0,0.0
1695837579704,-0.025390625,0.99609375,0.013671875,-0.59375,1.34375,-0.90625,0.0,0.0,0.0
1695837579744,-0.020507812,0.9921875,0.0107421875,-0.78125,1.625,-1.0625,0.0,0.0,0.0
1695837579784,-0.03125,0.9921875,0.0078125,-0.96875,1.8125,-1.0,0.0,0.0,0.0
1695837579825,-0.026367188,1.0009766,0.0234375,-0.53125,2.625,-1.0625,0.0,0.0,0.0
1695837579864,-0.033203125,1.0009766,0.025390625,-0.84375,3.71875,-1.25,0.0,0.0,0.0
1695837579904,-0.026367188,0.9921875,0.022460938,-0.84375,3.03125,-1.6875,0.0,0.0,0.0
1695837579944,-0.028320312,1.0009766,0.009765625,-1.34375,3.90625,-1.6875,0.0,0.0,0.0
1695837579985,-0.034179688,0.9980469,0.024414062,-1.34375,3.84375,-1.875,11.25,48.0625,-40.875
1695837580024,-0.024414062,0.9970703,0.036132812,-1.6875,3.78125,-2.125,0.0,0.0,0.0
1695837580064,-0.034179688,0.9980469,0.0234375,-1.40625,4.3125,-2.0,0.0,0.0,0.0
1695837580106,-0.03515625,0.99902344,0.021484375,-1.15625,4.25,-1.875,0.0,0.0,0.0
1695837580144,-0.025390625,0.9873047,0.018554688,-1.21875,4.8125,-2.125,0.0,0.0,0.0
1695837580184,-0.04296875,0.9941406,0.032226562,-1.03125,5.53125,-1.8125,0.0,0.0,0.0
1695837580226,-0.041015625,0.9863281,0.03515625,-0.90625,4.5625,-2.0,0.0,0.0,0.0
1695837580264,-0.040039062,1.0009766,0.033203125,-0.84375,5.0,-2.25,0.0,0.0,0.0
1695837580304,-0.0390625,0.9951172,0.037109375,-0.71875,5.375,-2.28125,0.0,0.0,0.0
1695837580346,-0.041015625,1.0029297,0.0234375,-0.71875,5.125,-2.34375,0.0,0.0,0.0
1695837580384,-0.03125,0.9941406,0.036132812,-0.65625,5.1875,-2.28125,0.0,0.0,0.0
1695837580425,-0.0390625,0.99316406,0.028320312,-0.71875,4.8125,-2.1875,0.0,0.0,0.0
1695837580464,-0.04296875,1.0,0.018554688,-0.40625,4.375,-2.40625,11.25,46.25,-40.125
1695837580504,-0.051757812,0.9863281,0.033203125,-0.53125,4.625,-2.25,0.0,0.0,0.0
1695837580545,-0.051757812,0.99609375,0.036132812,-0.78125,4.6875,-2.1875,0.0,0.0,0.0
1695837580585,-0.05859375,0.9980469,0.038085938,-0.1875,4.5,-2.28125,0.0,0.0,0.0
1695837580624,-0.056640625,0.9951172,0.02734375,-0.3125,4.125,-2.46875,0.0,0.0,0.0
1695837580664,-0.059570312,0.9951172,0.029296875,-0.65625,4.625,-2.40625,0.0,0.0,0.0
1695837580705,-0.060546875,0.99609375,0.041992188,-0.65625,4.625,-2.25,0.0,0.0,0.0
1695837580745,-0.059570312,0.98828125,0.029296875,-1.03125,3.65625,-2.28125,0.0,0.0,0.0
1695837580785,-0.0546875,0.9902344,0.05078125,-1.09375,3.96875,-2.46875,0.0,0.0,0.0
1695837580826,-0.076171875,0.98828125,0.055664062,-0.90625,3.78125,-2.46875,0.0,0.0,0.0
1695837580864,-0.06347656,0.9941406,0.0234375,-0.90625,2.8125,-2.40625,0.0,0.0,0.0
1695837580904,-0.06640625,0.9941406,0.028320312,-0.90625,3.71875,-2.25,0.0,0.0,0.0
1695837580946,-0.07714844,1.0,0.04296875,-0.59375,4.09375,-1.6875,0.0,0.0,0.0
1695837580984,-0.072265625,0.9970703,0.052734375,-0.78125,4.4375,-1.75,8.6875,47.3125,-38.0
1695837581023,-0.07128906,0.9921875,0.037109375,-0.0625,4.5625,-1.8125,0.0,0.0,0.0
1695837581067,-0.0703125,0.9921875,0.040039062,-0.78125,5.1875,-1.9375,0.0,0.0,0.0
1695837581105,-0.07324219,0.9902344,0.03515625,-0.78125,5.375,-1.9375,0.0,0.0,0.0
1695837581144,-0.0703125,0.9970703,0.025390625,-0.59375,4.5,-1.9375,0.0,0.0,0.0
1695837581183,-0.08203125,0.9941406,0.028320312,-0.96875,4.6875,-1.8125,0.0,0.0,0.0
1695837581224,-0.0703125,0.99121094,0.046875,-0.84375,5.0625,-1.5,0.0,0.0,0.0
1695837581264,-0.09082031,0.98828125,0.041992188,-1.15625,4.5,-0.90625,0.0,0.0,0.0
1695837581305,-0.08984375,1.0009766,0.055664062,-1.8125,4.25,-0.65625,0.0,0.0,0.0
1695837581345,-0.08105469,0.9863281,0.037109375,-0.78125,4.125,-1.3125,0.0,0.0,0.0
1695837581384,-0.09765625,0.99121094,0.049804688,0.1875,5.90625,-1.1875,0.0,0.0,0.0
1695837581424,-0.07128906,0.9873047,0.02734375,0.1875,5.3125,-1.375,0.0,0.0,0.0
1695837581464,-0.08203125,0.99609375,0.020507812,0.5625,7.0,-0.90625,9.125,45.5,-38.75
1695837581504,-0.07324219,0.9921875,0.02734375,0.4375,5.53125,-0.90625,0.0,0.0,0.0
1695837581544,-0.080078125,0.9970703,0.034179688,0.1875,4.3125,-1.0,0.0,0.0,0.0
1695837581585,-0.083984375,1.0,0.0234375,-0.25,4.375,-1.0625,0.0,0.0,0.0
1695837581624,-0.080078125,0.9824219,0.03515625,0.0,4.9375,-1.0625,0.0,0.0,0.0
1695837581664,-0.07714844,0.99121094,0.020507812,-0.3125,3.96875,-1.5,0.0,0.0,0.0
1695837581703,-0.07519531,0.99609375,0.04296875,-0.125,3.65625,-1.1875,0.0,0.0,0.0
1695837581745,-0.072265625,0.9892578,0.040039062,-0.1875,2.625,-0.90625,0.0,0.0,0.0
1695837581783,-0.08105469,0.9941406,0.025390625,0.1875,1.28125,-0.46875,0.0,0.0,0.0
1695837581824,-0.08886719,0.98828125,0.033203125,0.4375,0.65625,-0.46875,0.0,0.0,0.0
1695837581864,-0.09863281,0.9921875,0.040039062,0.625,0.21875,-0.15625,0.0,0.0,0.0
1695837581905,-0.09375,0.9921875,0.01953125,0.1875,-0.3125,-0.15625,0.0,0.0,0.0
1695837581945,-0.095703125,1.0048828,0.025390625,0.625,-0.1875,-0.40625,0.0,0.0,0.0
1695837581984,-0.107421875,0.99316406,0.045898438,0.5,0.1875,-0.21875,7.5,47.75,-37.125
1695837582025,-0.095703125,0.9824219,0.02734375,0.3125,1.34375,-0.09375,0.0,0.0,0.0
1695837582064,-0.10058594,0.9941406,0.037109375,0.5625,2.8125,-0.28125,0.0,0.0,0.0
1695837582104,-0.087890625,0.99902344,0.041992188,0.25,3.59375,-0.40625,0.0,0.0,0.0
1695837582144,-0.091796875,0.9970703,0.028320312,0.375,4.5625,-0.03125,0.0,0.0,0.0
1695837582184,-0.08300781,0.9941406,0.029296875,-0.25,3.84375,0.03125,0.0,0.0,0.0
1695837582224,-0.0859375,0.9941406,0.040039062,0.0625,3.90625,0.15625,0.0,0.0,0.0
1695837582264,-0.078125,0.99121094,0.03515625,-0.1875,2.0625,0.09375,0.0,0.0,0.0
1695837582303,-0.08886719,0.9921875,0.0390625,-0.3125,1.5625,0.3125,0.0,0.0,0.0
1695837582343,-0.083984375,0.99121094,0.03515625,0.0,1.53125,0.09375,0.0,0.0,0.0
1695837582383,-0.08886719,0.9941406,0.0146484375,-0.25,1.03125,0.03125,0.0,0.0,0.0
1695837582423,-0.083984375,0.99121094,0.021484375,-0.25,1.53125,0.09375,0.0,0.0,0.0
