timestamp,accel_x,accel_y,accel_z,gyro_x,gyro_y,gyro_z,ind
1696023891465,0.18847656,-0.96099854,0.25164795,-0.984375,-0.984375,0.796875,61
1696023891505,0.17773438,-0.9788208,0.27703857,2.578125,-0.03125,0.78125,62
1696023891545,0.18359375,-0.96588135,0.26190186,0.484375,0.84375,1.6875,63
1696023891585,0.18432617,-0.9558716,0.2584839,0.265625,-0.8125,0.078125,64
1696023891625,0.18579102,-0.9656372,0.2584839,0.96875,-0.5,0.78125,65
1696023891665,0.18359375,-0.9612427,0.25604248,-0.59375,-0.953125,0.515625,66
1696023891705,0.18554688,-0.9631958,0.25872803,-0.0625,-0.828125,0.375,67
1696023891745,0.18017578,-0.96173096,0.26312256,0.109375,-0.875,0.765625,68
1696023891785,0.18383789,-0.96417236,0.25213623,-0.09375,-0.734375,0.328125,69
1696023891825,0.18701172,-0.9644165,0.26483154,-0.21875,-0.765625,0.46875,70
1696023891865,0.18383789,-0.96051025,0.26312256,-0.25,-0.828125,0.5,71
1696023891905,0.17626953,-0.95806885,0.26141357,-0.25,-0.59375,0.40625,72
1696023891945,0.18286133,-0.9663696,0.26434326,0.28125,-1.484375,0.75,73
1696023891985,0.18334961,-0.96539307,0.26361084,0.015625,-2.34375,1.109375,74
1696023892025,0.1821289,-0.9585571,0.26190186,-0.921875,-1.78125,0.734375,75
1696023892065,0.18847656,-0.9570923,0.26556396,-0.625,-0.171875,0.453125,76
1696023892105,0.18115234,-0.97076416,0.28118896,-0.109375,0.9375,0.390625,77
1696023892145,0.18945312,-0.95928955,0.27069092,-0.0625,6.640625,-0.6875,78
1696023892185,0.20361328,-1.0505981,0.2999878,8.96875,14.78125,3.28125,79
1696023892225,0.17895508,-0.9507446,0.25286865,2.234375,10.9375,2.453125,80
1696023892265,0.17285156,-0.93341064,0.2333374,-1.671875,1.71875,0.9375,81
1696023892305,0.17675781,-0.9380493,0.2345581,0.65625,2.34375,2.28125,82
1696023892345,0.19897461,-0.9404907,0.24359131,1.765625,0.046875,2.0625,83
1696023892385,0.16967773,-0.98101807,0.230896,3.921875,-0.328125,2.6875,84
1696023892425,0.19848633,-0.940979,0.24017334,-3.6875,-2.828125,1.0625,85
1696023892465,0.20678711,-0.98028564,0.2489624,2.375,-2.265625,2.578125,86
1696023892505,0.19140625,-0.9639282,0.2699585,-0.75,-2.390625,3.1875,87
1696023892545,0.21020508,-0.9570923,0.24798584,-3.40625,-4.390625,0.796875,88
1696023892585,0.21240234,-0.9649048,0.26361084,-0.421875,-2.328125,0.96875,89
1696023892625,0.1965332,-0.9614868,0.2736206,-1.859375,-1.421875,1.90625,90
1696023892665,0.19555664,-0.95147705,0.25531006,-1.671875,-2.671875,1.53125,91
1696023892705,0.20141602,-0.9627075,0.26239014,-0.703125,-2.984375,0.1875,92
1696023892745,0.20288086,-0.9661255,0.28460693,-0.078125,-2.03125,1.125,93
1696023892785,0.19799805,-0.9522095,0.27215576,-1.0,-1.90625,0.9375,94
1696023892825,0.19384766,-0.9612427,0.2741089,0.0625,-2.046875,0.484375,95
1696023892865,0.19702148,-0.9487915,0.27288818,-0.78125,-1.96875,0.453125,96
1696023892905,0.1977539,-0.96295166,0.2748413,0.6875,-1.953125,0.109375,97
1696023892945,0.1940918,-0.94732666,0.25946045,-2.0625,-3.046875,0.421875,98
1696023892985,0.19384766,-0.96539307,0.29388428,1.25,-1.546875,0.234375,99
1696023893025,0.18847656,-0.9578247,0.291687,-0.203125,-0.421875,1.1875,100
1696023893065,0.19702148,-0.9607544,0.2723999,-0.421875,-2.28125,-0.03125,101
1696023893105,0.19238281,-0.9541626,0.2855835,1.171875,-0.96875,0.28125,102
1696023893145,0.1772461,-0.958313,0.28582764,-0.953125,-0.828125,0.859375,103
1696023893185,0.19555664,-0.960022,0.2789917,0.359375,-1.265625,0.234375,104
1696023893225,0.18041992,-0.9529419,0.28582764,0.8125,-0.453125,0.90625,105
1696023893265,0.18701172,-0.954895,0.2831421,0.40625,-0.734375,0.78125,106
1696023893305,0.18701172,-0.9585571,0.28167725,0.78125,-1.078125,0.46875,107
1696023893345,0.19213867,-0.9595337,0.276062,1.28125,-0.59375,0.71875,108
1696023893385,0.19189453,-0.9546509,0.2819214,0.296875,-0.328125,0.515625,109
1696023893425,0.18896484,-0.96295166,0.27825928,1.34375,-0.96875,0.71875,110
1696023893465,0.19384766,-0.95977783,0.27313232,0.5,-0.765625,0.515625,111
1696023893505,0.19677734,-0.9495239,0.27850342,0.109375,-0.8125,0.59375,112
1696023893545,0.18701172,-0.95880127,0.26776123,1.234375,-0.59375,0.734375,113
1696023893585,0.18701172,-0.954895,0.28216553,0.296875,-0.53125,0.734375,114
1696023893625,0.18774414,-0.954895,0.26239014,-1.015625,-0.046875,0.4375,115
1696023893665,0.18896484,-0.9673462,0.2772827,2.046875,-0.328125,0.15625,116
1696023893705,0.19067383,-0.9456177,0.26385498,-0.75,-1.28125,0.578125,117
1696023893745,0.18847656,-0.9529419,0.27996826,2.375,-2.078125,-0.546875,118
1696023893785,0.17675781,-0.97540283,0.29388428,1.34375,-0.4375,1.28125,119
1696023893825,0.1977539,-0.93927,0.26654053,-1.5,-1.203125,-0.296875,120
1696023893865,0.17993164,-0.95880127,0.28729248,2.8125,-0.375,0.65625,121
1696023893905,0.17529297,-0.96221924,0.2868042,-0.75,-0.53125,1.125,122
1696023893945,0.1809082,-0.96588135,0.27923584,0.46875,-0.59375,0.15625,123
1696023893985,0.18188477,-0.9541626,0.28338623,0.078125,0.0625,0.671875,124
1696023894025,0.17578125,-0.9612427,0.28216553,0.40625,-0.453125,0.515625,125
1696023894065,0.17626953,-0.95098877,0.28460693,0.0625,-0.21875,0.359375,126
1696023894105,0.18164062,-0.9639282,0.28778076,0.734375,0.015625,0.59375,127
1696023894145,0.18481445,-0.96343994,0.28338623,0.125,-0.3125,0.5,128
1696023894185,0.18261719,-0.95880127,0.27508545,0.140625,-0.15625,0.46875,129
1696023894225,0.17871094,-0.9661255,0.277771,1.03125,-0.484375,0.578125,130
1696023894265,0.18164062,-0.9534302,0.27801514,-0.578125,0.046875,0.625,131
1696023894305,0.1953125,-0.95513916,0.26922607,1.453125,-0.046875,0.25,132
1696023894345,0.17529297,-0.9500122,0.27923584,0.421875,-0.1875,1.015625,133
1696023894385,0.18432617,-0.98223877,0.2645874,1.34375,-0.21875,1.046875,134
1696023894425,0.19311523,-0.9570923,0.2826538,1.8125,-0.296875,-0.203125,135
1696023894465,0.17236328,-0.96099854,0.2670288,-0.484375,-0.484375,1.328125,136
1696023894505,0.17578125,-0.9661255,0.26483154,1.9375,-0.890625,0.203125,137
1696023894545,0.18188477,-0.97198486,0.28900146,1.90625,-0.53125,1.421875,138
1696023894585,0.17138672,-0.96710205,0.27020264,0.0625,-1.375,0.8125,139
1696023894625,0.18823242,-0.94195557,0.27288818,-0.59375,0.046875,0.078125,140
1696023894665,0.17651367,-0.9800415,0.28118896,1.65625,-1.234375,1.484375,141
1696023894705,0.17993164,-0.9627075,0.27191162,-2.484375,-0.5,-0.375,142
1696023894745,0.18359375,-0.9668579,0.27703857,0.09375,3.75,-0.140625,143
1696023894785,0.19482422,-1.0213013,0.3156128,7.921875,9.90625,1.84375,144
1696023894825,0.17089844,-0.99542236,0.2772827,-2.6875,8.046875,3.125,145
1696023894865,0.19067383,-0.85723877,0.24407959,-5.84375,4.921875,0.3125,146
1696023894905,0.18481445,-0.97735596,0.21917725,11.953125,-0.390625,3.71875,147
1696023894945,0.1862793,-0.9522095,0.2711792,-0.484375,3.390625,2.3125,148
1696023894985,0.18237305,-0.95880127,0.25115967,3.15625,-2.234375,0.8125,149
1696023895025,0.18408203,-0.97491455,0.24188232,0.96875,-5.09375,-0.625,150
1696023895065,0.18920898,-0.94244385,0.2741089,0.828125,-2.875,1.5625,151
1696023895105,0.20385742,-0.9505005,0.27093506,2.609375,-1.546875,1.28125,152
1696023895145,0.1977539,-0.9680786,0.25872803,-3.078125,-0.59375,1.375,153
1696023895185,0.19116211,-0.95928955,0.26068115,-1.328125,-1.34375,1.703125,154
1696023895225,0.17382812,-0.96099854,0.24847412,-1.953125,-2.46875,2.78125,155
1696023895265,0.19213867,-0.96954346,0.26019287,-0.1875,-2.328125,0.4375,156
1696023895305,0.18896484,-0.97052,0.28070068,0.5,-1.40625,1.1875,157
1696023895345,0.20581055,-0.95318604,0.26239014,0.09375,-1.390625,0.9375,158
1696023895385,0.2019043,-0.9619751,0.26263428,0.703125,-0.84375,0.828125,159
1696023895425,0.19482422,-0.94976807,0.26141357,-0.921875,-1.359375,0.984375,160
1696023895465,0.18774414,-0.9651489,0.26654053,0.75,-1.78125,0.65625,161
1696023895505,0.19458008,-0.96099854,0.27044678,0.609375,-0.609375,1.09375,162
1696023895545,0.18725586,-0.95758057,0.25946045,0.125,-1.34375,0.546875,163
1696023895585,0.19165039,-0.95684814,0.262146,-0.0625,-1.75,0.28125,164
1696023895625,0.18896484,-0.9636841,0.26727295,0.96875,-1.3125,0.25,165
1696023895665,0.19604492,-0.95147705,0.27020264,0.9375,-1.921875,0.03125,166
1696023895705,0.15673828,-0.9793091,0.27020264,1.125,-1.625,1.359375,167
1696023895745,0.16015625,-0.9751587,0.26531982,0.5625,-0.328125,1.734375,168
1696023895785,0.19262695,-0.97857666,0.27337646,-2.78125,1.8125,1.40625,169
1696023895825,0.1928711,-0.9631958,0.27923584,0.296875,1.984375,2.265625,170
1696023895865,0.20166016,-0.94854736,0.26385498,-1.46875,1.453125,0.375,171
1696023895905,0.19873047,-0.9553833,0.277771,0.4375,-0.796875,-0.890625,172
1696023895945,0.19873047,-0.9529419,0.27215576,-1.34375,-0.734375,-0.25,173
1696023895985,0.18920898,-0.97247314,0.2802124,0.3125,-0.765625,-0.859375,174
1696023896025,0.18139648,-0.9627075,0.2723999,0.578125,0.84375,-0.046875,175
1696023896065,0.20166016,-0.94488525,0.25238037,-0.296875,0.0625,-1.296875,176
1696023896105,0.1953125,-0.96343994,0.27264404,1.421875,-0.53125,-0.46875,177
1696023896145,0.1730957,-0.95391846,0.26312256,-0.140625,-0.515625,0.484375,178
1696023896185,0.18945312,-0.9663696,0.2723999,-0.296875,-1.40625,-0.6875,179
1696023896225,0.17358398,-0.96832275,0.27752686,0.75,-0.96875,0.171875,180
1696023896265,0.18115234,-0.9614868,0.27215576,-0.390625,-0.640625,0.265625,181
1696023896305,0.17285156,-0.9631958,0.26849365,0.171875,-0.453125,0.5625,182
1696023896345,0.1850586,-0.96221924,0.28094482,-0.609375,-0.203125,1.109375,183
1696023896385,0.18334961,-0.9595337,0.27947998,-0.421875,-0.578125,0.890625,184
1696023896425,0.1862793,-0.9558716,0.276062,-1.4375,-0.15625,0.890625,185
1696023896465,0.1652832,-0.96099854,0.28607178,1.203125,-1.46875,0.3125,186
1696023896505,0.1694336,-0.9656372,0.29071045,0.53125,-0.796875,0.484375,187
1696023896545,0.18237305,-0.95928955,0.27630615,0.765625,-0.390625,0.59375,188
1696023896585,0.17675781,-0.9751587,0.28900146,3.734375,0.4375,1.375,189
1696023896625,0.1628418,-0.9751587,0.29779053,2.515625,-0.078125,0.96875,190
1696023896665,0.1640625,-0.9656372,0.2675171,-1.703125,0.78125,2.0,191
1696023896705,0.21508789,-0.93878174,0.2506714,0.5,-0.234375,0.484375,192
1696023896745,0.17480469,-0.9668579,0.29632568,3.328125,0.703125,2.53125,193
1696023896785,0.17138672,-0.956604,0.27142334,0.265625,0.9375,1.4375,194
1696023896825,0.19750977,-0.9492798,0.28118896,0.546875,-0.71875,0.671875,195
1696023896865,0.16918945,-0.99420166,0.27386475,0.6875,-0.5625,1.75,196
1696023896905,0.18603516,-0.95977783,0.27752686,-0.609375,-0.40625,0.40625,197
1696023896945,0.17749023,-0.95196533,0.2658081,0.453125,-1.0625,0.734375,198
1696023896985,0.18969727,-0.96221924,0.2748413,0.046875,0.15625,0.59375,199
1696023897025,0.19580078,-0.958313,0.27069092,0.28125,-1.0,1.09375,200
1696023897065,0.18188477,-0.9624634,0.26971436,-0.046875,-2.0625,0.03125,201
1696023897105,0.18847656,-0.97735596,0.2694702,-0.5,0.578125,0.0625,202
1696023897145,0.19873047,-0.9612427,0.2946167,3.34375,7.640625,-0.09375,203
1696023897185,0.20263672,-1.0337524,0.29852295,7.078125,14.6875,2.75,204
1696023897225,0.18530273,-0.9434204,0.293396,-0.125,13.046875,3.609375,205
1696023897265,0.18286133,-0.9817505,0.23309326,9.5625,3.453125,4.03125,206
1696023897305,0.16748047,-0.91119385,0.21063232,-3.390625,2.9375,2.96875,207
1696023897345,0.19506836,-0.93096924,0.20477295,5.0,0.8125,2.71875,208
1696023897385,0.2055664,-0.94366455,0.2374878,3.0625,-3.984375,0.421875,209
1696023897425,0.18945312,-0.9492798,0.21209717,-4.640625,-9.234375,-0.921875,210
1696023897465,0.22167969,-1.0046997,0.27288818,5.09375,-4.5625,1.234375,211
1696023897505,0.20361328,-0.9492798,0.25726318,-2.359375,-0.96875,1.671875,212
1696023897545,0.21166992,-0.9663696,0.23382568,-0.046875,-2.0625,0.15625,213
1696023897585,0.1953125,-0.95880127,0.24725342,1.625,-1.234375,0.515625,214
1696023897625,0.19189453,-0.95758057,0.24407959,-0.546875,-1.375,0.65625,215
1696023897665,0.20410156,-0.95635986,0.25238037,-0.296875,-1.953125,0.484375,216
1696023897705,0.19750977,-0.9668579,0.25701904,0.03125,-1.125,0.890625,217
1696023897745,0.19921875,-0.9649048,0.25775146,-1.046875,-1.484375,1.03125,218
1696023897785,0.19360352,-0.95635986,0.2592163,-0.265625,-1.71875,0.6875,219
1696023897825,0.19165039,-0.954895,0.24993896,-0.53125,-1.21875,0.59375,220
1696023897865,0.19897461,-0.96221924,0.25238037,-0.203125,-1.171875,0.546875,221
1696023897905,0.19702148,-0.9636841,0.2633667,-0.546875,-1.0,0.6875,222
1696023897945,0.2055664,-0.96881104,0.25726318,0.40625,-1.828125,0.453125,223
1696023897985,0.19384766,-0.96588135,0.2645874,-1.078125,-1.1875,0.359375,224
1696023898025,0.20336914,-0.9678345,0.2616577,-1.390625,-1.0,0.296875,225
1696023898065,0.19335938,-0.95513916,0.26287842,-1.265625,-0.234375,0.703125,226
1696023898105,0.2043457,-0.94781494,0.24822998,-2.703125,-0.328125,0.421875,227
1696023898145,0.20410156,-0.9783325,0.2772827,-1.171875,-0.765625,1.328125,228
1696023898185,0.19360352,-0.95440674,0.2609253,-1.609375,-1.3125,0.546875,229
1696023898225,0.18066406,-0.9692993,0.28948975,0.328125,0.765625,1.390625,230
1696023898265,0.1862793,-0.956604,0.26361084,-0.1875,-0.34375,1.0625,231
1696023898305,0.20385742,-0.9434204,0.26361084,0.109375,-1.65625,-0.03125,232
1696023898345,0.19677734,-0.96099854,0.27435303,0.71875,-0.9375,1.03125,233
1696023898385,0.19213867,-0.9558716,0.26239014,-0.21875,-1.484375,0.84375,234
1696023898425,0.19897461,-0.94781494,0.25872803,-1.140625,-1.140625,0.265625,235
1696023898465,0.19116211,-0.9734497,0.2868042,1.734375,-0.390625,1.65625,236
1696023898505,0.19750977,-0.95098877,0.2682495,-0.015625,-1.0625,0.6875,237
1696023898545,0.19506836,-0.9578247,0.26898193,-0.015625,-1.296875,0.59375,238
1696023898585,0.18676758,-0.96539307,0.2831421,0.1875,-0.828125,0.953125,239
1696023898625,0.19873047,-0.95684814,0.28778076,0.71875,-0.375,0.40625,240
1696023898665,0.19628906,-0.9649048,0.28045654,-0.171875,0.390625,0.921875,241
1696023898705,0.19165039,-0.94854736,0.2850952,0.421875,0.125,0.984375,242
1696023898745,0.18896484,-0.93463135,0.25653076,-1.078125,-1.125,-0.5,243
1696023898785,0.17602539,-0.96221924,0.29779053,0.703125,-1.375,0.203125,244
1696023898825,0.1953125,-0.9871216,0.29974365,0.390625,-0.015625,1.359375,245
1696023898865,0.20629883,-0.9451294,0.27215576,-0.703125,0.65625,1.03125,246
1696023898905,0.18603516,-0.95562744,0.27191162,-0.078125,0.59375,1.171875,247
1696023898945,0.19262695,-0.9470825,0.2687378,-1.46875,-2.046875,-0.140625,248
1696023898985,0.18847656,-0.97369385,0.30389404,1.484375,-0.390625,1.015625,249
1696023899025,0.19384766,-0.95196533,0.2904663,-0.125,0.203125,0.90625,250
1696023899065,0.19946289,-0.95440674,0.27581787,0.25,-1.1875,0.171875,251
1696023899105,0.1965332,-0.958313,0.27752686,0.5625,-1.125,0.28125,252
1696023899145,0.18383789,-0.956604,0.2904663,0.796875,-1.609375,0.703125,253
1696023899185,0.19750977,-0.9644165,0.28826904,0.546875,-1.015625,0.578125,254
1696023899225,0.18530273,-0.9512329,0.2909546,-0.734375,-1.6875,0.171875,255
1696023899265,0.20385742,-0.9602661,0.2694702,-1.0625,0.875,0.125,256
1696023899305,0.20922852,-0.97979736,0.31488037,6.265625,9.84375,0.265625,257
1696023899345,0.17749023,-1.0337524,0.31170654,7.5,14.5625,5.390625,258
1696023899385,0.17041016,-0.93756104,0.2501831,-2.375,7.640625,1.796875,259
1696023899425,0.20166016,-0.9277954,0.28118896,3.03125,3.734375,0.6875,260
1696023899465,0.18603516,-0.9973755,0.2789917,4.0,5.125,3.140625,261
1696023899505,0.2006836,-0.9729614,0.25946045,-0.359375,1.765625,3.1875,262
1696023899545,0.22192383,-0.9360962,0.23358154,-1.421875,2.34375,0.859375,263
1696023899585,0.20800781,-0.9414673,0.2555542,-1.140625,4.125,1.734375,264
1696023899625,0.19677734,-0.9378052,0.2506714,-2.78125,1.171875,1.859375,265
1696023899665,0.23657227,-0.9768677,0.24676514,-1.0,1.828125,2.34375,266
1696023899705,0.22436523,-0.94781494,0.27288818,-2.15625,0.6875,1.6875,267
1696023899745,0.20727539,-0.9319458,0.2555542,-1.34375,0.984375,1.859375,268
1696023899785,0.20825195,-0.90509033,0.24456787,-0.1875,-2.515625,1.015625,269
1696023899825,0.2133789,-0.91607666,0.24993896,-0.828125,-6.296875,0.109375,270
1696023899865,0.22680664,-0.9758911,0.28216553,2.46875,-5.203125,1.359375,271
1696023899905,0.22265625,-0.9800415,0.2819214,-1.78125,-3.265625,0.96875,272
1696023899945,0.22851562,-0.9619751,0.28533936,0.46875,-2.65625,0.859375,273
1696023899985,0.19750977,-0.94659424,0.2687378,-0.84375,-3.0625,0.734375,274
1696023900025,0.2043457,-0.9512329,0.27996826,0.0625,-3.15625,1.015625,275
1696023900065,0.20898438,-0.95806885,0.2831421,-0.046875,-2.140625,1.359375,276
1696023900105,0.21728516,-0.94976807,0.2814331,1.234375,-1.25,1.1875,277
1696023900145,0.20898438,-0.9492798,0.2868042,0.921875,-0.859375,1.125,278
1696023900185,0.21289062,-0.9458618,0.2753296,0.3125,-1.5,1.09375,279
1696023900225,0.21264648,-0.95318604,0.28216553,1.125,-1.5625,1.015625,280
1696023900265,0.21289062,-0.9561157,0.28485107,0.359375,-1.203125,0.84375,281
1696023900305,0.21240234,-0.94244385,0.28900146,1.46875,-1.859375,0.5,282
1696023900345,0.2097168,-0.9373169,0.27044678,0.921875,-1.765625,0.0625,283
1696023900385,0.21118164,-0.9685669,0.28631592,2.78125,-1.203125,1.046875,284
1696023900425,0.21850586,-0.9324341,0.262146,-1.0,-1.515625,0.390625,285
1696023900465,0.19433594,-0.97052,0.28948975,4.671875,0.015625,1.25,286
1696023900505,0.21899414,-0.9495239,0.2897339,1.359375,1.234375,1.640625,287
1696023900545,0.21728516,-0.9651489,0.26116943,2.171875,0.515625,0.421875,288
1696023900585,0.20263672,-0.9524536,0.2850952,2.265625,1.984375,1.359375,289
1696023900625,0.21459961,-0.954895,0.25604248,-0.625,0.5,0.359375,290
1696023900665,0.2109375,-0.9710083,0.27850342,1.390625,1.78125,1.296875,291
1696023900705,0.21435547,-0.9458618,0.26531982,0.21875,0.40625,0.359375,292
1696023900745,0.21411133,-0.9553833,0.26678467,-0.1875,0.640625,0.609375,293
1696023900785,0.21557617,-0.9602661,0.26361084,0.34375,0.140625,0.765625,294
1696023900825,0.21484375,-0.956604,0.26800537,0.640625,0.203125,0.796875,295
1696023900865,0.20141602,-0.9570923,0.2699585,0.34375,0.21875,0.671875,296
1696023900905,0.2253418,-0.9507446,0.25482178,0.203125,-0.40625,0.53125,297
1696023900945,0.21459961,-0.9507446,0.26678467,0.421875,-0.09375,0.796875,298
1696023900985,0.21533203,-0.9534302,0.2741089,0.28125,-0.875,0.765625,299
1696023901025,0.2084961,-0.95635986,0.26141357,0.375,-1.09375,0.515625,300
1696023901065,0.21606445,-0.96759033,0.2741089,0.703125,-1.0625,1.0625,301
1696023901105,0.21118164,-0.9299927,0.25994873,-0.328125,-1.75,0.0625,302
1696023901145,0.20947266,-0.94366455,0.25115967,-0.046875,-1.796875,1.046875,303
1696023901185,0.2163086,-0.9614868,0.26483154,0.0625,-2.015625,0.078125,304
1696023901225,0.19189453,-0.97076416,0.2855835,0.71875,0.078125,1.5625,305
1696023901265,0.21899414,-0.95758057,0.26654053,0.265625,-0.5625,0.8125,306
1696023901305,0.21069336,-0.9553833,0.2682495,-0.265625,-0.59375,0.609375,307
1696023901345,0.22045898,-0.958313,0.27874756,0.65625,-0.4375,0.9375,308
1696023901385,0.21142578,-0.9505005,0.2772827,-0.609375,-0.90625,0.484375,309
1696023901425,0.20410156,-0.96417236,0.27020264,0.0,-0.53125,0.71875,310
1696023901465,0.21142578,-0.95562744,0.2826538,-0.4375,-0.125,0.734375,311
1696023901505,0.20947266,-0.94610596,0.2765503,0.53125,-0.53125,0.359375,312
1696023901545,0.20483398,-0.9558716,0.2723999,-0.5,-0.75,0.734375,313
1696023901585,0.2121582,-0.95562744,0.27972412,0.25,-0.59375,0.65625,314
1696023901625,0.20410156,-0.9578247,0.277771,0.421875,-0.125,0.90625,315
1696023901665,0.20263672,-0.9570923,0.27459717,0.234375,-1.0625,0.984375,316
1696023901705,0.2211914,-0.94976807,0.27337646,-0.390625,-1.0,0.4375,317
1696023901745,0.2163086,-0.95440674,0.2687378,-0.0625,-0.75,0.515625,318
1696023901785,0.20458984,-0.94732666,0.2904663,0.421875,-0.3125,0.640625,319
1696023901825,0.20507812,-0.9336548,0.26654053,-1.03125,-0.5625,0.703125,320
1696023901865,0.2084961,-0.9702759,0.29779053,2.234375,0.265625,1.28125,321
1696023901905,0.21484375,-0.94610596,0.26531982,-1.28125,-0.34375,0.578125,322
1696023901945,0.20898438,-0.9649048,0.29681396,3.828125,0.65625,1.140625,323
1696023901985,0.19677734,-0.9639282,0.2711792,0.25,0.234375,1.203125,324
1696023902025,0.21386719,-0.9541626,0.2741089,0.421875,-0.78125,-0.15625,325
1696023902065,0.20385742,-0.96051025,0.28338623,1.375,-0.078125,0.796875,326
1696023902105,0.20141602,-0.9492798,0.27093506,-1.4375,-0.46875,0.40625,327
1696023902145,0.22143555,-0.9651489,0.2855835,1.0,2.1875,0.359375,328
1696023902185,0.21508789,-0.98687744,0.30682373,0.34375,7.515625,1.96875,329
1696023902225,0.1928711,-0.99224854,0.28631592,-0.578125,3.21875,2.328125,330
1696023902265,0.24194336,-0.88946533,0.24359131,-4.375,2.0625,0.875,331
1696023902305,0.20117188,-0.9495239,0.26776123,7.234375,0.78125,2.0625,332
1696023902345,0.23486328,-0.95196533,0.26556396,0.015625,-2.0,2.390625,333
1696023902385,0.21166992,-0.9319458,0.25115967,1.015625,-3.0,0.015625,334
1696023902425,0.20678711,-0.9404907,0.27313232,2.03125,-1.265625,0.75,335
1696023902465,0.2163086,-0.94610596,0.24725342,2.609375,-0.921875,1.515625,336
1696023902505,0.22021484,-0.96343994,0.27386475,3.765625,-1.46875,0.96875,337
1696023902545,0.20874023,-0.9673462,0.28070068,0.21875,-1.328125,0.84375,338
1696023902585,0.20898438,-0.942688,0.2682495,-0.75,-1.328125,0.609375,339
1696023902625,0.20629883,-0.9585571,0.27191162,0.171875,-0.859375,0.125,340
1696023902665,0.21191406,-0.94000244,0.26019287,-2.59375,-2.515625,-0.234375,341
1696023902705,0.20214844,-0.973938,0.2850952,1.5625,-0.953125,0.9375,342
1696023902745,0.20678711,-0.95880127,0.27825928,-1.0625,-0.515625,0.890625,343
1696023902785,0.2163086,-0.95318604,0.2597046,-0.546875,-1.390625,-0.25,344
1696023902825,0.21044922,-0.9500122,0.27996826,1.046875,-0.875,0.265625,345
1696023902865,0.21313477,-0.95147705,0.27166748,-1.140625,-0.8125,0.609375,346
1696023902905,0.21411133,-0.9578247,0.27923584,-0.234375,-0.4375,0.78125,347
1696023902945,0.20385742,-0.95562744,0.277771,0.15625,-0.265625,0.703125,348
1696023902985,0.2097168,-0.94488525,0.2753296,1.078125,-0.1875,0.75,349
1696023903025,0.21118164,-0.94976807,0.2772827,0.9375,-0.6875,0.90625,350
1696023903065,0.20922852,-0.96221924,0.28094482,0.375,-0.609375,1.03125,351
1696023903105,0.21044922,-0.95269775,0.27337646,0.53125,-0.625,0.78125,352
1696023903145,0.21118164,-0.954895,0.27191162,0.671875,-0.578125,0.671875,353
1696023903185,0.20996094,-0.9612427,0.27630615,0.21875,-0.28125,0.734375,354
1696023903225,0.21582031,-0.9524536,0.27459717,0.296875,-0.296875,0.84375,355
1696023903265,0.21826172,-0.9690552,0.26654053,-0.046875,-0.953125,0.578125,356
1696023903305,0.21191406,-0.9507446,0.27679443,-0.015625,-0.671875,0.234375,357
1696023903345,0.20922852,-0.9627075,0.28338623,0.4375,-0.875,0.875,358
1696023903385,0.21020508,-0.94488525,0.27752686,0.34375,-1.296875,-0.71875,359
1696023903425,0.20458984,-0.94854736,0.2658081,-0.75,-0.78125,0.640625,360
1696023903465,0.2109375,-0.9607544,0.27508545,1.515625,-0.703125,0.375,361
1696023903505,0.19848633,-0.9639282,0.29241943,0.125,0.703125,1.671875,362
1696023903545,0.21240234,-0.94781494,0.26483154,-0.21875,-0.734375,0.546875,363
1696023903585,0.20166016,-0.95098877,0.2741089,0.328125,-0.796875,0.890625,364
1696023903625,0.21166992,-0.9561157,0.28094482,0.484375,-0.390625,1.265625,365
1696023903665,0.21044922,-0.95513916,0.27947998,-0.90625,-1.015625,0.3125,366
1696023903705,0.20507812,-0.954895,0.27703857,0.3125,-0.84375,0.765625,367
1696023903745,0.20605469,-0.9536743,0.2741089,0.0625,-0.3125,0.515625,368
1696023903785,0.20117188,-0.94854736,0.27825928,0.28125,-0.71875,0.421875,369
1696023903825,0.20898438,-0.9590454,0.2802124,0.59375,-0.859375,0.703125,370
1696023903865,0.20898438,-0.9524536,0.2741089,0.21875,-0.375,0.546875,371
1696023903905,0.19140625,-0.9585571,0.28363037,0.859375,-0.25,0.765625,372
1696023903945,0.21240234,-0.95806885,0.27850342,-0.03125,-0.265625,0.421875,373
1696023903985,0.20483398,-0.960022,0.2748413,1.171875,-0.1875,0.65625,374
1696023904025,0.20581055,-0.9536743,0.2819214,0.0625,0.21875,0.796875,375
1696023904065,0.20214844,-0.9487915,0.27874756,1.0,-0.109375,0.828125,376
1696023904105,0.19995117,-0.9541626,0.2838745,1.796875,-0.15625,0.609375,377
1696023904145,0.21191406,-0.94854736,0.2741089,-2.296875,-0.078125,0.109375,378
1696023904185,0.2006836,-0.9746704,0.28338623,0.8125,-0.015625,0.8125,379
1696023904225,0.20874023,-0.9463501,0.2699585,-2.03125,-1.109375,-0.328125,380
1696023904265,0.1953125,-0.9697876,0.29852295,2.9375,-0.25,0.8125,381
1696023904305,0.20117188,-0.95928955,0.28070068,-0.109375,0.0,0.984375,382
1696023904345,0.20629883,-0.94610596,0.27557373,0.671875,-0.75,0.03125,383
1696023904385,0.20483398,-0.9570923,0.27972412,2.0625,-0.828125,0.953125,384
1696023904425,0.19824219,-0.9492798,0.2802124,-0.046875,-1.921875,0.59375,385
1696023904465,0.20996094,-0.95391846,0.26776123,0.515625,-0.8125,0.59375,386
1696023904505,0.19970703,-0.9614868,0.2814331,0.96875,-0.3125,1.203125,387
1696023904545,0.19506836,-0.9651489,0.2831421,-1.34375,-1.34375,0.75,388
1696023904585,0.20336914,-0.9517212,0.28118896,-0.890625,-1.640625,0.046875,389
1696023904625,0.203125,-0.9573364,0.29119873,0.015625,-0.34375,0.609375,390
1696023904665,0.19824219,-0.95025635,0.29412842,-0.078125,0.125,1.015625,391
1696023904705,0.19677734,-0.9524536,0.2850952,0.03125,-0.046875,0.390625,392
1696023904745,0.19384766,-0.9570923,0.28338623,-0.28125,0.0,0.625,393
1696023904785,0.20019531,-0.956604,0.27972412,-0.28125,-0.03125,0.40625,394
1696023904825,0.20410156,-0.9602661,0.28900146,-1.21875,0.859375,0.34375,395
1696023904865,0.20532227,-0.973938,0.30291748,1.40625,5.921875,0.5625,396
1696023904905,0.20263672,-1.0056763,0.3287964,3.546875,9.125,2.703125,397
1696023904945,0.17529297,-0.9788208,0.27313232,-4.546875,3.546875,2.171875,398
1696023904985,0.2446289,-0.8713989,0.23822021,0.5,2.359375,-0.03125,399
1696023905025,0.2290039,-0.8772583,0.24261475,-6.84375,-0.375,1.578125,400
1696023905065,0.18432617,-0.9402466,0.30511475,2.4375,-4.1875,2.484375,401
1696023905105,0.17504883,-1.031311,0.26531982,8.125,-0.8125,3.625,402
1696023905145,0.2434082,-0.9558716,0.32855225,-3.796875,1.3125,-0.53125,403
1696023905185,0.21166992,-0.9151001,0.26409912,4.546875,-1.90625,0.15625,404
1696023905225,0.18652344,-0.9524536,0.27191162,1.9375,-1.265625,2.15625,405
1696023905265,0.21972656,-0.9553833,0.28900146,1.0,-3.734375,0.59375,406
1696023905305,0.20117188,-0.9685669,0.29071045,0.8125,-2.71875,0.0625,407
1696023905345,0.19848633,-0.9595337,0.29193115,0.328125,-0.96875,0.875,408
1696023905385,0.21240234,-0.9495239,0.27972412,0.0625,-1.34375,0.78125,409
1696023905425,0.20214844,-0.95562744,0.2904663,0.15625,-1.65625,1.0625,410
1696023905465,0.20263672,-0.9590454,0.29144287,-1.171875,-1.03125,0.578125,411
1696023905505,0.20092773,-0.9627075,0.28778076,0.625,-0.4375,0.5,412
1696023905545,0.21044922,-0.9487915,0.28338623,-0.75,-0.359375,0.359375,413
1696023905585,0.20507812,-0.9524536,0.28753662,0.171875,-0.578125,0.390625,414
1696023905625,0.20141602,-0.9500122,0.29388428,-0.25,-0.1875,0.640625,415
1696023905665,0.203125,-0.9639282,0.28118896,1.171875,-0.59375,0.703125,416
1696023905705,0.19848633,-0.97442627,0.28631592,0.9375,-0.171875,0.59375,417
1696023905745,0.20776367,-0.94537354,0.27703857,0.765625,0.09375,-0.09375,418
1696023905785,0.20996094,-0.95977783,0.27313232,1.890625,0.171875,1.484375,419
1696023905825,0.19921875,-0.9463501,0.27972412,1.09375,-1.109375,0.203125,420
1696023905865,0.19726562,-0.97491455,0.28778076,4.234375,-0.21875,1.078125,421
1696023905905,0.20825195,-0.94488525,0.2687378,-0.84375,-1.484375,0.734375,422
1696023905945,0.20776367,-0.93585205,0.2567749,-1.234375,-1.90625,-0.640625,423
1696023905985,0.20117188,-0.9951782,0.30218506,3.71875,-0.046875,1.921875,424
1696023906025,0.20239258,-0.9529419,0.27801514,-3.34375,-1.140625,0.046875,425
1696023906065,0.20678711,-0.95269775,0.26922607,0.84375,-1.328125,0.15625,426
1696023906105,0.20043945,-0.956604,0.28289795,-0.0625,-0.609375,1.171875,427
1696023906145,0.1940918,-0.9495239,0.27581787,0.3125,-1.0625,0.609375,428
1696023906185,0.19946289,-0.95684814,0.28363037,0.28125,-0.875,0.625,429
1696023906225,0.20166016,-0.9663696,0.28656006,0.265625,-0.78125,0.484375,430
1696023906265,0.20288086,-0.94781494,0.27874756,0.3125,-0.25,0.9375,431
1696023906305,0.19482422,-0.96221924,0.2838745,1.484375,-0.234375,0.59375,432
1696023906345,0.20385742,-0.9480591,0.28753662,0.640625,-0.40625,0.765625,433
1696023906385,0.1965332,-0.9534302,0.27459717,1.390625,-0.703125,0.671875,434
1696023906425,0.19726562,-0.9595337,0.28167725,1.734375,-0.890625,0.5,435
1696023906465,0.18920898,-0.9624634,0.28851318,1.5625,-0.71875,1.515625,436
1696023906505,0.20605469,-0.95440674,0.27093506,-1.65625,-0.59375,0.765625,437
1696023906545,0.19384766,-0.95562744,0.2868042,2.625,-0.4375,0.578125,438
1696023906585,0.19824219,-0.94366455,0.26971436,-1.6875,-0.046875,1.21875,439
1696023906625,0.20751953,-0.9602661,0.29071045,2.234375,-0.234375,0.609375,440
1696023906665,0.19067383,-0.9673462,0.29388428,0.390625,0.515625,1.25,441
1696023906705,0.20263672,-0.9524536,0.26727295,-0.3125,-0.28125,0.0625,442
1696023906745,0.19848633,-0.9470825,0.28582764,2.328125,-0.296875,0.53125,443
1696023906785,0.19140625,-0.95758057,0.29022217,-0.25,-0.421875,0.984375,444
1696023906825,0.20019531,-0.954895,0.28216553,0.90625,-0.84375,0.171875,445
1696023906865,0.19091797,-0.9602661,0.28289795,1.0,-0.359375,0.890625,446
1696023906905,0.1965332,-0.9492798,0.2826538,-0.046875,-0.625,0.625,447
1696023906945,0.20092773,-0.95269775,0.27752686,1.34375,-0.125,0.9375,448
1696023906985,0.19897461,-0.95806885,0.27679443,0.296875,-0.125,0.703125,449
1696023907025,0.20629883,-0.9534302,0.27435303,0.984375,0.21875,0.765625,450
1696023907065,0.19458008,-0.95880127,0.2843628,0.421875,-0.25,0.953125,451
1696023907105,0.19702148,-0.95025635,0.27215576,-0.1875,-0.78125,0.484375,452
1696023907145,0.19848633,-0.9546509,0.2831421,0.625,-0.6875,0.828125,453
1696023907185,0.19946289,-0.9619751,0.2699585,1.0,-1.09375,1.15625,454
1696023907225,0.19213867,-0.9492798,0.28045654,0.859375,-0.171875,0.765625,455
1696023907265,0.18774414,-0.94781494,0.27093506,-1.53125,-0.25,0.328125,456
1696023907305,0.21508789,-0.9651489,0.2819214,0.640625,2.90625,0.53125,457
1696023907345,0.20043945,-0.9829712,0.293396,0.59375,9.375,0.28125,458
1696023907385,0.19970703,-1.0291138,0.307312,5.6875,9.3125,3.59375,459
1696023907425,0.20483398,-0.91607666,0.23480225,-8.421875,5.78125,1.46875,460
1696023907465,0.21142578,-0.8953247,0.21600342,3.765625,3.203125,1.203125,461
1696023907505,0.1953125,-0.9834595,0.28729248,6.78125,2.078125,3.640625,462
1696023907545,0.21850586,-0.97979736,0.27069092,0.90625,-2.421875,1.734375,463
1696023907585,0.21728516,-0.9182739,0.23480225,-0.96875,-3.40625,-1.15625,464
1696023907625,0.19677734,-0.9385376,0.25506592,2.234375,-3.234375,1.078125,465
1696023907665,0.20629883,-0.95880127,0.27142334,2.234375,-3.890625,1.28125,466
1696023907705,0.2211914,-0.972229,0.2584839,-0.65625,-3.609375,0.296875,467
1696023907745,0.21362305,-0.9783325,0.26409912,0.421875,-0.859375,0.765625,468
1696023907785,0.20263672,-0.94659424,0.25531006,-1.046875,-1.125,0.34375,469
1696023907825,0.19848633,-0.9522095,0.25579834,1.421875,-0.796875,1.21875,470
1696023907865,0.20898438,-0.9612427,0.2694702,0.0,-0.28125,1.078125,471
1696023907905,0.20483398,-0.9602661,0.2748413,-0.515625,-0.90625,0.953125,472
1696023907945,0.19946289,-0.96221924,0.26800537,1.515625,-0.75,1.0,473
1696023907985,0.20385742,-0.94610596,0.26727295,-1.515625,-0.875,0.125,474
1696023908025,0.22143555,-0.9690552,0.2658081,0.734375,-0.09375,1.296875,475
1696023908065,0.21289062,-0.94122314,0.25897217,-0.75,-1.640625,-0.140625,476
1696023908105,0.20141602,-0.97125244,0.27874756,1.8125,-0.28125,1.0625,477
1696023908145,0.20678711,-0.96099854,0.262146,-1.125,-1.140625,0.640625,478
1696023908185,0.21044922,-0.95196533,0.26141357,-1.109375,-1.71875,-0.21875,479
1696023908225,0.20532227,-0.97003174,0.2748413,1.890625,-0.90625,1.296875,480
1696023908265,0.20678711,-0.95098877,0.26483154,-1.59375,-0.140625,0.59375,481
1696023908305,0.21655273,-0.95758057,0.26507568,1.296875,-0.390625,0.734375,482
1696023908345,0.19824219,-0.9492798,0.28240967,0.578125,-0.875,0.859375,483
1696023908385,0.19604492,-0.9697876,0.27557373,-0.15625,-1.59375,0.53125,484
1696023908425,0.20019531,-0.95806885,0.26654053,0.234375,-1.046875,0.40625,485
1696023908465,0.19628906,-0.96417236,0.27142334,0.9375,-2.21875,0.328125,486
1696023908505,0.18554688,-0.9434204,0.2814331,-1.796875,-4.40625,0.1875,487
1696023908545,0.20214844,-0.9534302,0.26312256,0.8125,-1.765625,1.390625,488
1696023908585,0.21044922,-0.96539307,0.28656006,2.578125,-0.515625,1.296875,489
1696023908625,0.19384766,-0.9585571,0.2658081,-1.25,-0.875,1.390625,490
1696023908665,0.19311523,-0.9475708,0.24749756,-0.9375,-0.546875,-0.484375,491
1696023908705,0.20117188,-0.9763794,0.29925537,3.46875,0.359375,-0.25,492
1696023908745,0.18334961,-0.972229,0.28607178,-2.140625,1.203125,1.78125,493
1696023908785,0.20532227,-0.9397583,0.25506592,-0.6875,-0.109375,-1.03125,494
1696023908825,0.19018555,-0.9673462,0.28900146,2.140625,1.015625,1.421875,495
1696023908865,0.19946289,-0.94976807,0.2609253,0.125,0.140625,1.0625,496
1696023908905,0.2084961,-0.94903564,0.27386475,0.5625,-1.59375,0.28125,497
1696023908945,0.1953125,-0.96881104,0.28216553,0.203125,-1.3125,0.734375,498
1696023908985,0.20678711,-0.94000244,0.27557373,-0.390625,-1.09375,0.125,499
1696023909025,0.1887207,-0.9607544,0.27581787,1.34375,-1.421875,0.78125,500
1696023909065,0.19873047,-0.95758057,0.276062,-0.875,-1.125,0.328125,501
1696023909105,0.1977539,-0.97320557,0.27557373,0.984375,-0.375,1.578125,502
1696023909145,0.1899414,-0.95977783,0.2831421,-0.5625,-0.234375,0.265625,503
1696023909185,0.19580078,-0.9546509,0.2748413,0.765625,-0.78125,0.328125,504
1696023909225,0.19458008,-0.956604,0.28118896,0.203125,-0.53125,0.890625,505
1696023909265,0.19677734,-0.9627075,0.27874756,0.15625,-1.125,0.640625,506
1696023909305,0.19384766,-0.95977783,0.27752686,0.3125,-0.53125,0.546875,507
1696023909345,0.19140625,-0.9553833,0.27850342,-0.4375,-0.96875,0.40625,508
1696023909385,0.19238281,-0.95977783,0.27581787,0.140625,-0.234375,0.953125,509
1696023909425,0.19677734,-0.9475708,0.2909546,1.125,-1.03125,-0.328125,510
1696023909465,0.19262695,-0.95513916,0.26776123,-0.953125,-0.90625,0.84375,511
1696023909505,0.19384766,-0.9612427,0.27923584,1.0625,-1.203125,-0.078125,512
1696023909545,0.17700195,-0.96539307,0.29193115,0.921875,0.0,1.015625,513
1696023909585,0.20141602,-0.9468384,0.26507568,-0.375,-0.421875,0.09375,514
1696023909625,0.19018555,-0.9492798,0.2765503,-0.484375,-1.0,-0.046875,515
1696023909665,0.19433594,-0.9702759,0.27166748,-1.421875,0.734375,0.03125,516
1696023909705,0.19970703,-0.9841919,0.3361206,4.296875,5.9375,0.5,517
1696023909745,0.17529297,-1.0603638,0.33758545,8.109375,12.015625,6.0625,518
1696023909785,0.19897461,-0.94122314,0.2333374,-8.234375,7.15625,1.78125,519
1696023909825,0.22705078,-0.84991455,0.2296753,1.890625,1.875,0.90625,520
1696023909865,0.18676758,-0.94317627,0.22332764,9.25,1.515625,4.0,521
1696023909905,0.20751953,-0.9846802,0.27874756,1.0,0.359375,2.484375,522
1696023909945,0.21142578,-0.95098877,0.26190186,-2.421875,-5.390625,-0.25,523
1696023909985,0.19604492,-0.95391846,0.25994873,1.484375,-3.671875,-0.234375,524
1696023910025,0.19482422,-0.94976807,0.26116943,1.578125,-3.484375,1.4375,525
1696023910065,0.21411133,-0.95806885,0.27679443,1.359375,-4.609375,-0.140625,526
1696023910105,0.21801758,-0.956604,0.27069092,-1.734375,-1.703125,0.328125,527
1696023910145,0.19921875,-0.9680786,0.2741089,-0.34375,-0.46875,0.421875,528
1696023910185,0.19042969,-0.94244385,0.25506592,-1.53125,-1.40625,0.296875,529
1696023910225,0.20336914,-0.9661255,0.28485107,2.078125,-1.03125,0.171875,530
1696023910265,0.2006836,-0.9714966,0.28460693,-1.578125,-0.234375,1.125,531
1696023910305,0.19970703,-0.94781494,0.26898193,-0.59375,-0.328125,0.515625,532
1696023910345,0.19677734,-0.96417236,0.2748413,1.609375,-0.125,0.65625,533
1696023910385,0.19750977,-0.95269775,0.27679443,-0.59375,-0.28125,0.796875,534
1696023910425,0.19506836,-0.9492798,0.276062,-0.34375,-0.4375,0.4375,535
1696023910465,0.19750977,-0.9692993,0.27679443,-0.21875,-0.390625,0.671875,536
1696023910505,0.20727539,-0.9624634,0.2802124,-0.046875,-0.34375,0.453125,537
1696023910545,0.19262695,-0.9463501,0.27215576,-0.390625,-0.71875,0.328125,538
1696023910585,0.19165039,-0.95806885,0.2802124,0.546875,-0.59375,0.578125,539
1696023910625,0.20239258,-0.94781494,0.2772827,0.25,-0.53125,0.671875,540
1696023910665,0.19384766,-0.95635986,0.28045654,0.140625,-0.328125,0.328125,541
1696023910705,0.20043945,-0.9624634,0.27508545,-0.40625,-0.671875,0.46875,542
1696023910745,0.19726562,-0.9546509,0.28338623,-0.234375,-0.59375,0.5625,543
1696023910785,0.18676758,-0.95635986,0.28631592,0.328125,-0.640625,0.625,544
1696023910825,0.19848633,-0.95440674,0.2699585,-1.671875,-0.203125,-0.203125,545
1696023910865,0.2043457,-0.97442627,0.2892456,0.828125,-0.484375,1.203125,546
1696023910905,0.19018555,-0.9495239,0.27215576,-1.328125,-1.3125,-0.015625,547
1696023910945,0.18798828,-0.9758911,0.3048706,2.875,-0.171875,0.859375,548
1696023910985,0.19189453,-0.96173096,0.28094482,1.5625,2.578125,1.359375,549
1696023911025,0.19946289,-0.96343994,0.276062,-1.09375,1.09375,0.265625,550
1696023911065,0.19799805,-0.9470825,0.26605225,3.03125,0.8125,0.5625,551
1696023911105,0.20288086,-0.96173096,0.28216553,1.65625,0.078125,0.96875,552
1696023911145,0.1953125,-0.9668579,0.276062,1.265625,0.359375,1.0625,553
1696023911185,0.19189453,-0.94903564,0.2699585,1.28125,0.609375,0.59375,554
1696023911225,0.19042969,-0.954895,0.26800537,0.90625,-0.84375,0.625,555
1696023911265,0.19677734,-0.942688,0.26361084,0.421875,-0.78125,-0.03125,556
1696023911305,0.19970703,-0.9585571,0.2855835,1.015625,-1.25,0.171875,557
1696023911345,0.19189453,-0.9734497,0.28338623,0.4375,-1.234375,1.078125,558
1696023911385,0.19042969,-0.95318604,0.25750732,-1.5625,-1.109375,0.296875,559
1696023911425,0.19458008,-0.9649048,0.27166748,0.984375,-1.1875,0.609375,560
1696023911465,0.18896484,-0.9614868,0.27337646,0.484375,-0.671875,1.359375,561
1696023911505,0.19750977,-0.95758057,0.26776123,-0.484375,-0.71875,0.5,562
1696023911545,0.18481445,-0.95391846,0.29266357,0.859375,-1.21875,1.125,563
1696023911585,0.19897461,-0.94659424,0.26434326,-2.53125,-0.390625,0.28125,564
1696023911625,0.19360352,-0.9771118,0.2880249,1.453125,-0.046875,0.96875,565
1696023911665,0.18286133,-0.9468384,0.27386475,-2.265625,-1.359375,0.125,566
1696023911705,0.1887207,-0.9644165,0.28875732,2.734375,-0.28125,0.734375,567
1696023911745,0.18579102,-0.9636841,0.28485107,-0.4375,0.515625,1.390625,568
1696023911785,0.20385742,-0.9373169,0.2658081,-1.34375,-1.453125,-0.390625,569
1696023911825,0.18310547,-0.95562744,0.28338623,2.078125,-0.609375,0.734375,570
1696023911865,0.17797852,-0.954895,0.28289795,-0.78125,-0.578125,0.03125,571
1696023911905,0.19262695,-0.96661377,0.27923584,0.5625,-1.6875,-0.015625,572
1696023911945,0.1772461,-0.9741821,0.2855835,-0.53125,-1.65625,0.515625,573
1696023911985,0.18164062,-0.94488525,0.27435303,-2.953125,-1.03125,-0.34375,574
1696023912025,0.1953125,-0.9505005,0.2831421,0.921875,-0.796875,0.078125,575
1696023912065,0.18676758,-0.9780884,0.28631592,-1.890625,1.34375,0.328125,576
1696023912105,0.2006836,-0.99053955,0.32366943,2.625,9.46875,0.453125,577
1696023912145,0.18945312,-1.0357056,0.31976318,4.609375,9.40625,4.8125,578
1696023912185,0.17895508,-0.9312134,0.24359131,-10.4375,2.859375,1.578125,579
1696023912225,0.20678711,-0.87750244,0.24139404,-8.515625,-3.34375,-1.609375,580
1696023912265,0.171875,-0.8987427,0.31707764,-2.671875,-4.046875,-0.546875,581
1696023912305,0.1652832,-1.05719,0.23016357,14.328125,-1.6875,4.546875,582
1696023912345,0.23535156,-0.94610596,0.33685303,-6.203125,0.453125,1.78125,583
1696023912385,0.19458008,-0.9102173,0.25604248,5.640625,-3.96875,-0.234375,584
1696023912425,0.16918945,-0.95880127,0.28704834,0.75,0.171875,3.375,585
1696023912465,0.20043945,-0.95391846,0.28656006,2.171875,-2.421875,0.390625,586
1696023912505,0.20336914,-0.9854126,0.307312,3.15625,0.5625,1.640625,587
1696023912545,0.19335938,-0.9553833,0.28900146,-2.21875,1.109375,2.171875,588
1696023912585,0.18432617,-0.9402466,0.25897217,-0.984375,-1.28125,0.203125,589
1696023912625,0.2043457,-0.9546509,0.28533936,3.234375,0.578125,1.875,590
1696023912665,0.20092773,-0.96417236,0.29364014,0.34375,-1.1875,1.359375,591
1696023912705,0.20166016,-0.9649048,0.28826904,-1.0,-0.140625,1.109375,592
1696023912745,0.19848633,-0.9517212,0.29266357,1.421875,0.265625,1.34375,593
1696023912785,0.20288086,-0.9487915,0.27752686,-0.34375,-1.203125,1.0,594
1696023912825,0.19702148,-0.94976807,0.2855835,0.578125,-0.875,0.984375,595
1696023912865,0.20239258,-0.9627075,0.29315186,1.078125,-0.640625,0.703125,596
1696023912905,0.20141602,-0.95806885,0.29266357,0.359375,-0.671875,0.890625,597
1696023912945,0.19458008,-0.9524536,0.28631592,-0.796875,-0.84375,0.609375,598
1696023912985,0.19848633,-0.9512329,0.28240967,1.140625,-0.4375,0.734375,599
1696023913025,0.18847656,-0.9512329,0.28778076,0.640625,0.0625,0.6875,600
1696023913065,0.19335938,-0.95562744,0.28411865,-0.078125,-0.671875,0.671875,601
1696023913105,0.20263672,-0.97076416,0.29412842,1.1875,-0.28125,1.0,602
1696023913145,0.19580078,-0.94244385,0.2880249,-0.421875,-0.34375,-0.078125,603
1696023913185,0.19824219,-0.9534302,0.27703857,-0.625,0.328125,1.203125,604
1696023913225,0.2006836,-0.9470825,0.2789917,-0.046875,-0.453125,-0.515625,605
1696023913265,0.1940918,-0.96954346,0.30316162,2.359375,0.53125,1.28125,606
1696023913305,0.2019043,-0.9463501,0.2711792,-1.25,0.25,0.53125,607
1696023913345,0.19726562,-0.9512329,0.28240967,0.078125,-0.140625,0.4375,608
1696023913385,0.20214844,-0.9624634,0.29022217,0.953125,0.046875,0.90625,609
1696023913425,0.2055664,-0.94195557,0.28118896,0.734375,-0.71875,0.203125,610
1696023913465,0.19213867,-0.9763794,0.27972412,3.84375,-0.234375,1.390625,611
1696023913505,0.19604492,-0.9585571,0.2929077,0.09375,1.40625,1.34375,612
1696023913545,0.18969727,-0.9522095,0.27972412,0.171875,-0.578125,0.359375,613
1696023913585,0.19799805,-0.9417114,0.27947998,1.65625,-0.25,0.546875,614
1696023913625,0.20117188,-0.9680786,0.26922607,2.78125,0.515625,1.359375,615
1696023913665,0.2043457,-0.9573364,0.28997803,0.796875,0.796875,1.03125,616
1696023913705,0.19335938,-0.95977783,0.27386475,0.109375,-1.0,0.15625,617
1696023913745,0.20361328,-0.95440674,0.27166748,0.53125,-0.6875,0.015625,618
1696023913785,0.19799805,-0.9644165,0.28460693,-0.015625,-0.890625,0.734375,619
1696023913825,0.19189453,-0.9602661,0.26971436,-0.890625,-1.1875,-0.09375,620
1696023913865,0.20483398,-0.97540283,0.28289795,0.765625,-0.3125,1.25,621
1696023913905,0.19848633,-0.9417114,0.27752686,-1.578125,-0.765625,-0.53125,622
1696023913945,0.19604492,-0.9639282,0.27801514,0.578125,-0.015625,0.953125,623
1696023913985,0.19042969,-0.9495239,0.27923584,-0.484375,-1.015625,0.375,624
1696023914025,0.18457031,-0.9800415,0.30047607,2.96875,0.15625,1.265625,625
1696023914065,0.18969727,-0.95196533,0.27459717,-1.546875,0.09375,0.734375,626
1696023914105,0.20019531,-0.9495239,0.2694702,0.4375,-0.9375,0.140625,627
1696023914145,0.19482422,-0.9663696,0.28607178,1.640625,0.078125,1.1875,628
1696023914185,0.19384766,-0.956604,0.27557373,0.703125,-0.75,0.4375,629
1696023914225,0.19238281,-0.956604,0.2765503,0.296875,-0.3125,0.625,630
1696023914265,0.19555664,-0.9717407,0.27996826,1.90625,-0.734375,0.78125,631
1696023914305,0.19335938,-0.9480591,0.2819214,-0.9375,-0.375,0.90625,632
1696023914345,0.17919922,-0.96343994,0.2855835,1.703125,-1.5,0.53125,633
1696023914385,0.19042969,-0.9668579,0.2892456,-0.359375,-0.53125,0.625,634
1696023914425,0.19189453,-0.95391846,0.27166748,-0.3125,-0.234375,0.453125,635
1696023914465,0.19116211,-0.9541626,0.27581787,0.78125,-0.15625,1.015625,636
1696023914505,0.19091797,-0.9624634,0.27801514,-0.21875,-0.359375,0.703125,637
1696023914545,0.19433594,-0.95635986,0.28045654,-0.40625,-0.84375,0.296875,638
1696023914585,0.19091797,-0.96295166,0.2819214,0.296875,-0.828125,0.59375,639
1696023914625,0.18115234,-0.960022,0.29241943,-0.375,-0.515625,0.484375,640
1696023914665,0.19140625,-0.9590454,0.276062,-0.796875,-0.140625,0.1875,641
1696023914705,0.19311523,-0.9661255,0.29803467,0.984375,-0.625,0.0625,642
1696023914745,0.1821289,-0.9451294,0.27093506,-1.75,-1.0625,0.625,643
1696023914785,0.18676758,-0.96759033,0.28900146,2.015625,-1.03125,0.0,644
1696023914825,0.17822266,-0.9612427,0.2970581,-0.203125,-0.25,0.9375,645
1696023914865,0.19067383,-0.9614868,0.27874756,-1.5625,-0.921875,-0.40625,646
1696023914905,0.18554688,-0.95562744,0.27850342,-0.96875,1.921875,-0.078125,647
1696023914945,0.18920898,-0.9768677,0.32391357,4.640625,9.09375,0.734375,648
1696023914985,0.18847656,-1.0408325,0.32513428,4.203125,9.0625,4.453125,649
1696023915025,0.17944336,-0.93756104,0.24505615,-12.15625,2.140625,0.359375,650
1696023915065,0.2084961,-0.85040283,0.24603271,-0.515625,4.375,-0.5625,651
1696023915105,0.18847656,-0.9854126,0.29388428,9.421875,2.390625,6.453125,652
1696023915145,0.19702148,-0.9746704,0.2982788,0.5,1.546875,3.46875,653
1696023915185,0.20898438,-0.9351196,0.25701904,-0.015625,-1.828125,0.6875,654
1696023915225,0.20092773,-0.9048462,0.25091553,1.515625,-3.265625,0.234375,655
1696023915265,0.1977539,-0.94781494,0.27264404,5.328125,-4.546875,1.9375,656
1696023915305,0.2019043,-0.987854,0.30316162,2.921875,-3.46875,2.296875,657
1696023915345,0.21679688,-0.97857666,0.26849365,-2.875,-2.828125,-0.09375,658
1696023915385,0.19555664,-0.9417114,0.27752686,0.984375,-0.75,0.15625,659
1696023915425,0.18408203,-0.9282837,0.27020264,0.140625,0.421875,1.03125,660
1696023915465,0.20629883,-0.9668579,0.27630615,1.96875,-1.640625,1.171875,661
1696023915505,0.20336914,-0.9404907,0.26678467,-3.453125,-2.28125,-0.390625,662
1696023915545,0.18969727,-0.9729614,0.2929077,2.734375,-1.375,0.96875,663
1696023915585,0.19262695,-0.9529419,0.28729248,-1.40625,-0.25,0.9375,664
1696023915625,0.21606445,-0.95147705,0.2741089,-0.03125,-1.125,-0.0625,665
1696023915665,0.19921875,-0.95806885,0.28045654,1.015625,-0.234375,0.625,666
1696023915705,0.19360352,-0.95880127,0.27703857,-0.296875,0.25,1.0625,667
1696023915745,0.20361328,-0.9495239,0.27386475,0.484375,-0.1875,0.421875,668
1696023915785,0.19116211,-0.9495239,0.28118896,0.453125,0.234375,1.1875,669
1696023915825,0.1977539,-0.96173096,0.2765503,0.578125,0.21875,0.5,670
1696023915865,0.19995117,-0.9558716,0.28411865,1.265625,-0.421875,0.34375,671
1696023915905,0.20019531,-0.956604,0.28216553,0.09375,-0.640625,0.234375,672
1696023915945,0.19848633,-0.95562744,0.28167725,0.375,-0.15625,0.375,673
1696023915985,0.18896484,-0.9612427,0.27923584,-0.015625,-0.15625,0.5625,674
1696023916025,0.19824219,-0.956604,0.2753296,0.125,-0.515625,0.0,675
1696023916065,0.19335938,-0.9656372,0.28363037,0.3125,-0.09375,-0.0625,676
1696023916105,0.18237305,-0.9451294,0.28533936,-0.046875,-0.3125,-0.234375,677
1696023916145,0.1772461,-0.9553833,0.2772827,-2.8125,0.421875,-0.625,678
1696023916185,0.19116211,-0.9553833,0.2929077,0.921875,0.9375,-0.296875,679
1696023916225,0.18847656,-0.9429321,0.28167725,-3.3125,1.765625,-0.203125,680
1696023916265,0.19946289,-0.9783325,0.3085327,2.28125,2.90625,0.8125,681
1696023916305,0.1899414,-0.9663696,0.29266357,-3.09375,1.21875,1.390625,682
1696023916345,0.21386719,-0.9378052,0.26263428,0.84375,-0.328125,0.46875,683
1696023916385,0.19042969,-0.927063,0.27752686,5.28125,0.734375,0.859375,684
1696023916425,0.18701172,-0.95440674,0.28094482,2.65625,0.578125,1.859375,685
1696023916465,0.1928711,-0.9714966,0.28851318,2.921875,-1.3125,1.0,686
1696023916505,0.1953125,-0.95562744,0.27825928,2.875,-0.765625,1.15625,687
1696023916545,0.20410156,-0.9273071,0.25701904,-0.296875,-1.75,1.59375,688
1696023916585,0.19311523,-0.9656372,0.276062,3.25,-1.375,1.875,689
1696023916625,0.18164062,-0.9656372,0.2814331,2.484375,-0.34375,1.46875,690
1696023916665,0.18652344,-0.97540283,0.26605225,0.75,0.046875,0.296875,691
1696023916705,0.2043457,-0.95513916,0.26312256,0.875,-0.140625,0.078125,692
1696023916745,0.19165039,-0.9619751,0.27313232,1.015625,0.109375,1.234375,693
1696023916785,0.19458008,-0.9573364,0.2567749,-0.265625,-0.421875,0.8125,694
1696023916825,0.19018555,-0.9590454,0.27313232,0.03125,-1.8125,-0.25,695
1696023916865,0.19311523,-0.97442627,0.28411865,1.15625,-1.765625,0.03125,696
1696023916905,0.19140625,-0.95098877,0.27166748,-0.234375,-1.5,-0.84375,697
1696023916945,0.18676758,-0.9553833,0.25750732,-2.109375,-1.671875,0.984375,698
1696023916985,0.19262695,-0.95562744,0.27069092,0.484375,-2.09375,-0.5,699
1696023917025,0.18041992,-0.9727173,0.28533936,1.109375,-0.8125,1.0,700
1696023917065,0.18310547,-0.9529419,0.26361084,-1.3125,-0.96875,-0.078125,701
1696023917105,0.19921875,-0.9558716,0.26068115,0.59375,-0.328125,0.390625,702
1696023917145,0.18725586,-0.9661255,0.2772827,0.953125,-0.734375,1.71875,703
1696023917185,0.18945312,-0.9578247,0.26800537,0.0625,-0.5,0.46875,704
1696023917225,0.18701172,-0.9624634,0.2772827,1.015625,-0.265625,1.484375,705
1696023917265,0.18774414,-0.96343994,0.27313232,-0.34375,-0.703125,1.203125,706
1696023917305,0.18530273,-0.960022,0.26507568,0.15625,-0.71875,1.09375,707
1696023917345,0.19091797,-0.9590454,0.27069092,0.640625,-0.578125,0.671875,708
1696023917385,0.19726562,-0.96588135,0.27093506,-0.109375,-0.03125,1.0,709
1696023917425,0.18920898,-0.9678345,0.27801514,-1.203125,2.953125,0.421875,710
1696023917465,0.21386719,-1.0059204,0.309021,3.125,10.609375,1.140625,711
1696023917505,0.16870117,-0.99957275,0.2994995,3.40625,7.484375,4.0625,712
1696023917545,0.19580078,-0.9248657,0.23382568,-5.921875,2.375,0.265625,713
1696023917585,0.20898438,-0.9241333,0.26385498,-4.0,3.1875,0.90625,714
1696023917625,0.18261719,-0.91656494,0.2843628,-1.625,4.15625,2.875,715
1696023917665,0.17797852,-1.0264282,0.25946045,9.0625,0.265625,4.59375,716
1696023917705,0.23925781,-0.93341064,0.28411865,-7.609375,0.078125,1.9375,717
1696023917745,0.20507812,-0.8892212,0.23602295,6.875,-4.734375,0.703125,718
1696023917785,0.19433594,-0.95440674,0.27264404,2.625,-2.6875,3.3125,719
1696023917825,0.22998047,-0.9692993,0.28997803,5.1875,-3.4375,1.96875,720
1696023917865,0.20898438,-0.98516846,0.27801514,-1.984375,-3.359375,0.15625,721
1696023917905,0.20214844,-0.9536743,0.26019287,-1.515625,-0.9375,0.984375,722
1696023917945,0.21142578,-0.9356079,0.25726318,-0.015625,-0.796875,0.890625,723
1696023917985,0.20263672,-0.96710205,0.27459717,1.03125,-1.09375,1.765625,724
1696023918025,0.22021484,-0.95635986,0.27508545,-1.15625,-2.359375,0.640625,725
1696023918065,0.2084961,-0.954895,0.2753296,-1.0625,-1.6875,0.46875,726
1696023918105,0.20361328,-0.956604,0.27557373,-0.09375,-0.859375,0.921875,727
1696023918145,0.20092773,-0.9505005,0.2711792,-0.140625,-1.5,0.453125,728
1696023918185,0.20654297,-0.9614868,0.27850342,-0.5,-2.40625,0.0625,729
1696023918225,0.19799805,-0.95684814,0.28289795,-0.875,-2.046875,0.0,730
1696023918265,0.21557617,-0.9507446,0.27947998,0.4375,-1.71875,0.21875,731
1696023918305,0.19702148,-0.9536743,0.2921753,1.640625,-1.28125,0.828125,732
1696023918345,0.19946289,-0.95391846,0.27215576,-2.125,-1.15625,-0.09375,733
1696023918385,0.19848633,-0.9714966,0.2904663,1.625,-0.359375,0.53125,734
1696023918425,0.19702148,-0.9487915,0.26531982,-2.890625,-1.203125,-0.203125,735
1696023918465,0.20458984,-0.96539307,0.29437256,2.5625,-0.734375,0.46875,736
1696023918505,0.1928711,-0.95562744,0.28900146,-1.5,-0.25,0.6875,737
1696023918545,0.2084961,-0.95098877,0.27459717,-0.375,-1.40625,-0.515625,738
1696023918585,0.19384766,-0.95977783,0.2897339,1.90625,-0.34375,0.734375,739
1696023918625,0.1928711,-0.9595337,0.28778076,-0.8125,-0.75,0.53125,740
1696023918665,0.19921875,-0.95684814,0.2802124,0.53125,-1.03125,0.28125,741
1696023918705,0.1875,-0.9607544,0.29241943,0.6875,-0.296875,0.6875,742
1696023918745,0.20019531,-0.95318604,0.2826538,0.015625,-0.8125,0.453125,743
1696023918785,0.20458984,-0.95513916,0.27679443,1.484375,-0.703125,0.421875,744
1696023918825,0.19824219,-0.9607544,0.2826538,0.375,-0.296875,0.84375,745
1696023918865,0.19702148,-0.94976807,0.28851318,0.375,-0.8125,0.59375,746
1696023918905,0.19018555,-0.9627075,0.28582764,0.703125,-0.921875,0.859375,747
1696023918945,0.19873047,-0.95513916,0.28826904,0.0625,-0.484375,0.609375,748
1696023918985,0.19702148,-0.9458618,0.28753662,0.3125,-0.859375,0.671875,749
1696023919025,0.18676758,-0.95269775,0.29925537,1.5,-0.828125,0.984375,750
1696023919065,0.19677734,-0.9475708,0.28216553,-0.921875,-1.015625,0.75,751
1696023919105,0.19140625,-0.9631958,0.29852295,2.0,-0.53125,0.53125,752
1696023919145,0.19628906,-0.94610596,0.276062,-1.984375,-0.75,0.453125,753
1696023919185,0.19238281,-0.9649048,0.29632568,3.015625,-0.65625,1.015625,754
1696023919225,0.18066406,-0.9619751,0.2987671,-0.828125,0.359375,1.484375,755
1696023919265,0.19335938,-0.95318604,0.27996826,0.46875,-1.015625,0.0625,756
1696023919305,0.19311523,-0.95513916,0.2929077,1.390625,0.328125,0.578125,757
1696023919345,0.18676758,-0.9487915,0.2765503,1.859375,-0.09375,1.34375,758
1696023919385,0.20239258,-0.9631958,0.29022217,0.65625,-0.671875,0.71875,759
1696023919425,0.19238281,-0.9619751,0.27825928,0.890625,-0.140625,0.90625,760
1696023919465,0.19848633,-0.9649048,0.27337646,0.390625,-0.34375,0.6875,761
1696023919505,0.1940918,-0.93756104,0.27288818,0.40625,-0.53125,0.40625,762
1696023919545,0.18774414,-0.9729614,0.28363037,1.9375,-0.734375,0.65625,763
1696023919585,0.1953125,-0.9524536,0.28533936,-1.015625,-0.453125,0.53125,764
1696023919625,0.18554688,-0.960022,0.27923584,0.96875,-0.859375,0.859375,765
1696023919665,0.19262695,-0.960022,0.28460693,0.21875,-0.4375,0.765625,766
1696023919705,0.19067383,-0.95196533,0.28411865,0.171875,-0.796875,0.578125,767
1696023919745,0.19946289,-0.9585571,0.2843628,1.390625,-0.421875,0.859375,768
1696023919785,0.18554688,-0.9524536,0.28704834,1.46875,-0.859375,1.265625,769
1696023919825,0.17993164,-0.94610596,0.2723999,-1.96875,-0.640625,0.59375,770
1696023919865,0.19628906,-0.96343994,0.28753662,1.9375,0.25,0.6875,771
1696023919905,0.1928711,-0.9365845,0.27630615,-0.734375,0.109375,0.703125,772
1696023919945,0.18896484,-0.9795532,0.3036499,3.546875,0.109375,1.578125,773
1696023919985,0.18041992,-0.96417236,0.293396,-0.53125,0.953125,1.546875,774
1696023920025,0.19970703,-0.9541626,0.2765503,0.515625,-0.328125,0.234375,775
1696023920065,0.19482422,-0.9534302,0.28826904,1.96875,0.140625,1.171875,776
1696023920105,0.18725586,-0.9553833,0.28704834,-0.25,0.078125,0.859375,777
1696023920145,0.20410156,-0.9673462,0.28411865,-0.046875,-0.5,0.328125,778
1696023920185,0.18408203,-0.95098877,0.28826904,0.671875,-0.046875,0.609375,779
1696023920225,0.19140625,-0.9595337,0.2711792,-0.359375,-0.59375,0.140625,780
1696023920265,0.21240234,-0.95758057,0.28778076,1.484375,-0.890625,0.34375,781
1696023920305,0.18530273,-0.9702759,0.28656006,-0.578125,-0.546875,0.5,782
1696023920345,0.17797852,-0.95098877,0.27044678,-0.546875,-0.59375,0.296875,783
1696023920385,0.1977539,-0.9553833,0.27825928,1.53125,-0.578125,0.359375,784
1696023920425,0.18725586,-0.9585571,0.27166748,1.109375,-0.40625,0.734375,785
1696023920465,0.1977539,-0.9614868,0.2748413,1.921875,0.609375,0.890625,786
1696023920505,0.19213867,-0.960022,0.2789917,1.5625,-0.640625,0.734375,787
1696023920545,0.18701172,-0.95758057,0.27630615,1.5,-0.1875,0.328125,788
1696023920585,0.19140625,-0.93878174,0.2723999,-0.90625,-0.1875,0.203125,789
1696023920625,0.20458984,-0.9771118,0.28070068,1.859375,-0.28125,1.125,790
1696023920665,0.17529297,-0.94488525,0.2682495,-1.5,-0.9375,0.65625,791
1696023920705,0.1821289,-0.9793091,0.29071045,2.796875,-0.578125,0.671875,792
1696023920745,0.18432617,-0.9614868,0.27679443,0.09375,-0.296875,1.421875,793
1696023920785,0.20166016,-0.94903564,0.2682495,-0.9375,-0.65625,-0.09375,794
1696023920825,0.18432617,-0.96051025,0.28118896,2.359375,-0.5,1.4375,795
1696023920865,0.1875,-0.95562744,0.28363037,-1.125,-0.25,0.65625,796
1696023920905,0.19213867,-0.97662354,0.277771,0.96875,-0.5,0.75,797
1696023920945,0.19604492,-0.96881104,0.28753662,0.453125,-0.25,0.8125,798
1696023920985,0.18139648,-0.9534302,0.27386475,-0.75,-1.140625,0.40625,799
1696023921025,0.18701172,-0.9570923,0.27020264,2.640625,-0.5,0.125,800
1696023921065,0.19213867,-0.9649048,0.28826904,1.921875,-0.375,1.015625,801
1696023921105,0.17333984,-0.96051025,0.28240967,-0.140625,-0.1875,0.953125,802
1696023921145,0.18603516,-0.9578247,0.26409912,0.4375,0.1875,0.25,803
1696023921185,0.18725586,-0.95928955,0.28582764,-0.296875,-0.359375,0.46875,804
1696023921225,0.18066406,-0.96099854,0.2723999,-1.140625,-0.5625,0.53125,805
1696023921265,0.19189453,-0.9636841,0.27142334,-1.765625,0.453125,0.171875,806
1696023921305,0.2019043,-0.9639282,0.29730225,0.96875,5.703125,-0.59375,807
1696023921345,0.2109375,-1.0100708,0.30462646,3.421875,10.40625,2.65625,808
1696023921385,0.17675781,-0.9714966,0.28167725,-4.5625,7.453125,3.578125,809
1696023921425,0.1965332,-0.9143677,0.23919678,-1.546875,2.390625,-0.03125,810
1696023921465,0.17626953,-0.97052,0.2814331,7.484375,2.703125,2.953125,811
1696023921505,0.21313477,-0.9758911,0.26287842,1.328125,3.96875,2.796875,812
1696023921545,0.21777344,-0.9338989,0.25286865,-1.140625,-0.09375,1.0625,813
1696023921585,0.2097168,-0.9456177,0.23895264,4.140625,-1.609375,2.078125,814
1696023921625,0.20458984,-0.9146118,0.22576904,1.109375,-3.53125,0.828125,815
1696023921665,0.19873047,-0.93341064,0.24920654,1.375,-7.234375,0.046875,816
1696023921705,0.20654297,-0.9973755,0.28533936,6.1875,-5.6875,1.546875,817
1696023921745,0.19824219,-0.96881104,0.26531982,-1.921875,-3.15625,0.78125,818
1696023921785,0.19750977,-0.9590454,0.2321167,0.59375,-2.328125,-0.296875,819
1696023921825,0.19799805,-0.95147705,0.26116943,0.765625,0.03125,0.6875,820
