timestamp,accel_x,accel_y,accel_z,gyro_x,gyro_y,gyro_z,ind
1696089344367,-0.5341797,0.39007568,-0.38555908,-58.296875,9.5625,39.296875,81
1696089344407,-0.2319336,1.3695679,-0.380188,-10.6875,14.640625,-29.0,82
1696089344447,0.3479004,-0.054992676,0.04534912,90.5625,35.734375,-59.578125,83
1696089344487,0.24487305,-0.9067993,-0.94732666,19.640625,-41.6875,-21.015625,84
1696089344527,1.999939,-2.0,-0.34625244,26.796875,-69.703125,122.015625,85
1696089344567,-0.08203125,-1.6008911,0.53289795,-6.3125,16.984375,45.203125,86
1696089344607,0.025146484,-2.0,-0.22442627,-53.515625,24.40625,-2.484375,87
1696089344647,0.19018555,-1.2854614,-0.023742676,24.5,63.71875,-3.09375,88
1696089344687,-0.20019531,-0.84161377,0.13812256,51.703125,87.84375,40.25,89
1696089344727,0.09448242,-0.038146973,-0.097473145,-49.75,29.828125,59.15625,90
1696089344767,0.79174805,0.9706421,-0.36236572,-72.375,-115.171875,49.859375,91
1696089344807,0.3720703,0.4647827,-0.25543213,-18.875,-64.953125,-5.609375,92
1696089344847,-0.11767578,-0.26641846,-0.49835205,51.9375,-41.390625,-14.640625,93
1696089344887,-0.36499023,-0.83477783,-0.47735596,67.484375,-29.453125,-30.96875,94
1696089344927,1.6672363,-2.0,1.999939,85.03125,-23.234375,55.984375,95
1696089344967,0.63793945,-1.2114868,-0.6506958,-23.859375,-46.140625,-14.0,96
1696089345007,0.017333984,-1.5440063,0.2723999,38.421875,20.5625,-43.671875,97
1696089345047,-0.45141602,-1.366272,0.5687866,1.71875,-32.640625,-61.453125,98
1696089345087,0.076416016,0.04949951,-0.1026001,-20.625,-30.015625,-28.65625,99
1696089345127,-0.25952148,0.5861206,-0.45928955,-93.78125,37.359375,24.734375,100
1696089345167,0.17895508,0.79071045,-0.113098145,49.828125,12.078125,-24.34375,101
1696089345207,0.17797852,-0.28204346,0.1852417,94.0,14.734375,-32.046875,102
1696089345247,0.05883789,-0.9365845,-1.2078247,6.53125,-64.171875,-11.359375,103
1696089345287,0.2734375,-1.9129028,-0.741272,36.90625,-37.4375,39.046875,104
1696089345327,0.4873047,-2.0,1.0038452,-5.421875,6.84375,38.703125,105
1696089345367,-1.0974121,-1.7463989,-0.38970947,-133.29688,52.015625,33.203125,106
1696089345407,-0.29907227,-1.2451782,-0.12359619,48.1875,68.3125,-35.921875,107
1696089345447,0.005859375,-0.897522,-0.089660645,11.484375,75.15625,-22.671875,108
1696089345487,0.65356445,-0.36065674,0.09490967,-12.390625,80.890625,63.359375,109
1696089345527,0.7102051,0.46014404,-0.25543213,-79.671875,-107.859375,78.84375,110
1696089345567,0.2434082,0.9057007,-0.43511963,-79.109375,-33.828125,21.515625,111
1696089345607,0.009521484,0.02557373,-0.5808716,67.265625,-41.3125,-32.734375,112
1696089345647,-0.0078125,-0.4656372,-0.53448486,58.65625,-36.671875,-33.421875,113
1696089345687,1.999939,-2.0,1.999939,204.96875,-146.75,117.53125,114
1696089345727,0.5812988,-0.66290283,-0.8101196,-31.328125,-39.1875,6.5,115
1696089345767,0.3869629,-1.6907349,0.14007568,10.328125,-12.15625,-77.359375,116
1696089345807,-0.016845703,-1.4224243,0.40472412,69.921875,-23.65625,-59.984375,117
1696089345847,-0.018798828,-0.41729736,0.17352295,-45.59375,-40.703125,-22.59375,118
1696089345887,-0.66381836,0.32073975,-0.5857544,-89.65625,37.453125,40.78125,119
1696089345927,0.18725586,1.0873413,-0.21588135,44.734375,5.875,-28.515625,120
1696089345967,0.25463867,-0.14019775,0.20404053,81.796875,26.40625,-28.9375,121
1696089346007,0.15014648,-0.7439575,-1.2302856,17.21875,-54.859375,-2.796875,122
1696089346047,0.52075195,-1.8911743,-0.64849854,44.96875,-33.609375,38.421875,123
1696089346087,0.15893555,-2.0,0.85076904,-26.109375,-17.828125,42.578125,124
1696089346127,-0.98950195,-2.0,-0.3711548,-93.6875,20.6875,38.203125,125
1696089346167,-0.15063477,-1.5701294,-0.09625244,17.625,74.4375,-28.421875,126
1696089346207,0.100097656,-1.0628052,-0.03765869,32.875,65.09375,2.5625,127
1696089346247,0.40356445,-0.39971924,-0.055725098,2.21875,81.09375,51.6875,128
1696089346287,0.9013672,0.35809326,-0.07354736,-50.515625,-110.203125,73.765625,129
1696089346327,0.44970703,1.0241089,-0.61920166,-118.28125,-52.25,1.109375,130
1696089346367,-0.66137695,-0.08843994,-0.32061768,65.421875,-13.46875,4.078125,131
1696089346407,-0.26000977,-0.54034424,-0.675354,47.515625,-64.40625,-23.015625,132
1696089346447,1.999939,-2.0,1.999939,229.71875,-164.51562,-72.15625,133
1696089346487,0.9472656,-0.95269775,-0.9607544,-26.265625,24.125,-17.421875,134
1696089346527,0.40942383,-2.0,0.2501831,43.875,20.0625,-38.34375,135
1696089346567,-0.07885742,-1.2676392,0.34539795,42.046875,-46.875,-43.171875,136
1696089346607,-0.10473633,-0.39141846,-0.018859863,-27.796875,-42.984375,-34.09375,137
1696089346647,-0.51049805,0.53533936,-0.3477173,-68.25,30.4375,23.0625,138
1696089346687,-0.07885742,1.0875854,-0.18218994,25.359375,38.203125,-17.09375,139
1696089346727,0.31176758,-0.08306885,0.117614746,77.40625,39.796875,-33.46875,140
1696089346767,0.27978516,-0.630188,-1.1055298,39.328125,-13.75,-8.71875,141
1696089346807,0.5161133,-1.0994263,-0.8526001,14.859375,-53.8125,31.359375,142
1696089346847,0.5209961,-2.0,0.22845459,-8.28125,-6.96875,42.859375,143
1696089346887,-0.37426758,-2.0,0.03289795,-10.1875,41.1875,48.828125,144
1696089346927,-0.10253906,-1.8740845,-0.29693604,-27.875,59.03125,-9.234375,145
1696089346967,-0.015136719,-1.2300415,-0.20733643,3.90625,57.34375,13.96875,146
1696089347007,-0.07714844,-0.6109009,-0.26983643,13.953125,63.25,31.875,147
1696089347047,0.5361328,0.07318115,-0.12530518,-26.328125,10.3125,34.109375,148
1696089347087,0.95532227,0.93084717,-0.28155518,-80.890625,-102.484375,22.5,149
1696089347127,0.20678711,0.2831421,-0.19268799,-33.375,-41.53125,6.03125,150
1696089347167,-0.3569336,-0.22149658,-0.55548096,39.65625,-65.1875,18.546875,151
1696089347207,0.53466797,-2.0,-1.3533325,-60.3125,54.640625,-89.6875,152
1696089347247,0.8395996,-1.68219,-0.5437622,-22.375,8.984375,1.671875,153
1696089347287,0.9423828,-1.4934692,-0.02520752,3.609375,10.828125,-43.46875,154
1696089347327,0.07739258,-1.4343872,0.30194092,58.046875,-10.28125,-31.109375,155
1696089347367,-0.21264648,-0.9314575,0.082458496,-36.9375,-52.640625,-42.171875,156
1696089347407,-0.32983398,-0.02911377,-0.23712158,-43.8125,-12.421875,-6.296875,157
1696089347447,-0.10668945,0.79803467,-0.22515869,-38.96875,41.96875,13.5,158
1696089347487,0.29541016,0.3805542,0.013366699,59.421875,17.171875,-30.140625,159
1696089347527,0.28149414,-0.35894775,-0.5911255,46.15625,-26.0625,-22.921875,160
1696089347567,0.0087890625,-0.8726196,-0.64556885,48.75,-39.09375,14.9375,161
1696089347607,0.83862305,-2.0,0.72406006,36.59375,45.59375,71.5,162
1696089347647,-0.3466797,-1.788147,0.21380615,-54.125,32.90625,41.453125,163
1696089347687,-0.2631836,-1.8743286,0.073913574,-43.875,61.53125,9.46875,164
1696089347727,-0.23828125,-1.15094,-0.13726807,10.09375,59.03125,14.96875,165
1696089347767,0.118652344,-0.4356079,-0.10479736,3.796875,64.734375,1.21875,166
1696089347807,0.85595703,0.47625732,-0.035949707,5.28125,-18.109375,35.890625,167
1696089347847,0.6308594,0.619812,-0.43878174,-99.265625,-81.09375,54.59375,168
1696089347887,0.19897461,0.034606934,-0.53253174,-26.46875,-42.15625,4.5,169
1696089347927,-0.2849121,-0.40045166,-0.35333252,55.609375,-56.140625,-28.59375,170
1696089347967,1.999939,-2.0,1.999939,154.85938,-237.75,-14.5625,171
1696089348007,0.8742676,-1.0986938,-1.2229614,-47.703125,-24.5625,-27.609375,172
1696089348047,0.5151367,-1.373352,0.35394287,45.21875,15.84375,-67.453125,173
1696089348087,-0.0637207,-1.4746704,0.5726929,28.265625,-55.171875,-1.765625,174
1696089348127,-0.22192383,-0.30841064,0.016296387,-54.53125,-62.4375,2.1875,175
1696089348167,-1.1025391,0.510437,-0.8303833,-76.640625,55.765625,23.0625,176
1696089348207,0.48754883,0.69451904,-0.031066895,52.25,4.5625,-66.203125,177
1696089348247,0.2055664,-0.29840088,0.26605225,71.5,29.28125,-18.84375,178
1696089348287,-0.03125,-0.73760986,-0.59698486,-9.015625,22.125,-3.875,179
1696089348327,0.37573242,-0.5811157,-1.0796509,58.453125,-66.0625,33.40625,180
1696089348367,1.5429688,-2.0,1.8410034,81.28125,80.453125,57.03125,181
1696089348407,-0.38598633,-1.9507446,0.1149292,-94.3125,-1.59375,50.484375,182
1696089348447,-0.52246094,-1.7007446,-0.30718994,4.78125,98.78125,-11.546875,183
1696089348487,-0.015625,-0.75665283,-0.29278564,15.4375,41.5625,-36.828125,184
1696089348527,0.4074707,-0.7866821,0.19110107,59.34375,117.15625,27.546875,185
1696089348567,0.6010742,-0.15167236,0.10321045,-37.859375,-14.984375,59.546875,186
1696089348607,0.36987305,0.7367554,-0.5039673,-104.203125,-99.546875,35.640625,187
1696089348647,0.036132812,0.5775757,-0.1921997,-40.0,-11.421875,-8.421875,188
1696089348687,0.07470703,-0.13311768,-0.44805908,65.578125,-53.875,-6.625,189
1696089348727,-0.39746094,-2.0,-1.3259888,-61.3125,61.4375,-58.109375,190
1696089348767,0.7089844,-1.8313599,0.52752686,-99.671875,19.328125,32.125,191
1696089348807,1.0097656,-1.7752075,-0.50128174,45.40625,-20.1875,-40.578125,192
1696089348847,-0.0031738281,-1.4612427,0.59783936,76.328125,-10.09375,-29.203125,193
1696089348887,-0.26416016,-1.1272583,0.307312,-10.484375,-67.578125,-33.0,194
1696089348927,-0.35913086,-0.14239502,-0.06915283,-32.140625,-27.28125,0.109375,195
1696089348967,-0.21508789,0.60736084,-0.38970947,-66.078125,65.046875,2.71875,196
1696089349007,0.13793945,0.8356323,-0.10699463,56.71875,50.296875,-31.09375,197
1696089349047,0.2355957,-0.25494385,-0.20709229,61.171875,22.234375,-22.421875,198
1696089349087,0.39746094,-1.1170044,-1.1045532,0.28125,-64.921875,8.0625,199
1696089349127,0.45629883,-2.0,0.5392456,73.015625,96.109375,97.640625,200
1696089349167,-0.3984375,-2.0,0.2514038,-43.109375,6.71875,50.328125,201
1696089349207,-0.5942383,-2.0,-0.10821533,-4.875,42.140625,-18.859375,202
1696089349247,0.23632812,-1.2034302,-0.028869629,-15.046875,52.4375,4.25,203
1696089349287,-0.14453125,-0.9446411,-0.13238525,18.15625,80.890625,27.15625,204
1696089349327,0.057128906,-0.117004395,0.04071045,24.484375,69.6875,32.890625,205
1696089349367,0.76171875,0.59002686,-0.33892822,-59.25,-78.203125,30.6875,206
1696089349407,0.46020508,0.64105225,-0.24810791,-62.578125,-51.765625,20.71875,207
1696089349447,-0.16186523,-0.010559082,-0.60113525,8.28125,-48.59375,10.828125,208
1696089349487,-0.31762695,-1.0215454,-0.8452759,44.484375,-11.40625,-13.921875,209
1696089349527,0.72265625,-2.0,0.6498413,-44.8125,8.078125,1.671875,210
1696089349567,0.79956055,-1.3721313,-0.44439697,27.046875,-28.8125,-13.78125,211
1696089349607,0.028808594,-1.5383911,0.34954834,24.390625,-3.4375,-20.59375,212
1696089349647,-0.14672852,-1.0413208,0.19793701,-21.515625,-62.03125,-38.203125,213
1696089349687,-0.20532227,0.14837646,-0.06109619,-28.265625,-41.78125,-33.109375,214
1696089349727,-0.44726562,0.5673218,-0.44976807,-62.828125,50.65625,8.75,215
1696089349767,0.17163086,0.54315186,0.012634277,62.8125,23.546875,-31.71875,216
1696089349807,0.13989258,-0.284729,-0.08404541,54.59375,15.625,-11.515625,217
1696089349847,0.21850586,-0.70635986,-0.97613525,2.46875,-54.203125,1.796875,218
1696089349887,0.90625,-2.0,-0.80181885,26.34375,-32.78125,33.171875,219
1696089349927,0.046142578,-2.0,0.98236084,-2.3125,-5.734375,46.484375,220
1696089349967,-0.81933594,-1.7410278,-0.34942627,-78.453125,45.21875,15.359375,221
1696089350007,-0.12475586,-1.5046997,-0.1519165,4.09375,70.875,-21.65625,222
1696089350047,-0.09716797,-0.89263916,-0.057678223,27.953125,87.09375,21.34375,223
1696089350087,0.37695312,-0.300354,-0.094055176,-3.09375,70.328125,44.75,224
1696089350127,0.79467773,0.28631592,-0.061340332,-14.578125,-64.28125,50.296875,225
1696089350167,0.20605469,0.7494507,-0.48077393,-130.6875,-32.9375,37.171875,226
1696089350207,-0.036865234,0.18231201,-0.47125244,14.859375,-49.359375,-18.6875,227
1696089350247,0.16967773,-0.48760986,-0.36309814,92.015625,-30.0625,-31.109375,228
1696089350287,1.999939,-2.0,1.999939,151.95312,-205.48438,34.84375,229
1696089350327,0.57373047,-0.8855591,-0.87872314,-29.40625,-2.328125,-20.328125,230
1696089350367,0.69799805,-1.4341431,0.16473389,26.328125,-11.90625,-67.3125,231
1696089350407,-0.2878418,-1.2659302,0.508728,53.5,-55.171875,-12.96875,232
1696089350447,-0.23535156,-0.3081665,-0.09991455,-57.4375,-59.59375,-8.953125,233
1696089350487,-0.64208984,0.6481323,-0.5327759,-80.265625,34.9375,13.890625,234
1696089350527,0.13549805,0.7477417,-0.018615723,37.3125,8.75,-33.796875,235
1696089350567,0.24169922,-0.1609497,0.19915771,52.34375,34.984375,-21.875,236
1696089350607,0.06542969,-0.6087036,-0.8049927,17.921875,-1.359375,-19.46875,237
1696089350647,0.2993164,-0.9019165,-1.0513306,47.515625,-47.109375,15.390625,238
1696089350687,0.7294922,-2.0,0.355896,29.953125,50.28125,50.25,239
1696089350727,-0.8342285,-1.9453735,0.11126709,-74.28125,36.21875,60.390625,240
1696089350767,-0.42993164,-1.5796509,-0.3279419,-26.53125,80.640625,-19.078125,241
1696089350807,0.39257812,-0.9758911,-0.36798096,35.21875,37.0,-26.828125,242
1696089350847,0.34814453,-0.725647,0.34588623,45.25,136.85938,28.34375,243
1696089350887,0.65966797,-0.10650635,-0.07891846,-17.171875,-30.015625,57.0,244
1696089350927,0.31713867,0.555603,-0.47930908,-75.71875,-83.140625,41.078125,245
1696089350967,-0.14453125,0.50408936,-0.2630005,-35.359375,-22.84375,-0.296875,246
1696089351007,0.052734375,-0.42022705,-0.5059204,33.3125,-63.03125,-17.25,247
1696089351047,1.4372559,-2.0,-1.4285278,-21.5,0.921875,-109.171875,248
1696089351087,0.71728516,-1.2339478,0.011413574,-67.078125,-13.875,12.875,249
1696089351127,0.7138672,-1.7849731,-0.2883911,32.46875,-22.5,-10.890625,250
1696089351167,0.02734375,-1.1953735,0.41278076,61.515625,-24.5625,-42.734375,251
1696089351207,-0.08300781,-0.9229126,0.25579834,-29.015625,-73.34375,-35.078125,252
1696089351247,-0.36157227,-0.06500244,-0.15679932,-39.890625,-32.71875,7.90625,253
1696089351287,-0.41210938,0.7050171,-0.29473877,-47.46875,51.140625,13.96875,254
1696089351327,0.10522461,0.52142334,-0.059143066,36.453125,30.0,-39.15625,255
1696089351367,0.21899414,-0.17510986,-0.43780518,55.1875,22.828125,-28.515625,256
1696089351407,0.3803711,-0.97540283,-0.90948486,36.15625,-49.296875,9.640625,257
1696089351447,0.5439453,-2.0,-0.14898682,-4.703125,48.34375,81.609375,258
1696089351487,-0.35083008,-1.8643188,0.4574585,-28.15625,62.5625,42.3125,259
1696089351527,-0.060302734,-1.9099731,-0.2119751,-46.859375,42.375,-3.953125,260
1696089351567,-0.1262207,-1.1682739,0.040222168,17.421875,63.1875,8.96875,261
1696089351607,-0.12866211,-0.6658325,-0.15362549,15.828125,94.609375,30.046875,262
1696089351647,0.41845703,0.1239624,0.070495605,-13.546875,14.46875,34.015625,263
1696089351687,0.8979492,0.949646,-0.32281494,-93.140625,-87.765625,42.71875,264
1696089351727,0.3400879,0.3727417,-0.09991455,-26.609375,-55.4375,0.65625,265
1696089351767,-0.37597656,-0.17901611,-0.59552,49.9375,-40.703125,5.828125,266
1696089351807,-0.92993164,-1.8237915,-1.3247681,43.9375,1.34375,-16.34375,267
1696089351847,1.999939,-2.0,0.9537964,-40.84375,42.34375,37.125,268
1696089351887,0.592041,-1.3320923,-0.44122314,27.78125,-30.390625,3.125,269
1696089351927,-0.3022461,-1.68927,0.385437,3.015625,-26.515625,-20.765625,270
1696089351967,-0.43847656,-1.0061646,0.18475342,7.59375,-45.09375,-72.59375,271
1696089352007,0.1796875,0.17596436,-0.0095825195,1.28125,-15.796875,-16.390625,272
1696089352047,-0.36572266,0.29241943,-0.15264893,-37.890625,42.25,19.359375,273
1696089352087,-0.12841797,0.38006592,-0.15802002,3.109375,39.90625,-7.90625,274
1696089352127,0.020996094,-0.025939941,-0.22515869,37.21875,21.65625,-34.328125,275
1696089352167,0.38476562,-0.48272705,-0.89727783,57.875,-31.40625,-8.46875,276
1696089352207,1.2871094,-2.0,-1.255188,4.421875,-29.9375,67.359375,277
1696089352247,-0.21289062,-2.0,0.5043335,-17.234375,0.328125,62.6875,278
1696089352287,-0.1538086,-2.0,-0.18389893,-57.765625,47.90625,-5.21875,279
1696089352327,0.028564453,-1.4500122,-0.0960083,11.015625,55.375,-12.703125,280
1696089352367,-0.46948242,-1.0066528,-0.09503174,24.0,98.140625,32.53125,281
1696089352407,0.14453125,-0.24786377,-0.06890869,-8.8125,72.9375,49.96875,282
1696089352447,0.6374512,0.1918335,-0.05596924,-35.21875,-48.984375,49.390625,283
1696089352487,0.53759766,0.95648193,-0.46124268,-116.0,-43.984375,11.03125,284
1696089352527,0.11791992,0.13226318,-0.2937622,25.5,-42.359375,-15.109375,285
1696089352567,-0.030273438,-0.3225708,-0.6279907,92.546875,-38.828125,-4.0625,286
1696089352607,1.999939,-2.0,0.20965576,56.1875,-128.78125,-109.65625,287
1696089352647,0.24707031,-0.8760376,-1.0142212,-33.125,10.046875,-14.875,288
1696089352687,0.5175781,-1.4976196,0.06488037,-11.328125,5.46875,-42.90625,289
1696089352727,-0.17529297,-1.565979,0.4755249,73.796875,-51.4375,-34.171875,290
1696089352767,-0.20874023,-0.6506958,0.11639404,-41.171875,-40.25,-0.5,291
1696089352807,-0.6040039,0.3336792,-0.31622314,-35.140625,11.421875,17.9375,292
1696089352847,-0.24951172,1.1276245,-0.20733643,-26.375,21.21875,-32.1875,293
1696089352887,0.15039062,0.01361084,0.11883545,50.75,41.1875,-39.59375,294
1696089352927,0.11816406,-0.48150635,-0.70635986,41.4375,13.328125,-16.203125,295
1696089352967,0.5263672,-0.6621704,-0.9522095,56.25,-20.875,22.328125,296
1696089353007,1.3339844,-2.0,1.5748901,-20.078125,60.640625,66.53125,297
1696089353047,-0.53564453,-1.4216919,0.15545654,-80.734375,20.21875,37.15625,298
1696089353087,-0.44140625,-1.7070923,-0.30133057,-16.421875,63.09375,-19.234375,299
1696089353127,0.068847656,-1.0264282,-0.14752197,27.765625,63.59375,-10.078125,300
1696089353167,-0.043701172,-0.7119751,0.07122803,20.703125,100.109375,25.640625,301
1696089353207,0.67822266,-0.10015869,0.078552246,4.015625,29.453125,60.84375,302
1696089353247,0.5617676,0.7145386,-0.38555908,-106.875,-90.234375,38.28125,303
1696089353287,0.13720703,0.35028076,-0.20709229,-38.65625,-29.09375,-0.96875,304
1696089353327,-0.09472656,-0.15802002,-0.43389893,36.953125,-55.234375,-12.890625,305
1696089353367,-0.53100586,-1.7456665,-0.7817993,16.140625,17.9375,-32.734375,306
1696089353407,0.28271484,-1.789856,1.0297241,-33.25,21.015625,41.375,307
1696089353447,0.7758789,-1.4724731,-0.43414307,23.109375,-38.671875,-15.53125,308
1696089353487,-0.06201172,-1.4204712,0.168396,18.59375,-40.296875,-43.375,309
1696089353527,-0.34643555,-0.9290161,0.26409912,-8.171875,-56.671875,-37.34375,310
1696089353567,-0.36450195,0.094177246,-0.14581299,-28.234375,-21.625,11.921875,311
1696089353607,-0.2861328,0.6178589,-0.40142822,-49.65625,44.59375,6.90625,312
1696089353647,0.2277832,0.42181396,0.026550293,38.359375,29.828125,-39.78125,313
1696089353687,0.27294922,-0.23712158,-0.42877197,55.984375,10.25,-22.90625,314
1696089353727,0.2980957,-0.708313,-0.92852783,61.0625,-53.046875,8.21875,315
1696089353767,0.5048828,-2.0,1.2538452,66.5625,106.046875,93.640625,316
1696089353807,-0.42211914,-1.7803345,0.37005615,-25.484375,26.390625,50.875,317
1696089353847,-0.040039062,-1.6997681,-0.33477783,-62.1875,52.6875,-13.765625,318
1696089353887,-0.12695312,-1.1658325,-0.109191895,59.921875,67.921875,-7.359375,319
1696089353927,-0.060546875,-0.57818604,0.062927246,-1.890625,80.21875,10.609375,320
1696089353967,0.49560547,0.009216309,-0.06109619,-44.671875,2.125,43.703125,321
1696089354007,0.72021484,0.86932373,-0.32330322,-117.015625,-94.84375,41.34375,322
1696089354047,0.44189453,0.43450928,-0.3731079,-11.140625,-39.921875,-10.15625,323
1696089354087,-0.30932617,-0.3201294,-0.43267822,79.3125,-58.828125,6.96875,324
1696089354127,0.5966797,-2.0,-1.5708618,-82.640625,109.375,-127.34375,325
1696089354167,0.4345703,-1.1294556,-0.8374634,-22.6875,-4.59375,25.265625,326
1696089354207,0.8588867,-1.6555786,0.015808105,7.421875,-2.8125,-54.78125,327
1696089354247,-0.19580078,-1.1834106,0.38031006,58.046875,-43.34375,-45.625,328
1696089354287,-0.375,-0.7197876,0.22747803,-19.875,-49.765625,-17.890625,329
1696089354327,-0.5114746,0.14251709,-0.40118408,-63.703125,12.953125,13.484375,330
1696089354367,0.048339844,1.2643433,-0.23077393,-23.015625,36.78125,-17.859375,331
1696089354407,0.33081055,0.070007324,0.028259277,70.734375,39.046875,-31.953125,332
1696089354447,0.45947266,-0.5479126,-0.8640747,46.25,-33.96875,-7.0,333
1696089354487,0.69311523,-1.6953735,-0.9956665,68.9375,-26.984375,58.984375,334
1696089354527,-0.114746094,-2.0,0.35760498,-47.890625,13.8125,64.609375,335
1696089354567,-0.7578125,-2.0,-0.16143799,-62.3125,46.375,-10.4375,336
1696089354607,0.12695312,-1.359436,-0.085998535,26.421875,82.296875,-3.640625,337
1696089354647,-0.0087890625,-0.9468384,-0.27789307,29.609375,71.15625,7.9375,338
1696089354687,0.07397461,-0.20074463,0.03289795,-47.890625,69.015625,32.953125,339
1696089354727,1.0109863,0.91082764,-0.32525635,-64.140625,-108.046875,48.171875,340
1696089354767,0.7207031,0.69573975,-0.074523926,-34.25,-44.796875,4.53125,341
1696089354807,-0.29711914,-0.31695557,-0.60162354,33.625,-67.984375,10.71875,342
1696089354847,-0.68603516,-0.73809814,-0.78741455,81.765625,-11.828125,-6.625,343
1696089354887,1.999939,-2.0,1.999939,117.09375,-2.75,11.390625,344
1696089354927,0.8105469,-0.8152466,-0.9168091,9.890625,-31.421875,-27.4375,345
1696089354967,0.11303711,-1.8137817,0.2999878,41.75,18.03125,-17.96875,346
1696089355007,-0.2932129,-1.2627563,0.20843506,-12.4375,-66.25,-52.328125,347
1696089355047,-0.15795898,0.10296631,0.008728027,-13.203125,-19.515625,-48.125,348
1696089355087,-0.21313477,0.37322998,-0.11651611,-40.8125,28.578125,23.125,349
1696089355127,-0.04272461,0.87371826,-0.2078247,16.359375,44.09375,4.484375,350
1696089355167,0.12548828,-0.04937744,-0.014221191,71.96875,42.8125,-25.109375,351
1696089355207,0.22973633,-1.0442505,-1.4697876,-4.4375,-70.875,-4.90625,352
1696089355247,1.3056641,-2.0,1.2150269,97.125,42.59375,63.828125,353
1696089355287,-0.03100586,-2.0,0.049743652,-21.015625,15.203125,53.203125,354
1696089355327,-0.8483887,-1.8762817,-0.3098755,-41.3125,33.96875,-14.34375,355
1696089355367,0.24438477,-1.366272,-0.3394165,-11.96875,19.265625,-12.59375,356
1696089355407,0.1940918,-0.78741455,0.08709717,59.796875,90.453125,-1.015625,357
1696089355447,0.0871582,-0.2144165,0.19085693,-16.75,60.640625,52.640625,358
1696089355487,0.53393555,0.49945068,-0.23687744,-55.65625,-66.25,57.84375,359
1696089355527,0.5048828,0.8180542,-0.36480713,-79.921875,-67.140625,11.125,360
1696089355567,0.026123047,0.04046631,-0.63726807,30.65625,-52.171875,-17.546875,361
1696089355607,-0.64038086,-1.28302,-1.4082642,83.421875,-12.96875,4.34375,362
1696089355647,1.2226562,-2.0,0.6246948,-57.234375,9.84375,-5.921875,363
1696089355687,0.59375,-1.2664185,-0.71295166,47.453125,-16.90625,-5.015625,364
1696089355727,-0.107177734,-1.486145,0.38568115,33.953125,-12.578125,-29.921875,365
1696089355767,-0.2397461,-1.0230103,0.26116943,0.203125,-57.921875,-65.046875,366
1696089355807,-0.3864746,-0.12408447,0.05218506,-24.234375,-19.125,-18.65625,367
1696089355847,-0.2614746,0.52459717,-0.24493408,-58.5,37.75,15.6875,368
1696089355887,0.14135742,0.7728882,-0.16119385,15.34375,40.203125,-27.515625,369
1696089355927,0.2841797,-0.1765747,-0.32110596,70.453125,26.515625,-17.84375,370
1696089355967,0.5102539,-0.6362915,-1.1260376,33.75,-86.203125,-3.203125,371
1696089356007,0.31176758,-2.0,1.8595581,51.390625,161.28125,95.1875,372
1696089356047,-0.39257812,-1.6206665,0.309021,-46.703125,30.015625,51.015625,373
1696089356087,-0.27148438,-1.6907349,-0.26812744,-29.21875,82.59375,-8.03125,374
1696089356127,0.19165039,-1.1152954,-0.13238525,12.578125,51.328125,-28.828125,375
1696089356167,-0.21606445,-0.8640747,0.0028686523,26.359375,95.484375,28.59375,376
1696089356207,0.45483398,-0.14776611,-0.14654541,-40.59375,29.828125,58.6875,377
1696089356247,0.7507324,0.76605225,0.022155762,-75.828125,-103.796875,40.796875,378
1696089356287,0.38500977,0.6268921,-0.26837158,-50.28125,-70.328125,-3.921875,379
1696089356327,-0.15161133,-0.16802979,-0.6638794,50.875,-49.078125,1.65625,380
1696089356367,-0.34521484,-0.59625244,-0.44415283,81.546875,-26.515625,-21.03125,381
1696089356407,1.999939,-2.0,1.999939,103.859375,-2.4375,77.5625,382
1696089356447,0.3996582,-0.7288208,-0.45562744,5.140625,-27.78125,14.828125,383
1696089356487,-0.19677734,-1.6604614,0.10394287,-16.140625,-8.203125,-47.296875,384
1696089356527,-0.51220703,-1.4824829,0.5844116,72.453125,-32.390625,-94.5625,385
1696089356567,0.21435547,-0.11773682,0.37322998,25.53125,-17.703125,-15.734375,386
1696089356607,-0.23706055,0.18963623,-0.22906494,-47.484375,6.734375,25.796875,387
1696089356647,0.08984375,0.6671753,-0.33380127,-6.0,28.90625,-7.328125,388
1696089356687,0.033691406,-0.045715332,0.14105225,38.109375,24.90625,-21.578125,389
1696089356727,-0.25097656,-0.48980713,0.054626465,5.6875,22.359375,-11.84375,390
1696089356767,0.0715332,-0.69244385,-1.6868286,39.875,-49.265625,43.34375,391
1696089356807,1.999939,-2.0,-1.7949829,-55.375,-42.640625,26.484375,392
1696089356847,0.18261719,-2.0,-0.026916504,-142.25,28.15625,10.625,393
1696089356887,-1.7653809,-1.7800903,0.85150146,-3.75,161.0625,11.734375,394
1696089356927,0.2163086,-0.81329346,-1.0657349,-31.015625,-12.859375,-78.921875,395
1696089356967,0.54541016,-0.37628174,0.68573,120.828125,159.51562,37.203125,396
1696089357007,1.0600586,-0.33966064,-0.15777588,-50.828125,-38.390625,101.53125,397
1696089357047,0.1652832,0.35662842,-0.4229126,-108.25,-83.640625,46.171875,398
1696089357087,-0.39404297,0.97576904,-0.39801025,-41.734375,-59.296875,-33.234375,399
1696089357127,0.14819336,-0.105529785,-0.45343018,77.234375,-49.703125,-26.625,400
1696089357167,-0.48046875,-2.0,-2.0,-134.59375,149.79688,-94.59375,401
1696089357207,0.17016602,-0.94244385,-0.40093994,-66.34375,15.609375,41.96875,402
1696089357247,0.8742676,-2.0,-0.21612549,28.6875,-32.84375,-32.984375,403
1696089357287,-0.18139648,-1.3728638,0.5597534,74.53125,-12.546875,-57.984375,404
1696089357327,-0.20507812,-0.9998169,0.2230835,-20.59375,-51.03125,-29.46875,405
1696089357367,-0.36547852,0.25360107,-0.1975708,-37.28125,-19.671875,17.765625,406
1696089357407,-0.31469727,1.0033569,-0.36993408,-41.890625,33.84375,17.890625,407
1696089357447,0.18286133,0.10296631,0.09881592,54.546875,35.71875,-35.3125,408
1696089357487,0.1381836,-0.34698486,-0.67437744,28.359375,5.28125,-18.359375,409
1696089357527,0.39941406,-0.51690674,-0.9729614,59.75,-42.1875,22.765625,410
1696089357567,1.999939,-2.0,0.3571167,-13.84375,35.734375,85.8125,411
1696089357607,-0.654541,-1.9624634,0.06488037,-72.921875,-13.234375,45.28125,412
1696089357647,-0.41259766,-1.7788696,-0.32232666,-24.265625,66.375,-32.09375,413
1696089357687,0.3413086,-1.1524048,-0.07281494,-11.6875,65.15625,-9.1875,414
1696089357727,0.092041016,-0.83673096,0.1071167,33.9375,80.453125,34.265625,415
1696089357767,0.45092773,-0.055480957,-0.13458252,-20.375,9.234375,61.59375,416
1696089357807,0.6188965,0.6437378,-0.32037354,-97.234375,-108.9375,38.09375,417
1696089357847,0.24145508,0.70111084,-0.13531494,-36.21875,-48.46875,-34.5,418
1696089357887,0.0056152344,-0.18658447,-0.65093994,69.703125,-69.296875,-17.875,419
1696089357927,-0.67626953,-2.0,-0.80792236,-38.203125,86.234375,-11.96875,420
1696089357967,-0.60131836,-1.0791626,0.5494995,-30.171875,27.234375,65.25,421
1696089358007,0.91845703,-2.0,-0.16485596,-0.265625,-36.578125,-33.625,422
1696089358047,0.03491211,-1.2651978,0.30975342,84.40625,-31.546875,-79.125,423
1696089358087,-0.27026367,-0.8882446,0.27093506,-6.8125,-62.609375,-17.546875,424
1696089358127,-0.3100586,0.30804443,-0.14337158,-39.765625,-1.109375,15.734375,425
1696089358167,-0.5251465,0.69281006,-0.34918213,-66.890625,34.828125,18.21875,426
1696089358207,0.06640625,0.18841553,0.04168701,51.203125,29.484375,-34.90625,427
1696089358247,0.15014648,-0.2805786,-0.13092041,37.296875,28.609375,-25.25,428
1696089358287,0.22973633,-0.5718384,-0.7835083,34.015625,-35.9375,-2.671875,429
1696089358327,1.0761719,-2.0,-0.89727783,39.21875,-2.046875,54.984375,430
1696089358367,-0.122558594,-2.0,0.6178589,-19.8125,2.09375,72.15625,431
1696089358407,-0.7644043,-1.5984497,-0.06744385,-78.796875,29.546875,-24.296875,432
1696089358447,0.045898438,-1.416565,-0.18536377,-16.21875,79.90625,-17.8125,433
1696089358487,-0.13769531,-0.78326416,-0.11236572,53.8125,91.859375,14.96875,434
1696089358527,0.3581543,-0.090148926,-0.0134887695,-6.90625,70.546875,39.59375,435
1696089358567,0.7114258,0.62371826,-0.19537354,-55.8125,-70.609375,43.640625,436
1696089358607,0.56689453,0.6503296,-0.09185791,-39.671875,-13.015625,-6.90625,437
1696089358647,-0.24853516,-0.43634033,-0.8401489,47.53125,-43.28125,-2.40625,438
1696089358687,-0.8461914,-1.6294556,-1.3464966,21.90625,41.546875,-18.765625,439
1696089358727,1.999939,-2.0,1.999939,13.046875,-102.3125,-21.0625,440
1696089358767,0.4807129,-1.0725708,-0.7529907,6.046875,-23.03125,15.703125,441
1696089358807,-0.13842773,-1.8201294,0.2164917,3.640625,-7.609375,4.234375,442
1696089358847,-0.061767578,-1.367981,0.17913818,12.609375,-87.5625,-101.421875,443
1696089358887,-0.029541016,-0.30499268,0.13201904,52.46875,-54.34375,-23.375,444
1696089358927,-0.51831055,-0.019592285,0.054382324,-32.5625,9.46875,34.734375,445
1696089358967,-0.23901367,0.6744995,-0.3406372,-41.671875,33.625,9.5625,446
1696089359007,0.25,0.3036499,-0.0791626,71.609375,48.765625,-20.109375,447
1696089359047,0.3564453,-0.46368408,-0.96588135,40.78125,-10.265625,-0.53125,448
1696089359087,0.3869629,-1.33844,-0.9741821,23.671875,1.78125,22.34375,449
1696089359127,0.57421875,-2.0,-0.16729736,-41.4375,0.90625,52.390625,450
1696089359167,-0.8664551,-2.0,0.012390137,-51.046875,53.703125,42.046875,451
1696089359207,-0.25561523,-1.4524536,-0.37799072,-7.5,49.015625,0.28125,452
1696089359247,-0.02758789,-1.0264282,-0.11651611,35.4375,63.5625,-5.171875,453
1696089359287,-0.014404297,-0.59039307,-0.035949707,-0.59375,95.90625,29.4375,454
1696089359327,0.80322266,0.3673706,0.06951904,-51.1875,-11.578125,35.375,455
1696089359367,0.84155273,0.8522339,-0.44366455,-96.796875,-90.28125,29.171875,456
1696089359407,0.022216797,0.24627686,-0.3591919,-1.5,-48.84375,-2.765625,457
1696089359447,-0.1159668,-0.3657837,-0.7258911,86.640625,-43.0625,14.84375,458
1696089359487,1.999939,-2.0,0.5187378,120.109375,-157.34375,-76.359375,459
1696089359527,0.84106445,-0.8579712,-1.0376587,-28.0625,-32.46875,0.125,460
1696089359567,0.5661621,-1.8284302,-0.24932861,16.125,5.453125,-24.765625,461
1696089359607,-0.24169922,-1.3894653,0.45526123,47.4375,-44.515625,-59.109375,462
1696089359647,-0.1928711,-0.86798096,0.36834717,-12.703125,-47.734375,-36.796875,463
1696089359687,-0.3178711,0.19525146,-0.19952393,-38.71875,-13.859375,2.015625,464
1696089359727,-0.1015625,1.0809937,-0.34918213,-83.4375,27.78125,-0.171875,465
1696089359767,0.10424805,0.19622803,-0.07159424,79.953125,31.578125,-20.890625,466
1696089359807,0.22363281,-0.40020752,-0.68707275,55.3125,-13.953125,-1.40625,467
1696089359847,0.5031738,-0.8543091,-0.78375244,67.96875,-35.140625,27.984375,468
1696089359887,0.86743164,-2.0,0.79315186,35.46875,46.84375,72.171875,469
1696089359927,-0.7609863,-1.7781372,-0.39630127,-93.859375,30.40625,24.1875,470
1696089359967,-0.024414062,-1.5044556,-0.11920166,-2.078125,50.46875,-15.296875,471
1696089360007,-0.14038086,-1.4158325,-0.051574707,30.421875,81.859375,-11.5,472
1696089360047,-0.03125,-0.72247314,0.1251831,-9.421875,100.515625,35.5625,473
1696089360087,0.73413086,0.047546387,-0.19146729,-58.21875,-14.515625,48.140625,474
1696089360127,0.732666,0.93011475,-0.29718018,-96.359375,-78.9375,31.421875,475
1696089360167,0.2475586,0.45672607,-0.27838135,-18.4375,-45.90625,-19.09375,476
1696089360207,-0.14453125,-0.33380127,-0.4109497,68.609375,-34.625,7.375,477
1696089360247,-0.9741211,-2.0,-1.2883911,-114.46875,170.3125,-93.453125,478
1696089360287,0.11206055,-0.9871216,-0.10772705,-38.1875,50.453125,28.859375,479
1696089360327,0.82470703,-1.6206665,-0.23883057,7.78125,-10.75,-7.203125,480
1696089360367,0.2006836,-1.3394165,0.5848999,67.734375,-35.125,-50.71875,481
1696089360407,-0.18383789,-1.0737915,0.3319702,-3.234375,-64.953125,-20.625,482
1696089360447,-0.5280762,0.036315918,-0.17437744,-21.46875,-21.453125,15.1875,483
1696089360487,-0.4267578,0.9996948,-0.40216064,-57.828125,30.9375,-6.328125,484
1696089360527,0.1706543,0.35882568,-0.0154418945,43.0625,49.4375,-56.3125,485
1696089360567,0.18408203,-0.32891846,-0.46368408,37.390625,22.75,-17.140625,486
1696089360607,0.4182129,-0.59869385,-0.9143677,44.796875,-49.8125,25.59375,487
1696089360647,0.5214844,-2.0,0.777771,53.5625,104.25,110.625,488
1696089360687,-0.32348633,-1.6245728,0.41082764,-31.46875,-21.140625,54.9375,489
1696089360727,-0.54711914,-1.6897583,-0.0960083,-33.875,59.859375,-13.640625,490
1696089360767,0.15527344,-1.1790161,-0.25030518,28.296875,58.734375,-7.875,491
1696089360807,-0.119140625,-0.69317627,-0.109191895,72.03125,109.5625,21.3125,492
1696089360847,0.37548828,-0.22442627,-0.06011963,-60.90625,29.984375,48.984375,493
1696089360887,0.8688965,0.62054443,-0.15020752,-65.8125,-77.171875,27.28125,494
1696089360927,0.2578125,0.5548706,-0.39019775,-50.96875,-77.921875,-7.9375,495
1696089360967,-0.40698242,-0.09307861,-0.8189087,29.5,-23.765625,21.90625,496
1696089361007,0.17944336,-2.0,-1.0186157,-2.4375,147.64062,-53.21875,497
1696089361047,0.6208496,-1.4365845,0.6901245,-101.859375,0.71875,-6.8125,498
1696089361087,0.5473633,-1.5466919,-0.7617798,43.328125,-59.5,-22.65625,499
1696089361127,0.10644531,-1.5083618,0.5897827,78.546875,-19.109375,-43.671875,500
1696089361167,-0.08666992,-0.84942627,0.18084717,8.78125,-89.4375,-23.203125,501
1696089361207,-0.41577148,-0.004211426,-0.2913208,-35.421875,-36.59375,3.90625,502
1696089361247,-0.3154297,0.5282593,-0.33184814,-49.75,46.03125,9.109375,503
1696089361287,-0.010009766,0.42523193,-0.011779785,20.328125,16.671875,-29.203125,504
1696089361327,0.24316406,-0.33233643,-0.7073364,49.5625,7.890625,-9.25,505
1696089361367,0.38745117,-0.53619385,-0.7432251,54.375,-25.578125,24.984375,506
1696089361407,0.49169922,-2.0,1.0265503,34.921875,97.5625,99.484375,507
1696089361447,-0.4267578,-1.9119263,0.24456787,-24.96875,30.8125,54.5625,508
1696089361487,0.32495117,-1.7595825,-0.16119385,-4.984375,74.828125,-10.0625,509
1696089361527,0.25878906,-1.196106,-0.10455322,21.484375,38.65625,0.28125,510
1696089361567,-0.18066406,-0.7420044,-0.00982666,-5.703125,59.453125,39.8125,511
1696089361607,0.25927734,0.1774292,-0.15093994,-83.578125,-10.09375,38.8125,512
1696089361647,0.8015137,0.9628296,-0.17901611,-84.765625,-102.59375,20.796875,513
1696089361687,0.41601562,0.38250732,-0.32354736,-3.703125,-64.953125,-34.453125,514
1696089361727,-0.10913086,-0.16973877,-0.9470825,98.96875,-67.40625,-0.234375,515
1696089361767,1.999939,-2.0,-2.0,-140.625,52.484375,-112.75,516
1696089361807,0.3371582,-1.0669556,-1.2512817,-46.65625,17.390625,7.53125,517
1696089361847,0.7753906,-1.3137817,-0.026428223,-5.453125,2.8125,-61.359375,518
1696089361887,0.0690918,-1.4067993,0.57489014,120.015625,-18.375,-46.0,519
1696089361927,-0.18286133,-0.75860596,0.22796631,-48.59375,-51.9375,-10.765625,520
1696089361967,-0.27172852,0.24481201,-0.11578369,-25.421875,-7.21875,11.296875,521
1696089362007,-0.29174805,0.64349365,-0.26348877,-33.703125,30.953125,-2.9375,522
1696089362047,0.15917969,0.27850342,-0.08795166,29.84375,28.90625,-49.265625,523
1696089362087,0.33666992,-0.25665283,-0.5952759,32.265625,7.0625,-17.1875,524
1696089362127,0.51464844,-0.52227783,-1.0420532,83.28125,-57.390625,27.484375,525
1696089362167,0.9797363,-2.0,1.1622925,152.29688,84.0,55.796875,526
1696089362207,-1.0803223,-2.0,-0.42071533,-138.5625,10.046875,75.25,527
1696089362247,-0.33081055,-1.2398071,-0.37701416,-2.6875,45.671875,-32.421875,528
1696089362287,0.43188477,-1.5169067,0.07244873,50.65625,84.390625,-27.71875,529
1696089362327,0.26171875,-0.9404907,0.105651855,-35.65625,71.828125,44.046875,530
1696089362367,0.099853516,0.14813232,-0.26519775,-49.9375,-6.703125,66.0625,531
1696089362407,0.46289062,0.8986206,-0.331604,-78.828125,-75.6875,55.59375,532
1696089362447,0.3076172,0.32659912,-0.08258057,4.375,-39.59375,-13.109375,533
1696089362487,0.13305664,-0.28790283,-0.7107544,19.859375,-51.984375,-45.3125,534
1696089362527,-0.47802734,-0.973938,-0.1831665,44.078125,-8.78125,-23.0625,535
1696089362567,0.7885742,-2.0,1.4154663,-31.515625,-30.921875,56.828125,536
1696089362607,0.579834,-1.0613403,-0.7559204,-19.921875,-43.140625,-3.9375,537
1696089362647,0.04345703,-1.3777466,0.003112793,35.953125,2.46875,-67.28125,538
1696089362687,-0.12231445,-1.3067017,0.37542725,69.921875,-33.171875,-58.546875,539
1696089362727,-0.010498047,-0.05328369,0.23040771,-16.828125,-27.375,-3.984375,540
1696089362767,-0.3557129,0.26507568,-0.38653564,-59.75,30.65625,21.421875,541
1696089362807,-0.04711914,0.8043823,-0.19293213,-29.890625,26.109375,-6.9375,542
1696089362847,0.13354492,-0.017150879,-0.09210205,63.328125,36.671875,-20.8125,543
1696089362887,0.31274414,-0.55841064,-1.1282349,39.671875,-49.921875,4.5625,544
1696089362927,0.99438477,-2.0,-1.1836548,11.03125,0.078125,49.96875,545
1696089362967,-0.0793457,-1.9058228,0.7157593,-10.546875,-1.609375,35.78125,546
1696089363007,-0.8339844,-1.8999634,0.015075684,-77.109375,25.828125,21.3125,547
1696089363047,-0.072265625,-1.5767212,-0.2263794,3.421875,55.015625,-20.140625,548
1696089363087,-0.029296875,-1.0271606,-0.11236572,25.640625,70.078125,-14.328125,549
1696089363127,0.22021484,-0.47564697,0.024353027,6.25,92.765625,52.625,550
1696089363167,0.7885742,0.508728,-0.112854004,-61.890625,-56.34375,46.21875,551
1696089363207,0.5703125,0.8031616,-0.4883423,-91.4375,-68.65625,14.109375,552
1696089363247,0.020996094,0.1317749,-0.6983032,22.4375,-53.15625,-4.40625,553
1696089363287,-0.26000977,-0.5593872,-0.6902466,85.40625,-13.296875,2.125,554
1696089363327,1.0270996,-2.0,1.999939,60.734375,18.046875,31.34375,555
1696089363367,0.5444336,-1.2564087,-0.6975708,13.25,-19.71875,4.9375,556
1696089363407,0.4489746,-1.5122681,0.17474365,31.8125,-2.34375,-48.953125,557
1696089363447,0.16845703,-0.8587036,0.19085693,13.390625,-55.34375,-55.328125,558
1696089363487,-0.2409668,-0.40997314,0.22772217,-46.59375,-51.0625,-13.09375,559
1696089363527,-0.63061523,0.18499756,-0.315979,-40.0625,10.4375,47.265625,560
1696089363567,-0.15405273,0.6798706,-0.16583252,-10.03125,32.375,-8.4375,561
1696089363607,0.1430664,-0.06719971,-0.17779541,67.4375,39.640625,-39.359375,562
1696089363647,0.29077148,-0.6331177,-1.0869751,32.859375,-47.75,-27.015625,563
1696089363687,1.4243164,-2.0,-1.017395,40.84375,-11.5625,23.5625,564
1696089363727,0.11743164,-2.0,0.4689331,-26.953125,-5.703125,42.25,565
1696089363767,-0.77856445,-1.5991821,-0.1951294,-94.359375,40.1875,19.171875,566
1696089363807,0.021972656,-1.6802368,-0.097961426,23.359375,63.46875,-28.15625,567
1696089363847,0.08129883,-1.0379028,-0.08062744,24.03125,62.515625,1.015625,568
1696089363887,0.09863281,-0.6121216,-0.014465332,-32.96875,74.9375,44.203125,569
1696089363927,0.48999023,0.33294678,-0.13922119,-39.84375,-48.65625,48.28125,570
1696089363967,0.5258789,0.9071655,-0.3665161,-101.484375,-53.5625,35.59375,571
1696089364007,0.2758789,0.35101318,-0.26226807,5.84375,-44.328125,-25.328125,572
1696089364047,-0.045898438,-0.31304932,-0.51812744,82.734375,-57.859375,-4.6875,573
1696089364087,1.999939,-2.0,-0.41314697,120.8125,-122.171875,-84.609375,574
1696089364127,0.2722168,-0.767395,-0.9558716,-51.171875,-16.71875,-4.921875,575
1696089364167,0.77246094,-1.411438,-0.054016113,42.5625,-17.984375,-42.734375,576
1696089364207,-0.05810547,-1.7925415,0.48724365,98.796875,-23.96875,-40.296875,577
1696089364247,-0.21826172,-0.5432739,0.28411865,-19.625,-66.28125,-17.0625,578
1696089364287,-0.5871582,0.2819214,-0.35162354,-66.171875,-9.4375,19.890625,579
1696089364327,0.0041503906,1.1635132,-0.17120361,-7.015625,18.9375,-22.015625,580
1696089364367,0.080322266,-0.039855957,0.14056396,45.28125,30.171875,-25.359375,581
1696089364407,0.10644531,-0.5274048,-0.8699341,29.75,7.34375,-8.765625,582
1696089364447,0.51904297,-0.7732544,-0.7583618,61.953125,-51.0625,37.953125,583
1696089364487,0.9770508,-2.0,1.2313843,50.328125,115.578125,51.875,584
1696089364527,-0.7963867,-1.8738403,-0.08013916,-106.8125,0.1875,61.90625,585
1696089364567,-0.49023438,-1.4785767,-0.32086182,-17.46875,63.890625,-34.84375,586
1696089364607,0.25585938,-1.1480103,-0.23028564,20.875,77.25,-34.140625,587
1696089364647,0.20214844,-1.1026001,0.09442139,29.15625,120.546875,32.625,588
1696089364687,0.5983887,-0.20025635,-0.10675049,-47.578125,12.78125,65.234375,589
1696089364727,0.70043945,0.58929443,-0.33892822,-80.140625,-106.84375,48.3125,590
1696089364767,0.106933594,0.8932495,-0.5227661,-47.90625,-60.546875,0.03125,591
1696089364807,0.08935547,-0.19976807,-0.60528564,82.171875,-49.453125,-13.34375,592
1696089364847,1.999939,-2.0,-1.1065063,95.3125,-68.546875,-60.84375,593
1696089364887,0.7595215,-1.175354,-0.40093994,-77.9375,5.25,-22.140625,594
1696089364927,0.9694824,-1.4155884,-0.19854736,47.6875,-14.875,-33.59375,595
1696089364967,-0.14331055,-0.956604,0.4154663,50.5,-32.921875,-31.265625,596
1696089365007,-0.3269043,-0.769104,0.27459717,-40.171875,-67.328125,2.890625,597
1696089365047,-0.484375,0.22747803,-0.34405518,-21.046875,-14.140625,13.109375,598
1696089365087,-0.32202148,0.7128296,-0.07598877,-9.203125,40.6875,-42.46875,599
1696089365127,0.1965332,0.047546387,0.07757568,41.0625,48.375,-54.1875,600
1696089365167,0.32080078,-0.43170166,-0.85821533,31.921875,-5.78125,-16.03125,601
1696089365207,0.62890625,-0.90338135,-1.1990356,37.109375,-67.625,34.15625,602
1696089365247,0.5253906,-2.0,0.034851074,-26.90625,12.53125,63.390625,603
1696089365287,-0.921875,-2.0,0.17938232,-51.90625,47.53125,42.75,604
1696089365327,-0.10864258,-1.8347778,-0.41070557,-12.421875,72.4375,-32.640625,605
1696089365367,0.50439453,-1.1455688,0.055114746,21.015625,58.09375,-20.578125,606
1696089365407,-0.1665039,-0.7085571,-0.06109619,31.9375,69.015625,37.5,607
1696089365447,0.44433594,-0.010314941,-0.07891846,-53.015625,11.140625,51.3125,608
1696089365487,0.5515137,0.6820679,-0.29351807,-86.21875,-89.78125,52.3125,609
1696089365527,0.06347656,0.3961792,-0.051818848,-31.96875,-42.03125,10.59375,610
1696089365567,-0.1899414,-0.0881958,-0.4241333,37.859375,-38.828125,-5.703125,611
1696089365607,-0.0012207031,-1.1143188,-0.8701782,62.625,-8.375,-20.515625,612
1696089365647,0.7331543,-2.0,0.9328003,-34.84375,-8.9375,60.953125,613
1696089365687,0.41381836,-1.2363892,-0.26837158,20.484375,-24.765625,-0.65625,614
1696089365727,0.01953125,-1.5164185,0.2892456,36.75,-6.90625,-58.96875,615
1696089365767,0.009521484,-1.623352,0.18060303,26.59375,-37.59375,-62.25,616
1696089365807,-0.045410156,0.11590576,0.14935303,-11.671875,-34.53125,-11.828125,617
1696089365847,-0.49926758,0.13128662,-0.347229,-56.28125,25.390625,31.40625,618
1696089365887,-0.061279297,0.91937256,-0.28497314,-12.015625,24.90625,-8.921875,619
1696089365927,0.2055664,0.10272217,0.21307373,53.953125,31.59375,-47.234375,620
1696089365967,0.36669922,-0.6304321,-1.1616821,55.953125,-58.296875,-20.359375,621
1696089366007,0.71118164,-2.0,-0.8123169,3.671875,-38.46875,61.921875,622
1696089366047,0.13598633,-1.9524536,0.5350952,-43.875,-2.84375,32.59375,623
1696089366087,-1.0983887,-1.789856,-0.11114502,-108.296875,28.046875,21.078125,624
1696089366127,0.06542969,-1.5383911,-0.113586426,29.765625,65.1875,-24.515625,625
1696089366167,0.044677734,-0.9614868,0.026550293,44.625,73.703125,-16.25,626
1696089366207,0.2709961,-0.70440674,0.14178467,-11.09375,94.390625,52.484375,627
1696089366247,0.41259766,0.04144287,-0.15557861,-48.015625,-38.71875,56.625,628
1696089366287,0.47436523,0.6852417,-0.42852783,-116.359375,-79.46875,32.171875,629
1696089366327,0.34448242,0.6930542,-0.19659424,6.609375,-43.34375,-30.90625,630
1696089366367,0.16967773,-0.0569458,-0.5803833,92.859375,-49.53125,-17.34375,631
1696089366407,0.05517578,-2.0,-1.630188,-101.734375,143.84375,-97.71875,632
1696089366447,-0.12573242,-1.1104126,-0.4055786,-59.671875,39.890625,26.21875,633
1696089366487,1.0358887,-1.7957153,-0.06060791,26.53125,2.171875,-53.71875,634
1696089366527,0.22338867,-1.5081177,0.2855835,102.234375,-34.453125,-64.984375,635
1696089366567,-0.0036621094,-0.86260986,0.25750732,-50.296875,-70.109375,-31.453125,636
1696089366607,-0.26757812,0.036315918,-0.25665283,-27.65625,-24.0,19.109375,637
1696089366647,-0.5600586,0.77337646,-0.20220947,-45.25,32.53125,13.1875,638
1696089366687,0.08325195,0.22479248,-0.0044555664,29.875,32.296875,-42.765625,639
1696089366727,0.24633789,-0.20147705,-0.5549927,26.703125,12.171875,-17.984375,640
1696089366767,0.44677734,-0.49371338,-1.0227661,75.03125,-39.078125,24.421875,641
1696089366807,0.07885742,-2.0,0.30804443,39.75,91.09375,89.203125,642
1696089366847,-0.5983887,-1.9060669,0.1786499,-41.125,21.484375,69.984375,643
1696089366887,-0.6081543,-1.6489868,-0.04888916,-31.28125,64.390625,-12.90625,644
1696089366927,0.33544922,-0.91607666,-0.40045166,11.625,74.0,-0.53125,645
1696089366967,-0.08911133,-0.4290161,0.04876709,67.5625,98.53125,20.078125,646
1696089367007,0.47338867,-0.22149658,-0.1560669,-27.625,34.75,58.640625,647
1696089367047,0.6887207,0.4105835,-0.15045166,-78.046875,-60.96875,35.375,648
1696089367087,0.3935547,0.5565796,-0.3196411,-70.296875,-64.75,-16.078125,649
1696089367127,-0.13745117,-0.04425049,-0.6494751,36.25,-48.171875,-3.1875,650
1696089367167,-0.001953125,-1.317688,-1.0457153,19.84375,-12.71875,-8.21875,651
1696089367207,0.5908203,-2.0,0.48553467,-38.015625,-9.78125,26.609375,652
1696089367247,0.68725586,-1.5425415,-0.48858643,15.484375,-29.65625,-12.296875,653
1696089367287,0.16235352,-1.3203735,0.34246826,73.640625,9.203125,-27.875,654
1696089367327,-0.07128906,-1.288147,0.44622803,-8.921875,-54.90625,-28.375,655
1696089367367,-0.45483398,0.023864746,-0.030334473,-12.75,-59.828125,-24.921875,656
1696089367407,-0.27807617,0.38494873,-0.28375244,-34.75,19.453125,7.21875,657
1696089367447,0.07470703,0.713562,-0.042297363,-6.84375,32.734375,-22.453125,658
1696089367487,0.13745117,-0.13116455,-0.12823486,54.515625,19.25,-21.0625,659
1696089367527,0.24829102,-0.65582275,-1.3184204,37.015625,-43.5,16.921875,660
1696089367567,1.999939,-2.0,-1.5432739,2.03125,-32.578125,37.1875,661
1696089367607,0.018310547,-2.0,0.17425537,-50.359375,18.515625,39.640625,662
1696089367647,-0.5036621,-1.5957642,-0.40338135,-71.140625,37.28125,15.21875,663
1696089367687,0.22290039,-1.5532837,-0.16265869,5.953125,76.5,-8.0,664
1696089367727,0.25732422,-0.928772,-0.00982666,32.484375,55.96875,20.671875,665
1696089367767,0.011230469,-0.37750244,0.0602417,-12.90625,70.453125,48.03125,666
1696089367807,0.453125,0.31341553,-0.22686768,-64.328125,-51.46875,33.875,667
1696089367847,0.5131836,0.572937,-0.34136963,-87.109375,-73.71875,0.046875,668
1696089367887,0.064208984,0.3546753,-0.25250244,1.5625,-42.71875,-24.203125,669
1696089367927,-0.037841797,-0.22491455,-0.7966919,74.734375,-32.765625,-0.234375,670
1696089367967,1.999939,-2.0,-0.39068604,-36.5625,12.8125,-98.140625,671
1696089368007,0.2705078,-0.84552,-0.65045166,-12.421875,-13.859375,17.125,672
1696089368047,0.61621094,-1.6497192,-0.10430908,16.671875,-40.71875,-31.15625,673
1696089368087,0.1640625,-1.6506958,0.08001709,69.890625,-26.0,-64.40625,674
1696089368127,-0.033203125,-1.0933228,0.050476074,-26.359375,-36.15625,-35.5625,675
1696089368167,-0.15185547,0.18548584,0.07904053,-20.109375,-10.953125,-8.046875,676
1696089368207,-0.45581055,0.5170288,-0.48590088,-69.6875,28.25,11.890625,677
1696089368247,0.11694336,0.45306396,-0.059387207,47.0625,17.5625,-35.78125,678
1696089368287,0.22094727,-0.32354736,-0.50787354,61.578125,-3.109375,-20.375,679
1696089368327,0.37939453,-0.7280884,-0.8574829,51.640625,-68.765625,26.4375,680
1696089368367,1.999939,-2.0,0.49749756,-27.390625,51.828125,42.015625,681
1696089368407,-0.5756836,-1.529602,-0.13311768,-63.203125,13.78125,60.953125,682
1696089368447,-0.11621094,-1.5779419,-0.42144775,-69.15625,63.234375,1.5,683
1696089368487,-0.031982422,-1.5317993,0.01751709,38.84375,89.359375,-11.96875,684
1696089368527,0.11645508,-0.9216919,-0.035949707,11.734375,98.484375,52.125,685
1696089368567,0.40063477,-0.028381348,-0.2131958,-65.875,21.546875,42.359375,686
1696089368607,0.6188965,0.70233154,-0.1651001,-77.4375,-66.015625,7.546875,687
1696089368647,0.37963867,0.5343628,-0.26885986,-26.015625,-41.578125,0.171875,688
1696089368687,0.11450195,-0.045959473,-0.54351807,24.703125,-57.71875,-17.171875,689
1696089368727,0.11352539,-0.5618286,-0.6885376,89.921875,-30.859375,-9.9375,690
1696089368767,0.94628906,-2.0,1.999939,74.328125,-25.40625,51.4375,691
1696089368807,0.72631836,-1.3147583,-1.0715942,-22.484375,-47.390625,-6.8125,692
1696089368847,0.13134766,-1.6218872,0.121032715,46.828125,13.765625,-54.734375,693
1696089368887,-0.17993164,-1.2249146,0.3427124,27.046875,-46.265625,-53.6875,694
1696089368927,-0.1027832,-0.15020752,0.013122559,-28.34375,-38.171875,-21.109375,695
1696089368967,-0.328125,0.2892456,-0.21881104,-29.09375,14.75,10.015625,696
1696089369007,-0.25976562,1.0038452,-0.24273682,1.609375,30.03125,-17.96875,697
1696089369047,0.24414062,0.02532959,0.022644043,52.546875,53.0,-34.203125,698
1696089369087,0.29833984,-0.6716919,-1.031311,28.328125,-41.25,-17.828125,699
1696089369127,0.70410156,-2.0,-1.0593872,11.75,-40.390625,52.96875,700
1696089369167,0.6201172,-1.8225708,-0.0960083,-39.046875,1.265625,33.0,701
1696089369207,-0.72265625,-2.0,0.01776123,-60.484375,40.875,25.96875,702
1696089369247,-0.14501953,-1.6548462,-0.27789307,-26.015625,62.296875,-8.796875,703
1696089369287,0.2084961,-0.7739868,-0.14874268,41.90625,70.96875,-10.40625,704
1696089369327,0.1459961,-0.48199463,0.113464355,31.921875,99.828125,26.03125,705
1696089369367,0.55371094,0.0006713867,-0.09674072,-45.703125,-22.0625,44.34375,706
1696089369407,0.5637207,0.56781006,-0.42340088,-84.390625,-75.109375,35.234375,707
1696089369447,-0.0017089844,0.65423584,-0.08380127,-33.03125,-52.859375,-4.203125,708
1696089369487,-0.1171875,-0.13946533,-0.550354,77.328125,-47.625,-3.890625,709
1696089369527,-0.21826172,-2.0,-2.0,-81.265625,40.109375,-42.484375,710
1696089369567,0.93237305,-1.5859985,-0.12213135,-88.03125,4.484375,26.421875,711
1696089369607,0.579834,-1.8035278,-0.12823486,60.6875,-11.046875,1.171875,712
1696089369647,-0.11230469,-1.3213501,0.22625732,37.953125,-26.859375,-47.359375,713
1696089369687,-0.38720703,-1.046936,0.16473389,-35.25,-50.328125,-51.046875,714
1696089369727,-0.0014648438,0.050476074,0.06072998,-14.046875,-7.625,-18.421875,715
1696089369767,-0.18164062,0.2892456,-0.30010986,-47.078125,33.09375,8.171875,716
1696089369807,-0.11645508,0.684021,-0.10821533,21.484375,35.984375,-15.796875,717
1696089369847,0.23925781,-0.09844971,-0.3435669,42.578125,4.78125,-32.4375,718
1696089369887,0.41992188,-0.4553833,-0.925354,71.328125,-78.3125,1.078125,719
1696089369927,1.9274902,-2.0,0.34588623,-17.453125,16.515625,74.875,720
1696089369967,-0.34936523,-2.0,0.1876831,-33.9375,1.453125,55.640625,721
1696089370007,-0.74438477,-1.5178833,-0.2805786,-79.21875,43.0625,-13.3125,722
1696089370047,0.15893555,-1.2827759,-0.16558838,30.96875,83.3125,-0.71875,723
1696089370087,0.103515625,-0.92681885,0.050964355,24.234375,76.03125,30.109375,724
1696089370127,0.21264648,-0.35723877,-0.027160645,-15.609375,57.75,70.53125,725
1696089370167,0.56884766,0.3949585,-0.28326416,-81.21875,-88.140625,43.75,726
1696089370207,0.4128418,0.6535034,-0.28375244,-78.046875,-20.125,-17.546875,727
1696089370247,0.16088867,0.0289917,-0.46954346,24.1875,-58.421875,-32.515625,728
1696089370287,0.08520508,-0.8074341,-0.42559814,86.953125,-7.203125,-16.96875,729
1696089370327,0.60253906,-2.0,1.999939,130.40625,-56.21875,87.546875,730
1696089370367,0.53759766,-1.3814087,-0.81817627,-34.5,-27.546875,-23.75,731
1696089370407,0.23071289,-1.3023071,0.13446045,34.53125,-2.359375,-90.03125,732
1696089370447,-0.29760742,-1.3779907,0.51190186,24.140625,-44.84375,-44.65625,733
1696089370487,-0.114990234,-0.023986816,0.04852295,-17.890625,-30.921875,1.6875,734
1696089370527,-0.39892578,0.40057373,-0.4295044,-61.546875,49.921875,16.125,735
1696089370567,0.06713867,0.5739136,-0.14337158,29.125,13.28125,-34.21875,736
1696089370607,-0.0024414062,-0.17828369,0.16033936,45.859375,46.515625,-31.78125,737
1696089370647,0.17138672,-0.7070923,-0.9024048,8.8125,-19.53125,-11.359375,738
1696089370687,0.55810547,-2.0,-0.5977173,15.109375,-13.03125,46.71875,739
1696089370727,0.15673828,-1.8887329,0.3895874,-13.375,15.703125,65.859375,740
1696089370767,-1.2770996,-2.0,-0.2805786,-49.3125,25.421875,22.265625,741
1696089370807,-0.18701172,-1.545227,-0.13555908,13.53125,105.6875,-2.125,742
1696089370847,0.23950195,-0.9990845,-0.17974854,20.21875,63.890625,-3.046875,743
1696089370887,0.2241211,-0.600647,0.1906128,13.6875,100.3125,50.59375,744
1696089370927,0.5292969,0.2994995,-0.2703247,-46.859375,-38.0625,64.125,745
1696089370967,0.49438477,0.61712646,-0.506897,-79.328125,-44.796875,24.875,746
1696089371007,-0.022949219,0.33343506,-0.3328247,-9.59375,-47.96875,-18.25,747
1696089371047,0.06591797,-0.28668213,-0.60821533,54.5625,-43.171875,-13.359375,748
1696089371087,1.999939,-2.0,1.999939,270.125,-173.21875,-49.359375,749
1696089371127,0.56933594,-1.0081177,-0.37408447,-22.0,-28.578125,-3.8125,750
1696089371167,0.63134766,-1.661438,-0.23712158,97.03125,-16.1875,-29.859375,751
1696089371207,0.12866211,-1.425354,0.4401245,60.296875,-13.640625,-38.546875,752
1696089371247,-0.15063477,-0.91534424,-0.0335083,-50.265625,-92.859375,-36.546875,753
1696089371287,-0.3293457,0.39593506,-0.16802979,-67.40625,-35.984375,-8.65625,754
1696089371327,-0.28564453,0.70355225,-0.25811768,-17.171875,49.359375,-9.3125,755
1696089371367,-0.2524414,0.22454834,-0.010070801,61.65625,61.90625,-29.390625,756
1696089371407,0.13598633,-0.5281372,-0.70977783,40.265625,34.703125,-0.4375,757
1696089371447,0.42236328,-0.91534424,-0.76226807,-22.390625,-14.921875,22.671875,758
1696089371487,0.96313477,-2.0,-0.22149658,8.875,36.75,41.953125,759
1696089371527,-0.42919922,-2.0,0.12835693,-36.015625,28.84375,61.453125,760
1696089371567,-0.6459961,-1.9126587,-0.008850098,-20.40625,62.90625,-1.921875,761
1696089371607,0.2553711,-1.2974243,-0.237854,-2.921875,44.40625,5.921875,762
1696089371647,0.15673828,-0.5125122,-0.20050049,65.90625,59.125,15.578125,763
1696089371687,0.23535156,-0.08380127,-0.093811035,-12.84375,48.828125,53.890625,764
1696089371727,0.57055664,0.4533081,-0.12701416,-71.046875,-51.640625,34.5,765
1696089371767,0.17895508,0.5062866,-0.25689697,-62.046875,-69.515625,16.828125,766
1696089371807,-0.04736328,0.06854248,-0.64312744,25.6875,-32.59375,-7.015625,767
1696089371847,0.107421875,-0.7559204,-0.9536743,69.71875,-44.8125,-9.046875,768
1696089371887,1.3200684,-2.0,1.3449097,0.03125,-16.078125,-6.125,769
1696089371927,0.7102051,-1.4793091,-0.8579712,26.9375,-11.6875,12.734375,770
1696089371967,0.19702148,-1.7363892,0.2802124,59.390625,10.15625,-25.65625,771
1696089372007,-0.37182617,-1.3565063,0.2675171,5.25,-62.296875,-56.234375,772
1696089372047,-0.16992188,-0.18145752,0.027282715,-13.984375,-26.328125,-39.0,773
1696089372087,-0.1081543,0.41448975,-0.08502197,-26.296875,15.5,-0.828125,774
1696089372127,-0.17504883,0.6227417,-0.15679932,6.703125,32.84375,-1.609375,775
1696089372167,-0.030761719,-0.061340332,0.053649902,38.875,30.921875,-14.53125,776
1696089372207,0.21289062,-0.5679321,-1.1235962,15.625,-31.171875,-7.390625,777
1696089372247,0.44799805,-1.1375122,-0.9348755,33.71875,-28.53125,35.765625,778
1696089372287,0.9042969,-2.0,0.1486206,-9.171875,3.9375,30.375,779
1696089372327,-1.0400391,-2.0,-0.42266846,-66.34375,60.703125,42.65625,780
1696089372367,0.15600586,-1.5908813,-0.2210083,-15.5625,92.765625,-3.890625,781
1696089372407,0.107910156,-0.9829712,-0.2539673,16.03125,53.859375,-12.28125,782
1696089372447,0.21899414,-0.5003052,0.07147217,-0.671875,91.828125,38.84375,783
1696089372487,0.5175781,0.34368896,-0.12359619,-60.375,-15.65625,42.65625,784
1696089372527,0.4309082,0.8217163,-0.34088135,-94.234375,-64.96875,24.140625,785
1696089372567,0.05834961,0.355896,-0.26348877,13.046875,-47.421875,-21.171875,786
1696089372607,0.15991211,-0.17047119,-0.7329712,89.21875,-39.453125,-12.734375,787
1696089372647,0.6130371,-2.0,-1.194397,-132.70312,70.484375,-80.578125,788
1696089372687,0.032226562,-0.8196411,-0.39605713,-30.5625,0.046875,43.5625,789
1696089372727,0.65600586,-1.9424438,-0.31402588,33.65625,-44.25,-24.09375,790
1696089372767,0.020751953,-1.4238892,0.2033081,98.375,-13.125,-62.734375,791
1696089372807,-0.0546875,-0.9924927,0.18109131,-24.234375,-75.015625,-53.109375,792
1696089372847,-0.21264648,0.20233154,-0.0569458,-39.40625,-22.390625,-4.84375,793
1696089372887,-0.37548828,0.74554443,-0.42437744,-65.90625,46.34375,20.078125,794
1696089372927,0.048095703,0.28240967,-0.069885254,54.609375,18.96875,-25.609375,795
1696089372967,0.080322266,-0.26397705,-0.23321533,38.796875,30.109375,-14.9375,796
1696089373007,0.23461914,-0.5964966,-0.99713135,49.015625,-34.328125,10.09375,797
1696089373047,1.5976562,-2.0,-1.3084106,12.4375,-6.515625,43.59375,798
1696089373087,-0.0625,-1.8130493,0.44403076,-21.109375,-3.4375,66.859375,799
1696089373127,-0.5317383,-1.8091431,-0.25616455,-58.15625,44.78125,17.328125,800
1696089373167,-0.06738281,-1.3955688,-0.2000122,-6.53125,74.90625,-35.703125,801
1696089373207,0.17944336,-0.9944458,-0.035461426,43.515625,89.25,12.515625,802
1696089373247,0.2956543,-0.23223877,0.04486084,-36.03125,65.5625,48.4375,803
1696089373287,0.40429688,0.527771,-0.32452393,-69.6875,-66.875,50.015625,804
1696089373327,0.40844727,0.88201904,-0.28277588,-58.25,-37.796875,9.28125,805
1696089373367,0.38671875,0.06121826,-0.47711182,33.875,-57.8125,-32.234375,806
1696089373407,0.25,-0.736145,-0.79937744,85.15625,-28.375,-6.265625,807
1696089373447,0.22753906,-2.0,1.1854858,-17.015625,-23.875,43.09375,808
1696089373487,0.44555664,-1.4697876,-0.86724854,8.515625,-45.515625,-16.1875,809
1696089373527,0.23754883,-1.3770142,0.15985107,42.25,32.09375,-42.546875,810
1696089373567,0.07470703,-1.4309692,0.4550171,34.8125,-39.296875,-54.625,811
1696089373607,-0.21459961,-0.16192627,0.082214355,-43.390625,-43.078125,-26.640625,812
1696089373647,-0.3383789,0.40740967,-0.45635986,-36.28125,17.78125,3.21875,813
1696089373687,-0.07885742,0.715271,-0.04937744,20.015625,33.75,-22.375,814
1696089373727,0.19970703,-0.15484619,0.06463623,41.53125,33.71875,-28.71875,815
1696089373767,0.16503906,-0.73321533,-1.1143188,4.6875,-32.265625,-5.640625,816
1696089373807,0.83691406,-1.3547974,-1.0090942,34.46875,-68.328125,45.75,817
1696089373847,0.7167969,-2.0,0.20721436,-32.515625,-1.5,23.203125,818
1696089373887,-0.84521484,-2.0,0.066101074,-35.53125,50.140625,35.71875,819
1696089373927,-0.044433594,-1.6714478,-0.25836182,-22.109375,75.65625,-15.28125,820
1696089373967,0.45361328,-0.8130493,-0.20318604,35.40625,49.15625,1.734375,821
1696089374007,0.026855469,-0.69488525,0.058288574,90.28125,107.40625,54.265625,822
1696089374047,0.35473633,0.27069092,-0.2901001,-65.328125,-31.625,59.46875,823
1696089374087,0.38549805,0.55096436,-0.28253174,-60.828125,-46.234375,18.328125,824
1696089374127,0.087402344,0.42767334,-0.10723877,-30.453125,-39.09375,-28.9375,825
1696089374167,0.18603516,-0.30352783,-0.80010986,34.375,-50.5,-17.0,826
1696089374207,1.999939,-2.0,-2.0,-65.96875,-72.21875,-53.734375,827
1696089374247,0.673584,-1.506897,0.3361206,-69.234375,-37.234375,24.421875,828
1696089374287,0.5756836,-1.7756958,-0.49053955,33.21875,-24.125,-20.015625,829
1696089374327,0.1394043,-1.1594849,0.28094482,105.921875,-28.40625,-49.53125,830
1696089374367,-0.38598633,-1.2080688,0.16668701,-26.609375,-79.859375,-56.734375,831
1696089374407,-0.43847656,0.06951904,-0.36065674,-50.625,-31.96875,-17.40625,832
1696089374447,-0.06347656,0.65374756,-0.16949463,-49.734375,48.90625,12.75,833
1696089374487,0.0021972656,0.3847046,-0.065979004,45.125,33.71875,-8.625,834
1696089374527,0.03173828,-0.29571533,-0.2197876,45.171875,19.9375,-20.109375,835
1696089374567,0.38232422,-0.78790283,-1.2581177,22.5625,-64.40625,-0.453125,836
1696089374607,1.9560547,-2.0,-0.39385986,-4.078125,23.0625,33.1875,837
1696089374647,-0.29052734,-2.0,0.5331421,-54.140625,42.359375,67.5,838
1696089374687,-0.68359375,-1.6311646,-0.44537354,-79.109375,48.1875,12.609375,839
1696089374727,0.018554688,-1.2800903,-0.32476807,-18.984375,74.09375,-14.734375,840
