timestamp,accel_x,accel_y,accel_z,gyro_x,gyro_y,gyro_z,mag_x,mag_y,mag_z,ind
1696083678099,-0.82128906,0.13378906,0.16699219,31.4375,-4.21875,-14.09375,0.0,0.0,0.0,106
1696083678139,-0.8017578,0.15527344,0.21386719,26.0,5.375,-6.15625,0.0,0.0,0.0,107
1696083678179,-0.8388672,0.17089844,0.25195312,2.03125,18.1875,-8.5625,0.0,0.0,0.0,108
1696083678219,-0.8857422,0.01171875,0.34472656,-11.15625,21.1875,-12.875,0.0,0.0,0.0,109
1696083678259,-0.8046875,-0.09765625,0.24707031,-12.15625,22.40625,-15.8125,0.0,0.0,0.0,110
1696083678299,-0.76953125,0.009765625,0.12597656,3.40625,19.65625,-19.90625,0.0,0.0,0.0,111
1696083678339,-0.7480469,-0.0107421875,0.2265625,30.03125,23.5625,-11.53125,0.0,0.0,0.0,112
1696083678379,-0.7763672,-0.044921875,0.18066406,42.78125,26.90625,3.90625,0.0,0.0,0.0,113
1696083678419,-0.85839844,0.005859375,0.1484375,46.9375,18.3125,15.1875,0.0,0.0,0.0,114
1696083678459,-0.9453125,0.12011719,0.22753906,40.78125,17.625,1.34375,0.0,0.0,0.0,115
1696083678499,-0.9345703,0.29003906,0.32910156,33.28125,23.0625,-8.5,0.0,0.0,0.0,116
1696083678539,-0.7480469,0.50878906,0.48828125,37.46875,10.5625,13.71875,0.0,0.0,0.0,117
1696083678579,-1.4316406,0.1796875,0.029296875,26.96875,27.875,26.96875,-84.4375,-65.6875,-158.125,118
1696083678619,-1.9931641,-0.31152344,0.46875,-58.46875,65.5,-8.625,0.0,0.0,0.0,119
1696083678659,-1.0263672,0.16894531,-0.37890625,24.71875,-83.0625,-4.03125,0.0,0.0,0.0,120
1696083678699,-0.9970703,0.17480469,-0.2529297,22.59375,-5.25,8.0,0.0,0.0,0.0,121
1696083678739,-1.015625,0.052734375,-0.30566406,-51.03125,53.65625,-4.8125,0.0,0.0,0.0,122
1696083678779,-1.0400391,0.12597656,-0.07128906,-64.5,67.4375,-11.96875,0.0,0.0,0.0,123
1696083678819,-1.0869141,0.16894531,0.091796875,53.59375,30.6875,11.59375,0.0,0.0,0.0,124
1696083678859,-0.9013672,0.1875,-0.08984375,24.21875,27.09375,11.09375,0.0,0.0,0.0,125
1696083678899,-1.0585938,0.020507812,-0.103515625,14.40625,33.3125,13.59375,0.0,0.0,0.0,126
1696083678939,-1.0820312,-0.013671875,0.0078125,-33.4375,23.96875,3.0,0.0,0.0,0.0,127
1696083678979,-0.99121094,0.005859375,-0.078125,33.15625,14.40625,6.84375,0.0,0.0,0.0,128
1696083679019,-1.015625,0.064453125,-0.080078125,44.4375,4.4375,4.5,0.0,0.0,0.0,129
1696083679059,-0.9658203,0.23828125,-0.072265625,27.03125,12.8125,-1.90625,-81.125,-65.0625,-164.0,130
1696083679099,-0.97265625,0.20996094,-0.12890625,10.5,11.15625,9.75,0.0,0.0,0.0,131
1696083679139,-0.9892578,0.091796875,-0.06640625,-22.15625,24.65625,13.90625,0.0,0.0,0.0,132
1696083679179,-0.9580078,0.10449219,-0.030273438,-26.90625,29.46875,6.84375,0.0,0.0,0.0,133
1696083679219,-1.0224609,-0.00390625,0.11230469,-11.28125,31.625,10.96875,0.0,0.0,0.0,134
1696083679259,-1.0039062,0.02734375,0.028320312,-55.96875,-20.9375,-0.90625,0.0,0.0,0.0,135
1696083679299,-0.9667969,0.0009765625,-0.043945312,-47.53125,-7.6875,-8.1875,0.0,0.0,0.0,136
1696083679339,-0.9638672,0.15332031,0.16210938,-34.59375,-10.25,-7.34375,0.0,0.0,0.0,137
1696083679379,-0.81933594,0.25,0.0029296875,-13.0625,-52.375,7.125,0.0,0.0,0.0,138
1696083679419,-0.9003906,0.09472656,-0.07324219,-41.3125,-45.53125,6.53125,0.0,0.0,0.0,139
1696083679459,-0.8544922,0.13769531,0.0859375,-75.6875,-39.96875,6.03125,0.0,0.0,0.0,140
1696083679499,-0.88671875,0.0234375,0.033203125,1.15625,-54.5625,9.46875,0.0,0.0,0.0,141
1696083679539,-0.9121094,-0.015625,-0.024414062,-39.90625,-34.25,4.03125,0.0,0.0,0.0,142
1696083679579,-0.95996094,-0.12207031,0.02734375,-54.3125,-7.21875,-12.21875,-83.125,-58.75,-161.4375,143
1696083679619,-1.0507812,-0.12792969,0.14746094,-35.09375,-8.84375,-14.34375,0.0,0.0,0.0,144
1696083679659,-1.0791016,0.0546875,0.19921875,50.59375,-40.78125,-5.8125,0.0,0.0,0.0,145
1696083679699,-1.1796875,-0.09472656,0.20214844,-11.09375,-40.46875,-18.3125,0.0,0.0,0.0,146
1696083679739,-1.2871094,0.16796875,0.35058594,41.625,-69.09375,-41.21875,0.0,0.0,0.0,147
1696083679779,-1.3398438,0.34277344,0.26171875,-29.71875,-70.875,-55.375,0.0,0.0,0.0,148
1696083679819,-1.2021484,0.33398438,0.2548828,-49.1875,-77.34375,-51.9375,0.0,0.0,0.0,149
1696083679859,-1.2304688,0.119140625,0.056640625,-22.21875,-62.375,-48.84375,0.0,0.0,0.0,150
1696083679899,-0.9345703,0.23242188,0.19335938,7.5625,-35.46875,-25.28125,0.0,0.0,0.0,151
1696083679939,-0.9501953,-0.01953125,0.13671875,-5.625,-3.0,-11.84375,0.0,0.0,0.0,152
1696083679979,-0.7011719,0.17773438,0.13964844,21.125,8.59375,6.34375,0.0,0.0,0.0,153
1696083680019,-0.7236328,0.12597656,0.16992188,11.28125,33.75,13.3125,0.0,0.0,0.0,154
1696083680059,-0.7451172,0.08203125,0.119140625,6.03125,59.75,13.90625,-88.625,-62.8125,-150.9375,155
1696083680099,-0.6542969,0.11425781,0.15527344,3.96875,60.53125,25.875,0.0,0.0,0.0,156
1696083680139,-0.8017578,0.049804688,0.23632812,16.90625,68.84375,35.40625,0.0,0.0,0.0,157
1696083680179,-0.8798828,-0.044921875,0.2626953,29.59375,45.03125,27.53125,0.0,0.0,0.0,158
1696083680219,-0.79589844,-0.06347656,0.3642578,54.6875,30.875,13.84375,0.0,0.0,0.0,159
1696083680259,-0.82910156,0.12402344,0.28222656,8.125,43.75,5.5,0.0,0.0,0.0,160
1696083680299,-1.0771484,-0.0546875,0.4111328,7.875,23.96875,15.125,0.0,0.0,0.0,161
1696083680339,-0.93847656,-0.17089844,0.28222656,67.25,-6.34375,4.09375,0.0,0.0,0.0,162
1696083680379,-0.88671875,-0.078125,0.20507812,12.34375,32.09375,-19.59375,0.0,0.0,0.0,163
1696083680419,-1.0976562,0.14453125,0.12207031,-20.375,38.5625,-21.3125,0.0,0.0,0.0,164
1696083680459,-1.6748047,-0.05859375,-0.038085938,55.90625,44.84375,-12.15625,0.0,0.0,0.0,165
1696083680499,-1.5263672,0.28125,0.16699219,-70.625,0.46875,-23.8125,0.0,0.0,0.0,166
1696083680539,-1.0712891,0.53027344,-0.32714844,21.5,-52.5625,-2.8125,0.0,0.0,0.0,167
1696083680579,-0.97558594,0.029296875,-0.4111328,78.90625,-25.59375,17.9375,-84.4375,-61.75,-163.6875,168
1696083680619,-1.2363281,0.12597656,0.0078125,-17.15625,45.34375,-1.96875,0.0,0.0,0.0,169
1696083680659,-1.1113281,0.041015625,-0.022460938,-39.5625,63.34375,15.3125,0.0,0.0,0.0,170
1696083680699,-0.8027344,-0.07128906,-0.0048828125,-67.6875,62.0,17.8125,0.0,0.0,0.0,171
1696083680739,-0.9199219,0.0546875,0.040039062,-23.4375,39.375,10.8125,0.0,0.0,0.0,172
1696083680779,-1.0029297,-0.0126953125,0.18066406,-58.03125,32.15625,1.6875,0.0,0.0,0.0,173
1696083680819,-0.8701172,0.13867188,0.115234375,-60.53125,-2.6875,-4.78125,0.0,0.0,0.0,174
1696083680859,-0.8613281,-0.15039062,0.19042969,-34.3125,-24.25,11.15625,0.0,0.0,0.0,175
1696083680899,-0.7783203,-0.078125,-0.0859375,-34.1875,-38.15625,9.03125,0.0,0.0,0.0,176
1696083680939,-0.8261719,0.013671875,0.0126953125,20.03125,-47.4375,14.71875,0.0,0.0,0.0,177
1696083680979,-0.9453125,0.14257812,0.051757812,7.6875,-36.5,12.125,0.0,0.0,0.0,178
1696083681019,-0.9013672,0.17675781,0.14453125,33.75,-51.875,22.875,0.0,0.0,0.0,179
1696083681059,-0.94433594,-0.078125,0.15136719,23.0625,-47.4375,19.90625,-84.625,-53.8125,-166.25,180
1696083681099,-1.0673828,-0.3251953,0.19238281,-39.84375,-30.21875,-3.78125,0.0,0.0,0.0,181
1696083681139,-1.3779297,-0.36816406,0.38378906,-18.4375,-62.875,-31.5625,0.0,0.0,0.0,182
1696083681179,-1.4501953,0.091796875,0.30566406,33.28125,-104.75,-73.625,0.0,0.0,0.0,183
1696083681219,-1.4121094,0.61816406,0.048828125,-31.75,-78.0,-85.875,0.0,0.0,0.0,184
1696083681259,-1.2314453,0.39746094,0.23339844,-29.1875,-66.46875,-67.6875,0.0,0.0,0.0,185
1696083681299,-1.0048828,0.11425781,0.13183594,-36.9375,-26.25,-51.40625,0.0,0.0,0.0,186
1696083681339,-1.0058594,0.028320312,0.30371094,4.59375,-8.84375,-20.15625,0.0,0.0,0.0,187
1696083681379,-0.7939453,0.13476562,0.11621094,55.84375,-4.78125,-3.0,0.0,0.0,0.0,188
1696083681419,-0.58496094,0.2421875,0.15722656,71.0,16.96875,9.6875,0.0,0.0,0.0,189
1696083681459,-0.671875,0.19921875,0.17675781,14.53125,59.9375,10.3125,0.0,0.0,0.0,190
1696083681499,-0.56347656,0.17871094,0.041015625,-9.9375,81.84375,26.3125,0.0,0.0,0.0,191
1696083681539,-0.83691406,-0.026367188,0.15820312,-29.125,101.6875,36.25,0.0,0.0,0.0,192
1696083681579,-1.0800781,-0.23632812,0.4345703,-3.21875,71.09375,44.71875,-89.25,-58.4375,-159.8125,193
1696083681619,-0.91503906,-0.14550781,0.2763672,87.96875,18.5,31.0,0.0,0.0,0.0,194
1696083681659,-0.79296875,0.18261719,0.2529297,80.375,27.21875,1.9375,0.0,0.0,0.0,195
1696083681699,-0.8251953,0.18554688,0.31640625,-42.0,35.34375,-10.03125,0.0,0.0,0.0,196
1696083681739,-0.8544922,0.08886719,0.19726562,-20.5,23.125,-0.6875,0.0,0.0,0.0,197
1696083681779,-0.8251953,-0.040039062,0.1640625,19.71875,11.65625,12.125,0.0,0.0,0.0,198
1696083681819,-1.0576172,-0.23339844,0.056640625,81.25,13.46875,16.09375,0.0,0.0,0.0,199
1696083681859,-1.7998047,-0.49609375,0.14941406,39.0625,26.3125,-26.25,0.0,0.0,0.0,200
1696083681899,-1.2978516,1.0605469,0.41210938,15.3125,-59.28125,-17.875,0.0,0.0,0.0,201
1696083681939,-1.1669922,0.20800781,0.013671875,30.6875,-62.9375,28.375,0.0,0.0,0.0,202
1696083681979,-1.2890625,-0.05078125,-0.23535156,-21.65625,-21.125,8.90625,0.0,0.0,0.0,203
1696083682019,-0.9814453,0.06933594,-0.25097656,-6.15625,22.9375,-12.6875,0.0,0.0,0.0,204
1696083682059,-0.9355469,0.01171875,-0.17285156,-90.875,78.59375,-13.96875,0.0,0.0,0.0,205
1696083682099,-1.1591797,0.12792969,0.08203125,-47.3125,75.5,6.53125,-86.375,-58.0,-167.625,206
1696083682139,-0.9248047,0.21191406,0.046875,-23.9375,34.25,11.96875,0.0,0.0,0.0,207
1696083682179,-0.8876953,0.040039062,0.080078125,-20.5625,29.65625,13.1875,0.0,0.0,0.0,208
1696083682219,-1.0214844,0.05859375,0.15527344,-9.09375,6.40625,12.4375,0.0,0.0,0.0,209
1696083682259,-0.9716797,-0.09863281,0.21972656,-48.71875,-5.9375,6.59375,0.0,0.0,0.0,210
1696083682299,-0.8066406,-0.119140625,0.047851562,-55.90625,-29.0,-1.65625,0.0,0.0,0.0,211
1696083682339,-0.8232422,0.0029296875,0.08691406,-2.8125,-42.84375,-0.375,0.0,0.0,0.0,212
1696083682379,-0.9746094,0.107421875,0.0078125,-54.6875,-32.90625,-14.59375,0.0,0.0,0.0,213
1696083682419,-0.7841797,0.11035156,0.13183594,-51.34375,-35.96875,-14.84375,0.0,0.0,0.0,214
1696083682459,-0.67285156,0.0859375,-0.08203125,-43.8125,-22.40625,-2.5,0.0,0.0,0.0,215
1696083682499,-1.0878906,-0.2578125,0.18652344,-0.59375,-24.0,17.15625,0.0,0.0,0.0,216
1696083682539,-1.3974609,-0.4814453,0.42382812,-12.75,-60.4375,-7.40625,0.0,0.0,0.0,217
1696083682579,-1.5732422,-0.10644531,0.31640625,27.53125,-94.375,-70.5625,-87.625,-51.4375,-159.1875,218
1696083682619,-1.4355469,0.22265625,0.087890625,9.46875,-102.0625,-83.875,0.0,0.0,0.0,219
1696083682659,-1.1757812,0.14160156,0.0048828125,7.875,-73.5625,-67.375,0.0,0.0,0.0,220
1696083682699,-0.9160156,-0.0009765625,-0.021484375,14.21875,-8.71875,-39.25,0.0,0.0,0.0,221
1696083682739,-1.1552734,0.043945312,0.17871094,14.71875,27.8125,-22.90625,0.0,0.0,0.0,222
1696083682779,-0.7578125,0.22363281,0.18847656,60.4375,32.65625,-10.25,0.0,0.0,0.0,223
1696083682819,-0.64941406,0.23144531,0.2685547,37.78125,41.625,14.75,0.0,0.0,0.0,224
1696083682859,-0.67089844,0.21679688,0.1640625,7.5,56.15625,34.28125,0.0,0.0,0.0,225
1696083682899,-0.76171875,0.028320312,0.23632812,6.28125,59.25,39.0,0.0,0.0,0.0,226
1696083682939,-0.9628906,-0.23828125,0.25878906,18.9375,47.0,38.09375,0.0,0.0,0.0,227
1696083682979,-0.8515625,-0.123046875,0.22753906,54.375,20.3125,25.625,0.0,0.0,0.0,228
1696083683019,-0.7080078,0.06347656,0.25195312,30.34375,26.1875,12.75,0.0,0.0,0.0,229
1696083683059,-0.75,0.052734375,0.34277344,-20.625,27.09375,15.6875,0.0,0.0,0.0,230
1696083683099,-0.9863281,0.0546875,0.17871094,6.59375,11.03125,30.75,-90.0,-53.5,-160.375,231
1696083683139,-0.8574219,-0.041015625,0.203125,2.5625,20.625,8.71875,0.0,0.0,0.0,232
1696083683179,-0.9238281,-0.18359375,0.2685547,4.875,33.5625,5.96875,0.0,0.0,0.0,233
1696083683219,-1.0673828,-0.013671875,0.1796875,39.0625,20.5625,-3.71875,0.0,0.0,0.0,234
1696083683259,-1.4667969,0.33398438,-0.2763672,135.9375,-37.0,9.9375,0.0,0.0,0.0,235
1696083683299,-1.3476562,0.17480469,0.42871094,-14.53125,-55.3125,21.53125,0.0,0.0,0.0,236
1696083683339,-1.2822266,0.34765625,-0.14257812,-179.6875,-38.8125,-32.125,0.0,0.0,0.0,237
1696083683379,-0.8984375,0.13183594,-0.46679688,46.28125,-37.0,-1.96875,0.0,0.0,0.0,238
1696083683419,-1.3125,-0.099609375,0.08496094,-68.53125,54.8125,-2.6875,0.0,0.0,0.0,239
1696083683459,-1.0556641,0.14257812,0.09863281,-3.0,34.84375,21.84375,0.0,0.0,0.0,240
1696083683499,-0.92285156,-0.037109375,0.016601562,-46.75,55.46875,15.1875,0.0,0.0,0.0,241
1696083683539,-0.9765625,-0.0078125,-0.020507812,-24.09375,42.96875,15.9375,0.0,0.0,0.0,242
1696083683579,-0.9296875,-0.018554688,0.05859375,31.125,25.75,21.84375,-87.125,-51.25,-163.25,243
1696083683619,-0.90234375,0.025390625,0.24023438,-16.78125,20.8125,8.65625,0.0,0.0,0.0,244
1696083683659,-0.8828125,0.07519531,0.30664062,-73.5,9.625,1.21875,0.0,0.0,0.0,245
1696083683699,-0.7949219,-0.091796875,0.14746094,-66.90625,-16.96875,-1.84375,0.0,0.0,0.0,246
1696083683739,-0.84472656,-0.09863281,-0.022460938,-59.625,-14.65625,-13.0,0.0,0.0,0.0,247
1696083683779,-0.9003906,-0.091796875,0.16992188,-54.5,-26.375,-19.21875,0.0,0.0,0.0,248
1696083683819,-0.8222656,0.051757812,0.07519531,-33.5,-36.4375,-15.75,0.0,0.0,0.0,249
1696083683859,-0.8642578,-0.0859375,0.08984375,-46.5625,-24.65625,-10.75,0.0,0.0,0.0,250
1696083683899,-0.91503906,-0.3310547,0.19824219,-27.53125,-38.15625,-9.59375,0.0,0.0,0.0,251
1696083683939,-1.5449219,-0.45507812,0.42773438,7.875,-95.96875,-51.15625,0.0,0.0,0.0,252
1696083683979,-1.6484375,0.16894531,0.28808594,78.75,-128.3125,-77.53125,0.0,0.0,0.0,253
1696083684019,-1.3330078,0.33789062,0.28320312,94.71875,-122.3125,-62.625,0.0,0.0,0.0,254
1696083684059,-0.9746094,0.11035156,0.15917969,31.3125,-81.5625,-56.65625,0.0,0.0,0.0,255
1696083684099,-0.7597656,0.1640625,0.29882812,-0.78125,-26.125,-17.34375,-91.9375,-58.625,-144.1875,256
1696083684139,-0.9785156,0.038085938,0.20898438,5.0,5.96875,-12.15625,0.0,0.0,0.0,257
1696083684179,-0.6689453,0.16796875,0.23632812,0.6875,27.875,-6.46875,0.0,0.0,0.0,258
1696083684219,-0.64160156,0.28515625,0.18457031,-34.71875,50.90625,12.4375,0.0,0.0,0.0,259
1696083684259,-0.8232422,-0.16601562,0.16210938,-51.4375,79.9375,14.28125,0.0,0.0,0.0,260
1696083684299,-0.8564453,-0.23339844,0.25585938,-0.125,80.3125,18.71875,0.0,0.0,0.0,261
1696083684339,-0.7919922,-0.099609375,0.18066406,28.1875,53.59375,41.25,0.0,0.0,0.0,262
1696083684379,-0.8623047,-0.01953125,0.19433594,46.28125,54.5625,38.5,0.0,0.0,0.0,263
1696083684419,-0.78027344,0.091796875,0.3173828,68.84375,65.90625,34.34375,0.0,0.0,0.0,264
1696083684459,-0.95214844,0.05078125,0.36035156,64.09375,56.6875,31.0,0.0,0.0,0.0,265
1696083684499,-0.86328125,0.1328125,0.3720703,41.9375,46.25,25.5,0.0,0.0,0.0,266
1696083684539,-0.8730469,-0.026367188,0.23242188,60.0,9.34375,23.0625,0.0,0.0,0.0,267
1696083684579,-0.98535156,0.034179688,0.09863281,46.5625,33.1875,10.125,-90.3125,-53.8125,-160.125,268
1696083684619,-1.2792969,0.11425781,0.03515625,30.8125,-26.625,11.90625,0.0,0.0,0.0,269
1696083684659,-1.1083984,0.5449219,0.49121094,105.78125,-25.03125,7.4375,0.0,0.0,0.0,270
1696083684699,-1.9931641,-0.026367188,1.4736328,-51.375,24.34375,-3.125,0.0,0.0,0.0,271
1696083684739,-1.1943359,0.38867188,-0.53125,-50.65625,-61.03125,-17.46875,0.0,0.0,0.0,272
1696083684779,-0.77441406,0.08105469,-0.39941406,115.0625,-51.03125,10.375,0.0,0.0,0.0,273
1696083684819,-1.3398438,0.13769531,0.049804688,-59.9375,72.75,-22.40625,0.0,0.0,0.0,274
1696083684859,-1.0058594,-0.0859375,0.07910156,-104.1875,53.03125,-1.21875,0.0,0.0,0.0,275
1696083684899,-0.9111328,-0.0546875,0.07910156,-50.40625,42.21875,6.28125,0.0,0.0,0.0,276
1696083684939,-1.0214844,0.0390625,0.064453125,-7.09375,31.5625,14.40625,0.0,0.0,0.0,277
1696083684979,-0.9580078,0.051757812,0.16992188,5.125,5.5625,13.25,0.0,0.0,0.0,278
1696083685019,-0.80371094,0.20214844,0.028320312,2.8125,-21.90625,9.34375,0.0,0.0,0.0,279
1696083685059,-0.7441406,-0.13183594,0.055664062,-70.75,0.46875,6.65625,0.0,0.0,0.0,280
1696083685099,-0.8203125,-0.0703125,0.0,-95.34375,3.21875,-12.15625,-87.875,-52.1875,-162.625,281
1696083685139,-0.69921875,0.0087890625,0.01171875,10.0,-26.4375,6.53125,0.0,0.0,0.0,282
1696083685179,-0.9296875,-0.0126953125,0.26953125,0.25,-35.90625,3.0,0.0,0.0,0.0,283
1696083685219,-0.92089844,0.01953125,0.14550781,-55.1875,-34.0625,-15.5,0.0,0.0,0.0,284
1696083685259,-0.96875,-0.14550781,0.13867188,-9.9375,-45.21875,-5.1875,0.0,0.0,0.0,285
1696083685299,-1.4677734,-0.4765625,0.3017578,-41.5,-75.3125,-41.28125,0.0,0.0,0.0,286
1696083685339,-1.5898438,0.08203125,0.064453125,37.96875,-101.5625,-92.40625,0.0,0.0,0.0,287
1696083685379,-1.5039062,0.4658203,0.17871094,12.8125,-70.8125,-73.96875,0.0,0.0,0.0,288
1696083685419,-1.2578125,0.047851562,0.19335938,-37.0,-27.65625,-70.5625,0.0,0.0,0.0,289
1696083685459,-0.84472656,0.14160156,0.10839844,5.6875,-13.5625,-43.28125,0.0,0.0,0.0,290
1696083685499,-0.9970703,0.11621094,0.28808594,48.15625,-13.0,-8.375,0.0,0.0,0.0,291
1696083685539,-0.6748047,0.27734375,0.22363281,36.125,1.8125,0.65625,0.0,0.0,0.0,292
1696083685579,-0.5878906,0.15234375,0.19824219,0.78125,24.59375,26.78125,-92.125,-63.4375,-146.0,293
1696083685619,-0.75390625,0.05859375,0.09667969,-13.65625,43.15625,37.21875,0.0,0.0,0.0,294
1696083685659,-0.6953125,0.028320312,0.08984375,-17.28125,62.375,48.6875,0.0,0.0,0.0,295
1696083685699,-0.8466797,-0.12011719,0.12988281,1.53125,63.28125,50.90625,0.0,0.0,0.0,296
1696083685739,-0.84277344,-0.22070312,0.11425781,27.21875,65.59375,47.34375,0.0,0.0,0.0,297
1696083685779,-0.9453125,-0.08203125,0.28808594,37.90625,54.6875,36.6875,0.0,0.0,0.0,298
1696083685819,-0.8876953,-0.009765625,0.3232422,49.3125,48.625,16.03125,0.0,0.0,0.0,299
1696083685859,-0.93847656,0.111328125,0.2919922,-3.78125,42.09375,2.0,0.0,0.0,0.0,300
1696083685899,-1.0117188,0.08105469,0.32128906,22.875,9.15625,12.25,0.0,0.0,0.0,301
1696083685939,-0.92871094,-0.033203125,0.21679688,5.625,6.34375,8.28125,0.0,0.0,0.0,302
1696083685979,-1.0371094,-0.015625,0.20605469,34.5625,16.84375,-0.0625,0.0,0.0,0.0,303
1696083686019,-1.3574219,0.16699219,-0.09375,67.9375,-46.21875,14.59375,0.0,0.0,0.0,304
1696083686059,-1.5078125,0.09667969,0.68359375,-53.40625,-14.96875,-24.78125,0.0,0.0,0.0,305
1696083686099,-1.2675781,0.044921875,0.20800781,-34.84375,-31.9375,-13.3125,-85.0625,-52.9375,-158.875,306
1696083686139,-1.1220703,0.28222656,-0.359375,103.6875,-38.53125,2.1875,0.0,0.0,0.0,307
1696083686179,-1.1884766,-0.033203125,-0.16796875,10.25,18.84375,-6.0625,0.0,0.0,0.0,308
1696083686219,-0.9453125,0.3017578,-0.13964844,-30.28125,48.15625,-10.25,0.0,0.0,0.0,309
1696083686259,-1.1210938,0.08203125,0.04296875,-0.65625,63.96875,17.09375,0.0,0.0,0.0,310
1696083686299,-0.9589844,0.22949219,-0.044921875,-45.21875,44.375,12.4375,0.0,0.0,0.0,311
1696083686339,-0.9345703,0.12207031,-0.14257812,-8.59375,34.90625,20.9375,0.0,0.0,0.0,312
1696083686379,-0.9902344,0.036132812,-0.032226562,32.65625,24.65625,26.3125,0.0,0.0,0.0,313
1696083686419,-0.9169922,-0.022460938,0.08496094,32.78125,31.71875,26.90625,0.0,0.0,0.0,314
1696083686459,-1.1103516,-0.07421875,0.07324219,-9.59375,25.5,18.84375,0.0,0.0,0.0,315
1696083686499,-0.94140625,-0.0546875,0.06542969,-62.3125,-3.59375,0.125,0.0,0.0,0.0,316
1696083686539,-0.8222656,0.125,0.07519531,-8.46875,-20.6875,3.15625,0.0,0.0,0.0,317
1696083686579,-0.9433594,0.05859375,0.15625,-44.625,-19.125,2.25,-84.0,-51.4375,-163.375,318
1696083686619,-0.79589844,0.09765625,0.0625,-75.8125,-37.96875,-0.5,0.0,0.0,0.0,319
1696083686659,-0.90722656,0.34375,0.072265625,-7.5,-47.90625,8.84375,0.0,0.0,0.0,320
1696083686699,-0.81347656,-0.12402344,0.17578125,-40.53125,-47.5625,24.78125,0.0,0.0,0.0,321
1696083686739,-0.8535156,-0.111328125,-0.043945312,-5.375,-68.625,16.34375,0.0,0.0,0.0,322
1696083686779,-0.9482422,-0.29882812,0.045898438,16.90625,-75.25,8.0,0.0,0.0,0.0,323
1696083686819,-1.3857422,-0.0546875,0.056640625,47.0,-91.75,-17.40625,0.0,0.0,0.0,324
1696083686859,-1.7050781,0.026367188,0.10644531,-11.71875,-71.125,-78.0625,0.0,0.0,0.0,325
1696083686899,-1.2666016,0.51171875,0.20410156,-63.34375,-50.90625,-104.4375,0.0,0.0,0.0,326
1696083686939,-1.1894531,0.42285156,0.32226562,-61.34375,-27.03125,-74.65625,0.0,0.0,0.0,327
1696083686979,-1.0771484,0.0078125,0.33398438,-18.90625,-20.8125,-53.78125,0.0,0.0,0.0,328
1696083687019,-0.984375,0.16210938,0.15332031,40.40625,-27.78125,-26.4375,0.0,0.0,0.0,329
1696083687059,-0.8076172,0.41210938,0.33691406,72.15625,-29.0625,4.5625,0.0,0.0,0.0,330
1696083687099,-0.67871094,0.3671875,0.2734375,5.0625,-3.84375,14.40625,-87.3125,-58.9375,-141.375,331
1696083687139,-0.82421875,0.11035156,0.30273438,-18.375,18.3125,18.96875,0.0,0.0,0.0,332
1696083687179,-0.9111328,-0.21582031,0.21289062,-42.90625,41.875,11.78125,0.0,0.0,0.0,333
1696083687219,-0.78222656,-0.038085938,0.22851562,-1.34375,31.375,18.4375,0.0,0.0,0.0,334
1696083687259,-0.75,0.123046875,0.19335938,8.3125,32.84375,21.0625,0.0,0.0,0.0,335
1696083687299,-0.72558594,0.037109375,0.19628906,-21.59375,60.0625,15.9375,0.0,0.0,0.0,336
1696083687339,-0.88964844,-0.0390625,0.1640625,-26.5,80.625,15.4375,0.0,0.0,0.0,337
1696083687379,-0.8955078,-0.09277344,0.17285156,4.46875,64.875,18.84375,0.0,0.0,0.0,338
1696083687419,-0.9550781,0.05859375,0.2861328,35.09375,42.15625,16.03125,0.0,0.0,0.0,339
1696083687459,-0.9589844,-0.0126953125,0.3720703,57.0,26.125,5.25,0.0,0.0,0.0,340
1696083687499,-0.8310547,-0.047851562,0.1953125,-2.4375,24.40625,-13.0,0.0,0.0,0.0,341
1696083687539,-0.890625,0.11230469,0.20605469,-9.75,12.4375,-15.375,0.0,0.0,0.0,342
1696083687579,-0.9267578,0.0625,0.36914062,13.75,3.96875,-3.59375,-85.625,-53.0625,-152.625,343
1696083687619,-1.0078125,0.12792969,0.21582031,5.25,15.375,-4.15625,0.0,0.0,0.0,344
1696083687659,-0.9628906,0.07324219,0.22949219,4.15625,-46.8125,-30.71875,0.0,0.0,0.0,751
1696083687699,-0.77441406,0.05078125,0.14453125,11.21875,-30.84375,-24.3125,0.0,0.0,0.0,752
1696083687739,-0.8095703,0.013671875,0.19335938,23.9375,-16.96875,-7.625,0.0,0.0,0.0,753
1696083687779,-0.80859375,0.034179688,0.23828125,47.125,-11.65625,-4.21875,0.0,0.0,0.0,754
1696083687819,-0.7167969,0.14257812,0.21191406,37.65625,3.28125,2.125,0.0,0.0,0.0,755
1696083687859,-0.74902344,0.052734375,0.26953125,5.375,27.34375,4.03125,-83.125,-67.3125,-133.25,756
1696083687899,-0.85253906,-0.051757812,0.31054688,-29.0,42.09375,-7.09375,0.0,0.0,0.0,757
1696083687939,-0.83984375,-0.0859375,0.4013672,-18.90625,41.875,-7.625,0.0,0.0,0.0,758
1696083687979,-0.734375,-0.14355469,0.35058594,3.1875,18.1875,-6.46875,0.0,0.0,0.0,759
1696083688019,-0.6796875,-0.07324219,0.32128906,4.53125,15.6875,-3.125,0.0,0.0,0.0,760
1696083688059,-0.7548828,-0.4013672,0.20410156,-2.0,20.875,4.15625,0.0,0.0,0.0,761
1696083688099,-0.74121094,0.16699219,-0.051757812,-63.96875,-13.5,-9.65625,0.0,0.0,0.0,762
1696083688139,-0.9501953,0.17382812,0.6171875,76.0,30.03125,18.5625,0.0,0.0,0.0,763
1696083688179,-0.8828125,0.40429688,0.58203125,55.0625,18.84375,20.9375,0.0,0.0,0.0,764
1696083688219,-1.1337891,0.32421875,0.32421875,-10.8125,34.90625,26.0625,0.0,0.0,0.0,765
1696083688259,-1.4941406,-0.06640625,-0.38964844,4.625,9.40625,27.53125,0.0,0.0,0.0,766
1696083688299,-1.765625,-0.6425781,0.4169922,-101.75,5.71875,-46.34375,0.0,0.0,0.0,767
1696083688339,-1.3632812,-0.1484375,0.48046875,-39.625,-15.8125,-2.75,0.0,0.0,0.0,768
1696083688379,-1.1025391,0.08203125,-0.6855469,39.78125,-5.625,-23.5625,-83.25,-65.6875,-140.75,769
1696083688419,-0.93066406,0.19335938,-0.08691406,14.40625,21.40625,-12.53125,0.0,0.0,0.0,770
1696083688459,-1.1474609,0.15917969,0.01953125,-43.9375,49.375,1.28125,0.0,0.0,0.0,771
1696083688499,-1.0263672,0.029296875,-0.0126953125,2.75,32.90625,15.5625,0.0,0.0,0.0,772
1696083688539,-1.03125,0.030273438,0.068359375,27.71875,26.125,19.90625,0.0,0.0,0.0,773
1696083688579,-1.0087891,-0.0146484375,0.045898438,33.875,25.125,22.28125,0.0,0.0,0.0,774
1696083688619,-0.91796875,-0.051757812,0.020507812,19.84375,31.5625,17.875,0.0,0.0,0.0,775
1696083688659,-0.9501953,-0.044921875,0.11230469,-14.34375,36.0,12.125,0.0,0.0,0.0,776
1696083688699,-0.85546875,-0.022460938,0.2578125,-25.625,13.0625,3.34375,0.0,0.0,0.0,777
1696083688739,-0.80566406,-0.0234375,0.11816406,-69.34375,-1.78125,-10.6875,0.0,0.0,0.0,778
1696083688779,-0.83984375,0.10546875,0.19335938,-24.0,-26.25,3.40625,0.0,0.0,0.0,779
1696083688819,-0.76953125,0.01953125,-0.03125,5.96875,-26.3125,3.03125,0.0,0.0,0.0,780
1696083688859,-1.0546875,0.036132812,0.064453125,-46.625,-28.21875,10.75,-87.75,-65.9375,-144.625,781
1696083688899,-0.9121094,-0.0625,-0.10449219,-29.1875,-25.34375,8.125,0.0,0.0,0.0,782
1696083688939,-1.09375,-0.24804688,0.0068359375,-33.25,-18.6875,6.9375,0.0,0.0,0.0,783
1696083688979,-0.96191406,-0.064453125,0.051757812,18.125,-40.53125,6.59375,0.0,0.0,0.0,784
1696083689019,-1.1650391,-0.13378906,0.29492188,24.15625,-53.78125,0.125,0.0,0.0,0.0,785
1696083689059,-1.3125,-0.3173828,0.48242188,-36.5625,-99.90625,-45.0625,0.0,0.0,0.0,786
1696083689099,-1.4658203,0.07324219,0.052734375,35.46875,-120.25,-86.8125,0.0,0.0,0.0,787
1696083689139,-0.9453125,0.35742188,0.083984375,-10.4375,-84.59375,-68.0,0.0,0.0,0.0,788
1696083689179,-1.0419922,0.076171875,0.12402344,-16.0625,-31.125,-64.28125,0.0,0.0,0.0,789
1696083689219,-1.0039062,0.018554688,0.22949219,-12.03125,0.3125,-29.125,0.0,0.0,0.0,790
1696083689259,-0.8964844,0.06738281,0.23632812,51.09375,-4.875,9.03125,0.0,0.0,0.0,791
1696083689299,-0.5800781,0.28125,0.23339844,50.65625,16.78125,27.28125,0.0,0.0,0.0,792
1696083689339,-0.6796875,0.26660156,0.22363281,9.28125,40.59375,37.84375,0.0,0.0,0.0,793
1696083689379,-0.7675781,0.001953125,0.17871094,-15.8125,69.28125,37.09375,-85.0625,-70.0,-128.0,794
1696083689419,-0.8876953,-0.17285156,0.13574219,2.9375,67.625,33.75,0.0,0.0,0.0,795
1696083689459,-0.8847656,-0.1640625,0.13574219,-13.78125,69.75,38.25,0.0,0.0,0.0,796
1696083689499,-0.90527344,-0.005859375,0.17285156,49.3125,55.90625,34.28125,0.0,0.0,0.0,797
1696083689539,-0.85546875,0.0078125,0.47460938,125.5625,22.28125,34.84375,0.0,0.0,0.0,798
1696083689579,-0.7011719,0.0859375,0.3779297,26.78125,22.8125,5.96875,0.0,0.0,0.0,799
1696083689619,-0.7558594,0.14453125,0.16796875,9.71875,28.9375,-3.0625,0.0,0.0,0.0,800
1696083689659,-0.9082031,0.09863281,0.31347656,10.8125,4.09375,-1.59375,0.0,0.0,0.0,801
1696083689699,-1.0292969,-0.018554688,0.3232422,21.59375,14.46875,-1.03125,0.0,0.0,0.0,802
1696083689739,-1.6054688,0.03515625,0.19628906,-6.78125,21.84375,-20.40625,0.0,0.0,0.0,803
1696083689779,-1.3310547,-0.15234375,0.9472656,-88.5625,-2.625,-46.09375,0.0,0.0,0.0,804
1696083689819,-1.3632812,0.25976562,0.044921875,12.625,31.125,-24.40625,0.0,0.0,0.0,805
1696083689859,-1.1679688,0.3310547,-0.52734375,-46.9375,-22.28125,6.71875,-86.875,-66.125,-138.375,806
1696083689899,-1.0078125,0.18652344,-0.35351562,32.15625,-8.625,3.65625,0.0,0.0,0.0,807
1696083689939,-1.1894531,0.31054688,0.0146484375,-31.90625,36.375,-7.21875,0.0,0.0,0.0,808
1696083689979,-1.0712891,0.15429688,-0.026367188,14.65625,35.21875,19.65625,0.0,0.0,0.0,809
1696083690019,-0.9609375,-0.21289062,0.028320312,-28.625,56.28125,20.8125,0.0,0.0,0.0,810
1696083690059,-0.9560547,-0.064453125,0.059570312,-16.59375,38.875,12.125,0.0,0.0,0.0,811
1696083690099,-0.953125,-0.0107421875,0.15039062,-1.40625,26.25,16.03125,0.0,0.0,0.0,812
1696083690139,-0.8496094,0.13769531,0.2421875,25.34375,-3.0,14.34375,0.0,0.0,0.0,813
1696083690179,-0.8964844,0.01953125,0.10546875,10.25,-10.1875,18.25,0.0,0.0,0.0,814
1696083690219,-0.85546875,-0.16113281,0.13574219,-31.75,-20.34375,10.25,0.0,0.0,0.0,815
1696083690259,-0.87402344,0.08691406,-0.01171875,-4.28125,-32.28125,7.0,0.0,0.0,0.0,816
1696083690299,-0.9003906,0.028320312,0.06933594,-23.0,-20.21875,11.84375,0.0,0.0,0.0,817
1696083690339,-0.86328125,0.1015625,0.09863281,-28.9375,-22.40625,4.09375,0.0,0.0,0.0,818
1696083690379,-0.9316406,-0.10449219,0.14453125,-11.40625,-28.9375,12.03125,-88.1875,-65.9375,-140.875,819
1696083690419,-0.9277344,-0.06542969,0.21582031,-10.8125,-37.0625,8.28125,0.0,0.0,0.0,820
1696083690459,-1.265625,-0.2783203,0.33496094,-4.15625,-57.4375,-10.375,0.0,0.0,0.0,821
1696083690499,-1.2304688,-0.025390625,0.22070312,65.25,-112.4375,-33.28125,0.0,0.0,0.0,822
1696083690539,-1.3505859,0.39453125,0.057617188,43.65625,-117.1875,-52.9375,0.0,0.0,0.0,823
1696083690579,-1.2695312,0.57910156,0.16113281,-4.34375,-86.5625,-53.90625,0.0,0.0,0.0,824
1696083690619,-1.0732422,0.25195312,0.19335938,-79.46875,-48.59375,-55.25,0.0,0.0,0.0,825
1696083690659,-0.953125,0.046875,0.20214844,-76.15625,-5.5,-35.59375,0.0,0.0,0.0,826
1696083690699,-1.0732422,-0.099609375,0.18066406,-25.03125,11.21875,-19.53125,0.0,0.0,0.0,827
1696083690739,-0.86621094,0.1171875,0.20410156,32.21875,6.84375,-4.875,0.0,0.0,0.0,828
1696083690779,-0.7998047,0.17675781,0.25,34.1875,12.375,4.3125,0.0,0.0,0.0,829
1696083690819,-0.7939453,0.09375,0.2265625,-0.84375,30.75,6.9375,0.0,0.0,0.0,830
1696083690859,-0.78125,0.021484375,0.24121094,-16.71875,45.96875,9.6875,-83.6875,-72.875,-125.875,831
1696083690899,-0.796875,-0.0029296875,0.21582031,-17.40625,57.0,6.09375,0.0,0.0,0.0,832
1696083690939,-0.8359375,-0.043945312,0.20410156,-8.71875,56.625,16.21875,0.0,0.0,0.0,833
1696083690979,-0.85546875,0.016601562,0.21679688,10.0625,60.28125,23.3125,0.0,0.0,0.0,834
1696083691019,-0.8691406,0.037109375,0.20996094,18.3125,46.5625,37.96875,0.0,0.0,0.0,835
1696083691059,-0.875,0.072265625,0.27148438,64.8125,40.46875,31.90625,0.0,0.0,0.0,836
1696083691099,-0.88964844,-0.03125,0.3935547,-7.4375,52.53125,20.25,0.0,0.0,0.0,837
1696083691139,-0.8857422,-0.09277344,0.16601562,-2.1875,22.8125,6.15625,0.0,0.0,0.0,838
1696083691179,-0.93359375,-0.068359375,0.24511719,54.4375,26.84375,4.75,0.0,0.0,0.0,839
1696083691219,-0.96191406,-0.005859375,0.328125,27.03125,7.1875,-2.21875,0.0,0.0,0.0,840
1696083691259,-1.0117188,0.026367188,0.13964844,-4.15625,22.09375,-16.4375,0.0,0.0,0.0,841
1696083691299,-1.2607422,0.09863281,0.06738281,14.59375,-4.71875,-10.75,0.0,0.0,0.0,842
1696083691339,-1.6591797,0.0234375,0.7060547,-52.5,13.125,-29.375,0.0,0.0,0.0,843
1696083691379,-0.9326172,0.32714844,-0.13964844,32.65625,-35.28125,-9.46875,-85.9375,-69.4375,-140.125,844
1696083691419,-1.4160156,0.14648438,-0.107421875,48.9375,8.40625,17.4375,0.0,0.0,0.0,845
1696083691459,-1.1123047,-0.12011719,-0.17675781,-3.1875,-15.3125,8.21875,0.0,0.0,0.0,846
1696083691499,-0.96191406,0.072265625,-0.16113281,-2.8125,4.4375,-19.53125,0.0,0.0,0.0,847
1696083691539,-0.82910156,0.125,-0.24023438,-4.09375,32.71875,-6.53125,0.0,0.0,0.0,848
1696083691579,-1.1650391,0.07324219,0.24609375,-57.625,60.28125,4.3125,0.0,0.0,0.0,849
1696083691619,-0.92578125,0.0625,-0.057617188,-30.09375,29.03125,16.78125,0.0,0.0,0.0,850
1696083691659,-0.8798828,-0.029296875,0.015625,-27.15625,21.40625,12.75,0.0,0.0,0.0,851
1696083691699,-1.0732422,0.1484375,0.22949219,-1.59375,10.5,12.5625,0.0,0.0,0.0,852
1696083691739,-0.8623047,0.06347656,0.10644531,-33.1875,-16.4375,19.78125,0.0,0.0,0.0,853
1696083691779,-0.79003906,-0.12792969,0.029296875,-2.0625,-28.625,25.4375,0.0,0.0,0.0,854
1696083691819,-1.0419922,-0.0859375,0.15917969,-0.65625,-24.40625,23.5,0.0,0.0,0.0,855
1696083691859,-0.7890625,0.041992188,0.12597656,-27.21875,-37.1875,13.46875,-88.1875,-69.4375,-143.875,856
1696083691899,-0.8203125,0.05859375,0.043945312,25.09375,-44.25,17.5,0.0,0.0,0.0,857
1696083691939,-0.9267578,-0.083984375,0.20214844,-27.46875,-28.8125,9.5,0.0,0.0,0.0,858
1696083691979,-0.8730469,-0.15039062,0.21289062,-5.90625,-38.59375,7.8125,0.0,0.0,0.0,859
1696083692019,-1.1103516,-0.36523438,0.33203125,-35.28125,-46.28125,-18.0625,0.0,0.0,0.0,860
1696083692059,-1.3203125,-0.24316406,0.31152344,-0.5,-96.375,-71.84375,0.0,0.0,0.0,861
1696083692099,-1.9931641,0.29492188,0.047851562,23.6875,-107.1875,-120.0,0.0,0.0,0.0,862
1696083692139,-1.2148438,0.73339844,0.18066406,8.375,-84.25,-109.4375,0.0,0.0,0.0,863
1696083692179,-0.9941406,0.21972656,-0.064453125,-26.5,-27.71875,-48.40625,0.0,0.0,0.0,864
1696083692219,-0.9160156,-0.14550781,0.24121094,32.28125,-9.03125,-13.1875,0.0,0.0,0.0,865
1696083692259,-0.7421875,0.32421875,0.234375,49.8125,17.75,9.03125,0.0,0.0,0.0,866
1696083692299,-0.6074219,0.17773438,0.20214844,70.8125,28.9375,21.71875,0.0,0.0,0.0,867
1696083692339,-0.8671875,0.03125,0.25390625,22.09375,61.03125,29.84375,0.0,0.0,0.0,868
1696083692379,-0.81347656,0.0107421875,0.087890625,-14.84375,70.0625,28.5,-83.25,-76.0,-128.0,869
1696083692419,-0.765625,0.103515625,0.09765625,-6.34375,77.15625,27.53125,0.0,0.0,0.0,870
1696083692459,-0.9951172,0.10449219,0.31347656,39.6875,64.8125,34.78125,0.0,0.0,0.0,871
1696083692499,-0.94921875,0.12207031,0.421875,96.75,31.65625,31.375,0.0,0.0,0.0,872
1696083692539,-0.8466797,0.0703125,0.3095703,-29.90625,41.9375,5.25,0.0,0.0,0.0,873
1696083692579,-0.8388672,0.07910156,0.18066406,-61.53125,45.09375,-2.15625,0.0,0.0,0.0,874
1696083692619,-0.8925781,-0.0078125,0.19726562,-27.28125,28.4375,4.3125,0.0,0.0,0.0,875
1696083692659,-0.9482422,-0.14550781,0.2265625,-5.5625,18.65625,3.15625,0.0,0.0,0.0,876
1696083692699,-0.9736328,-0.0078125,0.24707031,-21.125,27.59375,-10.1875,0.0,0.0,0.0,877
1696083692739,-0.85546875,0.076171875,-0.059570312,3.46875,-4.03125,3.21875,0.0,0.0,0.0,878
1696083692779,-1.3261719,-0.27734375,-0.091796875,51.875,18.90625,2.25,0.0,0.0,0.0,879
1696083692819,-1.7324219,0.6113281,0.49121094,-8.125,-53.90625,-13.625,0.0,0.0,0.0,880
1696083692859,-1.0097656,0.00390625,-0.32128906,-28.0625,-32.46875,3.46875,-85.0625,-70.0,-139.375,881
1696083692899,-1.7451172,-0.29882812,-0.0029296875,-106.1875,40.28125,-14.34375,0.0,0.0,0.0,882
1696083692939,-1.0898438,0.2529297,-0.21484375,-77.8125,-6.46875,-21.84375,0.0,0.0,0.0,883
1696083692979,-0.95703125,0.111328125,-0.053710938,24.90625,7.25,-0.1875,0.0,0.0,0.0,884
1696083693019,-1.1074219,0.1796875,0.020507812,-67.25,40.59375,-3.5,0.0,0.0,0.0,885
1696083693059,-0.86816406,0.18945312,-0.020507812,-38.4375,40.03125,9.625,0.0,0.0,0.0,886
1696083693099,-0.96484375,-0.09472656,0.044921875,-13.125,36.3125,23.125,0.0,0.0,0.0,887
1696083693139,-1.1025391,-0.17285156,0.0546875,-41.0625,26.71875,16.34375,0.0,0.0,0.0,888
1696083693179,-0.9248047,-0.053710938,0.05859375,-16.78125,5.4375,5.3125,0.0,0.0,0.0,889
1696083693219,-0.8417969,-0.028320312,0.11816406,22.21875,-21.25,12.8125,0.0,0.0,0.0,890
1696083693259,-0.9824219,-0.03125,0.083984375,25.03125,-15.375,18.5625,0.0,0.0,0.0,891
1696083693299,-1.0195312,-0.05859375,0.080078125,-45.40625,-19.0,10.96875,0.0,0.0,0.0,892
1696083693339,-0.82128906,-0.0078125,-0.021484375,13.75,-35.09375,10.625,0.0,0.0,0.0,893
1696083693379,-0.91308594,-0.0146484375,0.07714844,24.21875,-23.03125,10.6875,-85.375,-71.1875,-144.625,894
1696083693419,-0.9375,-0.109375,0.09863281,-0.25,-11.40625,5.3125,0.0,0.0,0.0,895
1696083693459,-0.9472656,-0.040039062,0.10449219,11.125,-17.09375,2.5,0.0,0.0,0.0,896
1696083693499,-0.9736328,-0.06542969,0.18457031,40.90625,-27.59375,9.75,0.0,0.0,0.0,897
1696083693539,-1.1386719,-0.12988281,0.2607422,22.875,-42.84375,-0.5625,0.0,0.0,0.0,898
1696083693579,-1.1855469,-0.12011719,0.33496094,54.125,-90.8125,-17.28125,0.0,0.0,0.0,899
1696083693619,-1.5068359,0.041015625,0.16894531,63.59375,-138.0,-42.84375,0.0,0.0,0.0,900
1696083693659,-1.4228516,0.40625,0.033203125,108.53125,-130.5,-61.09375,0.0,0.0,0.0,901
1696083693699,-1.0195312,0.5253906,0.15039062,-90.75,-55.0625,-80.28125,0.0,0.0,0.0,902
1696083693739,-0.9316406,-0.13574219,0.22363281,-66.59375,-11.0625,-49.375,0.0,0.0,0.0,903
1696083693779,-1.0517578,-0.029296875,0.21289062,-6.84375,5.96875,-34.84375,0.0,0.0,0.0,904
1696083693819,-0.8232422,0.16796875,0.13183594,58.78125,14.71875,-17.34375,0.0,0.0,0.0,905
1696083693859,-0.74121094,0.23046875,0.22363281,51.03125,28.0,-7.40625,0.0,0.0,0.0,906
1696083693899,-0.7705078,0.14257812,0.17480469,12.4375,47.90625,13.0,-82.8125,-79.4375,-127.875,907
1696083693939,-0.72265625,0.1328125,0.19726562,11.21875,58.21875,23.625,0.0,0.0,0.0,908
1696083693979,-0.74609375,0.16699219,0.15722656,-2.5,63.90625,28.625,0.0,0.0,0.0,909
1696083694019,-0.7939453,0.07421875,0.17675781,-22.21875,71.03125,31.625,0.0,0.0,0.0,910
1696083694059,-0.90234375,0.018554688,0.26464844,-1.34375,64.03125,36.96875,0.0,0.0,0.0,911
1696083694099,-0.9580078,0.0029296875,0.328125,65.4375,30.9375,41.1875,0.0,0.0,0.0,912
1696083694139,-0.7480469,-0.0107421875,0.21191406,-56.6875,39.78125,-2.3125,0.0,0.0,0.0,913
1696083694179,-0.87402344,-0.05078125,0.080078125,-43.46875,60.59375,-4.28125,0.0,0.0,0.0,914
1696083694219,-0.8203125,-0.15136719,0.25097656,-20.5,29.21875,10.25,0.0,0.0,0.0,915
1696083694259,-0.8515625,-0.076171875,0.061523438,47.78125,23.90625,15.375,0.0,0.0,0.0,916
1696083694299,-1.40625,0.06347656,0.3095703,53.78125,27.875,7.9375,0.0,0.0,0.0,917
1696083694339,-1.7851562,0.2783203,-0.140625,8.84375,-34.6875,-8.6875,0.0,0.0,0.0,918
1696083694379,-1.1845703,0.1796875,-0.5419922,-31.0625,-48.21875,1.59375,-83.875,-71.6875,-143.625,919
1696083694419,-1.4150391,-0.06640625,-0.18652344,-28.25,-6.0,8.0,0.0,0.0,0.0,920
1696083694459,-1.2939453,-0.13378906,0.0009765625,-83.90625,20.5625,-20.75,0.0,0.0,0.0,921
1696083694499,-0.88671875,0.29296875,-0.27734375,33.9375,13.25,-16.96875,0.0,0.0,0.0,922
1696083694539,-0.9941406,0.13574219,-0.21875,-29.96875,31.78125,1.09375,0.0,0.0,0.0,923
1696083694579,-0.9453125,0.22460938,0.057617188,-48.28125,63.40625,-0.75,0.0,0.0,0.0,924
1696083694619,-0.90234375,0.11230469,-0.07421875,-29.125,27.8125,16.28125,0.0,0.0,0.0,925
1696083694659,-0.9589844,-0.12109375,-0.0068359375,-5.5,17.03125,20.0,0.0,0.0,0.0,926
1696083694699,-1.0595703,-0.041015625,0.14550781,-24.84375,9.46875,10.3125,0.0,0.0,0.0,927
1696083694739,-0.8359375,0.0625,0.1171875,-33.875,-26.25,8.78125,0.0,0.0,0.0,928
1696083694779,-1.0351562,-0.049804688,0.099609375,-42.65625,-15.75,3.84375,0.0,0.0,0.0,929
1696083694819,-0.92089844,-0.024414062,-0.09375,-52.78125,-27.09375,8.53125,0.0,0.0,0.0,930
1696083694859,-0.7285156,-0.022460938,-0.09375,17.09375,-36.03125,18.84375,0.0,0.0,0.0,931
1696083694899,-1.171875,-0.23242188,0.21582031,-51.4375,-8.4375,6.78125,-85.0625,-71.8125,-149.875,932
1696083694939,-0.84765625,0.06542969,0.10253906,24.0,-53.84375,7.375,0.0,0.0,0.0,933
1696083694979,-0.8671875,0.038085938,0.17382812,108.78125,-65.0,27.65625,0.0,0.0,0.0,934
1696083695019,-0.99316406,-0.09472656,0.17285156,-10.5625,-42.0625,-0.0625,0.0,0.0,0.0,935
1696083695059,-1.1542969,-0.10839844,0.32226562,-15.125,-53.40625,-13.5,0.0,0.0,0.0,936
1696083695099,-1.2753906,0.09082031,0.20605469,24.65625,-93.8125,-57.3125,0.0,0.0,0.0,937
1696083695139,-1.5039062,0.37304688,0.12695312,7.15625,-88.875,-83.0,0.0,0.0,0.0,938
1696083695179,-1.21875,0.328125,0.17675781,-19.15625,-72.75,-68.4375,0.0,0.0,0.0,939
1696083695219,-1.3125,-0.01953125,0.18945312,-14.53125,-44.25,-48.90625,0.0,0.0,0.0,940
1696083695259,-1.1767578,0.07421875,0.28710938,-48.46875,-0.25,-42.0625,0.0,0.0,0.0,941
1696083695299,-0.9873047,-0.01171875,0.28222656,21.78125,-4.40625,-24.125,0.0,0.0,0.0,942
1696083695339,-0.796875,0.125,0.28027344,61.71875,-2.875,-7.5625,0.0,0.0,0.0,943
1696083695379,-0.71484375,0.15625,0.203125,28.75,18.625,0.46875,-85.0625,-81.4375,-134.125,944
1696083695419,-0.73535156,0.047851562,0.13183594,24.59375,24.46875,13.71875,0.0,0.0,0.0,945
1696083695459,-0.7109375,0.08300781,0.11230469,5.9375,47.71875,14.875,0.0,0.0,0.0,946
1696083695499,-0.70410156,0.12988281,0.0859375,-18.5,69.03125,22.21875,0.0,0.0,0.0,947
1696083695539,-0.73828125,0.032226562,0.068359375,-10.9375,78.0625,38.5625,0.0,0.0,0.0,948
1696083695579,-0.9472656,-0.08496094,0.19824219,-17.75,84.03125,54.5,0.0,0.0,0.0,949
1696083695619,-0.9638672,-0.18066406,0.37597656,77.34375,36.0625,52.84375,0.0,0.0,0.0,950
1696083695659,-0.8798828,0.005859375,0.31347656,51.75,27.34375,9.34375,0.0,0.0,0.0,951
1696083695699,-0.7705078,0.07128906,0.25097656,-48.65625,39.96875,-5.6875,0.0,0.0,0.0,952
1696083695739,-0.8154297,0.0390625,0.27734375,-4.625,8.0625,2.0625,0.0,0.0,0.0,953
1696083695779,-1.1376953,0.13574219,0.3388672,14.28125,-10.4375,16.15625,0.0,0.0,0.0,954
1696083695819,-1.2666016,-0.053710938,0.27441406,-6.71875,13.125,3.46875,0.0,0.0,0.0,955
1696083695859,-1.6005859,-0.48242188,-0.17382812,-90.5,-13.5625,-24.78125,0.0,0.0,0.0,956
1696083695899,-1.1533203,0.609375,-0.39453125,-175.71875,-27.09375,-63.65625,-83.5625,-72.6875,-150.5,957
1696083695939,-1.0019531,0.4326172,-0.14453125,99.625,-43.78125,6.09375,0.0,0.0,0.0,958
1696083695979,-1.4267578,0.23925781,-0.09082031,34.375,-27.84375,18.625,0.0,0.0,0.0,959
1696083696019,-1.0273438,-0.0107421875,-0.28320312,-45.28125,12.5,-6.53125,0.0,0.0,0.0,960
1696083696059,-1.0039062,0.064453125,-0.2626953,1.84375,31.625,15.75,0.0,0.0,0.0,961
1696083696099,-1.1484375,-0.041015625,-0.057617188,-28.6875,57.5625,18.3125,0.0,0.0,0.0,962
1696083696139,-0.93652344,0.12695312,0.060546875,-44.5625,42.46875,12.5,0.0,0.0,0.0,963
1696083696179,-0.9482422,0.038085938,0.022460938,4.9375,19.65625,17.875,0.0,0.0,0.0,964
1696083696219,-0.92871094,0.0390625,0.018554688,9.03125,1.15625,14.34375,0.0,0.0,0.0,965
1696083696259,-1.0068359,-0.032226562,0.12011719,-4.6875,-1.46875,8.0,0.0,0.0,0.0,966
1696083696299,-0.9433594,0.01953125,0.12890625,-4.03125,-35.40625,4.8125,0.0,0.0,0.0,967
1696083696339,-0.7763672,-0.03125,0.055664062,35.65625,-50.46875,9.625,0.0,0.0,0.0,968
1696083696379,-0.8066406,-0.021484375,-0.24316406,14.78125,-38.15625,15.375,-84.0,-75.4375,-158.875,969
1696083696419,-0.8105469,0.048828125,-0.0146484375,-19.28125,-9.90625,9.46875,0.0,0.0,0.0,970
1696083696459,-0.9736328,0.11328125,0.01953125,-34.4375,-1.90625,10.90625,0.0,0.0,0.0,971
1696083696499,-1.1513672,-0.234375,0.20898438,-57.8125,17.09375,6.78125,0.0,0.0,0.0,972
1696083696539,-0.9169922,-0.018554688,0.2626953,-84.65625,-13.125,-6.59375,0.0,0.0,0.0,973
1696083696579,-0.94140625,-0.005859375,0.23535156,81.84375,-55.1875,3.71875,0.0,0.0,0.0,974
1696083696619,-1.1816406,-0.30371094,0.64453125,-85.15625,-68.1875,-35.28125,0.0,0.0,0.0,975
1696083696659,-1.3662109,0.1015625,0.15625,18.375,-147.34375,-85.34375,0.0,0.0,0.0,976
1696083696699,-1.8007812,0.04296875,-0.0234375,18.875,-105.46875,-108.65625,0.0,0.0,0.0,977
1696083696739,-1.2167969,0.25390625,-0.09863281,1.53125,-75.875,-95.53125,0.0,0.0,0.0,978
1696083696779,-0.9003906,0.08300781,0.10546875,15.5,-32.90625,-49.5,0.0,0.0,0.0,979
1696083696819,-0.98535156,-0.16015625,0.1875,21.71875,2.6875,-16.78125,0.0,0.0,0.0,980
1696083696859,-0.8310547,0.107421875,0.14160156,42.96875,18.84375,2.375,0.0,0.0,0.0,981
1696083696899,-0.6425781,0.18554688,0.21484375,79.78125,27.09375,9.6875,-77.6875,-91.1875,-137.125,982
1696083696939,-0.703125,0.26953125,0.19335938,39.5,43.875,25.8125,0.0,0.0,0.0,983
1696083696979,-0.87402344,0.06738281,0.23535156,-20.875,69.5,33.5,0.0,0.0,0.0,984
1696083697019,-0.87402344,0.0234375,0.16015625,5.96875,66.46875,35.21875,0.0,0.0,0.0,985
1696083697059,-0.9189453,0.08886719,0.18164062,60.4375,41.875,42.21875,0.0,0.0,0.0,986
1696083697099,-0.88671875,-0.0146484375,0.27539062,17.8125,45.96875,29.96875,0.0,0.0,0.0,987
1696083697139,-0.99609375,-0.068359375,0.22167969,-33.5,70.0625,14.40625,0.0,0.0,0.0,988
1696083697179,-0.9511719,-0.07910156,0.17578125,-2.625,45.34375,5.59375,0.0,0.0,0.0,989
1696083697219,-0.89941406,-0.1796875,0.14941406,-15.9375,52.1875,-3.65625,0.0,0.0,0.0,990
1696083697259,-0.890625,-0.09863281,0.10546875,-57.5625,42.09375,-17.34375,0.0,0.0,0.0,991
1696083697299,-0.94140625,0.053710938,0.22949219,22.40625,18.78125,1.9375,0.0,0.0,0.0,992
1696083697339,-0.8564453,-0.045898438,0.06933594,37.0,6.21875,2.5625,0.0,0.0,0.0,993
1696083697379,-1.0527344,0.0126953125,0.11035156,14.84375,24.15625,3.09375,-82.8125,-76.3125,-143.3125,994
1696083697419,-1.0878906,0.02734375,0.29492188,16.65625,19.78125,4.625,0.0,0.0,0.0,995
1696083697459,-1.2509766,0.087890625,0.1328125,9.40625,17.375,16.59375,0.0,0.0,0.0,996
1696083697499,-1.4892578,-0.04296875,-0.28320312,23.4375,3.65625,19.28125,0.0,0.0,0.0,997
1696083697539,-1.1855469,0.5957031,0.5029297,9.21875,37.59375,-16.96875,0.0,0.0,0.0,998
1696083697579,-0.8652344,0.11621094,-0.4638672,-28.3125,-23.6875,-0.0625,0.0,0.0,0.0,999
1696083697619,-1.2607422,0.078125,-0.3232422,34.84375,0.125,15.5625,0.0,0.0,0.0,1000
1696083697659,-1.0332031,0.072265625,-0.21386719,80.03125,-15.8125,5.84375,0.0,0.0,0.0,1001
1696083697699,-1.0097656,0.2548828,-0.25878906,-32.90625,10.625,-0.1875,0.0,0.0,0.0,1002
1696083697739,-0.9658203,0.115234375,-0.08203125,-68.125,20.9375,-3.59375,0.0,0.0,0.0,1003
1696083697779,-0.9824219,0.11816406,-0.0068359375,-5.0625,34.1875,2.3125,0.0,0.0,0.0,1004
1696083697819,-1.0126953,0.016601562,-0.11035156,43.34375,54.4375,20.75,0.0,0.0,0.0,1441
1696083697859,-1.3017578,-0.061523438,0.4638672,-5.125,40.71875,-0.625,0.0,0.0,0.0,1442
1696083697899,-0.8466797,0.20605469,-0.2685547,18.8125,11.09375,6.28125,0.0,0.0,0.0,1443
1696083697939,-0.9707031,0.3046875,0.03125,14.03125,17.6875,0.125,0.0,0.0,0.0,1444
1696083697979,-1.0078125,0.24121094,-0.111328125,-4.5625,15.0,13.71875,-82.0625,-56.9375,-163.875,1445
1696083698019,-1.0351562,0.049804688,-0.060546875,16.25,10.625,31.625,0.0,0.0,0.0,1446
1696083698059,-1.1679688,-0.10546875,-0.10253906,61.28125,13.84375,25.1875,0.0,0.0,0.0,1447
1696083698099,-1.0224609,0.1484375,-0.107421875,28.125,21.65625,4.28125,0.0,0.0,0.0,1448
1696083698139,-0.9189453,0.13378906,-0.0107421875,46.9375,22.03125,12.8125,0.0,0.0,0.0,1449
1696083698179,-1.0058594,0.01171875,0.0048828125,41.375,18.65625,16.46875,0.0,0.0,0.0,1450
1696083698219,-1.0214844,-0.01171875,-0.057617188,15.6875,23.0,8.1875,0.0,0.0,0.0,1451
1696083698259,-0.99609375,0.109375,0.23242188,-38.03125,31.84375,-9.65625,0.0,0.0,0.0,1452
1696083698299,-0.8496094,0.10253906,0.48828125,-97.90625,-9.21875,-18.25,0.0,0.0,0.0,1453
1696083698339,-0.7363281,-0.09472656,0.01953125,-116.5,-16.53125,-29.84375,0.0,0.0,0.0,1454
1696083698379,-0.67578125,0.0234375,-0.13476562,-91.78125,-26.9375,-44.625,0.0,0.0,0.0,1455
1696083698419,-0.71972656,0.22265625,-0.13085938,-10.8125,-37.46875,-20.34375,0.0,0.0,0.0,1456
1696083698459,-1.0019531,0.022460938,0.17285156,-98.09375,-5.0,-10.3125,-80.875,-57.875,-164.0,1457
1696083698499,-1.0087891,-0.16894531,-0.028320312,-62.0625,-19.53125,-6.21875,0.0,0.0,0.0,1458
1696083698539,-0.96777344,-0.109375,-0.12402344,35.9375,-41.625,0.84375,0.0,0.0,0.0,1459
1696083698579,-1.1601562,-0.23632812,0.17480469,43.03125,-51.40625,-4.03125,0.0,0.0,0.0,1460
1696083698619,-1.3085938,-0.3623047,0.28125,5.0625,-80.5,-39.1875,0.0,0.0,0.0,1461
1696083698659,-1.6640625,0.03515625,0.09667969,-0.375,-86.5625,-91.625,0.0,0.0,0.0,1462
1696083698699,-1.3710938,0.3408203,0.14160156,69.59375,-88.5625,-81.65625,0.0,0.0,0.0,1463
1696083698739,-0.8144531,0.3388672,0.055664062,3.0625,-54.4375,-62.375,0.0,0.0,0.0,1464
1696083698779,-1.3720703,-0.15234375,0.02734375,-22.03125,-3.125,-29.5,0.0,0.0,0.0,1465
1696083698819,-1.0214844,-0.025390625,0.2109375,4.6875,-13.0,-17.40625,0.0,0.0,0.0,1466
1696083698859,-0.6845703,0.28125,0.27148438,57.4375,-10.5,0.65625,0.0,0.0,0.0,1467
1696083698899,-0.55371094,0.32128906,0.16308594,-12.4375,22.6875,28.1875,0.0,0.0,0.0,1468
1696083698939,-0.6074219,0.095703125,0.05859375,-17.34375,52.78125,51.3125,0.0,0.0,0.0,1469
1696083698979,-0.76171875,-0.10058594,0.10546875,-5.3125,57.3125,61.6875,-86.875,-61.75,-151.375,1470
1696083699019,-0.6689453,-0.17089844,0.05078125,55.84375,52.4375,74.875,0.0,0.0,0.0,1471
1696083699059,-0.9765625,-0.3984375,0.19433594,30.53125,49.6875,63.03125,0.0,0.0,0.0,1472
1696083699099,-0.96972656,-0.24511719,0.28125,128.46875,34.96875,39.53125,0.0,0.0,0.0,1473
1696083699139,-0.8935547,0.0009765625,0.27539062,37.96875,53.03125,-0.1875,0.0,0.0,0.0,1474
1696083699179,-0.90234375,0.21777344,0.5332031,-40.34375,51.9375,-21.25,0.0,0.0,0.0,1475
1696083699219,-1.0996094,0.2685547,0.40820312,19.90625,4.75,-5.875,0.0,0.0,0.0,1476
1696083699259,-1.3095703,-0.12792969,-0.56933594,27.90625,-6.15625,-3.65625,0.0,0.0,0.0,1477
1696083699299,-1.046875,0.025390625,-0.23828125,-133.1875,-62.25,-50.71875,0.0,0.0,0.0,1478
1696083699339,-1.1904297,0.5722656,0.4970703,94.25,-14.65625,-3.59375,0.0,0.0,0.0,1479
1696083699379,-0.9560547,-0.083984375,-0.23535156,-31.1875,-42.59375,4.09375,0.0,0.0,0.0,1480
1696083699419,-1.078125,0.061523438,-0.171875,47.65625,-7.5625,1.21875,0.0,0.0,0.0,1481
1696083699459,-1.1230469,0.0546875,-0.064453125,-82.34375,50.78125,5.78125,-83.125,-59.1875,-160.375,1482
1696083699499,-1.1132812,0.08691406,0.045898438,-35.40625,49.0625,21.0625,0.0,0.0,0.0,1483
1696083699539,-0.9863281,0.0078125,0.0126953125,-37.96875,43.75,20.8125,0.0,0.0,0.0,1484
1696083699579,-0.9980469,-0.049804688,0.0078125,-11.40625,34.71875,20.6875,0.0,0.0,0.0,1485
1696083699619,-0.8798828,-0.0234375,0.099609375,22.28125,17.15625,20.6875,0.0,0.0,0.0,1486
1696083699659,-0.82714844,0.048828125,0.2705078,3.84375,1.28125,14.9375,0.0,0.0,0.0,1487
1696083699699,-0.84375,-0.0859375,0.16601562,-13.3125,-11.40625,12.5,0.0,0.0,0.0,1488
1696083699739,-0.890625,0.06933594,0.09375,-10.1875,-27.15625,7.3125,0.0,0.0,0.0,1489
1696083699779,-0.8984375,0.021484375,0.115234375,20.9375,-39.96875,17.8125,0.0,0.0,0.0,1490
1696083699819,-0.9560547,0.028320312,0.0048828125,-25.9375,-30.46875,9.6875,0.0,0.0,0.0,1491
1696083699859,-1.0087891,-0.0087890625,0.07128906,-10.0625,-31.5625,13.71875,0.0,0.0,0.0,1492
1696083699899,-0.9658203,-0.12988281,-0.051757812,17.9375,-40.34375,12.03125,0.0,0.0,0.0,1493
1696083699939,-1.3408203,-0.42871094,0.359375,-57.90625,-37.3125,-23.6875,0.0,0.0,0.0,1494
1696083699979,-1.1787109,0.072265625,0.3232422,-27.71875,-66.46875,-64.40625,-82.375,-57.6875,-161.4375,1495
1696083700019,-1.2011719,0.27539062,0.2265625,-9.9375,-84.34375,-82.59375,0.0,0.0,0.0,1496
1696083700059,-1.3603516,0.13671875,0.17578125,-45.59375,-67.5625,-73.375,0.0,0.0,0.0,1497
1696083700099,-0.86035156,0.001953125,-0.13769531,3.96875,-65.0,-47.1875,0.0,0.0,0.0,1498
1696083700139,-1.0986328,0.09765625,0.23828125,39.4375,-17.21875,-28.875,0.0,0.0,0.0,1499
1696083700179,-0.86035156,0.18945312,0.24414062,28.125,11.34375,-20.6875,0.0,0.0,0.0,1500
1696083700219,-0.7363281,0.1171875,0.171875,51.6875,28.625,9.28125,0.0,0.0,0.0,1501
1696083700259,-0.6738281,0.2109375,0.17480469,31.875,38.625,28.1875,0.0,0.0,0.0,1502
1696083700299,-0.80859375,0.0546875,0.18652344,-13.375,61.6875,29.28125,0.0,0.0,0.0,1503
1696083700339,-0.75,0.015625,0.15820312,-12.09375,70.0,18.90625,0.0,0.0,0.0,1504
1696083700379,-0.7890625,0.04296875,0.20117188,-6.71875,60.53125,24.59375,0.0,0.0,0.0,1505
1696083700419,-0.94628906,-0.016601562,0.24414062,62.625,44.5625,39.53125,0.0,0.0,0.0,1506
1696083700459,-0.9248047,0.01171875,0.5,42.96875,17.28125,16.46875,-86.6875,-59.5,-160.125,1507
1696083700499,-0.765625,0.038085938,0.22167969,-12.8125,28.625,-3.0625,0.0,0.0,0.0,1508
1696083700539,-0.92578125,-0.033203125,0.087890625,-9.65625,28.5,0.1875,0.0,0.0,0.0,1509
1696083700579,-1.0830078,-0.047851562,0.19726562,-3.0,2.1875,6.71875,0.0,0.0,0.0,1510
1696083700619,-1.0078125,-0.09472656,0.20019531,-18.90625,43.03125,-4.875,0.0,0.0,0.0,1511
1696083700659,-1.2128906,-0.051757812,0.12890625,-48.21875,53.21875,-16.0625,0.0,0.0,0.0,1512
1696083700699,-1.5830078,0.40722656,0.55566406,7.03125,9.15625,-8.5,0.0,0.0,0.0,1513
1696083700739,-0.87109375,0.18066406,-0.6298828,13.6875,-62.25,10.90625,0.0,0.0,0.0,1514
1696083700779,-1.0361328,-0.09765625,-0.13671875,42.375,-15.21875,16.96875,0.0,0.0,0.0,1515
1696083700819,-1.9433594,-0.17285156,0.43554688,-76.78125,33.6875,-3.59375,0.0,0.0,0.0,1516
1696083700859,-0.97753906,0.21679688,-0.16699219,2.0625,-14.03125,-2.15625,0.0,0.0,0.0,1517
1696083700899,-0.9082031,-0.049804688,-0.15917969,2.9375,14.09375,7.3125,0.0,0.0,0.0,1518
1696083700939,-1.0595703,0.06738281,-0.068359375,-37.90625,36.375,0.3125,0.0,0.0,0.0,1519
1696083700979,-0.9433594,0.07519531,0.045898438,-49.4375,50.21875,-0.0625,-83.25,-53.9375,-166.375,1520
1696083701019,-1.0146484,-0.0068359375,0.08203125,-27.53125,35.9375,17.5,0.0,0.0,0.0,1521
1696083701059,-0.9111328,-0.07519531,0.078125,6.96875,17.8125,17.4375,0.0,0.0,0.0,1522
1696083701099,-0.95214844,0.09277344,0.16113281,12.8125,-0.90625,11.59375,0.0,0.0,0.0,1523
1696083701139,-0.9375,-0.068359375,0.15234375,-4.5625,-11.40625,14.46875,0.0,0.0,0.0,1524
1696083701179,-0.8886719,0.0078125,0.09765625,-8.53125,-20.4375,12.25,0.0,0.0,0.0,1525
1696083701219,-0.90722656,-0.08886719,0.07128906,-14.46875,-23.25,8.0625,0.0,0.0,0.0,1526
1696083701259,-0.8779297,0.025390625,0.036132812,-3.28125,-32.59375,3.53125,0.0,0.0,0.0,1527
1696083701299,-0.9082031,0.043945312,0.06347656,0.90625,-33.21875,3.28125,0.0,0.0,0.0,1528
1696083701339,-0.9082031,-0.02734375,0.1015625,3.90625,-31.4375,8.53125,0.0,0.0,0.0,1529
1696083701379,-0.9560547,-0.0390625,0.15039062,3.125,-33.875,7.125,0.0,0.0,0.0,1530
1696083701419,-1.1142578,-0.076171875,0.19824219,29.3125,-42.96875,11.59375,0.0,0.0,0.0,1531
1696083701459,-1.1777344,-0.19238281,0.31933594,14.40625,-65.9375,-15.875,-86.375,-51.25,-165.1875,1532
1696083701499,-1.4560547,0.12890625,0.20605469,39.3125,-102.0625,-43.03125,0.0,0.0,0.0,1533
1696083701539,-1.0849609,0.265625,0.06347656,49.5625,-105.71875,-53.53125,0.0,0.0,0.0,1534
1696083701579,-1.203125,0.33691406,0.17675781,-42.25,-66.71875,-51.34375,0.0,0.0,0.0,1535
1696083701619,-1.1025391,0.047851562,0.1875,-42.78125,-37.375,-60.8125,0.0,0.0,0.0,1536
1696083701659,-0.93847656,0.10546875,0.28515625,-6.90625,-7.28125,-38.53125,0.0,0.0,0.0,1537
1696083701699,-0.9472656,0.13671875,0.29492188,38.5,-3.71875,-9.71875,0.0,0.0,0.0,1538
1696083701739,-0.7832031,0.18359375,0.20410156,43.53125,17.625,4.5625,0.0,0.0,0.0,1539
1696083701779,-0.78515625,0.14355469,0.23632812,12.9375,44.65625,4.28125,0.0,0.0,0.0,1540
1696083701819,-0.69140625,0.16015625,0.14257812,11.59375,51.5625,12.375,0.0,0.0,0.0,1541
1696083701859,-0.8017578,0.11621094,0.21679688,-19.53125,65.90625,17.28125,0.0,0.0,0.0,1542
1696083701899,-0.8066406,-0.0146484375,0.18847656,-23.125,69.875,18.65625,0.0,0.0,0.0,1543
1696083701939,-0.8222656,-0.020507812,0.15429688,-13.65625,69.875,27.71875,0.0,0.0,0.0,1544
1696083701979,-0.98828125,-0.05859375,0.2626953,46.4375,51.8125,35.40625,-91.375,-56.9375,-160.875,1545
1696083702019,-0.91503906,-0.083984375,0.4267578,19.53125,44.0625,8.125,0.0,0.0,0.0,1546
1696083702059,-0.7910156,0.0390625,0.19238281,-25.9375,29.84375,-6.125,0.0,0.0,0.0,1547
1696083702099,-0.8720703,0.08886719,0.13574219,-0.0625,32.78125,-3.90625,0.0,0.0,0.0,1548
1696083702139,-0.9277344,-0.024414062,0.1796875,8.0625,13.96875,4.6875,0.0,0.0,0.0,1549
1696083702179,-0.8935547,0.029296875,0.17675781,-17.5625,31.3125,0.53125,0.0,0.0,0.0,1550
1696083702219,-1.2939453,0.0078125,0.18066406,-18.84375,24.40625,13.3125,0.0,0.0,0.0,1551
1696083702259,-1.5498047,-0.22363281,-0.16894531,-0.5625,23.1875,-4.59375,0.0,0.0,0.0,1552
1696083702299,-1.1523438,0.08300781,-0.84375,67.375,-65.9375,-2.03125,0.0,0.0,0.0,1553
1696083702339,-1.2880859,-0.16894531,-0.29101562,33.6875,-19.71875,2.5,0.0,0.0,0.0,1554
1696083702379,-1.1533203,0.12402344,0.29492188,-55.84375,1.53125,-22.96875,0.0,0.0,0.0,1555
1696083702419,-0.8535156,0.36816406,-0.31347656,56.8125,-10.375,-10.3125,0.0,0.0,0.0,1556
1696083702459,-1.0419922,0.021484375,-0.14941406,-11.90625,26.1875,9.40625,-86.875,-57.125,-165.8125,1557
1696083702499,-1.0175781,-0.009765625,-0.046875,-19.46875,41.125,7.0625,0.0,0.0,0.0,1558
1696083702539,-1.0761719,0.0107421875,0.045898438,-55.46875,47.28125,6.15625,0.0,0.0,0.0,1559
1696083702579,-0.93066406,0.06542969,-0.060546875,-9.46875,17.5,12.4375,0.0,0.0,0.0,1560
1696083702619,-0.9169922,-0.03515625,-0.001953125,-22.75,16.03125,11.78125,0.0,0.0,0.0,1561
1696083702659,-0.9550781,0.061523438,0.16796875,-9.46875,7.375,11.21875,0.0,0.0,0.0,1562
1696083702699,-0.9394531,-0.020507812,0.15527344,-24.78125,-13.4375,15.8125,0.0,0.0,0.0,1563
1696083702739,-0.8779297,-0.09375,0.018554688,-35.34375,-18.8125,10.4375,0.0,0.0,0.0,1564
1696083702779,-0.92871094,0.0048828125,0.040039062,-42.125,-26.9375,5.375,0.0,0.0,0.0,1565
1696083702819,-0.8574219,0.057617188,0.1015625,6.46875,-44.9375,14.34375,0.0,0.0,0.0,1566
1696083702859,-0.86816406,0.037109375,0.0048828125,37.71875,-50.375,16.65625,0.0,0.0,0.0,1567
1696083702899,-0.93359375,-0.06640625,0.051757812,8.90625,-44.25,14.75,0.0,0.0,0.0,1568
1696083702939,-0.9355469,-0.020507812,0.10253906,9.78125,-36.4375,9.8125,0.0,0.0,0.0,1569
1696083702979,-1.09375,-0.1484375,0.32910156,-15.1875,-33.875,0.46875,-87.3125,-50.375,-160.5625,1570
1696083703019,-1.1650391,-0.20898438,0.38867188,-0.65625,-80.03125,-22.96875,0.0,0.0,0.0,1571
1696083703059,-1.4560547,0.064453125,0.2763672,43.34375,-127.25,-56.21875,0.0,0.0,0.0,1572
1696083703099,-1.2949219,0.49902344,-0.044921875,9.34375,-108.15625,-64.28125,0.0,0.0,0.0,1573
1696083703139,-1.2529297,0.2265625,0.06738281,-22.8125,-69.9375,-59.75,0.0,0.0,0.0,1574
1696083703179,-1.0068359,0.16601562,0.14550781,-24.21875,-14.90625,-49.09375,0.0,0.0,0.0,1575
1696083703219,-0.9746094,0.005859375,0.19335938,2.875,4.8125,-27.65625,0.0,0.0,0.0,1576
1696083703259,-0.8779297,0.16113281,0.19042969,41.9375,14.21875,-8.96875,0.0,0.0,0.0,1577
1696083703299,-0.8095703,0.234375,0.29492188,60.65625,19.84375,-3.53125,0.0,0.0,0.0,1578
1696083703339,-0.7441406,0.2109375,0.22753906,24.0625,37.96875,3.78125,0.0,0.0,0.0,1579
1696083703379,-0.73339844,-0.0029296875,0.25683594,1.53125,49.4375,13.1875,0.0,0.0,0.0,1580
1696083703419,-0.8125,0.1171875,0.22851562,-14.84375,62.3125,19.28125,0.0,0.0,0.0,1581
1696083703459,-0.8310547,0.0126953125,0.22851562,-14.53125,63.15625,17.625,-89.375,-57.875,-152.75,1582
1696083703499,-0.8310547,-0.030273438,0.18066406,-41.8125,66.8125,20.3125,0.0,0.0,0.0,1583
1696083703539,-0.87597656,-0.024414062,0.25878906,21.0625,38.09375,35.34375,0.0,0.0,0.0,1584
1696083703579,-0.99121094,-0.005859375,0.4091797,39.0625,26.65625,16.28125,0.0,0.0,0.0,1585
1696083703619,-0.82128906,-0.0087890625,0.18066406,-7.09375,28.75,1.875,0.0,0.0,0.0,1586
1696083703659,-0.95410156,0.001953125,0.11621094,3.1875,42.90625,1.8125,0.0,0.0,0.0,1587
1696083703699,-0.86328125,-0.125,0.37695312,-27.59375,26.90625,-1.46875,0.0,0.0,0.0,1588
1696083703739,-0.8515625,-0.0078125,0.087890625,43.875,-4.53125,15.4375,0.0,0.0,0.0,1589
1696083703779,-0.9482422,0.095703125,0.15429688,88.5625,4.875,13.40625,0.0,0.0,0.0,1590
1696083703819,-1.4130859,0.19628906,0.3642578,16.84375,19.59375,-6.28125,0.0,0.0,0.0,1591
1696083703859,-1.5507812,-0.19921875,0.05078125,-98.875,16.78125,-51.15625,0.0,0.0,0.0,1592
1696083703899,-1.0429688,0.16210938,-0.5595703,-98.25,-65.25,-34.6875,0.0,0.0,0.0,1593
1696083703939,-1.1630859,0.45410156,-0.2109375,45.59375,-14.03125,12.4375,0.0,0.0,0.0,1594
1696083703979,-1.3515625,-0.09863281,0.033203125,-9.40625,-9.65625,26.71875,-88.375,-55.4375,-160.5625,1595
1696083704019,-1.0683594,0.052734375,-0.16210938,33.6875,-6.65625,0.46875,0.0,0.0,0.0,1596
1696083704059,-1.0576172,0.20898438,-0.10058594,21.125,28.4375,12.09375,0.0,0.0,0.0,1597
1696083704099,-1.0576172,0.18847656,-0.0009765625,13.96875,38.875,7.1875,0.0,0.0,0.0,1598
1696083704139,-0.93359375,-0.07910156,-0.0068359375,27.40625,35.21875,17.4375,0.0,0.0,0.0,1599
1696083704179,-0.92578125,-0.115234375,-0.0146484375,-17.75,39.25,7.375,0.0,0.0,0.0,1600
1696083704219,-1.0,-0.05078125,0.0546875,-39.375,34.28125,0.125,0.0,0.0,0.0,1601
1696083704259,-0.9716797,0.12695312,0.15039062,-7.9375,13.125,1.40625,0.0,0.0,0.0,1602
1696083704299,-0.8984375,0.048828125,0.053710938,-0.375,-3.71875,14.03125,0.0,0.0,0.0,1603
1696083704339,-0.921875,-0.08691406,0.080078125,-28.375,-6.34375,6.90625,0.0,0.0,0.0,1604
1696083704379,-0.8339844,0.13378906,0.060546875,-37.15625,-21.5,-0.875,0.0,0.0,0.0,1605
1696083704419,-0.89453125,0.23632812,0.026367188,-15.3125,-31.75,17.6875,0.0,0.0,0.0,1606
1696083704459,-0.9707031,0.09863281,0.04296875,-45.28125,-27.90625,18.125,-86.25,-52.1875,-162.375,1607
1696083704499,-0.86816406,-0.12792969,-0.033203125,-64.09375,-30.875,16.34375,0.0,0.0,0.0,1608
1696083704539,-0.9658203,-0.12988281,0.15332031,-25.15625,-33.40625,20.3125,0.0,0.0,0.0,1609
1696083704579,-1.0009766,-0.13671875,0.140625,-4.15625,-41.09375,16.84375,0.0,0.0,0.0,1610
1696083704619,-1.1972656,-0.38378906,0.28320312,-25.6875,-57.125,-9.84375,0.0,0.0,0.0,1611
1696083704659,-1.3574219,0.025390625,0.23535156,66.90625,-117.0625,-47.75,0.0,0.0,0.0,1612
1696083704699,-1.4179688,0.3828125,0.10644531,42.46875,-114.15625,-73.4375,0.0,0.0,0.0,1613
1696083704739,-1.2753906,0.59765625,0.080078125,-63.84375,-80.28125,-76.65625,0.0,0.0,0.0,1614
1696083704779,-1.0966797,-0.111328125,0.13574219,-38.15625,-41.5625,-39.9375,0.0,0.0,0.0,1615
1696083704819,-1.0585938,0.1328125,0.24023438,-13.71875,-8.71875,-25.9375,0.0,0.0,0.0,1616
1696083704859,-0.74316406,0.15625,0.13574219,46.21875,-3.375,-12.28125,0.0,0.0,0.0,1617
1696083704899,-0.82714844,0.3779297,0.2626953,68.0,10.0625,5.65625,0.0,0.0,0.0,1618
1696083704939,-0.7890625,0.12011719,0.22167969,-1.65625,42.65625,12.375,0.0,0.0,0.0,1619
1696083704979,-0.7919922,-0.021484375,0.21484375,-22.40625,57.0,12.09375,-88.375,-59.6875,-146.125,1620
1696083705019,-0.8066406,0.049804688,0.21191406,-5.6875,57.6875,17.5625,0.0,0.0,0.0,1621
1696083705059,-0.7939453,0.1015625,0.15722656,-0.59375,64.75,20.0625,0.0,0.0,0.0,1622
1696083705099,-0.8701172,0.047851562,0.24707031,-6.78125,57.84375,25.25,0.0,0.0,0.0,1623
1696083705139,-0.93066406,-0.056640625,0.22558594,22.9375,45.15625,26.90625,0.0,0.0,0.0,1624
1696083705179,-1.0214844,-0.034179688,0.29785156,29.65625,41.8125,10.6875,0.0,0.0,0.0,1625
1696083705219,-0.8720703,-0.09375,0.27148438,1.40625,32.03125,-2.375,0.0,0.0,0.0,1626
1696083705259,-0.89941406,0.026367188,0.119140625,-5.5,37.65625,-9.28125,0.0,0.0,0.0,1627
1696083705299,-0.85839844,0.20507812,0.2705078,16.1875,20.625,-6.0625,0.0,0.0,0.0,1628
1696083705339,-0.8300781,0.1171875,0.16210938,41.3125,4.5,9.40625,0.0,0.0,0.0,1629
1696083705379,-0.9355469,0.10058594,0.15625,-9.28125,22.9375,6.46875,0.0,0.0,0.0,1630
1696083705419,-1.1328125,0.09375,0.19140625,-1.78125,19.53125,12.8125,0.0,0.0,0.0,1631
1696083705459,-1.4921875,-0.17089844,0.14453125,-10.3125,14.75,-0.0625,0.0,0.0,0.0,1632
1696083705499,-1.3847656,-0.27734375,0.8417969,-120.71875,0.59375,-46.875,-85.625,-54.5625,-158.0,1633
1696083705539,-1.1757812,0.2734375,-0.2626953,-39.25,-22.65625,-23.875,0.0,0.0,0.0,1634
1696083705579,-1.0820312,0.18554688,-0.40820312,11.34375,-16.53125,10.4375,0.0,0.0,0.0,1635
1696083705619,-1.0097656,0.123046875,-0.20117188,118.40625,-5.5,22.6875,0.0,0.0,0.0,1636
1696083705659,-1.2021484,0.2607422,-0.09863281,-4.6875,2.125,9.03125,0.0,0.0,0.0,1637
1696083705699,-1.0195312,0.07519531,-0.19042969,-20.6875,18.5,7.25,0.0,0.0,0.0,1638
1696083705739,-0.92578125,-0.00390625,-0.09082031,-33.1875,36.8125,6.71875,0.0,0.0,0.0,1639
1696083705779,-1.0908203,-0.052734375,0.029296875,-26.3125,38.1875,15.0625,0.0,0.0,0.0,1640
1696083705819,-0.9824219,0.0087890625,0.0048828125,-20.5,21.78125,12.9375,0.0,0.0,0.0,1641
1696083705859,-0.9716797,0.10253906,0.12109375,-12.6875,13.125,13.0,0.0,0.0,0.0,1642
1696083705899,-0.93066406,0.038085938,0.15234375,-4.5625,-1.40625,12.4375,0.0,0.0,0.0,1643
1696083705939,-0.88964844,-0.07421875,0.06933594,-16.90625,-10.1875,10.0625,0.0,0.0,0.0,1644
1696083705979,-0.8720703,-0.07421875,-0.03125,-48.28125,-8.90625,-1.21875,-82.1875,-51.875,-159.625,1645
1696083706019,-1.0048828,0.032226562,0.10839844,-47.1875,-5.8125,-1.65625,0.0,0.0,0.0,1646
1696083706059,-0.8935547,0.083984375,0.13183594,-55.96875,-18.0625,-7.4375,0.0,0.0,0.0,1647
1696083706099,-0.7685547,0.25097656,0.0029296875,24.84375,-43.9375,2.625,0.0,0.0,0.0,1648
1696083706139,-1.0380859,-0.08984375,0.072265625,-12.8125,-25.15625,8.0625,0.0,0.0,0.0,1649
1696083706179,-0.9111328,-0.09082031,0.044921875,-44.375,-12.03125,6.09375,0.0,0.0,0.0,1650
1696083706219,-0.9404297,-0.09667969,0.18261719,3.125,-40.96875,7.25,0.0,0.0,0.0,1651
1696083706259,-1.2421875,-0.16699219,0.22753906,10.5,-56.65625,-3.65625,0.0,0.0,0.0,1652
1696083706299,-1.2490234,-0.044921875,0.35058594,24.0,-88.09375,-41.15625,0.0,0.0,0.0,1653
1696083706339,-1.2919922,0.12207031,0.0546875,10.875,-105.59375,-67.75,0.0,0.0,0.0,1654
1696083706379,-1.3837891,0.17480469,0.06738281,5.8125,-86.625,-71.40625,0.0,0.0,0.0,1655
1696083706419,-1.03125,0.1640625,0.078125,16.46875,-52.25,-65.25,0.0,0.0,0.0,1656
1696083706459,-1.1230469,0.03125,0.3408203,-11.09375,-4.59375,-48.46875,0.0,0.0,0.0,1657
1696083706499,-1.0253906,0.021484375,0.16699219,22.09375,-1.03125,-32.125,-84.625,-60.25,-143.875,1658
1696083706539,-0.82421875,0.15625,0.20996094,86.625,-1.09375,-11.71875,0.0,0.0,0.0,1659
1696083706579,-0.74609375,0.20507812,0.21875,46.5625,19.90625,-6.71875,0.0,0.0,0.0,1660
1696083706619,-0.70996094,0.16699219,0.20996094,14.90625,33.5,4.75,0.0,0.0,0.0,1661
1696083706659,-0.8144531,0.047851562,0.23535156,2.75,44.0625,13.53125,0.0,0.0,0.0,1662
1696083706699,-0.73535156,0.08300781,0.1328125,-26.5625,60.0,13.25,0.0,0.0,0.0,1663
1696083706739,-0.7792969,0.08105469,0.15820312,-12.75,57.3125,24.09375,0.0,0.0,0.0,1664
1696083706779,-0.88183594,0.09277344,0.09375,-4.6875,74.59375,42.09375,0.0,0.0,0.0,1665
1696083706819,-1.0380859,-0.0234375,0.3984375,53.40625,46.5,47.53125,0.0,0.0,0.0,1666
1696083706859,-0.97753906,-0.1875,0.25,-22.40625,46.1875,19.34375,0.0,0.0,0.0,1667
1696083706899,-0.8769531,-0.053710938,0.23632812,-31.6875,38.3125,2.1875,0.0,0.0,0.0,1668
1696083706939,-0.8779297,-0.10058594,0.2265625,17.03125,27.09375,-5.0,0.0,0.0,0.0,1669
1696083706979,-0.890625,-0.041015625,0.06347656,-0.0625,10.375,1.46875,-84.4375,-52.625,-154.125,1670
1696083707019,-0.8251953,0.08300781,0.099609375,68.4375,5.125,9.15625,0.0,0.0,0.0,1671
1696083707059,-1.2578125,0.25195312,0.3828125,67.09375,44.1875,8.1875,0.0,0.0,0.0,1672
1696083707099,-1.4648438,0.14746094,-0.4453125,24.84375,2.875,13.375,0.0,0.0,0.0,1673
1696083707139,-1.1269531,-0.08886719,-0.3720703,-153.125,-39.75,-19.96875,0.0,0.0,0.0,1674
1696083707179,-1.1005859,-0.005859375,-0.32714844,-30.15625,-13.1875,-16.5,0.0,0.0,0.0,1675
1696083707219,-1.4365234,0.028320312,0.025390625,-0.125,28.75,-5.625,0.0,0.0,0.0,1676
1696083707259,-0.95703125,0.25683594,-0.24804688,-8.125,12.75,-12.03125,0.0,0.0,0.0,1677
1696083707299,-0.8251953,0.12109375,-0.24414062,15.875,23.90625,8.90625,0.0,0.0,0.0,1678
1696083707339,-1.1738281,0.11816406,0.026367188,-15.5625,57.84375,12.6875,0.0,0.0,0.0,1679
1696083707379,-0.88378906,0.15527344,-0.17675781,-13.375,26.59375,16.21875,0.0,0.0,0.0,1680
1696083707419,-0.95410156,-0.03515625,-0.08496094,5.375,24.53125,23.90625,0.0,0.0,0.0,1681
1696083707459,-1.1083984,-0.037109375,0.029296875,-12.21875,25.875,17.875,0.0,0.0,0.0,1682
1696083707499,-0.9423828,-0.07714844,0.14648438,-51.21875,7.0,3.09375,-81.4375,-49.3125,-159.9375,1683
1696083707539,-1.0429688,-0.0087890625,0.20898438,-44.6875,-9.28125,-6.34375,0.0,0.0,0.0,1684
1696083707579,-0.86035156,0.0087890625,0.040039062,-78.84375,-34.75,-6.0,0.0,0.0,0.0,1685
1696083707619,-0.70214844,0.0068359375,0.00390625,-33.8125,-39.5625,6.9375,0.0,0.0,0.0,1686
1696083707659,-0.9042969,-0.013671875,0.0009765625,3.46875,-37.40625,14.03125,0.0,0.0,0.0,1687
1696083707699,-0.9951172,-0.016601562,-0.015625,-43.03125,-29.5,6.71875,0.0,0.0,0.0,1688
1696083707739,-0.8847656,-0.11230469,0.07324219,24.40625,-39.1875,7.9375,0.0,0.0,0.0,1689
1696083707779,-1.0898438,0.11816406,0.025390625,-12.5625,-6.65625,0.53125,0.0,0.0,0.0,1690
1696083707819,-0.9628906,-0.083984375,0.16894531,0.375,-19.21875,11.46875,0.0,0.0,0.0,1691
1696083707859,-1.0039062,0.14941406,0.06933594,17.875,-19.71875,11.46875,0.0,0.0,0.0,1692
1696083707899,-1.1279297,-0.18652344,0.16503906,-20.3125,-18.5,3.34375,0.0,0.0,0.0,1693
1696083707939,-1.2158203,0.12792969,0.25976562,28.125,-54.5,-23.75,0.0,0.0,0.0,1694
1696083707979,-1.1835938,0.265625,0.22363281,32.65625,-79.78125,-26.0,-84.625,-46.0,-149.75,1695
1696083708019,-1.2626953,0.4482422,0.08984375,-14.71875,-76.59375,-33.6875,0.0,0.0,0.0,1696
1696083708059,-1.2900391,-0.14453125,0.2421875,-62.875,-53.0,-45.90625,0.0,0.0,0.0,1697
1696083708099,-1.0361328,0.203125,0.15136719,11.21875,-60.5,-36.875,0.0,0.0,0.0,1698
1696083708139,-0.8105469,0.24316406,0.19433594,34.59375,-37.40625,-23.3125,0.0,0.0,0.0,1699
1696083708179,-0.8251953,0.21679688,0.10546875,34.90625,-21.125,-6.40625,0.0,0.0,0.0,1700
1696083708219,-0.8232422,0.109375,0.1015625,37.65625,-10.5,1.53125,0.0,0.0,0.0,1701
1696083708259,-0.8339844,0.22363281,0.18945312,29.0625,2.0,4.625,0.0,0.0,0.0,1702
1696083708299,-0.75878906,0.2626953,0.16894531,20.375,19.90625,10.3125,0.0,0.0,0.0,1703
1696083708339,-0.87109375,0.14746094,0.20898438,-8.125,47.125,15.8125,0.0,0.0,0.0,1704
1696083708379,-0.9423828,0.061523438,0.19042969,-12.5,59.125,19.09375,0.0,0.0,0.0,1705
1696083708419,-0.953125,0.07324219,0.16503906,-3.65625,66.46875,26.59375,0.0,0.0,0.0,1706
1696083708459,-0.9746094,0.15820312,0.19628906,-3.78125,73.40625,34.46875,0.0,0.0,0.0,1707
