,timestamp,accel_x,accel_y,accel_z,gyro_x,gyro_y,gyro_z,ind
0,1696260627702,0.26367188,-0.8284302,-0.054260254,-8.671875,-4.015625,-6.5625,0
1,1696260627742,0.27539062,-0.8098755,-0.024719238,-9.28125,4.75,-10.40625,1
2,1696260627782,0.27685547,-0.659729,-0.0049438477,-12.46875,9.0,-11.21875,2
3,1696260627822,0.23413086,-0.6338501,0.05291748,-10.46875,5.8125,-5.578125,3
4,1696260627862,0.27270508,-0.6253052,0.082214355,-6.703125,3.015625,-1.515625,4
5,1696260627902,0.21435547,-0.7078247,0.078308105,-4.921875,3.1875,0.109375,5
6,1696260627942,0.2409668,-0.8128052,0.07122803,-3.65625,0.625,1.40625,6
7,1696260627982,0.33618164,-0.9216919,0.16448975,-4.765625,5.140625,3.640625,7
8,1696260628022,0.23486328,-1.0149536,0.1437378,-1.9375,1.90625,4.0625,8
9,1696260628062,0.22631836,-0.9558716,0.15765381,-0.828125,5.90625,6.1875,9
10,1696260628102,0.26782227,-0.9216919,0.1708374,-0.359375,7.0625,7.15625,10
11,1696260628142,0.23925781,-0.93829346,0.17962646,-0.796875,10.0625,8.703125,11
12,1696260628182,0.22875977,-0.89434814,0.070007324,2.671875,5.40625,6.671875,12
13,1696260628222,0.23291016,-0.88604736,0.12176514,2.015625,13.625,0.734375,13
14,1696260628262,0.36376953,-1.1028442,0.04095459,-0.8125,10.0,1.203125,14
15,1696260628302,0.6628418,-1.2595825,0.10101318,8.96875,1.96875,5.0625,15
16,1696260628342,0.5073242,-1.482727,0.02557373,5.109375,5.375,3.4375,16
17,1696260628382,0.34765625,-1.0872192,-0.09991455,10.875,15.625,-6.09375,17
18,1696260628422,0.42407227,-0.80718994,-0.23980713,-0.90625,19.265625,5.546875,18
19,1696260628462,0.6352539,-1.0098267,-0.109191895,3.234375,11.390625,-6.1875,19
20,1696260628502,0.31982422,-1.0759888,-0.05279541,4.03125,1.59375,-14.34375,20
21,1696260628542,0.19921875,-0.85284424,-0.11212158,-6.46875,7.484375,-11.046875,21
22,1696260628582,0.27246094,-0.7671509,0.005065918,2.03125,-1.578125,-9.53125,22
23,1696260628622,0.20727539,-0.73150635,-0.010070801,6.265625,-2.015625,-6.109375,23
24,1696260628662,0.13330078,-0.62750244,-0.08502197,-2.765625,1.859375,-7.78125,24
25,1696260628702,0.11035156,-0.6148071,-0.034484863,-2.390625,4.203125,-5.40625,25
26,1696260628742,0.1640625,-0.70440674,-0.1038208,-3.484375,-3.265625,-4.484375,26
27,1696260628782,0.234375,-0.8364868,-0.010314941,0.78125,-5.125,-4.71875,27
28,1696260628822,0.2446289,-1.0291138,-0.008361816,2.703125,-6.0,-3.734375,28
29,1696260628862,0.09716797,-1.0298462,0.07537842,1.609375,-1.40625,0.734375,29
30,1696260628902,0.03466797,-0.97491455,0.034362793,-0.703125,-0.234375,6.5625,30
31,1696260628942,0.12158203,-1.0278931,0.024841309,0.9375,4.328125,5.859375,31
32,1696260628982,0.28051758,-1.08844,0.04827881,-1.5,2.328125,4.703125,32
33,1696260629022,0.26953125,-1.1958618,0.018005371,0.609375,-4.578125,6.390625,33
34,1696260629062,0.28979492,-1.4526978,0.002380371,-6.125,0.09375,8.953125,34
35,1696260629102,0.54541016,-1.479065,-0.058166504,-5.625,-23.515625,5.953125,35
36,1696260629142,0.40698242,-1.2593384,-0.20074463,0.640625,-3.1875,9.234375,36
37,1696260629182,0.40063477,-0.72540283,-0.23443604,0.71875,7.203125,8.890625,37
38,1696260629222,0.5336914,-0.7227173,0.0119018555,-9.640625,-9.203125,0.078125,38
39,1696260629262,0.40283203,-1.0335083,0.08343506,-6.75,-4.40625,3.78125,39
40,1696260629302,0.09375,-0.67926025,0.0016479492,-12.71875,4.1875,-1.71875,40
41,1696260629342,0.13720703,-0.57647705,0.02508545,-8.546875,2.8125,-6.546875,41
42,1696260629382,0.23486328,-0.64678955,0.02532959,-3.6875,1.4375,-3.40625,42
43,1696260629422,0.28198242,-0.659729,0.0004272461,-3.15625,1.234375,-0.125,43
44,1696260629462,0.25024414,-0.69781494,0.00579834,2.875,-1.015625,1.640625,44
45,1696260629502,0.27612305,-0.8970337,0.0993042,-0.359375,5.125,2.25,45
46,1696260629542,0.3305664,-1.0388794,0.11517334,-1.125,0.625,4.359375,46
47,1696260629582,0.28344727,-0.986145,0.16400146,-1.34375,2.0625,1.75,47
48,1696260629622,0.20898438,-0.923645,0.10394287,-1.171875,0.15625,-0.3125,48
49,1696260629662,0.27539062,-0.82354736,0.077819824,-0.453125,4.796875,3.328125,49
50,1696260629702,0.29492188,-0.87335205,0.1605835,6.59375,-1.203125,3.859375,50
51,1696260629742,0.18261719,-0.9846802,0.08514404,3.640625,-1.296875,-1.203125,51
52,1696260629782,0.28833008,-1.0559692,0.01751709,0.359375,6.953125,-6.046875,52
53,1696260629822,0.61206055,-1.2195435,0.02947998,2.21875,-6.9375,-1.890625,53
54,1696260629862,0.49389648,-1.4824829,0.10858154,12.8125,-10.90625,3.8125,54
55,1696260629902,0.21264648,-1.3858032,-0.026916504,-0.1875,11.21875,-5.46875,55
56,1696260629942,0.23608398,-0.95635986,-0.22052002,2.359375,23.578125,-0.6875,56
57,1696260629982,0.6176758,-0.7764282,-0.18145752,-0.421875,13.59375,-1.953125,57
58,1696260630022,0.3786621,-0.954895,-0.058410645,5.671875,7.46875,-9.21875,58
59,1696260630062,0.09692383,-1.0530396,-0.11016846,-11.15625,10.703125,-5.34375,59
60,1696260630102,0.29589844,-0.7085571,-0.0005493164,-10.609375,12.171875,-3.828125,60
61,1696260630142,0.27612305,-0.58599854,0.026306152,-1.78125,3.6875,2.96875,61
62,1696260630182,0.10839844,-0.6921997,-0.049621582,-1.578125,1.078125,-0.078125,62
63,1696260630222,0.15283203,-0.6704712,-0.058898926,2.546875,3.421875,-2.0,63
64,1696260630262,0.23046875,-0.7337036,-0.04473877,1.328125,-1.234375,1.828125,64
65,1696260630302,0.2265625,-0.8706665,-0.06817627,6.421875,-4.65625,3.1875,65
66,1696260630342,0.20996094,-0.99005127,-0.02911377,3.859375,-5.375,2.25,66
67,1696260630382,0.18652344,-1.0447388,0.046813965,6.03125,-3.515625,4.0,67
68,1696260630422,0.13745117,-0.9483032,0.085876465,3.765625,0.40625,2.3125,68
69,1696260630462,0.15771484,-0.95269775,-0.040100098,-1.984375,-3.78125,3.28125,69
70,1696260630502,0.21923828,-0.9783325,0.013366699,0.546875,1.28125,5.140625,70
71,1696260630542,0.27929688,-1.0559692,0.05267334,-1.421875,-4.5,5.109375,71
72,1696260630582,0.2290039,-1.2002563,-0.028625488,0.609375,-1.046875,5.140625,72
73,1696260630622,0.42822266,-1.4578247,-0.05206299,-15.421875,0.3125,8.5625,73
74,1696260630662,0.7390137,-1.506897,-0.039855957,-4.875,-3.75,4.828125,74
75,1696260630702,0.5,-1.1484985,-0.14971924,0.796875,3.09375,8.5625,75
76,1696260630742,0.44580078,-0.64068604,-0.07110596,-1.75,-2.484375,8.875,76
77,1696260630782,0.5246582,-0.76153564,0.020690918,-7.984375,-15.640625,2.1875,77
78,1696260630822,0.34985352,-1.00177,0.06463623,1.796875,-14.015625,-3.734375,78
79,1696260630862,-0.006591797,-0.6704712,-0.022521973,-5.0,-2.25,-8.25,79
80,1696260630902,0.15136719,-0.5142212,-0.012512207,-13.296875,7.625,-2.046875,80
81,1696260630942,0.34594727,-0.5928345,0.09466553,-8.796875,4.734375,0.421875,81
82,1696260630982,0.35375977,-0.71295166,0.047058105,-3.546875,-3.96875,0.546875,82
83,1696260631022,0.37841797,-0.80059814,0.11053467,-1.9375,-2.109375,1.453125,83
84,1696260631062,0.35888672,-0.9717407,0.15130615,-0.75,-5.109375,3.109375,84
85,1696260631102,0.24047852,-0.9500122,0.1359253,0.234375,-2.46875,0.609375,85
86,1696260631142,0.2097168,-0.87286377,0.101989746,0.109375,3.5,1.5,86
87,1696260631182,0.3178711,-0.83673096,0.15301514,-1.0,6.390625,2.84375,87
88,1696260631222,0.2980957,-0.9216919,0.1864624,5.25,1.96875,2.078125,88
89,1696260631262,0.2980957,-0.97613525,0.14569092,3.625,1.75,-3.15625,89
90,1696260631302,0.27075195,-0.9846802,0.1317749,1.75,4.453125,-5.203125,90
91,1696260631342,0.41455078,-1.1245728,-0.012756348,9.09375,-7.5,-4.015625,91
92,1696260631382,0.779541,-1.3779907,0.12298584,12.359375,-14.34375,-1.875,92
93,1696260631422,0.3552246,-1.7947388,0.11932373,12.984375,0.171875,-10.71875,93
94,1696260631462,0.07739258,-1.0178833,-0.14190674,4.96875,22.828125,-6.296875,94
95,1696260631502,0.45141602,-0.48687744,-0.21612549,-4.625,20.40625,8.546875,95
96,1696260631542,0.62109375,-0.7959595,-0.024963379,17.328125,2.703125,-6.46875,96
97,1696260631582,0.10229492,-1.1987915,-0.06085205,-0.53125,-2.125,-8.53125,97
98,1696260631622,0.0859375,-0.7786255,-0.021057129,-7.75,12.28125,-4.578125,98
99,1696260631662,0.26611328,-0.5886841,0.0036010742,2.078125,1.96875,-2.078125,99
100,1696260631702,0.16088867,-0.7505493,-0.08746338,-1.171875,-1.625,-3.765625,100
101,1696260631742,0.13671875,-0.76226807,-0.08746338,4.40625,5.28125,-6.0,101
102,1696260631782,0.15576172,-0.7229614,-0.0020141602,3.328125,5.359375,-3.515625,102
103,1696260631822,0.15185547,-0.8345337,-0.11114502,-3.03125,-1.203125,-1.703125,103
104,1696260631862,0.15185547,-0.95391846,-0.024230957,4.125,2.515625,-0.921875,104
105,1696260631902,0.22387695,-0.99346924,0.03338623,0.90625,-2.546875,0.078125,105
106,1696260631942,0.17358398,-1.0203247,0.010681152,1.234375,-3.625,4.984375,106
107,1696260631982,0.13183594,-0.9949341,-0.011779785,5.46875,-1.90625,7.5,107
108,1696260632022,0.2697754,-1.0730591,0.0289917,-0.234375,-3.34375,4.375,108
109,1696260632062,0.30566406,-1.1824341,-0.006652832,0.015625,-10.453125,6.421875,109
110,1696260632102,0.38671875,-1.5254517,-0.109191895,1.046875,-10.6875,7.578125,110
111,1696260632142,0.6135254,-1.630188,-0.11480713,-0.234375,-4.125,8.34375,111
112,1696260632182,0.67211914,-0.95806885,-0.13287354,-4.203125,1.8125,18.421875,112
113,1696260632222,0.26220703,-0.67388916,-0.19000244,6.609375,-9.546875,5.984375,113
114,1696260632262,0.31591797,-0.7984009,-0.08404541,-9.53125,-12.90625,-5.03125,114
115,1696260632302,0.26293945,-0.8916626,-0.023254395,-11.921875,1.65625,-4.25,115
116,1696260632342,0.17871094,-0.59942627,0.015319824,-11.421875,8.921875,-7.125,116
117,1696260632382,0.24365234,-0.5610962,0.059509277,-12.125,3.5625,-0.671875,117
118,1696260632422,0.3112793,-0.6814575,0.04534912,-7.0625,-3.15625,0.671875,118
119,1696260632462,0.2758789,-0.71295166,0.06903076,-3.4375,-5.5625,-3.296875,119
120,1696260632502,0.2541504,-0.8335571,0.0692749,-1.796875,-3.46875,1.46875,120
121,1696260632542,0.35131836,-0.95977783,0.14105225,-2.59375,-0.046875,2.078125,121
122,1696260632582,0.22094727,-0.9692993,0.109558105,-0.484375,-0.90625,2.359375,122
123,1696260632622,0.22045898,-0.897522,0.05609131,2.296875,2.734375,0.71875,123
124,1696260632662,0.296875,-0.8994751,0.11907959,0.140625,5.3125,3.609375,124
125,1696260632702,0.35180664,-0.9404907,0.20599365,6.046875,1.6875,5.125,125
126,1696260632742,0.23364258,-1.0015259,0.121276855,3.46875,-4.25,-0.59375,126
127,1696260632782,0.3076172,-1.072815,0.05633545,2.25,2.203125,-3.3125,127
128,1696260632822,0.59594727,-1.3616333,-0.003967285,12.40625,-3.8125,0.796875,128
129,1696260632862,0.6179199,-1.7278442,0.0048217773,6.421875,8.671875,6.640625,129
130,1696260632902,0.2265625,-1.1624146,-0.1104126,2.21875,24.78125,-6.875,130
131,1696260632942,0.33764648,-0.59259033,-0.28790283,-3.828125,26.640625,7.1875,131
132,1696260632982,0.45166016,-0.7859497,-0.11993408,6.390625,19.453125,-0.59375,132
133,1696260633022,0.25439453,-1.076477,-0.046936035,-3.1875,11.5625,-8.015625,133
134,1696260633062,0.19213867,-0.7949829,-0.06866455,-5.671875,11.640625,-3.765625,134
135,1696260633102,0.2163086,-0.6536255,-0.053527832,-1.703125,11.328125,0.015625,135
136,1696260633142,0.14550781,-0.6609497,-0.04864502,-3.03125,11.046875,-2.34375,136
137,1696260633182,0.17578125,-0.6958618,-0.11090088,-2.203125,9.046875,-5.5,137
138,1696260633222,0.20019531,-0.77667236,-0.051574707,-0.140625,11.203125,-0.828125,138
139,1696260633262,0.19482422,-0.87213135,-0.09698486,-2.546875,7.765625,1.28125,139
140,1696260633302,0.24780273,-0.9446411,-0.05596924,-1.140625,7.40625,0.78125,140
141,1696260633342,0.22070312,-1.0112915,0.008483887,-0.265625,3.25,3.40625,141
142,1696260633382,0.13330078,-0.9993286,-0.012023926,-1.96875,4.578125,5.125,142
143,1696260633422,0.1887207,-0.9692993,-0.03717041,-1.96875,7.125,6.265625,143
144,1696260633462,0.32910156,-0.98809814,0.017028809,-3.21875,3.15625,9.0625,144
145,1696260633502,0.33544922,-1.0481567,0.029968262,-5.921875,-8.828125,9.0625,145
146,1696260633542,0.23901367,-1.2197876,-0.047912598,1.90625,-4.265625,8.21875,146
147,1696260633582,0.45825195,-1.6328735,-0.10748291,-8.390625,-10.421875,-0.28125,147
148,1696260633622,0.71899414,-1.444397,-0.09576416,-10.78125,1.125,-0.8125,148
149,1696260633662,0.5168457,-0.8635864,-0.21881104,0.765625,4.328125,4.640625,149
150,1696260633702,0.44189453,-0.60894775,-0.14312744,-2.6875,3.09375,1.265625,150
151,1696260633742,0.4560547,-0.8401489,-0.004699707,-9.296875,-8.03125,-3.0625,151
152,1696260633782,0.19384766,-0.81695557,0.050964355,-19.921875,-4.765625,-8.828125,152
153,1696260633822,0.030029297,-0.55718994,0.06439209,-12.515625,9.296875,-8.703125,153
154,1696260633862,0.25317383,-0.62677,0.042419434,-12.078125,8.234375,-3.53125,154
155,1696260633902,0.30126953,-0.647522,0.0368042,-12.015625,3.359375,-4.859375,155
156,1696260633942,0.27807617,-0.72784424,0.06414795,-6.96875,4.234375,-5.40625,156
157,1696260633982,0.29077148,-0.89849854,0.12640381,-8.0625,7.859375,0.265625,157
158,1696260634022,0.30444336,-0.960022,0.23358154,-7.671875,7.109375,-5.578125,158
159,1696260634062,0.19848633,-0.94537354,0.14666748,-6.734375,8.625,-5.1875,159
160,1696260634102,0.23461914,-0.90411377,0.22528076,-5.25,15.859375,-3.34375,160
161,1696260634142,0.2175293,-0.9067993,0.17645264,-1.828125,9.484375,2.734375,161
162,1696260634182,0.25561523,-0.848938,0.13372803,-0.578125,7.078125,4.25,162
163,1696260634222,0.24194336,-0.92022705,0.18914795,6.3125,7.625,4.390625,163
164,1696260634262,0.23632812,-1.0166626,0.15838623,4.25,6.125,2.734375,164
165,1696260634302,0.1706543,-0.9151001,-0.039611816,-0.390625,6.875,3.5625,251
166,1696260634342,0.2199707,-0.94317627,-0.019348145,2.5625,5.15625,4.671875,252
167,1696260634382,0.1940918,-0.9741821,0.015563965,0.84375,4.984375,6.90625,253
168,1696260634422,0.16308594,-0.9968872,-0.022277832,1.796875,6.1875,7.375,254
169,1696260634462,0.2944336,-0.9846802,-0.026672363,1.734375,6.640625,7.59375,255
170,1696260634502,0.38916016,-1.0913696,0.019714355,-4.546875,-2.9375,8.765625,256
171,1696260634542,0.3215332,-1.4255981,0.020446777,1.3125,-3.84375,5.265625,257
172,1696260634582,0.2775879,-1.6626587,-0.24542236,-1.203125,-14.125,0.5,258
173,1696260634622,0.8691406,-1.2195435,-0.085754395,-7.09375,13.234375,-2.71875,259
174,1696260634662,0.6479492,-0.9246216,-0.1350708,1.53125,1.328125,10.109375,260
175,1696260634702,0.43579102,-0.63726807,-0.07232666,-11.171875,-10.28125,3.71875,261
176,1696260634742,0.37109375,-0.8123169,0.070495605,-10.53125,-10.109375,-9.6875,262
177,1696260634782,0.1628418,-0.7505493,-0.04083252,12.53125,12.46875,-11.109375,263
178,1696260634822,0.1850586,-0.34918213,0.027526855,-19.265625,17.703125,-11.3125,264
179,1696260634862,0.1303711,-0.4758911,0.0021362305,-10.90625,4.75,-4.453125,265
180,1696260634902,0.33422852,-0.6553345,0.13763428,-3.578125,9.1875,-3.796875,266
181,1696260634942,0.30566406,-0.9336548,0.11663818,-2.09375,-1.375,-5.25,267
182,1696260634982,0.3557129,-1.135315,0.046325684,-1.40625,0.109375,1.3125,268
183,1696260635022,0.29174805,-1.0117798,0.16766357,3.65625,-0.296875,1.84375,269
184,1696260635062,0.20581055,-0.91119385,0.0758667,-0.90625,-2.515625,0.65625,270
185,1696260635102,0.22241211,-0.8521118,0.09661865,-2.4375,6.015625,2.875,271
186,1696260635142,0.18579102,-0.7959595,0.121276855,3.0625,6.734375,1.71875,272
187,1696260635182,0.25219727,-0.8748169,0.15325928,3.671875,5.546875,1.1875,273
188,1696260635222,0.32128906,-1.0969849,0.12591553,7.90625,3.046875,-1.4375,274
189,1696260635262,0.4243164,-1.2192993,-0.058654785,7.546875,-10.671875,-4.59375,275
190,1696260635302,0.6796875,-1.5518188,0.026062012,24.875,-10.59375,-8.03125,276
191,1696260635342,0.35131836,-1.6538696,-0.11114502,3.359375,8.453125,0.6875,277
192,1696260635382,0.18847656,-0.85821533,-0.25006104,-7.3125,14.28125,-2.953125,278
193,1696260635422,0.4946289,-0.6116333,-0.270813,-3.53125,10.984375,2.65625,279
194,1696260635462,0.47021484,-1.0269165,-0.06451416,9.1875,7.578125,-8.390625,280
195,1696260635502,0.053955078,-0.9692993,-0.07647705,-3.875,3.046875,-0.890625,281
196,1696260635542,0.08862305,-0.6399536,-0.07891846,-11.03125,9.625,-4.1875,282
197,1696260635582,0.21899414,-0.65997314,-0.046203613,-5.5,5.28125,-2.3125,283
198,1696260635622,0.18652344,-0.7329712,-0.047424316,-2.84375,4.640625,-2.0,284
199,1696260635662,0.11206055,-0.6917114,-0.09918213,0.953125,2.296875,-0.171875,285
200,1696260635702,0.123291016,-0.7136841,-0.10064697,2.90625,-0.359375,-0.109375,286
201,1696260635742,0.18554688,-0.88360596,-0.10675049,3.140625,0.53125,-0.453125,287
202,1696260635782,0.1550293,-0.9963989,-0.058898926,1.171875,-1.65625,2.359375,288
203,1696260635822,0.17285156,-0.9475708,0.04095459,2.21875,1.140625,4.765625,289
204,1696260635862,0.20288086,-0.9192505,-0.024230957,-3.0625,-5.84375,6.0625,290
205,1696260635902,0.22216797,-1.0647583,0.00970459,1.171875,-4.4375,5.734375,291
206,1696260635942,0.2697754,-1.1760864,0.04071045,2.0625,-6.21875,8.140625,292
207,1696260635982,0.26098633,-1.4578247,-0.07720947,-1.125,-4.96875,7.421875,293
208,1696260636022,0.46850586,-1.6372681,-0.1560669,-4.59375,-9.890625,7.53125,294
209,1696260636062,0.7854004,-1.2949829,-0.020324707,-4.65625,4.578125,6.546875,295
210,1696260636102,0.36157227,-0.8464966,-0.19952393,2.59375,-0.390625,12.53125,296
211,1696260636142,0.25708008,-0.598938,-0.019104004,-10.84375,0.34375,-2.609375,297
212,1696260636182,0.50634766,-0.8491821,0.07220459,-5.8125,-2.671875,-4.78125,298
213,1696260636222,0.19726562,-0.77716064,0.034606934,-5.53125,-1.765625,-3.921875,299
214,1696260636262,0.023925781,-0.5083618,-0.0020141602,-8.75,9.5,-9.015625,300
215,1696260636302,0.25830078,-0.42974854,-0.03375244,-14.875,9.28125,2.09375,301
216,1696260636342,0.36279297,-0.6199341,0.08319092,-0.296875,-1.109375,1.34375,302
217,1696260636382,0.3161621,-0.8648071,0.109069824,-1.4375,-9.65625,0.25,303
218,1696260636422,0.28955078,-1.0405884,0.1317749,-1.828125,-5.859375,5.140625,304
219,1696260636462,0.2211914,-0.96343994,0.112976074,-2.328125,-0.171875,0.828125,305
220,1696260636502,0.28881836,-0.86676025,0.10076904,-0.53125,5.125,0.640625,306
221,1696260636542,0.32250977,-0.94244385,0.14788818,0.34375,1.5,2.515625,307
222,1696260636582,0.2770996,-0.9463501,0.16595459,0.890625,0.8125,4.984375,308
223,1696260636622,0.21899414,-0.9795532,0.16082764,1.34375,4.6875,1.4375,309
224,1696260636662,0.40478516,-1.15802,0.039489746,-3.640625,-0.96875,-2.34375,310
225,1696260636702,0.7854004,-1.6062622,0.08319092,3.078125,-9.359375,-6.625,311
226,1696260636742,0.5253906,-1.7488403,0.13079834,6.6875,8.046875,10.234375,312
227,1696260636782,0.07348633,-0.80963135,-0.21759033,5.65625,19.71875,-5.796875,313
228,1696260636822,0.53686523,-0.42437744,-0.24273682,-1.296875,20.5625,4.703125,314
229,1696260636862,0.5251465,-0.94244385,0.008972168,5.109375,3.203125,-4.546875,315
230,1696260636902,0.23828125,-1.0708618,-0.0178833,4.96875,-5.8125,-6.453125,316
231,1696260636942,0.12695312,-0.6038208,-0.024475098,1.984375,-4.828125,-5.65625,317
232,1696260636982,0.14282227,-0.58673096,-0.054504395,4.296875,-6.78125,-3.09375,318
233,1696260637022,0.16333008,-0.7576294,-0.054992676,0.796875,-0.265625,-6.359375,319
234,1696260637062,0.16430664,-0.77716064,-0.024230957,1.609375,3.609375,-3.453125,320
235,1696260637102,0.12109375,-0.73760986,-0.008850098,2.875,4.84375,-2.171875,321
236,1696260637142,0.17480469,-0.8843384,-0.10430908,-2.0,3.46875,-1.703125,322
237,1696260637182,0.2133789,-0.9624634,0.02923584,0.65625,7.984375,0.265625,323
238,1696260637222,0.21020508,-0.9534302,0.024597168,0.890625,2.21875,2.15625,324
239,1696260637262,0.2446289,-0.9312134,0.07733154,2.984375,2.765625,6.234375,325
240,1696260637302,0.15771484,-1.0647583,-0.002746582,6.0,-0.1875,6.125,326
241,1696260637342,0.27612305,-1.1985474,-0.022521973,2.6875,-1.59375,4.390625,327
242,1696260637382,0.32885742,-1.4624634,-0.013000488,5.5,3.125,7.703125,328
243,1696260637422,0.5144043,-1.6174927,-0.13702393,5.65625,-12.078125,5.890625,329
244,1696260637462,0.7668457,-1.3005981,-0.08892822,-0.015625,4.75,4.90625,330
245,1696260637502,0.51000977,-0.85113525,-0.22125244,5.796875,8.34375,17.28125,331
246,1696260637542,0.3972168,-0.5515747,0.014831543,-13.34375,-7.0,5.203125,332
247,1696260637582,0.27148438,-0.8230591,0.097839355,-7.015625,-11.6875,-1.71875,333
248,1696260637622,0.021728516,-0.7366333,-0.0037231445,-1.71875,0.375,-9.125,334
249,1696260637662,0.15063477,-0.42803955,-0.06304932,-10.546875,12.5625,-8.296875,335
250,1696260637702,0.37036133,-0.5264282,0.046813965,-8.640625,6.46875,-1.390625,336
251,1696260637742,0.29077148,-0.706604,0.0060424805,-1.890625,-3.40625,-2.984375,337
252,1696260637782,0.31323242,-0.81378174,0.053894043,2.59375,-2.140625,0.546875,338
253,1696260637822,0.3251953,-0.9143677,0.07196045,2.671875,-6.65625,3.5625,339
254,1696260637862,0.34057617,-0.986145,0.116882324,-0.109375,-7.828125,1.515625,340
255,1696260637902,0.2055664,-0.9824829,0.089782715,0.53125,-6.609375,-0.140625,341
256,1696260637942,0.20361328,-0.91290283,0.09442139,0.515625,4.578125,-0.640625,342
257,1696260637982,0.2697754,-0.880188,0.057556152,-2.609375,2.9375,2.25,343
258,1696260638022,0.32592773,-1.0083618,0.15057373,3.203125,6.265625,1.046875,344
259,1696260638062,0.3552246,-1.269104,0.049987793,5.390625,-3.515625,1.59375,345
260,1696260638102,0.6125488,-1.5437622,-0.07525635,3.125,-4.484375,-1.796875,346
261,1696260638142,0.6062012,-1.5410767,-0.055236816,7.46875,13.59375,7.71875,347
262,1696260638182,0.18115234,-0.9336548,-0.29107666,-4.734375,18.59375,-2.75,348
263,1696260638222,0.2956543,-0.50250244,-0.2930298,-6.3125,28.75,2.640625,349
264,1696260638262,0.51000977,-0.87506104,-0.086242676,3.984375,13.75,-0.3125,350
265,1696260638302,0.36450195,-1.0610962,-0.035705566,-5.328125,1.34375,2.03125,351
266,1696260638342,0.13110352,-0.71051025,-0.06060791,-0.234375,0.78125,-0.390625,352
267,1696260638382,0.09790039,-0.598938,-0.081604004,0.28125,1.515625,-3.265625,353
268,1696260638422,0.19433594,-0.6851196,-0.093322754,-6.59375,6.0625,-4.734375,354
269,1696260638462,0.25952148,-0.75616455,-0.046203613,-1.84375,5.046875,-0.328125,355
270,1696260638502,0.21435547,-0.7803345,-0.046447754,-0.828125,-0.71875,2.4375,356
271,1696260638542,0.16357422,-0.90802,-0.04937744,1.34375,-0.015625,0.609375,357
272,1696260638582,0.19897461,-0.9302368,0.0072631836,-0.296875,4.609375,0.140625,358
273,1696260638622,0.21240234,-0.96221924,0.008483887,-1.6875,1.875,5.796875,359
274,1696260638662,0.2006836,-1.0022583,-0.033996582,-0.421875,2.671875,6.546875,360
275,1696260638702,0.2680664,-1.0862427,0.011413574,-1.671875,5.734375,6.71875,361
276,1696260638742,0.32250977,-1.1453247,-0.008850098,-6.21875,-2.453125,8.21875,362
277,1696260638782,0.36108398,-1.397522,-0.0725708,-12.84375,7.203125,7.296875,363
278,1696260638822,0.58618164,-1.6321411,-0.13140869,-12.109375,-0.203125,-0.546875,364
279,1696260638862,0.8063965,-1.1853638,-0.013244629,-5.46875,10.0,4.453125,365
280,1696260638902,0.46728516,-0.7817993,-0.13140869,0.015625,-0.140625,8.34375,366
281,1696260638942,0.24121094,-0.5757446,-0.105041504,-8.65625,0.234375,-2.125,367
282,1696260638982,0.44873047,-0.76641846,0.034606934,-6.984375,2.546875,-4.1875,368
283,1696260639022,0.27856445,-0.7334595,0.08685303,-7.03125,-2.84375,-7.109375,369
284,1696260639062,0.14819336,-0.6253052,0.00018310547,-8.8125,1.46875,-8.078125,370
285,1696260639102,0.2998047,-0.59576416,0.066101074,-8.1875,5.59375,-1.546875,371
286,1696260639142,0.28295898,-0.66729736,0.054870605,-4.296875,1.4375,-3.09375,372
287,1696260639182,0.2626953,-0.7942505,0.10882568,-3.34375,4.796875,-2.40625,373
288,1696260639222,0.39208984,-0.9241333,0.23846436,-3.1875,2.46875,-7.28125,374
289,1696260639262,0.19970703,-0.9595337,0.12615967,-11.125,4.46875,-6.390625,375
290,1696260639302,0.12207031,-0.94000244,0.12982178,-7.140625,18.390625,-6.671875,376
291,1696260639342,0.27905273,-0.8640747,0.15545654,-6.640625,18.078125,-4.375,377
292,1696260639382,0.3400879,-0.8740845,0.17132568,-2.203125,12.171875,1.40625,378
293,1696260639422,0.25341797,-0.9824829,0.1876831,0.203125,13.734375,4.1875,379
294,1696260639462,0.3149414,-0.6802368,-0.09967041,-2.59375,7.25,2.375,466
295,1696260639502,0.24902344,-0.6658325,-0.09161377,5.625,-1.34375,4.703125,467
296,1696260639542,0.1743164,-0.74005127,-0.105285645,5.03125,-2.25,3.390625,468
297,1696260639582,0.26879883,-0.9866333,-0.03326416,3.765625,-2.5,-0.6875,469
298,1696260639622,0.2602539,-1.1091919,0.0040893555,1.1875,1.234375,4.078125,470
299,1696260639662,0.18237305,-0.93218994,-0.101379395,-2.5,0.578125,5.796875,471
300,1696260639702,0.35595703,-0.9873657,0.0033569336,-8.515625,-1.46875,-6.875,472
301,1696260639742,0.47021484,-1.2752075,-0.06109619,-3.96875,-11.78125,-2.734375,473
302,1696260639782,0.6208496,-1.5588989,-0.09967041,2.578125,-22.234375,0.140625,474
303,1696260639822,0.87719727,-1.4107056,0.08026123,2.109375,-10.484375,-2.296875,475
304,1696260639862,0.36816406,-1.0964966,-0.16534424,0.859375,-1.796875,-0.546875,476
305,1696260639902,0.37695312,-0.52838135,-0.19854736,-1.203125,13.4375,-5.578125,477
306,1696260639942,0.62524414,-0.4710083,0.12005615,-11.328125,-4.21875,-2.09375,478
307,1696260639982,0.32983398,-0.8501587,0.15789795,-4.1875,-11.59375,-7.109375,479
308,1696260640022,0.021728516,-0.67755127,0.053649902,-15.328125,-5.640625,-16.015625,480
309,1696260640062,0.19018555,-0.60357666,0.012390137,-7.0,2.859375,-5.453125,481
310,1696260640102,0.3071289,-0.6333618,0.082214355,0.265625,2.265625,-4.453125,482
311,1696260640142,0.18676758,-0.75445557,0.024353027,2.375,-4.234375,-2.03125,483
312,1696260640182,0.24609375,-0.85772705,0.10394287,3.75,3.25,-0.546875,484
313,1696260640222,0.33642578,-1.0020142,0.16375732,0.015625,-0.609375,1.234375,485
314,1696260640262,0.2487793,-1.0117798,0.1395874,-3.34375,-1.8125,1.34375,486
315,1696260640302,0.2614746,-0.9524536,0.152771,2.734375,-0.4375,-1.375,487
316,1696260640342,0.25,-0.9324341,0.17547607,2.109375,2.1875,2.375,488
317,1696260640382,0.26293945,-1.079895,0.15179443,12.671875,1.4375,4.046875,489
318,1696260640422,0.41845703,-1.2349243,-0.023986816,11.796875,-9.234375,1.5,490
319,1696260640462,0.6286621,-1.5654907,-0.07574463,21.015625,-2.140625,1.21875,491
320,1696260640502,0.5332031,-1.4763794,-0.06329346,-1.609375,12.921875,4.453125,492
321,1696260640542,0.17700195,-0.8399048,-0.2720337,-1.03125,7.71875,5.171875,493
322,1696260640582,0.4013672,-0.59625244,-0.18560791,1.234375,17.140625,3.796875,494
323,1696260640622,0.4140625,-0.91485596,-0.09576416,3.6875,9.375,-1.734375,495
324,1696260640662,0.15039062,-0.798645,-0.07208252,0.859375,1.859375,0.515625,496
325,1696260640702,0.1262207,-0.6218872,-0.0491333,2.484375,3.796875,-4.484375,497
326,1696260640742,0.1328125,-0.6802368,-0.1296997,-5.34375,2.96875,-3.0625,498
327,1696260640782,0.17602539,-0.7131958,-0.04864502,-0.921875,6.09375,-2.859375,499
328,1696260640822,0.22265625,-0.75177,-0.101135254,-1.5,2.640625,-2.46875,500
329,1696260640862,0.23364258,-0.8362427,-0.08306885,2.390625,0.515625,0.0625,501
330,1696260640902,0.2290039,-0.93756104,-0.059143066,2.28125,-1.90625,3.8125,502
331,1696260640942,0.20385742,-0.99542236,-0.036193848,1.421875,-0.6875,4.9375,503
332,1696260640982,0.18164062,-0.97857666,-0.034240723,-1.265625,-1.265625,7.421875,504
333,1696260641022,0.24194336,-1.0164185,-0.045959473,-6.390625,-4.109375,6.046875,505
334,1696260641062,0.35083008,-1.0933228,-0.062561035,-4.609375,-15.0,7.5,506
335,1696260641102,0.33447266,-1.3504028,-0.058654785,-3.859375,-14.359375,3.125,507
336,1696260641142,0.47753906,-1.5220337,-0.06768799,-14.15625,-11.28125,0.53125,508
337,1696260641182,0.8449707,-1.1973267,-0.0051879883,-4.71875,3.84375,6.640625,509
338,1696260641222,0.55566406,-0.8723755,-0.113098145,1.96875,-2.09375,12.828125,510
339,1696260641262,0.32080078,-0.62579346,-0.09136963,-1.0625,-7.921875,-2.296875,511
340,1696260641302,0.32958984,-0.7581177,-0.042053223,-7.03125,0.03125,-4.609375,512
341,1696260641342,0.2705078,-0.7859497,0.051452637,-6.6875,7.046875,-9.796875,513
342,1696260641382,0.2175293,-0.5923462,-0.002746582,-9.609375,5.765625,-6.921875,514
343,1696260641422,0.37060547,-0.5510864,0.073913574,-7.9375,1.265625,3.59375,515
344,1696260641462,0.30322266,-0.70391846,0.08343506,-0.03125,-7.015625,0.703125,516
345,1696260641502,0.19458008,-0.80181885,0.02142334,-1.09375,-5.125,-2.296875,517
346,1696260641542,0.2944336,-0.8340454,0.085632324,-3.609375,-0.09375,-0.359375,518
347,1696260641582,0.26953125,-0.9578247,0.15252686,-0.421875,2.8125,2.984375,519
348,1696260641622,0.2590332,-1.0213013,0.105895996,2.09375,-21.953125,-2.171875,546
349,1696260641662,0.037597656,-0.6958618,0.051208496,1.609375,-6.03125,-10.609375,547
350,1696260641702,0.095458984,-0.42242432,-0.03692627,-0.40625,6.515625,-4.5,548
351,1696260641742,0.35107422,-0.4529419,0.016784668,-3.734375,1.515625,0.953125,549
352,1696260641782,0.3256836,-0.7085571,0.051208496,10.125,-7.125,0.0625,550
353,1696260641822,0.3623047,-0.8916626,0.08831787,5.390625,-3.53125,1.234375,551
354,1696260641862,0.37963867,-1.0234985,0.12908936,7.828125,-7.75,4.40625,552
355,1696260641902,0.27075195,-0.96539307,0.11834717,3.734375,-6.921875,-0.140625,553
356,1696260641942,0.24633789,-0.972229,0.08734131,7.90625,-3.203125,0.875,554
357,1696260641982,0.35180664,-1.0742798,0.14935303,12.84375,-0.0625,0.4375,555
358,1696260642022,0.36743164,-1.2544556,-0.0569458,7.625,0.140625,-1.5,556
359,1696260642062,0.7084961,-1.4907837,-0.043029785,12.171875,-10.734375,-14.375,557
360,1696260642102,0.69262695,-1.578186,-0.0076293945,0.953125,11.203125,0.546875,558
361,1696260642142,0.025634766,-0.70440674,-0.37213135,-13.546875,2.4375,-7.375,559
362,1696260642182,0.21289062,-0.48980713,-0.24273682,3.046875,12.046875,-8.828125,560
363,1696260642222,0.5319824,-1.100647,-0.1506958,-0.671875,4.390625,-9.4375,561
364,1696260642262,0.27319336,-0.9678345,-0.027893066,-6.8125,11.140625,-1.5,562
365,1696260642302,0.0034179688,-0.5339966,-0.061828613,-4.828125,6.015625,-1.171875,563
366,1696260642342,0.09106445,-0.47027588,-0.050109863,-1.9375,3.75,-2.359375,564
367,1696260642382,0.115234375,-0.6670532,-0.06817627,-3.34375,6.765625,-4.640625,565
368,1696260642422,0.15795898,-0.70318604,-0.113098145,2.984375,7.421875,-1.359375,566
369,1696260642462,0.23095703,-0.82769775,-0.058166504,3.09375,-1.0625,2.078125,567
370,1696260642502,0.19580078,-0.99176025,-0.034484863,4.84375,-4.0,2.234375,568
371,1696260642542,0.13574219,-1.0984497,0.015075684,-3.6875,-0.140625,5.53125,569
372,1696260642582,0.13793945,-1.0540161,0.034118652,-0.203125,3.03125,11.921875,570
373,1696260642622,0.22143555,-1.0632935,0.016052246,2.9375,3.890625,12.671875,571
374,1696260642662,0.39624023,-1.2026978,0.030944824,-4.515625,-0.828125,9.234375,572
375,1696260642702,0.32543945,-1.5872192,-0.07330322,-3.96875,-4.203125,8.296875,573
376,1696260642742,0.5292969,-1.567688,-0.08013916,-4.234375,-5.0625,9.46875,574
377,1696260642782,0.21923828,-0.9871216,-0.093811035,6.828125,-5.390625,-2.46875,641
378,1696260642822,0.23828125,-1.0769653,-0.05718994,10.265625,-2.84375,-0.921875,642
379,1696260642862,0.25024414,-1.1272583,-0.016906738,-0.421875,-2.875,1.921875,643
380,1696260642902,0.3256836,-1.1550903,0.001159668,-10.671875,0.296875,2.953125,644
381,1696260642942,0.39160156,-1.3782349,-0.037902832,-7.5625,-4.234375,6.078125,645
382,1696260642982,0.4482422,-1.7681274,-0.18292236,-0.765625,-18.75,-0.0625,646
383,1696260643022,0.6538086,-1.1812134,-0.06549072,-3.03125,10.921875,4.609375,647
384,1696260643062,0.4326172,-0.6421509,-0.23345947,1.125,2.515625,8.65625,648
385,1696260643102,0.34350586,-0.522522,-0.10821533,-16.953125,0.625,-6.765625,649
386,1696260643142,0.3876953,-0.8496704,0.101989746,-9.46875,5.640625,-4.703125,650
387,1696260643182,0.053466797,-0.7769165,0.03387451,-21.546875,12.4375,-14.984375,651
388,1696260643222,0.10522461,-0.4751587,-0.020324707,-25.359375,22.484375,-9.203125,652
389,1696260643262,0.31518555,-0.5576782,-0.015930176,-11.125,8.84375,1.3125,653
390,1696260643302,0.40576172,-0.74224854,0.09832764,-4.625,0.296875,-2.984375,654
391,1696260643342,0.28955078,-0.98101807,0.12347412,2.515625,-0.90625,3.59375,655
392,1696260643382,0.17773438,-1.0066528,0.11541748,-1.046875,5.921875,7.578125,656
393,1696260643422,0.20922852,-0.8726196,0.14398193,0.9375,11.046875,4.203125,657
394,1696260643462,0.1887207,-0.9446411,0.105895996,1.140625,13.515625,5.140625,658
395,1696260643502,0.25097656,-0.93463135,0.09124756,-0.28125,12.515625,7.828125,659
396,1696260643542,0.23901367,-1.0112915,0.02557373,15.703125,5.703125,4.4375,660
397,1696260643582,0.53759766,-1.30719,-0.055725098,4.921875,3.625,0.46875,661
398,1696260643622,0.8874512,-1.7112427,-0.0012817383,25.765625,0.078125,-11.1875,662
399,1696260643662,0.37670898,-1.3884888,-0.1038208,12.015625,5.140625,3.28125,663
400,1696260643702,0.34472656,-0.56622314,-0.29034424,-8.6875,10.421875,-3.328125,664
401,1696260643742,0.59936523,-0.458313,-0.1897583,-2.1875,5.453125,-3.234375,665
402,1696260643782,0.40820312,-1.0261841,0.012634277,4.875,-16.46875,-7.875,666
403,1696260643822,0.11254883,-0.94537354,-0.050842285,1.875,-9.640625,-2.296875,667
404,1696260643862,0.15966797,-0.5479126,-0.057434082,-5.890625,1.71875,-2.890625,668
405,1696260643902,0.15258789,-0.616272,-0.08306885,-8.40625,-3.984375,-1.9375,669
406,1696260643942,0.1340332,-0.7000122,-0.030822754,-0.875,-6.890625,-2.0,670
407,1696260643982,0.11303711,-0.73150635,-0.053527832,2.8125,-3.4375,-2.09375,671
408,1696260644022,0.21411133,-0.79815674,-0.034973145,1.09375,-2.953125,0.140625,672
409,1696260644062,0.3076172,-0.95635986,0.010192871,3.75,-5.84375,8.21875,673
410,1696260644102,0.21777344,-1.0510864,0.025817871,8.71875,-7.59375,11.546875,674
411,1696260644142,0.1730957,-1.0466919,0.004333496,4.90625,0.328125,6.796875,675
412,1696260644182,0.2685547,-1.1846313,0.019958496,2.53125,0.5,8.015625,676
413,1696260644222,0.5041504,-1.2739868,0.047302246,-4.609375,0.203125,7.984375,677
414,1696260644262,0.49267578,-1.5405884,-0.23150635,-2.59375,-12.21875,3.3125,678
415,1696260644302,0.7817383,-1.3792114,-0.05303955,0.671875,-1.609375,-2.328125,679
416,1696260644342,0.7114258,-0.95318604,-0.15655518,7.375,-5.640625,15.609375,680
417,1696260644382,0.49438477,-0.5911255,-0.00982666,-0.3125,-9.578125,3.90625,681
418,1696260644422,0.17651367,-0.62042236,0.015808105,4.375,-18.53125,-4.453125,682
419,1696260644462,-0.0017089844,-0.8052368,-0.009338379,-7.5,1.5,-12.71875,683
420,1696260644502,0.25024414,-0.58062744,-0.023010254,-15.46875,13.234375,-7.859375,684
421,1696260644542,0.41674805,-0.44024658,0.019470215,-8.53125,6.40625,5.5625,685
422,1696260644582,0.3791504,-0.64263916,0.078552246,1.109375,-6.140625,3.171875,686
423,1696260644622,0.22753906,-0.8245239,0.050964355,0.078125,-6.578125,2.84375,687
424,1696260644662,0.33569336,-0.8843384,0.07537842,0.671875,2.21875,3.171875,688
425,1696260644702,0.3515625,-0.90826416,0.0758667,-0.34375,-0.421875,-0.46875,689
426,1696260644742,0.30566406,-1.0100708,0.12322998,1.1875,2.78125,-0.390625,690
427,1696260644782,0.31225586,-0.991272,0.08294678,4.265625,1.703125,1.984375,691
428,1696260644822,0.33325195,-0.92633057,0.09442139,4.125,5.78125,-3.53125,692
429,1696260644862,0.47192383,-1.0650024,-0.024719238,2.8125,-7.265625,-8.46875,693
430,1696260644902,0.77075195,-1.5877075,0.0524292,17.765625,-8.0625,-8.359375,694
431,1696260644942,0.47192383,-1.678772,-0.117004395,3.484375,-0.046875,-4.328125,695
432,1696260644982,0.16040039,-0.75494385,-0.28009033,-6.5625,23.84375,-9.265625,696
433,1696260645022,0.48999023,-0.50128174,-0.14971924,-3.265625,25.109375,-1.421875,697
434,1696260645062,0.35351562,-0.95147705,-0.0947876,5.0,7.28125,-8.21875,698
435,1696260645102,0.14355469,-0.8587036,-0.10089111,-13.359375,9.546875,-5.25,699
436,1696260645142,0.20410156,-0.6148071,-0.03741455,-3.578125,6.828125,-3.15625,700
437,1696260645182,0.19311523,-0.7727661,-0.09649658,-6.03125,7.328125,-0.53125,701
438,1696260645222,0.20166016,-0.71881104,-0.050109863,-3.1875,10.671875,-3.765625,702
439,1696260645262,0.18676758,-0.6370239,-0.046691895,-0.671875,2.859375,-0.5,703
440,1696260645302,0.18359375,-0.7581177,-0.06524658,0.671875,-1.171875,0.65625,704
441,1696260645342,0.2644043,-0.90289307,-0.039123535,3.1875,-2.578125,-0.3125,705
442,1696260645382,0.25561523,-0.9898071,0.0119018555,4.796875,-4.3125,2.6875,706
443,1696260645422,0.20703125,-1.0320435,0.01727295,4.375,-9.328125,4.796875,707
444,1696260645462,0.20727539,-1.1672974,-0.0256958,3.234375,-8.796875,-0.203125,708
445,1696260645502,0.23950195,-1.1575317,-0.08721924,-1.890625,-8.203125,-0.1875,709
446,1696260645542,0.4855957,-1.286438,-0.08111572,-3.890625,0.609375,2.171875,710
447,1696260645582,0.83374023,-1.5149536,0.1005249,5.78125,-10.96875,5.4375,711
448,1696260645622,0.33691406,-1.2544556,-0.1404419,6.9375,-16.6875,8.265625,712
449,1696260645662,0.18432617,-0.6638794,-0.25616455,-0.9375,-7.171875,-6.4375,713
450,1696260645702,0.44018555,-0.74053955,-0.089660645,-3.3125,-11.375,-5.578125,714
451,1696260645742,0.41088867,-0.9277954,0.013122559,0.03125,-10.875,-2.21875,715
452,1696260645782,0.1459961,-0.75567627,0.007751465,-7.328125,-6.375,-6.015625,716
453,1696260645822,0.1171875,-0.6799927,0.07147217,-8.859375,-1.59375,-3.03125,717
454,1696260645862,0.24047852,-0.76934814,0.022399902,-10.828125,-5.109375,0.0,718
455,1696260645902,0.17089844,-0.6826782,0.059020996,-7.53125,1.625,-0.578125,719
456,1696260645942,0.15698242,-0.75250244,0.0040893555,-5.078125,3.09375,-1.1875,720
457,1696260645982,0.32910156,-0.85650635,0.13543701,-6.671875,4.375,2.328125,721
458,1696260646022,0.2097168,-0.9224243,0.109802246,1.453125,-2.71875,5.1875,722
459,1696260646062,0.1262207,-0.9570923,0.11151123,-2.03125,7.375,1.46875,723
460,1696260646102,0.19946289,-0.9973755,0.10223389,-4.53125,11.5625,2.765625,724
461,1696260646142,0.28149414,-0.9729614,0.15081787,0.03125,12.53125,3.84375,725
462,1696260646182,0.31225586,-1.1228638,0.07489014,1.421875,10.46875,4.28125,726
463,1696260646222,0.59375,-1.3313599,0.040222168,6.734375,-1.46875,-0.546875,727
464,1696260646262,0.69628906,-1.7632446,0.07928467,16.609375,4.046875,4.15625,728
465,1696260646302,0.15576172,-1.24469,-0.14605713,-9.703125,16.296875,-4.6875,729
466,1696260646342,0.3479004,-0.45611572,-0.22857666,-5.453125,20.90625,-0.34375,730
467,1696260646382,0.65234375,-0.7649536,-0.07623291,9.828125,4.015625,2.90625,731
468,1696260646422,0.27954102,-1.1553345,-0.007873535,2.84375,-6.65625,-0.859375,732
469,1696260646462,0.0859375,-0.74298096,-0.01763916,-0.53125,-1.171875,-7.015625,733
470,1696260646502,0.16381836,-0.54937744,-0.054016113,-0.21875,-0.59375,-0.828125,734
471,1696260646542,0.1706543,-0.68170166,0.0028686523,-3.828125,-0.46875,-1.75,735
472,1696260646582,0.15893555,-0.7151489,0.010925293,4.03125,-4.125,-2.03125,736
473,1696260646622,0.09887695,-0.7173462,-0.03302002,-0.265625,0.71875,-3.078125,737
474,1696260646662,0.19799805,-0.8110962,-0.049621582,-2.0625,-2.6875,-1.890625,738
475,1696260646702,0.24072266,-0.9807739,0.050720215,1.3125,-0.90625,1.359375,739
476,1696260646742,0.2590332,-1.0344849,0.06854248,3.609375,1.234375,5.71875,740
477,1696260646782,0.31445312,-1.0198364,0.061950684,4.390625,-1.453125,8.765625,741
478,1696260646822,0.31982422,-1.0413208,0.08538818,8.34375,-5.875,11.1875,742
479,1696260646862,0.2475586,-1.2019653,0.006286621,7.921875,-15.734375,9.5625,743
480,1696260646902,0.29174805,-1.5112915,-0.08843994,-2.828125,0.890625,5.34375,744
481,1696260646942,0.60717773,-1.6431274,-0.054748535,-10.578125,4.390625,4.75,745
482,1696260646982,0.6689453,-1.0046997,-0.07647705,-4.921875,1.84375,13.546875,746
483,1696260647022,0.3190918,-0.6321411,-0.10430908,1.921875,-12.953125,6.5,747
484,1696260647062,0.30810547,-0.73223877,-0.020812988,-11.453125,-9.328125,-10.890625,748
485,1696260647102,0.30737305,-1.0003052,0.109313965,-4.90625,0.28125,-2.265625,749
486,1696260647142,0.16357422,-0.65289307,-0.008361816,-10.640625,1.21875,-8.953125,750
487,1696260647182,0.14526367,-0.37945557,-0.009094238,-12.953125,9.78125,-2.40625,751
488,1696260647222,0.35473633,-0.49542236,0.07928467,-9.046875,5.140625,0.828125,752
489,1696260647262,0.3305664,-0.70758057,0.098083496,-1.296875,-5.53125,-1.21875,753
490,1696260647302,0.34716797,-0.84088135,0.13226318,1.890625,-9.265625,-1.953125,754
491,1696260647342,0.30688477,-1.006897,0.18963623,3.59375,-10.59375,4.703125,755
492,1696260647382,0.15966797,-1.0960083,0.116882324,0.421875,-5.03125,1.546875,756
493,1696260647422,0.21435547,-0.95196533,0.13323975,3.578125,6.375,-3.59375,757
494,1696260647462,0.31762695,-0.84820557,0.168396,-3.0,7.390625,-2.046875,758
495,1696260647502,0.25634766,-0.97491455,0.20916748,9.15625,1.390625,4.171875,759
496,1696260647542,0.44458008,-1.1453247,0.16156006,0.203125,0.203125,-1.53125,760
497,1696260647582,0.6435547,-1.6177368,0.086120605,19.4375,-7.609375,-10.1875,761
498,1696260647622,0.6035156,-1.8723755,-0.0725708,10.578125,10.34375,5.9375,762
499,1696260647662,0.14916992,-0.8591919,-0.3015747,-0.890625,20.1875,-4.90625,763
500,1696260647702,0.5283203,-0.43927002,-0.19976807,0.328125,21.5625,7.265625,764
501,1696260647742,0.52490234,-0.9348755,-0.15142822,10.625,3.390625,0.46875,765
502,1696260647782,0.0925293,-0.9783325,-0.04058838,2.140625,4.96875,-3.234375,766
503,1696260647822,0.04272461,-0.6499634,-0.05621338,-8.921875,9.125,-7.515625,767
504,1696260647862,0.118652344,-0.5130005,-0.04840088,-4.046875,12.53125,-2.40625,768
505,1696260647902,0.13574219,-0.6309204,-0.06036377,-1.140625,11.96875,-3.6875,769
506,1696260647942,0.1303711,-0.6856079,-0.08013916,1.28125,11.78125,-3.234375,770
507,1696260647982,0.16210938,-0.81378174,-0.15679932,3.984375,10.5,-0.09375,771
508,1696260648022,0.28833008,-0.9717407,-0.04888916,1.203125,10.484375,0.4375,772
509,1696260648062,0.21411133,-1.0664673,-0.010070801,3.21875,7.703125,6.890625,773
510,1696260648102,0.14501953,-1.0127563,-0.046691895,0.65625,5.0625,6.84375,774
511,1696260648142,0.203125,-0.708313,-0.0256958,-5.578125,12.25,-4.421875,841
512,1696260648182,0.20776367,-0.6008911,-0.04840088,-4.5,6.75,1.984375,842
513,1696260648222,0.1640625,-0.6748657,-0.06719971,-0.875,5.734375,1.8125,843
514,1696260648262,0.25805664,-0.74713135,-0.04034424,0.578125,3.703125,-3.8125,844
515,1696260648302,0.17944336,-0.753479,-0.035217285,-0.546875,-2.71875,0.5,845
516,1696260648342,0.19848633,-0.9175415,-0.006652832,4.78125,-1.0625,4.234375,846
517,1696260648382,0.2614746,-0.99591064,-0.003967285,1.40625,1.640625,2.921875,847
518,1696260648422,0.23583984,-0.942688,0.014343262,3.625,0.671875,7.859375,848
519,1696260648462,0.16699219,-0.9956665,0.0067749023,0.5625,2.953125,4.1875,849
520,1696260648502,0.28881836,-1.0830688,0.014343262,-1.765625,4.046875,4.046875,850
521,1696260648542,0.43701172,-1.2044067,0.005554199,-4.765625,-1.421875,3.890625,851
522,1696260648582,0.4597168,-1.5161743,-0.10723877,-13.578125,-8.234375,4.484375,852
523,1696260648622,0.74072266,-1.4998169,-0.0725708,-9.703125,3.609375,1.21875,853
524,1696260648662,0.62280273,-1.0349731,-0.09307861,-1.609375,2.59375,10.5,854
525,1696260648702,0.41088867,-0.6165161,-0.013977051,1.25,-5.6875,8.171875,855
526,1696260648742,0.40625,-0.69659424,0.016052246,-4.859375,-10.734375,-1.65625,856
527,1696260648782,0.21923828,-0.89068604,0.09661865,0.78125,-5.265625,-7.90625,857
528,1696260648822,0.041992188,-0.5996704,-0.02545166,-6.734375,5.34375,-12.640625,858
529,1696260648862,0.2565918,-0.4685669,0.0446167,-12.109375,13.890625,1.078125,859
530,1696260648902,0.40673828,-0.59552,0.08685303,-4.34375,0.828125,2.21875,860
531,1696260648942,0.32299805,-0.7637329,0.09613037,1.109375,-5.046875,0.546875,861
532,1696260648982,0.30981445,-0.8892212,0.15887451,-1.265625,-1.796875,1.96875,862
533,1696260649022,0.29052734,-0.98931885,0.15228271,-0.25,3.171875,0.296875,863
534,1696260649062,0.25732422,-0.9209595,0.1005249,-1.9375,5.984375,-1.984375,864
535,1696260649102,0.25317383,-0.9234009,0.16864014,1.359375,10.109375,1.90625,865
536,1696260649142,0.27978516,-0.96759033,0.1305542,1.828125,7.203125,1.328125,866
537,1696260649182,0.35180664,-1.0686646,0.0770874,4.921875,6.109375,-1.734375,867
538,1696260649222,0.66552734,-1.367981,0.089538574,12.40625,-5.609375,-3.359375,868
539,1696260649262,0.7805176,-1.9151001,0.05731201,14.046875,-2.453125,-0.28125,869
540,1696260649302,0.27661133,-1.0947876,-0.15240479,3.46875,3.46875,-7.140625,870
541,1696260649342,0.30615234,-0.41705322,-0.24468994,-2.375,15.765625,-1.34375,871
542,1696260649382,0.53686523,-0.70758057,-0.10699463,1.546875,3.9375,-1.34375,872
543,1696260649422,0.296875,-1.1091919,-0.05596924,-8.625,-4.328125,-7.875,873
544,1696260649462,0.037109375,-0.798645,0.061706543,-3.109375,7.796875,-10.046875,874
545,1696260649502,0.18481445,-0.60162354,-0.032287598,0.3125,7.40625,-3.171875,875
546,1696260649542,0.18310547,-0.62091064,-0.0049438477,-0.53125,1.796875,-0.609375,876
547,1696260649582,0.11694336,-0.73101807,-0.06695557,2.25,1.71875,-4.078125,877
548,1696260649622,0.11230469,-0.7786255,-0.054016113,6.046875,3.328125,-1.90625,878
549,1696260649662,0.20410156,-0.9163208,-0.06036377,3.375,3.78125,-1.0625,879
550,1696260649702,0.2998047,-1.0325317,0.029968262,5.421875,1.015625,2.484375,880
551,1696260649742,0.20874023,-1.0588989,0.061706543,5.453125,1.203125,7.90625,881
552,1696260649782,0.22143555,-1.0715942,0.011657715,5.890625,-2.5625,7.09375,882
553,1696260649822,0.36254883,-1.1834106,0.0060424805,-2.984375,-10.015625,4.5625,883
554,1696260649862,0.3876953,-1.513977,-0.09918213,10.171875,-15.78125,5.265625,884
555,1696260649902,0.5163574,-1.6550903,-0.101379395,0.25,-6.890625,2.28125,885
556,1696260649942,0.6357422,-1.0418091,-0.12677002,-9.734375,5.65625,9.78125,886
557,1696260649982,0.5292969,-0.5588989,-0.1572876,-1.8125,-4.34375,13.40625,887
558,1696260650022,0.234375,-0.756897,-0.039123535,-3.796875,-14.9375,-4.90625,888
559,1696260650062,0.1965332,-0.88946533,0.0016479492,-5.03125,0.53125,-4.40625,889
560,1696260650102,0.18164062,-0.6589966,-0.0413208,-16.28125,8.90625,-13.546875,890
561,1696260650142,0.22753906,-0.5315552,0.008239746,-15.6875,10.703125,-5.25,891
562,1696260650182,0.3708496,-0.54571533,0.031677246,-11.078125,-0.6875,0.09375,892
563,1696260650222,0.28808594,-0.71173096,0.09661865,4.421875,-7.125,1.171875,893
564,1696260650262,0.2487793,-0.8442993,0.09954834,-0.5,-4.046875,1.84375,894
565,1696260650302,0.31469727,-0.9290161,0.120788574,0.265625,-0.890625,5.296875,895
566,1696260650342,0.24121094,-0.9829712,0.10443115,2.453125,1.078125,3.453125,896
567,1696260650382,0.2290039,-0.9807739,0.09222412,0.453125,3.0625,1.984375,897
568,1696260650422,0.22167969,-1.0130005,0.09515381,-0.828125,7.90625,1.375,898
569,1696260650462,0.3059082,-1.0667114,0.10491943,2.78125,13.890625,-0.078125,899
570,1696260650502,0.51708984,-1.2913208,0.03656006,4.546875,-4.0625,1.828125,900
571,1696260650542,0.8347168,-1.7598267,0.0680542,15.703125,6.296875,0.65625,901
572,1696260650582,0.26538086,-1.2505493,-0.13555908,-6.546875,8.515625,-4.421875,902
573,1696260650622,0.20043945,-0.45196533,-0.2288208,-5.578125,22.625,-0.59375,903
574,1696260650662,0.642334,-0.6843872,-0.10333252,2.625,15.328125,2.1875,904
575,1696260650702,0.39794922,-1.1316528,0.009216309,-7.21875,0.109375,-5.265625,905
576,1696260650742,0.119140625,-0.7678833,0.014587402,-5.140625,-3.0625,-10.09375,906
577,1696260650782,0.052978516,-0.6279907,-0.06451416,-4.875,0.359375,-6.09375,907
578,1696260650822,0.16235352,-0.7337036,-0.016418457,-9.328125,3.328125,-7.828125,908
579,1696260650862,0.1730957,-0.72784424,-0.030334473,-2.25,5.59375,-5.140625,909
580,1696260650902,0.15551758,-0.64923096,0.008972168,2.53125,2.125,-2.75,910
581,1696260650942,0.21484375,-0.784729,-0.021057129,2.359375,0.6875,3.109375,911
582,1696260650982,0.25512695,-0.96466064,0.08709717,5.328125,-0.578125,1.46875,912
583,1696260651022,0.24072266,-1.0383911,0.077819824,6.84375,-2.4375,5.765625,913
584,1696260651062,0.24291992,-1.0361938,0.061706543,6.90625,-5.265625,12.109375,914
585,1696260651102,0.27148438,-1.1189575,0.010681152,4.640625,-10.234375,7.75,915
586,1696260651142,0.37402344,-1.4197388,-0.093322754,-3.515625,-7.265625,7.859375,916
587,1696260651182,0.6335449,-1.796936,0.0040893555,-12.421875,-5.28125,3.578125,917
588,1696260651222,0.5827637,-1.242981,-0.011047363,-5.59375,0.53125,8.3125,918
589,1696260651262,0.44189453,-0.7583618,-0.14385986,8.75,-5.203125,6.890625,919
590,1696260651302,0.36279297,-0.6675415,-0.10015869,-1.109375,-5.28125,-4.03125,920
591,1696260651342,0.2998047,-0.81500244,0.059020996,-0.09375,-3.8125,1.171875,921
592,1696260651382,0.111083984,-0.6682739,0.0079956055,-4.484375,-0.21875,-9.875,922
593,1696260651422,0.15258789,-0.43267822,0.029968262,-16.0,14.25,-8.515625,923
594,1696260651462,0.37426758,-0.5010376,0.08074951,-7.65625,6.515625,-0.78125,924
595,1696260651502,0.37719727,-0.7156372,0.13616943,1.109375,-3.9375,-3.359375,925
596,1696260651542,0.26220703,-0.9517212,0.070739746,1.0,-6.046875,-2.03125,926
597,1696260651582,0.2956543,-1.0432739,0.14788818,-2.59375,-1.515625,0.625,927
598,1696260651622,0.22827148,-0.99224854,0.13275146,-0.28125,-1.65625,-0.28125,928
599,1696260651662,0.21533203,-0.8772583,0.13446045,2.484375,4.765625,-3.625,929
600,1696260651702,0.2163086,-0.8826294,0.16888428,2.875,7.140625,-1.765625,930
601,1696260651742,0.18945312,-0.99005127,0.1539917,12.015625,9.578125,1.578125,931
602,1696260651782,0.3840332,-1.144104,-0.042297363,5.84375,0.515625,-0.59375,932
603,1696260651822,0.83154297,-1.6709595,0.054626465,34.203125,-3.875,-8.21875,933
604,1696260651862,0.32983398,-1.6948853,-0.10870361,12.15625,14.859375,5.8125,934
605,1696260651902,0.087402344,-0.7539673,-0.38531494,-16.25,23.84375,-1.328125,935
606,1696260651942,0.55444336,-0.522522,-0.20684814,2.90625,23.34375,-1.171875,936
607,1696260651982,0.48608398,-1.0195923,-0.069885254,-1.75,8.546875,-3.265625,937
608,1696260652022,0.114990234,-0.89801025,-0.019104004,-2.65625,4.421875,-0.4375,938
609,1696260652062,0.018066406,-0.6140747,-0.0725708,-9.609375,1.46875,-4.875,939
610,1696260652102,0.14477539,-0.5195923,-0.08721924,-1.90625,9.28125,-0.6875,940
611,1696260652142,0.21362305,-0.65338135,-0.09918213,-0.875,6.015625,-0.921875,941
612,1696260652182,0.11767578,-0.74786377,-0.12335205,7.859375,7.1875,1.53125,942
613,1696260652222,0.17578125,-0.8233032,-0.12310791,6.578125,3.171875,0.4375,943
614,1696260652262,0.27197266,-0.9673462,-0.047668457,3.53125,3.65625,3.171875,944
615,1696260652302,0.4716797,-1.5237427,-0.19903564,-16.5625,-6.828125,-0.1875,1021
616,1696260652342,0.9494629,-1.4031372,0.016784668,-8.65625,11.0,2.1875,1022
617,1696260652382,0.515625,-0.78204346,-0.16534424,1.515625,-7.703125,15.71875,1023
618,1696260652422,0.23901367,-0.47174072,-0.081848145,-5.84375,-4.65625,-2.90625,1024
619,1696260652462,0.32666016,-0.8777466,0.035339355,-9.546875,-2.203125,-8.203125,1025
620,1696260652502,0.2602539,-0.8875122,0.040222168,-5.625,4.984375,-10.859375,1026
621,1696260652542,0.2800293,-0.54644775,0.039245605,-9.796875,7.421875,-7.375,1027
622,1696260652582,0.3203125,-0.5652466,0.0446167,-6.25,-0.6875,1.859375,1028
623,1696260652622,0.2578125,-0.6482544,0.058532715,-1.5625,-2.78125,-2.9375,1029
624,1696260652662,0.24536133,-0.7390747,0.10467529,2.21875,-1.4375,-2.203125,1030
625,1696260652702,0.30444336,-0.89068604,0.09588623,1.25,-3.0,0.609375,1031
626,1696260652742,0.20947266,-1.0444946,0.09173584,-0.296875,-3.765625,-5.046875,1032
627,1696260652782,0.22631836,-1.0195923,0.14324951,-0.96875,11.5625,-5.859375,1033
628,1696260652822,0.39038086,-0.956604,0.11639404,3.921875,11.09375,0.078125,1034
629,1696260652862,0.2734375,-0.9758911,0.10272217,11.5,10.265625,1.046875,1035
630,1696260652902,0.31298828,-1.1387329,-0.06549072,3.828125,-3.0,-4.6875,1036
631,1696260652942,0.7919922,-1.487854,-0.011291504,16.875,-4.765625,-9.640625,1037
632,1696260652982,0.46948242,-1.5449829,-0.043029785,7.53125,4.53125,11.859375,1038
633,1696260653022,0.100097656,-0.81817627,-0.32183838,-5.34375,10.8125,-1.9375,1039
634,1696260653062,0.3955078,-0.51348877,-0.20074463,6.09375,16.484375,1.21875,1040
635,1696260653102,0.43115234,-0.9468384,-0.13677979,6.3125,4.640625,1.046875,1041
636,1696260653142,0.1459961,-0.89190674,-0.097717285,3.9375,2.21875,4.71875,1042
637,1696260653182,0.18115234,-0.7918091,-0.023742676,5.796875,3.875,-2.28125,1043
638,1696260653222,0.10571289,-0.8303833,-0.08355713,-7.578125,8.421875,-2.59375,1044
639,1696260653262,0.22070312,-0.7197876,-0.050109863,-9.515625,8.5625,-1.265625,1045
640,1696260653302,0.13647461,-0.645813,-0.093811035,-4.296875,4.828125,-2.09375,1046
641,1696260653342,0.092285156,-0.7493286,-0.13531494,1.75,3.28125,-4.84375,1047
642,1696260653382,0.25878906,-0.9365845,-0.043273926,-0.265625,1.4375,-2.984375,1048
643,1696260653422,0.2211914,-1.0366821,-0.027160645,-2.640625,1.390625,3.53125,1049
644,1696260653462,0.18676758,-1.0081177,-0.024719238,0.984375,0.1875,0.109375,1050
645,1696260653502,0.24609375,-1.0733032,-0.021057129,-5.203125,-3.328125,-2.359375,1051
646,1696260653542,0.30786133,-1.2654419,-0.0869751,-0.546875,-12.4375,0.75,1052
647,1696260653582,0.46557617,-1.6152954,-0.17559814,-6.0625,-1.609375,4.09375,1053
648,1696260653622,0.5895996,-1.3855591,-0.008850098,-4.234375,1.40625,0.25,1054
649,1696260653662,0.38208008,-1.0552368,-0.24810791,-12.375,-2.75,7.765625,1055
650,1696260653702,0.46875,-0.70196533,-0.061828613,-10.46875,6.234375,4.828125,1056
651,1696260653742,0.45507812,-0.8335571,0.13983154,-11.90625,-2.28125,1.90625,1057
652,1696260653782,0.19677734,-0.89068604,0.054626465,-11.015625,-5.375,-3.953125,1058
653,1696260653822,0.13671875,-0.61187744,-0.007873535,-14.625,9.953125,-12.109375,1059
654,1696260653862,0.12451172,-0.52178955,-0.062316895,-16.09375,14.96875,-6.296875,1060
655,1696260653902,0.2993164,-0.5725708,0.074645996,-4.140625,7.59375,-0.640625,1061
656,1696260653942,0.35498047,-0.70025635,0.070739746,-2.78125,-2.640625,0.390625,1062
657,1696260653982,0.35766602,-0.7949829,0.11859131,3.4375,-9.015625,4.9375,1063
658,1696260654022,0.24389648,-0.9234009,0.13470459,8.421875,-11.78125,7.546875,1064
659,1696260654062,0.21533203,-0.99420166,0.12835693,8.890625,-5.671875,2.484375,1065
660,1696260654102,0.21459961,-1.0003052,0.11077881,4.734375,-1.84375,-0.0625,1066
661,1696260654142,0.26367188,-0.9944458,0.16912842,3.96875,3.703125,1.140625,1067
662,1696260654182,0.21899414,-1.0535278,0.09906006,2.6875,4.484375,1.4375,1068
663,1696260654222,0.41381836,-1.2310181,-0.10626221,2.90625,-15.34375,-2.5625,1069
664,1696260654262,0.80078125,-1.5923462,0.15545654,4.4375,-11.265625,-2.328125,1070
665,1696260654302,0.29492188,-1.5442505,-0.028137207,2.53125,7.140625,15.515625,1071
666,1696260654342,0.20874023,-0.62286377,-0.27178955,-10.796875,23.828125,1.640625,1072
667,1696260654382,0.625,-0.553772,-0.1494751,5.71875,7.296875,4.484375,1073
668,1696260654422,0.38110352,-1.0515747,0.00970459,-0.078125,-3.046875,-2.03125,1074
669,1696260654462,0.16992188,-0.93414307,-0.014465332,4.453125,-4.3125,-2.0,1075
670,1696260654502,0.09472656,-0.62091064,-0.015197754,3.5625,-1.203125,-4.9375,1076
671,1696260654542,0.18359375,-0.6643677,-0.035949707,-1.078125,0.546875,1.0,1077
672,1696260654582,0.19140625,-0.63531494,0.01751709,5.953125,0.6875,-0.890625,1078
673,1696260654622,0.1352539,-0.66363525,-0.057678223,7.34375,-4.09375,2.84375,1079
674,1696260654662,0.15625,-0.81134033,0.0048217773,5.234375,-1.625,4.453125,1080
675,1696260654702,0.2536621,-1.0007935,0.017028809,3.46875,-4.640625,4.5625,1081
676,1696260654742,0.2265625,-1.0806274,0.023376465,5.140625,-0.75,7.828125,1082
677,1696260654782,0.26586914,-1.0588989,0.03338623,0.796875,1.0625,4.53125,1083
678,1696260654822,0.29711914,-1.1514282,0.054626465,-1.78125,1.0625,5.21875,1084
679,1696260654862,0.15551758,-1.2874146,-0.07086182,-7.0625,6.640625,1.359375,1085
680,1696260654902,0.51123047,-1.3626099,-0.17266846,-12.546875,1.84375,1.9375,1086
681,1696260654942,0.90527344,-1.4595337,-0.08770752,-5.15625,-2.84375,-2.140625,1087
682,1696260654982,0.56811523,-1.1279907,-0.113098145,0.421875,2.28125,11.484375,1088
683,1696260655022,0.36987305,-0.67437744,-0.06866455,3.796875,0.109375,-0.84375,1089
684,1696260655062,0.57714844,-0.6001587,0.09173584,4.203125,-3.625,-0.15625,1090
685,1696260655102,0.22045898,-0.8657837,0.038757324,2.78125,-12.390625,1.40625,1091
686,1696260655142,-0.013183594,-0.6760864,-0.0095825195,-6.21875,8.453125,-14.34375,1092
687,1696260655182,0.23901367,-0.5010376,0.03729248,-9.609375,13.4375,-3.5,1093
688,1696260655222,0.33911133,-0.56915283,0.030456543,-7.09375,9.828125,-0.03125,1094
689,1696260655262,0.3137207,-0.673645,0.046325684,0.328125,0.5625,3.4375,1095
690,1696260655302,0.29077148,-0.8591919,0.07952881,1.0625,-3.6875,2.953125,1096
691,1696260655342,0.36108398,-1.0527954,0.042175293,1.3125,-3.3125,0.984375,1097
692,1696260655382,0.30371094,-0.96881104,0.11785889,2.265625,1.34375,2.484375,1098
693,1696260655422,0.24902344,-0.9993286,0.1161499,3.625,2.3125,4.484375,1099
694,1696260655462,0.24975586,-1.0088501,0.055847168,8.109375,7.21875,0.8125,1100
695,1696260655502,0.42285156,-1.1199341,-0.0178833,6.859375,1.46875,-3.609375,1101
696,1696260655542,0.72753906,-1.565979,-0.050354004,12.984375,-9.53125,-12.453125,1102
697,1696260655582,0.5576172,-1.6026001,-0.10479736,9.609375,13.6875,5.234375,1103
698,1696260655622,0.12451172,-0.85235596,-0.3501587,-11.9375,14.484375,-7.21875,1104
699,1696260655662,0.3955078,-0.53497314,-0.22906494,1.703125,21.390625,-3.515625,1105
700,1696260655702,0.4267578,-1.0244751,-0.11871338,-1.421875,9.75,-8.109375,1106
701,1696260655742,0.24584961,-0.90704346,-0.08843994,-8.03125,3.859375,-1.65625,1107
702,1696260655782,0.12060547,-0.6194458,-0.08428955,-0.515625,2.609375,-1.796875,1108
703,1696260655822,0.19580078,-0.5964966,-0.094055176,-0.4375,-2.171875,-4.15625,1109
704,1696260655862,0.14404297,-0.6807251,-0.15533447,-0.078125,0.203125,-2.015625,1110
705,1696260655902,0.19458008,-0.6878052,-0.14996338,7.640625,0.234375,-0.125,1111
706,1696260655942,0.20874023,-0.78790283,-0.10064697,8.640625,-0.125,5.125,1112
707,1696260655982,0.2578125,-0.8406372,-0.036193848,5.0625,-4.78125,6.625,1113
708,1696260656022,0.27001953,-0.9126587,-0.06817627,7.71875,-18.78125,7.125,1114
709,1696260656062,0.26098633,-1.0845337,-0.053527832,6.609375,-16.984375,1.71875,1115
710,1696260656102,0.39233398,-1.2932739,-0.02520752,-9.84375,-14.234375,-1.3125,1116
711,1696260656142,0.38330078,-1.4868774,-0.14093018,-3.859375,-16.203125,7.390625,1117
712,1696260656182,0.49804688,-1.508606,-0.16705322,-1.703125,-21.84375,11.921875,1118
713,1696260656222,0.90112305,-1.0369263,-0.05279541,-1.6875,1.875,14.5,1119
714,1696260656262,0.28759766,-0.7564087,-0.253479,8.25,-18.09375,9.828125,1120
715,1696260656302,0.18066406,-0.77301025,-0.09527588,-5.34375,-5.1875,-9.984375,1121
716,1696260656342,0.24951172,-0.8088989,-0.055480957,-9.8125,3.640625,3.28125,1122
717,1696260656382,0.23510742,-0.6704712,0.0138549805,-15.921875,7.4375,-10.8125,1123
718,1696260656422,0.24975586,-0.5252075,0.021911621,-21.265625,13.28125,-0.828125,1124
719,1696260656462,0.38256836,-0.5015259,-0.008361816,-14.796875,-0.578125,-1.078125,1125
720,1696260656502,0.33154297,-0.65997314,0.06903076,-1.890625,-9.390625,-1.328125,1126
721,1696260656542,0.21582031,-0.95928955,0.09857178,-2.34375,-0.703125,0.25,1127
722,1696260656582,0.27612305,-0.9702759,0.09490967,-6.71875,8.453125,3.140625,1128
723,1696260656622,0.22851562,-0.89971924,0.03289795,-5.46875,12.453125,4.921875,1129
724,1696260656662,0.32641602,-0.89068604,0.10858154,-5.5625,15.234375,4.59375,1130
725,1696260656702,0.32055664,-0.954895,0.121520996,-5.03125,13.328125,7.546875,1131
726,1696260656742,0.29345703,-1.0027466,0.13348389,-3.0625,13.59375,6.515625,1132
727,1696260656782,0.31030273,-1.0671997,0.15423584,-5.03125,16.578125,-2.0,1133
728,1696260656822,0.4555664,-1.3474731,-0.00982666,-4.109375,16.078125,-9.640625,1134
729,1696260656862,0.7614746,-1.6484985,0.07122803,1.90625,26.40625,-0.703125,1135
730,1696260656902,0.5148926,-1.2503052,-0.078430176,-1.640625,25.90625,-1.875,1136
731,1696260656942,0.33813477,-0.49639893,-0.20269775,-4.765625,28.71875,0.578125,1137
732,1696260656982,0.38134766,-0.65582275,-0.14776611,2.21875,15.953125,0.984375,1138
733,1696260657022,0.3449707,-1.2044067,-0.0020141602,-0.484375,10.015625,-8.28125,1139
734,1696260657062,0.1899414,-0.8701782,-0.038635254,3.390625,14.0,-9.1875,1140
735,1696260657102,0.17407227,-0.59259033,-0.06573486,2.3125,13.546875,-3.078125,1141
736,1696260657142,0.15527344,-0.6223755,-0.0803833,0.875,9.671875,-1.03125,1142
737,1696260657182,0.18432617,-0.6567993,-0.12652588,6.9375,14.578125,-4.109375,1143
738,1696260657222,0.2836914,-0.69537354,-0.11260986,2.828125,12.453125,1.390625,1144
739,1696260657262,0.29907227,-0.8838501,-0.035461426,7.640625,13.625,3.5625,1145
740,1696260657302,0.15942383,-0.99224854,-0.03668213,3.75,5.328125,4.890625,1146
741,1696260657342,0.14233398,-0.93927,-0.10284424,1.703125,7.609375,5.3125,1147
742,1696260657382,0.17456055,-0.9837036,-0.09820557,0.390625,13.1875,4.546875,1148
743,1696260657422,0.31054688,-0.95147705,-0.10308838,-0.578125,12.875,8.5625,1149
744,1696260657462,0.37963867,-0.96173096,-0.002746582,-3.5,0.875,8.390625,1150
