# Sensor type: Respeck
# Activity type: Miscellaneous movements
# Activity subtype: Normal
# Subject id: s2093603
# Notes: unprocessed
timestamp,accel_x,accel_y,accel_z,gyro_x,gyro_y,gyro_z
1696241872049,0.27612305,-1.4038696,-0.15240479,-17.375,-7.734375,-65.3125
1696241872098,-0.036376953,-1.9595337,0.11273193,-34.578125,-0.015625,-81.09375
1696241872140,-0.29077148,-2.0,0.15447998,-49.609375,-9.625,-64.421875
1696241872168,-0.51660156,-2.0,0.28582764,-32.015625,-10.4375,-79.703125
1696241872214,-1.050293,-1.3892212,0.2501831,-39.140625,1.1875,-84.3125
1696241872244,-0.5644531,-0.67193604,0.26312256,-40.65625,13.40625,-57.765625
1696241872289,-0.20288086,-0.61724854,0.12347412,-41.578125,14.359375,-49.8125
1696241872333,0.008300781,-0.27423096,0.1774292,-24.734375,9.765625,-40.578125
1696241872364,-0.19018555,-0.07501221,0.1083374,-10.34375,-15.375,-37.15625
1696241872409,-0.5053711,-0.20562744,0.2020874,-12.984375,-6.96875,-23.484375
1696241872454,-0.41870117,-0.50616455,0.29241943,-14.890625,-3.03125,-25.609375
1696241872483,-0.4790039,-0.78253174,0.33099365,-12.4375,-10.640625,-27.75
1696241872529,-0.8703613,-0.94488525,0.39593506,-19.03125,-11.3125,-38.234375
1696241872574,-1.0515137,-0.958313,0.539978,-32.125,5.203125,-43.625
1696241872604,-1.2536621,-0.9854126,0.51849365,-38.234375,7.484375,-43.21875
1696241872649,-1.0856934,-0.85235596,0.64471436,-36.9375,26.375,-31.21875
1696241872694,-1.0007324,-0.5784302,0.5175171,-28.015625,33.1875,-25.625
1696241872723,-0.9423828,-0.395813,0.64398193,-21.0625,29.625,-13.515625
1696241872769,-0.6657715,-0.38580322,0.508728,-13.671875,21.734375,-7.296875
1696241872814,-0.6447754,-0.4102173,0.52557373,-4.578125,12.09375,-5.984375
1696241872844,-0.7475586,-0.32720947,0.51116943,-4.265625,11.578125,-8.53125
1696241872889,-0.69384766,-0.27789307,0.56536865,-7.734375,18.140625,-8.4375
1696241872919,-0.63061523,-0.26983643,0.6588745,-9.421875,15.796875,-4.1875
1696241872964,-0.6594238,-0.32574463,0.7362671,-7.953125,10.9375,-2.0
1696241873009,-0.7871094,-0.35455322,0.7640991,-4.234375,8.796875,-0.25
1696241873039,-0.69677734,-0.3399048,0.79608154,-3.921875,6.453125,4.25
1696241873084,-0.7373047,-0.36480713,0.8109741,9.046875,-7.609375,12.40625
1696241873129,-0.7963867,-0.34088135,0.81951904,17.78125,-8.546875,24.65625
1696241873159,-0.73535156,-0.39483643,0.8270874,18.953125,-15.359375,33.15625
1696241873204,-0.77563477,-0.47564697,0.71087646,26.515625,-11.671875,37.296875
1696241873249,-0.65185547,-0.55841064,0.60736084,34.0,-16.1875,39.15625
1696241873279,-0.7993164,-0.7192993,0.6911011,38.75,-3.609375,46.421875
1696241873324,-0.795166,-0.8152466,0.51971436,39.4375,2.09375,43.3125
1696241873369,-0.55249023,-0.80963135,0.5026245,36.578125,3.890625,40.296875
1696241873399,-0.4909668,-0.8081665,0.4232788,36.859375,-7.015625,43.265625
1696241873444,-0.55249023,-0.739563,0.3475952,33.859375,-5.015625,42.0625
1696241873489,-0.40893555,-0.7647095,0.35516357,34.9375,-0.84375,45.046875
1696241873519,-0.39916992,-0.80010986,0.24700928,35.59375,-1.984375,44.828125
1696241873565,-0.32495117,-0.8323364,0.23626709,36.34375,-2.875,44.0625
1696241873609,-0.27661133,-0.8718872,0.19329834,37.578125,-5.96875,44.9375
1696241873639,-0.22729492,-0.8909302,0.15423584,35.09375,-2.40625,46.40625
1696241873684,-0.1459961,-0.91973877,0.11199951,39.875,-0.609375,52.09375
1696241873714,-0.0637207,-0.98101807,0.054626465,40.0625,1.265625,56.90625
1696241873759,-0.024902344,-1.0481567,0.018005371,43.671875,1.90625,59.71875
1696241873804,0.020263672,-0.9993286,-0.11993408,46.484375,4.0,56.328125
1696241873834,0.1538086,-0.91290283,-0.11846924,47.421875,6.8125,59.4375
1696241873879,0.25341797,-0.83599854,-0.16802979,48.796875,-1.359375,62.484375
1696241873924,0.37451172,-0.8518677,-0.34405518,49.71875,-1.5,60.53125
1696241873954,0.3876953,-0.866272,-0.4043579,50.71875,1.421875,60.921875
1696241873999,0.4099121,-0.77789307,-0.4500122,40.875,11.203125,46.15625
1696241874044,0.5317383,-0.66241455,-0.48028564,21.578125,7.25,41.1875
1696241874074,0.8496094,-0.61260986,-0.5964966,32.90625,1.84375,42.96875
1696241874118,0.74438477,-0.798645,-0.6333618,32.46875,-9.125,27.390625
1696241874164,0.7609863,-0.75079346,-0.7905884,18.3125,-7.484375,22.8125
1696241874195,1.0432129,-0.73931885,-0.8694458,2.8125,-2.59375,14.359375
1696241874239,1.0722656,-0.6843872,-0.7017212,-0.15625,0.015625,-1.40625
1696241874284,0.8288574,-0.59820557,-0.70318604,2.21875,-1.96875,-18.90625
1696241874314,0.779541,-0.5869751,-0.58917236,-13.40625,-2.421875,-23.90625
1696241874359,0.70092773,-0.6135864,-0.5803833,-17.390625,-11.1875,-26.375
1696241874404,0.59936523,-0.6782837,-0.49346924,-24.953125,2.6875,-30.421875
1696241874449,0.6281738,-0.64263916,-0.4024048,-25.75,1.96875,-37.640625
1696241874479,0.47875977,-0.55255127,-0.38116455,-24.484375,-4.75,-47.0
1696241874509,0.34277344,-0.5076294,-0.27252197,-32.53125,0.59375,-47.90625
1696241874554,0.33544922,-0.44171143,-0.25665283,-35.25,-8.328125,-49.53125
1696241874599,0.2578125,-0.38165283,-0.21685791,-37.65625,-6.625,-49.875
1696241874629,0.32226562,-0.31304932,-0.13702393,-32.9375,-5.859375,-45.875
1696241874674,0.19848633,-0.2468872,-0.17071533,-26.71875,-16.3125,-41.015625
1696241874719,0.12182617,-0.35601807,-0.25299072,-23.3125,-19.859375,-26.953125
1696241874749,0.24707031,-0.59869385,-0.2835083,-21.09375,-20.96875,-14.078125
1696241874794,0.3935547,-1.0752563,-0.2769165,-7.703125,-35.296875,-10.859375
1696241874839,0.20092773,-1.5947876,-0.19830322,7.640625,-39.609375,-16.828125
1696241874869,-0.04736328,-1.1768188,-0.05255127,11.125,-38.484375,-10.625
1696241874914,-0.1262207,-0.881897,-0.12408447,9.21875,-26.390625,-9.03125
1696241874959,-0.010009766,-0.8320923,-0.19708252,11.90625,-31.71875,-2.25
1696241874989,0.2685547,-0.97247314,-0.18170166,12.015625,-33.828125,7.1875
1696241875034,0.20483398,-0.93048096,-0.2144165,13.53125,-48.09375,2.4375
1696241875109,0.10058594,-0.94195557,-0.2210083,12.609375,-47.640625,4.1875
1696241875111,0.06274414,-0.9397583,-0.23468018,13.203125,-42.75,5.453125
1696241875154,0.22094727,-0.9607544,-0.24639893,17.296875,-43.6875,10.078125
1696241875184,0.21606445,-0.9348755,-0.2637329,23.078125,-48.875,5.9375
1696241875229,0.5048828,-0.8128052,-0.24761963,26.28125,-43.34375,14.796875
1696241875274,0.49291992,-0.70147705,-0.02178955,34.375,-44.515625,14.90625
1696241875304,0.12695312,-0.81207275,-0.11895752,22.65625,-54.109375,8.6875
1696241875349,-0.084228516,-1.0144653,-0.1843872,23.09375,-19.28125,2.53125
1696241875394,0.28442383,-0.75250244,-0.13214111,26.28125,8.9375,19.109375
1696241875424,0.5686035,-0.44317627,-0.06085205,28.53125,2.390625,28.625
1696241875469,0.48242188,-0.47442627,-0.09649658,30.90625,-21.46875,20.765625
1696241875514,0.27441406,-0.60650635,-0.12774658,37.703125,-23.3125,13.609375
1696241875544,0.24194336,-0.53082275,-0.36773682,42.03125,-23.234375,15.4375
1696241875589,0.55908203,-0.5003052,-0.28179932,34.484375,-10.984375,19.171875
1696241875634,0.18701172,-0.8994751,-0.31427002,29.390625,4.9375,-3.265625
1696241875664,0.32495117,-0.7608032,-0.47296143,34.0625,7.609375,5.171875
1696241875709,0.59228516,-0.552063,-0.3867798,20.640625,-1.8125,18.0
1696241875754,0.5847168,-0.74005127,-0.45855713,27.46875,-8.859375,14.78125
1696241875784,0.3173828,-0.65093994,-0.54156494,20.578125,-8.6875,3.34375
1696241875829,0.5361328,-0.6560669,-0.3887329,2.875,4.875,9.75
1696241875874,0.70092773,-0.788147,-0.5576782,3.40625,-8.28125,7.5
1696241875904,0.66137695,-0.6963501,-0.51812744,10.859375,-5.28125,5.25
1696241875949,0.55566406,-0.767395,-0.5952759,-1.640625,1.5,1.8125
1696241875979,0.65649414,-0.67559814,-0.536438,-2.875,10.265625,9.671875
1696241876024,0.79663086,-0.61505127,-0.6018677,5.828125,-4.03125,8.1875
1696241876069,0.6550293,-0.6362915,-0.5835571,3.984375,2.046875,8.234375
1696241876099,0.65625,-0.6140747,-0.62579346,0.6875,-4.203125,9.375
1696241876144,0.88720703,-0.70440674,-0.72076416,2.765625,-1.5625,8.15625
1696241876189,0.83032227,-0.7305298,-0.7493286,4.421875,2.296875,1.921875
1696241876219,0.75561523,-0.71661377,-0.7539673,-0.90625,2.046875,-1.9375
1696241876264,0.8586426,-0.7485962,-0.7349243,-4.15625,1.9375,0.90625
1696241876309,0.85131836,-0.74053955,-0.8081665,-4.359375,3.046875,-1.484375
1696241876339,0.8474121,-0.7359009,-0.7476196,-6.296875,5.453125,-1.03125
1696241876384,0.84472656,-0.72442627,-0.79766846,-7.34375,4.890625,-0.9375
1696241876429,0.873291,-0.71343994,-0.7163696,-9.09375,6.890625,0.390625
1696241876459,0.76464844,-0.73931885,-0.70977783,-7.03125,3.890625,-2.734375
1696241876504,0.76293945,-0.7427368,-0.64019775,-12.109375,5.390625,-4.078125
1696241876549,0.7492676,-0.7190552,-0.61846924,-13.796875,3.515625,-7.0625
1696241876579,0.6418457,-0.72979736,-0.597229,-15.640625,4.1875,-14.109375
1696241876624,0.6374512,-0.737854,-0.54156494,-17.921875,5.234375,-15.828125
1696241876654,0.5727539,-0.7930298,-0.54034424,-22.890625,2.703125,-16.234375
1696241876699,0.62939453,-0.83013916,-0.4685669,-22.546875,6.96875,-16.390625
1696241876744,0.51293945,-0.86260986,-0.46783447,-26.0625,2.875,-18.625
1696241876774,0.48242188,-0.8550415,-0.42340088,-24.65625,7.671875,-16.015625
1696241876819,0.46923828,-0.8406372,-0.36138916,-27.453125,7.34375,-16.796875
1696241876863,0.4387207,-0.8609009,-0.34136963,-29.671875,4.21875,-18.890625
1696241876893,0.28442383,-0.8345337,-0.2588501,-22.3125,3.421875,-20.46875
1696241876939,0.12597656,-0.5706177,-0.12872314,-9.5625,5.90625,-20.78125
1696241876984,-0.0068359375,-0.08648682,-0.12237549,-12.421875,-2.71875,-17.46875
1696241877014,0.057373047,0.2658081,-0.11651611,-20.890625,-2.484375,-14.046875
1696241877059,0.20166016,-0.058654785,-0.23297119,-17.8125,-5.65625,-13.046875
1696241877104,0.25439453,-0.5076294,-0.1519165,-18.171875,-6.140625,-5.703125
1696241877134,0.25805664,-0.9690552,-0.26934814,-10.921875,-8.625,-2.4375
1696241877179,0.30151367,-1.3318481,-0.25079346,1.140625,-1.40625,-11.09375
1696241877224,0.31933594,-1.0652466,-0.19805908,2.90625,0.390625,-3.109375
1696241877254,0.2692871,-0.8296509,-0.18902588,3.84375,-6.0625,-1.171875
1696241877299,0.22387695,-0.928772,-0.2444458,6.171875,-7.234375,0.78125
1696241877344,0.22485352,-0.7786255,-0.27642822,8.71875,4.1875,6.15625
1696241877374,0.2529297,-0.550354,-0.2263794,16.21875,6.84375,12.71875
1696241877419,0.25268555,-0.47027588,-0.22686768,21.328125,-0.140625,20.515625
1696241877449,0.22753906,-0.52349854,-0.18292236,20.53125,0.21875,22.609375
1696241877494,0.2607422,-0.5269165,-0.1963501,24.59375,-3.203125,23.65625
1696241877539,0.14038086,-0.47564697,-0.15875244,19.4375,-1.34375,22.796875
1696241877569,0.16503906,-0.45269775,-0.25274658,22.375,2.453125,19.421875
1696241877614,0.27197266,-0.54156494,-0.32110596,13.03125,8.84375,20.609375
1696241877658,0.6003418,-0.65948486,-0.29107666,20.375,3.34375,19.125
1696241877689,0.37841797,-0.8101196,-0.4295044,16.546875,-9.9375,17.34375
1696241877734,0.42700195,-0.7554321,-0.3538208,13.921875,3.46875,11.234375
1696241877779,0.50439453,-0.74053955,-0.4595337,9.46875,1.046875,9.84375
1696241877809,0.5427246,-0.6790161,-0.52349854,4.65625,0.734375,13.5
1696241877854,0.77783203,-0.81744385,-0.4841919,11.28125,-4.8125,12.328125
1696241877898,0.4975586,-0.8201294,-0.6045532,10.53125,-5.71875,3.171875
1696241877929,0.5229492,-0.7268677,-0.6001587,1.453125,8.859375,4.046875
1696241877974,0.88623047,-0.70269775,-0.59942627,-1.796875,1.515625,21.796875
1696241878019,0.78149414,-0.7197876,-0.6231079,9.671875,-13.75,13.296875
1696241878049,0.67749023,-0.75860596,-0.72979736,3.125,-1.609375,0.953125
1696241878094,0.8190918,-0.7234497,-0.65093994,2.265625,-2.46875,14.578125
1696241878139,0.8027344,-0.8340454,-0.7036743,1.4375,-6.78125,5.890625
1696241878169,0.9284668,-0.829895,-0.6807251,-3.546875,-0.71875,6.609375
1696241878214,0.9597168,-0.8604126,-0.7124634,-2.796875,-1.65625,1.5625
1696241878244,0.9428711,-0.8118286,-0.68878174,-8.828125,1.3125,-2.890625
1696241878289,0.8479004,-0.8218384,-0.706604,-7.625,5.359375,-4.859375
1696241878334,0.8925781,-0.75079346,-0.65802,-6.578125,8.484375,-0.0625
1696241878364,0.8352051,-0.74468994,-0.6074829,-4.34375,4.671875,-1.546875
1696241878409,0.7519531,-0.83477783,-0.6045532,-7.359375,6.53125,-3.859375
1696241878454,0.7175293,-0.7774048,-0.538147,-9.265625,10.125,-6.96875
1696241878484,0.74902344,-0.723938,-0.5108032,-6.5625,3.71875,-6.421875
1696241878529,0.5776367,-0.7542114,-0.4524536,-9.1875,3.1875,-12.9375
1696241878574,0.52734375,-0.7786255,-0.49542236,-14.03125,5.453125,-14.25
1696241878604,0.5715332,-0.7803345,-0.45806885,-15.3125,5.546875,-14.8125
1696241878649,0.5263672,-0.8154907,-0.46514893,-17.359375,5.03125,-15.640625
1696241878694,0.5427246,-0.7901001,-0.40899658,-18.15625,5.78125,-14.078125
1696241878724,0.51123047,-0.7859497,-0.35601807,-16.1875,0.84375,-16.421875
1696241878769,0.42138672,-0.77789307,-0.34625244,-17.640625,-1.546875,-17.296875
1696241878814,0.3256836,-0.80059814,-0.300354,-17.578125,1.640625,-17.09375
1696241878843,0.28833008,-0.7053833,-0.27716064,-19.90625,4.765625,-16.890625
1696241878889,0.3317871,-0.5889282,-0.15875244,-21.234375,4.578125,-14.984375
1696241878919,0.15356445,-0.41241455,-0.14239502,-12.484375,-6.109375,-15.6875
1696241878964,-0.06274414,-0.16656494,-0.16925049,-13.625,-1.625,-14.15625
1696241879009,0.15722656,-0.12335205,-0.19708252,-19.921875,6.1875,-8.71875
1696241879039,0.31347656,-0.42388916,-0.22808838,-19.765625,4.6875,-4.984375
1696241879084,0.30273438,-0.89727783,-0.23712158,-15.375,-0.46875,-3.609375
1696241879129,0.34570312,-1.3963013,-0.25738525,-9.71875,-1.96875,-4.625
1696241879160,0.328125,-1.2051392,-0.19683838,-8.203125,-0.375,1.640625
1696241879204,0.23608398,-0.9055786,-0.21173096,-14.6875,1.90625,-1.359375
1696241879249,0.19873047,-0.86553955,-0.17559814,-18.640625,9.4375,-10.25
1696241879279,0.17382812,-0.7776489,-0.12628174,-18.65625,18.453125,-11.296875
1696241879324,0.20800781,-0.6709595,-0.058410645,-21.53125,29.234375,-12.078125
1696241879369,0.2175293,-0.73272705,-0.04473877,-22.828125,30.4375,-3.40625
1696241879399,0.26391602,-1.062561,0.044128418,-28.921875,38.90625,4.0
1696241879444,0.21728516,-1.367981,-0.0025024414,-14.125,46.125,-1.1875
1696241879489,0.13769531,-1.0610962,-0.02520752,-22.59375,65.109375,0.3125
1696241879519,0.35498047,-0.89678955,4.272461E-4,-22.21875,70.140625,13.78125
1696241879564,0.28833008,-0.69781494,-0.0134887695,-13.765625,62.265625,13.296875
1696241879609,0.22167969,-0.79229736,-0.07110596,-13.484375,66.84375,17.671875
1696241879639,0.19189453,-1.0759888,-0.08306885,-15.078125,69.75,10.828125
1696241879684,0.05053711,-1.0227661,-0.38604736,-11.46875,80.515625,4.4375
1696241879714,0.3449707,-0.7949829,-0.4102173,-3.65625,77.453125,22.09375
1696241879759,0.27954102,-0.87823486,-0.30255127,-9.78125,56.171875,23.515625
1696241879803,-0.02319336,-1.1245728,-0.32305908,-11.671875,51.28125,4.046875
1696241879834,0.021240234,-1.1775513,-0.27789307,-27.109375,73.203125,5.140625
1696241879879,0.44433594,-0.94903564,-0.13970947,-27.96875,59.765625,15.203125
1696241879924,0.22290039,-0.83843994,-0.11114502,-29.1875,25.90625,3.140625
1696241879954,-0.23095703,-0.97198486,-0.20440674,-23.078125,29.984375,-11.3125
1696241879999,-0.171875,-1.013977,-0.34918213,-31.34375,67.6875,-8.515625
1696241880043,0.34960938,-0.81329346,-0.2756958,-36.703125,82.296875,2.734375
1696241880074,0.4963379,-0.7835083,-0.2539673,-22.3125,49.546875,5.59375
1696241880119,0.40771484,-0.9590454,0.016540527,-14.453125,42.140625,2.515625
1696241880164,0.06274414,-1.22052,-0.010803223,-12.3125,34.0625,2.46875
1696241880194,0.07495117,-1.0935669,0.051696777,-11.234375,52.5625,-1.96875
1696241880239,-0.04296875,-1.0505981,-0.036193848,-23.390625,64.015625,0.15625
1696241880284,0.32055664,-1.1721802,0.009460449,-31.875,69.703125,16.375
1696241880314,0.3334961,-1.0005493,0.08905029,-12.9375,65.8125,9.796875
1696241880359,0.0012207031,-0.7617798,0.07635498,-8.578125,65.109375,6.703125
1696241880389,-0.1550293,-0.80548096,-0.06793213,-17.203125,83.4375,4.25
1696241880434,0.1796875,-0.8291626,-0.12945557,-17.453125,100.390625,6.859375
1696241880494,0.27905273,-0.88238525,-0.15386963,-14.984375,96.65625,6.796875
1696241880509,0.20507812,-0.9854126,-0.15460205,-5.15625,90.90625,13.8125
1696241880554,-0.091308594,-1.0056763,-0.23492432,-1.125,104.328125,7.859375
1696241880614,-0.11621094,-1.1121216,-0.5918579,-18.203125,132.21875,16.6875
1696241880629,0.54296875,-0.93048096,-0.52008057,-14.59375,122.78125,31.359375
1696241880674,0.41064453,-0.7788696,-0.27178955,0.46875,75.453125,23.421875
1696241880719,-0.18554688,-1.0576782,-0.3430786,-5.90625,72.390625,1.75
1696241880749,-0.39868164,-1.2293091,-0.27545166,-41.46875,111.734375,6.6875
1696241880794,0.1928711,-0.9168091,-0.30377197,-36.34375,106.78125,19.15625
1696241880839,0.14575195,-0.88653564,-0.29718018,-32.640625,84.453125,16.296875
1696241880869,-0.13769531,-0.94195557,-0.27349854,-29.078125,77.1875,8.328125
1696241880913,-0.13354492,-0.9741821,-0.3242798,-37.25,93.875,6.0625
1696241880959,0.13330078,-0.9639282,-0.28814697,-31.640625,89.671875,10.5625
1696241880989,0.18676758,-0.8726196,-0.29034424,-22.4375,73.609375,5.53125
1696241881034,0.21875,-0.80059814,-0.29693604,-8.34375,62.203125,12.984375
1696241881079,0.63964844,-0.7070923,0.11199951,-12.03125,65.46875,13.734375
1696241881109,-0.38330078,-1.3357544,-0.0713501,-3.78125,20.15625,-11.875
1696241881154,-0.06665039,-1.420227,-0.14361572,-20.375,91.671875,8.59375
1696241881183,0.29614258,-1.0342407,-0.02130127,-23.296875,97.453125,11.828125
1696241881229,0.34960938,-0.98394775,0.13909912,-18.3125,68.109375,19.015625
1696241881274,-0.021728516,-0.95513916,0.07269287,-19.859375,76.0,11.890625
1696241881304,-0.2084961,-0.9104614,-0.06304932,-17.671875,92.53125,0.5625
1696241881349,0.119384766,-0.81988525,-0.14898682,-23.546875,108.09375,12.640625
1696241881394,0.29467773,-0.880188,-0.10333252,-20.53125,102.71875,11.859375
1696241881423,0.19482422,-0.97247314,-0.120666504,-13.625,93.59375,6.546875
1696241881469,0.17895508,-0.95318604,-0.12506104,-14.203125,91.984375,10.515625
1696241881514,0.19702148,-0.9866333,-0.13677979,-12.65625,97.640625,10.53125
1696241881543,0.11791992,-0.93048096,-0.113342285,-10.640625,105.59375,8.453125
1696241881589,0.1184082,-0.92633057,-0.32305908,-18.328125,93.046875,17.109375
1696241881635,0.4819336,-1.0064087,-0.43463135,-6.609375,86.875,33.46875
1696241881664,0.18579102,-0.8081665,-0.46002197,12.09375,62.6875,29.421875
1696241881710,-0.016113281,-0.8982544,-0.2498169,-11.921875,83.578125,8.140625
1696241881754,0.115234375,-1.2649536,-0.10430908,-24.984375,81.78125,10.625
1696241881784,0.34448242,-1.1201782,-0.22686768,-23.234375,67.015625,17.328125
1696241881830,0.14526367,-0.95758057,-0.18780518,-19.9375,49.59375,7.21875
1696241881859,-0.033691406,-0.8623657,-0.19488525,-32.984375,49.375,6.9375
1696241881905,0.11645508,-0.9138794,-0.22296143,-40.3125,50.296875,5.15625
1696241881949,0.15576172,-1.0828247,-0.21539307,-37.4375,42.8125,5.859375
1696241881979,0.11694336,-1.0169067,-0.24395752,-29.15625,39.765625,6.140625
1696241882024,0.12451172,-0.8850708,-0.21490479,-28.625,38.59375,5.15625
1696241882070,0.1003418,-0.9194946,-0.19464111,-23.546875,39.625,2.53125
1696241882099,0.07495117,-0.9885864,-0.23492432,-19.015625,43.65625,1.875
1696241882144,0.3564453,-0.97320557,-0.14801025,-12.453125,48.796875,2.5
1696241882190,0.3461914,-0.8904419,0.022888184,0.5625,35.84375,-6.90625
1696241882219,0.1508789,-0.83306885,0.019714355,1.90625,28.640625,-8.609375
1696241882264,0.2446289,-0.8982544,0.15301514,-5.9375,32.296875,-7.09375
1696241882309,0.41308594,-1.1619263,0.14788818,-10.34375,23.484375,-6.609375
1696241882341,0.36767578,-1.2393188,0.13763428,0.40625,16.34375,-7.0
1696241882385,0.2878418,-0.91973877,0.062683105,4.59375,18.796875,-2.09375
1696241882430,0.33398438,-0.72442627,0.1239624,2.171875,15.765625,1.921875
1696241882459,0.21704102,-0.8123169,0.13690186,-2.484375,8.671875,-4.015625
1696241882504,0.22680664,-0.93218994,0.059753418,-10.59375,14.28125,-2.265625
1696241882549,0.34277344,-0.9751587,-0.039611816,-1.75,-3.078125,-4.46875
1696241882580,0.30151367,-1.06427,-0.018127441,5.796875,-9.0,1.359375
1696241882625,0.16894531,-1.0422974,-0.023254395,12.453125,-7.921875,-1.53125
1696241882654,0.1171875,-1.0081177,-0.0022583008,13.296875,-0.84375,1.609375
1696241882699,0.29785156,-0.9048462,0.062194824,5.375,2.859375,1.875
1696241882744,0.32348633,-0.8882446,0.08880615,7.5625,-7.828125,-7.40625
1696241882774,0.19506836,-0.95758057,0.04144287,7.515625,-9.796875,-8.859375
1696241882819,0.2446289,-0.9026489,0.040222168,11.40625,-9.5,-8.625
1696241882863,0.20361328,-0.9307251,0.030212402,8.140625,-8.984375,-10.515625
1696241882894,0.25073242,-0.9558716,0.02557373,8.75,-12.84375,-8.15625
1696241882939,0.3010254,-0.9668579,0.058288574,10.234375,-17.796875,-5.28125
1696241882984,0.2849121,-0.98516846,0.054138184,6.59375,-22.0625,-5.6875
1696241883014,0.27929688,-1.0186157,0.05999756,3.71875,-24.03125,-4.125
1696241883059,0.23168945,-1.0803833,-0.061340332,3.265625,-33.703125,-2.453125
1696241883104,0.048583984,-1.3357544,-0.16656494,8.671875,-28.859375,-1.953125
1696241883134,0.042236328,-0.94244385,-0.28399658,0.328125,-6.359375,6.90625
1696241883179,-0.25170898,-0.8584595,-0.23297119,-15.515625,-1.703125,-7.953125
1696241883224,0.11987305,-1.1377563,-0.31573486,-12.96875,-0.921875,1.0
1696241883254,0.109375,-1.0991821,-0.26690674,0.046875,4.1875,-2.625
1696241883299,-0.099365234,-0.97369385,-0.2185669,6.171875,-1.34375,-3.984375
1696241883344,-0.03955078,-0.8076782,-0.2354126,-1.921875,0.140625,0.875
1696241883374,0.052246094,-0.881897,-0.17437744,-3.40625,-7.484375,1.578125
1696241883419,-0.027832031,-0.9949341,-0.20758057,-2.140625,-6.796875,-2.09375
1696241883449,-0.03930664,-0.9221802,-0.22027588,-2.234375,-0.109375,-0.578125
1696241883494,0.04711914,-0.8882446,-0.20758057,-2.1875,3.6875,2.59375
1696241883539,0.103027344,-0.92388916,-0.1765747,-1.34375,2.03125,5.953125
1696241883569,0.1303711,-1.0044556,-0.17071533,4.515625,-1.078125,7.78125
1696241883613,0.075927734,-1.0117798,-0.10089111,5.984375,3.015625,3.734375
1696241883659,0.06298828,-1.0386353,-0.12384033,-0.015625,10.09375,7.59375
1696241883689,0.21533203,-0.9104614,-0.09820557,1.75,5.84375,9.703125
1696241883734,0.049072266,-0.9299927,-0.1687622,5.375,-3.859375,3.203125
1696241883779,0.021972656,-1.0237427,-0.29107666,1.265625,5.875,6.234375
1696241883809,0.18334961,-0.93463135,-0.20098877,-1.796875,8.359375,2.421875
1696241883854,0.060302734,-1.0664673,-0.13043213,-4.515625,2.609375,2.84375
1696241883899,-0.0793457,-1.0310669,-0.16827393,-7.453125,0.75,2.4375
1696241883929,-0.14428711,-1.0234985,-0.20635986,-20.859375,16.515625,5.203125
1696241883974,0.01586914,-1.0430298,-0.22369385,-25.75,25.140625,7.75
1696241884049,0.08935547,-0.9414673,-0.21832275,-25.03125,29.828125,10.546875
1696241884051,0.11328125,-0.8909302,-0.14703369,-19.703125,24.515625,11.0625
1696241884094,-0.019042969,-0.93096924,-0.18878174,-19.5625,23.0,8.296875
1696241884124,0.08105469,-1.0396118,-0.24884033,-15.546875,35.78125,13.46875
1696241884169,0.8093262,-1.1358032,0.20281982,-29.3125,48.90625,22.28125
1696241884214,0.29833984,-0.8831177,0.1852417,-5.984375,7.375,3.6875
1696241884244,-0.07714844,-0.8171997,-0.004211426,4.53125,10.828125,1.6875
1696241884288,0.4399414,-0.944397,0.17669678,-19.703125,38.171875,3.09375
1696241884334,0.8183594,-1.1394653,0.2062378,-12.3125,11.984375,-1.234375
1696241884365,0.46166992,-0.92559814,0.14154053,6.15625,-3.875,-5.453125
1696241884409,0.025634766,-0.77960205,0.14324951,-1.0,4.5,-10.578125
1696241884454,0.23852539,-0.8496704,0.152771,-11.796875,22.46875,-4.0625
1696241884484,0.49389648,-0.89556885,0.17449951,-10.21875,16.765625,-1.109375
1696241884529,0.3527832,-0.86309814,0.11590576,4.734375,5.09375,-6.578125
1696241884574,0.27856445,-0.79937744,0.0692749,0.796875,2.34375,-1.9375
1696241884604,0.36767578,-0.90338135,0.082214355,-0.40625,-2.734375,3.109375
1696241884649,0.38061523,-0.99298096,0.042175293,7.53125,-14.5625,1.265625
1696241884693,0.33740234,-0.9734497,-0.0020141602,14.390625,-22.9375,0.515625
1696241884724,0.21972656,-1.0046997,0.036071777,17.578125,-24.8125,-1.53125
1696241884769,0.24584961,-0.9873657,0.04901123,17.28125,-21.015625,-1.640625
1696241884814,0.25170898,-0.9746704,0.12054443,15.234375,-15.5,-3.140625
1696241884844,0.24804688,-0.9534302,0.11175537,10.546875,-15.765625,-6.296875
1696241884889,0.25195312,-0.90826416,0.11981201,9.6875,-14.140625,-6.8125
1696241884919,0.20239258,-0.92315674,0.12176514,4.953125,-9.375,-10.75
1696241884965,0.16674805,-0.9500122,0.093688965,10.59375,-5.296875,-8.296875
1696241885009,0.24804688,-0.87750244,0.046081543,7.765625,-2.078125,-2.3125
1696241885039,0.39819336,-0.8753052,0.014831543,10.421875,-14.234375,0.953125
1696241885084,0.25024414,-1.1206665,-0.074523926,11.078125,-22.515625,0.03125
1696241885130,0.2800293,-0.94415283,-0.15362549,16.6875,-13.875,9.125
1696241885159,0.03857422,-0.60406494,-0.32647705,11.40625,-26.078125,13.125
1696241885204,0.12890625,-0.8311157,-0.30792236,14.984375,-19.5,12.46875
1696241885249,0.11401367,-1.1616821,-0.27301025,33.015625,-17.875,0.6875
1696241885278,0.16870117,-0.89556885,-0.2144165,22.53125,-8.625,12.6875
1696241885324,0.106933594,-0.69854736,-0.2901001,28.609375,-11.5625,10.203125
1696241885369,-0.027832031,-0.65509033,-0.30645752,27.546875,-2.078125,14.5
1696241885399,0.17529297,-0.6008911,-0.31207275,31.265625,-0.03125,15.609375
1696241885443,0.30078125,-0.5935669,-0.3735962,32.453125,-10.03125,18.578125
1696241885489,0.36328125,-0.58966064,-0.2925415,40.671875,-26.78125,20.703125
1696241885519,0.13085938,-0.69317627,-0.39996338,35.734375,-32.671875,12.09375
1696241885563,0.0126953125,-0.9011841,-0.3760376,30.8125,-11.765625,6.671875
1696241885594,0.4807129,-0.8858032,-0.33892822,32.5625,-5.015625,10.671875
1696241885639,0.5065918,-0.7883911,-0.34698486,31.890625,-15.203125,12.90625
1696241885684,0.17016602,-0.6104126,-0.33355713,23.8125,-11.640625,7.3125
1696241885714,0.3166504,-0.5335083,-0.4199829,20.953125,-11.265625,9.609375
1696241885759,0.5974121,-0.61383057,-0.4343872,6.71875,-13.59375,20.1875
1696241885804,0.77978516,-0.8374634,-0.32965088,9.34375,-12.03125,18.78125
1696241885834,0.5839844,-0.8233032,-0.48077393,17.65625,-20.6875,3.75
1696241885879,0.49731445,-0.6638794,-0.45367432,3.765625,-10.0625,3.515625
1696241885938,0.57421875,-0.7144165,-0.5310669,1.203125,-5.703125,7.203125
1696241885954,0.7897949,-0.6177368,-0.4421997,3.53125,-4.3125,9.3125
1696241885999,0.61035156,-0.6878052,-0.50128174,1.65625,-11.46875,-2.296875
1696241886044,0.6833496,-0.69195557,-0.56573486,-1.265625,-4.921875,-1.46875
1696241886074,0.79052734,-0.7029419,-0.5149536,2.703125,-15.21875,1.625
1696241886118,0.7709961,-0.7593384,-0.6148071,1.921875,-6.4375,-5.34375
1696241886164,0.90625,-0.7588501,-0.53619385,1.3125,0.4375,-3.734375
1696241886194,0.8300781,-0.79400635,-0.5952759,7.875,-7.203125,-7.078125
1696241886239,0.6828613,-0.8423462,-0.59210205,1.28125,5.09375,-8.203125
1696241886284,0.9140625,-0.83258057,-0.60284424,-0.890625,0.21875,0.3125
1696241886314,0.8312988,-0.8352661,-0.63946533,-3.828125,1.6875,-1.15625
1696241886374,0.7792969,-0.9348755,-0.66119385,3.0,4.0,4.90625
1696241886389,0.8847656,-0.8491821,-0.6194458,-3.859375,9.328125,10.015625
1696241886434,0.70092773,-0.8267212,-0.62457275,-1.875,4.984375,2.9375
1696241886479,0.73046875,-0.79107666,-0.5750122,-5.4375,9.828125,4.453125
1696241886509,0.73291016,-0.7793579,-0.5564575,-7.0,11.453125,2.234375
1696241886554,0.6765137,-0.8086548,-0.5413208,-8.203125,8.625,-3.25
1696241886598,0.73413086,-0.8323364,-0.5237427,-10.28125,12.328125,-2.703125
1696241886629,0.65649414,-0.75616455,-0.5352173,-10.5,1.515625,-6.921875
1696241886689,0.64868164,-0.75445557,-0.4631958,-13.6875,5.875,-8.421875
1696241886718,0.51538086,-0.7839966,-0.44317627,-11.578125,4.28125,-6.65625
1696241886749,0.49438477,-0.81622314,-0.48492432,-15.9375,5.75,-11.359375
1696241886794,0.6303711,-0.8130493,-0.42193604,-14.34375,1.46875,-14.296875
1696241886839,0.5161133,-0.8406372,-0.33770752,-15.59375,1.140625,-17.234375
1696241886869,0.33520508,-0.8308716,-0.37945557,-18.0,5.453125,-20.671875
1696241886914,0.34326172,-0.72784424,-0.2637329,-15.21875,10.765625,-19.65625
1696241886958,0.38134766,-0.79034424,-0.31085205,-17.671875,-0.25,-16.75
1696241886992,0.5124512,-0.81427,-0.27227783,-21.46875,4.25,-15.421875
1696241887034,0.2998047,-0.7608032,-0.19000244,-19.8125,-5.78125,-24.203125
1696241887079,0.10449219,-0.565979,-0.12896729,-14.734375,-0.234375,-24.25
1696241887109,-0.030517578,-0.1404419,-0.19146729,-20.03125,6.015625,-19.609375
1696241887154,0.044189453,0.105895996,-0.15875244,-19.859375,8.140625,-8.09375
1696241887183,0.26391602,-0.13433838,-0.24249268,-18.515625,5.0625,-0.625
1696241887229,0.3984375,-0.569397,-0.23516846,-16.015625,-2.5,4.078125
1696241887274,0.6015625,-1.1680298,-0.24468994,-2.546875,-12.1875,2.625
1696241887304,0.26782227,-1.440979,-0.1765747,1.53125,-10.3125,-12.28125
1696241887349,0.0793457,-0.9385376,-0.16461182,2.6875,-2.375,-4.15625
1696241887394,0.17993164,-0.7937622,-0.22052002,-0.28125,9.34375,5.96875
1696241887424,0.48779297,-0.81866455,-0.2210083,-0.734375,8.6875,11.921875
1696241887469,0.44970703,-0.8340454,-0.190979,5.28125,0.046875,6.96875
1696241887514,0.1887207,-0.7156372,-0.18756104,12.109375,-1.046875,5.578125
1696241887543,0.23657227,-0.4890747,-0.14141846,7.265625,8.484375,13.40625
1696241887589,0.23608398,-0.43145752,-0.12750244,5.734375,1.859375,13.953125
1696241887634,0.25024414,-0.48760986,-0.18829346,12.078125,-4.671875,17.453125
1696241887664,0.13671875,-0.5137329,-0.15826416,14.875,-3.90625,12.625
1696241887709,0.20947266,-0.57110596,-0.22515869,15.15625,5.28125,17.53125
1696241887754,0.39794922,-0.506897,-0.19561768,22.921875,-4.46875,20.3125
1696241887783,0.1730957,-0.7756958,-0.21343994,18.515625,-10.765625,14.609375
1696241887829,0.45092773,-0.7996216,-0.3640747,22.078125,7.390625,21.296875
1696241887858,0.35180664,-0.6687622,-0.28985596,21.6875,-2.09375,11.890625
1696241887903,0.5541992,-0.8279419,-0.3460083,15.0625,-2.484375,23.703125
1696241887949,0.6455078,-0.8574829,-0.5029907,22.453125,-7.609375,20.265625
1696241887978,0.52563477,-0.7625122,-0.35064697,21.359375,-5.796875,10.078125
1696241888024,0.72436523,-0.864563,-0.54107666,20.359375,-12.734375,16.953125
1696241888068,0.49487305,-0.73760986,-0.5274048,9.734375,-5.890625,7.859375
1696241888099,0.8310547,-0.78302,-0.5420532,-0.3125,-1.796875,13.75
1696241888144,0.7910156,-0.78497314,-0.53497314,5.8125,-12.84375,9.15625
1696241888189,0.65771484,-0.8674927,-0.63946533,1.6875,-0.921875,-3.296875
1696241888219,0.9580078,-0.82769775,-0.5442505,-8.703125,5.484375,5.734375
1696241888264,0.9550781,-0.8609009,-0.5862427,-3.3125,-5.078125,-5.484375
1696241888310,0.81347656,-0.9031372,-0.6255493,-2.421875,3.140625,-8.546875
1696241888339,0.9785156,-0.88653564,-0.597229,-6.015625,-1.078125,-1.296875
1696241888384,0.89453125,-0.96051025,-0.63238525,-1.25,7.96875,-4.296875
1696241888429,0.85424805,-0.82598877,-0.5913696,-6.734375,8.84375,0.9375
1696241888459,0.85546875,-0.78790283,-0.5510864,-5.53125,6.5625,2.28125
1696241888504,0.828125,-0.84820557,-0.54888916,-6.859375,8.5,-0.9375
1696241888549,0.7910156,-0.8748169,-0.5425415,-9.25,7.03125,0.671875
1696241888579,0.7019043,-0.8442993,-0.46881104,-4.890625,6.359375,-5.90625
1696241888623,0.578125,-0.77789307,-0.49713135,-9.734375,6.484375,-8.03125
1696241888654,0.7314453,-0.72003174,-0.37261963,-14.28125,12.375,-4.109375
1696241888699,0.53881836,-0.7749634,-0.4138794,-11.28125,-0.484375,-12.0
1696241888744,0.49804688,-0.8274536,-0.40753174,-17.28125,7.453125,-12.828125
1696241888774,0.5900879,-0.8362427,-0.36993408,-16.015625,7.203125,-11.203125
1696241888818,0.5871582,-0.880188,-0.394104,-18.921875,4.6875,-12.953125
1696241888864,0.5324707,-0.8796997,-0.34942627,-15.875,3.421875,-14.015625
1696241888894,0.45825195,-0.91729736,-0.33502197,-15.5,0.78125,-14.78125
1696241888939,0.4255371,-0.9404907,-0.2942505,-18.71875,3.28125,-14.234375
1696241888984,0.3852539,-0.8218384,-0.21612549,-13.53125,3.5625,-15.0625
1696241889014,0.23144531,-0.61724854,-0.14556885,-7.390625,-3.84375,-19.703125
1696241889059,0.08178711,-0.30474854,-0.13604736,-4.71875,-7.3125,-16.515625
1696241889104,-0.04663086,0.06048584,-0.07623291,-6.265625,-0.90625,-15.453125
1696241889134,0.05078125,0.097839355,-0.20635986,-11.171875,2.953125,-11.046875
1696241889179,0.42089844,-0.23712158,-0.15655518,-9.984375,7.859375,-0.421875
1696241889224,0.4777832,-0.677063,-0.24493408,-6.84375,-14.078125,2.453125
1696241889254,0.54345703,-1.2507935,-0.2119751,-10.375,-17.921875,-8.21875
1696241889298,0.1743164,-1.5095825,-0.15924072,-5.90625,-9.59375,-18.34375
1696241889329,0.13256836,-1.0210571,-0.18292236,-2.40625,9.515625,-8.171875
1696241889374,0.5175781,-0.7671509,-0.22393799,-5.515625,12.796875,2.578125
1696241889418,0.5114746,-0.64923096,-0.15484619,-2.15625,-0.03125,7.875
1696241889449,0.30688477,-0.5515747,-0.14215088,7.9375,-10.609375,2.890625
1696241889494,0.18847656,-0.5154419,-0.15240479,11.25,-6.171875,2.515625
1696241889538,0.21826172,-0.4487915,-0.15631104,11.609375,0.96875,13.9375
1696241889569,0.3215332,-0.43804932,-0.032043457,13.4375,-0.1875,15.484375
1696241889614,-0.0126953125,-0.5401001,-0.20098877,18.65625,-15.71875,5.421875
1696241889659,0.16259766,-0.44561768,-0.21343994,16.859375,9.703125,15.890625
1696241889689,0.36621094,-0.50079346,-0.13214111,21.109375,-0.90625,16.25
1696241889734,0.27172852,-0.8118286,-0.36236572,23.578125,-11.046875,12.84375
1696241889778,0.49194336,-0.9265747,-0.29083252,24.71875,10.5625,16.671875
1696241889809,0.31176758,-0.9314575,-0.3225708,25.171875,-6.59375,10.734375
1696241889854,0.44213867,-0.79034424,-0.42608643,26.421875,0.46875,18.828125
1696241889899,0.40966797,-0.57403564,-0.34991455,18.453125,2.171875,15.421875
1696241889928,0.64868164,-0.81378174,-0.4512329,23.1875,-1.703125,18.46875
1696241889974,0.56030273,-0.9805298,-0.52008057,12.984375,-0.984375,10.390625
1696241890035,0.6196289,-0.65167236,-0.4512329,11.515625,-2.578125,12.484375
1696241890048,0.5998535,-0.7647095,-0.57525635,10.328125,-7.390625,7.234375
1696241890094,0.7524414,-0.8596802,-0.5339966,-0.65625,3.328125,11.359375
1696241890123,0.8244629,-0.73223877,-0.5964966,8.53125,-10.265625,10.75
1696241890169,0.73291016,-0.8399048,-0.64923096,5.328125,-3.09375,2.578125
1696241890214,0.9638672,-0.9089966,-0.62335205,-5.65625,3.46875,3.8125
1696241890243,0.85180664,-0.95025635,-0.710022,-1.234375,-0.375,-1.796875
1696241890288,0.88500977,-0.9002075,-0.67974854,-4.296875,3.046875,-1.671875
1696241890334,0.9042969,-0.93829346,-0.7781372,-8.046875,5.078125,1.34375
1696241890364,0.90527344,-0.92633057,-0.7424927,-2.5,10.859375,2.65625
1696241890409,0.9433594,-0.8430786,-0.7119751,-11.015625,11.0,4.40625
1696241890469,0.86865234,-0.80963135,-0.6716919,-6.171875,8.375,2.578125
1696241890484,0.7451172,-0.8386841,-0.6099243,-8.28125,7.40625,0.453125
1696241890529,0.76000977,-0.7871704,-0.57232666,-10.109375,9.34375,2.078125
1696241890574,0.7624512,-0.7661743,-0.4961548,-10.265625,6.875,-0.703125
1696241890603,0.6472168,-0.7197876,-0.5003052,-12.453125,-0.578125,-9.09375
1696241890649,0.4909668,-0.8255005,-0.4590454,-17.234375,8.28125,-11.328125
1696241890694,0.5402832,-0.8032837,-0.46539307,-19.703125,11.28125,-12.0625
1696241890723,0.5703125,-0.800354,-0.41607666,-22.046875,10.796875,-11.140625
1696241890769,0.57055664,-0.83721924,-0.4055786,-21.609375,5.875,-16.140625
1696241890798,0.41210938,-0.8753052,-0.3735962,-23.75,6.609375,-18.453125
1696241890844,0.4008789,-0.81036377,-0.29815674,-20.5625,6.515625,-18.375
1696241890889,0.27514648,-0.63287354,-0.19024658,-16.640625,1.171875,-20.796875
1696241890934,0.14746094,-0.27252197,-0.17364502,-9.875,-4.96875,-19.734375
1696241890963,0.04345703,0.07366943,-0.113098145,-15.609375,-2.546875,-18.3125
1696241891009,0.09838867,0.040222168,-0.12164307,-16.640625,-6.96875,-10.21875
1696241891039,0.1862793,-0.28936768,-0.17755127,-14.59375,-1.15625,-3.984375
1696241891083,0.2841797,-0.58135986,-0.20172119,-10.1875,8.75,-2.671875
1696241891129,0.49951172,-0.8345337,-0.28033447,-9.21875,12.21875,3.203125
1696241891159,0.5336914,-1.0596313,-0.23297119,-7.25,4.3125,6.078125
1696241891203,0.3972168,-1.0838013,-0.22027588,-0.21875,9.9375,7.375
1696241891250,0.3503418,-0.8279419,-0.31866455,2.140625,7.953125,5.140625
1696241891279,0.47924805,-0.74957275,-0.3027954,2.828125,11.703125,9.546875
1696241891324,0.3881836,-0.8086548,-0.23199463,2.28125,12.46875,5.640625
1696241891368,0.24780273,-0.7996216,-0.2617798,2.140625,17.890625,3.1875
1696241891399,0.36035156,-0.631897,-0.32940674,2.21875,26.0,16.203125
1696241891444,0.48950195,-0.6189575,-0.3237915,2.515625,24.828125,23.65625
1696241891489,0.47314453,-0.7078247,-0.37994385,-0.140625,23.609375,21.328125
1696241891518,0.5566406,-0.68414307,-0.34552002,3.921875,21.953125,22.875
1696241891564,0.5498047,-0.5857544,-0.3526001,9.984375,8.734375,27.328125
1696241891594,0.4802246,-0.5130005,-0.35699463,4.375,4.34375,27.84375
1696241891639,0.5690918,-0.5689087,-0.35845947,3.296875,2.515625,24.59375
1696241891684,0.41992188,-0.51397705,-0.32452393,6.375,1.015625,18.21875
1696241891714,0.34692383,-0.36090088,-0.37701416,6.9375,-0.234375,13.234375
1696241891759,0.5214844,-0.39361572,-0.31500244,0.90625,9.328125,18.359375
1696241891804,0.43725586,-0.33135986,-0.33258057,-5.34375,4.609375,10.96875
1696241891834,0.44726562,-0.30303955,-0.237854,-4.328125,2.765625,-1.0
1696241891879,0.4025879,-0.33306885,-0.4348755,-6.96875,-3.34375,-7.296875
1696241891923,0.73828125,-0.26715088,-0.24029541,-28.3125,-0.5,-13.453125
1696241891954,0.60913086,-0.59088135,-0.29840088,-23.5,-10.609375,-36.65625
1696241891999,0.35351562,-0.86431885,-0.30523682,-41.921875,3.015625,-66.859375
1696241892043,0.4650879,-1.4505005,-0.22906494,-31.65625,6.9375,-81.9375
1696241892074,0.25854492,-2.0,-0.6602173,-32.46875,12.890625,-82.515625
1696241892119,0.23266602,-2.0,-0.18780518,-51.796875,1.84375,-65.1875
1696241892179,-0.099609375,-2.0,-0.13946533,-20.53125,11.828125,-76.546875
1696241892209,-0.72094727,-1.1694946,0.039001465,-21.921875,-4.578125,-57.109375
1696241892238,-0.40527344,-0.56622314,0.21258545,-22.25,10.453125,-25.046875
1696241892283,0.109375,-0.7144165,-0.022766113,-26.578125,7.6875,-27.625
1696241892313,-0.15283203,-0.47711182,0.089538574,-4.125,5.484375,-22.65625
1696241892359,-0.047851562,-0.101867676,0.059509277,-1.984375,-1.65625,-13.265625
1696241892390,-0.16723633,-0.2630005,0.085632324,-4.125,-14.671875,-8.15625
1696241892434,-0.23852539,-0.60284424,0.07611084,-1.765625,-10.921875,-4.296875
1696241892479,-0.3088379,-0.86968994,0.034851074,1.28125,-13.109375,-12.890625
1696241892509,-0.5151367,-1.2136841,0.022399902,-6.546875,-1.90625,-13.546875
1696241892554,-0.4716797,-1.5855103,0.0138549805,-8.9375,10.609375,-7.28125
1696241892599,-0.3071289,-1.8296509,-0.030822754,-11.359375,10.34375,-5.203125
1696241892629,-0.4345703,-1.5671997,-0.010803223,-0.203125,1.40625,-3.375
1696241892674,-0.4892578,-1.1897583,0.085632324,3.53125,4.203125,1.59375
1696241892719,-0.25634766,-0.8936157,0.101745605,0.796875,15.71875,9.84375
1696241892749,-0.123291016,-0.6609497,0.078308105,7.109375,9.265625,15.4375
1696241892793,-0.15283203,-0.55352783,0.06048584,10.140625,-5.578125,16.453125
1696241892839,-0.22216797,-0.6057739,0.042663574,8.734375,-2.9375,16.6875
1696241892869,-0.18115234,-0.7114868,0.04437256,9.1875,-3.203125,22.578125
1696241892914,-0.21948242,-0.8635864,0.035339355,8.65625,-4.296875,21.6875
1696241892988,-0.22094727,-1.0549927,0.015808105,10.09375,-0.8125,23.65625
1696241892990,-0.25,-1.2061157,-0.00982666,12.6875,-3.625,29.515625
1696241893033,-0.23217773,-1.300354,-0.035217285,14.71875,4.0625,34.75
1696241893064,-0.028320312,-1.2837524,-0.08111572,21.734375,5.546875,41.703125
1696241893108,-0.0087890625,-1.2178345,-0.09259033,32.015625,-3.375,47.640625
1696241893154,0.0871582,-1.0840454,-0.1453247,33.65625,-1.59375,53.578125
1696241893183,0.12768555,-0.9312134,-0.13043213,35.484375,-3.1875,53.8125
1696241893228,0.13745117,-0.8098755,-0.15093994,35.84375,-7.359375,57.65625
1696241893274,0.14990234,-0.7842407,-0.089416504,36.890625,-13.59375,62.703125
1696241893304,0.14672852,-0.73394775,-0.31304932,37.171875,-10.859375,63.5
1696241893349,0.46801758,-0.7061157,-0.4216919,25.9375,1.71875,65.90625
1696241893394,0.77905273,-0.78741455,-0.5171509,40.28125,-4.890625,53.3125
1696241893424,0.96875,-0.90216064,-0.71417236,36.671875,1.015625,43.25
1696241893469,1.166748,-0.72662354,-0.819397,18.171875,4.890625,32.515625
1696241893514,1.1191406,-0.5901489,-0.6165161,24.765625,-0.875,26.890625
1696241893543,0.8742676,-0.5527954,-0.57159424,1.625,-2.6875,-2.34375
1696241893589,0.73706055,-0.51104736,-0.5508423,-8.453125,9.3125,-9.984375
1696241893634,0.8823242,-0.3814087,-0.63604736,-17.296875,3.78125,-12.140625
1696241893663,0.751709,-0.49713135,-0.52545166,-14.0625,-2.78125,-17.421875
1696241893708,0.57299805,-0.5906372,-0.51275635,-22.5625,-3.953125,-17.78125
1696241893754,0.61572266,-0.6033325,-0.48028564,-26.984375,10.296875,-23.875
1696241893798,0.6599121,-0.5930786,-0.40777588,-33.203125,11.484375,-26.953125
1696241893828,0.57543945,-0.62213135,-0.36724854,-32.171875,5.203125,-29.578125
1696241893858,0.40478516,-0.678772,-0.36871338,-38.921875,3.421875,-35.234375
1696241893904,0.34716797,-0.6946411,-0.2925415,-38.9375,8.265625,-36.375
1696241893949,0.38208008,-0.66412354,-0.25128174,-33.859375,7.8125,-40.296875
1696241893978,0.30444336,-0.5564575,-0.14654541,-30.890625,4.75,-39.765625
1696241894023,0.14746094,-0.3982544,-0.21514893,-28.0625,-3.84375,-39.296875
1696241894068,0.1628418,-0.28912354,-0.21514893,-32.28125,1.28125,-33.78125
1696241894113,0.28515625,-0.47613525,-0.18804932,-31.875,6.25,-18.8125
1696241894144,0.5437012,-0.7661743,-0.16802979,-22.265625,1.390625,-10.671875
1696241894188,0.47680664,-1.1155396,-0.21832275,-10.390625,-21.953125,-18.421875
1696241894219,0.13378906,-1.0618286,-0.097717285,2.875,-6.90625,-8.09375
1696241894264,0.13720703,-0.8550415,-0.105773926,4.734375,2.484375,-2.015625
1696241894309,0.3491211,-0.7996216,-0.12750244,-1.484375,3.1875,0.75
1696241894339,0.4267578,-0.86724854,-0.16168213,5.171875,-6.59375,3.578125
1696241894384,0.28808594,-1.0032349,-0.19464111,12.25,-6.734375,3.484375
1696241894429,0.3022461,-0.83673096,-0.12823486,14.71875,-2.34375,8.125
1696241894459,0.3251953,-0.83380127,-0.17730713,12.625,-3.421875,12.375
1696241894504,0.3305664,-0.9006958,-0.17510986,15.703125,1.25,12.3125
1696241894535,0.29296875,-0.8135376,-0.22149658,19.203125,2.953125,15.40625
1696241894579,0.38867188,-0.6983032,-0.24053955,20.265625,7.1875,25.953125
1696241894624,0.37304688,-0.66534424,-0.2131958,24.78125,5.375,33.84375
1696241894654,0.2878418,-0.5664673,-0.30352783,25.296875,0.1875,38.0625
1696241894699,0.3869629,-0.50372314,-0.3015747,23.875,18.421875,46.671875
1696241894744,0.5341797,-0.49420166,-0.2625122,31.8125,14.703125,47.828125
1696241894774,0.3137207,-0.52911377,-0.3418579,35.65625,8.0625,48.765625
1696241894818,0.4494629,-0.5015259,-0.26837158,25.765625,14.3125,48.75
1696241894863,0.6308594,-0.5059204,-0.49713135,29.703125,-1.0625,41.703125
1696241894894,0.62475586,-0.52423096,-0.55670166,24.46875,1.265625,49.703125
1696241894938,0.859375,-0.49176025,-0.5083618,23.65625,-5.765625,46.65625
1696241894983,0.80566406,-0.4055786,-0.6084595,22.578125,-8.390625,30.15625
1696241895014,0.578125,-0.30108643,-0.4944458,14.984375,-3.859375,19.9375
1696241895059,0.7150879,-0.16729736,-0.45147705,3.4375,4.265625,21.25
1696241895103,0.6743164,-0.23590088,-0.3899536,-5.96875,-1.84375,-1.734375
1696241895134,0.60839844,-0.286438,-0.43585205,-19.65625,2.4375,-33.984375
1696241895179,0.70874023,-0.24517822,-0.48760986,-40.625,2.46875,-43.78125
1696241895223,0.62280273,-0.5786743,-0.44683838,-39.3125,2.828125,-41.4375
1696241895254,0.8154297,-0.9368286,-0.66729736,-58.125,13.484375,-62.59375
1696241895299,1.1411133,-1.241272,-0.6946411,-74.125,8.734375,-72.578125
1696241895328,1.1247559,-1.6636353,-0.5654907,-46.59375,-7.875,-70.53125
1696241895373,0.8479004,-1.6013794,-0.38311768,-54.296875,-3.4375,-78.0625
1696241895418,0.29052734,-1.2888794,-0.2876587,-46.09375,-10.046875,-86.078125
1696241895449,-0.07788086,-0.9951782,-0.07110596,-39.515625,-7.03125,-80.8125
1696241895494,-0.15722656,-0.5772095,-0.061828613,-43.265625,3.359375,-84.140625
1696241895539,-0.08862305,-0.3562622,0.06048584,-45.21875,6.609375,-70.359375
1696241895568,-0.26245117,-0.38287354,0.12371826,-38.09375,-7.34375,-69.8125
1696241895614,-0.36132812,-0.38116455,0.039245605,-38.15625,5.953125,-68.140625
1696241895659,-0.079589844,-0.5093384,0.23065186,-40.671875,-0.75,-56.078125
1696241895688,-0.3557129,-0.7341919,0.09197998,-22.625,-12.515625,-61.046875
1696241895733,-0.42382812,-0.9014282,0.22991943,-35.78125,-6.90625,-67.453125
1696241895778,-0.6816406,-1.1123657,0.21673584,-32.484375,-13.171875,-69.125
1696241895809,-0.9140625,-1.1472778,0.38861084,-45.40625,7.859375,-67.09375
1696241895853,-0.94873047,-0.9649048,0.3312378,-38.296875,7.890625,-70.234375
1696241895899,-0.8679199,-0.72076416,0.36419678,-36.609375,22.046875,-54.171875
1696241895929,-0.8300781,-0.42681885,0.49822998,-28.5625,21.609375,-47.34375
1696241895974,-1.1560059,-0.33673096,0.42669678,-18.640625,24.234375,-38.5625
1696241896019,-0.9445801,-0.5557251,0.6803589,-29.71875,31.09375,-26.5625
1696241896057,-1.090332,-0.411438,0.3973999,-17.03125,26.875,-23.859375
1696241896094,-0.7416992,-0.31011963,0.7797241,-24.828125,17.34375,-18.015625
1696241896123,-1.1054688,-0.15240479,0.5204468,-6.15625,9.734375,-5.640625
1696241896168,-0.6130371,-0.0491333,0.7514038,-14.53125,15.640625,-3.09375
1696241896214,-0.8984375,-0.0647583,0.71209717,4.671875,0.359375,5.640625
1696241896243,-0.72436523,-0.09918213,0.7194214,0.859375,11.125,5.171875
1696241896289,-0.5163574,-0.2366333,0.6786499,2.171875,-3.421875,11.84375
1696241896333,-0.69262695,-0.30181885,0.64471436,11.796875,-10.59375,8.40625
1696241896363,-0.91748047,-0.39801025,0.5529175,14.078125,-7.703125,3.109375
1696241896409,-0.8251953,-0.42462158,0.576355,-5.15625,15.9375,9.859375
1696241896454,-0.65649414,-0.5186157,0.7304077,0.46875,3.5,12.171875
1696241896483,-0.84228516,-0.59332275,0.68133545,20.84375,-14.078125,9.046875
1696241896528,-0.82543945,-0.4360962,0.6005249,24.046875,0.078125,17.078125
1696241896574,-0.7199707,-0.19659424,0.60369873,29.015625,-3.296875,31.09375
1696241896619,-0.5913086,-0.44732666,0.50653076,33.921875,-23.703125,40.171875
1696241896648,-0.7832031,-0.8399048,0.55682373,30.671875,-26.53125,43.09375
1696241896693,-0.9580078,-0.881897,0.55267334,36.828125,-12.765625,44.921875
1696241896723,-0.82836914,-0.78082275,0.44036865,30.796875,4.15625,38.40625
1696241896769,-0.7817383,-0.7041626,0.33343506,34.125,0.546875,39.734375
1696241896798,-0.4584961,-0.7451782,0.36761475,26.140625,10.046875,39.640625
1696241896844,-0.5776367,-0.75201416,0.33880615,33.859375,1.09375,38.078125
1696241896888,-0.43286133,-0.66534424,0.25360107,36.53125,4.25,38.96875
1696241896919,-0.4572754,-0.7295532,0.19158936,32.28125,1.6875,37.8125
1696241896963,-0.4267578,-0.7998657,0.19647217,32.90625,-5.453125,34.9375
1696241897009,-0.3540039,-0.89019775,0.15106201,32.6875,-7.1875,37.453125
1696241897038,-0.3161621,-0.94537354,0.1005249,29.765625,-9.984375,34.1875
1696241897083,-0.31811523,-0.99835205,0.049743652,34.53125,-11.984375,35.46875
1696241897129,-0.1430664,-1.038147,-0.023010254,31.390625,-10.5625,42.65625
1696241897160,-0.27075195,-1.0720825,-0.113342285,38.296875,-23.140625,41.40625
1696241897204,-0.27539062,-1.0496216,-0.023742676,43.09375,-21.0,54.875
1696241897249,-0.0871582,-1.0276489,-0.097229004,45.46875,-19.765625,66.921875
1696241897278,-0.067871094,-1.0505981,-0.18414307,53.5,-17.171875,69.484375
1696241897324,0.046142578,-0.9522095,-0.17095947,54.359375,-15.484375,80.75
1696241897369,0.07519531,-0.9170532,-0.15289307,50.09375,-13.484375,84.109375
1696241897398,0.36694336,-0.6975708,-0.48980713,46.5625,-4.875,78.28125
1696241897443,0.3330078,-0.753479,-0.51348877,34.59375,8.375,60.15625
1696241897489,0.75341797,-0.6734009,-0.4397583,47.96875,4.484375,66.6875
1696241897518,0.72509766,-0.49591064,-0.74713135,57.375,-13.6875,53.8125
1696241897564,0.68603516,-0.5845337,-0.58917236,32.796875,-1.765625,26.21875
1696241897594,0.7751465,-0.4133911,-0.62579346,24.71875,-0.875,17.109375
1696241897640,0.6894531,-0.40899658,-0.6494751,26.0,-0.15625,4.234375
1696241897684,0.8029785,-0.43145752,-0.72784424,5.53125,-1.234375,1.59375
1696241897713,0.92211914,-0.48712158,-0.82696533,-8.40625,7.328125,-16.40625
1696241897759,0.8161621,-0.34381104,-0.6782837,-8.015625,6.875,-28.90625
1696241897803,0.5559082,-0.27545166,-0.58673096,-21.46875,3.53125,-26.125
1696241897834,0.73876953,-0.4602661,-0.53741455,-46.6875,5.609375,-30.25
1696241897879,0.63061523,-0.63604736,-0.5889282,-48.25,-4.953125,-48.703125
1696241897923,0.65893555,-0.6902466,-0.5095825,-46.953125,0.203125,-55.15625
1696241897954,0.6550293,-0.7283325,-0.5718384,-44.453125,-17.03125,-52.125
1696241897998,0.58984375,-1.1221313,-0.6651001,-74.875,-25.921875,-44.671875
1696241898043,0.8845215,-1.9758911,-0.5527954,-83.546875,4.09375,-32.28125
1696241898074,0.8027344,-1.9036255,-0.3352661,-43.28125,24.671875,-52.3125
1696241898119,0.48706055,-0.86016846,-0.42095947,-8.15625,23.4375,-45.25
1696241898164,0.2861328,9.1552734E-4,-0.30767822,-3.734375,-3.9375,-26.25
1696241898195,0.052001953,0.94036865,-0.06524658,-30.984375,6.921875,-21.640625
1696241898238,7.324219E-4,0.45550537,-0.008850098,-12.078125,-14.546875,-16.328125
1696241898269,-0.2175293,-0.2156372,0.08319092,-24.453125,-15.375,-14.0
1696241898314,0.027832031,-0.17999268,-0.07965088,-14.921875,-3.921875,0.859375
1696241898359,0.12036133,-0.041809082,-0.20611572,5.015625,-1.0625,7.515625
1696241898388,0.39379883,-0.032043457,-0.0178833,17.328125,-6.984375,15.4375
1696241898434,0.26904297,-0.44586182,-0.09161377,6.640625,-42.625,15.703125
1696241898479,0.19824219,-1.6751099,-0.2630005,-42.28125,-31.59375,5.15625
1696241898508,1.0175781,-2.0,0.885437,30.328125,13.78125,3.640625
1696241898554,0.41552734,-1.9868774,-0.3213501,-1.84375,-0.546875,-22.1875
1696241898599,0.3881836,-1.9612427,0.10736084,-9.34375,9.515625,-11.125
1696241898628,0.0871582,-0.77349854,-0.058410645,22.09375,4.875,-15.21875
1696241898674,0.17822266,0.25213623,-0.14337158,4.78125,1.046875,-8.671875
1696241898719,-0.052734375,0.93792725,-0.061584473,-14.734375,11.578125,-15.125
1696241898748,0.123046875,0.21795654,-0.0335083,-14.296875,-8.0625,-8.015625
1696241898794,0.08496094,-0.37994385,-0.05230713,-7.453125,-13.921875,7.015625
1696241898839,0.07788086,-0.50860596,-0.21685791,15.609375,-13.203125,7.703125
1696241898869,0.33984375,-0.6890259,0.07293701,11.75,-9.234375,5.15625
1696241898914,0.45776367,-2.0,-0.26470947,-72.40625,-32.046875,17.046875
1696241898959,0.2824707,-2.0,0.72210693,45.9375,10.96875,-8.71875
1696241898988,-0.21435547,-1.5010376,-0.24273682,26.578125,4.6875,-14.515625
1696241899033,0.5019531,-1.4307251,0.03387451,-10.734375,30.1875,10.28125
1696241899064,0.3779297,-0.5862427,-0.09185791,16.875,12.421875,-5.59375
1696241899108,0.041259766,0.17572021,-0.08404541,32.203125,1.640625,-2.171875
1696241899154,-0.2163086,0.7579956,-0.058410645,-0.4375,8.6875,9.390625
1696241899183,0.16113281,0.18377686,-0.070373535,-11.125,5.546875,23.78125
1696241899228,0.23095703,-0.45587158,-0.31866455,-4.046875,-5.90625,29.921875
1696241899274,0.5024414,-0.95977783,-0.12823486,-4.53125,7.25,35.5
1696241899303,1.5576172,-2.0,-0.06890869,-10.328125,-29.125,27.4375
1696241899348,-0.0031738281,-2.0,0.20550537,33.625,6.5,3.90625
1696241899394,0.09863281,-1.0979614,-0.3015747,57.671875,25.578125,2.578125
1696241899423,0.55444336,-0.8491821,-0.026184082,45.15625,29.6875,47.859375
1696241899468,0.20361328,-0.44195557,-0.117492676,38.453125,14.875,33.21875
1696241899514,0.011230469,-0.2649536,-0.25738525,36.96875,20.046875,30.75
1696241899543,0.3737793,-0.17901611,-0.25152588,26.296875,20.71875,36.46875
1696241899588,0.46972656,-0.2649536,-0.3706665,18.078125,1.625,30.609375
1696241899634,0.6447754,-0.49884033,-0.425354,4.09375,4.203125,37.015625
1696241899663,0.7519531,-0.76641846,-0.34454346,16.984375,-0.953125,29.890625
1696241899708,0.5932617,-0.76153564,-0.4072876,21.953125,-3.078125,20.46875
1696241899738,0.49438477,-0.5093384,-0.49420166,18.0625,0.515625,24.90625
1696241899783,0.5673828,-0.3821411,-0.3892212,6.875,9.109375,21.109375
1696241899829,0.6508789,-0.378479,-0.45343018,1.375,4.046875,15.890625
1696241899859,0.5473633,-0.41241455,-0.44586182,1.421875,3.0,5.890625
1696241899903,0.59350586,-0.42803955,-0.50860596,-12.78125,6.515625,-3.125
1696241899949,0.63793945,-0.40655518,-0.45318604,-16.390625,9.59375,-11.4375
1696241899978,0.58203125,-0.38848877,-0.42144775,-23.9375,10.671875,-23.8125
1696241900024,0.43969727,-0.3587036,-0.36016846,-25.0625,9.65625,-29.828125
1696241900068,0.44873047,-0.41070557,-0.33868408,-49.1875,10.671875,-49.28125
1696241900099,0.48828125,-0.6436157,-0.2637329,-69.15625,7.875,-71.875
1696241900143,0.33764648,-1.092102,-0.25787354,-71.96875,-2.046875,-91.484375
1696241900188,-0.06542969,-1.7664185,-0.5112915,-45.09375,-9.234375,-110.328125
1696241900218,-0.05859375,-2.0,-0.27105713,-60.46875,10.578125,-87.703125
1696241900263,0.11352539,-2.0,0.1293335,-62.78125,5.609375,-71.875
1696241900309,-0.5583496,-1.6091919,0.18133545,-42.21875,-13.90625,-97.859375
1696241900338,-1.0180664,-0.77593994,0.14764404,-41.875,11.859375,-64.390625
1696241900384,-0.02734375,-0.3604126,0.25946045,-38.609375,8.640625,-50.328125
1696241900428,-0.3461914,-0.5718384,0.097351074,-28.90625,-9.53125,-46.84375
1696241900458,-0.1940918,-0.38702393,0.28607178,-23.640625,9.671875,-46.046875
1696241900504,-0.31420898,-0.34454346,0.07928467,-17.921875,-10.25,-37.984375
1696241900533,-0.63427734,-0.57110596,0.32196045,-30.734375,2.1875,-35.359375
1696241900579,-0.6574707,-0.7149048,0.22259521,-26.84375,0.359375,-54.171875
1696241900623,-0.7836914,-0.7698364,0.3925171,-44.171875,5.453125,-52.890625
1696241900654,-1.0302734,-0.8518677,0.34539795,-43.9375,10.8125,-60.5
1696241900698,-1.0234375,-0.6123657,0.5734253,-38.703125,6.484375,-57.421875
1696241900743,-1.15625,-0.5545044,0.5883179,-42.203125,23.84375,-49.3125
1696241900774,-1.3203125,-0.48809814,0.64349365,-20.46875,14.625,-38.21875
1696241900819,-1.2128906,-0.3899536,0.807312,-27.375,33.5625,-15.578125
1696241900864,-1.057373,-0.36431885,0.72698975,-15.6875,21.78125,-5.15625
1696241900893,-0.5620117,-0.12652588,0.6754761,-7.9375,28.0,3.984375
1696241900938,-0.5878906,-0.12701416,0.60272217,7.203125,1.015625,8.609375
1696241900983,-0.79003906,-0.116760254,0.59051514,3.96875,4.125,5.109375
1696241901014,-0.46289062,-0.32061768,0.571228,2.46875,9.203125,15.28125
1696241901059,-0.7565918,-0.23272705,0.6498413,4.265625,3.09375,9.484375
1696241901104,-0.6347656,-0.41973877,0.7247925,3.609375,7.421875,12.0625
1696241901134,-0.92749023,-0.39385986,0.61932373,12.46875,-0.59375,7.546875
1696241901178,-0.5656738,-0.35699463,0.7843628,15.328125,0.640625,18.625
1696241901224,-0.88793945,-0.4817505,0.7079468,20.71875,-8.421875,18.15625
1696241901254,-0.75146484,-0.43878174,0.66448975,28.578125,-8.1875,28.640625
1696241901299,-0.828125,-0.5901489,0.66741943,29.359375,-13.25,36.78125
1696241901328,-0.8718262,-0.72857666,0.61883545,33.21875,-10.015625,33.25
1696241901373,-0.78686523,-0.802063,0.5477905,34.828125,-4.6875,37.203125
1696241901419,-0.80859375,-0.7197876,0.48480225,36.875,2.078125,37.734375
1696241901448,-0.5336914,-0.71173096,0.40667725,36.4375,4.203125,37.75
1696241901494,-0.42895508,-0.6963501,0.38006592,37.953125,0.34375,40.40625
1696241901539,-0.47509766,-0.75665283,0.33172607,37.875,-4.171875,42.046875
1696241901568,-0.39160156,-0.80963135,0.322937,38.1875,-4.359375,42.328125
1696241901614,-0.4399414,-0.8496704,0.21746826,35.359375,-2.53125,43.0625
1696241901659,-0.40405273,-0.8677368,0.2189331,35.90625,-1.546875,39.328125
1696241901688,-0.33935547,-0.9248657,0.1515503,37.640625,-3.390625,42.625
1696241901733,-0.23950195,-0.9534302,0.120788574,39.09375,-6.15625,42.5
1696241901778,-0.28759766,-0.9981079,0.014343262,43.75,-12.765625,42.0625
1696241901808,-0.17407227,-0.98687744,-0.02545166,44.53125,-10.203125,46.625
1696241901853,-0.07495117,-1.0130005,-0.07574463,45.5,-11.34375,51.5625
1696241901929,0.01171875,-0.9678345,-0.10748291,51.046875,-17.578125,52.671875
1696241901931,0.015625,-0.9690552,-0.27960205,51.34375,-19.078125,60.4375
1696241901974,-0.0146484375,-0.9273071,-0.2078247,52.03125,-8.203125,65.28125
1696241902003,0.19335938,-0.80426025,-0.2630005,51.625,-6.4375,66.078125
1696241902048,0.35302734,-0.7932739,-0.43658447,46.921875,-13.578125,64.96875
1696241902093,0.43774414,-0.77667236,-0.5315552,41.265625,-8.984375,60.703125
1696241902123,0.6105957,-0.73443604,-0.6069946,46.328125,-9.578125,52.859375
1696241902168,0.53881836,-0.6218872,-0.5371704,43.140625,-4.140625,38.734375
1696241902214,0.65722656,-0.57403564,-0.5757446,40.0625,-0.796875,35.984375
1696241902243,0.60913086,-0.46783447,-0.6758423,38.734375,-7.25,26.25
1696241902289,0.63305664,-0.48760986,-0.70513916,28.921875,10.40625,24.3125
1696241902334,1.0476074,-0.4199829,-0.815979,30.375,-5.390625,21.671875
1696241902363,0.67993164,-0.45587158,-0.8364868,26.1875,-4.53125,7.46875
1696241902409,0.72216797,-0.29229736,-0.7276001,12.890625,5.921875,10.9375
1696241902454,0.81518555,-0.17462158,-0.7451782,2.953125,9.59375,5.703125
1696241902483,0.8491211,-0.18756104,-0.70513916,7.9375,3.140625,-2.953125
1696241902529,0.63623047,-0.27886963,-0.7234497,-2.46875,-0.796875,-10.765625
1696241902574,0.8273926,-0.33380127,-0.7774048,-34.84375,1.140625,-17.9375
1696241902603,0.845459,-0.44805908,-0.78131104,-34.609375,-2.078125,-30.546875
1696241902649,0.6816406,-0.40631104,-0.7124634,-33.625,-1.375,-42.625
1696241902693,0.6813965,-0.45977783,-0.56085205,-40.96875,1.3125,-41.0
1696241902723,0.39892578,-0.5195923,-0.56134033,-45.6875,-5.25,-49.140625
1696241902769,0.24560547,-0.54034424,-0.47613525,-38.90625,4.296875,-46.9375
1696241902798,0.3310547,-0.39849854,-0.40679932,-34.71875,4.703125,-40.046875
1696241902843,0.39868164,-0.23077393,-0.43145752,-36.53125,-7.40625,-40.5625
1696241902888,0.40820312,-0.35699463,-0.33624268,-34.265625,-20.6875,-32.46875
1696241902918,0.3630371,-0.5449829,-0.30841064,-25.90625,-31.203125,-39.296875
1696241902963,0.21362305,-0.67974854,-0.32940674,-23.046875,-31.078125,-47.28125
1696241903009,0.29345703,-0.786438,-0.17510986,-18.484375,-16.109375,-33.0
1696241903038,0.30810547,-0.847229,-0.038879395,-18.3125,-6.96875,-18.28125
1696241903084,0.18579102,-0.8882446,-0.09454346,-26.21875,-6.125,-24.5625
1696241903144,0.42333984,-0.9783325,-0.06427002,-7.40625,-11.0,-19.796875
1696241903158,0.47045898,-0.8875122,-0.06427002,-4.234375,-17.859375,-21.5625
1696241903204,0.21582031,-0.8621216,-0.089660645,5.015625,-27.875,-21.125
1696241903249,0.07739258,-0.7229614,-0.20977783,6.625,-20.625,-15.890625
1696241903279,0.052001953,-0.65826416,-0.42437744,-5.875,-24.28125,-4.75
1696241903323,0.6328125,-0.88238525,-0.3977661,29.703125,-24.578125,16.359375
1696241903369,0.11035156,-1.0032349,-0.364563,30.5,-28.359375,-8.0625
1696241903399,-0.103027344,-1.072815,-0.20391846,17.28125,-32.796875,8.515625
1696241903443,0.18139648,-0.925354,-0.38433838,38.203125,-42.328125,11.859375
1696241903474,0.1315918,-0.7752075,-0.37261963,31.671875,-21.875,11.71875
1696241903518,0.103027344,-0.798645,-0.4036255,34.359375,-21.890625,14.90625
1696241903564,0.16259766,-0.78082275,-0.3579712,37.578125,-15.421875,14.59375
1696241903594,0.099365234,-0.5845337,-0.3435669,33.46875,-12.875,19.421875
1696241903639,0.22998047,-0.48931885,-0.27716064,34.171875,-11.046875,20.875
1696241903684,0.12915039,-0.44903564,-0.28082275,43.109375,-20.515625,19.546875
1696241903714,-0.032958984,-0.38458252,-0.42462158,23.859375,-0.5625,17.546875
1696241903758,0.5307617,-0.53985596,-0.28863525,35.203125,0.046875,18.34375
1696241903803,0.44018555,-0.8735962,-0.46221924,25.515625,-22.9375,15.703125
1696241903834,0.41918945,-0.72125244,-0.536438,18.90625,-0.953125,7.234375
1696241903879,0.39941406,-0.6663208,-0.5161743,29.265625,-2.421875,17.96875
1696241903924,0.29589844,-0.41680908,-0.4993286,7.0625,-5.703125,12.65625
1696241903953,0.72802734,-0.6123657,-0.52349854,15.96875,-10.75,13.78125
1696241903999,0.54663086,-0.75982666,-0.6206665,13.015625,-11.921875,2.546875
1696241904043,0.4892578,-0.6272583,-0.5935669,9.625,-7.640625,1.5
1696241904074,0.5234375,-0.6165161,-0.6716919,1.0625,-10.265625,-2.703125
1696241904118,0.71728516,-0.64508057,-0.6148071,4.328125,-10.828125,2.1875
1696241904163,0.57910156,-0.5750122,-0.70318604,-0.734375,-18.375,-3.53125
1696241904193,0.6188965,-0.6873169,-0.6199341,4.171875,-6.5625,-2.09375
1696241904239,0.6472168,-0.61724854,-0.6604614,0.625,-9.46875,1.015625
1696241904268,0.6796875,-0.61968994,-0.66900635,6.0625,-21.890625,-1.765625
1696241904314,0.8874512,-0.7588501,-0.6799927,3.78125,-5.875,-0.859375
1696241904358,0.9284668,-0.8032837,-0.6946411,2.296875,-6.953125,-8.8125
1696241904388,0.7001953,-0.81866455,-0.7034302,-14.78125,-2.90625,-11.921875
1696241904434,0.86987305,-0.78985596,-0.73760986,-9.09375,-1.765625,-6.515625
1696241904479,0.8430176,-0.77349854,-0.708313,-9.484375,-1.921875,-0.03125
1696241904509,0.810791,-0.68927,-0.663147,-2.140625,-4.21875,2.046875
1696241904553,0.6418457,-0.597229,-0.553772,-1.171875,3.71875,3.71875
1696241904598,0.5373535,-0.5479126,-0.4973755,3.265625,3.140625,3.1875
1696241904629,0.6047363,-0.5679321,-0.5161743,-4.234375,3.546875,4.140625
1696241904673,0.7397461,-0.74468994,-0.63848877,-4.15625,9.03125,6.5
1696241904718,0.8935547,-0.84698486,-0.73638916,-0.359375,12.5,1.5625
1696241904748,0.9057617,-0.84454346,-0.6602173,-8.328125,13.53125,-7.9375
1696241904793,0.5961914,-0.7788696,-0.70513916,-12.953125,13.546875,-14.390625
1696241904838,0.7475586,-0.73565674,-0.66900635,-10.140625,14.953125,-0.75
1696241904869,0.75341797,-0.7263794,-0.60479736,-11.03125,7.328125,-4.375
1696241904914,0.4921875,-0.76812744,-0.6304321,-12.03125,4.8125,-10.828125
1696241904958,0.58203125,-0.7197876,-0.5779419,-11.5,8.71875,-7.921875
1696241904989,0.5588379,-0.77960205,-0.4981079,-11.3125,4.96875,-10.828125
1696241905034,0.45336914,-0.7942505,-0.517395,-10.0,2.953125,-11.3125
1696241905063,0.38964844,-0.7476196,-0.5276489,-14.703125,0.390625,-15.03125
1696241905108,0.46166992,-0.78863525,-0.4229126,-12.53125,7.796875,-12.375
1696241905153,0.33251953,-0.7810669,-0.4734497,-20.78125,2.015625,-15.9375
1696241905184,0.4086914,-0.83721924,-0.46173096,-23.625,6.390625,-14.8125
1696241905228,0.4345703,-0.8845825,-0.2962036,-14.203125,5.546875,-16.5
1696241905273,0.13183594,-0.72198486,-0.20391846,-15.59375,2.171875,-21.328125
1696241905303,0.03100586,-0.3291626,-0.25152588,-22.390625,3.421875,-15.140625
1696241905349,0.06738281,0.031433105,-0.13775635,-22.578125,1.28125,-11.890625
1696241905394,0.15454102,0.055603027,-0.18121338,-22.96875,-3.65625,-10.65625
1696241905424,0.24145508,-0.24664307,-0.24835205,-21.921875,-4.0,-8.296875
1696241905469,0.38012695,-0.62750244,-0.24810791,-13.03125,-0.546875,-8.828125
1696241905513,0.46020508,-1.1026001,-0.30670166,0.0625,-8.421875,-5.65625
1696241905544,0.2697754,-1.2307739,-0.3027954,-0.40625,-5.4375,2.609375
1696241905589,0.16210938,-0.89556885,-0.2678833,-3.09375,0.9375,2.46875
1696241905634,0.2932129,-0.8257446,-0.30108643,-4.015625,3.640625,2.796875
1696241905678,0.37890625,-0.9458618,-0.2720337,-6.859375,0.890625,6.984375
1696241905709,0.42797852,-0.9480591,-0.19317627,-4.421875,4.75,-2.609375
1696241905738,0.26782227,-0.8657837,-0.1272583,-7.390625,8.046875,-8.984375
1696241905783,0.17797852,-0.86383057,-0.09942627,-10.953125,13.25,-1.96875
1696241905828,0.18823242,-0.9924927,-0.17486572,-14.84375,27.859375,-2.28125
1696241905859,0.3227539,-0.9590454,-0.26568604,-11.109375,40.0625,1.1875
1696241905904,0.2902832,-0.8428345,-0.26153564,-10.515625,40.1875,7.9375
1696241905948,0.12475586,-0.8477173,-0.35772705,-14.578125,45.828125,11.03125
1696241905978,0.25732422,-0.9246216,-0.3928833,-18.953125,44.9375,13.15625
1696241906024,0.3173828,-0.9937134,-0.39923096,-11.59375,26.59375,4.546875
1696241906068,0.20947266,-1.0872192,-0.32183838,-11.046875,18.203125,-2.8125
1696241906099,0.13208008,-0.9937134,-0.26885986,-18.328125,10.078125,-8.625
1696241906144,0.012939453,-0.8933716,-0.2576294,-20.5,6.328125,-6.921875
1696241906188,0.014892578,-0.8621216,-0.2642212,-18.515625,6.75,0.078125
1696241906218,0.16845703,-0.8340454,-0.22198486,-22.28125,13.984375,2.453125
1696241906264,0.4243164,-0.91119385,-0.1885376,-23.421875,13.640625,-0.03125
1696241906309,0.54541016,-0.960022,-0.007873535,-14.671875,3.296875,-3.734375
1696241906338,0.052490234,-0.88726807,-0.057434082,-3.40625,-14.359375,-6.265625
1696241906383,-0.041748047,-0.9927368,-0.120666504,-10.515625,19.625,0.71875
1696241906428,0.30981445,-1.1135864,-0.047912598,-11.890625,32.296875,6.015625
1696241906459,0.28686523,-1.1365356,0.07147217,-14.4375,24.4375,4.953125
1696241906503,0.26782227,-1.1240845,0.05657959,-11.421875,21.78125,5.0
1696241906534,0.14746094,-0.91973877,0.020446777,-9.15625,23.671875,-0.15625
1696241906579,0.14868164,-0.7402954,-0.01373291,-10.015625,30.0,-3.609375
1696241906623,0.26098633,-0.7617798,0.01727295,-15.71875,35.5625,-1.78125
1696241906653,0.30200195,-0.93536377,-0.022033691,-21.015625,27.71875,-1.09375
1696241906699,0.40673828,-1.1392212,-0.0012817383,-8.65625,24.359375,2.609375
1696241906744,0.23339844,-0.96759033,-0.014465332,-1.546875,16.703125,-5.390625
1696241906773,0.2944336,-0.83135986,0.06536865,-2.5625,25.34375,-3.875
1696241906818,0.2939453,-0.84576416,0.17596436,-6.6875,18.34375,-4.015625
1696241906863,0.21655273,-0.94195557,0.12567139,-2.09375,7.328125,-12.703125
1696241906893,0.08496094,-1.055481,-0.0947876,4.78125,3.71875,-19.03125
1696241906938,0.36645508,-1.1575317,-0.061584473,0.125,20.609375,-10.078125
1696241906984,0.18041992,-0.9729614,-0.077941895,17.046875,-1.671875,-7.203125
1696241907014,-0.20776367,-0.8027954,-0.23370361,5.71875,7.8125,-7.0
1696241907058,0.040283203,-0.93292236,-0.20196533,5.703125,23.375,4.21875
1696241907103,0.1550293,-1.0803833,-0.08013916,10.6875,3.265625,-1.984375
1696241907134,-0.005126953,-1.1314087,-0.20098877,12.875,-4.6875,-3.15625
1696241907186,-0.10229492,-0.9570923,-0.20489502,14.171875,-0.109375,-6.15625
1696241907208,-0.04272461,-0.90875244,-0.18609619,12.65625,0.921875,-0.515625
1696241907253,0.049560547,-0.9439087,-0.20343018,12.1875,-2.015625,4.65625
1696241907299,0.0056152344,-0.9690552,-0.21807861,11.875,-8.015625,1.6875
1696241907328,-0.07519531,-0.9702759,-0.26983643,11.296875,-3.5,-0.421875
1696241907374,-0.048339844,-0.9927368,-0.29473877,7.125,0.59375,0.875
1696241907419,0.036865234,-0.958313,-0.24517822,6.5,5.1875,0.359375
1696241907448,4.8828125E-4,-0.95928955,-0.2625122,7.234375,2.625,1.40625
1696241907493,0.03930664,-0.9326782,-0.2642212,4.75,2.21875,1.5
1696241907538,-0.047851562,-0.9505005,-0.32281494,3.9375,3.421875,0.546875
1696241907568,-2.4414062E-4,-0.9663696,-0.33258057,2.53125,3.96875,1.921875
1696241907614,0.048339844,-0.96417236,-0.3345337,0.5625,3.609375,3.96875
1696241907658,0.013671875,-0.9492798,-0.3032837,-2.59375,0.28125,5.8125
1696241907688,-0.0029296875,-0.94488525,-0.30792236,-7.953125,0.625,5.875
1696241907733,0.0087890625,-0.97369385,-0.3303833,-6.125,-0.078125,6.140625
1696241907778,0.016357422,-0.94488525,-0.30743408,-10.171875,-1.0625,7.5625
1696241907808,0.0048828125,-0.94415283,-0.31011963,-12.53125,-3.234375,8.75
1696241907853,-0.022705078,-0.95513916,-0.3513794,-15.125,-5.0,10.296875
1696241907899,0.03149414,-0.94537354,-0.26397705,-20.15625,0.6875,9.921875
1696241907928,0.1105957,-0.98809814,-0.29766846,-22.96875,2.03125,15.984375
1696241907973,0.5817871,-1.1865845,-0.0713501,-36.4375,14.578125,26.21875
1696241908003,0.42456055,-1.067688,0.20135498,-2.0625,-15.8125,20.328125
1696241908048,-0.24438477,-0.8621216,0.02923584,-28.46875,-12.296875,17.703125
1696241908093,0.32739258,-0.8921509,0.03778076,-18.015625,20.8125,19.484375
1696241908123,0.607666,-1.1890259,0.18499756,-27.984375,4.203125,15.140625
1696241908168,0.41748047,-0.96051025,0.09246826,-7.453125,1.84375,14.640625
1696241908213,0.08496094,-0.6453247,0.11419678,-8.3125,13.203125,6.53125
1696241908243,0.33496094,-0.68048096,0.14276123,-17.453125,18.34375,14.78125
1696241908288,0.6369629,-0.87457275,0.1593628,-21.53125,12.53125,21.515625
1696241908333,0.53100586,-1.0247192,0.1317749,-5.40625,-0.75,7.078125
1696241908364,0.3425293,-0.850647,0.109313965,-1.140625,0.71875,5.625
1696241908408,0.37890625,-0.7817993,0.12225342,-6.671875,5.390625,7.796875
1696241908454,0.513916,-0.8320923,0.14398193,-6.390625,7.640625,5.390625
1696241908483,0.5107422,-0.8267212,0.15911865,-1.890625,3.5625,1.625
1696241908528,0.44433594,-0.83428955,0.15423584,-1.28125,1.296875,-0.65625
1696241908574,0.43579102,-0.8753052,0.13153076,0.21875,1.28125,0.421875
1696241908603,0.49926758,-0.8533325,0.12738037,2.5625,2.96875,1.265625
1696241908649,0.48608398,-0.8237915,0.14300537,6.078125,-0.484375,-0.46875
1696241908679,0.4321289,-0.8401489,0.13641357,4.34375,-0.125,-1.328125
1696241908723,0.46533203,-0.8389282,0.14715576,4.546875,1.921875,-3.546875
1696241908768,0.44506836,-0.8335571,0.12322998,6.671875,1.4375,-4.359375
1696241908798,0.4675293,-0.84552,0.11053467,8.421875,1.328125,-4.3125
1696241908844,0.47387695,-0.84869385,0.11199951,6.390625,1.171875,-6.375
1696241908889,0.42895508,-0.8833618,0.13861084,8.875,1.796875,-7.875
1696241908918,0.4440918,-0.84503174,0.13616943,9.453125,1.59375,-9.75
1696241908964,0.43286133,-0.8286743,0.116882324,8.0625,2.921875,-11.09375
1696241909009,0.4555664,-0.8201294,0.15228271,7.484375,3.21875,-12.1875
1696241909039,0.4399414,-0.7905884,0.13323975,10.65625,1.359375,-15.453125
1696241909084,0.38891602,-0.8140259,0.0758667,12.546875,-4.34375,-19.25
1696241909129,0.32055664,-0.9434204,-0.051330566,16.0,-14.59375,-22.703125
1696241909158,0.25219727,-1.404602,-0.30889893,12.921875,-26.421875,-17.21875
1696241909204,0.33691406,-1.3482056,-0.27618408,28.109375,9.015625,3.921875
1696241909248,0.030273438,-0.7095337,-0.16436768,11.453125,-2.640625,-28.78125
1696241909279,-0.11816406,-0.80596924,-0.10992432,0.4375,-4.421875,-15.59375
1696241909324,0.036865234,-1.0918579,-0.38726807,-3.703125,3.671875,1.4375
1696241909368,0.15039062,-1.1277466,-0.25250244,12.421875,13.890625,-16.109375
1696241909398,0.1340332,-0.8621216,-0.20904541,15.5,-0.3125,-9.1875
1696241909444,0.026123047,-0.83380127,-0.2703247,3.59375,-6.0,-1.546875
1696241909488,-0.040527344,-1.0320435,-0.2769165,-2.90625,1.15625,-5.671875
1696241909518,0.09741211,-1.0388794,-0.25787354,-1.359375,4.640625,-4.140625
1696241909569,0.19848633,-0.91729736,-0.23199463,1.234375,-2.765625,-2.8125
1696241909594,0.048583984,-0.9331665,-0.25274658,0.734375,-7.53125,-3.6875
1696241909638,-0.07324219,-1.0130005,-0.24493408,-1.546875,-1.890625,-1.109375
1696241909683,0.034423828,-1.0022583,-0.22906494,-2.328125,2.34375,1.453125
1696241909714,0.068115234,-0.94317627,-0.23590088,-2.984375,-0.140625,1.203125
1696241909758,0.018066406,-0.9651489,-0.26080322,-6.421875,-1.828125,2.578125
1696241909803,0.009033203,-1.0005493,-0.22418213,-6.109375,0.59375,2.59375
1696241909833,0.063964844,-0.97003174,-0.23345947,-7.03125,0.328125,3.53125
1696241909879,0.052734375,-0.9421997,-0.23175049,-6.078125,-1.984375,3.765625
1696241909923,0.008056641,-0.9607544,-0.23199463,-6.890625,-2.578125,2.75
1696241909953,-0.013671875,-0.97491455,-0.23297119,-9.71875,-1.140625,1.9375
1696241909999,0.024169922,-0.9751587,-0.24835205,-9.546875,1.0,4.703125
1696241910043,0.06542969,-0.94122314,-0.22906494,-9.5625,2.203125,5.484375
1696241910073,0.15234375,-0.99884033,-0.159729,-9.265625,3.90625,6.8125
1696241910118,0.33935547,-1.1314087,-0.10772705,-19.515625,11.1875,9.546875
1696241910163,0.61279297,-0.9780884,0.19476318,-11.609375,-4.1875,2.1875
1696241910194,0.1015625,-0.95928955,0.07904053,9.5625,-28.984375,-1.359375
1696241910238,0.072509766,-0.987854,-0.019592285,-9.828125,-5.203125,6.234375
1696241910268,0.4819336,-1.0271606,0.276062,-16.515625,-0.4375,14.640625
1696241910313,0.38623047,-0.98809814,0.11248779,-5.703125,-23.9375,10.40625
1696241910358,0.14697266,-0.8772583,0.054382324,0.90625,-17.625,3.8125
1696241910388,0.17504883,-0.83599854,0.1852417,-8.015625,-1.1875,0.328125
1696241910434,0.2680664,-0.85235596,0.18255615,-9.5,-2.3125,3.59375
1696241910478,0.19677734,-0.97003174,0.15960693,-8.203125,-2.796875,0.96875
1696241910509,0.22485352,-0.95806885,0.15667725,-5.390625,1.5625,-1.921875
1696241910554,0.25195312,-0.9614868,0.16107178,-3.484375,3.03125,-1.203125
1696241910598,0.2705078,-0.93707275,0.14764404,-0.84375,4.703125,-1.078125
1696241910629,0.28149414,-0.91656494,0.13470459,-0.828125,4.890625,-0.671875
1696241910674,0.32373047,-0.9307251,0.12176514,1.015625,1.140625,0.90625
1696241910719,0.37109375,-0.92926025,0.16571045,2.75,2.78125,0.65625
1696241910748,0.31713867,-0.9368286,0.15350342,3.640625,4.3125,1.59375
1696241910794,0.2939453,-0.8718872,0.13494873,3.3125,7.65625,-1.328125
1696241910868,0.35375977,-0.8452759,0.090026855,9.484375,4.75,2.390625
1696241910884,0.3474121,-0.7661743,0.0680542,14.046875,3.40625,4.421875
1696241910913,0.31323242,-0.8233032,0.022399902,18.71875,1.25,7.40625
1696241910944,0.27490234,-0.82769775,-0.04107666,26.03125,4.5625,5.140625
1696241910988,0.15698242,-0.86553955,-0.24932861,29.8125,6.0,4.203125
1696241911034,0.3630371,-0.8821411,-0.333313,37.140625,17.65625,17.828125
1696241911064,0.50878906,-0.78009033,-0.37921143,42.546875,17.640625,25.5625
1696241911109,0.3215332,-0.8255005,-0.35894775,33.828125,11.6875,18.140625
1696241911153,0.28125,-0.7971802,-0.36016846,45.25,-2.171875,17.703125
1696241911184,0.28344727,-0.58843994,-0.49346924,48.8125,-3.59375,21.09375
1696241911228,0.42749023,-0.47955322,-0.4397583,43.171875,3.4375,35.96875
1696241911274,0.5571289,-0.4277954,-0.270813,42.453125,-5.265625,34.78125
1696241911303,0.1887207,-0.48150635,-0.44244385,53.375,-24.140625,32.25
1696241911348,0.19824219,-0.34039307,-0.46148682,30.234375,-4.5625,35.203125
1696241911394,0.55810547,-0.36895752,-0.40777588,23.40625,-4.78125,23.40625
1696241911423,0.3955078,-0.42755127,-0.48272705,5.921875,-3.578125,7.921875
1696241911469,0.43676758,-0.38555908,-0.49664307,3.953125,-6.171875,-2.015625
1696241911514,0.46240234,-0.53204346,-0.56451416,-11.71875,-2.890625,-16.46875
1696241911543,0.7219238,-0.54766846,-0.5161743,-27.921875,-1.0,-26.90625
1696241911588,0.6296387,-0.55303955,-0.48760986,-32.703125,-1.75,-37.234375
1696241911633,0.41186523,-0.60650635,-0.5022583,-44.03125,9.109375,-62.75
1696241911664,0.50024414,-1.0125122,-0.41680908,-63.6875,15.0,-67.21875
1696241911709,0.7331543,-1.8582153,-0.34869385,-85.4375,14.15625,-76.921875
1696241911738,0.3256836,-2.0,-0.7876587,-41.328125,-7.84375,-78.3125
1696241911783,-0.052978516,-1.9656372,0.070007324,-48.890625,5.296875,-40.671875
1696241911829,-0.09887695,-1.7139282,0.016296387,-38.5,7.71875,-57.625
1696241911858,-0.2409668,-1.0618286,0.06512451,-25.53125,-5.171875,-45.921875
1696241911903,-0.31958008,-0.5105591,0.16326904,-25.21875,1.75,-33.796875
1696241911949,-0.104003906,-0.21710205,0.17938232,-25.1875,-3.609375,-32.375
1696241911978,-0.27783203,-0.52593994,0.15838623,-10.40625,-3.9375,-19.828125
1696241912023,-0.17578125,-0.4492798,0.105651855,-4.171875,6.015625,-17.875
1696241912069,-0.2668457,-0.58551025,0.13397217,-7.75,-1.390625,-14.09375
1696241912098,-0.3581543,-0.80718994,0.15496826,-6.984375,-2.765625,-12.4375
1696241912144,-0.39575195,-1.0134888,0.13909912,-8.75,0.203125,-16.421875
1696241912188,-0.4543457,-1.2857056,0.2008667,-10.265625,-3.484375,-17.109375
1696241912218,-0.49804688,-1.4880981,0.18939209,-10.3125,6.5,-10.96875
1696241912263,-0.4543457,-1.560852,0.14154053,-4.015625,1.234375,-9.734375
1696241912324,-0.42236328,-1.3027954,0.1828003,1.125,10.25,1.25
1696241912338,-0.27539062,-1.0689087,0.113708496,5.0625,8.140625,7.96875
1696241912383,-0.3388672,-0.90826416,0.168396,14.75,3.5,14.5625
1696241912413,-0.26879883,-0.69415283,0.13201904,14.96875,0.015625,14.328125
1696241912459,-0.17797852,-0.6470337,0.09222412,12.859375,-6.140625,12.171875
1696241912504,-0.22729492,-0.74835205,0.05340576,11.921875,-5.328125,10.796875
1696241912533,-0.2824707,-0.8115845,0.06488037,11.28125,-0.03125,11.765625
1696241912578,-0.22705078,-0.89141846,0.06976318,12.453125,1.109375,15.515625
1696241912623,-0.24365234,-1.0523071,0.008483887,19.859375,-10.109375,17.890625
1696241912653,-0.23632812,-1.1707153,0.024841309,21.71875,-8.875,23.0
1696241912698,-0.26391602,-1.242981,-0.010070801,19.296875,-4.140625,26.5625
1696241912743,-0.2355957,-1.22052,-0.038635254,22.546875,1.828125,30.15625
1696241912773,-0.059570312,-1.1499634,-0.117492676,30.203125,-7.9375,37.21875
1696241912818,-0.16430664,-1.0986938,-0.09503174,36.375,-11.921875,44.484375
1696241912864,-0.07861328,-0.96295166,-0.09991455,38.359375,-7.640625,53.5
1696241912894,-0.055419922,-0.8855591,-0.1729126,40.0625,-13.140625,63.953125
1696241912938,0.07299805,-0.8381958,-0.17706299,50.703125,-16.84375,70.625
1696241912998,0.26171875,-0.7996216,-0.27593994,49.453125,-17.3125,73.09375
1696241913013,0.20776367,-0.8513794,-0.41705322,45.84375,-13.984375,72.203125
1696241913074,0.51293945,-0.7061157,-0.5784302,46.25,-2.203125,75.9375
1696241913134,0.7089844,-0.864563,-0.66412354,52.71875,-5.40625,55.9375
1696241913136,0.7675781,-0.72076416,-0.9573364,34.984375,17.703125,45.171875
1696241913178,1.5285645,-0.49761963,-0.7918091,22.46875,-4.4375,48.078125
1696241913209,0.8833008,-0.647522,-0.86309814,18.59375,-31.046875,5.6875
1696241913253,0.66381836,-0.47491455,-0.6970825,-1.125,11.140625,-8.0625
1696241913298,0.9929199,-0.26934814,-0.6416626,-14.65625,10.140625,-14.328125
1696241913328,0.7504883,-0.28424072,-0.52911377,-4.125,-14.46875,-18.640625
1696241913374,0.5463867,-0.40411377,-0.60772705,-22.640625,-4.15625,-19.828125
1696241913418,0.7480469,-0.5108032,-0.6067505,-35.40625,7.1875,-30.9375
1696241913448,0.66015625,-0.5305786,-0.4890747,-27.53125,4.390625,-32.859375
1696241913493,0.57910156,-0.5071411,-0.47052002,-34.796875,8.65625,-45.140625
1696241913538,0.55688477,-0.5354614,-0.36871338,-40.859375,10.3125,-45.640625
1696241913568,0.46484375,-0.5574341,-0.32476807,-41.734375,2.171875,-42.109375
1696241913613,0.44458008,-0.47711182,-0.30230713,-40.421875,2.203125,-45.75
1696241913674,0.3852539,-0.3670044,-0.2564087,-37.40625,5.40625,-46.09375
1696241913690,0.2541504,-0.3015747,-0.2727661,-33.46875,2.734375,-39.796875
1696241913733,0.2548828,-0.3110962,-0.25128174,-26.484375,5.71875,-24.140625
1696241913778,0.2697754,-0.3965454,-0.27789307,-20.296875,-2.0,-14.875
1696241913809,0.41088867,-0.6663208,-0.21636963,-15.25,-5.734375,-4.625
1696241913853,0.47094727,-1.0828247,-0.28277588,-17.078125,-16.453125,-1.125
1696241913899,0.43603516,-1.2109985,-0.1795044,1.046875,-1.375,2.046875
1696241913928,0.29223633,-0.94195557,-0.1819458,9.578125,3.984375,1.046875
1696241913973,0.20263672,-0.78326416,-0.19927979,2.03125,9.796875,0.71875
1696241914003,0.26513672,-0.80792236,-0.16046143,-0.890625,12.609375,4.375
1696241914048,0.36035156,-0.8147583,-0.17340088,-5.5,5.09375,5.28125
1696241914093,0.40429688,-0.895813,-0.20684814,-9.0625,3.28125,6.453125
1696241914123,0.43603516,-0.99176025,-0.2197876,-8.375,-5.140625,6.9375
1696241914168,0.37304688,-0.9866333,-0.23931885,19.421875,-13.78125,7.484375
1696241914213,0.48779297,-0.63165283,-0.26470947,22.546875,-5.9375,9.890625
1696241914243,0.33666992,-0.6021118,-0.17828369,15.140625,-10.546875,4.265625
1696241914288,0.32373047,-0.7234497,-0.29522705,22.3125,-20.34375,9.421875
1696241914334,0.52246094,-0.538147,-0.23565674,31.859375,-18.53125,17.28125
1696241914363,0.41796875,-0.41729736,-0.2859497,40.28125,-31.203125,18.53125
1696241914409,0.34960938,-0.2925415,-0.34332275,50.328125,-45.78125,20.265625
1696241914453,0.2709961,-0.33380127,-0.34136963,46.625,-57.75,13.4375
1696241914483,0.2626953,-0.612854,-0.4746704,34.34375,-56.734375,10.328125
1696241914528,0.47216797,-0.8308716,-0.23443604,35.015625,-39.859375,10.78125
1696241914573,0.19897461,-0.800354,-0.44488525,38.109375,-36.375,3.734375
1696241914605,0.47021484,-0.56256104,-0.28253174,25.75,-7.609375,13.109375
