,timestamp,accel_x,accel_y,accel_z,gyro_x,gyro_y,gyro_z
0,1697605965,0.019042969,-0.008361816,-0.02960205,16.921875,13.4375,0.578125
1,1697606005,0.064208984,-0.008117676,-0.07623291,15.859375,4.84375,10.5
2,1697606045,0.021240234,0.038757324,0.19281006,18.796875,-9.9375,15.015625
3,1697606085,-0.28271484,-0.9631958,-0.89385986,122.546875,-28.25,-1.171875
4,1697606125,0.43237305,-2.0,-0.34552002,53.859375,-7.015625,-1.875
5,1697606165,-1.4492188,-2.0,0.54730225,-32.40625,64.71875,61.109375
6,1697606205,-0.9187012,-1.388977,-0.70318604,-18.359375,55.453125,-37.609375
7,1697606245,0.06616211,-2.0,-0.8562622,31.5,96.609375,-21.109375
8,1697606285,-0.049316406,-2.0,-0.30426025,-19.875,56.15625,18.21875
9,1697606325,-0.390625,-2.0,-0.37213135,-33.984375,52.078125,0.15625
10,1697606365,-0.1875,-2.0,-0.36016846,-37.296875,54.25,2.859375
11,1697606405,-0.1328125,-1.2544556,-0.4151001,-72.90625,58.171875,9.03125
12,1697606445,-0.05444336,0.18865967,-0.5479126,-57.59375,46.1875,8.59375
13,1697606485,0.15551758,1.0158081,-0.20196533,-15.796875,34.078125,29.125
14,1697606525,0.12890625,0.27459717,0.014587402,5.8125,20.46875,-0.84375
15,1697606565,-0.13452148,-0.04522705,0.053894043,19.84375,16.5,-5.515625
16,1697606605,-0.1538086,-0.22515869,-0.051086426,10.3125,23.09375,2.6875
17,1697606645,-0.020019531,-0.024475098,0.006286621,1.171875,29.265625,6.078125
18,1697606685,-0.02319336,0.24163818,-0.011779785,7.4375,30.34375,3.03125
19,1697606725,0.0078125,0.06536865,-0.06939697,13.21875,31.40625,0.046875
20,1697606765,-0.052490234,-0.012268066,-0.026428223,15.078125,27.78125,0.703125
21,1697606805,-0.029541016,0.059753418,0.0079956055,19.140625,31.03125,2.015625
22,1697606845,-0.08203125,0.02923584,0.020690918,25.359375,27.875,4.59375
23,1697606885,-0.07348633,-0.39483643,-0.7268677,92.203125,23.734375,5.75
24,1697606925,0.50878906,-2.0,-0.49005127,148.57812,-46.671875,-80.96875
25,1697606965,-0.7663574,-2.0,0.16473389,-22.53125,76.53125,89.546875
26,1697607005,-0.6994629,-1.62677,-0.3838501,-23.0625,16.78125,-24.625
27,1697607045,0.5209961,-2.0,-0.8545532,21.609375,30.09375,-11.671875
28,1697607085,0.14990234,-2.0,-0.15142822,-20.046875,19.125,20.5625
29,1697607125,-0.56591797,-2.0,-0.27008057,-31.359375,26.78125,-0.984375
30,1697607165,0.13989258,-2.0,-0.2053833,-38.046875,34.78125,-15.828125
31,1697607205,-0.07763672,-0.8381958,-0.26055908,-79.46875,43.0,17.21875
32,1697607245,0.106933594,0.4598999,-0.42218018,-72.703125,-0.03125,18.21875
33,1697607285,-0.068359375,0.883728,-0.5449829,-24.140625,-0.734375,0.375
34,1697607325,0.17822266,0.12591553,-0.120910645,-1.3125,6.9375,-12.671875
35,1697607365,0.064941406,-0.120910645,-0.010070801,23.8125,-2.84375,-5.0625
36,1697607405,0.029541016,-0.31085205,-0.046203613,-5.015625,-11.21875,15.6875
37,1697607445,-0.18725586,0.15594482,-0.06719971,-16.609375,-3.078125,5.59375
38,1697607485,-0.026367188,0.20550537,0.0211792,-3.296875,8.828125,-0.84375
39,1697607525,0.037353516,-0.0025024414,-0.042297363,1.640625,3.59375,1.4375
40,1697607565,-0.06616211,-0.00030517578,0.06463623,-3.90625,2.984375,3.015625
41,1697607605,-0.17822266,0.1227417,0.13616943,-2.390625,9.671875,0.71875
42,1697607645,-0.10522461,-0.026916504,0.33050537,17.015625,14.265625,-3.234375
43,1697607685,0.022949219,-0.71661377,0.09906006,98.0,24.203125,-7.15625
44,1697607725,0.7246094,-2.0,-0.117248535,67.734375,-52.109375,-6.296875
45,1697607765,-0.2553711,-2.0,-0.62677,34.78125,3.671875,29.5
46,1697607805,0.016357422,-2.0,0.094177246,30.890625,-3.390625,8.0
47,1697607845,-0.49047852,-2.0,0.031921387,-12.5,14.640625,9.546875
48,1697607885,0.20996094,-2.0,-0.21636963,-11.859375,5.078125,-8.203125
49,1697607925,0.18286133,-2.0,-0.22613525,-2.6875,-5.96875,0.84375
50,1697607965,0.09741211,-2.0,-0.37799072,-27.9375,-1.21875,-5.8125
51,1697608005,-0.064697266,-1.5254517,-0.3123169,-76.609375,25.0,-0.46875
52,1697608045,-0.16625977,-0.086242676,-0.22784424,-98.84375,16.234375,7.359375
53,1697608085,0.0061035156,1.0094604,-0.19976807,-30.734375,16.390625,6.421875
54,1697608125,0.20385742,0.35394287,-0.14361572,-8.25,-4.484375,-6.75
55,1697608165,0.02709961,-0.09112549,-0.018127441,3.265625,-7.09375,-13.4375
56,1697608205,-0.10839844,-0.1350708,-0.046447754,4.3125,-7.453125,-3.296875
57,1697608245,-0.020751953,0.018493652,0.0033569336,4.8125,-2.640625,2.03125
58,1697608285,-0.013916016,0.12200928,0.028015137,12.671875,-2.203125,3.421875
59,1697608325,-0.048339844,0.0016479492,0.0048217773,14.78125,-4.859375,4.6875
60,1697608365,-0.022216797,0.0004272461,-0.043518066,10.453125,0.4375,0.75
61,1697608405,-0.04321289,0.035827637,-0.045959473,16.34375,4.421875,-0.5
62,1697608445,-0.048828125,-0.04498291,0.20184326,19.171875,1.375,-1.203125
63,1697608485,-0.084472656,-0.78204346,0.21160889,67.71875,-2.140625,-7.71875
64,1697608525,0.77783203,-2.0,-0.97735596,83.609375,-25.390625,-42.359375
65,1697608565,0.2529297,-1.6582642,-0.029846191,17.90625,17.484375,63.21875
66,1697608605,-0.9445801,-1.6873169,-0.14752197,26.75,19.921875,4.421875
67,1697608645,0.39575195,-1.4390259,-0.36505127,33.109375,27.671875,-16.8125
68,1697608685,0.57910156,-2.0,-0.22491455,15.734375,-7.125,21.046875
69,1697608725,-0.016845703,-1.3999634,-0.19171143,-2.296875,-9.015625,19.046875
70,1697608765,-0.29248047,-1.5359497,-0.24786377,13.078125,-2.140625,-5.671875
71,1697608805,-0.07299805,-1.9675903,-0.3123169,15.828125,-1.28125,-11.1875
72,1697608845,0.17260742,-2.0,-0.54815674,-12.75,-10.9375,-6.234375
73,1697608885,0.018798828,-2.0,-0.37164307,-19.875,-1.125,-15.953125
74,1697608925,-0.0073242188,-1.4993286,-0.55181885,-41.203125,26.625,-15.953125
75,1697608965,-0.0234375,-0.57403564,-0.1531372,-75.375,26.296875,-5.15625
76,1697609005,-0.0715332,0.34613037,-0.054016113,-58.765625,16.125,24.0625
77,1697609045,-0.016357422,0.8590698,-0.20123291,-21.734375,16.265625,9.015625
78,1697609085,0.12524414,0.22283936,-0.028137207,-4.796875,12.375,-18.828125
79,1697609125,0.01586914,-0.04425049,-0.015930176,8.921875,3.5,-8.203125
80,1697609165,0.03173828,-0.09991455,-0.030822754,11.0,-1.0625,9.046875
81,1697609205,-0.06933594,0.030212402,0.0004272461,9.84375,-1.5625,14.8125
82,1697609245,-0.08911133,0.13665771,0.039978027,13.59375,2.046875,14.109375
83,1697609285,0.0029296875,0.08074951,0.020690918,12.40625,3.6875,10.21875
84,1697609325,0.03125,0.012390137,0.061706543,14.21875,-1.234375,4.875
85,1697609365,-0.14111328,-0.034729004,0.097595215,15.28125,-11.828125,1.90625
86,1697609405,0.09082031,-1.019104,-1.3569946,124.90625,-14.9375,-1.859375
87,1697609445,0.35302734,-2.0,-0.6465454,39.4375,-38.796875,-54.453125
88,1697609485,-1.0349121,-2.0,-0.19195557,-11.515625,12.8125,36.859375
89,1697609525,-0.30078125,-1.1155396,-0.8130493,19.25,20.921875,-18.890625
90,1697609565,0.920166,-2.0,-0.76568604,51.1875,17.15625,-19.3125
91,1697609605,0.07299805,-2.0,-0.47003174,-22.734375,-11.015625,28.0
92,1697609645,-0.38305664,-1.4768677,-0.4578247,-21.765625,-10.53125,-5.53125
93,1697609685,-0.18432617,-2.0,-0.67022705,14.1875,6.296875,-31.296875
94,1697609725,0.62890625,-2.0,-0.6633911,-30.59375,-5.203125,-19.796875
95,1697609765,-0.22265625,-1.6643677,-0.74468994,-68.5,37.359375,8.84375
96,1697609805,-0.08886719,-0.5576782,-0.32891846,-99.28125,23.03125,-17.140625
97,1697609845,0.14770508,0.52020264,-0.14215088,-58.734375,7.0625,3.5
98,1697609885,0.15063477,0.77874756,-0.050842285,-19.5625,0.40625,23.359375
99,1697609925,0.09790039,0.101257324,-0.029846191,-3.9375,-11.09375,-7.046875
100,1697609965,-0.08911133,-0.031555176,-0.016662598,3.859375,-19.484375,-4.359375
101,1697610005,-0.06616211,-0.11505127,0.015075684,2.4375,-15.34375,8.4375
102,1697610045,-0.08569336,0.05267334,0.053894043,1.75,-12.0,6.625
103,1697610085,-0.06518555,0.13079834,0.015563965,0.96875,-3.765625,3.96875
104,1697610125,0.031982422,0.07659912,-0.023254395,3.859375,-7.046875,-0.546875
105,1697610165,-0.06542969,-0.011779785,-0.057922363,7.375,-11.890625,-0.015625
106,1697610205,-0.10888672,0.081726074,0.19500732,9.953125,-3.0,-1.78125
107,1697610245,-0.036132812,-0.3411255,-0.2732544,30.5625,-7.296875,7.40625
108,1697610285,-0.94506836,-2.0,-1.4910278,169.96875,-11.046875,-99.390625
109,1697610325,0.6503906,-2.0,-0.348938,-8.203125,22.609375,95.359375
110,1697610365,-1.1391602,-1.5584106,-0.027648926,-33.015625,23.234375,13.828125
111,1697610405,-0.16308594,-0.90802,-0.5081177,18.328125,13.46875,-32.375
112,1697610445,1.0031738,-2.0,-0.3255005,28.203125,-3.1875,12.15625
113,1697610485,-0.28808594,-1.6433716,-0.10699463,-25.734375,-4.046875,19.40625
114,1697610525,-0.5041504,-0.89019775,0.02557373,-22.171875,-0.453125,3.65625
115,1697610565,-0.21948242,-1.1011353,-0.14727783,12.109375,-3.765625,-5.578125
116,1697610605,-0.08935547,-2.0,-0.2888794,34.34375,-11.5,-41.21875
117,1697610645,0.203125,-2.0,-0.20904541,-25.03125,-14.28125,0.53125
118,1697610685,-0.27563477,-2.0,-0.33428955,-37.6875,6.5,-9.3125
119,1697610725,-0.2770996,-1.3364868,-0.37579346,-65.890625,31.296875,-8.171875
120,1697610765,-0.029785156,-0.17803955,-0.39215088,-91.796875,30.0625,1.5
121,1697610805,0.2368164,0.8461304,-0.074523926,-36.484375,5.953125,21.90625
122,1697610845,0.018798828,0.48065186,-0.082336426,-7.8125,-4.390625,-8.140625
123,1697610885,0.14428711,-0.0005493164,-0.04547119,7.90625,-10.84375,-14.953125
124,1697610925,0.16845703,-0.14971924,0.05609131,4.28125,-27.484375,-0.71875
125,1697610965,-0.10888672,0.014587402,0.016784668,-2.859375,-31.1875,3.546875
126,1697611005,-0.17236328,0.12371826,0.029724121,2.34375,-12.984375,3.890625
127,1697611045,-0.040527344,0.113464355,-0.1116333,9.640625,-8.078125,2.828125
128,1697611085,0.10668945,0.0524292,0.014099121,15.234375,-12.78125,3.734375
129,1697611125,0.00024414062,-0.043273926,0.15667725,14.21875,-19.65625,8.0625
130,1697611165,-0.22802734,-0.74176025,-0.117004395,68.640625,-13.59375,0.203125
131,1697611205,-0.27905273,-2.0,-0.5339966,53.5,-131.375,-33.96875
132,1697611245,-0.079833984,-2.0,-0.1921997,-19.328125,-23.828125,2.5
133,1697611285,-0.82299805,-2.0,0.11834717,-5.203125,-1.453125,12.5
134,1697611325,-0.25830078,-1.9590454,-0.1687622,-11.140625,-14.890625,-23.625
135,1697611365,0.020507812,-1.6856079,-0.0256958,-23.578125,1.265625,2.3125
136,1697611405,-0.24389648,-0.8718872,-0.1951294,-42.5,19.484375,6.21875
137,1697611445,-0.017333984,-0.23614502,-0.08892822,-30.890625,20.25,8.921875
138,1697611485,0.21142578,0.24041748,0.093688965,-4.234375,12.71875,21.671875
139,1697611525,-0.0087890625,0.29974365,-0.027648926,11.53125,2.34375,14.171875
140,1697611565,0.043945312,0.13861084,-0.026672363,23.859375,-6.53125,7.140625
141,1697611605,0.02734375,-0.030822754,-0.23321533,25.609375,-21.1875,23.515625
142,1697611645,0.02734375,-0.016662598,-0.046203613,23.03125,-23.546875,31.828125
143,1697611685,0.1081543,-0.5562134,-0.061584473,44.578125,-21.421875,7.296875
144,1697611725,-0.3125,-1.4336548,-0.5112915,81.875,-19.65625,-31.5625
145,1697611765,0.37353516,-1.8999634,-0.3814087,25.359375,4.03125,18.078125
146,1697611805,0.23510742,-1.4580688,-0.2888794,11.484375,-19.09375,11.703125
147,1697611845,-0.07080078,-1.1885376,-0.41949463,24.640625,-14.078125,24.46875
148,1697611885,0.32958984,-1.1431274,-0.5303345,25.375,-8.1875,21.0
149,1697611925,0.21166992,-1.3389282,-0.4072876,25.75,-20.296875,12.28125
150,1697611965,0.029296875,-1.0408325,-0.30548096,10.328125,-9.921875,25.890625
151,1697612005,0.14233398,-0.8909302,-0.3977661,15.6875,-9.53125,18.8125
152,1697612045,0.07763672,-1.1511841,-0.3789673,24.984375,-2.328125,-2.1875
153,1697612085,0.26831055,-1.3447876,-0.56622314,7.59375,-5.25,-11.1875
154,1697612125,0.4572754,-1.6519165,-0.6358032,13.640625,-13.578125,-15.03125
155,1697612165,0.13769531,-2.0,-0.6448364,-10.28125,-17.34375,-17.875
156,1697612205,0.20581055,-2.0,-0.647522,-21.078125,-13.59375,-27.21875
157,1697612245,0.09082031,-2.0,-0.6421509,-37.578125,-12.265625,-34.421875
158,1697612285,0.053710938,-2.0,-0.55963135,-60.34375,0.015625,-26.890625
159,1697612325,-0.011962891,-1.2935181,-0.41656494,-82.328125,28.5625,-18.828125
160,1697612365,-0.0053710938,-0.31695557,-0.29205322,-97.953125,27.21875,-14.21875
161,1697612405,-0.09741211,0.66864014,-0.27349854,-67.875,27.859375,4.90625
162,1697612445,0.02758789,0.89764404,-0.077941895,-18.859375,22.75,9.09375
163,1697612485,0.234375,0.23651123,0.015563965,-5.5,13.90625,-26.90625
164,1697612525,-0.049072266,-0.15142822,-0.030578613,4.6875,1.28125,-32.578125
165,1697612565,-0.2565918,-0.52130127,-0.2185669,-20.984375,11.609375,-0.640625
166,1697612605,0.17993164,0.2531128,-0.029846191,-14.703125,17.71875,-2.75
167,1697612645,0.2590332,0.24725342,0.026306152,11.09375,5.265625,-10.15625
168,1697612685,-0.15649414,-0.15826416,-0.077697754,13.234375,-9.875,9.3125
169,1697612725,-0.05834961,0.078552246,0.031188965,14.1875,-3.53125,4.265625
170,1697612765,-0.02368164,-0.15118408,-0.105285645,22.484375,-0.328125,2.15625
171,1697612805,-0.061279297,-1.9771118,-0.3735962,106.25,-12.421875,-41.84375
172,1697612845,1.1374512,-2.0,-0.21881104,15.421875,-39.140625,63.859375
173,1697612885,-0.8054199,-2.0,-0.051086426,-6.90625,27.859375,44.71875
174,1697612925,-0.22241211,-1.4851685,-0.25128174,-17.40625,-12.421875,1.09375
175,1697612965,0.21484375,-1.5713501,-0.08331299,11.84375,-0.265625,11.859375
176,1697613005,0.045166016,-1.5130005,-0.010314941,-1.40625,13.34375,6.5
177,1697613045,-0.033447266,-1.1130981,0.0289917,-8.3125,6.796875,12.21875
178,1697613085,-0.16772461,-0.84576416,-0.013977051,-11.109375,1.78125,5.21875
179,1697613125,0.13427734,-0.78131104,-0.0068969727,-7.859375,0.125,9.765625
180,1697613165,0.17407227,-0.7427368,0.034118652,-14.234375,-1.734375,7.4375
181,1697613205,0.032226562,-0.63360596,-0.082336426,-14.875,-0.203125,-3.265625
182,1697613245,0.057128906,-0.61553955,-0.07183838,-3.578125,3.25,-5.546875
183,1697613285,-0.044921875,-0.73443604,0.06732178,6.78125,-4.078125,-1.171875
184,1697613325,-0.10888672,-0.6741333,0.12640381,-5.140625,1.734375,-1.171875
185,1697613365,-0.03540039,-0.44171143,-0.031066895,-13.390625,0.8125,-2.296875
186,1697613405,0.13427734,-0.37530518,-0.14019775,-5.28125,9.890625,-3.15625
187,1697613445,0.12231445,-0.4734497,0.0211792,14.65625,1.4375,-1.9375
188,1697613485,0.034179688,-0.7896118,-0.08453369,20.125,-2.046875,4.859375
189,1697613525,0.08081055,-1.0784302,0.2514038,24.71875,-7.046875,-2.1875
190,1697613565,-0.31762695,-1.2090454,-0.11773682,9.984375,-3.59375,-7.6875
191,1697613605,-0.04296875,-1.6018677,-0.03277588,20.453125,2.09375,-13.828125
192,1697613645,-0.111816406,-2.0,-0.112854004,19.546875,-10.671875,-11.015625
193,1697613685,0.072509766,-2.0,-0.11920166,1.875,-8.484375,-6.765625
194,1697613725,0.035888672,-2.0,-0.27252197,-2.9375,-18.578125,-15.359375
195,1697613765,0.01977539,-2.0,-0.33233643,-19.765625,-24.890625,-23.96875
196,1697613805,-0.23730469,-1.4954224,-0.3880005,-48.703125,-12.4375,-17.515625
197,1697613845,-0.24804688,-0.47418213,-0.25445557,-96.359375,7.078125,-9.984375
198,1697613885,0.21777344,0.6408081,-0.15802002,-31.640625,18.15625,9.171875
199,1697613925,0.5185547,0.6473999,-0.11920166,-0.515625,-17.03125,-7.953125
200,1697613965,-0.018310547,-0.16021729,-0.105529785,-1.140625,-35.828125,-9.8125
201,1697614005,-0.07348633,-0.270813,0.028503418,-5.625,-27.234375,6.921875
202,1697614045,-0.07543945,0.06512451,0.14056396,-2.5,-20.953125,9.859375
203,1697614085,-0.0703125,0.12615967,0.06536865,-2.03125,-11.921875,3.09375
204,1697614125,0.0390625,0.0021362305,-0.070129395,-4.3125,-12.015625,-3.109375
205,1697614165,-0.032226562,-0.0051879883,0.010437012,-2.9375,-19.21875,-1.078125
206,1697614205,-0.107421875,-0.015197754,0.10223389,-2.1875,-14.953125,-0.96875
207,1697614245,-0.07836914,-0.5327759,-0.10040283,21.359375,-26.171875,6.046875
208,1697614285,-0.9963379,-2.0,-0.6133423,156.01562,-57.296875,-99.203125
209,1697614325,0.23583984,-2.0,0.14349365,-32.453125,-15.625,66.90625
210,1697614365,-0.9543457,-2.0,0.32122803,-15.375,-22.296875,26.21875
211,1697614405,-0.28173828,-1.2666626,-0.09698486,-2.640625,-40.421875,-5.0
212,1697614445,-0.05834961,-1.6882935,-0.01373291,-1.46875,-21.171875,11.8125
213,1697614485,-0.3178711,-1.1555786,0.1642456,-11.671875,-22.625,3.53125
214,1697614525,-0.65966797,-0.9155884,0.041931152,-5.375,14.09375,1.328125
215,1697614565,0.038330078,-0.7542114,-0.054748535,-11.578125,4.078125,-1.265625
216,1697614605,0.020507812,-0.7390747,0.013122559,-7.3125,-9.484375,-4.90625
217,1697614645,-0.079589844,-0.72369385,0.04876709,-12.3125,-12.0,-3.53125
218,1697614685,-0.017578125,-0.6218872,0.074645996,-15.265625,-11.375,-1.375
219,1697614725,-0.21240234,-0.63287354,0.09954834,-6.765625,-9.078125,-6.828125
220,1697614765,-0.1640625,-0.8208618,0.06317139,1.484375,-4.515625,-6.703125
221,1697614805,-0.052978516,-0.9685669,0.06732178,1.15625,-11.796875,-5.03125
222,1697614845,-0.26538086,-0.98272705,0.12298584,-1.359375,-13.1875,-1.203125
223,1697614885,-0.3244629,-0.90338135,0.12786865,-0.25,-1.75,2.375
224,1697614925,-0.13012695,-0.74102783,0.0758667,-1.90625,3.421875,5.90625
225,1697614965,0.0690918,-0.52227783,0.024108887,2.90625,-0.84375,14.46875
226,1697615005,0.03515625,-0.5664673,0.008972168,16.3125,-11.3125,17.734375
227,1697615045,-0.06201172,-0.6331177,-0.02545166,22.9375,-12.21875,11.578125
228,1697615085,-0.14257812,-0.69854736,-0.12384033,24.40625,-6.109375,12.578125
229,1697615125,-0.046875,-0.8052368,-0.015197754,27.765625,2.703125,14.3125
230,1697615165,-0.19897461,-0.8779907,-0.015686035,25.75,-5.640625,13.453125
231,1697615205,-0.12817383,-1.013977,0.081726074,28.078125,4.09375,6.21875
232,1697615245,0.032958984,-1.3706665,-0.15338135,25.265625,2.53125,4.125
233,1697615285,0.11645508,-1.5220337,-0.06402588,18.65625,-12.15625,-1.625
234,1697615325,-0.12768555,-1.9255981,-0.23980713,17.703125,-17.78125,-4.890625
235,1697615365,-0.08959961,-2.0,-0.4043579,5.5625,-17.515625,-13.6875
236,1697615405,-0.24658203,-2.0,-0.4492798,-7.65625,-10.53125,-10.359375
237,1697615445,-0.46899414,-2.0,-0.34552002,-36.046875,11.78125,-10.125
238,1697615485,-0.48461914,-1.7207642,-0.39971924,-59.109375,34.71875,-13.46875
239,1697615525,-0.068115234,-0.7852173,-0.30792236,-73.546875,40.875,-13.828125
240,1697615565,0.39404297,0.16156006,-0.08721924,-57.78125,12.1875,12.828125
241,1697615605,0.15136719,0.87615967,-0.08770752,-10.515625,6.25,22.46875
242,1697615645,0.13330078,0.18719482,-0.03692627,-1.484375,-3.984375,-20.6875
243,1697615685,-0.1809082,-0.1428833,0.01751709,1.578125,-9.484375,-12.203125
244,1697615725,-0.030029297,-0.22174072,-0.015930176,-7.59375,-6.859375,4.1875
245,1697615765,0.04345703,0.019714355,0.0060424805,-8.546875,-11.25,9.203125
246,1697615805,0.014160156,0.18914795,-0.09625244,-3.109375,-9.5625,8.15625
247,1697615845,0.001953125,0.038757324,-0.03741455,-2.625,-12.453125,4.296875
248,1697615885,0.03515625,-0.07476807,0.12957764,-11.578125,-10.609375,1.328125
249,1697615925,0.25024414,-0.71588135,-0.09454346,60.484375,-12.390625,6.796875
250,1697615965,1.3818359,-2.0,0.3554077,-19.671875,-135.65625,-18.15625
251,1697616005,-0.52368164,-2.0,0.40716553,-3.390625,42.0625,19.15625
252,1697616045,-0.74072266,-1.3530884,0.215271,-37.09375,-14.625,-19.484375
253,1697616085,0.059326172,-1.6785278,0.14447021,-2.078125,-17.1875,-24.25
254,1697616125,0.084472656,-1.4129028,0.2772827,-15.875,-19.390625,-0.203125
255,1697616165,-0.37426758,-0.9788208,0.16546631,-18.453125,-1.140625,14.28125
256,1697616205,-0.2006836,-0.66192627,0.1564331,-21.40625,-5.9375,0.859375
257,1697616245,-0.056884766,-0.56256104,0.1486206,-18.078125,-4.09375,-3.703125
258,1697616285,-0.10620117,-0.5095825,0.16082764,-12.953125,-7.296875,0.796875
259,1697616325,-0.17089844,-0.6260376,0.24310303,-6.625,-4.984375,-4.09375
260,1697616365,-0.20703125,-0.767395,0.1161499,-6.875,-3.453125,-6.65625
261,1697616405,-0.14038086,-0.83258057,0.21600342,-4.453125,-8.734375,-2.25
262,1697616445,-0.16748047,-0.9663696,0.3114624,-3.0,-11.671875,2.234375
263,1697616485,-0.2619629,-0.9089966,0.354187,-8.234375,-9.34375,-2.109375
264,1697616525,-0.22583008,-0.8369751,0.31170654,-5.171875,-3.65625,-5.171875
265,1697616565,-0.21313477,-0.86553955,0.30218506,-3.6875,-3.765625,-6.171875
266,1697616605,-0.19238281,-0.88165283,0.33563232,-6.546875,-7.453125,-1.96875
267,1697616645,-0.1862793,-0.8442993,0.36883545,-3.71875,-6.46875,-0.046875
268,1697616685,-0.114746094,-0.84454346,0.2616577,1.828125,-14.34375,-0.1875
269,1697616725,-0.092041016,-0.77789307,0.23944092,6.5,-24.078125,2.671875
270,1697616765,-0.20214844,-0.49664307,0.113464355,6.1875,-22.734375,9.625
271,1697616805,-0.13574219,-0.27349854,-0.006652832,7.890625,-5.8125,22.328125
272,1697616845,-0.013183594,-0.35601807,0.070007324,23.609375,-12.359375,29.65625
273,1697616885,-0.048828125,-0.6682739,0.3126831,50.078125,-27.4375,26.9375
274,1697616925,-0.54003906,-1.3389282,0.09539795,48.984375,-20.703125,3.15625
275,1697616965,-0.18310547,-1.5440063,0.13397217,26.40625,-14.96875,8.125
276,1697617005,-0.19360352,-2.0,0.22137451,28.421875,-24.734375,-2.53125
277,1697617045,-0.31567383,-2.0,0.062194824,11.90625,-15.546875,-1.59375
278,1697617085,-0.3708496,-2.0,-0.16363525,-13.421875,-14.171875,-12.40625
279,1697617125,-0.3095703,-2.0,-0.16949463,-23.59375,-0.4375,-8.796875
280,1697617165,-0.1706543,-1.3084106,-0.14703369,-66.796875,9.734375,-1.78125
281,1697617205,-0.15258789,0.08782959,-0.34625244,-78.8125,14.671875,7.03125
282,1697617245,0.07080078,1.0858765,-0.11529541,-10.5625,14.09375,19.203125
283,1697617285,0.45776367,0.21307373,-0.09283447,7.40625,-13.21875,-8.59375
284,1697617325,0.02709961,-0.20245361,0.07904053,12.609375,-36.34375,-7.234375
285,1697617365,-0.2277832,-0.14971924,0.08734131,5.3125,-26.359375,3.578125
286,1697617405,0.020507812,-0.013000488,-0.02178955,0.875,-17.375,8.875
287,1697617445,0.059814453,0.1317749,-0.07574463,1.96875,-19.421875,5.484375
288,1697617485,0.09082031,-0.020812988,-0.21295166,2.921875,-22.1875,4.078125
289,1697617525,0.075683594,-0.073791504,0.113220215,-1.765625,-28.5,6.765625
290,1697617565,-0.057617188,-0.4241333,0.12445068,6.640625,-45.765625,10.5
291,1697617605,-0.86572266,-1.958313,-0.28497314,155.32812,-92.96875,-61.390625
292,1697617645,0.7836914,-2.0,0.6906128,-63.4375,11.28125,96.859375
293,1697617685,-1.4030762,-1.9832153,0.1798706,-28.5,-6.03125,15.640625
294,1697617725,-0.6984863,-1.3140259,0.29437256,-7.828125,-28.71875,-18.734375
295,1697617765,-0.22827148,-1.4797974,0.019714355,-0.75,1.90625,6.953125
296,1697617805,-0.020263672,-0.85528564,0.06561279,-35.328125,-8.296875,3.28125
297,1697617845,-0.5217285,-0.38702393,0.11224365,-10.875,-0.6875,-0.046875
298,1697617885,-0.18896484,-0.63409424,0.020202637,-1.59375,13.109375,10.59375
299,1697617925,-0.020507812,-0.64312744,0.05633545,-1.75,5.484375,-10.015625
300,1697617965,-0.13623047,-0.9273071,0.046813965,1.9375,-6.453125,-13.203125
301,1697618005,-0.234375,-1.0540161,0.16278076,-8.6875,-6.828125,-0.390625
302,1697618045,-0.21313477,-0.9590454,0.1149292,-15.546875,-1.25,1.65625
303,1697618085,-0.24243164,-0.8130493,0.19476318,-14.203125,1.484375,-0.703125
304,1697618125,-0.26611328,-0.8574829,0.22283936,-5.03125,3.421875,-2.90625
305,1697618165,-0.13208008,-0.90509033,0.17474365,-6.234375,1.296875,-2.578125
306,1697618205,-0.140625,-0.8875122,0.1708374,-6.09375,-0.859375,-0.09375
307,1697618245,-0.21728516,-0.881897,0.15570068,-3.34375,-3.421875,0.34375
308,1697618285,-0.24536133,-0.8740845,0.19085693,1.46875,5.59375,1.71875
309,1697618325,-0.16845703,-0.88653564,0.21453857,1.921875,5.140625,0.796875
310,1697618365,-0.06347656,-0.79888916,0.18939209,1.53125,5.296875,7.484375
311,1697618405,-0.043945312,-0.71661377,0.19500732,6.8125,-7.0,13.09375
312,1697618445,-0.16308594,-0.72662354,0.18572998,14.734375,-12.4375,17.171875
313,1697618485,-0.12963867,-0.77301025,0.19989014,20.09375,-11.265625,17.328125
314,1697618525,-0.20581055,-0.9522095,0.31292725,23.546875,-11.671875,16.4375
315,1697618565,-0.40893555,-1.2747192,0.15252686,23.203125,-3.828125,8.640625
316,1697618605,-0.26464844,-1.4768677,0.11175537,20.640625,2.609375,6.4375
317,1697618645,-0.10253906,-1.4158325,0.06707764,7.203125,6.84375,7.9375
318,1697618685,-0.1159668,-1.3486938,-0.026184082,-1.265625,13.5,1.0625
319,1697618725,-0.08520508,-1.1748657,-0.09283447,-12.59375,13.59375,1.90625
320,1697618765,0.041748047,-0.8718872,-0.07550049,-20.0,10.984375,6.109375
321,1697618805,0.072265625,-0.4763794,0.017028809,-15.515625,9.375,13.0625
322,1697618845,0.079589844,-0.07965088,0.007019043,7.734375,6.5625,12.15625
323,1697618885,0.004638672,0.020690918,-0.032287598,20.53125,-0.046875,17.359375
324,1697618925,-0.05444336,-0.15582275,-0.109191895,28.8125,-3.734375,22.25
325,1697618965,0.07763672,-0.4710083,-0.026428223,41.921875,-6.625,13.9375
326,1697619005,0.14086914,-1.0354614,-0.08892822,56.59375,-20.078125,-2.578125
327,1697619045,-0.0234375,-1.6709595,-0.2468872,46.375,-13.09375,-7.6875
328,1697619085,0.06591797,-1.6902466,-0.37677002,13.109375,-5.96875,9.984375
329,1697619125,0.16992188,-1.8130493,-0.3040161,8.25,-4.59375,1.140625
330,1697619165,-0.09399414,-2.0,-0.3604126,2.625,11.65625,-9.484375
331,1697619205,0.041015625,-2.0,-0.2678833,-2.875,3.125,-12.09375
332,1697619245,0.14550781,-2.0,-0.48712158,-18.328125,-3.90625,-22.875
333,1697619285,0.049316406,-2.0,-0.19561768,-38.328125,-3.546875,-13.375
334,1697619325,-0.14331055,-1.6104126,-0.20562744,-60.6875,8.640625,-12.546875
335,1697619365,-0.14575195,-0.5405884,-0.21466064,-92.859375,3.75,-10.390625
336,1697619405,0.1586914,0.3378296,-0.17095947,-68.03125,-7.28125,9.765625
337,1697619445,0.16186523,0.6901245,-0.09185791,-25.40625,-17.953125,14.953125
338,1697619485,-0.004638672,0.24578857,0.007751465,-5.5,-25.03125,0.609375
339,1697619525,-0.05883789,-0.047180176,0.043884277,5.96875,-27.03125,-4.03125
340,1697619565,0.005126953,-0.10650635,0.008239746,0.796875,-34.34375,1.25
341,1697619605,-0.05053711,0.018249512,-0.028625488,-7.078125,-27.109375,3.234375
342,1697619645,-0.030273438,0.078308105,-0.078186035,-6.21875,-21.078125,-0.1875
343,1697619685,0.09472656,0.018493652,-0.06085205,-3.328125,-28.09375,0.828125
344,1697619725,0.0012207031,-0.00079345703,-0.03765869,-3.8125,-25.515625,-1.171875
345,1697619765,-0.055664062,-0.16265869,0.09857178,13.1875,-25.171875,-1.640625
346,1697619805,-0.85668945,-2.0,-0.08868408,150.9375,-14.5,-69.890625
347,1697619845,0.8364258,-2.0,-0.48443604,-24.234375,-43.4375,35.4375
348,1697619885,-1.0825195,-2.0,0.36175537,19.046875,9.96875,20.921875
349,1697619925,-0.21484375,-2.0,0.33685303,6.4375,-18.796875,2.640625
350,1697619965,-0.2277832,-1.5464478,-0.04498291,-17.578125,-17.6875,-1.203125
351,1697620005,0.063964844,-0.80670166,-0.097473145,-27.140625,-16.6875,16.203125
352,1697620045,-0.28442383,-0.34991455,0.109558105,-13.8125,-4.078125,18.453125
353,1697620085,-0.3388672,-0.24615479,0.08465576,-11.109375,9.109375,4.9375
354,1697620125,0.03149414,-0.3633423,-0.11065674,3.96875,11.375,-3.9375
355,1697620165,0.28515625,-0.8496704,-0.20733643,13.265625,2.5625,-15.34375
356,1697620205,0.19555664,-1.4229126,0.06365967,-6.203125,-13.5625,-2.25
357,1697620245,-0.49609375,-0.9402466,0.26507568,-6.03125,-2.984375,18.765625
358,1697620285,-0.2536621,-0.7671509,0.15570068,0.125,7.734375,-0.5
359,1697620325,-0.14648438,-0.7979126,0.17547607,8.34375,0.25,-3.640625
360,1697620365,-0.09423828,-0.88165283,0.113708496,17.875,-5.125,-6.0
361,1697620405,-0.051757812,-0.9121704,0.043884277,22.875,-1.328125,1.140625
362,1697620445,-0.06298828,-0.8933716,-0.022033691,22.015625,-2.9375,4.71875
363,1697620485,-0.071777344,-0.8008423,-0.1026001,21.1875,-3.65625,5.25
364,1697620525,-0.015625,-0.7012329,-0.21588135,16.53125,1.984375,9.765625
365,1697620565,0.14135742,-0.39605713,-0.21148682,9.078125,0.484375,22.09375
366,1697620605,0.13720703,-0.40216064,-0.057434082,23.78125,-5.46875,23.203125
367,1697620645,0.015380859,-0.6355591,-0.14385986,26.703125,-17.375,6.765625
368,1697620685,-0.048583984,-0.94732666,-0.15289307,22.15625,-23.796875,-13.59375
369,1697620725,-0.29663086,-1.8945923,-0.14215088,17.1875,-0.515625,-29.609375
370,1697620765,-0.03125,-2.0,0.055114746,-21.40625,-18.28125,-14.640625
371,1697620805,-0.4855957,-2.0,-0.13775635,-15.203125,-17.6875,-19.84375
372,1697620845,-0.20019531,-2.0,-0.26397705,-22.359375,-19.5,-17.03125
373,1697620885,-0.43481445,-2.0,-0.24053955,-24.546875,-3.5,-15.34375
374,1697620925,-0.21508789,-1.5300903,-0.28302002,-43.640625,24.96875,1.640625
375,1697620965,-0.119384766,-0.3916626,-0.26861572,-82.125,25.78125,7.40625
376,1697621005,0.29736328,0.5831909,-0.023498535,-33.28125,-22.0625,32.15625
377,1697621045,0.2084961,0.6288452,-0.04449463,-14.328125,-19.125,5.640625
378,1697621085,0.06933594,0.082458496,0.024841309,9.0,-25.265625,-10.390625
379,1697621125,-0.10498047,-0.09307861,0.08074951,18.859375,-15.359375,1.578125
380,1697621165,-0.0053710938,-0.2432251,-0.08013916,4.90625,-13.375,12.390625
381,1697621205,-0.020996094,0.08880615,-0.035217285,5.859375,-22.734375,18.140625
382,1697621245,-0.020019531,0.17132568,-0.082092285,11.234375,-18.546875,16.875
383,1697621285,0.095458984,0.055114746,-0.112854004,18.671875,-27.515625,14.34375
384,1697621325,0.13085938,-0.07574463,0.008728027,12.640625,-32.21875,10.578125
385,1697621365,0.0637207,-0.7359009,-0.14239502,78.765625,-32.078125,-6.28125
386,1697621405,0.6508789,-2.0,-0.2119751,26.734375,-101.34375,-39.25
387,1697621445,-0.42773438,-2.0,0.040222168,-16.765625,-7.5,23.21875
388,1697621485,-0.7780762,-1.7363892,-0.014465332,-55.5,-32.53125,9.21875
389,1697621525,0.16064453,-1.6253052,-0.05987549,-14.484375,-12.625,-46.453125
390,1697621565,-0.10668945,-1.5081177,0.08416748,-18.53125,-2.25,8.796875
391,1697621605,-0.076416016,-0.97540283,0.00018310547,-32.984375,-1.609375,7.8125
392,1697621645,-0.043701172,-0.6148071,-0.014709473,-46.609375,8.21875,-1.890625
393,1697621685,0.0021972656,-0.20367432,-0.022766113,-26.8125,10.859375,-4.390625
394,1697621725,0.1274414,-0.42608643,0.059020996,-3.328125,17.046875,-10.734375
395,1697621765,0.029296875,-0.7971802,0.070739746,-4.21875,8.296875,-5.625
396,1697621805,-0.106933594,-0.8230591,0.08734131,-4.640625,10.890625,-3.78125
397,1697621845,0.040771484,-0.8530884,0.074157715,9.046875,1.765625,-3.328125
398,1697621885,-0.026611328,-0.989563,0.17840576,17.5,-16.25,1.9375
399,1697621925,-0.010009766,-0.9187622,0.09295654,14.5625,-20.75,8.171875
400,1697621965,0.06958008,-0.90875244,0.137146,21.28125,-15.40625,5.09375
401,1697622005,-0.056884766,-0.9356079,0.06732178,11.359375,-28.078125,2.03125
402,1697622045,-0.1184082,-0.6799927,-0.10479736,-2.828125,-26.171875,1.625
403,1697622085,-0.05810547,-0.44830322,-0.12213135,0.703125,-18.109375,3.15625
404,1697622125,-0.044921875,-0.2786255,-0.17730713,19.328125,-10.8125,12.328125
405,1697622165,0.064697266,-0.3250122,-0.08673096,43.140625,-7.4375,19.265625
406,1697622205,0.16674805,-0.7124634,-0.09234619,50.28125,-16.296875,16.171875
407,1697622245,-0.41381836,-1.9380493,0.19500732,45.09375,-13.34375,-7.984375
408,1697622285,-0.4597168,-2.0,0.02557373,-18.34375,0.453125,-26.359375
409,1697622325,-0.16040039,-2.0,-0.113098145,7.046875,2.0,-18.390625
410,1697622365,-0.22607422,-2.0,-0.31988525,-15.171875,7.453125,-1.984375
411,1697622405,-0.23291016,-2.0,-0.19781494,-19.71875,16.546875,-12.109375
412,1697622445,-0.20898438,-1.6709595,-0.28985596,-65.40625,28.09375,-11.703125
413,1697622485,-0.076416016,-0.14776611,-0.13336182,-96.859375,18.921875,3.359375
414,1697622525,0.10644531,0.95184326,-0.22613525,-24.234375,28.125,21.359375
415,1697622565,0.27954102,0.5697632,-0.101379395,8.90625,6.15625,5.1875
416,1697622605,-0.029541016,-0.09161377,0.014587402,22.328125,-8.234375,-6.3125
417,1697622645,-0.09008789,-0.22540283,0.023864746,13.296875,-7.46875,3.21875
418,1697622685,-0.07543945,-0.062072754,0.055847168,1.4375,0.609375,4.125
419,1697622725,-0.053222656,0.06048584,-0.0037231445,0.34375,6.5,0.390625
420,1697622765,0.064453125,0.090026855,-0.005432129,4.25,4.046875,-4.84375
421,1697622805,0.043945312,-0.019104004,0.07171631,6.5625,-8.78125,-5.546875
422,1697622845,-0.08105469,-0.04522705,0.18890381,3.1875,-18.828125,1.15625
423,1697622885,-0.08544922,-0.5130005,-0.1104126,52.796875,-26.96875,10.046875
424,1697622925,-0.5810547,-2.0,-1.2026978,83.1875,-94.765625,-150.60938
425,1697622965,-0.26220703,-2.0,0.1593628,2.421875,3.3125,73.96875
426,1697623005,-1.0058594,-1.8464966,0.14910889,-20.46875,-12.078125,9.1875
427,1697623045,-0.203125,-1.2520142,-0.15924072,27.609375,4.1875,-12.0
428,1697623085,0.34301758,-1.6008911,-0.06085205,-11.125,6.0,37.984375
429,1697623125,-0.16796875,-0.73687744,0.046813965,-15.8125,5.09375,3.828125
430,1697623165,-0.37158203,-0.45343018,-0.022033691,-4.984375,20.40625,7.953125
431,1697623205,0.053955078,-0.38604736,-0.116760254,2.953125,22.765625,4.109375
432,1697623245,0.1652832,-0.73028564,-0.06793213,18.984375,12.640625,-4.203125
433,1697623285,0.01928711,-1.1282349,-0.023986816,7.03125,4.71875,-10.8125
434,1697623325,-0.08618164,-1.0159302,-0.06549072,-10.8125,6.71875,-4.96875
435,1697623365,-0.099609375,-0.9397583,-0.054504395,-6.640625,10.609375,-4.546875
436,1697623405,-0.15478516,-0.99224854,-0.022277832,-6.453125,14.203125,-1.65625
437,1697623445,-0.09472656,-0.84625244,-0.031799316,-8.5625,14.78125,-1.953125
438,1697623485,-0.017089844,-0.7293091,-0.105041504,-4.78125,15.59375,-2.203125
439,1697623525,0.043701172,-0.6499634,-0.11090088,-0.578125,13.546875,0.78125
440,1697623565,0.042236328,-0.5444946,-0.053527832,6.3125,6.109375,8.40625
441,1697623605,0.009277344,-0.54107666,-0.00592041,16.84375,4.0,10.015625
442,1697623645,-0.03515625,-0.598938,-0.074035645,17.140625,6.5,5.59375
443,1697623685,0.08105469,-0.69488525,-0.041809082,27.59375,4.953125,1.296875
444,1697623725,-0.0029296875,-1.0845337,-0.061340332,34.765625,-14.21875,-3.375
445,1697623765,-0.31152344,-1.4917603,-0.039123535,18.6875,-6.5625,-6.609375
446,1697623805,-0.39086914,-1.6240845,-0.13165283,2.640625,6.4375,-1.171875
447,1697623845,-0.35742188,-2.0,-0.18365479,11.296875,25.390625,-10.90625
448,1697623885,-0.41088867,-2.0,-0.14971924,-1.234375,40.25,-9.28125
449,1697623925,-0.17407227,-2.0,-0.46124268,-19.078125,47.765625,-0.6875
450,1697623965,0.072265625,-2.0,-0.4102173,-27.640625,47.671875,-2.359375
451,1697624005,0.049072266,-1.2244263,-0.20147705,-61.046875,45.46875,-7.875
452,1697624045,-0.12524414,-0.12237549,-0.22491455,-70.078125,46.390625,4.640625
453,1697624085,-0.07128906,0.94989014,-0.16900635,-13.625,46.34375,28.890625
454,1697624125,0.19702148,0.42303467,0.011413574,-3.40625,21.140625,-16.890625
455,1697624165,-0.026611328,-0.15118408,0.042175293,5.34375,13.75,-10.671875
456,1697624205,-0.06298828,-0.15802002,-0.06304932,5.109375,10.0,2.234375
457,1697624245,-0.107910156,0.0368042,-0.039611816,0.640625,16.78125,-0.625
458,1697624285,-0.041748047,0.105651855,-0.09918213,2.203125,18.796875,-3.6875
459,1697624325,0.0036621094,-0.011047363,-0.0725708,10.28125,17.28125,-7.421875
460,1697624365,-0.079833984,-0.09161377,0.11859131,6.875,14.65625,0.78125
461,1697624405,-0.14672852,-0.37335205,0.17694092,35.15625,7.765625,8.25
462,1697624445,-2.0,-2.0,-1.9754028,171.5,44.28125,-198.15625
463,1697624485,0.41601562,-2.0,0.25628662,-25.78125,58.3125,78.203125
464,1697624525,-1.2963867,-2.0,0.25897217,-44.890625,50.59375,-13.125
465,1697624565,-0.7133789,-1.1118774,-0.03765869,-9.171875,34.34375,-29.328125
466,1697624605,0.38134766,-1.3491821,-0.11505127,-16.453125,46.71875,3.15625
467,1697624645,0.052490234,-0.74346924,0.08905029,-17.0,38.609375,11.65625
468,1697624685,-0.17626953,-0.3555298,0.0040893555,-28.03125,22.484375,0.234375
469,1697624725,0.0068359375,-0.42388916,-0.022521973,-16.328125,18.859375,-10.0625
470,1697624765,0.10449219,-0.5466919,0.006286621,-3.546875,19.453125,-7.234375
471,1697624805,-0.099609375,-0.60894775,0.12591553,9.34375,7.359375,-10.40625
472,1697624845,-0.33813477,-1.0110474,0.014099121,13.359375,11.1875,-17.8125
473,1697624885,-0.20263672,-1.0723267,0.117370605,5.0,7.359375,-6.484375
474,1697624925,-0.28930664,-1.0410767,0.1593628,10.09375,-2.375,-0.28125
475,1697624965,-0.26586914,-1.0320435,0.22357178,12.03125,1.078125,0.453125
476,1697625005,-0.26171875,-0.95269775,0.08270264,7.546875,1.8125,-2.40625
477,1697625045,-0.20727539,-0.798645,0.018737793,11.828125,2.671875,-0.140625
478,1697625085,-0.12011719,-0.6609497,-0.03302002,13.46875,-7.203125,4.9375
479,1697625125,-0.13183594,-0.5618286,0.01727295,21.078125,-8.515625,6.828125
480,1697625165,-0.18164062,-0.6248169,0.059753418,25.421875,-6.453125,3.21875
481,1697625205,-0.091552734,-0.7036743,-0.053527832,19.40625,-16.09375,2.0
482,1697625245,0.061767578,-0.677063,-0.11895752,7.296875,-30.359375,7.03125
483,1697625285,0.088378906,-0.38336182,0.034851074,5.296875,-34.109375,24.453125
484,1697625325,-0.33666992,-0.6465454,0.1408081,22.953125,-8.390625,20.9375
485,1697625365,-0.6052246,-1.388977,-0.047424316,28.03125,-0.53125,-13.28125
486,1697625405,-0.45410156,-2.0,-0.09039307,6.109375,-1.96875,-15.546875
487,1697625445,-0.6616211,-2.0,-0.16925049,-10.265625,31.46875,6.4375
488,1697625485,-0.2783203,-2.0,-0.44293213,-15.625,21.921875,-11.8125
489,1697625525,-0.059326172,-2.0,-0.1585083,-28.203125,21.234375,4.390625
490,1697625565,-0.11279297,-1.272522,-0.09967041,-67.4375,23.453125,12.765625
491,1697625605,-0.091796875,0.061462402,-0.60650635,-91.96875,29.078125,11.8125
492,1697625645,-0.037841797,1.2255249,-0.22271729,-16.5625,29.84375,20.8125
493,1697625685,0.30200195,0.21795654,-0.057434082,4.640625,8.75,-15.75
494,1697625725,-0.19018555,-0.13067627,0.029968262,19.359375,-5.171875,-11.140625
495,1697625765,-0.1081543,-0.1951294,-0.09136963,-0.46875,5.109375,-5.296875
496,1697625805,0.02368164,-0.054260254,-0.016174316,-7.5,6.046875,-5.140625
497,1697625845,0.061767578,0.1618042,0.03753662,1.984375,2.265625,-2.703125
498,1697625885,0.15576172,0.13323975,0.016296387,11.421875,-6.015625,-0.5
499,1697625925,-0.025390625,0.0079956055,0.07269287,13.578125,-10.21875,-0.9375
500,1697625965,-0.28320312,-0.2617798,0.20428467,25.453125,-7.6875,3.078125
501,1697626005,-1.8652344,-2.0,-0.72369385,157.89062,26.421875,-90.03125
502,1697626045,0.2932129,-2.0,0.55926514,-14.1875,61.75,43.9375
503,1697626085,-1.1054688,-2.0,0.5643921,-9.1875,68.6875,23.53125
504,1697626125,-0.6555176,-1.6140747,0.16278076,-29.703125,14.5,-30.953125
505,1697626165,0.15991211,-1.4578247,-0.11529541,-18.453125,35.21875,-13.4375
506,1697626205,0.076660156,-0.90338135,0.062927246,-31.15625,24.0625,10.625
507,1697626245,-0.28808594,-0.26641846,0.1005249,-29.046875,18.9375,6.03125
508,1697626285,-0.2536621,-0.08673096,0.12200928,-16.0625,29.59375,-1.484375
509,1697626325,-0.04638672,-0.23712158,0.11395264,-4.015625,24.390625,-0.171875
510,1697626365,-0.1184082,-0.73321533,0.07342529,32.578125,16.984375,-17.609375
511,1697626405,-0.07299805,-1.5203247,0.19500732,20.046875,12.859375,-18.453125
512,1697626445,-0.16015625,-1.0071411,0.22259521,-16.0,20.734375,18.890625
513,1697626485,-0.33544922,-0.71343994,0.2345581,-13.40625,24.90625,6.703125
514,1697626525,-0.24707031,-0.8609009,0.28216553,8.015625,18.625,-3.0
515,1697626565,-0.10839844,-0.9763794,0.22698975,-2.40625,12.21875,-2.921875
516,1697626605,-0.17480469,-0.8184204,0.21844482,-1.671875,3.390625,-0.8125
517,1697626645,-0.16992188,-0.86968994,0.21966553,2.921875,-1.453125,1.203125
518,1697626685,-0.16186523,-0.7307739,0.16156006,-0.046875,-6.546875,2.21875
519,1697626725,-0.10083008,-0.4697876,-0.05279541,5.578125,1.453125,9.90625
520,1697626765,0.12109375,-0.3723755,0.024841309,12.78125,-9.484375,18.90625
521,1697626805,-0.048828125,-0.39556885,0.10491943,30.265625,-16.578125,13.9375
522,1697626845,-0.24707031,-0.6355591,0.028747559,42.625,-13.71875,4.640625
523,1697626885,-0.28466797,-1.123352,0.082458496,53.03125,-12.390625,4.421875
524,1697626925,-0.5793457,-2.0,0.26385498,33.71875,4.578125,2.421875
525,1697626965,-0.453125,-2.0,0.04852295,9.125,9.046875,-4.5625
526,1697627005,-0.091796875,-2.0,-0.3682251,5.203125,13.6875,-4.703125
527,1697627045,-0.12915039,-2.0,-0.26080322,-11.34375,12.4375,-5.21875
528,1697627085,-0.0078125,-1.7698364,-0.120666504,-39.625,12.703125,5.953125
529,1697627125,-0.24023438,-0.4475708,-0.17901611,-79.484375,18.765625,9.015625
530,1697627165,-0.3244629,0.7926636,-0.37091064,-40.359375,40.34375,24.390625
531,1697627205,0.25976562,0.682312,-0.21099854,-14.4375,20.34375,-11.296875
532,1697627245,0.25195312,-0.08306885,-0.085510254,6.46875,3.65625,-21.28125
533,1697627285,-0.044921875,-0.21539307,-0.030090332,13.21875,1.125,-11.015625
534,1697627325,-0.029785156,-0.10406494,0.053649902,5.796875,5.125,3.359375
535,1697627365,-0.057373047,0.010192871,0.1071167,-1.796875,10.953125,5.828125
536,1697627405,-0.08544922,0.13446045,0.08148193,2.1875,16.296875,0.046875
537,1697627445,0.041992188,0.009216309,0.020446777,6.0625,7.125,-1.0625
538,1697627485,-0.052246094,-0.024230957,0.051940918,13.234375,9.515625,2.546875
539,1697627525,0.017333984,-0.506897,0.08294678,52.4375,11.859375,5.734375
540,1697627565,-1.6474609,-2.0,-1.7520142,131.09375,-36.8125,-162.95312
541,1697627605,0.043945312,-1.9024048,0.3143921,-3.953125,16.078125,43.84375
542,1697627645,-1.3427734,-2.0,0.47357178,-25.09375,36.28125,-23.125
543,1697627685,-0.026611328,-1.7549438,0.17694092,-17.15625,12.4375,-24.234375
544,1697627725,0.2211914,-1.5730591,0.14227295,-18.90625,26.703125,6.5625
545,1697627765,-0.2163086,-0.88775635,0.24822998,-22.28125,20.875,9.453125
546,1697627805,-0.30371094,-0.49517822,0.15814209,-31.65625,20.890625,-2.15625
547,1697627845,-0.10961914,-0.3694458,-0.01763916,-28.109375,26.578125,-13.25
548,1697627885,0.114990234,-0.3411255,0.098083496,-7.4375,20.296875,-5.75
549,1697627925,-0.030029297,-0.57110596,0.15985107,4.390625,8.984375,-4.84375
550,1697627965,-0.2019043,-0.786438,0.16937256,4.671875,9.359375,-7.40625
551,1697628005,-0.31103516,-1.0896606,0.21746826,9.84375,11.9375,-18.671875
552,1697628045,-0.2253418,-1.1841431,0.29071045,1.8125,8.296875,-6.796875
553,1697628085,-0.19384766,-0.88238525,0.24603271,-8.734375,11.453125,5.484375
554,1697628125,-0.25561523,-0.72247314,0.2694702,-1.84375,5.5625,0.1875
555,1697628165,-0.24389648,-0.87213135,0.14520264,0.796875,6.59375,-3.359375
556,1697628205,-0.18408203,-0.86431885,0.26434326,4.28125,2.46875,-6.203125
557,1697628245,-0.1652832,-0.8623657,0.23284912,8.46875,2.921875,-1.453125
558,1697628285,-0.12890625,-0.93341064,0.230896,9.734375,2.25,4.625
559,1697628325,-0.111083984,-0.8272095,0.17401123,5.796875,-3.296875,6.0
560,1697628365,-0.08935547,-0.692688,0.18426514,0.28125,-8.390625,9.140625
561,1697628405,-0.19604492,-0.5203247,0.12298584,9.015625,-7.15625,15.65625
562,1697628445,-0.23120117,-0.44439697,0.054138184,18.5625,-3.234375,12.015625
563,1697628485,-0.123046875,-0.56915283,0.15057373,26.5625,4.921875,8.0
564,1697628525,-0.103759766,-0.7781372,-0.035217285,37.828125,0.859375,7.765625
565,1697628565,-0.020751953,-0.91192627,-0.109680176,34.375,-6.0,6.53125
566,1697628605,-0.036376953,-1.2229614,-0.0115356445,41.921875,-6.625,8.03125
567,1697628645,-0.3503418,-2.0,-0.07965088,33.46875,-7.421875,1.40625
568,1697628685,-0.24072266,-2.0,-0.03253174,-3.65625,-3.71875,-0.3125
569,1697628725,-0.25732422,-2.0,-0.159729,-9.34375,3.78125,-1.03125
570,1697628765,-0.31152344,-2.0,-0.08892822,-20.203125,20.484375,-6.109375
571,1697628805,-0.2421875,-2.0,0.01727295,-41.59375,23.1875,-9.28125
572,1697628845,-0.016601562,-0.923645,-0.22784424,-71.375,15.703125,-9.578125
573,1697628885,0.16015625,0.13690186,-0.40948486,-75.09375,9.328125,4.453125
574,1697628925,-0.019042969,0.9533081,-0.14093018,-22.546875,15.734375,28.125
575,1697628965,0.03857422,0.28045654,-0.06866455,15.890625,18.140625,-6.015625
576,1697629005,-0.11987305,-0.09527588,-0.03302002,29.828125,14.53125,-13.15625
577,1697629045,0.07324219,-0.05279541,-0.11065674,15.171875,3.953125,-2.46875
578,1697629085,0.022949219,0.058288574,0.007751465,14.515625,3.140625,6.625
579,1697629125,-0.07299805,0.031921387,-0.07110596,7.59375,6.515625,7.265625
580,1697629165,0.07421875,0.046813965,0.046081543,9.0,12.71875,5.828125
581,1697629205,0.14794922,-0.043762207,0.101257324,5.625,-7.859375,5.828125
582,1697629245,-0.08178711,-0.12432861,0.0680542,6.4375,-11.171875,-0.5
583,1697629285,-0.5678711,-2.0,-0.42681885,149.28125,6.453125,-61.984375
584,1697629325,0.8618164,-2.0,0.4430542,-7.203125,4.0,45.96875
585,1697629365,-1.6501465,-2.0,0.45013428,-20.78125,49.453125,24.8125
586,1697629405,-0.40844727,-1.7520142,-0.058898926,-24.59375,2.578125,-32.125
587,1697629445,0.36791992,-1.7373657,-0.0012817383,-17.640625,8.671875,-15.546875
588,1697629485,0.10107422,-1.3416138,0.11810303,-35.0625,-6.90625,8.0625
589,1697629525,-0.35864258,-0.5623169,-0.0134887695,-22.296875,-11.953125,4.4375
590,1697629565,-0.24487305,-0.39727783,0.21307373,-15.734375,35.78125,-3.703125
591,1697629605,0.0041503906,-0.32037354,0.04095459,-5.21875,28.21875,1.953125
592,1697629645,0.09863281,-0.49395752,0.101989746,4.0625,17.78125,0.421875
593,1697629685,0.040527344,-0.71173096,-0.039367676,13.265625,-0.234375,-5.328125
594,1697629725,-0.03125,-0.9536743,-0.0115356445,8.515625,-5.296875,-0.6875
595,1697629765,0.13256836,-1.0632935,0.03363037,4.359375,-13.5625,3.140625
596,1697629805,-0.19213867,-1.0117798,0.20477295,4.4375,-14.875,15.421875
597,1697629845,-0.24609375,-0.76568604,0.053649902,6.25,-2.0,14.21875
598,1697629885,-0.0234375,-0.5947876,0.062194824,10.109375,-6.703125,9.109375
599,1697629925,0.03515625,-0.6123657,0.059509277,20.859375,-12.625,12.40625
600,1697629965,-0.095947266,-0.6170044,0.054626465,21.671875,-14.109375,15.109375
601,1697630005,-0.076416016,-0.62164307,-0.019104004,19.640625,-6.09375,8.03125
602,1697630045,0.009765625,-0.6929321,0.005065918,22.625,-6.75,9.25
603,1697630085,-0.0048828125,-1.0151978,0.022399902,33.796875,-10.65625,-6.171875
604,1697630125,-0.25854492,-1.5178833,-0.20440674,18.09375,1.125,-8.8125
605,1697630165,0.0126953125,-1.6758423,-0.16802979,1.046875,-1.015625,-3.34375
606,1697630205,-0.4453125,-2.0,0.057556152,1.6875,4.859375,-9.109375
607,1697630245,-0.21020508,-2.0,-0.06451416,-6.515625,16.0625,-17.9375
608,1697630285,-0.41845703,-2.0,-0.15875244,-17.5,24.375,-23.71875
609,1697630325,-0.055664062,-2.0,-0.26568604,-22.953125,40.203125,-7.90625
610,1697630365,-0.0546875,-1.0154419,-0.10821533,-50.4375,34.671875,1.59375
611,1697630405,-0.11767578,0.03704834,-0.24005127,-61.078125,36.84375,24.53125
612,1697630445,-0.053222656,1.0470581,-0.13946533,-7.8125,32.796875,18.40625
613,1697630485,0.28100586,0.27215576,-0.026428223,2.984375,20.046875,-26.078125
614,1697630525,0.05517578,-0.24053955,0.039001465,13.9375,5.875,-7.921875
615,1697630565,-0.1459961,-0.2498169,0.010437012,6.03125,-0.90625,4.671875
616,1697630605,-0.13745117,-0.018371582,0.097351074,-0.484375,12.828125,4.90625
617,1697630645,-0.076171875,0.074401855,-0.0015258789,-4.640625,23.421875,1.125
618,1697630685,0.051757812,0.13323975,0.06097412,2.0,23.03125,-5.125
619,1697630725,-0.0715332,0.06707764,0.16693115,15.90625,6.75,-3.796875
620,1697630765,-0.12695312,-0.74176025,-0.10284424,76.375,4.828125,-9.421875
621,1697630805,-0.4025879,-2.0,-0.47833252,59.09375,-46.71875,-69.109375
622,1697630845,-0.49243164,-2.0,0.13934326,10.8125,26.5625,48.140625
623,1697630885,-0.91748047,-2.0,0.16107178,5.25,15.328125,-5.65625
624,1697630925,-0.13623047,-1.7317505,-0.19927979,9.203125,28.84375,-21.203125
625,1697630965,0.107421875,-1.8162231,-0.09844971,-12.375,23.640625,16.375
626,1697631005,0.0146484375,-1.015686,-0.016418457,-27.0,9.328125,12.03125
627,1697631045,-0.09033203,-0.59698486,-0.09674072,-35.734375,4.8125,1.75
628,1697631085,-0.15771484,-0.3213501,-0.15362549,-30.0625,15.921875,2.921875
629,1697631125,0.19506836,-0.24664307,-0.13311768,-12.984375,10.796875,7.671875
630,1697631165,0.16748047,-0.4360962,-0.030578613,-0.296875,-5.75,5.34375
631,1697631205,-0.06274414,-0.5496216,-0.04840088,-4.953125,-6.453125,1.671875
632,1697631245,-0.016601562,-0.48272705,0.028747559,1.734375,-0.40625,2.765625
633,1697631285,0.020019531,-0.5147095,0.11395264,10.203125,-2.484375,2.6875
634,1697631325,-0.036621094,-0.63946533,0.015808105,25.78125,-3.75,1.109375
635,1697631365,-0.08325195,-0.95098877,-0.089904785,41.921875,0.453125,-9.890625
636,1697631405,0.1262207,-1.1487427,-0.1375122,20.203125,-8.109375,4.8125
637,1697631445,0.10449219,-0.913147,-0.17120361,1.609375,-20.453125,23.359375
638,1697631485,-0.029052734,-0.8755493,0.0006713867,16.796875,-16.90625,10.828125
639,1697631525,-0.2770996,-1.3565063,-0.06036377,24.171875,-0.46875,-11.59375
640,1697631565,-0.20336914,-1.5449829,0.011413574,2.0,3.984375,-8.34375
641,1697631605,-0.4025879,-2.0,-0.0025024414,4.375,11.53125,-13.671875
642,1697631645,-0.23388672,-2.0,-0.04522705,-1.21875,1.515625,-15.921875
643,1697631685,-0.41259766,-2.0,-0.10357666,-22.734375,9.234375,-9.046875
644,1697631725,-0.3017578,-2.0,-0.159729,-41.0,36.046875,-16.15625
645,1697631765,-0.24951172,-1.3413696,-0.13995361,-104.53125,34.0625,-19.828125
646,1697631805,0.11254883,0.040222168,-0.32452393,-87.421875,3.46875,11.703125
647,1697631845,0.38793945,0.96014404,-0.21539307,-20.46875,-10.203125,23.359375
648,1697631885,0.22631836,0.322937,-0.15924072,11.421875,-29.8125,5.6875
649,1697631925,-0.12011719,-0.24786377,-0.043273926,21.171875,-29.59375,-1.0
650,1697631965,-0.2006836,-0.25250244,0.03338623,5.25,-17.953125,15.875
651,1697632005,-0.06518555,-0.0064086914,-0.008361816,-4.75,-10.453125,15.796875
652,1697632045,-0.060302734,0.12689209,-0.0071411133,-1.28125,-10.0,3.03125
653,1697632085,0.12475586,0.021911621,-0.07940674,-0.71875,-4.0625,-1.546875
654,1697632125,0.06201172,-0.08917236,-0.035949707,-3.578125,-16.8125,0.015625
655,1697632165,-0.059570312,0.029968262,0.09222412,0.765625,-13.921875,-5.90625
656,1697632205,0.0073242188,-0.21099854,0.07611084,21.625,-8.65625,-0.640625
657,1697632245,-1.1384277,-2.0,-0.4492798,198.14062,3.734375,-104.359375
658,1697632285,0.26220703,-2.0,0.6876831,-34.328125,10.515625,48.734375
659,1697632325,-2.0,-2.0,0.6539917,-11.734375,67.65625,24.671875
660,1697632365,-0.30004883,-1.9146118,0.15447998,7.359375,23.734375,-39.28125
661,1697632405,-0.02319336,-2.0,0.0770874,-15.5625,32.234375,4.5
662,1697632445,-0.025390625,-1.1763306,0.20574951,-13.59375,26.734375,16.5625
663,1697632485,-0.32421875,-0.7695923,0.13226318,-17.484375,19.71875,5.25
664,1697632525,-0.11791992,-0.42242432,0.07220459,-18.28125,32.1875,-3.28125
665,1697632565,-0.061523438,-0.34088135,0.015808105,-12.109375,30.265625,2.703125
666,1697632605,-0.04296875,-0.42095947,-0.018859863,1.46875,24.21875,2.609375
667,1697632645,-0.059814453,-0.67803955,0.008728027,6.046875,24.78125,-2.84375
668,1697632685,-0.056640625,-0.93634033,0.043884277,-4.53125,18.96875,3.40625
669,1697632725,-0.02709961,-0.8049927,0.18914795,9.140625,13.9375,0.734375
670,1697632765,-0.07495117,-0.8652954,0.2538452,19.90625,8.40625,2.25
671,1697632805,-0.045654297,-0.96881104,0.18621826,20.5,2.8125,-0.046875
672,1697632845,-0.06518555,-0.97979736,0.13397217,15.875,-1.984375,-1.5
673,1697632885,0.016845703,-0.99420166,0.05340576,4.203125,-9.21875,3.625
674,1697632925,-0.029052734,-0.8897095,0.066345215,6.328125,-13.4375,2.015625
675,1697632965,-0.0048828125,-0.82281494,0.08465576,5.796875,-16.859375,3.296875
676,1697633005,-0.063964844,-0.6148071,0.0927124,3.09375,-24.9375,6.703125
677,1697633045,-0.1184082,-0.378479,-0.1416626,-11.875,-22.484375,10.53125
678,1697633085,0.025390625,-0.26226807,-0.051330566,9.8125,-4.71875,12.578125
679,1697633125,0.03100586,-0.4758911,0.058532715,35.96875,-10.53125,15.515625
680,1697633165,-0.07397461,-0.8389282,0.14007568,46.09375,-18.390625,6.28125
681,1697633205,-0.51342773,-2.0,0.19256592,41.515625,-11.109375,-15.0625
682,1697633245,-0.37304688,-2.0,0.0033569336,1.265625,1.0,-7.21875
683,1697633285,-0.28564453,-2.0,0.020690918,11.359375,-3.90625,-9.390625
684,1697633325,-0.52368164,-2.0,-0.14898682,-5.9375,5.421875,3.09375
685,1697633365,-0.5124512,-2.0,0.009460449,-26.203125,36.765625,-8.671875
686,1697633405,-0.2006836,-1.442688,-0.25372314,-53.46875,66.203125,0.984375
687,1697633445,0.25878906,-0.4360962,-0.27716064,-83.828125,65.796875,0.484375
688,1697633485,0.022949219,0.588562,-0.1675415,-46.171875,38.203125,15.421875
689,1697633525,-0.088378906,0.8317261,-0.18585205,-10.578125,42.59375,-9.375
690,1697633565,0.036865234,0.02532959,-0.023498535,12.546875,34.765625,-21.46875
691,1697633605,-0.053222656,-0.28790283,-0.009094238,9.859375,22.078125,-9.375
692,1697633645,-0.07104492,-0.023742676,-0.028381348,-0.484375,24.265625,-3.390625
693,1697633685,-0.09887695,0.14227295,-0.11968994,2.328125,26.96875,-4.984375
694,1697633725,0.029296875,0.08001709,-0.10333252,8.4375,35.90625,-10.015625
695,1697633765,0.030029297,-0.046203613,0.0040893555,7.546875,24.859375,-13.625
696,1697633805,-0.032470703,-0.058654785,0.105163574,13.0625,21.5,-11.453125
697,1697633845,0.007080078,-1.0811157,0.035583496,115.328125,20.0,-21.0
698,1697633885,0.626709,-2.0,-0.28912354,12.25,-20.53125,34.5
699,1697633925,-1.1376953,-2.0,0.37200928,-15.734375,84.296875,2.765625
700,1697633965,-0.5905762,-2.0,0.105895996,1.53125,59.828125,-2.5
701,1697634005,-0.3203125,-1.4053345,-0.028381348,-13.75,57.5625,-28.046875
702,1697634045,0.1315918,-1.104065,-0.09967041,-9.984375,65.78125,6.90625
703,1697634085,0.1928711,-0.5671997,-0.058166504,-13.109375,44.90625,6.109375
704,1697634125,-0.0048828125,-0.27056885,-0.120666504,-2.84375,40.34375,9.140625
705,1697634165,-0.012451172,-0.40142822,-0.047912598,1.6875,34.21875,-1.5625
706,1697634205,-0.1159668,-0.49468994,-0.06402588,7.40625,19.0,-11.890625
707,1697634245,-0.07397461,-0.6604614,0.007019043,16.859375,12.515625,-0.53125
708,1697634285,-0.10522461,-0.88067627,-0.065979004,16.796875,12.765625,0.0
709,1697634325,-0.1574707,-0.9002075,-0.10455322,20.125,8.15625,-6.359375
710,1697634365,-0.091552734,-0.9180298,-0.1416626,26.78125,5.921875,-0.71875
711,1697634405,-0.010253906,-0.93463135,-0.11114502,28.296875,-5.6875,5.46875
712,1697634445,-0.10253906,-0.8814087,-0.10357666,24.03125,-11.953125,6.671875
713,1697634485,-0.13427734,-0.67388916,-0.09259033,23.359375,-11.21875,12.703125
714,1697634525,-0.22363281,-0.63897705,-0.10211182,28.828125,-9.734375,7.703125
715,1697634565,-0.21484375,-0.62677,-0.06427002,34.421875,0.28125,2.234375
716,1697634605,-0.23168945,-0.8533325,-0.17706299,31.625,10.765625,13.125
717,1697634645,-0.16748047,-1.0669556,-0.11407471,24.609375,17.71875,2.734375
718,1697634685,-0.2043457,-1.5791626,-0.27374268,17.578125,0.25,-3.046875
719,1697634725,-0.43310547,-1.937561,-0.34649658,0.59375,13.734375,5.421875
720,1697634765,-0.5361328,-2.0,-0.24761963,-12.484375,20.921875,0.484375
721,1697634805,-0.8005371,-2.0,-0.24639893,-18.3125,51.953125,0.46875
722,1697634845,-0.31518555,-2.0,-0.46832275,-29.71875,66.90625,-9.4375
723,1697634885,-0.16723633,-1.7315063,-0.35040283,-39.46875,82.09375,8.875
724,1697634925,0.064208984,-0.692688,-0.16534424,-77.109375,79.390625,11.1875
725,1697634965,-0.11352539,0.32635498,-0.4673462,-79.71875,49.640625,23.375
726,1697635005,-0.15258789,1.1488647,-0.22515869,-28.96875,53.078125,2.9375
727,1697635045,0.13891602,0.19573975,0.0006713867,2.84375,33.265625,-25.234375
728,1697635085,-0.14941406,-0.23760986,0.0038452148,17.609375,25.703125,-8.4375
729,1697635125,-0.15454102,-0.2078247,-0.09039307,1.640625,28.15625,5.859375
730,1697635165,-0.13208008,0.14251709,-0.12164307,-0.078125,38.734375,8.390625
731,1697635205,0.014160156,0.18792725,-0.16656494,7.9375,44.09375,7.546875
732,1697635245,0.11401367,0.02557373,-0.0005493164,11.921875,45.484375,3.046875
733,1697635285,0.1862793,-0.16339111,0.20550537,20.421875,42.703125,-5.125
734,1697635325,-0.9836426,-2.0,-0.7493286,154.45312,63.5,-116.359375
735,1697635365,0.70996094,-2.0,-0.19342041,-29.015625,33.203125,33.859375
736,1697635405,-0.9099121,-2.0,0.45037842,-10.03125,59.46875,17.59375
737,1697635445,0.009521484,-1.5366821,0.24627686,-18.890625,14.71875,-18.5625
738,1697635485,-0.86938477,-0.847229,0.1708374,-31.0625,58.375,-47.734375
739,1697635525,0.096191406,-0.92681885,-0.120666504,-17.21875,67.03125,-6.203125
740,1697635565,0.30322266,-0.55718994,-0.022033691,-22.25,39.53125,-6.15625
741,1697635605,0.04663086,-0.29058838,0.04095459,-20.09375,25.84375,-4.53125
742,1697635645,-0.040527344,-0.39239502,0.038757324,-1.796875,23.765625,-3.53125
743,1697635685,-0.09082031,-0.6704712,0.06756592,11.734375,20.359375,-13.28125
744,1697635725,-0.07299805,-1.2329712,0.16473389,14.578125,15.984375,-5.84375
745,1697635765,0.0014648438,-1.2000122,0.22650146,2.890625,11.03125,-1.1875
746,1697635805,-0.10522461,-0.9180298,0.19671631,8.734375,5.9375,0.4375
747,1697635845,-0.18066406,-0.8948364,0.14471436,12.078125,0.25,3.984375
748,1697635885,-0.079589844,-0.90753174,0.24261475,9.6875,-9.59375,1.953125
749,1697635925,-0.05029297,-0.97662354,0.20355225,7.359375,-8.78125,4.578125
750,1697635965,-0.1315918,-0.9336548,0.16107178,12.046875,-9.390625,4.6875
751,1697636005,-0.12963867,-0.940979,0.11517334,10.0,-14.28125,-0.703125
752,1697636045,-0.11743164,-0.7744751,0.105407715,7.859375,-14.703125,7.28125
753,1697636085,-0.055419922,-0.49346924,0.043395996,10.6875,-13.9375,16.4375
754,1697636125,-0.13256836,-0.31793213,-0.15557861,9.96875,-3.296875,22.71875
755,1697636165,0.056884766,-0.34674072,0.004333496,25.09375,-1.515625,22.078125
756,1697636205,0.014404297,-0.5930786,0.042663574,37.375,-11.28125,12.515625
757,1697636245,-0.019042969,-0.93951416,0.117126465,40.390625,-16.96875,-3.625
758,1697636285,-0.66918945,-2.0,0.17254639,25.015625,-2.84375,-13.40625
759,1697636325,-0.3408203,-1.9465942,-0.10089111,1.484375,12.34375,-14.03125
