,timestamp,accel_x,accel_y,accel_z,gyro_x,gyro_y,gyro_z
0,1697605965,-0.11230469,0.828125,-0.60546875,-86.34375,113.1875,24.59375
1,1697606005,-1.8369141,0.8925781,-1.3779297,-100.5625,150.5,96.53125
2,1697606045,-1.9833984,-1.9902344,0.43066406,113.75,307.03125,171.8125
3,1697606085,-1.5458984,0.19335938,0.40722656,18.40625,99.78125,8.34375
4,1697606125,-0.5625,0.061523438,0.38183594,-19.25,77.0,-0.5625
5,1697606165,-0.7285156,-0.25683594,1.0878906,-4.25,-42.375,51.6875
6,1697606205,-0.19140625,-0.30859375,-0.21484375,-82.84375,-68.125,3.40625
7,1697606245,-0.2421875,-0.04296875,0.3955078,70.40625,-108.4375,-45.3125
8,1697606285,-1.3701172,0.6611328,0.103515625,0.03125,-141.625,-43.59375
9,1697606325,-1.9833984,0.28515625,-0.8251953,107.09375,-129.34375,-86.9375
10,1697606365,-1.9833984,0.041992188,-0.49316406,100.5625,-320.8125,-90.65625
11,1697606405,-1.1044922,0.6113281,0.14453125,5.03125,-171.71875,-87.78125
12,1697606445,-0.7578125,-0.057617188,-0.059570312,100.125,-53.5,-48.15625
13,1697606485,0.057617188,0.59472656,-0.4404297,112.8125,10.09375,-33.71875
14,1697606525,0.6777344,0.671875,-0.25195312,-13.875,49.59375,18.96875
15,1697606565,-0.111328125,-0.043945312,-0.053710938,-36.15625,168.4375,101.5
16,1697606605,-1.5253906,-0.3671875,1.9521484,-119.46875,60.28125,-9.96875
17,1697606645,0.13183594,0.19433594,-1.0302734,-181.71875,-41.40625,-30.96875
18,1697606685,-1.9833984,0.07128906,-1.4121094,124.3125,153.46875,35.9375
19,1697606725,-0.1171875,0.97558594,1.0048828,-155.1875,114.53125,44.84375
20,1697606765,-0.99902344,1.6992188,-0.6171875,-148.96875,188.875,53.875
21,1697606805,-1.9833984,-1.2207031,-0.19433594,159.875,-64.90625,216.96875
22,1697606845,-1.8417969,0.16503906,0.46191406,16.4375,139.5625,21.46875
23,1697606885,-1.1054688,0.12988281,0.7939453,4.71875,62.40625,6.03125
24,1697606925,-0.5908203,-0.109375,0.7421875,-10.21875,4.5,40.34375
25,1697606965,-0.4111328,-0.6191406,0.1484375,-64.53125,-59.15625,15.0
26,1697607005,-0.18554688,-0.15136719,0.43359375,41.71875,-78.5625,-38.15625
27,1697607045,-0.62402344,0.46875,0.2861328,67.09375,-150.71875,-29.875
28,1697607085,-1.9833984,-0.25390625,-0.63964844,114.90625,-109.875,-45.25
29,1697607125,-1.9833984,0.25195312,-0.68847656,1.9375,-205.90625,-115.0
30,1697607165,-1.6767578,0.8027344,-0.08691406,-39.03125,-182.21875,-97.5625
31,1697607205,-1.1875,-0.34960938,0.06933594,119.84375,-85.65625,-45.4375
32,1697607245,-0.026367188,0.48632812,-0.3876953,163.96875,-44.875,-31.25
33,1697607285,0.51171875,0.8720703,-0.13769531,65.71875,26.71875,9.5
34,1697607325,0.35058594,0.12890625,-0.50097656,-40.8125,121.96875,53.875
35,1697607365,-0.90625,0.2265625,1.1123047,-72.78125,141.8125,-6.46875
36,1697607405,-0.53808594,-0.0234375,0.45117188,-210.46875,-57.59375,-20.15625
37,1697607445,-0.39257812,0.5332031,-1.1660156,-2.78125,28.84375,-6.90625
38,1697607485,-1.9833984,-1.4667969,-1.1796875,-321.1875,162.5,-86.5625
39,1697607525,-0.18652344,1.4072266,-0.34765625,2.90625,46.0625,6.75
40,1697607565,-1.2460938,1.0322266,-1.0634766,-197.34375,174.78125,100.5625
41,1697607605,-1.9833984,-1.9902344,0.35546875,117.46875,298.5,285.375
42,1697607645,-1.4863281,0.41015625,0.47851562,1.6875,53.125,12.875
43,1697607685,-0.64941406,0.043945312,0.7138672,1.1875,24.21875,13.40625
44,1697607725,-0.53125,-0.32226562,0.7392578,-30.25,-51.90625,48.625
45,1697607765,0.15820312,-0.7285156,-0.036132812,-41.28125,-47.6875,13.59375
46,1697607805,-0.29589844,-0.24414062,0.39648438,57.84375,-101.15625,-35.84375
47,1697607845,-1.4716797,0.5986328,0.12695312,17.5,-141.3125,-46.53125
48,1697607885,-1.9833984,0.8339844,-0.38378906,164.28125,-58.0,-91.4375
49,1697607925,-1.9833984,0.0087890625,-0.3876953,80.78125,-288.71875,-99.0
50,1697607965,-1.0898438,0.60058594,-0.109375,40.6875,-169.75,-79.71875
51,1697608005,-0.8486328,0.046875,-0.01953125,102.875,-52.40625,-61.65625
52,1697608045,0.09765625,0.6142578,-0.2734375,135.78125,-12.84375,-27.65625
53,1697608085,0.734375,0.8203125,-0.13964844,-22.96875,35.625,11.15625
54,1697608125,0.099609375,0.23535156,-0.29003906,-66.1875,168.0,51.375
55,1697608165,-1.6914062,-0.6386719,1.7324219,-111.25,41.0,-8.6875
56,1697608205,0.0625,-0.2734375,-1.2011719,-152.625,-45.5625,-0.8125
57,1697608245,-1.9833984,1.9472656,0.38183594,34.40625,27.875,34.03125
58,1697608285,-0.044921875,0.14160156,0.6464844,-127.40625,74.8125,-7.9375
59,1697608325,-1.1347656,1.2294922,-0.6357422,-134.96875,109.15625,28.78125
60,1697608365,-1.8837891,-0.06542969,-1.5546875,43.3125,-68.4375,159.03125
61,1697608405,-1.8925781,-0.19726562,0.8720703,39.6875,197.25,25.375
62,1697608445,-1.1875,0.29003906,0.41992188,-13.9375,85.375,17.6875
63,1697608485,-0.6191406,0.11425781,0.8535156,-21.8125,41.59375,23.3125
64,1697608525,-0.7236328,-0.6230469,0.3798828,-93.59375,-83.65625,27.6875
65,1697608565,-0.22949219,-0.32714844,0.22558594,-1.0,-102.0625,-39.75
66,1697608605,-0.2529297,0.23339844,0.23242188,94.21875,-168.125,-39.6875
67,1697608645,-1.9833984,0.5625,-0.24414062,135.34375,-113.6875,-48.46875
68,1697608685,-1.9833984,-0.13476562,-0.7626953,-51.65625,-174.21875,-155.65625
69,1697608725,-1.9833984,1.1572266,0.045898438,6.1875,-184.65625,-92.96875
70,1697608765,-1.0527344,-0.056640625,0.15722656,79.9375,-97.0,-41.75
71,1697608805,-0.3076172,0.31347656,-0.12792969,133.6875,-48.78125,-19.71875
72,1697608845,0.109375,0.88183594,-0.13574219,100.5,29.15625,25.6875
73,1697608885,0.5097656,0.6582031,-0.2109375,-121.90625,103.96875,55.65625
74,1697608925,-0.33203125,-0.3642578,0.38964844,-83.15625,153.34375,71.53125
75,1697608965,-1.0351562,-0.7050781,0.35253906,-187.15625,-5.15625,-8.1875
76,1697609005,-0.068359375,0.036132812,-0.57714844,26.21875,-24.3125,21.65625
77,1697609045,-1.9833984,-0.5292969,-1.1503906,-100.8125,236.0,37.78125
78,1697609085,-0.29296875,0.86328125,0.0546875,-83.84375,149.6875,-38.90625
79,1697609125,-1.4042969,1.1865234,-0.20605469,112.9375,43.5,95.375
80,1697609165,-1.9326172,-0.9375,-0.2421875,-41.96875,124.25,51.25
81,1697609205,-1.3066406,-0.15234375,-0.15234375,18.03125,116.78125,60.90625
82,1697609245,-0.8730469,0.103515625,1.1376953,-50.3125,73.34375,17.5
83,1697609285,-0.6689453,-0.3046875,0.8964844,0.59375,-54.71875,8.15625
84,1697609325,-0.07128906,0.4375,0.41796875,41.84375,-117.09375,-11.25
85,1697609365,0.12402344,-0.39941406,0.13183594,34.875,-120.21875,-12.21875
86,1697609405,-1.0957031,0.0625,-0.01953125,-41.96875,-100.78125,-49.4375
87,1697609445,-1.9833984,-1.6142578,-0.3701172,98.34375,-15.28125,-256.25
88,1697609485,-1.9570312,1.6904297,-0.6484375,93.90625,-198.4375,-128.8125
89,1697609525,-0.3798828,0.70214844,0.35253906,38.59375,-67.46875,-68.9375
90,1697609565,-1.9833984,-0.23339844,0.6542969,-7.78125,116.0,30.0
91,1697609605,-1.0019531,0.022460938,0.49902344,38.3125,50.09375,26.21875
92,1697609645,-0.49609375,0.21484375,0.75097656,5.03125,39.78125,31.3125
93,1697609685,-0.46875,-0.67285156,0.2783203,-57.40625,-55.25,28.5
94,1697609725,0.3701172,-0.41308594,0.32617188,37.03125,-61.96875,-16.6875
95,1697609765,-0.19921875,0.5263672,0.42382812,48.5625,-115.125,-19.0
96,1697609805,-1.9833984,0.29003906,-0.734375,-28.96875,-156.03125,-27.34375
97,1697609845,-1.9833984,0.72265625,-0.21777344,94.75,16.03125,-163.09375
98,1697609885,-1.9833984,0.7050781,-0.4296875,57.46875,-268.875,-46.78125
99,1697609925,-1.1201172,-0.17382812,0.19433594,105.25,-108.5,-64.15625
100,1697609965,-0.5361328,0.16699219,-0.08300781,148.34375,-51.1875,-23.09375
101,1697610005,0.6455078,1.1962891,-0.6015625,85.84375,-31.8125,0.96875
102,1697610045,0.7548828,0.25585938,-0.4345703,-69.1875,94.40625,29.46875
103,1697610085,-0.8173828,-0.2529297,0.6015625,-19.875,199.375,34.46875
104,1697610125,-1.3623047,-0.3203125,1.3710938,-187.40625,-11.25,-24.6875
105,1697610165,0.5371094,-0.3955078,-1.6464844,-107.21875,-59.84375,-26.625
106,1697610205,-1.9833984,0.14746094,-0.07519531,26.09375,253.5,10.0
107,1697610245,0.21191406,1.0234375,-0.39746094,-78.78125,111.84375,-3.90625
108,1697610285,-1.9013672,1.3212891,-1.2470703,-219.75,148.21875,116.4375
109,1697610325,-1.9833984,-1.9902344,0.27734375,234.65625,199.0625,261.40625
110,1697610365,-1.6357422,0.19238281,0.6611328,-11.4375,105.9375,-11.71875
111,1697610405,-0.62597656,-0.00390625,0.5214844,18.71875,58.6875,-5.8125
112,1697610445,-0.4091797,-0.17480469,0.9501953,-13.46875,-4.25,42.71875
113,1697610485,-0.3486328,-0.49121094,-0.31933594,-62.96875,-50.9375,-5.09375
114,1697610525,-0.23535156,0.048828125,0.33984375,59.34375,-95.4375,-40.1875
115,1697610565,-0.5810547,0.49609375,0.31152344,71.6875,-161.78125,-27.1875
116,1697610605,-1.9833984,-0.7314453,-0.9394531,143.03125,-154.5,-50.90625
117,1697610645,-1.9833984,0.5966797,-0.24511719,44.28125,-210.0,-107.75
118,1697610685,-1.0527344,0.9765625,0.08496094,-52.46875,-161.84375,-108.03125
119,1697610725,-1.0742188,-0.48046875,0.15332031,144.9375,-42.375,-27.84375
120,1697610765,-0.022460938,0.7626953,-0.5830078,152.6875,-20.09375,-21.0
121,1697610805,0.85253906,1.0,-0.40527344,0.28125,23.53125,29.09375
122,1697610845,0.061523438,0.13085938,-0.47558594,-66.0625,162.75,77.8125
123,1697610885,-1.9833984,-0.61621094,1.9892578,-130.65625,153.46875,-16.0
124,1697610925,-0.10253906,-0.10058594,-0.6328125,-178.5625,-56.375,-45.59375
125,1697610965,-1.9833984,1.4257812,-0.6074219,150.25,21.65625,-13.6875
126,1697611005,-0.27246094,0.001953125,0.375,-98.53125,131.6875,53.15625
127,1697611045,-1.9833984,1.328125,-0.8359375,-267.96875,208.90625,40.9375
128,1697611085,-1.9833984,-1.4990234,0.015625,231.28125,96.65625,260.3125
129,1697611125,-1.5634766,0.11621094,0.06738281,73.625,119.3125,47.71875
130,1697611165,-0.8886719,0.051757812,0.49804688,8.34375,75.46875,0.34375
131,1697611205,-0.6777344,-0.19042969,0.9951172,0.40625,13.34375,28.4375
132,1697611245,-0.68847656,-0.25097656,0.21972656,-57.09375,-73.15625,-13.8125
133,1697611285,-0.16113281,0.12792969,0.24414062,14.0625,-98.53125,-38.03125
134,1697611325,-0.2998047,0.38867188,0.39160156,69.1875,-155.3125,-13.625
135,1697611365,-1.9833984,-1.2587891,-1.5136719,80.15625,-138.625,-30.21875
136,1697611405,-1.9833984,1.0175781,-0.12207031,18.40625,-72.0,-172.9375
137,1697611445,-1.8818359,1.3759766,-0.017578125,8.15625,-224.875,-80.6875
138,1697611485,-1.1298828,-0.51953125,0.22558594,143.34375,-35.4375,-47.25
139,1697611525,-0.2626953,0.74316406,-0.33496094,158.34375,-15.28125,-33.9375
140,1697611565,0.8359375,1.2607422,-0.5185547,-13.6875,8.46875,13.71875
141,1697611605,0.4296875,0.07128906,-0.6220703,-90.71875,121.96875,53.5
142,1697611645,-1.0761719,-0.3701172,1.8398438,-79.5,254.1875,-9.0625
143,1697611685,-0.6640625,-0.4423828,0.23535156,-286.34375,-29.875,-58.71875
144,1697611725,-1.9042969,1.1796875,-0.484375,65.875,-2.78125,-26.1875
145,1697611765,-0.6533203,-0.20507812,0.9550781,-103.53125,-52.5625,12.75
146,1697611805,-0.484375,1.296875,-0.7832031,-152.6875,97.375,78.21875
147,1697611845,-1.9511719,0.11816406,-1.6464844,28.71875,-37.6875,136.59375
148,1697611885,-1.8896484,-0.4267578,0.21582031,51.25,166.46875,37.28125
149,1697611925,-1.2285156,0.13085938,0.28808594,0.75,129.625,13.0
150,1697611965,-0.70703125,0.08496094,0.39746094,-54.0625,114.90625,5.34375
151,1697612005,-0.7050781,-0.140625,1.1171875,-43.3125,-23.15625,41.3125
152,1697612045,-0.3623047,-0.44335938,0.11328125,-84.125,-90.34375,7.8125
153,1697612085,-0.083984375,-0.51953125,0.4111328,55.15625,-122.40625,-40.65625
154,1697612125,-1.3769531,0.11425781,-0.0859375,21.21875,-147.65625,-65.5
155,1697612165,-1.9833984,0.7919922,-0.45507812,173.375,-57.53125,-93.65625
156,1697612205,-1.9560547,0.6796875,-0.17675781,160.625,-356.09375,-101.03125
157,1697612245,-1.125,0.43847656,0.043945312,10.96875,-153.59375,-68.5
158,1697612285,-1.0107422,-0.15917969,-0.25683594,100.90625,-75.53125,-48.65625
159,1697612325,0.36035156,0.76660156,-0.40039062,137.96875,-56.84375,-10.625
160,1697612365,0.7998047,0.5078125,-0.29003906,-38.84375,51.84375,54.5
161,1697612405,0.23535156,-0.2265625,-0.5703125,-70.46875,133.59375,83.84375
162,1697612445,-1.1289062,-0.1953125,1.8847656,-70.09375,127.21875,-0.3125
163,1697612485,-0.63671875,0.021484375,-0.37109375,-198.40625,-36.59375,-20.28125
164,1697612525,-1.9833984,-0.11621094,-0.5263672,127.03125,73.15625,0.84375
165,1697612565,1.0634766,0.7890625,0.37890625,-62.59375,-3.125,-35.59375
166,1697612605,-1.6318359,1.4306641,-0.6357422,-208.03125,46.125,148.84375
167,1697612645,-1.9833984,-0.103515625,-1.6787109,-9.6875,58.3125,130.40625
168,1697612685,-1.9833984,-1.2246094,0.49609375,-55.625,231.84375,65.21875
169,1697612725,-1.4521484,0.06542969,0.44335938,16.25,87.125,6.03125
170,1697612765,-0.5292969,0.2607422,0.7949219,-31.34375,53.375,-12.46875
171,1697612805,-0.5957031,-0.20410156,0.71972656,-56.1875,-71.125,39.65625
172,1697612845,0.06640625,-0.65234375,0.19238281,4.53125,-82.53125,0.46875
173,1697612885,-0.17089844,0.0068359375,0.43554688,56.375,-130.40625,-27.71875
174,1697612925,-1.5732422,0.43554688,-0.087890625,25.125,-142.84375,-31.375
175,1697612965,-1.9833984,0.484375,-0.71875,62.28125,-57.09375,-121.90625
176,1697613005,-1.9833984,0.4453125,-0.14355469,137.78125,-289.8125,-83.21875
177,1697613045,-0.8955078,0.44628906,0.07324219,-8.5,-121.375,-71.375
178,1697613085,-0.8769531,-0.051757812,-0.111328125,123.25,-53.96875,-36.75
179,1697613125,0.23535156,0.95996094,-0.42871094,104.21875,-25.90625,-2.75
180,1697613165,0.6640625,0.49804688,-0.4423828,-43.84375,61.875,33.125
181,1697613205,-0.00390625,-0.3095703,-0.09863281,-24.125,165.75,70.78125
182,1697613245,-1.1503906,-0.4638672,1.3398438,-156.78125,66.6875,-27.1875
183,1697613285,0.10546875,0.041992188,-0.68359375,-152.3125,-17.65625,-29.5625
184,1697613325,-1.9833984,-1.078125,-1.1005859,171.59375,291.84375,25.0625
185,1697613365,0.7861328,0.9658203,-0.21289062,-62.34375,49.53125,-22.21875
186,1697613405,-1.8085938,1.2753906,-0.98535156,-202.375,94.09375,88.125
187,1697613445,-1.9833984,-0.7714844,-0.6113281,133.875,-55.6875,194.625
188,1697613485,-1.5195312,0.0703125,0.24316406,16.09375,159.71875,32.15625
189,1697613525,-1.2119141,0.2548828,0.5498047,19.4375,115.8125,19.40625
190,1697613565,-0.6777344,0.21191406,0.69628906,-10.96875,77.78125,28.0
191,1697613605,-0.62597656,-0.60058594,0.6464844,-68.5625,-59.84375,41.84375
192,1697613645,0.0068359375,-0.5644531,-0.06933594,-21.6875,-104.03125,-8.875
193,1697613685,-0.171875,0.26757812,0.3857422,77.1875,-139.96875,-40.25
194,1697613725,-1.9833984,0.16796875,-0.56152344,30.1875,-156.9375,-56.59375
195,1697613765,-1.9833984,1.3212891,-0.21289062,-47.15625,8.21875,-157.71875
196,1697613805,-1.9833984,0.86621094,-0.0625,78.28125,-260.34375,-51.59375
197,1697613845,-1.4414062,0.0029296875,0.140625,38.78125,-87.0625,-50.4375
198,1697613885,-0.8066406,-0.009765625,-0.15527344,166.96875,-88.09375,-52.4375
199,1697613925,0.43652344,0.90234375,-0.5449219,146.5,-41.90625,-4.21875
200,1697613965,0.6376953,0.42578125,-0.2685547,-26.9375,76.5625,25.5
201,1697614005,-0.1875,-0.15820312,0.20214844,-44.53125,175.75,18.0625
202,1697614045,-1.4111328,-0.41796875,1.3378906,-99.40625,39.9375,-0.375
203,1697614085,-0.25195312,0.047851562,-0.89453125,-114.34375,-34.75,2.3125
204,1697614125,-1.9833984,2.0097656,1.9892578,-59.53125,21.53125,36.375
205,1697614165,-0.41210938,-0.86816406,1.1640625,-103.1875,26.9375,5.1875
206,1697614205,-1.1679688,1.2539062,-0.5107422,-157.875,62.0,64.9375
207,1697614245,-1.9833984,-0.14453125,-1.3740234,53.5625,-56.90625,164.15625
208,1697614285,-1.5751953,-0.39453125,0.34765625,25.25,225.5,40.875
209,1697614325,-1.6503906,0.33789062,0.37597656,7.78125,132.125,15.125
210,1697614365,-0.56347656,0.3359375,0.70703125,-35.0,106.0,3.28125
211,1697614405,-0.60839844,-0.30566406,0.6689453,-49.03125,-48.375,61.09375
212,1697614445,-0.32617188,-0.5800781,0.041015625,-87.4375,-105.125,14.6875
213,1697614485,-0.09765625,-0.22753906,0.16894531,36.53125,-138.03125,-29.875
214,1697614525,-1.3037109,0.111328125,0.11230469,1.96875,-169.6875,-46.53125
215,1697614565,-1.9833984,0.57421875,-0.31347656,109.96875,-100.4375,-94.5625
216,1697614605,-1.9833984,0.6064453,-0.13378906,11.0625,-205.71875,-102.0
217,1697614645,-1.4238281,0.5449219,0.16796875,-15.96875,-127.71875,-123.375
218,1697614685,-1.2988281,-0.30273438,-0.034179688,182.46875,-112.5,-60.875
219,1697614725,0.033203125,0.7871094,-0.28125,253.3125,-100.84375,-18.625
220,1697614765,0.38867188,0.7138672,-0.19140625,93.53125,62.78125,12.1875
221,1697614805,0.026367188,0.47753906,-0.109375,-35.96875,107.8125,28.0
222,1697614845,-0.37695312,0.111328125,0.3154297,-91.9375,139.75,43.4375
223,1697614885,-1.3789062,-0.7705078,1.0722656,-121.6875,93.0625,13.84375
224,1697614925,-0.19140625,-0.0048828125,-0.42382812,-82.375,-87.125,-17.03125
225,1697614965,-1.9833984,2.0097656,-0.35253906,124.40625,141.40625,-19.4375
226,1697615005,1.1904297,0.109375,0.28710938,-83.96875,64.25,-67.65625
227,1697615045,-1.9404297,1.9365234,-0.90527344,-133.5625,82.5625,95.9375
228,1697615085,-1.9833984,-0.46875,-0.9316406,3.8125,-58.875,149.09375
229,1697615125,-1.875,-0.26464844,0.060546875,22.96875,141.03125,21.59375
230,1697615165,-1.4990234,-0.18457031,0.6845703,35.78125,57.59375,-10.8125
231,1697615205,-0.24414062,-0.018554688,0.46972656,-19.25,49.34375,-54.46875
232,1697615245,-0.2578125,-0.25097656,0.25683594,-17.84375,5.40625,-29.25
233,1697615285,0.2841797,-0.07324219,0.484375,5.34375,23.46875,-29.125
234,1697615325,-0.15722656,0.4345703,0.17675781,-53.9375,-18.34375,-36.03125
235,1697615365,-0.33496094,0.4091797,0.29589844,-8.8125,-88.59375,-25.71875
236,1697615405,-1.9833984,0.3408203,-0.6953125,-13.15625,-111.0,-43.09375
237,1697615445,-1.9833984,1.3222656,-0.15234375,-136.8125,-168.1875,-45.125
238,1697615485,-1.8642578,2.0097656,0.2705078,77.25,-274.5,-129.46875
239,1697615525,-0.4296875,0.5751953,0.89941406,16.625,-103.0,-70.21875
240,1697615565,-1.4160156,1.1601562,-0.3701172,-46.25,-124.0,-45.84375
241,1697615605,-1.9833984,0.5888672,-0.9902344,160.78125,-144.0,-55.875
242,1697615645,-1.9833984,0.13378906,-0.58203125,16.375,-266.1875,-93.21875
243,1697615685,-0.9033203,0.20214844,0.16601562,47.5,-146.3125,-84.125
244,1697615725,-0.7294922,-0.6582031,-0.2578125,125.28125,-50.3125,-50.1875
245,1697615765,0.18847656,0.9111328,-0.234375,103.59375,19.125,1.03125
246,1697615805,0.40625,0.39941406,-0.57910156,17.96875,36.96875,47.59375
247,1697615845,0.041992188,0.31054688,0.2109375,-18.46875,129.1875,51.9375
248,1697615885,-0.9423828,-0.38378906,1.6318359,-231.28125,54.25,-17.53125
249,1697615925,-0.03515625,0.44921875,-1.3408203,-77.53125,-116.46875,-24.6875
250,1697615965,-1.9833984,-1.6289062,-1.4580078,117.15625,200.15625,17.125
251,1697616005,-1.1083984,1.1240234,0.9482422,-158.40625,252.34375,34.21875
252,1697616045,-1.4375,1.1992188,-0.87597656,-90.4375,191.375,44.90625
253,1697616085,-1.7050781,0.13183594,-1.2197266,-17.25,-16.875,178.28125
254,1697616125,-1.9833984,-0.7626953,1.0488281,-48.1875,231.25,22.625
255,1697616165,-1.0322266,-0.061523438,0.7324219,-15.53125,18.03125,23.375
256,1697616205,-0.16796875,0.10253906,0.78222656,35.625,-25.78125,25.4375
257,1697616245,-0.35351562,-0.53125,-0.140625,-60.5625,-79.4375,24.875
258,1697616285,-0.13964844,-0.38085938,0.22753906,22.625,-75.71875,-30.71875
259,1697616325,-0.35253906,0.22070312,0.5234375,78.21875,-140.59375,-39.5625
260,1697616365,-1.9833984,0.013671875,-1.1835938,88.40625,-93.59375,-54.59375
261,1697616405,-1.9833984,0.85058594,0.2109375,-6.875,-68.625,-208.28125
262,1697616445,-1.9833984,1.8544922,-0.047851562,-5.46875,-220.4375,-60.5
263,1697616485,-1.171875,0.01953125,0.061523438,26.8125,-48.125,-23.6875
264,1697616525,-0.45117188,-0.026367188,-0.043945312,150.78125,-42.1875,-37.25
265,1697616565,0.40722656,0.75390625,-0.119140625,130.28125,-0.9375,23.53125
266,1697616605,0.53027344,0.22363281,-0.46875,-3.03125,79.9375,54.75
267,1697616645,-0.5185547,0.095703125,0.35351562,-29.15625,196.625,12.1875
268,1697616685,-1.3945312,-0.038085938,1.140625,-177.65625,86.09375,-26.5625
269,1697616725,-0.18164062,-0.37402344,-0.7753906,-81.4375,-55.625,-15.9375
270,1697616765,-1.9833984,-0.98046875,0.2919922,-15.15625,184.3125,67.84375
271,1697616805,0.7558594,1.4462891,-0.47265625,62.28125,-19.6875,-47.125
272,1697616845,-1.6416016,1.2226562,-1.1123047,-183.3125,115.5625,71.75
273,1697616885,-1.9775391,-0.09667969,-1.1708984,75.78125,-1.90625,156.53125
274,1697616925,-1.7851562,-0.16113281,0.14257812,-24.75,127.96875,39.15625
275,1697616965,-1.6025391,-0.12792969,0.59375,110.75,36.53125,34.21875
276,1697617005,-0.55859375,0.057617188,0.24511719,-36.90625,54.28125,7.1875
277,1697617045,-0.5332031,-0.22949219,0.43164062,-51.3125,-1.96875,40.21875
278,1697617085,0.107421875,-0.91503906,0.23730469,-29.28125,-47.8125,6.875
279,1697617125,-0.21582031,0.12207031,0.25195312,66.375,-101.21875,-31.1875
280,1697617165,-0.73339844,0.46679688,0.119140625,29.03125,-131.75,-38.40625
281,1697617205,-1.9833984,0.2919922,-0.7207031,112.625,-149.4375,-72.84375
282,1697617245,-1.8652344,0.40429688,-0.51171875,91.8125,-242.6875,-84.1875
283,1697617285,-1.2177734,0.6386719,0.20605469,-28.09375,-139.90625,-82.40625
284,1697617325,-1.2421875,-0.55859375,0.026367188,117.53125,-40.0625,-43.53125
285,1697617365,-0.009765625,0.86328125,-0.40625,144.375,-36.84375,-16.1875
286,1697617405,0.7939453,0.8027344,-0.35351562,14.5625,32.03125,16.96875
287,1697617445,0.06347656,0.17675781,-0.4091797,-74.625,119.0625,72.9375
288,1697617485,-1.1669922,0.047851562,1.5126953,-87.1875,263.53125,5.28125
289,1697617525,-0.74121094,-0.3857422,0.328125,-265.28125,-72.21875,-55.25
290,1697617565,-1.9023438,0.99902344,-1.5439453,84.125,-6.75,-59.71875
291,1697617605,-0.35351562,0.3232422,1.4199219,-241.5625,-15.03125,-9.21875
292,1697617645,-0.9814453,1.3857422,-0.9111328,-61.96875,34.875,63.65625
293,1697617685,-1.84375,0.203125,-1.2324219,-64.25,59.53125,119.3125
294,1697617725,-1.9833984,-0.9375,0.26757812,26.65625,183.8125,76.09375
295,1697617765,-1.3955078,0.013671875,0.37695312,89.4375,55.875,26.46875
296,1697617805,-0.54589844,0.37695312,0.46777344,7.34375,89.28125,-2.53125
297,1697617845,-0.6640625,-0.10546875,1.0,-11.8125,-37.4375,42.59375
298,1697617885,-0.18652344,-0.55566406,-0.044921875,-50.09375,-64.125,8.40625
299,1697617925,-0.21386719,0.048828125,0.27539062,47.875,-105.5,-42.25
300,1697617965,-0.890625,0.45410156,0.17382812,26.9375,-142.84375,-45.0625
301,1697618005,-1.9833984,0.4267578,-0.7919922,115.09375,-155.25,-51.65625
302,1697618045,-1.8173828,0.18457031,-0.2685547,124.59375,-263.09375,-89.90625
303,1697618085,-1.1269531,0.74121094,0.12988281,4.78125,-131.5,-74.53125
304,1697618125,-1.4472656,-0.37695312,-0.22753906,107.28125,-37.125,-57.5625
305,1697618165,-0.009765625,0.8173828,-0.3564453,163.84375,-50.6875,-38.65625
306,1697618205,0.6796875,0.79296875,-0.25683594,36.96875,40.8125,22.5
307,1697618245,-0.0009765625,0.08105469,-0.35742188,-52.40625,115.5,78.0
308,1697618285,-1.2900391,-0.095703125,1.2958984,-101.53125,204.875,-3.5625
309,1697618325,-0.67285156,-0.3642578,0.5058594,-201.03125,-8.9375,-42.0625
310,1697618365,-0.9326172,1.0341797,-0.58984375,-60.28125,-45.125,-25.90625
311,1697618405,-0.98828125,-0.8808594,0.10546875,-127.28125,-60.6875,-37.78125
312,1697618445,-0.21289062,1.1894531,-0.42871094,-84.5625,91.15625,15.125
313,1697618485,-1.8642578,0.5439453,-1.2714844,-22.375,67.78125,119.3125
314,1697618525,-1.9833984,-1.0664062,0.5605469,9.90625,251.875,109.90625
315,1697618565,-1.8691406,0.10253906,0.4111328,112.9375,95.25,42.09375
316,1697618605,-0.7714844,0.12597656,0.56347656,-59.71875,87.1875,-4.53125
317,1697618645,-0.5595703,0.0859375,0.76953125,-28.03125,3.03125,32.40625
318,1697618685,-0.5126953,-0.70996094,0.10058594,-73.03125,-67.78125,16.78125
319,1697618725,-0.07421875,-0.14257812,0.27929688,43.3125,-84.375,-43.46875
320,1697618765,-0.5341797,0.56933594,0.375,50.03125,-129.34375,-38.03125
321,1697618805,-1.9833984,-0.1484375,-0.67285156,72.71875,-178.6875,-35.40625
322,1697618845,-1.9833984,0.49414062,-0.25195312,-23.53125,-149.0625,-154.4375
323,1697618885,-1.7128906,0.9355469,-0.1953125,-36.21875,-181.0,-80.53125
324,1697618925,-1.4902344,-0.32128906,0.09277344,125.15625,-89.0625,-44.03125
325,1697618965,-0.13769531,0.7138672,-0.24609375,173.75,-108.84375,-26.8125
326,1697619005,0.70703125,0.9345703,-0.33007812,85.84375,6.75,15.5625
327,1697619045,0.3408203,0.09082031,-0.5019531,-78.65625,113.875,49.3125
328,1697619085,-0.5546875,0.09277344,0.55078125,-110.875,202.1875,17.1875
329,1697619125,-1.2353516,-0.83203125,1.390625,-248.4375,25.96875,-18.3125
330,1697619165,-1.5175781,0.55371094,-0.72265625,-82.90625,-41.59375,-17.21875
331,1697619205,0.09863281,0.013671875,0.14453125,-108.96875,-112.4375,-57.5
332,1697619245,0.2890625,1.6298828,-0.4716797,-93.78125,90.0,28.375
333,1697619285,-1.9833984,0.7236328,-1.2578125,-168.90625,142.75,121.375
334,1697619325,-1.9833984,-1.9902344,0.5986328,242.59375,296.71875,262.25
335,1697619365,-1.8427734,0.07714844,0.35546875,35.0625,139.3125,18.59375
336,1697619405,-0.9277344,0.20996094,0.5605469,1.3125,98.0625,6.28125
337,1697619445,-0.51660156,0.10253906,1.0234375,-9.5,7.46875,36.53125
338,1697619485,-0.39746094,-0.5683594,0.23730469,-91.34375,-68.6875,18.25
339,1697619525,-0.115234375,-0.36523438,0.29492188,43.5625,-92.5625,-31.6875
340,1697619565,-0.66308594,0.4658203,0.36035156,68.625,-156.6875,-39.75
341,1697619605,-1.9833984,-0.359375,-0.875,65.59375,-213.03125,-23.28125
342,1697619645,-1.9833984,0.7216797,-0.3564453,1.96875,-148.15625,-161.28125
343,1697619685,-1.8173828,1.1396484,-0.12207031,-20.59375,-189.28125,-96.375
344,1697619725,-1.3974609,-0.26171875,0.11035156,128.15625,-84.9375,-68.5
345,1697619765,-0.109375,0.75,-0.20898438,160.90625,-67.53125,-39.375
346,1697619805,0.7910156,0.9863281,-0.30371094,35.6875,22.25,14.28125
347,1697619845,0.46484375,0.25097656,-0.4892578,-82.0,115.40625,75.96875
348,1697619885,-0.85058594,-0.18261719,0.9638672,-53.375,203.09375,37.03125
349,1697619925,-0.8574219,-0.4892578,0.3095703,-273.03125,-37.375,-56.28125
350,1697619965,-0.39648438,0.82910156,-1.2822266,-52.15625,-28.65625,-25.09375
351,1697620005,-1.6113281,-0.58203125,0.3828125,-117.9375,-35.3125,-21.25
352,1697620045,-0.2529297,1.4550781,-0.6015625,-84.0625,62.59375,34.21875
353,1697620085,-1.8115234,0.6904297,-1.3759766,-59.0,74.4375,101.3125
354,1697620125,-1.9833984,-1.5722656,0.7558594,73.53125,300.9375,119.84375
355,1697620165,-1.5722656,0.3642578,0.26953125,24.875,118.8125,1.75
356,1697620205,-0.7285156,-0.036132812,0.7089844,-34.625,85.71875,27.5
357,1697620245,-0.87890625,-0.29296875,1.046875,-57.65625,-60.28125,52.59375
358,1697620285,-0.111328125,-0.5673828,-0.19433594,-63.25,-82.375,3.59375
359,1697620325,-0.16796875,-0.10644531,0.3955078,86.8125,-126.0,-41.34375
360,1697620365,-1.0888672,0.42578125,0.013671875,53.5,-159.625,-40.46875
361,1697620405,-1.9833984,0.5673828,-1.3945312,151.34375,-166.21875,-33.15625
362,1697620445,-1.9833984,0.33496094,0.045898438,132.0625,-273.9375,-103.59375
363,1697620485,-0.98535156,0.4638672,-0.046875,3.375,-157.8125,-93.40625
364,1697620525,-1.1240234,-0.42089844,-0.12109375,165.1875,-60.6875,-62.5625
365,1697620565,0.17773438,0.9404297,-0.4560547,194.625,-91.53125,-5.6875
366,1697620605,0.79785156,0.74609375,-0.28125,13.34375,45.25,31.46875
367,1697620645,0.10839844,-0.04296875,-0.3310547,-50.5,151.78125,76.71875
368,1697620685,-1.5712891,-0.203125,1.3574219,-142.90625,144.625,-41.875
369,1697620725,-0.09863281,-0.15527344,-0.35742188,-165.5,-9.0,-23.375
370,1697620765,-1.9833984,0.4091797,-0.7236328,126.9375,26.40625,64.625
371,1697620805,0.40429688,1.5634766,0.51171875,-181.96875,47.28125,13.34375
372,1697620845,-1.4140625,1.3916016,-1.1640625,-118.125,108.0625,44.125
373,1697620885,-1.9833984,-0.04296875,-1.6435547,41.71875,-20.28125,172.65625
374,1697620925,-1.9833984,-0.4892578,0.7109375,-23.71875,179.96875,26.34375
375,1697620965,-0.97753906,0.2763672,0.55859375,22.6875,41.0625,9.6875
376,1697621005,-0.3486328,0.076171875,0.37597656,-17.3125,44.53125,12.5625
377,1697621045,-0.8486328,-0.5917969,0.24511719,-81.8125,-68.1875,29.96875
378,1697621085,0.17871094,-0.7480469,0.36132812,16.375,-56.84375,-20.9375
379,1697621125,-0.2529297,0.296875,0.42382812,112.40625,-147.78125,-30.71875
380,1697621165,-1.9833984,0.39648438,-0.609375,0.34375,-125.8125,-49.75
381,1697621205,-1.9833984,1.5576172,-0.64746094,29.875,-24.375,-134.59375
382,1697621245,-1.9833984,0.82910156,-0.038085938,78.03125,-276.03125,-53.125
383,1697621285,-0.9121094,0.19824219,0.234375,83.71875,-114.53125,-45.53125
384,1697621325,-0.9033203,-0.2578125,-0.14550781,189.78125,-44.03125,-44.03125
385,1697621365,0.36523438,1.1064453,-0.3779297,132.21875,-8.21875,15.90625
386,1697621405,0.48632812,0.5810547,-0.6376953,-98.90625,116.78125,67.125
387,1697621445,-0.421875,-0.33496094,0.115234375,-53.4375,139.625,64.75
388,1697621485,-1.2275391,-0.55078125,1.3857422,-223.53125,80.125,-66.34375
389,1697621525,0.15234375,0.19433594,-0.98339844,-147.96875,-84.125,-45.53125
390,1697621565,-1.9833984,-0.31054688,-0.94433594,20.90625,259.125,115.40625
391,1697621605,0.06640625,0.5439453,-0.0390625,-73.875,135.46875,-33.15625
392,1697621645,-1.7128906,1.0517578,-1.2304688,-116.0,167.625,60.03125
393,1697621685,-1.9833984,-1.5019531,0.32128906,33.34375,194.25,131.40625
394,1697621725,-1.9541016,0.15234375,0.4794922,86.03125,122.09375,72.5625
395,1697621765,-0.9628906,-0.16503906,0.6376953,-61.125,98.0,17.8125
396,1697621805,-0.6347656,0.15136719,1.0458984,-8.46875,10.09375,36.78125
397,1697621845,-0.4736328,-0.47070312,0.23535156,-80.71875,-73.8125,12.8125
398,1697621885,0.076171875,-0.5449219,0.24707031,61.6875,-99.28125,-16.75
399,1697621925,-0.4091797,0.4248047,0.36035156,63.5625,-141.03125,-26.3125
400,1697621965,-1.9833984,-0.93847656,-1.1923828,26.46875,-173.5,-67.09375
401,1697622005,-1.9833984,1.2236328,0.125,26.21875,-6.25,-187.5
402,1697622045,-1.9833984,1.2333984,0.01171875,17.59375,-218.65625,-84.71875
403,1697622085,-1.3984375,-0.19726562,0.052734375,125.53125,-73.875,-25.40625
404,1697622125,-0.3876953,0.4658203,-0.3388672,205.96875,-106.84375,-21.25
405,1697622165,0.6484375,0.9765625,-0.35546875,101.28125,-23.03125,8.09375
406,1697622205,0.49609375,0.35839844,-0.37597656,-48.0,114.90625,31.96875
407,1697622245,-0.49804688,-0.15917969,0.5205078,-72.78125,186.4375,16.53125
408,1697622285,-1.1328125,-0.47070312,1.0371094,-246.84375,19.125,-24.625
409,1697622325,0.076171875,0.041015625,-0.92089844,-143.46875,-40.75,-17.46875
410,1697622365,-1.9833984,-0.9003906,-0.765625,-96.59375,145.59375,-74.71875
411,1697622405,0.46875,1.3261719,-0.29882812,2.78125,21.09375,8.96875
412,1697622445,-1.9833984,0.8066406,-1.4716797,-132.71875,194.3125,107.28125
413,1697622485,-1.9833984,-1.8896484,0.26757812,220.90625,230.25,240.40625
414,1697622525,-1.8769531,0.37597656,0.4453125,33.59375,100.625,6.09375
415,1697622565,-0.9189453,-0.03515625,0.7089844,-50.75,55.09375,12.4375
416,1697622605,-0.51464844,-0.20214844,0.87109375,-16.9375,-36.46875,38.1875
417,1697622645,0.3154297,-0.9765625,-0.08984375,13.40625,-46.28125,10.4375
418,1697622685,-0.25390625,0.20898438,0.4033203,83.59375,-106.34375,-42.8125
419,1697622725,-0.4404297,0.71777344,0.26953125,65.28125,-159.15625,-24.1875
420,1697622765,-1.9833984,-1.1005859,-0.8652344,87.75,-156.59375,-85.875
421,1697622805,-1.9833984,0.63964844,-0.14746094,-68.9375,-73.5,-191.71875
422,1697622845,-1.4970703,1.1796875,-0.17382812,-2.53125,-207.78125,-106.65625
423,1697622885,-0.92871094,-0.08691406,0.13378906,128.09375,-58.5,-30.09375
424,1697622925,-0.4296875,0.3408203,-0.13378906,178.6875,-39.8125,-13.0625
425,1697622965,0.5410156,1.1445312,-0.11816406,112.8125,26.46875,3.65625
426,1697623005,0.5048828,0.45898438,-0.38964844,-52.875,121.0,54.5625
427,1697623045,-1.2773438,-0.23925781,0.9550781,-78.875,191.0,14.375
428,1697623085,-0.8232422,-0.484375,0.6767578,-233.5625,40.1875,-10.75
429,1697623125,0.056640625,0.2998047,-0.5263672,-33.53125,-72.65625,3.53125
430,1697623165,-1.9833984,-0.6064453,-0.97265625,-222.8125,42.15625,-5.03125
431,1697623205,0.5253906,1.2998047,-0.57714844,-55.9375,116.25,-51.46875
432,1697623245,-1.9833984,1.1230469,-1.6044922,-145.28125,114.0,91.40625
433,1697623285,-1.9833984,-1.9003906,0.7871094,2.65625,250.53125,101.25
434,1697623325,-1.9296875,0.053710938,0.38183594,84.25,73.53125,52.34375
435,1697623365,-1.0175781,0.047851562,0.70703125,4.3125,58.03125,0.0625
436,1697623405,-0.67578125,0.08886719,0.8310547,6.8125,15.90625,25.125
437,1697623445,-0.56347656,-0.71972656,0.13574219,-74.3125,-72.59375,15.5625
438,1697623485,0.03125,-0.49121094,0.45507812,76.375,-83.8125,-16.1875
439,1697623525,-0.43359375,0.5644531,0.3251953,92.9375,-140.71875,-28.15625
440,1697623565,-1.9833984,-0.6484375,-0.7470703,15.96875,-186.5625,-53.78125
441,1697623605,-1.9833984,1.2636719,-0.119140625,70.46875,-51.65625,-165.59375
442,1697623645,-1.7900391,1.1425781,-0.24023438,-33.28125,-187.34375,-107.5
443,1697623685,-1.5634766,-0.28515625,0.15429688,132.15625,-88.03125,-23.5
444,1697623725,-0.36621094,0.4091797,-0.13867188,163.78125,-107.6875,-21.3125
445,1697623765,0.58984375,0.85253906,-0.45410156,133.40625,3.03125,-13.9375
446,1697623805,0.26953125,0.34277344,-0.38085938,-29.5,101.96875,17.0
447,1697623845,-0.39941406,0.055664062,0.31347656,-70.03125,134.8125,19.03125
448,1697623885,-1.1181641,-0.6591797,0.9892578,-224.8125,81.8125,-9.21875
449,1697623925,0.21289062,0.036132812,-0.7128906,-112.46875,-22.3125,5.0625
450,1697623965,-1.9833984,-0.39746094,-1.1181641,-46.53125,294.09375,14.34375
451,1697624005,0.66308594,1.3994141,-0.49316406,-46.78125,105.3125,-34.875
452,1697624045,-1.9833984,1.0039062,-1.3857422,-99.75,117.71875,117.65625
453,1697624085,-1.9833984,-1.9902344,0.55371094,105.5625,265.65625,222.71875
454,1697624125,-1.9833984,0.12011719,-0.15722656,37.6875,133.53125,53.875
455,1697624165,-1.203125,0.020507812,0.8310547,-42.28125,97.9375,11.46875
456,1697624205,-0.63964844,0.21679688,0.9902344,11.875,38.5,35.375
457,1697624245,-0.5996094,-0.7607422,0.5292969,-76.3125,-79.1875,39.59375
458,1697624285,0.29296875,-0.7548828,0.14550781,20.65625,-82.71875,-14.84375
459,1697624325,-0.578125,0.28125,0.21777344,60.53125,-146.3125,-48.125
460,1697624365,-1.8886719,-0.34472656,-0.6738281,74.0625,-184.34375,-72.78125
461,1697624405,-1.9833984,1.4824219,-0.09082031,77.96875,-111.84375,-130.09375
462,1697624445,-1.7548828,0.94140625,-0.1796875,-64.0,-180.4375,-100.84375
463,1697624485,-1.6132812,-0.6074219,-0.0048828125,173.6875,-135.03125,-52.625
464,1697624525,-0.2841797,0.66015625,-0.39746094,198.625,-127.53125,-30.53125
465,1697624565,0.8173828,0.93652344,-0.42382812,86.6875,12.1875,-21.375
466,1697624605,0.62890625,0.064453125,-0.4638672,-67.40625,114.84375,54.25
467,1697624645,-0.640625,0.18847656,0.68066406,-103.25,220.96875,4.0
468,1697624685,-1.1972656,-0.28027344,0.95703125,-250.9375,12.78125,-38.09375
469,1697624725,0.2939453,0.08886719,-0.8251953,-72.0,-48.71875,-10.03125
470,1697624765,-1.9833984,-1.4150391,-1.515625,-205.0,252.71875,-57.5
471,1697624805,0.5185547,1.4140625,-0.42578125,23.84375,28.0,-7.28125
472,1697624845,-1.9833984,0.97558594,-1.4804688,-123.03125,208.71875,105.625
473,1697624885,-1.9833984,-1.9902344,0.7910156,119.90625,282.8125,224.46875
474,1697624925,-1.9833984,0.21191406,0.28515625,61.375,111.84375,37.875
475,1697624965,-1.0869141,-0.07519531,0.6904297,-40.1875,64.6875,16.90625
476,1697625005,-0.40820312,0.14257812,0.9316406,-7.53125,15.84375,35.5
477,1697625045,-0.25097656,-0.5683594,-0.047851562,-75.90625,-44.46875,11.21875
478,1697625085,-0.18457031,-0.18359375,0.38867188,56.25,-92.125,-26.875
479,1697625125,-0.3310547,0.55859375,0.4404297,63.125,-143.34375,-20.59375
480,1697625165,-1.9833984,-0.11035156,-0.8652344,-5.15625,-149.3125,-46.21875
481,1697625205,-1.9833984,1.1767578,-0.66015625,110.625,-15.28125,-188.75
482,1697625245,-1.9833984,1.3632812,0.044921875,64.71875,-298.84375,-57.25
483,1697625285,-0.88671875,-0.1796875,0.034179688,39.65625,-69.59375,-33.09375
484,1697625325,-0.7421875,0.0390625,-0.068359375,170.5625,-59.96875,-27.0
485,1697625365,0.60058594,0.9765625,-0.24511719,149.5625,-24.0,17.5
486,1697625405,0.6767578,0.3515625,-0.55859375,-56.90625,101.0,58.15625
487,1697625445,-0.734375,-0.28125,0.48632812,-65.8125,197.4375,33.25
488,1697625485,-1.1708984,-0.5800781,0.7783203,-220.71875,65.28125,-43.21875
489,1697625525,-0.080078125,0.18164062,-0.67089844,-104.9375,-43.1875,-31.1875
490,1697625565,-1.9833984,-0.29003906,-0.6220703,-126.875,127.65625,-5.5625
491,1697625605,0.6777344,1.0380859,-0.39941406,-7.40625,69.5,-20.34375
492,1697625645,-1.9833984,0.9560547,-1.6210938,-85.53125,101.15625,114.71875
493,1697625685,-1.9833984,-1.9902344,0.88183594,48.8125,330.125,165.625
494,1697625725,-1.8212891,0.3779297,0.1328125,83.78125,127.96875,37.59375
495,1697625765,-1.0634766,0.018554688,0.7109375,-41.15625,103.84375,9.15625
496,1697625805,-0.7265625,0.17871094,1.0380859,9.25,24.8125,48.375
497,1697625845,-0.4580078,-0.6435547,0.21289062,-88.90625,-79.75,29.15625
498,1697625885,0.0068359375,-0.50878906,0.15917969,41.40625,-105.0,-27.90625
499,1697625925,-0.4716797,0.4501953,0.32617188,50.8125,-135.21875,-41.875
500,1697625965,-1.9833984,-0.54296875,-0.82128906,48.3125,-182.21875,-63.96875
501,1697626005,-1.9833984,1.2900391,-0.057617188,-8.21875,-87.3125,-167.0625
502,1697626045,-1.71875,1.0742188,-0.10449219,-46.78125,-208.53125,-75.03125
503,1697626085,-1.4160156,-0.4169922,0.09277344,144.0,-105.96875,-45.65625
504,1697626125,-0.23339844,0.4765625,-0.2939453,188.5,-110.0,-23.5
505,1697626165,0.6904297,0.9824219,-0.3935547,96.40625,-12.59375,1.6875
506,1697626205,0.6171875,0.27246094,-0.38183594,-69.375,128.46875,32.53125
507,1697626245,-0.7138672,-0.10253906,0.6738281,-104.03125,205.34375,19.15625
508,1697626285,-1.2548828,-0.3857422,0.85058594,-286.71875,26.59375,-33.8125
509,1697626325,-0.39453125,0.56347656,-0.18554688,-73.8125,-29.8125,-4.46875
510,1697626365,-1.0625,-0.3330078,-0.2841797,-124.25,-42.09375,-53.65625
511,1697626405,-0.14160156,1.4394531,-0.43164062,-133.625,93.53125,-2.8125
512,1697626445,-1.9521484,0.3955078,-1.3916016,-33.21875,94.625,114.3125
513,1697626485,-1.7636719,-0.50097656,-0.10546875,-25.90625,210.96875,77.5625
514,1697626525,-1.8486328,0.051757812,0.15332031,83.96875,119.0,44.65625
515,1697626565,-0.8730469,-0.11816406,0.3798828,-58.3125,115.28125,8.46875
516,1697626605,-0.765625,0.123046875,1.2265625,-26.71875,-2.40625,68.78125
517,1697626645,-0.43847656,-1.0957031,0.18945312,-92.9375,-102.0,33.125
518,1697626685,-0.17089844,-0.6894531,0.22167969,56.0625,-120.25,-39.0625
519,1697626725,-0.5673828,0.47070312,0.06542969,46.125,-150.125,-54.53125
520,1697626765,-1.9833984,-0.47070312,-0.8876953,154.6875,-194.90625,-53.25
521,1697626805,-1.9833984,1.5058594,0.056640625,-48.625,-74.625,-188.5625
522,1697626845,-1.5146484,1.0283203,0.024414062,-10.71875,-200.9375,-112.3125
523,1697626885,-1.625,-0.66503906,-0.123046875,133.5,-103.46875,-47.0625
524,1697626925,-0.3154297,0.59277344,-0.2841797,247.21875,-127.03125,-25.28125
525,1697626965,0.7919922,1.0976562,-0.30566406,137.3125,-13.875,4.1875
526,1697627005,0.4609375,0.33496094,-0.38671875,-81.75,146.59375,20.6875
527,1697627045,-0.50878906,-0.020507812,0.31933594,-127.65625,176.0625,31.0625
528,1697627085,-1.3154297,-0.6347656,0.7871094,-180.09375,63.9375,8.21875
529,1697627125,0.022460938,0.032226562,-1.2324219,-155.71875,-95.71875,-11.125
530,1697627165,-1.9833984,-1.03125,1.3867188,366.5,217.03125,6.53125
531,1697627205,1.0322266,-0.3076172,0.33496094,-9.90625,50.15625,-86.75
532,1697627245,-1.9833984,1.9287109,-0.796875,-146.5625,97.25,91.53125
533,1697627285,-1.9833984,-1.6542969,0.58691406,-78.53125,167.625,62.0
534,1697627325,-1.8457031,-0.17871094,-0.09375,83.46875,92.4375,111.5
535,1697627365,-1.9121094,-0.5810547,1.1728516,84.9375,23.96875,45.875
536,1697627405,-0.75097656,-0.044921875,0.5390625,129.3125,-103.78125,32.03125
537,1697627445,-0.13574219,-0.14160156,-0.3017578,151.09375,-182.75,40.28125
538,1697627485,-1.9833984,0.8671875,-0.18652344,-32.625,-136.875,-99.5625
539,1697627525,-1.8085938,0.4873047,-0.515625,-124.71875,-123.5,-144.71875
540,1697627565,-1.6777344,-0.9902344,0.049804688,162.875,-115.1875,-41.46875
541,1697627605,-0.15039062,0.9003906,-0.50878906,245.21875,-150.0,-17.34375
542,1697627645,0.75390625,0.89746094,-0.22949219,96.21875,38.84375,4.1875
543,1697627685,0.27441406,0.20410156,-0.18066406,-46.71875,143.03125,32.875
544,1697627725,-0.6582031,0.0390625,0.43164062,-107.875,142.1875,2.84375
545,1697627765,-0.89160156,-0.5283203,0.85546875,-253.625,44.40625,-31.375
546,1697627805,0.109375,0.0234375,-0.5449219,-51.46875,-5.09375,10.375
547,1697627845,-1.3515625,-0.20898438,-0.6435547,-136.09375,152.625,-80.34375
548,1697627885,0.09472656,0.94140625,-0.6796875,-143.09375,113.375,-50.0
549,1697627925,-1.7626953,0.93359375,-1.4765625,10.09375,26.71875,129.4375
550,1697627965,-1.9833984,-0.87109375,-0.048828125,-22.84375,162.34375,74.09375
551,1697628005,-1.5849609,0.049804688,0.4326172,47.40625,101.90625,11.78125
552,1697628045,-0.9628906,-0.072265625,0.51171875,39.03125,71.03125,-13.5
553,1697628085,-0.6376953,-0.026367188,0.8232422,-30.96875,-6.5625,31.25
554,1697628125,-0.60546875,-0.51660156,-0.15722656,-95.0625,-71.875,-3.84375
555,1697628165,-0.140625,-0.17382812,0.5175781,102.6875,-104.875,-26.5
556,1697628205,-0.89746094,0.44140625,0.12597656,38.78125,-157.0,-34.75
557,1697628245,-1.9833984,0.016601562,-0.40820312,90.59375,-181.78125,-41.15625
558,1697628285,-1.9833984,1.3818359,-0.12011719,-60.75,-173.71875,-116.90625
559,1697628325,-1.6074219,0.6152344,-0.4296875,22.375,-207.0,-122.09375
560,1697628365,-1.3388672,-0.88671875,0.013671875,241.0,-125.15625,-35.0
561,1697628405,0.1875,0.9765625,-0.45410156,195.9375,-61.0,-20.59375
562,1697628445,0.82714844,0.9707031,-0.32226562,-2.59375,69.0,-2.875
563,1697628485,0.43554688,0.15234375,-0.35546875,-91.40625,110.875,64.25
564,1697628525,-1.3144531,-0.29003906,1.4560547,-169.59375,190.59375,-26.125
565,1697628565,-0.38671875,0.11035156,-0.40722656,-203.09375,-11.75,-27.125
566,1697628605,-1.9833984,0.37109375,-1.7988281,19.5,82.25,40.4375
567,1697628645,-0.22363281,0.3173828,-0.4482422,-124.53125,26.9375,28.125
568,1697628685,-1.7392578,1.1015625,-1.0878906,-240.625,276.65625,42.78125
569,1697628725,-1.9833984,-1.0322266,0.3466797,200.09375,158.59375,229.28125
570,1697628765,-1.9833984,-0.4501953,0.1640625,4.4375,156.09375,53.40625
571,1697628805,-1.1933594,-0.13476562,0.9199219,-7.40625,57.46875,6.03125
572,1697628845,-0.3046875,-0.048828125,0.67089844,14.9375,0.09375,28.71875
573,1697628885,-0.6220703,-0.39746094,0.036132812,-101.53125,-63.625,12.9375
574,1697628925,-0.08886719,-0.4794922,0.36621094,75.03125,-103.90625,-12.15625
575,1697628965,-0.5888672,0.4814453,0.2685547,73.53125,-159.03125,-19.375
576,1697629005,-1.9277344,-0.50683594,-0.7548828,74.1875,-190.53125,-37.5625
577,1697629045,-1.9833984,1.5517578,-0.34277344,20.40625,-129.34375,-91.03125
578,1697629085,-1.9833984,0.64941406,-0.51953125,6.0625,-181.40625,-88.9375
579,1697629125,-1.1445312,-0.80078125,-0.0107421875,271.03125,-138.15625,-41.28125
580,1697629165,-0.14941406,0.8984375,-0.32617188,213.15625,-99.875,-32.0
581,1697629205,0.56347656,1.0517578,-0.40625,70.71875,35.0,-12.78125
582,1697629245,0.68359375,0.1640625,-0.45410156,-85.65625,106.25,47.53125
583,1697629285,-0.9951172,0.12792969,1.5517578,-149.4375,251.3125,-19.65625
584,1697629325,-0.5029297,-0.111328125,-0.85546875,-253.875,-38.21875,-15.28125
585,1697629365,-1.9833984,-0.1796875,-2.0107422,86.6875,82.625,12.1875
586,1697629405,-0.043945312,0.3515625,0.109375,-150.65625,87.3125,40.03125
587,1697629445,-1.9833984,1.8535156,-0.9560547,-242.875,155.75,64.4375
588,1697629485,-1.9833984,-1.5488281,0.21386719,160.78125,120.40625,219.84375
589,1697629525,-1.9833984,-0.13574219,0.50390625,107.75,183.8125,89.21875
590,1697629565,-1.3515625,-0.07910156,0.6542969,23.46875,74.0,9.875
591,1697629605,-0.5595703,0.016601562,0.5605469,-41.46875,52.59375,20.375
592,1697629645,-0.625,-0.625,0.6035156,-56.71875,-48.5,13.59375
593,1697629685,0.5410156,-0.50097656,0.1640625,34.875,-72.0,4.75
594,1697629725,-0.46484375,0.37695312,0.5419922,84.5625,-132.96875,-10.8125
595,1697629765,-1.9082031,-0.43066406,-1.2353516,44.28125,-148.78125,-37.84375
596,1697629805,-1.9833984,1.2392578,-0.45117188,34.21875,-161.875,-62.5
597,1697629845,-1.9833984,1.1240234,-0.5332031,-43.71875,-247.8125,-88.28125
598,1697629885,-0.8027344,-0.56152344,-0.375,155.4375,-127.59375,-44.03125
599,1697629925,-0.31835938,0.6542969,-0.17773438,214.03125,-99.5625,-54.53125
600,1697629965,0.54785156,1.1396484,-0.68066406,99.03125,25.625,-17.96875
601,1697630005,0.8417969,0.20703125,-0.59375,-74.625,81.21875,44.1875
602,1697630045,-0.21386719,-0.099609375,0.4716797,-144.0625,199.1875,-1.78125
603,1697630085,-1.4990234,-0.34277344,1.2529297,-347.125,-29.03125,-43.90625
604,1697630125,-0.18652344,0.36621094,-1.0341797,-22.75,-68.125,-35.71875
605,1697630165,-1.2294922,-0.8925781,-1.1484375,-190.34375,44.21875,-66.65625
606,1697630205,-0.21289062,1.7978516,0.18261719,17.5,183.15625,-51.84375
607,1697630245,-1.7753906,1.0478516,-1.2167969,-151.40625,178.9375,112.21875
608,1697630285,-1.9833984,-1.9902344,1.2714844,122.03125,314.84375,177.46875
609,1697630325,-1.4638672,0.08203125,0.7998047,84.0,78.09375,22.875
610,1697630365,-0.35839844,-0.048828125,0.7939453,-31.21875,28.84375,-2.6875
611,1697630405,-0.2998047,-0.31152344,0.2734375,-67.28125,-45.125,22.6875
612,1697630445,0.043945312,-0.4404297,0.12011719,17.5625,-78.875,-6.46875
613,1697630485,-0.421875,0.13574219,0.5488281,45.0625,-118.8125,-19.84375
614,1697630525,-1.7695312,0.73339844,-0.08300781,-8.8125,-143.59375,-14.34375
615,1697630565,-1.9833984,0.6279297,-0.37402344,52.09375,-145.21875,-32.96875
616,1697630605,-1.9833984,0.18066406,-0.4482422,-24.6875,-133.21875,-144.125
617,1697630645,-0.80371094,0.29882812,0.10546875,64.1875,-175.6875,-76.125
618,1697630685,-0.7675781,-0.11425781,-0.14746094,169.78125,-57.75,-18.6875
619,1697630725,0.25390625,1.2421875,-0.5488281,117.71875,-22.5625,-4.59375
620,1697630765,0.6064453,0.5449219,-0.25,-47.5625,60.9375,24.28125
621,1697630805,0.21582031,-0.50683594,0.26367188,-35.3125,140.0625,40.875
622,1697630845,-1.1962891,-0.3359375,1.4511719,-235.1875,29.8125,-47.1875
623,1697630885,-0.62109375,0.3173828,-0.58984375,-91.78125,-82.71875,-9.15625
624,1697630925,-0.7011719,-0.4482422,-0.6640625,-64.65625,29.6875,-62.4375
625,1697630965,-0.8300781,1.5458984,-0.49023438,-79.125,180.21875,-34.125
626,1697631005,-1.6181641,0.85058594,-1.0507812,-40.625,85.84375,112.78125
627,1697631045,-1.7041016,-0.9902344,-0.24804688,-51.59375,196.1875,108.3125
628,1697631085,-1.8388672,-0.23242188,0.33691406,74.84375,120.40625,52.125
629,1697631125,-0.76171875,-0.16796875,0.7236328,-39.21875,69.125,5.71875
630,1697631165,-0.36816406,-0.07324219,0.9189453,12.46875,-8.875,44.46875
631,1697631205,-0.33398438,-0.4169922,0.018554688,-83.21875,-77.59375,12.3125
632,1697631245,-0.15722656,-0.2783203,0.3046875,80.53125,-103.90625,-14.25
633,1697631285,-0.4794922,0.4169922,0.3046875,72.34375,-143.65625,-13.375
634,1697631325,-1.9833984,-0.9658203,-1.2773438,72.125,-146.9375,-63.78125
635,1697631365,-1.9833984,1.2871094,-0.041015625,-98.46875,-66.4375,-143.3125
636,1697631405,-1.6113281,0.92285156,-0.3095703,12.53125,-129.3125,-108.15625
637,1697631445,-1.2412109,-0.34375,-0.016601562,103.59375,-51.0625,-22.09375
638,1697631485,-0.671875,0.5234375,-0.32910156,216.8125,-69.46875,-42.5
639,1697631525,0.54296875,1.0634766,-0.25097656,125.625,-4.46875,6.625
640,1697631565,0.45214844,0.4013672,-0.171875,-48.96875,109.28125,38.5
641,1697631605,-1.0058594,-0.21289062,0.796875,-84.625,182.96875,13.46875
642,1697631645,-1.0273438,-0.5957031,1.078125,-246.78125,-1.625,-46.09375
643,1697631685,-0.17773438,0.2109375,-1.0771484,-57.90625,-74.65625,-41.59375
644,1697631725,-1.5058594,-0.73046875,0.41210938,-150.40625,78.53125,-107.1875
645,1697631765,-0.059570312,1.3857422,-0.7294922,-69.5625,106.84375,13.84375
646,1697631805,-1.640625,0.8203125,-1.0751953,-42.6875,57.59375,124.125
647,1697631845,-1.9833984,-1.90625,0.20507812,-27.625,238.9375,96.375
648,1697631885,-1.9414062,0.21972656,0.17871094,132.46875,132.90625,65.90625
649,1697631925,-1.1787109,-0.13378906,0.83203125,-0.15625,79.0,5.1875
650,1697631965,-0.43066406,0.119140625,0.7167969,2.15625,19.875,35.9375
651,1697632005,-0.5830078,-0.60839844,0.40234375,-80.0625,-73.5,30.9375
652,1697632045,-0.13574219,-0.70410156,0.328125,86.875,-100.375,-8.6875
653,1697632085,-0.44628906,0.64453125,0.40722656,90.84375,-156.40625,-23.03125
654,1697632125,-1.9833984,-0.23925781,-1.0996094,53.0,-145.53125,-72.21875
655,1697632165,-1.9833984,1.2988281,-0.44628906,-66.75,-125.5625,-100.53125
656,1697632205,-1.921875,0.85058594,-0.47753906,-67.09375,-113.6875,-111.09375
657,1697632245,-1.0390625,-0.62402344,-0.15234375,180.15625,-108.84375,-18.6875
658,1697632285,-0.3623047,0.6513672,-0.3466797,163.375,-64.65625,-23.9375
659,1697632325,0.49121094,1.0830078,-0.46875,53.3125,17.75,10.65625
660,1697632365,0.6845703,0.12402344,-0.48242188,-38.4375,108.6875,36.78125
661,1697632405,-1.4052734,-0.3203125,1.9892578,-139.8125,302.09375,12.8125
662,1697632445,-0.5341797,-0.34277344,-0.8984375,-72.0,-112.875,1.8125
663,1697632485,-0.9873047,0.16210938,0.072265625,185.03125,-0.9375,-23.5
664,1697632525,-0.734375,0.16015625,0.7685547,-277.0625,25.71875,-100.1875
665,1697632565,-0.8203125,1.5976562,-0.6904297,144.25,-56.90625,149.28125
666,1697632605,-1.9833984,-1.0957031,-0.7363281,73.53125,136.15625,55.40625
667,1697632645,-1.7451172,0.059570312,0.43945312,12.53125,178.6875,2.0625
668,1697632685,-1.0878906,-0.15917969,0.66503906,-25.125,82.3125,-38.15625
669,1697632725,-1.1074219,-0.15527344,0.5410156,-94.75,18.90625,78.90625
670,1697632765,-0.6953125,-0.43066406,0.6533203,-116.25,-38.0625,58.8125
671,1697632805,0.037109375,-0.97265625,0.09277344,-10.65625,-54.90625,6.15625
672,1697632845,-0.111328125,0.1640625,0.23828125,94.15625,-144.625,-39.6875
673,1697632885,-1.9833984,0.5673828,-0.08105469,57.28125,-174.78125,-32.3125
674,1697632925,-1.9833984,1.1113281,-0.26464844,-100.6875,-127.28125,-29.3125
675,1697632965,-1.9833984,-0.2763672,-0.21972656,88.21875,-134.5,-98.78125
676,1697633005,-1.2792969,-0.044921875,0.08984375,72.46875,-108.96875,-80.875
677,1697633045,-0.33789062,0.34570312,-0.040039062,162.875,-64.0,-36.75
678,1697633085,0.33203125,0.8300781,-0.234375,141.875,13.84375,-11.5
679,1697633125,0.24121094,0.484375,-0.32714844,-67.65625,67.125,24.8125
680,1697633165,-0.05078125,-0.14941406,0.12109375,-62.84375,129.96875,7.8125
681,1697633205,-1.3408203,-1.1083984,1.4746094,-218.84375,72.65625,-37.6875
682,1697633245,0.14550781,0.20605469,-0.90722656,-75.84375,-73.4375,-28.6875
683,1697633285,-1.9833984,-0.4921875,-1.0107422,-106.65625,144.1875,-5.4375
684,1697633325,0.0859375,1.0732422,-0.55859375,-37.09375,99.78125,-13.875
685,1697633365,-1.7539062,1.4052734,-1.3701172,59.21875,13.53125,146.53125
686,1697633405,-1.7695312,-0.87109375,0.19238281,-26.71875,204.1875,53.6875
687,1697633445,-1.6992188,0.009765625,-0.16601562,68.8125,122.28125,61.6875
688,1697633485,-1.3085938,-0.2109375,0.67578125,-33.59375,116.90625,10.1875
689,1697633525,-0.43359375,0.3359375,0.66503906,-36.78125,64.4375,26.15625
690,1697633565,-0.64746094,-0.63378906,0.45117188,-109.21875,-59.09375,45.40625
691,1697633605,-0.09375,-0.6230469,0.1015625,17.90625,-84.3125,-7.40625
692,1697633645,-0.30859375,0.25390625,0.29003906,61.4375,-143.09375,-24.0
693,1697633685,-1.9833984,0.17285156,-0.7910156,65.9375,-144.375,-66.25
694,1697633725,-1.9833984,1.3623047,0.11328125,50.1875,-151.40625,-98.28125
695,1697633765,-1.9833984,0.9472656,-0.81933594,-168.375,-195.03125,-69.59375
696,1697633805,-1.9111328,-0.5097656,0.09472656,128.625,-65.53125,-58.0
697,1697633845,-0.7246094,0.2841797,-0.19335938,188.9375,-131.4375,-53.0625
698,1697633885,0.7246094,0.8808594,-0.57421875,165.4375,-62.34375,1.5625
699,1697633925,0.7363281,0.5048828,-0.20410156,-29.375,92.9375,35.3125
700,1697633965,-0.059570312,-0.2685547,0.111328125,-66.625,180.9375,33.75
701,1697634005,-1.6806641,-0.7158203,1.3759766,-170.6875,42.9375,-36.09375
702,1697634045,-0.37304688,0.0146484375,-0.63964844,-79.875,-60.625,-6.53125
703,1697634085,-0.9580078,-0.17675781,-0.8144531,-3.625,51.0,-16.1875
704,1697634125,-0.265625,1.1689453,-0.5488281,-149.125,193.9375,-43.28125
705,1697634165,-1.6884766,0.7529297,-1.3681641,-6.5,-0.9375,127.25
706,1697634205,-1.9833984,-1.3740234,-0.17773438,78.46875,177.71875,105.9375
707,1697634245,-1.6337891,0.17578125,0.41210938,21.46875,173.75,11.46875
708,1697634285,-0.96777344,0.17871094,0.8203125,-5.09375,119.375,-23.09375
709,1697634325,-0.66308594,0.16503906,0.92578125,-25.25,24.8125,42.15625
710,1697634365,-0.5058594,-0.56640625,0.52441406,-107.875,-57.8125,28.625
711,1697634405,0.040039062,-0.7167969,-0.0234375,22.25,-72.15625,-9.84375
712,1697634445,-0.2890625,0.17089844,0.28320312,89.75,-142.96875,-14.90625
713,1697634485,-1.9833984,0.13476562,-0.9433594,67.71875,-147.3125,-29.875
714,1697634525,-1.9833984,1.3603516,-0.12011719,15.09375,-132.90625,-82.46875
715,1697634565,-1.9833984,0.80078125,-0.65527344,-144.1875,-160.59375,-90.65625
716,1697634605,-1.6123047,-0.38085938,-0.018554688,71.625,-67.03125,-62.03125
717,1697634645,-0.6875,0.17480469,-0.27929688,185.5625,-103.40625,-48.34375
718,1697634685,0.7089844,1.0830078,-0.41796875,131.875,-7.28125,7.125
719,1697634725,0.5761719,0.3935547,-0.29882812,-61.25,99.34375,41.78125
720,1697634765,-0.4951172,-0.064453125,0.3310547,-14.3125,156.71875,56.4375
721,1697634805,-1.4677734,-1.0976562,0.78515625,-230.0,46.96875,-50.78125
722,1697634845,-0.043945312,0.20019531,-0.85546875,-106.40625,-39.46875,-33.03125
723,1697634885,-1.1669922,0.2578125,-0.546875,-49.28125,92.625,-42.4375
724,1697634925,-0.31933594,1.0878906,-0.76171875,-131.5625,73.8125,9.375
725,1697634965,-1.9248047,0.7324219,-1.3183594,92.8125,5.34375,130.25
726,1697635005,-1.8085938,-0.6845703,-0.15234375,-11.375,137.25,50.03125
727,1697635045,-1.7080078,0.10644531,0.31445312,101.96875,109.34375,29.90625
728,1697635085,-1.0117188,0.032226562,0.8017578,-5.09375,94.59375,-7.09375
729,1697635125,-0.54785156,0.0859375,0.8144531,-39.75,14.125,37.53125
730,1697635165,-0.4296875,-0.59765625,0.25976562,-77.90625,-81.4375,15.0
731,1697635205,0.036132812,-0.5058594,0.2919922,72.84375,-80.53125,-20.03125
732,1697635245,-0.46191406,0.3564453,0.23144531,83.90625,-149.3125,-15.53125
733,1697635285,-1.9833984,-0.40039062,-0.9941406,107.8125,-147.71875,-47.4375
734,1697635325,-1.9833984,1.4335938,-0.034179688,-89.625,-122.34375,-108.09375
735,1697635365,-1.9482422,0.6191406,-0.3408203,-56.78125,-186.0625,-77.40625
736,1697635405,-1.5107422,-0.5019531,0.033203125,127.15625,-80.96875,-52.0625
737,1697635445,-0.61816406,0.4326172,-0.24902344,221.71875,-117.59375,-48.71875
738,1697635485,0.7158203,0.953125,-0.375,163.96875,-18.15625,4.375
739,1697635525,0.6777344,0.53027344,-0.20410156,-87.25,131.5625,21.15625
740,1697635565,-0.27539062,-0.052734375,0.3017578,-82.96875,175.75,31.25
741,1697635605,-1.4404297,-0.73339844,1.0380859,-173.125,57.53125,-37.625
742,1697635645,0.0107421875,-0.12792969,-0.9453125,-118.625,-28.65625,-16.875
743,1697635685,-1.9833984,-0.77734375,0.37597656,-107.5625,199.75,-17.71875
744,1697635725,1.0019531,1.1777344,-0.81640625,-43.71875,78.84375,-9.09375
745,1697635765,-1.9833984,1.1962891,-1.5654297,17.71875,42.34375,148.125
746,1697635805,-1.9833984,-1.9902344,0.68652344,34.9375,294.59375,135.84375
747,1697635845,-1.6181641,0.5878906,-0.053710938,85.40625,139.75,18.125
748,1697635885,-1.5195312,-0.5419922,0.71875,-19.875,121.375,13.84375
749,1697635925,-0.6376953,0.16699219,1.0693359,-34.03125,20.0625,38.75
750,1697635965,-0.40625,-0.8173828,0.58984375,-64.53125,-83.59375,38.4375
751,1697636005,0.18945312,-0.6748047,-0.16015625,6.125,-84.5625,-13.6875
752,1697636045,-0.3173828,0.3466797,0.30371094,99.09375,-139.375,-32.1875
753,1697636085,-1.9833984,0.064453125,-0.89453125,45.0625,-167.75,-51.40625
754,1697636125,-1.9833984,1.2763672,0.047851562,0.59375,-125.15625,-79.78125
755,1697636165,-1.9833984,0.8222656,-0.69433594,-105.9375,-211.21875,-36.34375
756,1697636205,-1.5283203,-0.33203125,0.13867188,79.375,-50.125,-81.4375
757,1697636245,-0.63378906,0.2109375,-0.13378906,208.40625,-127.28125,-42.1875
758,1697636285,0.7324219,1.1279297,-0.6152344,164.46875,-37.0625,-15.40625
759,1697636325,0.6796875,0.4794922,-0.3408203,-46.53125,105.375,32.15625
