,timestamp,accel_x,accel_y,accel_z,gyro_x,gyro_y,gyro_z
0,1697605965,-1.1416016,0.375,-0.48535156,-49.21875,39.59375,110.8125
1,1697606005,-0.9736328,-0.083984375,-0.103515625,-235.6875,-31.4375,99.53125
2,1697606045,-0.5800781,-0.17480469,-0.14355469,-168.53125,-27.90625,58.625
3,1697606085,-0.7109375,-0.1953125,-0.22167969,-64.09375,-3.0,-7.65625
4,1697606125,-0.9638672,0.66308594,-0.0703125,-71.71875,46.0,-29.1875
5,1697606165,-1.3476562,1.1201172,0.2421875,-52.75,51.0,24.71875
6,1697606205,-0.9609375,0.39941406,0.18847656,-32.4375,-216.6875,23.4375
7,1697606245,-1.6464844,1.0224609,-0.55078125,107.28125,-88.34375,-3.96875
8,1697606285,-0.75097656,0.16796875,0.068359375,313.40625,32.21875,-10.5625
9,1697606325,-1.2675781,-0.22363281,0.041992188,349.65625,123.8125,-99.8125
10,1697606365,-1.5869141,0.032226562,-0.12890625,343.4375,-23.75,-124.15625
11,1697606405,-2.0,0.0068359375,-0.17578125,130.0,281.34375,-111.71875
12,1697606445,-0.97753906,0.19824219,0.25097656,-77.96875,186.03125,-63.3125
13,1697606485,-0.60058594,0.2705078,0.6455078,15.0625,169.96875,-61.125
14,1697606525,-0.265625,0.020507812,0.18261719,8.46875,74.03125,48.15625
15,1697606565,-0.15722656,-0.27441406,0.47265625,47.96875,37.59375,5.65625
16,1697606605,-0.24414062,0.16210938,0.38476562,17.0,-45.84375,27.375
17,1697606645,-0.6796875,-0.24902344,-0.29101562,17.625,-124.40625,-10.6875
18,1697606685,-2.0,-0.31933594,-1.4707031,158.90625,8.71875,-1.40625
19,1697606725,-1.0908203,0.022460938,-1.1328125,25.375,-11.6875,38.3125
20,1697606765,-2.0,-0.01953125,-0.515625,-30.40625,-25.34375,-41.28125
21,1697606805,-0.17871094,-0.1953125,1.4824219,-8.8125,181.9375,-23.40625
22,1697606845,0.41992188,-1.0341797,0.0068359375,-302.875,35.25,-70.03125
23,1697606885,-1.1220703,-0.7470703,0.39648438,-426.40625,-180.8125,-143.875
24,1697606925,-1.1318359,-0.46679688,0.72753906,-209.3125,-95.09375,-192.9375
25,1697606965,-2.0,2.0,0.72558594,482.96875,-116.28125,207.375
26,1697607005,-0.4482422,0.7939453,-1.3105469,-221.15625,-313.25,122.25
27,1697607045,-1.0527344,-0.14550781,-0.9482422,-175.625,-50.96875,172.21875
28,1697607085,-1.1054688,-0.24609375,-0.24316406,-230.0625,42.90625,70.25
29,1697607125,-0.6035156,-0.15917969,-0.06347656,-115.0,44.0625,-6.84375
30,1697607165,-0.9013672,0.17578125,0.038085938,14.75,20.96875,-52.75
31,1697607205,-1.1386719,1.1162109,0.22558594,-101.09375,30.4375,26.90625
32,1697607245,-1.0664062,0.3310547,0.22070312,9.75,-190.3125,13.96875
33,1697607285,-1.0585938,0.49609375,-0.49609375,69.4375,-90.59375,-5.25
34,1697607325,-1.4619141,0.51660156,0.030273438,249.0,9.125,-33.28125
35,1697607365,-1.0605469,-0.28222656,-0.13769531,367.40625,121.25,-26.03125
36,1697607405,-1.625,-0.11035156,-0.34375,117.59375,-14.78125,-118.78125
37,1697607445,-1.8066406,-0.22363281,0.1328125,28.0625,252.90625,-145.21875
38,1697607485,-1.1445312,-0.23632812,0.23925781,-256.84375,214.46875,-73.1875
39,1697607525,-1.3027344,0.54003906,0.6298828,53.75,186.5625,-17.46875
40,1697607565,-0.3232422,0.041992188,0.5449219,2.25,70.46875,84.46875
41,1697607605,-0.13085938,-0.17871094,0.4638672,117.46875,32.09375,15.96875
42,1697607645,-0.16601562,-0.35351562,0.22363281,68.84375,-24.78125,5.59375
43,1697607685,-0.46679688,-0.34179688,-0.11328125,6.15625,-64.53125,-9.65625
44,1697607725,-1.9306641,0.20605469,-1.4189453,170.875,-22.84375,-37.5
45,1697607765,-1.0302734,0.31640625,-0.9501953,-6.1875,6.40625,22.125
46,1697607805,-0.8564453,0.22753906,-0.52441406,39.09375,-0.8125,24.875
47,1697607845,-1.3925781,0.5498047,-0.4111328,43.5625,-56.28125,6.6875
48,1697607885,-1.7177734,-1.3623047,0.4580078,-192.09375,-11.375,-34.8125
49,1697607925,-0.16113281,-0.1484375,0.34472656,-6.0625,108.9375,-40.90625
50,1697607965,-1.1279297,-0.4580078,0.5019531,-273.875,-47.5,-121.71875
51,1697608005,-1.4541016,0.30859375,0.8701172,49.90625,-111.71875,-95.59375
52,1697608045,-1.8398438,2.0,0.103515625,96.90625,-52.8125,173.8125
53,1697608085,-0.5751953,0.28710938,-0.7207031,-174.6875,-253.3125,76.53125
54,1697608125,-0.75,-0.030273438,-0.6484375,-231.875,-210.9375,157.03125
55,1697608165,-0.95996094,-0.26464844,-0.35546875,-211.3125,-53.1875,92.4375
56,1697608205,-0.6816406,-0.33789062,-0.24511719,-92.0,67.125,-15.21875
57,1697608245,-0.9169922,0.01953125,-0.08300781,-25.71875,20.5,-54.28125
58,1697608285,-1.4384766,1.3847656,-0.10839844,15.5625,156.46875,14.8125
59,1697608325,-1.2060547,0.67578125,0.3251953,-166.53125,-56.84375,38.6875
60,1697608365,-1.3515625,0.80566406,0.03515625,95.6875,-166.09375,31.78125
61,1697608405,-1.0537109,0.2529297,-0.045898438,251.6875,34.15625,59.6875
62,1697608445,-1.1494141,-0.60058594,-0.6484375,399.40625,-153.09375,-67.09375
63,1697608485,-1.8671875,0.078125,-0.4482422,274.71875,69.0625,-153.34375
64,1697608525,-2.0,-0.2763672,-0.08984375,-73.875,290.6875,-166.53125
65,1697608565,-1.140625,0.1796875,0.4482422,-290.71875,201.8125,-73.875
66,1697608605,-0.6269531,0.6201172,0.064453125,31.40625,162.40625,15.625
67,1697608645,-0.09375,-0.083984375,0.19921875,12.625,85.625,43.625
68,1697608685,-0.08105469,-0.09863281,0.47558594,59.5,64.75,-7.03125
69,1697608725,-0.12011719,-0.18457031,0.37304688,13.34375,-8.875,8.46875
70,1697608765,-0.4169922,-0.19335938,0.25390625,-55.0625,-84.0625,-3.96875
71,1697608805,-2.0,0.39453125,-2.0,170.9375,-128.875,-19.59375
72,1697608845,-1.2978516,0.13378906,-1.265625,55.21875,-9.84375,38.1875
73,1697608885,-0.8046875,0.056640625,-0.4111328,-1.40625,10.3125,28.5625
74,1697608925,-1.5332031,0.2548828,-0.51171875,66.625,-27.84375,-18.09375
75,1697608965,-1.7099609,-1.0810547,0.5136719,-208.8125,43.0,-69.96875
76,1697609005,-0.47070312,-0.2421875,0.5185547,-87.1875,28.25,-43.53125
77,1697609045,-0.6904297,-0.28320312,0.5673828,-230.3125,-72.46875,-95.96875
78,1697609085,-1.6142578,0.44628906,1.0048828,35.3125,-167.3125,-51.71875
79,1697609125,-1.5732422,1.9960938,-0.1640625,-48.28125,5.1875,75.84375
80,1697609165,-0.53515625,0.61816406,-0.35546875,-47.75,-423.96875,145.6875
81,1697609205,-1.1904297,0.038085938,-0.34277344,-54.46875,-50.6875,120.78125
82,1697609245,-0.8125,-0.24804688,-0.09667969,-148.03125,-79.53125,89.34375
83,1697609285,-0.75390625,-0.30371094,-0.12695312,-103.09375,4.5,-20.71875
84,1697609325,-0.9013672,0.25683594,0.10546875,-72.9375,-2.03125,-46.71875
85,1697609365,-1.3173828,1.4091797,0.061523438,29.28125,150.875,11.15625
86,1697609405,-1.3837891,0.6123047,0.15722656,-43.46875,-104.9375,48.875
87,1697609445,-0.765625,0.22558594,-0.26757812,54.96875,-146.4375,-0.5625
88,1697609485,-1.5205078,0.5722656,-0.044921875,307.1875,26.40625,-50.84375
89,1697609525,-1.2265625,0.3232422,0.17089844,384.6875,146.09375,-47.6875
90,1697609565,-1.7148438,0.2919922,0.08105469,284.09375,63.71875,-96.28125
91,1697609605,-1.6386719,0.34570312,0.05859375,175.40625,185.96875,-85.53125
92,1697609645,-1.3974609,0.6611328,-0.12890625,60.65625,196.03125,-68.375
93,1697609685,-0.55859375,-0.07714844,0.09765625,-108.78125,203.59375,-44.3125
94,1697609725,-0.40527344,0.24316406,0.7753906,36.0625,104.21875,-95.34375
95,1697609765,-0.3798828,0.057617188,0.36328125,45.625,27.28125,9.25
96,1697609805,-0.12988281,-0.072265625,0.3828125,19.21875,3.53125,2.71875
97,1697609845,-0.47558594,-0.1328125,0.15136719,-50.0625,-103.46875,2.125
98,1697609885,-2.0,0.23632812,-2.0,100.875,-146.6875,-2.875
99,1697609925,-1.1074219,0.037109375,-1.1679688,33.4375,12.1875,38.3125
100,1697609965,-0.91503906,0.31347656,-0.6826172,-78.03125,1.9375,36.4375
101,1697610005,-1.8125,0.2607422,-0.59277344,40.8125,-23.03125,-62.03125
102,1697610045,-0.47558594,-0.6484375,0.68652344,-81.1875,238.21875,-31.3125
103,1697610085,-0.6660156,-0.42773438,0.359375,-263.6875,-60.9375,-68.5
104,1697610125,-0.8935547,-0.44433594,0.44921875,-380.09375,-134.21875,-144.5
105,1697610165,-1.8349609,-0.14160156,1.9179688,-99.125,-166.28125,-133.75
106,1697610205,-1.4970703,2.0,-2.0,140.5625,-118.96875,80.90625
107,1697610245,-1.9648438,1.0410156,-1.0957031,110.40625,-92.1875,123.21875
108,1697610285,-0.6513672,-0.017578125,0.047851562,-111.59375,-9.0625,76.65625
109,1697610325,-0.7783203,-0.30566406,0.068359375,-16.75,-32.0,13.71875
110,1697610365,-0.8125,0.0078125,-0.17089844,-72.09375,-15.03125,-20.46875
111,1697610405,-0.9765625,1.0488281,0.07128906,-48.96875,36.90625,0.0
112,1697610445,-1.3085938,0.58691406,0.3046875,4.0625,21.34375,11.40625
113,1697610485,-1.0751953,0.36328125,-0.10253906,-10.40625,-200.8125,42.65625
114,1697610525,-1.3330078,0.5751953,-0.3310547,176.6875,-55.0625,-56.21875
115,1697610565,-1.2988281,0.6923828,-0.048828125,350.75,19.15625,-12.28125
116,1697610605,-1.2988281,-0.20605469,0.24902344,251.875,189.375,-87.84375
117,1697610645,-1.8017578,0.46972656,-0.12402344,238.6875,130.84375,-145.875
118,1697610685,-1.5869141,0.41015625,0.12792969,83.40625,236.6875,-78.4375
119,1697610725,-1.0253906,0.22753906,-0.34375,-45.125,205.125,-69.59375
120,1697610765,-0.5878906,-0.20507812,0.5419922,-74.78125,187.90625,-69.03125
121,1697610805,-0.5761719,0.9345703,-0.2685547,4.4375,33.5625,-37.1875
122,1697610845,-0.22558594,-0.18554688,0.47070312,-30.96875,13.65625,-6.1875
123,1697610885,-0.2529297,-0.07421875,0.56933594,-14.0,-53.40625,-6.78125
124,1697610925,-0.72265625,0.001953125,-0.032226562,4.625,-133.75,-18.625
125,1697610965,-2.0,-0.2685547,-2.0,111.96875,-3.25,-28.9375
126,1697611005,-0.84472656,0.11621094,-0.9980469,-5.21875,-19.375,58.15625
127,1697611045,-1.9775391,-0.328125,-0.57128906,-41.53125,-8.75,5.21875
128,1697611085,-1.0478516,-0.04296875,0.65527344,-42.1875,88.4375,-48.96875
129,1697611125,0.06738281,-0.35546875,0.23632812,-138.4375,100.09375,0.15625
130,1697611165,-0.9013672,-0.40234375,0.1875,-347.65625,-124.21875,-111.03125
131,1697611205,-1.1171875,-0.42871094,0.6826172,-196.1875,-117.25,-147.0625
132,1697611245,-2.0,2.0,0.73046875,416.5,-110.25,83.0625
133,1697611285,-0.5957031,0.68066406,-0.043945312,-136.0625,-144.90625,71.40625
134,1697611325,-1.2158203,-0.5048828,-1.7597656,-187.5,-355.65625,159.09375
135,1697611365,-0.9628906,-0.22460938,-0.5029297,-244.71875,-36.46875,88.96875
136,1697611405,-0.6669922,-0.16699219,-0.17675781,-154.5,118.875,-7.78125
137,1697611445,-0.9375,0.06542969,0.08886719,-55.8125,7.0625,-59.71875
138,1697611485,-1.3027344,1.4208984,0.31347656,125.90625,102.875,-10.5625
139,1697611525,-1.1337891,0.5566406,0.21386719,-71.25,23.65625,39.53125
140,1697611565,-0.96191406,0.17773438,-0.20800781,-37.625,-198.5,23.4375
141,1697611605,-1.3369141,0.4091797,0.095703125,240.84375,-140.40625,-9.28125
142,1697611645,-1.1787109,0.009765625,-0.4423828,526.28125,50.9375,-67.03125
143,1697611685,-1.5810547,-0.09375,-0.28222656,247.96875,62.4375,-119.78125
144,1697611725,-1.6660156,0.3076172,0.05859375,50.34375,225.9375,-128.5625
145,1697611765,-1.1337891,-0.390625,0.17871094,-217.1875,188.03125,-86.0
146,1697611805,-1.1640625,0.5830078,0.43066406,-7.03125,159.40625,-52.3125
147,1697611845,-0.33789062,0.060546875,0.17382812,-64.59375,119.125,45.625
148,1697611885,-0.12890625,-0.13085938,0.5029297,28.625,53.28125,-1.84375
149,1697611925,-0.42578125,0.10058594,0.40527344,101.5625,-19.5,-0.8125
150,1697611965,-0.3330078,-0.32910156,0.2734375,-18.15625,-94.5,-2.75
151,1697612005,-1.7890625,0.81347656,-2.0,150.1875,-155.78125,-6.78125
152,1697612045,-1.2265625,0.18066406,-1.5185547,167.96875,35.625,52.78125
153,1697612085,-0.796875,0.17285156,-0.48046875,-102.90625,-19.84375,33.5625
154,1697612125,-1.8681641,0.21191406,-0.43164062,-1.34375,-15.8125,-52.09375
155,1697612165,-0.46191406,-0.7861328,0.7001953,-98.78125,154.84375,-30.78125
156,1697612205,-0.66308594,-0.37695312,0.2607422,-199.46875,-63.8125,-72.21875
157,1697612245,-0.9238281,-0.4658203,0.21972656,-378.3125,-47.4375,-134.71875
158,1697612285,-2.0,1.109375,1.2939453,347.46875,-30.03125,-83.75
159,1697612325,-0.28027344,0.6816406,-0.001953125,8.21875,-160.46875,73.28125
160,1697612365,-1.359375,1.1796875,0.087890625,-186.1875,-203.3125,114.125
161,1697612405,-1.5058594,-0.38183594,-1.4345703,-72.34375,-104.75,110.59375
162,1697612445,-0.7158203,-0.13378906,-0.20019531,-185.8125,68.71875,19.6875
163,1697612485,-0.7392578,0.064453125,-0.09667969,-76.0625,19.15625,-38.28125
164,1697612525,-1.0859375,0.50097656,0.13476562,21.65625,29.53125,-49.5
165,1697612565,-1.0703125,0.81347656,0.12988281,22.5625,109.3125,13.65625
166,1697612605,-1.2109375,0.3857422,0.020507812,-74.71875,-98.46875,43.5625
167,1697612645,-1.2958984,0.4970703,-0.06738281,4.0,-107.5625,18.96875
168,1697612685,-1.2646484,0.4013672,0.103515625,301.25,-2.28125,-4.40625
169,1697612725,-1.3007812,-0.55078125,-0.30078125,455.5,0.03125,-69.0
170,1697612765,-1.7216797,-0.11328125,-0.22265625,254.6875,131.15625,-137.21875
171,1697612805,-1.5224609,0.3623047,0.059570312,-66.0625,193.78125,-73.875
172,1697612845,-1.1416016,0.24804688,0.14648438,-65.625,189.125,-71.0
173,1697612885,-1.1962891,0.3203125,0.57128906,48.625,202.8125,-63.90625
174,1697612925,-0.39746094,0.0087890625,0.10449219,-26.03125,97.03125,40.9375
175,1697612965,-0.15429688,-0.2939453,0.4580078,-34.25,23.78125,5.0
176,1697613005,-0.19140625,-0.025390625,0.5751953,39.0,-58.0,-10.875
177,1697613045,-0.7138672,0.0107421875,0.01171875,-20.78125,-106.59375,-13.8125
178,1697613085,-2.0,0.16015625,-2.0,256.875,-95.71875,-45.4375
179,1697613125,-0.8720703,0.060546875,-1.1367188,5.53125,-17.96875,62.65625
180,1697613165,-1.6025391,-0.16699219,-0.44726562,-93.53125,-7.8125,35.875
181,1697613205,-1.546875,0.62597656,-0.6777344,28.78125,53.09375,-56.28125
182,1697613245,0.22167969,-0.8125,0.7158203,-98.96875,118.40625,-35.96875
183,1697613285,-1.0498047,-0.40039062,0.51464844,-272.0625,-134.59375,-74.34375
184,1697613325,-0.99316406,-0.453125,0.9453125,-207.34375,-182.5,-98.03125
185,1697613365,-2.0,1.5048828,0.8173828,150.25,-113.84375,-33.71875
186,1697613405,-0.92871094,0.7607422,-0.890625,-465.40625,-200.8125,170.21875
187,1697613445,-1.1083984,0.65527344,-0.3701172,-22.53125,-127.40625,153.375
188,1697613485,-0.9609375,-0.11425781,-0.1015625,-124.21875,-17.59375,114.1875
189,1697613525,-0.80078125,-0.6845703,-0.064453125,-78.125,-27.59375,-14.53125
190,1697613565,-0.7578125,0.06738281,-0.1015625,-37.375,0.71875,-45.90625
191,1697613605,-1.1113281,0.7832031,0.123046875,2.3125,31.65625,-28.40625
192,1697613645,-1.1689453,0.98828125,0.15820312,69.9375,127.5,18.0625
193,1697613685,-1.1806641,0.3095703,-0.099609375,-36.21875,-76.90625,48.15625
194,1697613725,-1.3222656,0.70214844,-0.25,126.21875,-140.9375,-6.71875
195,1697613765,-1.2519531,0.53222656,-0.0546875,369.0,-13.5625,-1.125
196,1697613805,-1.2890625,-0.59277344,0.16894531,306.8125,71.09375,-88.625
197,1697613845,-1.8837891,0.62597656,-0.12792969,240.59375,177.78125,-111.21875
198,1697613885,-1.1728516,0.18847656,0.25683594,30.875,196.875,-54.6875
199,1697613925,-1.0644531,0.34960938,-0.056640625,-29.0625,205.625,-37.78125
200,1697613965,-0.9355469,0.65722656,-0.052734375,88.90625,166.5,-63.90625
201,1697614005,-0.39453125,0.034179688,0.31640625,85.5,85.25,-12.03125
202,1697614045,-0.41308594,-0.22949219,0.31152344,51.1875,10.84375,-1.84375
203,1697614085,-0.23730469,-0.125,0.27734375,-45.25,-12.71875,5.0625
204,1697614125,-0.5488281,-0.19628906,-0.034179688,-145.40625,-104.5,-2.03125
205,1697614165,-2.0,0.29101562,-1.7363281,49.46875,-111.46875,-29.25
206,1697614205,-1.1396484,0.2841797,-1.25,103.125,-28.9375,52.15625
207,1697614245,-0.61816406,0.07324219,-0.48632812,-54.34375,24.71875,27.625
208,1697614285,-1.6425781,0.14453125,0.5234375,35.6875,-7.15625,-85.90625
209,1697614325,-0.20605469,-0.26367188,-0.01171875,27.21875,23.71875,10.0625
210,1697614365,-0.9121094,-0.375,0.69433594,-300.75,-118.96875,-14.125
211,1697614405,-0.7158203,-0.15527344,1.0410156,-172.3125,-203.03125,-36.09375
212,1697614445,-1.9970703,1.3701172,0.3935547,-363.65625,-157.71875,1.625
213,1697614485,-0.9609375,1.2998047,-0.3828125,-221.375,-19.0,72.96875
214,1697614525,-0.72265625,0.24609375,0.19433594,63.53125,-202.53125,59.8125
215,1697614565,-0.7373047,-0.25195312,0.038085938,-6.0,-103.78125,40.21875
216,1697614605,-0.85253906,-0.3642578,-0.087890625,-41.75,-97.65625,-3.5625
217,1697614645,-0.96484375,0.24804688,-0.005859375,-60.3125,-32.84375,-27.0625
218,1697614685,-1.1269531,0.9716797,-0.033203125,-88.625,12.3125,7.125
219,1697614725,-1.2353516,0.4658203,0.08984375,-28.34375,-17.34375,36.0
220,1697614765,-1.0849609,0.2763672,0.20117188,-50.3125,-38.46875,50.8125
221,1697614805,-1.3681641,0.77246094,0.41015625,104.53125,13.40625,-14.65625
222,1697614845,-1.0419922,0.3515625,-0.26464844,297.28125,-26.03125,-0.9375
223,1697614885,-1.4560547,-0.09472656,0.43066406,350.5,202.9375,-107.6875
224,1697614925,-1.7128906,0.24902344,0.2109375,152.9375,170.6875,-80.875
225,1697614965,-1.4589844,0.6533203,-0.0078125,144.53125,182.65625,-47.5625
226,1697615005,-0.8857422,0.10449219,0.28515625,-66.84375,206.34375,-29.4375
227,1697615045,-0.70410156,-0.033203125,0.3173828,-0.4375,151.96875,-43.96875
228,1697615085,-0.3154297,0.21386719,0.24804688,69.75,77.0625,-33.875
229,1697615125,-0.3798828,-0.083984375,0.41308594,115.84375,39.21875,-28.28125
230,1697615165,-0.38671875,0.046875,0.29003906,53.875,-45.375,2.65625
231,1697615205,-0.5644531,-0.041992188,-0.17773438,-101.21875,-92.46875,17.5
232,1697615245,-2.0,-0.14648438,-1.484375,71.40625,-107.3125,7.25
233,1697615285,-1.046875,0.17089844,-1.2578125,83.46875,15.3125,18.84375
234,1697615325,-1.203125,-0.14257812,-0.4580078,-16.5625,25.125,16.15625
235,1697615365,-1.5244141,0.8300781,-0.0078125,104.90625,9.25,-59.34375
236,1697615405,-0.09277344,-0.8359375,0.4736328,8.59375,97.65625,-8.5625
237,1697615445,-1.203125,-0.13183594,0.8144531,-229.5,-184.40625,-56.84375
238,1697615485,-0.9189453,0.84765625,0.3515625,-319.84375,-266.0625,56.4375
239,1697615525,-1.6708984,0.5654297,-0.087890625,-437.5,-113.71875,-2.59375
240,1697615565,-0.86621094,0.89941406,0.091796875,-95.59375,-23.8125,30.75
241,1697615605,-0.79296875,0.38964844,0.095703125,29.09375,-189.03125,75.0
242,1697615645,-0.8125,-0.20996094,0.056640625,-54.53125,-122.09375,51.25
243,1697615685,-0.75097656,-0.119140625,-0.12695312,-83.03125,-96.6875,20.84375
244,1697615725,-0.9902344,-0.03125,-0.00390625,-105.53125,24.59375,-32.90625
245,1697615765,-1.1630859,0.9404297,0.061523438,8.65625,-21.5,-12.65625
246,1697615805,-1.2587891,0.7285156,0.099609375,-10.4375,-34.5,31.25
247,1697615845,-1.0996094,0.20214844,0.08203125,-55.6875,-60.0,49.4375
248,1697615885,-1.2734375,0.59375,0.046875,121.4375,5.90625,-24.375
249,1697615925,-1.0644531,0.5908203,-0.2265625,330.4375,26.53125,-21.1875
250,1697615965,-1.3769531,-0.017578125,0.39160156,243.34375,191.34375,-82.03125
251,1697616005,-1.6240234,-0.28027344,0.22851562,160.75,128.59375,-119.21875
252,1697616045,-1.5488281,1.0683594,-0.19628906,109.46875,230.15625,-40.375
253,1697616085,-0.8466797,0.1484375,0.3798828,-72.84375,166.5625,-12.53125
254,1697616125,-0.57128906,0.2626953,0.5263672,-23.6875,131.21875,3.46875
255,1697616165,-0.58691406,0.22265625,0.23730469,194.0,51.8125,-10.4375
256,1697616205,-0.34570312,-0.16601562,0.45410156,107.59375,10.1875,20.1875
257,1697616245,-0.13964844,-0.1171875,0.2783203,49.59375,-64.46875,26.09375
258,1697616285,-0.8144531,-0.0048828125,-0.6640625,-58.5625,-120.6875,16.21875
259,1697616325,-2.0,-0.50878906,-1.3671875,76.09375,-40.0625,23.46875
260,1697616365,-1.0546875,0.21972656,-1.1611328,38.0,16.78125,27.8125
261,1697616405,-1.6445312,-0.39648438,-0.3798828,-27.96875,28.375,-22.90625
262,1697616445,-1.2158203,0.44726562,0.5527344,55.65625,21.53125,-87.0625
263,1697616485,0.19042969,-0.63964844,0.38671875,-41.21875,54.625,0.46875
264,1697616525,-1.3007812,-0.20605469,0.9550781,-275.53125,-185.3125,-79.0
265,1697616565,-1.0390625,0.82128906,0.48242188,-282.84375,-262.53125,31.46875
266,1697616605,-1.6308594,0.8359375,-0.06347656,-352.0,-83.28125,-12.84375
267,1697616645,-1.2998047,1.171875,-0.057617188,-31.5,32.5625,43.875
268,1697616685,-0.5800781,0.17089844,0.10546875,79.5625,-184.28125,92.03125
269,1697616725,-0.88964844,-0.12792969,-0.015625,-130.3125,-105.96875,80.84375
270,1697616765,-0.96191406,-0.2529297,-0.33496094,-81.3125,-115.0,29.78125
271,1697616805,-0.6845703,0.13183594,-0.18359375,-51.21875,16.71875,-34.375
272,1697616845,-1.1982422,0.87109375,0.11425781,5.78125,48.375,-15.9375
273,1697616885,-1.1289062,0.6894531,0.25195312,-9.53125,52.90625,27.75
274,1697616925,-1.2207031,0.38378906,0.17871094,-54.59375,-101.625,44.46875
275,1697616965,-1.3525391,0.7060547,0.2578125,74.21875,-8.125,44.46875
276,1697617005,-0.9033203,-0.00390625,-0.20996094,257.3125,-42.875,-28.28125
277,1697617045,-1.4423828,-0.16796875,0.13476562,442.5,129.0,-141.0625
278,1697617085,-1.4980469,0.0107421875,0.047851562,181.375,180.09375,-121.21875
279,1697617125,-1.4941406,0.05859375,-0.025390625,53.625,188.9375,-116.28125
280,1697617165,-0.91308594,0.05078125,0.14550781,-128.4375,174.71875,-50.1875
281,1697617205,-0.71777344,0.7763672,0.23242188,24.75,135.0625,-45.1875
282,1697617245,-0.7158203,-0.053710938,0.12890625,109.65625,84.34375,20.3125
283,1697617285,-0.30371094,-0.09082031,0.4375,65.59375,25.5625,23.65625
284,1697617325,-0.19726562,-0.16308594,0.421875,38.375,-49.09375,16.90625
285,1697617365,-0.68652344,-0.0009765625,-0.47265625,-23.28125,-88.9375,6.8125
286,1697617405,-2.0,-0.3203125,-1.3847656,26.78125,-49.03125,26.0
287,1697617445,-1.1337891,0.2705078,-1.1210938,51.75,4.5625,23.25
288,1697617485,-0.7109375,0.0,-0.515625,-1.96875,27.28125,18.78125
289,1697617525,-1.7685547,0.27148438,-0.48242188,85.96875,-28.6875,-67.875
290,1697617565,-0.54589844,-0.7060547,0.62890625,-21.25,104.34375,-19.1875
291,1697617605,-0.5527344,-0.359375,0.55371094,-194.71875,-73.5625,-18.9375
292,1697617645,-0.89160156,-0.15527344,0.7607422,-227.96875,-195.09375,-52.1875
293,1697617685,-1.5683594,0.8466797,0.65722656,-150.34375,-233.28125,6.6875
294,1697617725,-1.3144531,1.6757812,-0.32910156,-392.15625,-32.78125,14.625
295,1697617765,-0.7285156,0.5517578,-0.16308594,14.8125,-137.90625,128.65625
296,1697617805,-0.79589844,-0.11425781,0.13769531,43.9375,-100.84375,56.0
297,1697617845,-0.7988281,-0.171875,-0.26757812,-163.65625,-152.25,63.28125
298,1697617885,-0.95214844,0.053710938,-0.15722656,-107.5,16.34375,-2.21875
299,1697617925,-1.0253906,0.32128906,0.0048828125,-24.375,34.21875,-35.78125
300,1697617965,-1.1318359,0.54296875,0.10644531,5.59375,85.8125,2.84375
301,1697618005,-1.1376953,0.5214844,0.20800781,-10.34375,-100.25,27.9375
302,1697618045,-1.2607422,0.7529297,-0.051757812,93.3125,-75.34375,0.03125
303,1697618085,-1.1621094,0.51464844,-0.14941406,291.90625,-14.90625,-9.65625
304,1697618125,-1.2666016,-0.19140625,0.080078125,412.8125,123.9375,-74.0625
305,1697618165,-1.5361328,0.08105469,-0.12890625,171.25,133.78125,-119.65625
306,1697618205,-1.7089844,0.0625,-0.07910156,-27.46875,218.25,-119.78125
307,1697618245,-1.2773438,0.3076172,0.3251953,-173.0625,171.0625,-48.78125
308,1697618285,-0.89160156,0.14453125,-0.140625,-174.40625,188.65625,10.90625
309,1697618325,-0.76171875,1.0429688,-0.3408203,406.0625,7.125,44.96875
310,1697618365,-0.47753906,-0.12695312,0.21484375,141.21875,38.3125,15.65625
311,1697618405,-0.17285156,-0.25683594,0.48632812,47.40625,-26.1875,29.90625
312,1697618445,-0.52734375,-0.28710938,-0.09765625,6.9375,-89.5625,5.53125
313,1697618485,-1.6699219,0.13085938,-1.3535156,23.0,-70.4375,15.4375
314,1697618525,-1.3623047,0.28710938,-1.1816406,43.4375,7.625,18.84375
315,1697618565,-0.8251953,0.234375,-0.5517578,9.8125,15.3125,27.34375
316,1697618605,-2.0,0.14648438,-0.3173828,82.375,-35.21875,-52.125
317,1697618645,-0.50683594,-1.0009766,0.48828125,-37.3125,153.3125,9.125
318,1697618685,-0.5390625,-0.46289062,0.6386719,-222.4375,-58.0625,-47.75
319,1697618725,-0.8486328,-0.09472656,0.65625,-354.8125,-157.78125,-59.53125
320,1697618765,-1.4501953,0.7607422,1.1494141,-146.8125,-193.3125,-46.78125
321,1697618805,-1.5742188,2.0,-0.60546875,-74.59375,20.0,13.28125
322,1697618845,-0.7402344,0.4375,-0.39648438,111.1875,-197.59375,104.34375
323,1697618885,-0.77441406,0.29003906,-0.111328125,57.53125,-31.25,75.96875
324,1697618925,-0.8720703,-0.453125,-0.18945312,-163.09375,-52.3125,13.03125
325,1697618965,-0.8730469,-0.4501953,-0.2529297,-148.21875,-29.75,-19.3125
326,1697619005,-0.9501953,0.34179688,0.03515625,21.90625,48.03125,-55.625
327,1697619045,-1.2119141,1.0048828,0.049804688,52.59375,71.28125,2.71875
328,1697619085,-1.2304688,0.6201172,0.0,-21.9375,-46.65625,36.59375
329,1697619125,-1.1015625,0.6376953,-0.103515625,-22.34375,-84.4375,33.5625
330,1697619165,-1.2080078,0.3720703,-0.18945312,232.65625,-56.03125,31.65625
331,1697619205,-1.1640625,-0.33691406,0.18066406,379.125,44.46875,-47.3125
332,1697619245,-1.7939453,0.22363281,-0.1015625,300.8125,141.21875,-103.40625
333,1697619285,-1.7080078,0.37402344,-0.20605469,69.875,174.375,-45.96875
334,1697619325,-1.1328125,0.103515625,0.036132812,-37.78125,179.0,-49.28125
335,1697619365,-0.66015625,0.4267578,0.24609375,-20.28125,163.125,-45.0
336,1697619405,-0.3642578,0.16796875,0.46289062,57.46875,105.6875,-33.9375
337,1697619445,-0.5136719,0.17578125,0.25683594,181.9375,23.84375,-21.3125
338,1697619485,-0.14648438,-0.11035156,0.3203125,45.46875,-40.59375,31.125
339,1697619525,-0.3779297,-0.08300781,-0.056640625,-72.78125,-98.65625,42.59375
340,1697619565,-1.9169922,-0.09472656,-1.6777344,-8.875,-93.28125,18.1875
341,1697619605,-1.109375,0.25976562,-1.2958984,78.0,24.65625,23.3125
342,1697619645,-1.8251953,0.103515625,-0.6503906,-18.8125,8.21875,-1.84375
343,1697619685,-1.6689453,0.9794922,-0.5419922,147.4375,51.5,-46.53125
344,1697619725,0.28027344,-0.6982422,0.8808594,-166.28125,122.65625,-17.40625
345,1697619765,-1.5126953,-0.5234375,0.6142578,-366.71875,-209.3125,-36.6875
346,1697619805,-0.7871094,-0.018554688,0.75390625,-210.09375,-213.34375,-72.21875
347,1697619845,-1.6308594,0.96972656,0.390625,-367.5625,-210.34375,1.3125
348,1697619885,-1.3837891,1.4970703,-0.25683594,-192.15625,-25.78125,37.40625
349,1697619925,-0.51171875,0.50878906,0.0146484375,185.21875,-202.46875,68.15625
350,1697619965,-0.65722656,-0.19726562,-0.037109375,1.375,-121.53125,33.5625
351,1697620005,-0.83203125,-0.25585938,-0.0029296875,-171.9375,-47.875,20.625
352,1697620045,-0.9921875,0.024414062,-0.03125,-133.4375,-4.03125,-29.125
353,1697620085,-1.1757812,0.8857422,0.049804688,-38.03125,2.0,-6.3125
354,1697620125,-1.1630859,0.78222656,0.09667969,23.0,-15.875,38.3125
355,1697620165,-1.1748047,0.3095703,0.055664062,-54.6875,-32.3125,44.84375
356,1697620205,-1.5439453,0.7949219,0.2841797,128.21875,-2.875,25.1875
357,1697620245,-0.98339844,-0.10644531,-0.3251953,442.0625,53.03125,-23.9375
358,1697620285,-1.578125,-0.23535156,0.34472656,158.5,144.9375,-98.90625
359,1697620325,-1.6064453,0.05859375,0.4248047,168.375,201.28125,-88.8125
360,1697620365,-1.7773438,0.6640625,-0.33789062,26.71875,206.90625,-40.65625
361,1697620405,-0.7470703,0.28808594,0.49609375,-49.28125,161.59375,3.59375
362,1697620445,-0.3623047,0.15527344,0.421875,77.75,130.40625,-22.59375
363,1697620485,-0.58496094,-0.030273438,0.28222656,165.34375,42.90625,-38.90625
364,1697620525,-0.12109375,-0.16699219,0.44140625,52.71875,-22.78125,33.375
365,1697620565,-0.28710938,-0.109375,0.23339844,-43.96875,-92.0,33.3125
366,1697620605,-1.3125,0.2421875,-1.4775391,-54.75,-103.84375,9.125
367,1697620645,-1.7363281,0.08105469,-1.3427734,97.8125,-8.6875,-4.78125
368,1697620685,-0.67089844,0.14648438,-0.8652344,21.96875,21.09375,33.0625
369,1697620725,-1.5625,0.24707031,-0.3984375,52.46875,27.09375,-3.0
370,1697620765,-1.6054688,-0.34179688,0.71191406,-28.53125,-22.0,-118.1875
371,1697620805,-0.3798828,-0.2890625,0.5097656,-113.65625,12.1875,28.5
372,1697620845,-0.828125,-0.29003906,0.6855469,-305.5,-111.15625,-22.125
373,1697620885,-0.9423828,0.1640625,0.87402344,-163.09375,-189.40625,-25.46875
374,1697620925,-2.0,1.2695312,0.040039062,-323.3125,4.9375,-77.84375
375,1697620965,-1.5488281,1.2890625,-0.42089844,-235.625,-68.6875,112.15625
376,1697621005,-0.8388672,0.20898438,-0.05078125,264.8125,-163.15625,40.6875
377,1697621045,-0.69433594,-0.38671875,-0.015625,-97.375,-78.09375,29.90625
378,1697621085,-0.75097656,-0.16308594,-0.051757812,-192.71875,-79.1875,1.875
379,1697621125,-1.1308594,0.38378906,-0.06933594,-72.09375,25.8125,-23.09375
380,1697621165,-1.171875,0.86328125,0.07324219,-27.90625,6.5,16.09375
381,1697621205,-1.21875,0.56152344,0.047851562,-3.96875,-68.75,32.625
382,1697621245,-1.3505859,0.93847656,0.053710938,96.78125,-48.90625,8.28125
383,1697621285,-1.0732422,0.40820312,-0.044921875,278.71875,32.21875,24.9375
384,1697621325,-1.28125,-0.22167969,0.265625,234.3125,198.90625,-87.53125
385,1697621365,-1.9140625,-0.13964844,0.25195312,214.46875,126.28125,-129.53125
386,1697621405,-1.8408203,0.61328125,-0.059570312,74.09375,242.90625,-79.0625
387,1697621445,-1.1621094,0.2265625,0.29003906,-130.75,195.65625,-5.75
388,1697621485,-0.4716797,0.5605469,0.2734375,58.15625,193.21875,-8.375
389,1697621525,-0.5546875,-0.16992188,0.1484375,63.09375,62.90625,40.34375
390,1697621565,-0.16601562,-0.33496094,0.34277344,35.25,15.3125,28.25
391,1697621605,0.10449219,0.12109375,0.55371094,36.0625,-41.21875,-13.1875
392,1697621645,-0.765625,-0.19042969,-0.2529297,-76.0,-107.625,0.96875
393,1697621685,-2.0,-0.15039062,-1.6191406,162.8125,-58.25,-16.8125
394,1697621725,-0.9003906,0.3466797,-0.99316406,29.28125,-13.3125,52.15625
395,1697621765,-1.0712891,0.18945312,-0.703125,5.0625,38.5,23.4375
396,1697621805,-1.6171875,0.09277344,0.4658203,48.375,2.78125,-92.4375
397,1697621845,0.11621094,-0.8251953,0.26660156,53.5,49.84375,25.625
398,1697621885,-1.3183594,-0.4892578,0.91308594,-354.9375,-158.84375,-61.34375
399,1697621925,-0.8701172,0.10058594,0.86328125,-146.875,-204.90625,-26.8125
400,1697621965,-1.8847656,1.1240234,0.30371094,-227.0,-101.8125,-66.125
401,1697622005,-1.5927734,1.4775391,-0.47753906,-327.09375,-69.96875,148.84375
402,1697622045,-0.56933594,0.35253906,-0.13476562,213.125,-197.28125,69.5625
403,1697622085,-0.8154297,-0.4189453,-0.12402344,-135.6875,-89.1875,52.84375
404,1697622125,-0.7011719,-0.1796875,-0.12109375,-156.625,-74.125,5.34375
405,1697622165,-1.1083984,0.36523438,-0.0546875,-95.96875,37.53125,-34.5625
406,1697622205,-1.1015625,0.9111328,0.21289062,72.0625,16.28125,12.5
407,1697622245,-1.1513672,0.54003906,0.26953125,-47.9375,-6.4375,41.96875
408,1697622285,-1.1064453,0.25097656,0.013671875,3.15625,-162.75,18.125
409,1697622325,-1.5048828,0.6904297,-0.2421875,272.625,-11.625,-31.8125
410,1697622365,-1.3007812,0.15820312,-0.0126953125,495.90625,219.34375,-71.125
411,1697622405,-1.7431641,-0.14648438,0.16796875,75.4375,78.53125,-113.84375
412,1697622445,-1.6992188,0.36621094,0.3095703,136.15625,252.78125,-93.53125
413,1697622485,-1.2939453,0.22851562,-0.13574219,-104.75,190.78125,-26.125
414,1697622525,-0.61621094,0.4423828,0.18652344,-9.96875,204.6875,-28.09375
415,1697622565,-0.58203125,0.35253906,0.22753906,180.34375,96.71875,-14.59375
416,1697622605,-0.32617188,-0.33691406,0.35839844,24.71875,41.78125,21.28125
417,1697622645,-0.048828125,0.01171875,0.5185547,44.84375,-37.84375,-2.53125
418,1697622685,-0.4873047,-0.00390625,0.034179688,-69.84375,-82.46875,0.90625
419,1697622725,-2.0,0.30371094,-2.0,97.75,-139.53125,-33.28125
420,1697622765,-0.9765625,0.12597656,-1.1064453,61.5625,-15.28125,41.3125
421,1697622805,-0.94433594,-0.059570312,-0.5517578,16.65625,34.59375,20.375
422,1697622845,-1.5009766,0.022460938,0.75878906,25.4375,21.09375,-110.5
423,1697622885,0.1484375,-0.41210938,0.4189453,-80.03125,36.59375,7.25
424,1697622925,-1.1992188,-0.36816406,0.6357422,-319.65625,-126.40625,-66.3125
425,1697622965,-1.0009766,0.12402344,0.7783203,-136.6875,-187.875,-23.875
426,1697623005,-2.0,1.5371094,0.13476562,-225.40625,-174.46875,-26.5625
427,1697623045,-1.4306641,1.3759766,-0.4423828,-302.875,-62.28125,135.96875
428,1697623085,-0.79785156,0.026367188,0.026367188,197.3125,-118.25,59.8125
429,1697623125,-0.7910156,-0.34277344,-0.06347656,-60.6875,-86.9375,41.78125
430,1697623165,-0.7871094,-0.07421875,-0.1640625,-148.75,-53.59375,-3.5
431,1697623205,-0.9560547,0.15234375,0.013671875,-68.4375,23.59375,-44.375
432,1697623245,-1.125,1.078125,0.08984375,37.28125,-3.0,3.34375
433,1697623285,-1.25,0.37695312,0.21191406,16.15625,-37.96875,22.8125
434,1697623325,-1.0664062,0.107421875,0.021484375,-11.78125,-94.4375,35.15625
435,1697623365,-1.3974609,0.71484375,-0.4560547,250.65625,-99.0,-65.5625
436,1697623405,-1.3769531,0.5683594,-0.036132812,369.0,247.0625,-50.75
437,1697623445,-1.4970703,-0.56933594,0.69140625,65.78125,136.8125,-81.3125
438,1697623485,-1.7294922,0.11328125,0.028320312,186.5,171.1875,-97.625
439,1697623525,-1.5009766,0.390625,-0.19335938,-150.46875,174.84375,0.84375
440,1697623565,-0.7841797,0.41210938,0.15917969,-36.8125,190.59375,-35.96875
441,1697623605,-0.7451172,0.34765625,0.04296875,111.125,112.34375,-20.71875
442,1697623645,-0.45703125,-0.37695312,0.32910156,-18.09375,43.8125,9.6875
443,1697623685,0.14355469,0.060546875,0.71875,85.375,-17.28125,-3.5625
444,1697623725,-0.39160156,-0.2607422,0.20703125,-5.03125,-101.03125,28.5
445,1697623765,-1.3623047,0.21289062,-1.6582031,6.40625,-151.875,-4.46875
446,1697623805,-1.4208984,0.48339844,-1.2167969,75.65625,-15.46875,27.6875
447,1697623845,-0.73046875,0.30371094,-0.6142578,57.0625,17.0625,34.34375
448,1697623885,-2.0,0.13574219,-0.021484375,25.9375,-29.0,-41.8125
449,1697623925,-1.6005859,-0.0146484375,0.3779297,50.40625,35.375,-52.4375
450,1697623965,-0.63671875,-0.9189453,0.5566406,-122.09375,20.5,-14.125
451,1697624005,-0.77734375,-0.3466797,0.60839844,-264.96875,-117.875,-66.375
452,1697624045,-1.1796875,-0.0078125,0.9638672,-75.53125,-186.78125,-59.71875
453,1697624085,-1.7070312,1.8603516,0.16992188,-43.03125,-10.5,-28.15625
454,1697624125,-0.5839844,0.98535156,-0.3125,-147.96875,-296.53125,180.40625
455,1697624165,-0.8847656,0.17871094,-0.11816406,51.875,-118.0625,58.9375
456,1697624205,-0.9042969,-0.36621094,-0.23046875,-209.25,17.3125,43.75
457,1697624245,-0.8378906,-0.29785156,-0.08203125,-142.03125,-10.5,-34.0625
458,1697624285,-1.0820312,0.66308594,0.059570312,0.53125,45.15625,-50.0
459,1697624325,-1.1142578,1.1542969,0.3642578,168.375,60.21875,14.21875
460,1697624365,-1.3183594,0.41015625,0.036132812,-109.5625,-85.84375,51.375
461,1697624405,-1.2675781,0.2734375,-0.10839844,32.8125,-158.21875,-0.6875
462,1697624445,-1.1103516,0.41601562,-0.63183594,460.96875,51.3125,-63.75
463,1697624485,-1.3515625,0.34375,0.53222656,247.0625,252.5,-92.53125
464,1697624525,-1.828125,-0.203125,0.111328125,158.5,37.15625,-114.59375
465,1697624565,-1.7207031,0.9707031,-0.10839844,20.625,247.40625,-33.59375
466,1697624605,-0.9423828,0.0078125,0.5292969,-96.375,172.84375,-19.96875
467,1697624645,-0.4794922,0.20019531,0.36621094,-53.46875,140.125,-13.6875
468,1697624685,-0.87109375,0.4873047,0.01171875,130.96875,75.0,-18.09375
469,1697624725,-0.34277344,-0.3076172,0.2734375,-26.875,29.03125,29.84375
470,1697624765,0.08984375,-0.15332031,0.66503906,-69.34375,-56.90625,24.03125
471,1697624805,-0.7216797,-0.09667969,-0.4375,-16.875,-127.46875,-29.1875
472,1697624845,-2.0,0.19042969,-2.0,225.8125,-36.6875,-36.8125
473,1697624885,-0.9453125,0.35058594,-0.6191406,11.21875,-32.5625,49.46875
474,1697624925,-1.3144531,0.125,-0.6123047,62.71875,19.15625,16.34375
475,1697624965,-1.5507812,-0.083984375,0.22460938,3.09375,23.90625,-48.34375
476,1697625005,0.2421875,-0.6123047,0.43652344,13.40625,55.78125,39.0625
477,1697625045,-1.3740234,-0.6152344,0.6435547,-351.53125,-104.5,-99.6875
478,1697625085,-0.86621094,-0.25976562,0.890625,-137.40625,-160.59375,-98.90625
479,1697625125,-1.8144531,1.2744141,0.9580078,9.625,-167.625,-29.0
480,1697625165,-1.2216797,1.2529297,-0.9951172,-490.875,-145.46875,123.15625
481,1697625205,-1.0341797,0.6220703,-0.5214844,156.0,-193.25,74.09375
482,1697625245,-0.7324219,-0.30273438,0.123046875,-79.53125,-3.4375,75.53125
483,1697625285,-0.8154297,-0.25195312,-0.034179688,-214.90625,-50.3125,27.03125
484,1697625325,-0.90527344,-0.08203125,0.02734375,-100.71875,-8.125,-33.78125
485,1697625365,-1.1660156,1.0234375,0.21679688,75.53125,3.40625,5.59375
486,1697625405,-1.0742188,0.7265625,0.15917969,28.125,5.53125,20.625
487,1697625445,-1.1845703,0.23242188,0.057617188,-56.28125,-143.75,56.8125
488,1697625485,-1.3896484,0.64941406,-0.043945312,167.28125,-35.0,-31.9375
489,1697625525,-1.0722656,0.4013672,-0.51171875,425.40625,60.09375,-55.8125
490,1697625565,-1.3720703,-0.044921875,0.3955078,171.5,211.34375,-106.78125
491,1697625605,-1.8457031,-0.009765625,0.17578125,72.875,131.46875,-106.59375
492,1697625645,-1.5849609,0.8154297,0.103515625,-19.0625,170.53125,-8.75
493,1697625685,-0.94628906,-0.125,0.38378906,-118.25,158.5,-2.9375
494,1697625725,-0.63378906,0.07324219,0.43554688,-35.125,125.21875,-29.0
495,1697625765,-0.6611328,0.7109375,0.028320312,181.125,93.125,-40.84375
496,1697625805,-0.4111328,-0.3515625,0.33691406,19.15625,35.4375,29.65625
497,1697625845,-0.09765625,-0.31933594,0.51171875,-99.8125,-10.09375,20.6875
498,1697625885,-0.7109375,-0.018554688,-0.33789062,23.59375,-97.0,-25.21875
499,1697625925,-1.7988281,0.25976562,-1.6474609,90.5,-39.6875,-5.375
500,1697625965,-1.1679688,0.2861328,-0.9501953,33.8125,-25.71875,22.25
501,1697626005,-2.0,-0.0078125,-0.6972656,11.40625,4.0,-17.03125
502,1697626045,-0.56640625,0.3935547,1.0214844,22.4375,132.125,5.65625
503,1697626085,0.16503906,-1.1494141,0.24804688,-218.21875,63.28125,33.5625
504,1697626125,-1.2041016,-0.7861328,0.75097656,-323.5625,-200.09375,-143.8125
505,1697626165,-0.9609375,-0.4736328,0.49414062,-199.59375,-103.65625,-150.59375
506,1697626205,-2.0,0.8457031,1.0537109,219.46875,-81.6875,-91.5
507,1697626245,-0.890625,1.1923828,-1.0195312,-405.59375,-233.96875,92.34375
508,1697626285,-1.0458984,0.53808594,-0.5517578,11.53125,-203.5,111.8125
509,1697626325,-0.87597656,-0.2265625,-0.18847656,-39.375,-0.6875,76.65625
510,1697626365,-0.69921875,-0.21777344,-0.029296875,-160.34375,-47.5625,34.90625
511,1697626405,-0.83203125,-0.20019531,0.0087890625,-105.1875,-38.03125,-41.21875
512,1697626445,-1.09375,0.76953125,0.12597656,8.46875,26.84375,-36.8125
513,1697626485,-1.0273438,1.0380859,0.0107421875,54.84375,89.84375,16.53125
514,1697626525,-1.2304688,0.3125,-0.055664062,62.5,-124.46875,34.71875
515,1697626565,-1.3779297,0.55078125,-0.140625,62.90625,-124.65625,18.34375
516,1697626605,-1.0908203,0.2734375,-0.41992188,364.5,9.6875,-3.8125
517,1697626645,-1.2724609,-0.103515625,0.40039062,240.21875,189.5,-99.6875
518,1697626685,-1.8261719,0.12011719,-0.064453125,93.6875,105.75,-96.03125
519,1697626725,-1.6455078,0.5498047,0.10644531,-84.125,185.71875,-27.59375
520,1697626765,-0.9628906,0.10839844,0.18457031,-159.5625,171.75,29.28125
521,1697626805,-0.60839844,0.05078125,0.18261719,-35.84375,171.4375,-35.40625
522,1697626845,-0.54296875,0.3642578,0.12207031,153.625,67.5,-38.34375
523,1697626885,-0.30566406,-0.32910156,0.265625,-4.03125,43.5625,20.5625
524,1697626925,0.005859375,-0.17675781,0.46875,-61.0,-18.8125,4.1875
525,1697626965,-0.45117188,-0.12695312,0.14648438,-23.5,-100.53125,-38.28125
526,1697627005,-1.9677734,0.8222656,-2.0,165.9375,-160.21875,-48.90625
527,1697627045,-1.1328125,0.16992188,-1.0419922,13.84375,7.625,42.15625
528,1697627085,-0.8691406,0.25195312,-0.6435547,-34.625,9.4375,26.21875
529,1697627125,-1.0292969,0.5019531,-0.3154297,115.9375,-13.125,-11.25
530,1697627165,-1.8574219,-0.8232422,0.9121094,69.875,28.25,-109.15625
531,1697627205,-0.97753906,0.15136719,0.52734375,-150.21875,36.90625,6.5625
532,1697627245,-0.52246094,-0.46777344,0.5341797,-225.90625,-7.15625,-7.21875
533,1697627285,-1.0664062,-0.25683594,0.8535156,-83.28125,-137.90625,-70.28125
534,1697627325,-1.7207031,0.8261719,0.7578125,121.3125,-184.53125,-25.28125
535,1697627365,-1.1884766,1.2988281,-0.7294922,-567.9375,-132.71875,122.59375
536,1697627405,-1.1552734,0.33203125,-0.4482422,65.15625,-111.15625,46.5625
537,1697627445,-0.7109375,-0.20605469,-0.032226562,-69.09375,-25.59375,43.875
538,1697627485,-0.70996094,-0.18652344,-0.017578125,-48.53125,-76.96875,-24.90625
539,1697627525,-1.1025391,0.6035156,0.20214844,-17.15625,-35.96875,-7.78125
540,1697627565,-0.82910156,0.98535156,-0.140625,-15.28125,-35.90625,33.0
541,1697627605,-1.3779297,0.12011719,-0.22949219,-93.34375,-87.0,46.96875
542,1697627645,-0.9902344,0.44140625,-0.17382812,39.0,-27.0625,25.0
543,1697627685,-1.5429688,0.9580078,0.140625,228.375,53.5,15.71875
544,1697627725,-1.1015625,0.047851562,0.2783203,344.46875,132.5,-39.0625
545,1697627765,-1.8144531,0.18554688,-0.076171875,145.1875,48.03125,-130.09375
546,1697627805,-1.7626953,-0.026367188,0.29296875,15.96875,233.9375,-68.8125
547,1697627845,-1.7216797,1.0292969,-0.083984375,11.9375,188.65625,-31.09375
548,1697627885,-0.82421875,0.24414062,0.515625,-40.84375,175.28125,42.59375
549,1697627925,-0.40039062,0.021484375,0.5703125,25.0,126.09375,-10.03125
550,1697627965,-0.6298828,0.0107421875,0.037109375,98.625,41.78125,36.0
551,1697628005,-0.044921875,-0.26171875,0.38378906,15.5,15.625,21.59375
552,1697628045,-0.27734375,-0.29882812,0.029296875,-7.28125,-76.8125,-0.9375
553,1697628085,-0.953125,0.30859375,-1.0966797,16.71875,-44.375,-47.8125
554,1697628125,-1.6582031,0.38867188,-1.2548828,63.59375,-40.1875,2.78125
555,1697628165,-0.84375,0.5449219,-0.83984375,24.65625,-32.71875,25.9375
556,1697628205,-0.34765625,0.5029297,-0.7128906,62.125,-45.4375,13.84375
557,1697628245,-2.0,-0.7783203,0.92089844,-10.625,-127.75,-45.71875
558,1697628285,-0.6113281,0.052734375,1.3701172,131.40625,160.15625,20.90625
559,1697628325,-0.0107421875,-0.84765625,0.27539062,-260.75,-4.59375,-14.71875
560,1697628365,-1.2636719,-0.43554688,0.8564453,-217.125,-210.03125,-111.28125
561,1697628405,-1.7919922,1.1835938,1.0292969,113.5,-185.6875,-27.34375
562,1697628445,-1.3125,1.609375,-0.4189453,-400.90625,-77.34375,125.71875
563,1697628485,-0.9189453,0.63183594,-0.82714844,18.84375,-204.0625,92.09375
564,1697628525,-0.796875,-0.0546875,-0.06347656,5.53125,-42.4375,56.3125
565,1697628565,-0.7207031,-0.46875,0.08300781,-53.0625,-119.65625,-5.25
566,1697628605,-0.67089844,0.09472656,0.234375,-144.71875,-33.15625,8.46875
567,1697628645,-1.1210938,0.6044922,0.23632812,-72.03125,-25.28125,-29.125
568,1697628685,-1.1962891,0.91796875,0.15527344,-4.09375,-55.0,17.75
569,1697628725,-1.2265625,0.43554688,-0.12011719,0.15625,-97.5,47.65625
570,1697628765,-1.4589844,0.98535156,0.3408203,94.15625,24.75,-1.125
571,1697628805,-0.9316406,0.52734375,-0.103515625,255.84375,13.53125,16.15625
572,1697628845,-1.6201172,-0.045898438,0.33691406,317.84375,167.09375,-89.84375
573,1697628885,-1.71875,-0.087890625,0.45507812,41.4375,159.59375,-94.3125
574,1697628925,-1.6445312,0.15820312,0.18945312,27.28125,213.53125,-73.0
575,1697628965,-1.3740234,0.9628906,0.21289062,-132.28125,134.6875,81.03125
576,1697629005,-0.64160156,0.09082031,0.37402344,-1.53125,159.15625,34.03125
577,1697629045,-0.5097656,0.037109375,0.10058594,107.46875,118.40625,-60.375
578,1697629085,-0.16601562,-0.2861328,0.29589844,112.53125,38.0,25.875
579,1697629125,-0.12402344,-0.31054688,0.4609375,35.75,-15.8125,-2.15625
580,1697629165,-0.60839844,-0.21484375,-0.17382812,-35.0625,-76.3125,-40.1875
581,1697629205,-1.6416016,0.68847656,-1.2851562,38.8125,-52.6875,-25.03125
582,1697629245,-1.3974609,0.57128906,-1.0664062,25.1875,-38.21875,25.25
583,1697629285,-0.76464844,0.28515625,-0.546875,-8.75,-13.375,49.0625
584,1697629325,-2.0,0.23925781,-0.5048828,31.65625,-44.75,-52.1875
585,1697629365,-0.37597656,-0.88671875,0.5644531,-2.8125,138.96875,24.21875
586,1697629405,-0.3564453,-0.5488281,0.5361328,-207.84375,-50.5625,-49.6875
587,1697629445,-1.0429688,-0.3642578,0.77734375,-212.84375,-91.875,-120.75
588,1697629485,-1.6347656,0.4140625,1.0683594,40.09375,-64.59375,-149.5625
589,1697629525,-0.8095703,2.0,-0.90527344,-1.125,-294.9375,46.96875
590,1697629565,-0.84277344,0.5419922,-0.49902344,-12.78125,-180.625,129.5625
591,1697629605,-0.9111328,-0.022460938,-0.24121094,-100.1875,-35.21875,89.59375
592,1697629645,-0.6142578,-0.5761719,-0.0703125,-53.0,-34.125,-12.53125
593,1697629685,-0.8310547,-0.3046875,-0.036132812,-48.96875,-11.78125,-41.46875
594,1697629725,-1.0634766,0.66015625,0.03515625,17.1875,46.3125,-51.53125
595,1697629765,-1.0117188,0.97558594,-0.01953125,24.46875,75.4375,-9.71875
596,1697629805,-1.2128906,0.5107422,0.06738281,-67.71875,-91.375,44.78125
597,1697629845,-0.92089844,0.28222656,-0.040039062,-12.34375,-71.71875,36.4375
598,1697629885,-1.7001953,0.9589844,0.2919922,190.84375,-14.71875,25.5
599,1697629925,-0.9873047,-0.25976562,-0.5371094,431.375,1.6875,34.59375
600,1697629965,-1.6298828,-0.4189453,0.12402344,267.125,62.0,-154.1875
601,1697630005,-1.5810547,1.1054688,0.234375,44.125,214.84375,-63.625
602,1697630045,-1.25,0.0625,0.13964844,-124.09375,178.28125,-39.0625
603,1697630085,-0.7167969,0.12890625,0.18359375,-115.4375,211.78125,-39.8125
604,1697630125,-1.1464844,0.48828125,-0.19921875,114.0,82.125,25.625
605,1697630165,-0.39746094,-0.22558594,0.20605469,-2.03125,83.65625,34.03125
606,1697630205,-0.20800781,0.06542969,0.4375,69.625,20.96875,1.8125
607,1697630245,-0.43359375,-0.29589844,0.033203125,20.125,-55.6875,4.0
608,1697630285,-0.8076172,0.12109375,-0.7158203,-59.40625,-69.09375,-29.6875
609,1697630325,-1.5400391,0.4482422,-1.4384766,69.8125,-33.875,-11.5
610,1697630365,-1.1796875,0.5361328,-0.9140625,43.0,-22.125,34.59375
611,1697630405,-0.6660156,0.24707031,-0.53808594,21.28125,4.3125,33.96875
612,1697630445,-2.0,0.18164062,-0.66503906,2.4375,-57.4375,-26.3125
613,1697630485,-0.45410156,-1.1318359,0.51464844,-22.90625,95.75,12.0625
614,1697630525,-0.46484375,-0.61328125,0.41796875,-275.65625,-25.59375,-73.4375
615,1697630565,-0.82128906,-0.31152344,0.39746094,-277.84375,-102.3125,-140.34375
616,1697630605,-1.5449219,0.36914062,1.1835938,-57.5625,-173.59375,-108.09375
617,1697630645,-1.7099609,2.0,0.1875,172.65625,20.375,47.46875
618,1697630685,-0.6171875,0.51953125,-0.5283203,-101.8125,-418.09375,91.71875
619,1697630725,-1.0097656,0.7861328,-0.32421875,-98.84375,-36.46875,161.125
620,1697630765,-0.79589844,-0.24023438,-0.06347656,-104.6875,-32.4375,46.875
621,1697630805,-0.921875,-0.28027344,-0.030273438,-142.21875,10.65625,-0.625
622,1697630845,-0.9736328,0.18945312,0.08203125,-40.46875,46.1875,-33.84375
623,1697630885,-1.0830078,0.95410156,0.39746094,72.875,74.03125,2.78125
624,1697630925,-1.171875,0.31347656,0.15136719,-52.8125,-112.3125,16.78125
625,1697630965,-1.0068359,0.4140625,-0.0146484375,43.0,-69.78125,15.71875
626,1697631005,-1.1435547,0.8535156,-0.22167969,247.1875,-90.03125,-70.5
627,1697631045,-1.2255859,0.60058594,-0.6044922,391.78125,-49.875,-15.46875
628,1697631085,-1.4111328,0.21386719,0.25,249.1875,201.9375,-68.5625
629,1697631125,-1.5693359,0.18066406,0.32421875,-43.40625,111.5,-91.09375
630,1697631165,-1.6787109,0.44140625,0.005859375,32.8125,193.90625,-11.78125
631,1697631205,-1.2001953,0.16308594,0.12890625,-86.6875,215.0625,2.0625
632,1697631245,-0.60546875,0.0009765625,0.20996094,-56.46875,177.34375,14.375
633,1697631285,-0.79589844,0.2578125,-0.044921875,106.75,35.5,-0.75
634,1697631325,-0.34375,-0.10253906,0.22558594,61.03125,44.1875,32.6875
635,1697631365,-0.24316406,-0.18554688,0.41210938,1.3125,-8.0,15.5
636,1697631405,-0.55078125,-0.14941406,0.0029296875,-33.65625,-88.6875,-11.6875
637,1697631445,-1.3916016,0.5957031,-1.4052734,112.34375,-100.125,-49.21875
638,1697631485,-1.4326172,0.29882812,-1.2001953,72.625,-42.25,10.90625
639,1697631525,-0.8466797,0.3984375,-0.68359375,-54.46875,-13.375,31.90625
640,1697631565,-0.64453125,0.328125,-0.42089844,47.03125,-13.5,7.5
641,1697631605,-1.9130859,-0.69921875,0.59765625,0.71875,-37.625,-103.90625
642,1697631645,-0.16796875,-0.16113281,0.2734375,-14.53125,40.8125,0.65625
643,1697631685,-0.8486328,-0.4482422,0.59472656,-285.40625,-80.8125,-50.0
644,1697631725,-1.2548828,-0.25390625,1.0800781,-65.875,-123.96875,-75.46875
645,1697631765,-2.0,2.0,-0.24707031,-16.4375,-104.5625,-49.5625
646,1697631805,-1.0791016,1.0820312,-0.41992188,-218.9375,-123.375,121.5
647,1697631845,-0.8232422,0.42382812,-0.07128906,198.40625,-124.53125,47.59375
648,1697631885,-0.51171875,-0.111328125,0.047851562,-143.875,-33.71875,108.1875
649,1697631925,-0.8828125,-0.33203125,-0.0234375,-132.34375,-48.40625,21.03125
650,1697631965,-0.88671875,0.07421875,0.08300781,-45.4375,-38.46875,-27.3125
651,1697632005,-1.0351562,0.9404297,0.15332031,-9.34375,2.125,11.15625
652,1697632045,-1.3037109,0.38867188,0.040039062,16.46875,-90.53125,20.8125
653,1697632085,-1.0664062,0.5361328,-0.07421875,64.0,-38.21875,23.3125
654,1697632125,-1.3652344,0.8261719,-0.14941406,156.96875,-4.34375,-52.1875
655,1697632165,-1.1152344,0.27441406,-0.4560547,386.59375,104.71875,-34.4375
656,1697632205,-1.3544922,0.13476562,0.4658203,76.8125,219.15625,-88.34375
657,1697632245,-1.7226562,0.14257812,0.16503906,24.875,111.5,-76.5
658,1697632285,-1.8183594,0.96972656,-0.06542969,-18.21875,170.15625,7.375
659,1697632325,-1.0927734,0.1484375,0.3642578,-83.8125,144.5625,30.0
660,1697632365,-0.578125,-0.057617188,-0.005859375,6.8125,139.28125,-3.25
661,1697632405,-0.43554688,0.12597656,0.3330078,85.375,78.125,-33.78125
662,1697632445,-0.37695312,-0.14550781,0.2265625,72.4375,19.875,22.875
663,1697632485,-0.29101562,-0.33007812,0.17285156,-14.90625,-33.28125,2.90625
664,1697632525,-0.59375,0.01953125,-0.5253906,-138.125,-70.375,-18.3125
665,1697632565,-1.7705078,0.78515625,-1.1953125,35.9375,-75.625,-49.21875
666,1697632605,-1.1220703,0.6279297,-0.71484375,37.59375,-29.75,27.5
667,1697632645,-0.6845703,0.25878906,-0.58496094,11.46875,-18.6875,22.75
668,1697632685,-1.375,-0.022460938,-0.12792969,-6.1875,-69.40625,-19.84375
669,1697632725,-1.2783203,-0.60546875,0.13964844,99.84375,1.21875,-47.125
670,1697632765,-0.5654297,-0.63964844,0.46289062,-142.40625,-23.28125,-45.5625
671,1697632805,-0.7949219,-0.103515625,0.89160156,-59.71875,-150.84375,-78.8125
672,1697632845,-1.7001953,1.3974609,0.9824219,-39.5,-180.9375,3.90625
673,1697632885,-1.2451172,1.203125,-0.640625,-321.3125,-116.84375,52.78125
674,1697632925,-0.73339844,0.6816406,-0.052734375,181.1875,-113.25,74.875
675,1697632965,-0.8222656,-0.23925781,-0.05859375,-71.0,-78.125,88.78125
676,1697633005,-0.8388672,-0.4013672,0.015625,-142.34375,-48.21875,36.3125
677,1697633045,-0.7988281,-0.107421875,0.171875,-114.6875,-21.4375,-16.96875
678,1697633085,-1.0859375,0.8417969,0.24902344,-8.125,18.84375,-18.8125
679,1697633125,-1.0693359,0.78808594,0.057617188,41.125,-65.375,13.28125
680,1697633165,-1.2597656,0.3486328,-0.13476562,28.0,-82.65625,37.8125
681,1697633205,-1.3486328,0.82714844,0.072265625,77.0,50.15625,10.46875
682,1697633245,-1.1484375,0.21484375,-0.32714844,302.90625,66.4375,-23.75
683,1697633285,-1.3496094,0.025390625,0.24121094,320.125,161.46875,-111.28125
684,1697633325,-1.7109375,0.23535156,0.171875,29.09375,153.96875,-56.34375
685,1697633365,-1.5908203,0.8339844,0.08496094,2.5625,177.40625,-34.6875
686,1697633405,-1.0371094,0.16210938,0.29003906,-103.59375,153.25,-3.96875
687,1697633445,-0.81347656,0.41503906,0.09375,-39.0625,116.5625,9.03125
688,1697633485,-0.48828125,-0.072265625,0.2548828,27.09375,109.90625,-21.125
689,1697633525,-0.30078125,-0.033203125,0.25097656,90.5625,14.9375,0.71875
690,1697633565,-0.22070312,-0.24023438,0.390625,-19.84375,-31.5,11.8125
691,1697633605,-0.53515625,-0.30078125,0.16796875,-47.3125,-68.6875,-32.71875
692,1697633645,-1.9570312,1.0322266,-2.0,99.90625,-107.875,-48.65625
693,1697633685,-1.0976562,0.41015625,-0.8574219,20.25,-25.21875,52.0625
694,1697633725,-0.7890625,0.30078125,-0.6455078,-14.1875,5.1875,37.40625
695,1697633765,-1.2578125,0.2939453,0.4248047,-20.84375,3.65625,6.03125
696,1697633805,-1.7412109,-0.6113281,0.47265625,153.96875,-47.8125,-103.09375
697,1697633845,-0.7685547,-1.0273438,0.53125,-102.4375,-25.78125,11.15625
698,1697633885,-0.9785156,-0.4345703,0.6347656,-235.25,-83.28125,-61.53125
699,1697633925,-1.3115234,-0.03515625,1.2373047,99.03125,-160.46875,-94.5625
700,1697633965,-1.4628906,2.0,-0.4970703,-172.3125,-52.09375,-8.125
701,1697634005,-0.4326172,1.2783203,-0.38964844,-151.03125,-182.5,142.0625
702,1697634045,-0.84375,0.13769531,0.00390625,-30.15625,-140.03125,101.375
703,1697634085,-0.82128906,-0.33496094,0.017578125,-54.9375,-7.71875,34.21875
704,1697634125,-0.5986328,-0.265625,0.14550781,-81.1875,-43.90625,-11.125
705,1697634165,-1.1425781,0.6074219,0.2421875,-37.5,10.3125,-40.0625
706,1697634205,-1.0839844,1.1533203,0.09472656,-46.46875,-29.375,31.90625
707,1697634245,-1.2802734,0.31347656,-0.107421875,75.5,-139.40625,27.8125
708,1697634285,-1.1142578,0.35546875,-0.23046875,25.4375,5.34375,10.0625
709,1697634325,-1.1533203,0.56640625,-0.080078125,176.125,93.625,0.65625
710,1697634365,-1.203125,0.359375,0.1171875,327.8125,155.0625,-50.5
711,1697634405,-1.84375,0.06347656,0.58691406,74.09375,172.78125,-76.0
712,1697634445,-1.8466797,0.3095703,-0.10253906,119.96875,167.84375,-46.21875
713,1697634485,-1.1611328,0.018554688,0.036132812,-135.03125,200.90625,7.0
714,1697634525,-0.71875,0.5488281,0.17480469,-116.65625,129.0625,38.25
715,1697634565,-0.46875,-0.17871094,0.37109375,6.03125,127.5625,-9.28125
716,1697634605,-0.5292969,0.0859375,0.17285156,136.875,39.59375,20.3125
717,1697634645,-0.12988281,-0.24707031,0.33398438,50.15625,-8.0,17.0625
718,1697634685,-0.49609375,-0.328125,0.1171875,-47.875,-57.6875,-8.0
719,1697634725,-0.7919922,0.2265625,-0.53027344,-43.96875,-112.0,-29.8125
720,1697634765,-1.8740234,0.9296875,-1.4355469,57.53125,-5.5625,13.65625
721,1697634805,-1.0322266,0.45507812,-0.7421875,3.40625,-30.40625,40.9375
722,1697634845,-0.6699219,0.359375,-0.41796875,2.25,2.0625,39.0
723,1697634885,-2.0,0.107421875,0.4375,-59.21875,-103.90625,-40.3125
724,1697634925,0.12597656,-0.8486328,0.43359375,-60.6875,83.40625,9.125
725,1697634965,-0.79003906,-0.84472656,0.29589844,-238.125,14.03125,-28.03125
726,1697635005,-1.0048828,-0.5136719,0.6347656,-177.09375,-65.1875,-174.9375
727,1697635045,-1.5664062,0.27734375,1.1357422,129.6875,36.59375,-220.90625
728,1697635085,-1.3496094,2.0,-0.56347656,212.875,-133.1875,144.5625
729,1697635125,-1.0107422,0.9472656,-1.6621094,-332.15625,-176.90625,186.75
730,1697635165,-0.92089844,-0.018554688,-0.08105469,-5.375,54.78125,73.46875
731,1697635205,-0.74316406,-0.55078125,-0.049804688,-36.625,21.03125,-34.0625
732,1697635245,-0.90527344,-0.17871094,-0.09082031,-35.0625,-23.34375,-50.1875
733,1697635285,-1.0449219,0.9511719,-0.10839844,37.71875,0.65625,-41.34375
734,1697635325,-1.0380859,0.5058594,-0.037109375,53.5,42.34375,-3.375
735,1697635365,-1.1591797,0.23144531,0.047851562,-5.03125,-33.53125,24.46875
736,1697635405,-0.93359375,0.1953125,-0.16210938,-2.03125,-7.34375,9.9375
737,1697635445,-1.5126953,1.25,-0.7451172,153.25,-188.84375,17.1875
738,1697635485,-1.4648438,0.61328125,0.265625,408.5,217.03125,-13.5
739,1697635525,-1.8574219,-0.8105469,0.3046875,32.28125,70.1875,-116.65625
740,1697635565,-1.71875,0.49316406,-0.078125,-13.25,222.875,-86.4375
741,1697635605,-1.2949219,-0.013671875,0.083984375,-248.71875,165.5625,35.5
742,1697635645,-0.53515625,0.19238281,0.34179688,-22.46875,159.84375,-15.15625
743,1697635685,-0.62402344,0.26171875,0.11425781,67.1875,78.125,39.96875
744,1697635725,-0.21777344,-0.23046875,0.18066406,-7.09375,38.75,46.5
745,1697635765,-0.11816406,-0.26953125,0.37109375,-13.875,-3.375,10.59375
746,1697635805,-0.2919922,-0.22949219,0.29101562,-52.9375,-87.96875,5.34375
747,1697635845,-0.96484375,0.42089844,-0.81152344,-14.96875,-103.21875,-61.46875
748,1697635885,-2.0,1.2021484,-1.609375,118.625,-40.0,-14.90625
749,1697635925,-0.90234375,0.3203125,-0.5859375,9.375,6.34375,32.28125
750,1697635965,-0.6015625,0.37890625,-0.6738281,19.21875,7.0,35.625
751,1697636005,-1.5087891,-0.7470703,0.6826172,-97.25,-56.15625,-19.125
752,1697636045,-1.2705078,0.5419922,-0.62890625,227.875,9.5625,-54.59375
753,1697636085,-0.38671875,-0.7363281,0.51464844,-253.5,52.90625,-56.46875
754,1697636125,-1.2021484,-0.4609375,1.0048828,-144.90625,-122.28125,-91.4375
755,1697636165,-1.9453125,0.92871094,1.0341797,258.34375,-153.6875,-87.28125
756,1697636205,-0.7050781,1.3320312,-1.0214844,-524.6875,-174.09375,87.8125
757,1697636245,-1.2734375,0.7470703,-0.30664062,-9.28125,-138.125,142.875
758,1697636285,-0.8144531,-0.20605469,0.009765625,33.375,-84.4375,62.25
759,1697636325,-0.63671875,-0.53515625,0.051757812,-23.40625,-33.15625,4.75
